wordCTK,colorCTK,corrAnsCTK,congruentCTK,thisN,thisTrialN,thisRepN,keyResp_CTK.keys,keyResp_CTK.corr,keyResp_CTK.rt,keyResp_CTK.duration,wordPractice,colorPractice,corrAnsPractice,congruentPractice,respPractice.keys,respPractice.corr,respPractice.rt,respPractice.duration,word,color,corrAns,congruent,keyResp_test_run.keys,keyResp_test_run.corr,keyResp_test_run.rt,keyResp_test_run.duration,trials_CTK.thisRepN,trials_CTK.thisTrialN,trials_CTK.thisN,trials_CTK.thisIndex,trials_practice.thisRepN,trials_practice.thisTrialN,trials_practice.thisN,trials_practice.thisIndex,trials_test.thisRepN,trials_test.thisTrialN,trials_test.thisN,trials_test.thisIndex,thisRow.t,notes,instruction.started,instr_text.started,instr_image.started,instr_resp.started,instruction.stopped,instr_resp.keys,instr_resp.rt,instr_resp.duration,instr_color_to_key.started,instr_ctk.started,resp_ctk.started,instr_color_to_key.stopped,resp_ctk.keys,resp_ctk.rt,resp_ctk.duration,ITI.started,fixcross.started,fixcross.stopped,ITI.stopped,color_to_key_run.started,stimulus_CTK.started,keyResp_CTK.started,color_to_key_run.stopped,trials_CTK.keyResp_CTK.keys,trials_CTK.keyResp_CTK.corr,trials_CTK.keyResp_CTK.rt,trials_CTK.keyResp_CTK.duration,instr_practice.started,instr_practice_text.started,instr_practice_resp.started,instr_practice.stopped,instr_practice_resp.keys,instr_practice_resp.rt,instr_practice_resp.duration,practice_run.started,stimulus_practice.started,respPractice.started,practice_run.stopped,trials_practice.respPractice.keys,trials_practice.respPractice.corr,trials_practice.respPractice.rt,trials_practice.respPractice.duration,feedback.started,textFeedback.started,feedback.stopped,textFeedback.stopped,instr_test.started,instr_test_text.started,instr_test_resp.started,instr_test.stopped,instr_test_resp.keys,instr_test_resp.rt,instr_test_resp.duration,test_run.started,stimulus_test_run.started,keyResp_test_run.started,test_run.stopped,trials_test.keyResp_test_run.keys,trials_test.keyResp_test_run.corr,trials_test.keyResp_test_run.rt,trials_test.keyResp_test_run.duration,goodbye.started,textGoodbye.started,goodbye.stopped,participant,session,expName,frameRate,Unnamed: 112
,,,,,,,,,,,,,,,,,,,,,,,,,,,,,,,,,,,,,,,,,0.0151602590049151,0.0398487609927542,0.0398487609927542,0.0398487609927542,49.79907163999451,space,49.7503637609916,,,,,,,,,,,,,,,,,,,,,,,,,,,,,,,,,,,,,,,,,,,,,,,,,,,,,,,,,,sub-199,1,stroop_test,64.85221328865822,
,,,,,,,,,,,,,,,,,,,,,,,,,,,,,,,,,,,,,,,,,,,,,,,,,49.79911866299517,49.812811359995976,49.812811359995976,57.02000680200581,space,7.196941980000702,,,,,,,,,,,,,,,,,,,,,,,,,,,,,,,,,,,,,,,,,,,,,,,,,,,sub-199,1,stroop_test,64.85221328865822,
test,yellow,g,1.0,0.0,0.0,0.0,g,1.0,4.842056915003923,,,,,,,,,,,,,,,,,,0.0,0.0,0.0,1.0,,,,,,,,,57.03984847999527,,,,,,,,,,,,,,,,,57.031221102006384,58.2131604210008,59.02988583300612,59.0114615450002,59.01811637400533,59.02988583300612,59.02988583300612,63.89567449000606,g,1.0,4.842056915003923,,,,,,,,,,,,,,,,,,,,,,,,,,,,,,,,,,,,,,,sub-199,1,stroop_test,64.85221328865822,
test,blue,b,1.0,1.0,1.0,0.0,b,1.0,1.027986137996777,,,,,,,,,,,,,,,,,,0.0,1.0,1.0,2.0,,,,,,,,,63.9124299880059,,,,,,,,,,,,,,,,,63.89617924399499,64.23774615699949,65.03319286499755,65.02117282399558,65.02249939899775,65.03319286499755,65.03319286499755,66.08051887300098,b,1.0,1.027986137996777,,,,,,,,,,,,,,,,,,,,,,,,,,,,,,,,,,,,,,,sub-199,1,stroop_test,64.85221328865822,
test,red,r,1.0,2.0,2.0,0.0,r,1.0,0.8636559570004465,,,,,,,,,,,,,,,,,,0.0,2.0,2.0,0.0,,,,,,,,,66.09134239600098,,,,,,,,,,,,,,,,,66.08099944300193,66.18127019799431,66.98430450400338,66.97181371699844,66.97309997900447,66.98430450400338,66.98430450400338,67.86223255899677,r,1.0,0.8636559570004465,,,,,,,,,,,,,,,,,,,,,,,,,,,,,,,,,,,,,,,sub-199,1,stroop_test,64.85221328865822,
test,yellow,g,1.0,3.0,0.0,1.0,g,1.0,1.351931175988284,,,,,,,,,,,,,,,,,,1.0,0.0,3.0,1.0,,,,,,,,,67.87928500800626,,,,,,,,,,,,,,,,,67.86273707599321,68.2138036450051,69.02912479499355,69.01122687199677,69.0119586380024,69.02912479499355,69.02912479499355,70.39047919200675,g,1.0,1.351931175988284,,,,,,,,,,,,,,,,,,,,,,,,,,,,,,,,,,,,,,,sub-199,1,stroop_test,64.85221328865822,
test,blue,b,1.0,4.0,1.0,1.0,b,1.0,0.5529665409994777,,,,,,,,,,,,,,,,,,1.0,1.0,4.0,2.0,,,,,,,,,70.40043292100017,,,,,,,,,,,,,,,,,70.3907290000061,70.49073725599737,71.28988934599329,71.27954134299944,71.28023141900485,71.28988934599329,71.28988934599329,71.84711625499767,b,1.0,0.5529665409994777,,,,,,,,,,,,,,,,,,,,,,,,,,,,,,,,,,,,,,,sub-199,1,stroop_test,64.85221328865822,
test,red,r,1.0,5.0,2.0,1.0,r,1.0,0.6731533530110028,,,,,,,,,,,,,,,,,,1.0,2.0,5.0,0.0,,,,,,,,,71.85695015700185,,,,,,,,,,,,,,,,,71.84738613700029,72.66084692899312,73.45491440499609,73.4459787520027,73.44637072499609,73.45491440499609,73.45491440499609,74.14566560300591,r,1.0,0.6731533530110028,,,,,,,,,,,,,,,,,,,,,,,,,,,,,,,,,,,,,,,sub-199,1,stroop_test,64.85221328865822,
test,red,r,1.0,6.0,0.0,2.0,r,1.0,0.8273243630101206,,,,,,,,,,,,,,,,,,2.0,0.0,6.0,0.0,,,,,,,,,74.16244969199761,,,,,,,,,,,,,,,,,74.14614315399376,74.4878480979969,75.28974207499414,75.27924832800636,75.27994555300393,75.28974207499414,75.28974207499414,76.12339105700084,r,1.0,0.8273243630101206,,,,,,,,,,,,,,,,,,,,,,,,,,,,,,,,,,,,,,,sub-199,1,stroop_test,64.85221328865822,
test,yellow,g,1.0,7.0,1.0,2.0,g,1.0,1.0795346749946475,,,,,,,,,,,,,,,,,,2.0,1.0,7.0,1.0,,,,,,,,,76.13344819399936,,,,,,,,,,,,,,,,,76.1237273769948,76.47431403500377,77.2732501940045,77.26268348899612,77.26338025499717,77.2732501940045,77.2732501940045,78.36191126400081,g,1.0,1.0795346749946475,,,,,,,,,,,,,,,,,,,,,,,,,,,,,,,,,,,,,,,sub-199,1,stroop_test,64.85221328865822,
test,blue,b,1.0,8.0,2.0,2.0,b,1.0,0.6131404909974663,,,,,,,,,,,,,,,,,,2.0,2.0,8.0,2.0,,,,,,,,,78.37887105799746,,,,,,,,,,,,,,,,,78.3623909750022,79.55419554299442,80.3506251660001,80.3384128040052,80.33971801999724,80.3506251660001,80.3506251660001,80.97799089200271,b,1.0,0.6131404909974663,,,,,,,,,,,,,,,,,,,,,,,,,,,,,,,,,,,,,,,sub-199,1,stroop_test,64.85221328865822,
test,blue,b,1.0,9.0,0.0,3.0,b,1.0,1.0458879790094215,,,,,,,,,,,,,,,,,,3.0,0.0,9.0,2.0,,,,,,,,,80.99565787799656,,,,,,,,,,,,,,,,,80.97824571699311,82.17452191500342,82.9707834199944,82.96216708399879,82.96249819200602,82.9707834199944,82.9707834199944,84.02865286900487,b,1.0,1.0458879790094215,,,,,,,,,,,,,,,,,,,,,,,,,,,,,,,,,,,,,,,sub-199,1,stroop_test,64.85221328865822,
test,yellow,g,1.0,10.0,1.0,3.0,g,1.0,0.7029894730076194,,,,,,,,,,,,,,,,,,3.0,1.0,10.0,1.0,,,,,,,,,84.04545892500028,,,,,,,,,,,,,,,,,84.02922091100481,84.13077253100346,84.93369504599832,84.92166758100211,84.92294565000338,84.93369504599832,84.93369504599832,85.64736608500243,g,1.0,0.7029894730076194,,,,,,,,,,,,,,,,,,,,,,,,,,,,,,,,,,,,,,,sub-199,1,stroop_test,64.85221328865822,
test,red,r,1.0,11.0,2.0,3.0,r,1.0,0.7218037260026904,,,,,,,,,,,,,,,,,,3.0,2.0,11.0,0.0,,,,,,,,,85.6621701020049,,,,,,,,,,,,,,,,,85.64760592099628,85.76075525800115,86.55643670499558,86.54603420500644,86.54673435499717,86.55643670499558,86.55643670499558,87.2832054229948,r,1.0,0.7218037260026904,,,,,,,,,,,,,,,,,,,,,,,,,,,,,,,,,,,,,,,sub-199,1,stroop_test,64.85221328865822,
,,,,,,,,,,,,,,,,,,,,,,,,,,,,,,,,,,,,,,,,,,,,,,,,,,,,,,,,,,,,,,,,,,,,87.28346129099373,87.29427043099713,87.29427043099713,90.65197282700684,space,3.345189514991944,,,,,,,,,,,,,,,,,,,,,,,,,,,,,,,,sub-199,1,stroop_test,64.85221328865822,
,,,,0.0,0.0,0.0,,,,,rot,yellow,g,0.0,g,1.0,2.2799834530014778,,,,,,,,,,,,,,0.0,0.0,0.0,3.0,,,,,90.672685026002,,,,,,,,,,,,,,,,,90.6634361759934,91.86058750499797,92.6605592650012,92.64447090000613,,,,,,,,,,,,,,,,92.65085777500644,92.6605592650012,92.6605592650012,94.9466394560004,g,1.0,2.2799834530014778,,94.95044560400127,94.96168633099296,95.96212477399968,,,,,,,,,,,,,,,,,,,,sub-199,1,stroop_test,64.85221328865822,
,,,,1.0,1.0,0.0,,,,,rot,red,r,1.0,r,1.0,0.9293423000053735,,,,,,,,,,,,,,0.0,1.0,1.0,0.0,,,,,95.97020085400436,,,,,,,,,,,,,,,,,95.96248899000057,96.04715824600136,96.8510057139938,96.83834494400072,,,,,,,,,,,,,,,,96.83956825999483,96.8510057139938,96.8510057139938,97.78571264000492,r,1.0,0.9293423000053735,,97.78618005099996,97.79871765999997,98.7835584370041,98.79547285000444,,,,,,,,,,,,,,,,,,,sub-199,1,stroop_test,64.85221328865822,
,,,,2.0,2.0,0.0,,,,,gelb,blue,b,0.0,b,1.0,4.434619127001497,,,,,,,,,,,,,,0.0,2.0,2.0,9.0,,,,,98.79547285000444,,,,,,,,,,,,,,,,,98.78454690199578,98.88287646199753,99.69523969499278,99.67699022400484,,,,,,,,,,,,,,,,99.67979338900476,99.69523969499278,99.69523969499278,104.14437955600442,b,1.0,4.434619127001497,,104.14481796399924,104.16184475399496,105.14708615699784,,,,,,,,,,,,,,,,,,,,sub-199,1,stroop_test,64.85221328865822,
,,,,3.0,3.0,0.0,,,,,blau,red,r,0.0,r,1.0,0.7385285460040905,,,,,,,,,,,,,,0.0,3.0,3.0,4.0,,,,,105.16202038399932,,,,,,,,,,,,,,,,,105.14743649300362,105.94519794799272,106.7619244200032,106.7441620909958,,,,,,,,,,,,,,,,106.74950500699924,106.7619244200032,106.7619244200032,107.51262864599994,r,1.0,0.7385285460040905,,107.5131485919992,107.5228052099992,108.51622471399604,,,,,,,,,,,,,,,,,,,,sub-199,1,stroop_test,64.85221328865822,
,,,,4.0,4.0,0.0,,,,,blau,blue,b,1.0,b,1.0,0.7667419810022693,,,,,,,,,,,,,,0.0,4.0,4.0,5.0,,,,,108.52970898899366,,,,,,,,,,,,,,,,,108.51760886400008,108.61183004699706,109.42270626600656,109.41224696299469,,,,,,,,,,,,,,,,109.41293937100272,109.42270626600656,109.42270626600656,110.19273099600105,b,1.0,0.7667419810022693,,110.19423363599344,110.20540141599486,111.2001141350047,,,,,,,,,,,,,,,,,,,,sub-199,1,stroop_test,64.85221328865822,
,,,,5.0,5.0,0.0,,,,,gelb,yellow,g,1.0,g,1.0,0.9335053469985723,,,,,,,,,,,,,,0.0,5.0,5.0,11.0,,,,,111.21380667599442,,,,,,,,,,,,,,,,,111.2014177730016,111.29111617899616,112.11183015399727,112.09391577000495,,,,,,,,,,,,,,,,112.09795339299308,112.11183015399727,112.11183015399727,113.05596990599588,g,1.0,0.9335053469985723,,113.05648799899792,113.06678120400466,114.06047776799824,,,,,,,,,,,,,,,,,,,,sub-199,1,stroop_test,64.85221328865822,
,,,,6.0,6.0,0.0,,,,,blau,blue,b,1.0,b,1.0,0.7962157400033902,,,,,,,,,,,,,,0.0,6.0,6.0,6.0,,,,,114.07844179299718,,,,,,,,,,,,,,,,,114.06097269500606,114.15111505999812,114.95797058200696,114.94539941199764,,,,,,,,,,,,,,,,114.94908013100212,114.95797058200696,114.95797058200696,115.76257227599854,b,1.0,0.7962157400033902,,115.76308881900331,115.77308321700548,116.7634374610061,,,,,,,,,,,,,,,,,,,,sub-199,1,stroop_test,64.85221328865822,
,,,,7.0,7.0,0.0,,,,,rot,blue,b,0.0,b,1.0,1.684789257007651,,,,,,,,,,,,,,0.0,7.0,7.0,2.0,,,,,116.77862475300208,,,,,,,,,,,,,,,,,116.76392906000548,117.96175092099293,118.76206788000128,118.74781364599768,,,,,,,,,,,,,,,,118.75256269700184,118.76206788000128,118.76206788000128,120.45193162999932,b,1.0,1.684789257007651,,120.45230851900124,120.46249332900334,121.461824633996,,,,,,,,,,,,,,,,,,,,sub-199,1,stroop_test,64.85221328865822,
,,,,8.0,8.0,0.0,,,,,rot,red,r,1.0,r,1.0,0.8052687129966216,,,,,,,,,,,,,,0.0,8.0,8.0,1.0,,,,,121.4702954730019,,,,,,,,,,,,,,,,,121.46230840099452,121.54858812800376,122.3502865079936,122.33802782799468,,,,,,,,,,,,,,,,122.3393099840032,122.3502865079936,122.3502865079936,123.17840660200454,r,1.0,0.8052687129966216,,123.17916271599825,123.19500707100087,124.18309608500569,,,,,,,,,,,,,,,,,,,,sub-199,1,stroop_test,64.85221328865822,
,,,,9.0,9.0,0.0,,,,,gelb,yellow,g,1.0,g,1.0,0.8163567680021515,,,,,,,,,,,,,,0.0,9.0,9.0,10.0,,,,,124.1963454999932,,,,,,,,,,,,,,,,,124.18428177799797,124.9783676109946,125.79498220399546,125.77707415599434,,,,,,,,,,,,,,,,125.78128204500536,125.79498220399546,125.79498220399546,126.61585165699944,g,1.0,0.8163567680021515,,126.61650047899457,126.6268805550062,127.61045872500108,127.6282938450022,,,,,,,,,,,,,,,,,,,sub-199,1,stroop_test,64.85221328865822,
,,,,10.0,10.0,0.0,,,,,blau,yellow,g,0.0,g,1.0,0.4086797880008816,,,,,,,,,,,,,,0.0,10.0,10.0,7.0,,,,,127.6282938450022,,,,,,,,,,,,,,,,,127.61092058199574,127.71390164199693,128.525705114007,128.51209095100057,,,,,,,,,,,,,,,,128.51634332499816,128.525705114007,128.525705114007,128.94650165799248,g,1.0,0.4086797880008816,,128.9472670279938,128.95904479999444,129.94521813299798,129.9537478699931,,,,,,,,,,,,,,,,,,,sub-199,1,stroop_test,64.85221328865822,
,,,,11.0,11.0,0.0,,,,,gelb,red,r,0.0,r,1.0,0.5916841050056973,,,,,,,,,,,,,,0.0,11.0,11.0,8.0,,,,,129.9537478699931,,,,,,,,,,,,,,,,,129.94567545800237,131.13980482799525,131.96148565699696,131.9436663719971,,,,,,,,,,,,,,,,131.94769178899878,131.96148565699696,131.96148565699696,132.55692953600374,r,1.0,0.5916841050056973,,132.55783125100425,132.56842799499282,133.56011579799815,,,,,,,,,,,,,,,,,,,,sub-199,1,stroop_test,64.85221328865822,
,,,,12.0,0.0,1.0,,,,,gelb,red,r,0.0,r,1.0,0.5996712220076006,,,,,,,,,,,,,,1.0,0.0,12.0,8.0,,,,,133.57814410500578,,,,,,,,,,,,,,,,,133.56061012900318,133.6533816089941,134.46130024800368,134.44745891199273,,,,,,,,,,,,,,,,134.4478583129967,134.46130024800368,134.46130024800368,135.0625085609936,r,1.0,0.5996712220076006,,135.06293929000094,135.07348171400372,136.0602943279955,136.07820017299673,,,,,,,,,,,,,,,,,,,sub-199,1,stroop_test,64.85221328865822,
,,,,13.0,1.0,1.0,,,,,blau,yellow,g,0.0,g,1.0,0.7123464149917709,,,,,,,,,,,,,,1.0,1.0,13.0,7.0,,,,,136.07820017299673,,,,,,,,,,,,,,,,,136.06075443699956,136.40390686799947,137.2084679880063,137.19510353000078,,,,,,,,,,,,,,,,137.19914274099574,137.2084679880063,137.2084679880063,137.92741445399588,g,1.0,0.7123464149917709,,137.92777763100457,137.94484777000616,138.94343202699383,,,,,,,,,,,,,,,,,,,,sub-199,1,stroop_test,64.85221328865822,
,,,,14.0,2.0,1.0,,,,,gelb,blue,b,0.0,b,1.0,0.6646197670052061,,,,,,,,,,,,,,1.0,2.0,14.0,9.0,,,,,138.96142524199968,,,,,,,,,,,,,,,,,138.9439186439995,139.27012054699298,140.0770615200017,140.06311231400468,,,,,,,,,,,,,,,,140.06773143999453,140.0770615200017,140.0770615200017,140.74620838600094,b,1.0,0.6646197670052061,,140.74672634700255,140.7599241919961,141.74505873399903,141.7534160350042,,,,,,,,,,,,,,,,,,,sub-199,1,stroop_test,64.85221328865822,
,,,,15.0,3.0,1.0,,,,,gelb,yellow,g,1.0,g,1.0,1.097006551004597,,,,,,,,,,,,,,1.0,3.0,15.0,11.0,,,,,141.7534160350042,,,,,,,,,,,,,,,,,141.74548444000538,142.55988978200185,143.35560051399807,143.34520331700332,,,,,,,,,,,,,,,,143.3459026700002,143.35560051399807,143.35560051399807,144.46048525400693,g,1.0,1.097006551004597,,144.4609086290002,144.4780858479935,145.4626693320024,,,,,,,,,,,,,,,,,,,,sub-199,1,stroop_test,64.85221328865822,
,,,,16.0,4.0,1.0,,,,,rot,red,r,1.0,r,1.0,0.6615409840014763,,,,,,,,,,,,,,1.0,4.0,16.0,1.0,,,,,145.47808065399295,,,,,,,,,,,,,,,,,145.46322822499496,145.81311589600227,146.62801390199456,146.61010936000093,,,,,,,,,,,,,,,,146.61414285299543,146.62801390199456,146.62801390199456,147.2984045589983,r,1.0,0.6615409840014763,,147.29876722100016,147.31124384200666,148.3099978800019,,,,,,,,,,,,,,,,,,,,sub-199,1,stroop_test,64.85221328865822,
,,,,17.0,5.0,1.0,,,,,rot,blue,b,0.0,b,1.0,1.14313951699296,,,,,,,,,,,,,,1.0,5.0,17.0,2.0,,,,,148.32802397399792,,,,,,,,,,,,,,,,,148.31048636700143,148.3943579210027,149.19895718499902,149.18605939799454,,,,,,,,,,,,,,,,149.18732949899277,149.19895718499902,149.19895718499902,150.34427417400002,b,1.0,1.14313951699296,,150.34472342299705,150.36126525599684,151.34474532300374,,,,,,,,,,,,,,,,,,,,sub-199,1,stroop_test,64.85221328865822,
,,,,18.0,6.0,1.0,,,,,blau,blue,b,1.0,b,1.0,0.5298017149907537,,,,,,,,,,,,,,1.0,6.0,18.0,6.0,,,,,151.35321106899937,,,,,,,,,,,,,,,,,151.3452263479994,151.44699439000397,152.2582922750007,152.24500674199953,,,,,,,,,,,,,,,,152.24897002500074,152.2582922750007,152.2582922750007,152.81112707000284,b,1.0,0.5298017149907537,,152.8118868360034,152.82795181700203,153.82812671099964,,,,,,,,,,,,,,,,,,,,sub-199,1,stroop_test,64.85221328865822,
,,,,19.0,7.0,1.0,,,,,rot,yellow,g,0.0,g,1.0,1.25982794900483,,,,,,,,,,,,,,1.0,7.0,19.0,3.0,,,,,153.8367140689952,,,,,,,,,,,,,,,,,153.8286105599982,153.90718354200362,154.71129329099494,154.69344552099938,,,,,,,,,,,,,,,,154.6974082079978,154.71129329099494,154.71129329099494,155.99450850200083,g,1.0,1.25982794900483,,155.99526094000612,156.01117860399245,157.0097280129994,,,,,,,,,,,,,,,,,,,,sub-199,1,stroop_test,64.85221328865822,
,,,,20.0,8.0,1.0,,,,,blau,red,r,0.0,r,1.0,0.7837357499956852,,,,,,,,,,,,,,1.0,8.0,20.0,4.0,,,,,157.02782873199612,,,,,,,,,,,,,,,,,157.01022097100213,157.08992864500033,157.89095580100548,157.87819407100324,,,,,,,,,,,,,,,,157.88175050599966,157.89095580100548,157.89095580100548,158.67734239800484,r,1.0,0.7837357499956852,,158.67778626299696,158.69426773699524,159.6780485700001,,,,,,,,,,,,,,,,,,,,sub-199,1,stroop_test,64.85221328865822,
,,,,21.0,9.0,1.0,,,,,gelb,yellow,g,1.0,g,1.0,0.7286803119932301,,,,,,,,,,,,,,1.0,9.0,21.0,10.0,,,,,159.686466070998,,,,,,,,,,,,,,,,,159.67852422500437,159.77027372100565,160.5690579039947,160.5543904350052,,,,,,,,,,,,,,,,160.56009256599646,160.5690579039947,160.5690579039947,161.3061110109993,g,1.0,0.7286803119932301,,161.3067072039994,161.31804468200426,162.3015227589931,162.3131170669949,,,,,,,,,,,,,,,,,,,sub-199,1,stroop_test,64.85221328865822,
,,,,22.0,10.0,1.0,,,,,blau,blue,b,1.0,b,1.0,0.6302498629956972,,,,,,,,,,,,,,1.0,10.0,22.0,5.0,,,,,162.3131170669949,,,,,,,,,,,,,,,,,162.30195966099564,163.500280045002,164.30859949599835,164.29482319799718,,,,,,,,,,,,,,,,164.29930952200084,164.30859949599835,164.30859949599835,164.94668274599826,b,1.0,0.6302498629956972,,164.94704989700404,164.96102614600386,165.9447890540032,165.95321813499322,,,,,,,,,,,,,,,,,,,sub-199,1,stroop_test,64.85221328865822,
,,,,23.0,11.0,1.0,,,,,rot,red,r,1.0,r,1.0,0.7185477500024717,,,,,,,,,,,,,,1.0,11.0,23.0,0.0,,,,,165.95321813499322,,,,,,,,,,,,,,,,,165.94524447100412,166.0462506729964,166.85803229200246,166.844766891998,,,,,,,,,,,,,,,,166.8487263220013,166.85803229200246,166.85803229200246,167.59425112299505,r,1.0,0.7185477500024717,,167.59501644299598,167.61104148899904,168.59443365399784,168.6038274110033,,,,,,,,,,,,,,,,,,,sub-199,1,stroop_test,64.85221328865822,
,,,,,,,,,,,,,,,,,,,,,,,,,,,,,,,,,,,,,,,,,,,,,,,,,,,,,,,,,,,,,,,,,,,,,,,,,,,,,,,,,,,,,,,168.5945291090029,168.6038274110033,168.6038274110033,169.84423375499318,space,1.2256296980049228,,,,,,,,,,,,,sub-199,1,stroop_test,64.85221328865822,
,,,,0.0,0.0,0.0,,,,,,,,,,,,,blau,blue,b,1.0,b,1.0,1.8049983170058117,,,,,,,,,,0.0,0.0,0.0,5.0,169.8697602829925,,,,,,,,,,,,,,,,,169.86040947999572,170.18705913699523,170.99436006399628,170.97645838699827,,,,,,,,,,,,,,,,,,,,,,,,,,,,,,,,,,,170.98058232899348,170.99436006399628,170.99436006399628,172.8018587520055,b,1.0,1.8049983170058117,,,,,sub-199,1,stroop_test,64.85221328865822,
,,,,1.0,1.0,0.0,,,,,,,,,,,,,blau,yellow,g,0.0,g,1.0,3.6194634639978176,,,,,,,,,,0.0,1.0,1.0,7.0,172.81288318999577,,,,,,,,,,,,,,,,,172.80218209199666,173.14595767500575,173.96095668399357,173.94305746800092,,,,,,,,,,,,,,,,,,,,,,,,,,,,,,,,,,,173.94375222199596,173.96095668399357,173.96095668399357,177.5948604199948,g,1.0,3.6194634639978176,,,,,sub-199,1,stroop_test,64.85221328865822,
,,,,2.0,2.0,0.0,,,,,,,,,,,,,blau,red,r,0.0,r,1.0,2.545936296999571,,,,,,,,,,0.0,2.0,2.0,4.0,177.60487748299784,,,,,,,,,,,,,,,,,177.59512446800363,178.79577071699896,179.5955946890026,179.5851979989966,,,,,,,,,,,,,,,,,,,,,,,,,,,,,,,,,,,179.58586212100636,179.5955946890026,179.5955946890026,182.14380206700295,r,1.0,2.545936296999571,,,,,sub-199,1,stroop_test,64.85221328865822,
,,,,3.0,3.0,0.0,,,,,,,,,,,,,rot,red,r,1.0,r,1.0,1.8601221999997504,,,,,,,,,,0.0,3.0,3.0,0.0,182.16096419800303,,,,,,,,,,,,,,,,,182.1441169250029,182.2442169510032,183.04404819100452,183.02863257500576,,,,,,,,,,,,,,,,,,,,,,,,,,,,,,,,,,,183.03124247099916,183.04404819100452,183.04404819100452,184.91149502700137,r,1.0,1.8601221999997504,,,,,sub-199,1,stroop_test,64.85221328865822,
,,,,4.0,4.0,0.0,,,,,,,,,,,,,gelb,yellow,g,1.0,g,1.0,1.6594768770009978,,,,,,,,,,0.0,4.0,4.0,11.0,184.92153527299524,,,,,,,,,,,,,,,,,184.91175691799435,186.102875179,186.89969032999943,186.886939161006,,,,,,,,,,,,,,,,,,,,,,,,,,,,,,,,,,,186.8908327480021,186.89969032999943,186.89969032999943,188.56752467800104,g,1.0,1.6594768770009978,,,,,sub-199,1,stroop_test,64.85221328865822,
,,,,5.0,5.0,0.0,,,,,,,,,,,,,gelb,blue,b,0.0,b,1.0,0.7322824739967473,,,,,,,,,,0.0,5.0,5.0,9.0,188.5773335230042,,,,,,,,,,,,,,,,,188.56792626199604,189.76664946900564,190.57740692500371,190.5595911260025,,,,,,,,,,,,,,,,,,,,,,,,,,,,,,,,,,,190.5602810730052,190.57740692500371,190.57740692500371,191.32871119800257,b,1.0,0.7322824739967473,,,,,sub-199,1,stroop_test,64.85221328865822,
,,,,6.0,6.0,0.0,,,,,,,,,,,,,rot,yellow,g,0.0,g,1.0,0.917980425991118,,,,,,,,,,0.0,6.0,6.0,3.0,191.33954029700544,,,,,,,,,,,,,,,,,191.32925941700523,191.4287852289999,192.23466587200528,192.22020136799256,,,,,,,,,,,,,,,,,,,,,,,,,,,,,,,,,,,192.2256449050037,192.23466587200528,192.23466587200528,193.1644506080047,g,1.0,0.917980425991118,,,,,sub-199,1,stroop_test,64.85221328865822,
,,,,7.0,7.0,0.0,,,,,,,,,,,,,rot,red,r,1.0,r,1.0,0.5491712310031289,,,,,,,,,,0.0,7.0,7.0,1.0,193.1740076020069,,,,,,,,,,,,,,,,,193.1648565929936,194.36651114899723,195.16445232399565,195.15059600899983,,,,,,,,,,,,,,,,,,,,,,,,,,,,,,,,,,,195.1518616950052,195.16445232399565,195.16445232399565,195.7269461179967,r,1.0,0.5491712310031289,,,,,sub-199,1,stroop_test,64.85221328865822,
,,,,8.0,8.0,0.0,,,,,,,,,,,,,blau,blue,b,1.0,b,1.0,0.571413964004023,,,,,,,,,,0.0,8.0,8.0,6.0,195.74404805499944,,,,,,,,,,,,,,,,,195.72749759600265,196.92250784300268,197.72717641199412,197.70951041500663,,,,,,,,,,,,,,,,,,,,,,,,,,,,,,,,,,,197.7135977190046,197.72717641199412,197.72717641199412,198.30995844400604,b,1.0,0.571413964004023,,,,,sub-199,1,stroop_test,64.85221328865822,
,,,,9.0,9.0,0.0,,,,,,,,,,,,,rot,blue,b,0.0,b,1.0,0.7406764299958013,,,,,,,,,,0.0,9.0,9.0,2.0,198.3269790399936,,,,,,,,,,,,,,,,,198.3103355320054,198.6606757200061,199.4769837390049,199.45946012200147,,,,,,,,,,,,,,,,,,,,,,,,,,,,,,,,,,,199.4634596529941,199.4769837390049,199.4769837390049,200.2278698739974,b,1.0,0.7406764299958013,,,,,sub-199,1,stroop_test,64.85221328865822,
,,,,10.0,10.0,0.0,,,,,,,,,,,,,gelb,red,r,0.0,r,1.0,0.6731681370001752,,,,,,,,,,0.0,10.0,10.0,8.0,200.23704003299645,,,,,,,,,,,,,,,,,200.22824308399868,200.57730878899747,201.37211852999465,201.3608290340053,,,,,,,,,,,,,,,,,,,,,,,,,,,,,,,,,,,201.36344735100283,201.37211852999465,201.37211852999465,202.0549213619961,r,1.0,0.6731681370001752,,,,,sub-199,1,stroop_test,64.85221328865822,
,,,,11.0,11.0,0.0,,,,,,,,,,,,,gelb,yellow,g,1.0,g,1.0,0.5757265370048117,,,,,,,,,,0.0,11.0,11.0,10.0,202.06505610900055,,,,,,,,,,,,,,,,,202.05534701900612,202.16057070500392,202.96073781099403,202.9465066480043,,,,,,,,,,,,,,,,,,,,,,,,,,,,,,,,,,,202.9471854879957,202.96073781099403,202.96073781099403,203.5385258000024,g,1.0,0.5757265370048117,,,,,sub-199,1,stroop_test,64.85221328865822,
,,,,12.0,0.0,1.0,,,,,,,,,,,,,rot,red,r,1.0,r,1.0,0.8139746030064998,,,,,,,,,,1.0,0.0,12.0,1.0,203.54805614700308,,,,,,,,,,,,,,,,,203.538912005999,204.73589495799388,205.5413690150017,205.5275941690052,,,,,,,,,,,,,,,,,,,,,,,,,,,,,,,,,,,205.53206533000048,205.5413690150017,205.5413690150017,206.3615584049985,r,1.0,0.8139746030064998,,,,,sub-199,1,stroop_test,64.85221328865822,
,,,,13.0,1.0,1.0,,,,,,,,,,,,,gelb,yellow,g,1.0,g,1.0,0.726577024004655,,,,,,,,,,1.0,1.0,13.0,10.0,206.37154255299535,,,,,,,,,,,,,,,,,206.361819533995,206.4605445920024,207.25758087700524,207.24422245299505,,,,,,,,,,,,,,,,,,,,,,,,,,,,,,,,,,,207.24822575200236,207.25758087700524,207.25758087700524,207.98825431099976,g,1.0,0.726577024004655,,,,,sub-199,1,stroop_test,64.85221328865822,
,,,,14.0,2.0,1.0,,,,,,,,,,,,,rot,yellow,g,0.0,g,1.0,0.9948204179963795,,,,,,,,,,1.0,2.0,14.0,3.0,207.99804832799416,,,,,,,,,,,,,,,,,207.98863167599484,209.1857217090001,209.99545870699512,209.9795179770008,,,,,,,,,,,,,,,,,,,,,,,,,,,,,,,,,,,209.9831788409938,209.99545870699512,209.99545870699512,211.00027187500385,g,1.0,0.9948204179963795,,,,,sub-199,1,stroop_test,64.85221328865822,
,,,,15.0,3.0,1.0,,,,,,,,,,,,,rot,blue,b,0.0,b,1.0,0.6898754300054861,,,,,,,,,,1.0,3.0,15.0,2.0,211.01245709699288,,,,,,,,,,,,,,,,,211.00055199599592,211.35905042900413,212.17717979599547,212.1591985529958,,,,,,,,,,,,,,,,,,,,,,,,,,,,,,,,,,,212.1598865870037,212.17717979599547,212.17717979599547,212.871271283002,b,1.0,0.6898754300054861,,,,,sub-199,1,stroop_test,64.85221328865822,
,,,,16.0,4.0,1.0,,,,,,,,,,,,,blau,blue,b,1.0,b,1.0,0.5095151700079441,,,,,,,,,,1.0,4.0,16.0,6.0,212.88114019599743,,,,,,,,,,,,,,,,,212.87164685600143,213.67707355099265,214.4742147910001,214.4608534500003,,,,,,,,,,,,,,,,,,,,,,,,,,,,,,,,,,,214.46487931399315,214.4742147910001,214.4742147910001,214.9879180370044,b,1.0,0.5095151700079441,,,,,sub-199,1,stroop_test,64.85221328865822,
,,,,17.0,5.0,1.0,,,,,,,,,,,,,rot,red,r,1.0,r,1.0,0.6733950790076051,,,,,,,,,,1.0,5.0,17.0,0.0,214.9983093519986,,,,,,,,,,,,,,,,,214.98831515699567,215.7937995550019,216.5905295470002,216.57731768500528,,,,,,,,,,,,,,,,,,,,,,,,,,,,,,,,,,,216.58132608600133,216.5905295470002,216.5905295470002,217.2767480189941,r,1.0,0.6733950790076051,,,,,sub-199,1,stroop_test,64.85221328865822,
,,,,18.0,6.0,1.0,,,,,,,,,,,,,blau,yellow,g,0.0,g,1.0,0.5913097279990325,,,,,,,,,,1.0,6.0,18.0,7.0,217.2936307369964,,,,,,,,,,,,,,,,,217.27726297199845,218.07723504200112,218.890530122997,218.8772753210069,,,,,,,,,,,,,,,,,,,,,,,,,,,,,,,,,,,218.88132159599627,218.890530122997,218.890530122997,219.49337910900067,g,1.0,0.5913097279990325,,,,,sub-199,1,stroop_test,64.85221328865822,
,,,,19.0,7.0,1.0,,,,,,,,,,,,,blau,blue,b,1.0,b,1.0,0.4094180980027886,,,,,,,,,,1.0,7.0,19.0,5.0,219.5103783999948,,,,,,,,,,,,,,,,,219.49392532400088,219.58717119600624,220.3864368689974,220.37736150999265,,,,,,,,,,,,,,,,,,,,,,,,,,,,,,,,,,,220.3778520689957,220.3864368689974,220.3864368689974,220.80042368000431,b,1.0,0.4094180980027886,,,,,sub-199,1,stroop_test,64.85221328865822,
,,,,20.0,8.0,1.0,,,,,,,,,,,,,gelb,yellow,g,1.0,g,1.0,0.7061210370011395,,,,,,,,,,1.0,8.0,20.0,11.0,220.81228268699488,,,,,,,,,,,,,,,,,220.8006911749981,221.9938818800001,222.80788406600183,222.79395185499743,,,,,,,,,,,,,,,,,,,,,,,,,,,,,,,,,,,222.7984569889959,222.80788406600183,222.80788406600183,223.5276177570049,g,1.0,0.7061210370011395,,,,,sub-199,1,stroop_test,64.85221328865822,
,,,,21.0,9.0,1.0,,,,,,,,,,,,,blau,red,r,0.0,r,1.0,0.7495230889908271,,,,,,,,,,1.0,9.0,21.0,4.0,223.53691335499752,,,,,,,,,,,,,,,,,223.5279953559948,224.32206589600537,225.12433009099917,225.11078886600444,,,,,,,,,,,,,,,,,,,,,,,,,,,,,,,,,,,225.11500774500016,225.12433009099917,225.12433009099917,225.89330848900136,r,1.0,0.7495230889908271,,,,,sub-199,1,stroop_test,64.85221328865822,
,,,,22.0,10.0,1.0,,,,,,,,,,,,,gelb,blue,b,0.0,b,1.0,0.6763020740036154,,,,,,,,,,1.0,10.0,22.0,9.0,225.910384214003,,,,,,,,,,,,,,,,,225.89386041600665,227.0855619179929,227.89038115799485,227.8773055710044,,,,,,,,,,,,,,,,,,,,,,,,,,,,,,,,,,,227.88106374400377,227.89038115799485,227.89038115799485,228.57754810599727,b,1.0,0.6763020740036154,,,,,sub-199,1,stroop_test,64.85221328865822,
,,,,23.0,11.0,1.0,,,,,,,,,,,,,gelb,red,r,0.0,r,1.0,0.5442193710041465,,,,,,,,,,1.0,11.0,23.0,8.0,228.58673280800576,,,,,,,,,,,,,,,,,228.57792923500529,229.7768176440004,230.58759734100025,230.5772311250039,,,,,,,,,,,,,,,,,,,,,,,,,,,,,,,,,,,230.57791566300148,230.58759734100025,230.58759734100025,231.13860457600092,r,1.0,0.5442193710041465,,,,,sub-199,1,stroop_test,64.85221328865822,
,,,,24.0,0.0,2.0,,,,,,,,,,,,,blau,blue,b,1.0,b,1.0,0.4490160190034657,,,,,,,,,,2.0,0.0,24.0,6.0,231.14868877400292,,,,,,,,,,,,,,,,,231.13897401599388,232.3328580439993,233.14344469399657,233.12566094400245,,,,,,,,,,,,,,,,,,,,,,,,,,,,,,,,,,,233.129763828998,233.14344469399657,233.14344469399657,233.5977541500033,b,1.0,0.4490160190034657,,,,,sub-199,1,stroop_test,64.85221328865822,
,,,,25.0,1.0,2.0,,,,,,,,,,,,,blau,red,r,0.0,r,1.0,0.6619235550024314,,,,,,,,,,2.0,1.0,25.0,4.0,233.6100282349944,,,,,,,,,,,,,,,,,233.59802006899557,233.7021921459964,234.4982769089984,234.4861867349973,,,,,,,,,,,,,,,,,,,,,,,,,,,,,,,,,,,234.48751931800507,234.4982769089984,234.4982769089984,235.16152979599428,r,1.0,0.6619235550024314,,,,,sub-199,1,stroop_test,64.85221328865822,
,,,,26.0,2.0,2.0,,,,,,,,,,,,,blau,yellow,g,0.0,g,1.0,0.55193534999853,,,,,,,,,,2.0,2.0,26.0,7.0,235.1697293650068,,,,,,,,,,,,,,,,,235.1619459509966,235.51185359999363,236.315309986996,236.3030558900064,,,,,,,,,,,,,,,,,,,,,,,,,,,,,,,,,,,236.3044302589988,236.315309986996,236.315309986996,236.8773006130068,g,1.0,0.55193534999853,,,,,sub-199,1,stroop_test,64.85221328865822,
,,,,27.0,3.0,2.0,,,,,,,,,,,,,gelb,yellow,g,1.0,g,1.0,0.9187089009938064,,,,,,,,,,2.0,3.0,27.0,11.0,236.8869968479994,,,,,,,,,,,,,,,,,236.87756268700468,238.07668776600624,238.89349297199809,238.8756565490039,,,,,,,,,,,,,,,,,,,,,,,,,,,,,,,,,,,238.87972580500357,238.89349297199809,238.89349297199809,239.82136763900053,g,1.0,0.9187089009938064,,,,,sub-199,1,stroop_test,64.85221328865822,
,,,,28.0,4.0,2.0,,,,,,,,,,,,,blau,blue,b,1.0,b,1.0,0.9564452750055352,,,,,,,,,,2.0,4.0,28.0,5.0,239.8314449949976,,,,,,,,,,,,,,,,,239.8216466370068,240.1687741469941,240.9736970380036,240.96036751499923,,,,,,,,,,,,,,,,,,,,,,,,,,,,,,,,,,,240.964413144,240.9736970380036,240.9736970380036,241.938059979002,b,1.0,0.9564452750055352,,,,,sub-199,1,stroop_test,64.85221328865822,
,,,,29.0,5.0,2.0,,,,,,,,,,,,,gelb,blue,b,0.0,b,1.0,0.8635943499975838,,,,,,,,,,2.0,5.0,29.0,9.0,241.948032899003,,,,,,,,,,,,,,,,,241.93833391400403,242.28249342599884,243.0843920059997,243.06950191200303,,,,,,,,,,,,,,,,,,,,,,,,,,,,,,,,,,,243.07543460899612,243.0843920059997,243.0843920059997,243.96151367800485,b,1.0,0.8635943499975838,,,,,sub-199,1,stroop_test,64.85221328865822,
,,,,30.0,6.0,2.0,,,,,,,,,,,,,rot,blue,b,0.0,b,1.0,0.6087523879978107,,,,,,,,,,2.0,6.0,30.0,2.0,243.97269612799573,,,,,,,,,,,,,,,,,243.9620616309985,244.06299269999727,244.86728173399752,244.8528010949958,,,,,,,,,,,,,,,,,,,,,,,,,,,,,,,,,,,244.85811183099577,244.86728173399752,244.86728173399752,245.49307101100567,b,1.0,0.6087523879978107,,,,,sub-199,1,stroop_test,64.85221328865822,
,,,,31.0,7.0,2.0,,,,,,,,,,,,,rot,yellow,g,0.0,g,1.0,0.7254463090066565,,,,,,,,,,2.0,7.0,31.0,3.0,245.5099970989977,,,,,,,,,,,,,,,,,245.49363122000068,246.2935252669995,247.0894846279989,247.0786655999982,,,,,,,,,,,,,,,,,,,,,,,,,,,,,,,,,,,247.08034212699567,247.0894846279989,247.0894846279989,247.82717625699297,g,1.0,0.7254463090066565,,,,,sub-199,1,stroop_test,64.85221328865822,
,,,,32.0,8.0,2.0,,,,,,,,,,,,,gelb,red,r,0.0,r,1.0,0.6447746310004732,,,,,,,,,,2.0,8.0,32.0,8.0,247.8362922889937,,,,,,,,,,,,,,,,,247.8275686410052,248.17796134100357,248.9880115929991,248.9768845039944,,,,,,,,,,,,,,,,,,,,,,,,,,,,,,,,,,,248.9791970399965,248.9880115929991,248.9880115929991,249.64232749000075,r,1.0,0.6447746310004732,,,,,sub-199,1,stroop_test,64.85221328865822,
,,,,33.0,9.0,2.0,,,,,,,,,,,,,rot,red,r,1.0,r,1.0,0.5528255870012799,,,,,,,,,,2.0,9.0,33.0,1.0,249.6599212979927,,,,,,,,,,,,,,,,,249.6426318290032,250.8437141839968,251.65993687500304,251.6420167920005,,,,,,,,,,,,,,,,,,,,,,,,,,,,,,,,,,,251.6459876799927,251.65993687500304,251.65993687500304,252.22141423399444,r,1.0,0.5528255870012799,,,,,sub-199,1,stroop_test,64.85221328865822,
,,,,34.0,10.0,2.0,,,,,,,,,,,,,gelb,yellow,g,1.0,g,1.0,0.7599679690029006,,,,,,,,,,2.0,10.0,34.0,10.0,252.23140552999396,,,,,,,,,,,,,,,,,252.22170463000657,252.31841863099544,253.12355109599596,253.11019952800416,,,,,,,,,,,,,,,,,,,,,,,,,,,,,,,,,,,253.11420274499687,253.12355109599596,253.12355109599596,253.8926209560013,g,1.0,0.7599679690029006,,,,,sub-199,1,stroop_test,64.85221328865822,
,,,,35.0,11.0,2.0,,,,,,,,,,,,,rot,red,r,1.0,r,1.0,1.2233239759952994,,,,,,,,,,2.0,11.0,35.0,0.0,253.90998810500605,,,,,,,,,,,,,,,,,253.8930286149989,254.69326548099343,255.49537975499695,255.47946058800156,,,,,,,,,,,,,,,,,,,,,,,,,,,,,,,,,,,255.4835692360066,255.49537975499695,255.49537975499695,256.720846066004,r,1.0,1.2233239759952994,,,,,sub-199,1,stroop_test,64.85221328865822,
,,,,36.0,0.0,3.0,,,,,,,,,,,,,blau,yellow,g,0.0,g,1.0,0.907373958005337,,,,,,,,,,3.0,0.0,36.0,7.0,256.7304395480023,,,,,,,,,,,,,,,,,256.7212892880052,257.0657709619991,257.8674401600001,257.85264180399827,,,,,,,,,,,,,,,,,,,,,,,,,,,,,,,,,,,257.8583802399953,257.8674401600001,257.8674401600001,258.79307840600086,g,1.0,0.907373958005337,,,,,sub-199,1,stroop_test,64.85221328865822,
,,,,37.0,1.0,3.0,,,,,,,,,,,,,rot,blue,b,0.0,b,1.0,0.4143824080092599,,,,,,,,,,3.0,1.0,37.0,2.0,258.8097395079967,,,,,,,,,,,,,,,,,258.79363054600253,259.589159463998,260.3931162719964,260.3753270080051,,,,,,,,,,,,,,,,,,,,,,,,,,,,,,,,,,,260.379834966996,260.3931162719964,260.3931162719964,260.80941655600327,b,1.0,0.4143824080092599,,,,,sub-199,1,stroop_test,64.85221328865822,
,,,,38.0,2.0,3.0,,,,,,,,,,,,,blau,blue,b,1.0,b,1.0,0.4986912849999498,,,,,,,,,,3.0,2.0,38.0,6.0,260.8267021270003,,,,,,,,,,,,,,,,,260.8097060190048,261.15987438100274,261.9616390129959,261.94502992399794,,,,,,,,,,,,,,,,,,,,,,,,,,,,,,,,,,,261.9489919600019,261.9616390129959,261.9616390129959,262.47086447100446,b,1.0,0.4986912849999498,,,,,sub-199,1,stroop_test,64.85221328865822,
,,,,39.0,3.0,3.0,,,,,,,,,,,,,rot,yellow,g,0.0,g,1.0,0.9242892219917848,,,,,,,,,,3.0,3.0,39.0,3.0,262.4809071329946,,,,,,,,,,,,,,,,,262.47126756299986,262.82636707699567,263.64011296800163,263.62676228699274,,,,,,,,,,,,,,,,,,,,,,,,,,,,,,,,,,,263.6307170229993,263.64011296800163,263.64011296800163,264.5772323779965,g,1.0,0.9242892219917848,,,,,sub-199,1,stroop_test,64.85221328865822,
,,,,40.0,4.0,3.0,,,,,,,,,,,,,gelb,yellow,g,1.0,g,1.0,0.5902708580106264,,,,,,,,,,3.0,4.0,40.0,10.0,264.58658805700543,,,,,,,,,,,,,,,,,264.5776066279941,264.9217943620024,265.71981282100023,265.7085029419977,,,,,,,,,,,,,,,,,,,,,,,,,,,,,,,,,,,265.71089520599344,265.71981282100023,265.71981282100023,266.32102605700493,g,1.0,0.5902708580106264,,,,,sub-199,1,stroop_test,64.85221328865822,
,,,,41.0,5.0,3.0,,,,,,,,,,,,,rot,red,r,1.0,r,1.0,0.6340649750054581,,,,,,,,,,3.0,5.0,41.0,1.0,266.33106510200014,,,,,,,,,,,,,,,,,266.321318479997,266.6655068599939,267.46713610799634,267.45283338299487,,,,,,,,,,,,,,,,,,,,,,,,,,,,,,,,,,,267.4580068990035,267.46713610799634,267.46713610799634,268.1042562270013,r,1.0,0.6340649750054581,,,,,sub-199,1,stroop_test,64.85221328865822,
,,,,42.0,6.0,3.0,,,,,,,,,,,,,gelb,red,r,0.0,r,1.0,0.5621685450023506,,,,,,,,,,3.0,6.0,42.0,8.0,268.1138857189944,,,,,,,,,,,,,,,,,268.10472850099904,268.4596840879967,269.25700568099273,269.2436318999971,,,,,,,,,,,,,,,,,,,,,,,,,,,,,,,,,,,269.2477017110068,269.25700568099273,269.25700568099273,269.8254911270051,r,1.0,0.5621685450023506,,,,,sub-199,1,stroop_test,64.85221328865822,
,,,,43.0,7.0,3.0,,,,,,,,,,,,,rot,red,r,1.0,r,1.0,0.4030015060125151,,,,,,,,,,3.0,7.0,43.0,0.0,269.84307978600555,,,,,,,,,,,,,,,,,269.82579565899505,269.91834084400034,270.71718603000045,270.7025741480029,,,,,,,,,,,,,,,,,,,,,,,,,,,,,,,,,,,270.70802090699726,270.71718603000045,270.71718603000045,271.14280636800686,r,1.0,0.4030015060125151,,,,,sub-199,1,stroop_test,64.85221328865822,
,,,,44.0,8.0,3.0,,,,,,,,,,,,,blau,red,r,0.0,r,1.0,0.7624323960044421,,,,,,,,,,3.0,8.0,44.0,4.0,271.1596271269955,,,,,,,,,,,,,,,,,271.1433688120014,271.9350348459993,272.7365995870059,272.7221616290044,,,,,,,,,,,,,,,,,,,,,,,,,,,,,,,,,,,272.7273423769948,272.7365995870059,272.7365995870059,273.5105195539945,r,1.0,0.7624323960044421,,,,,sub-199,1,stroop_test,64.85221328865822,
,,,,45.0,9.0,3.0,,,,,,,,,,,,,blau,blue,b,1.0,b,1.0,1.6218693720002193,,,,,,,,,,3.0,9.0,45.0,5.0,273.51996982400306,,,,,,,,,,,,,,,,,273.51088857100694,274.3096059170057,275.10964716800663,275.09447587199975,,,,,,,,,,,,,,,,,,,,,,,,,,,,,,,,,,,275.09511875899625,275.10964716800663,275.10964716800663,276.73747987400566,b,1.0,1.6218693720002193,,,,,sub-199,1,stroop_test,64.85221328865822,
,,,,46.0,10.0,3.0,,,,,,,,,,,,,gelb,blue,b,0.0,b,1.0,0.6449885619949782,,,,,,,,,,3.0,10.0,46.0,9.0,276.747600703995,,,,,,,,,,,,,,,,,276.73776971800544,276.834630376994,277.63992623800004,277.6265438130067,,,,,,,,,,,,,,,,,,,,,,,,,,,,,,,,,,,277.6306177399965,277.63992623800004,277.63992623800004,278.2935522540065,b,1.0,0.6449885619949782,,,,,sub-199,1,stroop_test,64.85221328865822,
,,,,47.0,11.0,3.0,,,,,,,,,,,,,gelb,yellow,g,1.0,g,1.0,0.7219329109939281,,,,,,,,,,3.0,11.0,47.0,11.0,278.3027267360012,,,,,,,,,,,,,,,,,278.29392154600646,279.0947100399935,279.9037547360058,279.8932402530045,,,,,,,,,,,,,,,,,,,,,,,,,,,,,,,,,,,279.893930723003,279.9037547360058,279.9037547360058,280.6286714680027,g,1.0,0.7219329109939281,,,,,sub-199,1,stroop_test,64.85221328865822,
,,,,48.0,0.0,4.0,,,,,,,,,,,,,gelb,yellow,g,1.0,g,1.0,0.5625722609984223,,,,,,,,,,4.0,0.0,48.0,11.0,280.64267583799665,,,,,,,,,,,,,,,,,280.6289760880027,280.9818680759927,281.7810085539968,281.76888647199667,,,,,,,,,,,,,,,,,,,,,,,,,,,,,,,,,,,281.77012133199605,281.7810085539968,281.7810085539968,282.35424961999524,g,1.0,0.5625722609984223,,,,,sub-199,1,stroop_test,64.85221328865822,
,,,,49.0,1.0,4.0,,,,,,,,,,,,,blau,blue,b,1.0,b,1.0,0.4852999089926015,,,,,,,,,,4.0,1.0,49.0,5.0,282.36436785699334,,,,,,,,,,,,,,,,,282.3545338020049,283.1551795819978,283.9596314810042,283.9416863840015,,,,,,,,,,,,,,,,,,,,,,,,,,,,,,,,,,,283.9457044139999,283.9596314810042,283.9596314810042,284.4608279279928,b,1.0,0.4852999089926015,,,,,sub-199,1,stroop_test,64.85221328865822,
,,,,50.0,2.0,4.0,,,,,,,,,,,,,rot,red,r,1.0,r,1.0,0.4735561690031318,,,,,,,,,,4.0,2.0,50.0,1.0,284.47184798099624,,,,,,,,,,,,,,,,,284.46136525200563,285.6613524580025,286.46618454600684,286.45169547099795,,,,,,,,,,,,,,,,,,,,,,,,,,,,,,,,,,,286.45704337100324,286.46618454600684,286.46618454600684,286.95943500900466,r,1.0,0.4735561690031318,,,,,sub-199,1,stroop_test,64.85221328865822,
,,,,51.0,3.0,4.0,,,,,,,,,,,,,gelb,yellow,g,1.0,g,1.0,0.5432625569956144,,,,,,,,,,4.0,3.0,51.0,10.0,286.97631672699936,,,,,,,,,,,,,,,,,286.9599481049954,288.1594650799961,288.9533698820014,288.9429120620043,,,,,,,,,,,,,,,,,,,,,,,,,,,,,,,,,,,288.94501199900697,288.9533698820014,288.9533698820014,289.51071994499944,g,1.0,0.5432625569956144,,,,,sub-199,1,stroop_test,64.85221328865822,
,,,,52.0,4.0,4.0,,,,,,,,,,,,,rot,yellow,g,0.0,g,1.0,0.6326896070095245,,,,,,,,,,4.0,4.0,52.0,3.0,289.5216305520007,,,,,,,,,,,,,,,,,289.511255934005,289.85515736699745,290.65658851699845,290.64318517700303,,,,,,,,,,,,,,,,,,,,,,,,,,,,,,,,,,,290.6471032809932,290.65658851699845,290.65658851699845,291.2939999149967,g,1.0,0.6326896070095245,,,,,sub-199,1,stroop_test,64.85221328865822,
,,,,53.0,5.0,4.0,,,,,,,,,,,,,gelb,red,r,0.0,r,1.0,0.6702005599945551,,,,,,,,,,4.0,5.0,53.0,8.0,291.3037694609957,,,,,,,,,,,,,,,,,291.2942706600006,292.4927415830025,293.3092441820045,293.2914858690056,,,,,,,,,,,,,,,,,,,,,,,,,,,,,,,,,,,293.29614087000664,293.3092441820045,293.3092441820045,293.9924528709962,r,1.0,0.6702005599945551,,,,,sub-199,1,stroop_test,64.85221328865822,
,,,,54.0,6.0,4.0,,,,,,,,,,,,,gelb,blue,b,0.0,b,1.0,0.3529934660036815,,,,,,,,,,4.0,6.0,54.0,9.0,294.009347743995,,,,,,,,,,,,,,,,,293.9929966329946,295.18835083500016,296.00932031299453,295.991410542003,,,,,,,,,,,,,,,,,,,,,,,,,,,,,,,,,,,295.9920993200067,296.00932031299453,296.00932031299453,296.37084867099475,b,1.0,0.3529934660036815,,,,,sub-199,1,stroop_test,64.85221328865822,
,,,,55.0,7.0,4.0,,,,,,,,,,,,,blau,yellow,g,0.0,g,1.0,0.6015754940017359,,,,,,,,,,4.0,7.0,55.0,7.0,296.3810176709958,,,,,,,,,,,,,,,,,296.3711528470012,296.7211607710051,297.54266456300684,297.52495993699995,,,,,,,,,,,,,,,,,,,,,,,,,,,,,,,,,,,297.5289970839949,297.54266456300684,297.54266456300684,298.1592428970034,g,1.0,0.6015754940017359,,,,,sub-199,1,stroop_test,64.85221328865822,
,,,,56.0,8.0,4.0,,,,,,,,,,,,,blau,blue,b,1.0,b,1.0,0.9708106070029316,,,,,,,,,,4.0,8.0,56.0,6.0,298.1759561840008,,,,,,,,,,,,,,,,,298.1597867289965,298.5014106949966,299.30336894799257,299.29293081900687,,,,,,,,,,,,,,,,,,,,,,,,,,,,,,,,,,,299.29362997200224,299.30336894799257,299.30336894799257,300.27564188100223,b,1.0,0.9708106070029316,,,,,sub-199,1,stroop_test,64.85221328865822,
,,,,57.0,9.0,4.0,,,,,,,,,,,,,rot,blue,b,0.0,b,1.0,0.7858945240004687,,,,,,,,,,4.0,9.0,57.0,2.0,300.2925329019927,,,,,,,,,,,,,,,,,300.27598924099584,301.4779001970019,302.28138958899945,302.26692391600227,,,,,,,,,,,,,,,,,,,,,,,,,,,,,,,,,,,302.27136698699906,302.28138958899945,302.28138958899945,303.076347876995,b,1.0,0.7858945240004687,,,,,sub-199,1,stroop_test,64.85221328865822,
,,,,58.0,10.0,4.0,,,,,,,,,,,,,rot,red,r,1.0,r,1.0,0.0865311800007475,,,,,,,,,,4.0,10.0,58.0,0.0,303.08597625199764,,,,,,,,,,,,,,,,,303.07660627999576,303.4258084210014,304.2426214320003,304.2247699370055,,,,,,,,,,,,,,,,,,,,,,,,,,,,,,,,,,,304.2255676640052,304.2426214320003,304.2426214320003,304.33668300599675,r,1.0,0.0865311800007475,,,,,sub-199,1,stroop_test,64.85221328865822,
,,,,59.0,11.0,4.0,,,,,,,,,,,,,blau,red,r,0.0,r,1.0,1.1595208220096538,,,,,,,,,,4.0,11.0,59.0,4.0,304.3466558999935,,,,,,,,,,,,,,,,,304.33696144999703,305.1345083100023,305.94250631399336,305.92459343900555,,,,,,,,,,,,,,,,,,,,,,,,,,,,,,,,,,,305.928613504002,305.94250631399336,305.94250631399336,307.1098246059992,r,1.0,1.1595208220096538,,,,,sub-199,1,stroop_test,64.85221328865822,
,,,,60.0,0.0,5.0,,,,,,,,,,,,,blau,red,r,0.0,r,1.0,0.5135505009966437,,,,,,,,,,5.0,0.0,60.0,4.0,307.1197118520068,,,,,,,,,,,,,,,,,307.1101253579982,308.3011230800039,309.1091845740011,309.09125684099854,,,,,,,,,,,,,,,,,,,,,,,,,,,,,,,,,,,309.09194606500387,309.1091845740011,309.1091845740011,309.6271227099933,r,1.0,0.5135505009966437,,,,,sub-199,1,stroop_test,64.85221328865822,
,,,,61.0,1.0,5.0,,,,,,,,,,,,,blau,yellow,g,0.0,g,1.0,0.6630992739956127,,,,,,,,,,5.0,1.0,61.0,7.0,309.6371025929984,,,,,,,,,,,,,,,,,309.6274013249931,309.9774918369949,310.7805705030041,310.768540502002,,,,,,,,,,,,,,,,,,,,,,,,,,,,,,,,,,,310.76979379099794,310.7805705030041,310.7805705030041,311.4540230480052,g,1.0,0.6630992739956127,,,,,sub-199,1,stroop_test,64.85221328865822,
,,,,62.0,2.0,5.0,,,,,,,,,,,,,gelb,red,r,0.0,r,1.0,1.074852842008113,,,,,,,,,,5.0,2.0,62.0,8.0,311.4640267259965,,,,,,,,,,,,,,,,,311.45432175300084,312.25111295300303,313.0589037229947,313.043250748,,,,,,,,,,,,,,,,,,,,,,,,,,,,,,,,,,,313.0472944320063,313.0589037229947,313.0589037229947,314.1415488839993,r,1.0,1.074852842008113,,,,,sub-199,1,stroop_test,64.85221328865822,
,,,,63.0,3.0,5.0,,,,,,,,,,,,,rot,red,r,1.0,r,1.0,0.5351998650003225,,,,,,,,,,5.0,3.0,63.0,0.0,314.15898805100005,,,,,,,,,,,,,,,,,314.1419333579979,314.2441545150068,315.04647495299287,315.03424048899615,,,,,,,,,,,,,,,,,,,,,,,,,,,,,,,,,,,315.03723190299934,315.04647495299287,315.04647495299287,315.5933381939976,r,1.0,0.5351998650003225,,,,,sub-199,1,stroop_test,64.85221328865822,
,,,,64.0,4.0,5.0,,,,,,,,,,,,,rot,blue,b,0.0,b,1.0,0.9641462430008688,,,,,,,,,,5.0,4.0,64.0,2.0,315.6026783470006,,,,,,,,,,,,,,,,,315.5937083159952,315.94247255299706,316.7424137570051,316.72738383800606,,,,,,,,,,,,,,,,,,,,,,,,,,,,,,,,,,,316.72821267400286,316.7424137570051,316.7424137570051,317.7100570549956,b,1.0,0.9641462430008688,,,,,sub-199,1,stroop_test,64.85221328865822,
,,,,65.0,5.0,5.0,,,,,,,,,,,,,rot,yellow,g,0.0,g,1.0,0.6457686140056467,,,,,,,,,,5.0,5.0,65.0,3.0,317.7201041990047,,,,,,,,,,,,,,,,,317.7103714669938,318.90469901000324,319.72569769799884,319.7077327320003,,,,,,,,,,,,,,,,,,,,,,,,,,,,,,,,,,,319.7084283709992,319.72569769799884,319.72569769799884,320.3766870450054,g,1.0,0.6457686140056467,,,,,sub-199,1,stroop_test,64.85221328865822,
,,,,66.0,6.0,5.0,,,,,,,,,,,,,gelb,yellow,g,1.0,g,1.0,0.6246228410018375,,,,,,,,,,5.0,6.0,66.0,11.0,320.3865672880056,,,,,,,,,,,,,,,,,320.3769489709957,320.4753728600044,321.2727072770067,321.25940381099645,,,,,,,,,,,,,,,,,,,,,,,,,,,,,,,,,,,321.2634644609934,321.2727072770067,321.2727072770067,321.9094828149973,g,1.0,0.6246228410018375,,,,,sub-199,1,stroop_test,64.85221328865822,
,,,,67.0,7.0,5.0,,,,,,,,,,,,,rot,red,r,1.0,r,1.0,0.6868775229959283,,,,,,,,,,5.0,7.0,67.0,1.0,321.9195906100067,,,,,,,,,,,,,,,,,321.90975771700323,322.0104291530006,322.8255676020053,322.80782212699705,,,,,,,,,,,,,,,,,,,,,,,,,,,,,,,,,,,322.8117121200048,322.8255676020053,322.8255676020053,323.524365891004,r,1.0,0.6868775229959283,,,,,sub-199,1,stroop_test,64.85221328865822,
,,,,68.0,8.0,5.0,,,,,,,,,,,,,gelb,yellow,g,1.0,g,1.0,0.8572462470037863,,,,,,,,,,5.0,8.0,68.0,10.0,323.53360959500424,,,,,,,,,,,,,,,,,323.5247209109948,324.7256293630053,325.5359272850037,325.52563406199624,,,,,,,,,,,,,,,,,,,,,,,,,,,,,,,,,,,325.52748586300004,325.5359272850037,325.5359272850037,326.40335368699743,g,1.0,0.8572462470037863,,,,,sub-199,1,stroop_test,64.85221328865822,
,,,,69.0,9.0,5.0,,,,,,,,,,,,,blau,blue,b,1.0,b,1.0,1.351312547994894,,,,,,,,,,5.0,9.0,69.0,6.0,326.4134577030054,,,,,,,,,,,,,,,,,326.4037130170036,326.7508124869928,327.55603705999965,327.5427557460061,,,,,,,,,,,,,,,,,,,,,,,,,,,,,,,,,,,327.5465420529945,327.55603705999965,327.55603705999965,328.915223464006,b,1.0,1.351312547994894,,,,,sub-199,1,stroop_test,64.85221328865822,
,,,,70.0,10.0,5.0,,,,,,,,,,,,,gelb,blue,b,0.0,b,1.0,0.433484724999289,,,,,,,,,,5.0,10.0,70.0,9.0,328.92741687099624,,,,,,,,,,,,,,,,,328.91549911600305,329.0177159820014,329.8256689090049,329.8077746719937,,,,,,,,,,,,,,,,,,,,,,,,,,,,,,,,,,,329.8118415219942,329.8256689090049,329.8256689090049,330.2697597639926,b,1.0,0.433484724999289,,,,,sub-199,1,stroop_test,64.85221328865822,
,,,,71.0,11.0,5.0,,,,,,,,,,,,,blau,blue,b,1.0,b,1.0,0.5040109929977916,,,,,,,,,,5.0,11.0,71.0,5.0,330.28000174599583,,,,,,,,,,,,,,,,,330.27017169199826,331.4755375270033,332.29213111900026,332.27431433800666,,,,,,,,,,,,,,,,,,,,,,,,,,,,,,,,,,,332.27842225600034,332.29213111900026,332.29213111900026,332.808817112993,b,1.0,0.5040109929977916,,,,,sub-199,1,stroop_test,64.85221328865822,
,,,,72.0,0.0,6.0,,,,,,,,,,,,,blau,blue,b,1.0,b,1.0,0.6733694490103517,,,,,,,,,,6.0,0.0,72.0,6.0,332.8255914009933,,,,,,,,,,,,,,,,,332.8093583959999,333.60087754299457,334.4087058349978,334.3910015319998,,,,,,,,,,,,,,,,,,,,,,,,,,,,,,,,,,,334.3916886399966,334.4087058349978,334.4087058349978,335.0913311640033,b,1.0,0.6733694490103517,,,,,sub-199,1,stroop_test,64.85221328865822,
,,,,73.0,1.0,6.0,,,,,,,,,,,,,rot,yellow,g,0.0,g,1.0,0.7292659470112994,,,,,,,,,,6.0,1.0,73.0,3.0,335.1089229979989,,,,,,,,,,,,,,,,,335.0916328269959,335.18470947000606,335.9906109339936,335.97599687399634,,,,,,,,,,,,,,,,,,,,,,,,,,,,,,,,,,,335.981273116995,335.9906109339936,335.9906109339936,336.7321281009936,g,1.0,0.7292659470112994,,,,,sub-199,1,stroop_test,64.85221328865822,
,,,,74.0,2.0,6.0,,,,,,,,,,,,,blau,blue,b,1.0,b,1.0,0.6376260889956029,,,,,,,,,,6.0,2.0,74.0,5.0,336.74174608499743,,,,,,,,,,,,,,,,,336.7324001609959,337.93413706100546,338.7312141930015,338.71799830200325,,,,,,,,,,,,,,,,,,,,,,,,,,,,,,,,,,,338.72119527100585,338.7312141930015,338.7312141930015,339.3763309329952,b,1.0,0.6376260889956029,,,,,sub-199,1,stroop_test,64.85221328865822,
,,,,75.0,3.0,6.0,,,,,,,,,,,,,gelb,yellow,g,1.0,g,1.0,0.6273200750001706,,,,,,,,,,6.0,3.0,75.0,11.0,339.3862046639988,,,,,,,,,,,,,,,,,339.37662950900267,339.47093860300083,340.2723669650004,340.2590197660029,,,,,,,,,,,,,,,,,,,,,,,,,,,,,,,,,,,340.2630561050028,340.2723669650004,340.2723669650004,340.9093208099948,g,1.0,0.6273200750001706,,,,,sub-199,1,stroop_test,64.85221328865822,
,,,,76.0,4.0,6.0,,,,,,,,,,,,,blau,red,r,0.0,r,1.0,0.3579595670016715,,,,,,,,,,6.0,4.0,76.0,4.0,340.9185718490044,,,,,,,,,,,,,,,,,340.90970912699413,341.70440208200307,342.5087818930042,342.4907280740008,,,,,,,,,,,,,,,,,,,,,,,,,,,,,,,,,,,342.4948121369962,342.5087818930042,342.5087818930042,342.86999619299604,r,1.0,0.3579595670016715,,,,,sub-199,1,stroop_test,64.85221328865822,
,,,,77.0,5.0,6.0,,,,,,,,,,,,,rot,blue,b,0.0,b,1.0,0.802265713995439,,,,,,,,,,6.0,5.0,77.0,2.0,342.87951402900217,,,,,,,,,,,,,,,,,342.87035643300624,344.06736604000616,344.8725230169948,344.8590371259925,,,,,,,,,,,,,,,,,,,,,,,,,,,,,,,,,,,344.86301864399866,344.8725230169948,344.8725230169948,345.6850017599936,b,1.0,0.802265713995439,,,,,sub-199,1,stroop_test,64.85221328865822,
,,,,78.0,6.0,6.0,,,,,,,,,,,,,gelb,yellow,g,1.0,g,1.0,0.6768417310086079,,,,,,,,,,6.0,6.0,78.0,10.0,345.6958755939995,,,,,,,,,,,,,,,,,345.68533303099684,346.4805503020034,347.2888891210023,347.2756531490013,,,,,,,,,,,,,,,,,,,,,,,,,,,,,,,,,,,347.27973907699925,347.2888891210023,347.2888891210023,347.9757886610023,g,1.0,0.6768417310086079,,,,,sub-199,1,stroop_test,64.85221328865822,
,,,,79.0,7.0,6.0,,,,,,,,,,,,,rot,red,r,1.0,r,1.0,0.6789400820125593,,,,,,,,,,6.0,7.0,79.0,1.0,347.9849588869984,,,,,,,,,,,,,,,,,347.97621940099634,348.7677637460001,349.5725892699993,349.5590460300009,,,,,,,,,,,,,,,,,,,,,,,,,,,,,,,,,,,349.56315119999635,349.5725892699993,349.5725892699993,350.2576072939992,r,1.0,0.6789400820125593,,,,,sub-199,1,stroop_test,64.85221328865822,
,,,,80.0,8.0,6.0,,,,,,,,,,,,,blau,yellow,g,0.0,g,1.0,0.9131630579940976,,,,,,,,,,6.0,8.0,80.0,7.0,350.2752464649966,,,,,,,,,,,,,,,,,350.257917009003,350.3507395199995,351.1585194289946,351.1406974529964,,,,,,,,,,,,,,,,,,,,,,,,,,,,,,,,,,,351.1453230049956,351.1585194289946,351.1585194289946,352.0763150929997,g,1.0,0.9131630579940976,,,,,sub-199,1,stroop_test,64.85221328865822,
,,,,81.0,9.0,6.0,,,,,,,,,,,,,gelb,red,r,0.0,r,1.0,1.6142421000113245,,,,,,,,,,6.0,9.0,81.0,8.0,352.08617624800536,,,,,,,,,,,,,,,,,352.0766204459942,352.87520552000205,353.6887525839993,353.67548658899614,,,,,,,,,,,,,,,,,,,,,,,,,,,,,,,,,,,353.6795311229944,353.6887525839993,353.6887525839993,355.3081907779997,r,1.0,1.6142421000113245,,,,,sub-199,1,stroop_test,64.85221328865822,
,,,,82.0,10.0,6.0,,,,,,,,,,,,,rot,red,r,1.0,r,1.0,0.9000362200022209,,,,,,,,,,6.0,10.0,82.0,0.0,355.32518554100534,,,,,,,,,,,,,,,,,355.30845783000404,355.4005962299998,356.20534382300684,356.19208331899426,,,,,,,,,,,,,,,,,,,,,,,,,,,,,,,,,,,356.1960330659931,356.20534382300684,356.20534382300684,357.1149151610007,r,1.0,0.9000362200022209,,,,,sub-199,1,stroop_test,64.85221328865822,
,,,,83.0,11.0,6.0,,,,,,,,,,,,,gelb,blue,b,0.0,b,1.0,1.4949530099984258,,,,,,,,,,6.0,11.0,83.0,9.0,357.1268203619984,,,,,,,,,,,,,,,,,357.1151745870011,358.3101102079964,359.1253047390055,359.107489506001,,,,,,,,,,,,,,,,,,,,,,,,,,,,,,,,,,,359.1117199769942,359.1253047390055,359.1253047390055,360.62726689799456,b,1.0,1.4949530099984258,,,,,sub-199,1,stroop_test,64.85221328865822,
,,,,84.0,0.0,7.0,,,,,,,,,,,,,rot,yellow,g,0.0,g,1.0,0.8763184949930292,,,,,,,,,,7.0,0.0,84.0,3.0,360.6418138750014,,,,,,,,,,,,,,,,,360.6275380129955,361.8403409849998,362.641838689,362.6238122679933,,,,,,,,,,,,,,,,,,,,,,,,,,,,,,,,,,,362.6279599749978,362.641838689,362.641838689,363.523001648995,g,1.0,0.8763184949930292,,,,,sub-199,1,stroop_test,64.85221328865822,
,,,,85.0,1.0,7.0,,,,,,,,,,,,,gelb,yellow,g,1.0,g,1.0,0.7147846520092571,,,,,,,,,,7.0,1.0,85.0,10.0,363.5331559519982,,,,,,,,,,,,,,,,,363.5237542579998,364.7172462460003,365.5144053809927,365.5018483089953,,,,,,,,,,,,,,,,,,,,,,,,,,,,,,,,,,,365.5059463469952,365.5144053809927,365.5144053809927,366.2364597359992,g,1.0,0.7147846520092571,,,,,sub-199,1,stroop_test,64.85221328865822,
,,,,86.0,2.0,7.0,,,,,,,,,,,,,gelb,yellow,g,1.0,g,1.0,0.5871983549877768,,,,,,,,,,7.0,2.0,86.0,11.0,366.2474696680001,,,,,,,,,,,,,,,,,366.2367465730058,367.03362567299337,367.8297682029952,367.8177023119933,,,,,,,,,,,,,,,,,,,,,,,,,,,,,,,,,,,367.8189860199928,367.8297682029952,367.8297682029952,368.4195370700036,g,1.0,0.5871983549877768,,,,,sub-199,1,stroop_test,64.85221328865822,
,,,,87.0,3.0,7.0,,,,,,,,,,,,,rot,red,r,1.0,r,1.0,0.6988391149934614,,,,,,,,,,7.0,3.0,87.0,1.0,368.430053485994,,,,,,,,,,,,,,,,,368.4203085460031,369.2142860750028,370.0219428150013,370.0086844530015,,,,,,,,,,,,,,,,,,,,,,,,,,,,,,,,,,,370.0126227989968,370.0219428150013,370.0219428150013,370.72606807500415,r,1.0,0.6988391149934614,,,,,sub-199,1,stroop_test,64.85221328865822,
,,,,88.0,4.0,7.0,,,,,,,,,,,,,rot,blue,b,0.0,b,1.0,1.247826199993142,,,,,,,,,,7.0,4.0,88.0,2.0,370.7357909669954,,,,,,,,,,,,,,,,,370.72632816700207,371.5249807039945,372.31895114800136,372.3085785209987,,,,,,,,,,,,,,,,,,,,,,,,,,,,,,,,,,,372.3092541289952,372.31895114800136,372.31895114800136,373.569328491998,b,1.0,1.247826199993142,,,,,sub-199,1,stroop_test,64.85221328865822,
,,,,89.0,5.0,7.0,,,,,,,,,,,,,gelb,red,r,0.0,r,1.0,0.7233056709956145,,,,,,,,,,7.0,5.0,89.0,8.0,373.5800353889936,,,,,,,,,,,,,,,,,373.56982250699366,374.37041331999353,375.19147797599726,375.17371885800094,,,,,,,,,,,,,,,,,,,,,,,,,,,,,,,,,,,375.1783166749956,375.19147797599726,375.19147797599726,375.9241158520017,r,1.0,0.7233056709956145,,,,,sub-199,1,stroop_test,64.85221328865822,
,,,,90.0,6.0,7.0,,,,,,,,,,,,,blau,blue,b,1.0,b,1.0,0.5419622030021856,,,,,,,,,,7.0,6.0,90.0,5.0,375.94148254199536,,,,,,,,,,,,,,,,,375.92449092000606,377.12679076399945,377.93861536099575,377.9252413219947,,,,,,,,,,,,,,,,,,,,,,,,,,,,,,,,,,,377.9292890539946,377.93861536099575,377.93861536099575,378.4922265519999,b,1.0,0.5419622030021856,,,,,sub-199,1,stroop_test,64.85221328865822,
,,,,91.0,7.0,7.0,,,,,,,,,,,,,blau,blue,b,1.0,b,1.0,0.4811005689989542,,,,,,,,,,7.0,7.0,91.0,6.0,378.5012886379991,,,,,,,,,,,,,,,,,378.492605492007,379.6835603109939,380.49149922399374,380.4736399289977,,,,,,,,,,,,,,,,,,,,,,,,,,,,,,,,,,,380.47432661299536,380.49149922399374,380.49149922399374,380.974362235007,b,1.0,0.4811005689989542,,,,,sub-199,1,stroop_test,64.85221328865822,
,,,,92.0,8.0,7.0,,,,,,,,,,,,,blau,yellow,g,0.0,g,1.0,1.0674646699917505,,,,,,,,,,7.0,8.0,92.0,7.0,380.9913345200039,,,,,,,,,,,,,,,,,380.9746740709961,381.7747692789999,382.5688763969956,382.55853927199496,,,,,,,,,,,,,,,,,,,,,,,,,,,,,,,,,,,382.5592263620056,382.5688763969956,382.5688763969956,383.6425105520029,g,1.0,1.0674646699917505,,,,,sub-199,1,stroop_test,64.85221328865822,
,,,,93.0,9.0,7.0,,,,,,,,,,,,,blau,red,r,0.0,r,1.0,0.8971982530056266,,,,,,,,,,7.0,9.0,93.0,4.0,383.65223005600274,,,,,,,,,,,,,,,,,383.6427707660041,384.4415271460021,385.25229188900266,385.2418188739976,,,,,,,,,,,,,,,,,,,,,,,,,,,,,,,,,,,385.2425017359929,385.25229188900266,385.25229188900266,386.1573079350055,r,1.0,0.8971982530056266,,,,,sub-199,1,stroop_test,64.85221328865822,
,,,,94.0,10.0,7.0,,,,,,,,,,,,,rot,red,r,1.0,r,1.0,1.1446830549975855,,,,,,,,,,7.0,10.0,94.0,0.0,386.16662104899297,,,,,,,,,,,,,,,,,386.1577153459948,386.5093218319962,387.32467801700113,387.3068141830008,,,,,,,,,,,,,,,,,,,,,,,,,,,,,,,,,,,387.3107770589995,387.32467801700113,387.32467801700113,388.4814681610005,r,1.0,1.1446830549975855,,,,,sub-199,1,stroop_test,64.85221328865822,
,,,,95.0,11.0,7.0,,,,,,,,,,,,,gelb,blue,b,0.0,b,1.0,0.6342231769958744,,,,,,,,,,7.0,11.0,95.0,9.0,388.4936559600028,,,,,,,,,,,,,,,,,388.4818747039972,389.67639467200206,390.491254085995,390.473434650994,,,,,,,,,,,,,,,,,,,,,,,,,,,,,,,,,,,390.4774959979986,390.491254085995,390.491254085995,391.13551966399245,b,1.0,0.6342231769958744,,,,,sub-199,1,stroop_test,64.85221328865822,
,,,,96.0,0.0,8.0,,,,,,,,,,,,,gelb,yellow,g,1.0,g,1.0,0.6197910259943455,,,,,,,,,,8.0,0.0,96.0,10.0,391.1454800390056,,,,,,,,,,,,,,,,,391.1358904719964,391.4834514139948,392.2912567500025,392.27353660500376,,,,,,,,,,,,,,,,,,,,,,,,,,,,,,,,,,,392.2742278299993,392.2912567500025,392.2912567500025,392.9145044100005,g,1.0,0.6197910259943455,,,,,sub-199,1,stroop_test,64.85221328865822,
,,,,97.0,1.0,8.0,,,,,,,,,,,,,gelb,yellow,g,1.0,g,1.0,0.4066858739970485,,,,,,,,,,8.0,1.0,97.0,11.0,392.9246729199949,,,,,,,,,,,,,,,,,392.9148404180014,393.7098935319955,394.5247211599926,394.50671019399306,,,,,,,,,,,,,,,,,,,,,,,,,,,,,,,,,,,394.5071399419976,394.5247211599926,394.5247211599926,394.9421280920069,g,1.0,0.4066858739970485,,,,,sub-199,1,stroop_test,64.85221328865822,
,,,,98.0,2.0,8.0,,,,,,,,,,,,,rot,yellow,g,0.0,g,1.0,0.6547944690100849,,,,,,,,,,8.0,2.0,98.0,3.0,394.95199352099735,,,,,,,,,,,,,,,,,394.94239579699934,395.283324856995,396.082191235997,396.0674069899978,,,,,,,,,,,,,,,,,,,,,,,,,,,,,,,,,,,396.07309223199263,396.082191235997,396.082191235997,396.7423981600005,g,1.0,0.6547944690100849,,,,,sub-199,1,stroop_test,64.85221328865822,
,,,,99.0,3.0,8.0,,,,,,,,,,,,,blau,blue,b,1.0,b,1.0,0.5509799199935514,,,,,,,,,,8.0,3.0,99.0,5.0,396.7512922570022,,,,,,,,,,,,,,,,,396.74265829900105,396.85607869399246,397.6550616449968,397.6417104860011,,,,,,,,,,,,,,,,,,,,,,,,,,,,,,,,,,,397.6456425399956,397.6550616449968,397.6550616449968,398.2076719379984,b,1.0,0.5509799199935514,,,,,sub-199,1,stroop_test,64.85221328865822,
,,,,100.0,4.0,8.0,,,,,,,,,,,,,gelb,blue,b,0.0,b,1.0,0.604373295995174,,,,,,,,,,8.0,4.0,100.0,9.0,398.224447650995,,,,,,,,,,,,,,,,,398.2079722189956,398.5529802030069,399.374612671003,399.3566040750011,,,,,,,,,,,,,,,,,,,,,,,,,,,,,,,,,,,399.3611962199939,399.374612671003,399.374612671003,399.9812182129972,b,1.0,0.604373295995174,,,,,sub-199,1,stroop_test,64.85221328865822,
,,,,101.0,5.0,8.0,,,,,,,,,,,,,rot,red,r,1.0,r,1.0,0.5825713550002547,,,,,,,,,,8.0,5.0,101.0,0.0,399.9929301439988,,,,,,,,,,,,,,,,,399.98163862399815,400.076485262005,400.8913068830007,400.8733421649959,,,,,,,,,,,,,,,,,,,,,,,,,,,,,,,,,,,400.8773547309975,400.8913068830007,400.8913068830007,401.4772430760058,r,1.0,0.5825713550002547,,,,,sub-199,1,stroop_test,64.85221328865822,
,,,,102.0,6.0,8.0,,,,,,,,,,,,,blau,blue,b,1.0,b,1.0,0.6269904920045519,,,,,,,,,,8.0,6.0,102.0,6.0,401.4926930569927,,,,,,,,,,,,,,,,,401.4775815189933,401.8334352600068,402.6317120809981,402.6172321710037,,,,,,,,,,,,,,,,,,,,,,,,,,,,,,,,,,,402.6227035810007,402.6317120809981,402.6317120809981,403.2692656750005,b,1.0,0.6269904920045519,,,,,sub-199,1,stroop_test,64.85221328865822,
,,,,103.0,7.0,8.0,,,,,,,,,,,,,blau,yellow,g,0.0,g,1.0,0.4591137779934797,,,,,,,,,,8.0,7.0,103.0,7.0,403.2794101430045,,,,,,,,,,,,,,,,,403.26953953799966,404.0638013169955,404.868600072994,404.8581538430008,,,,,,,,,,,,,,,,,,,,,,,,,,,,,,,,,,,404.85884479800006,404.868600072994,404.868600072994,405.3403741420043,g,1.0,0.4591137779934797,,,,,sub-199,1,stroop_test,64.85221328865822,
,,,,104.0,8.0,8.0,,,,,,,,,,,,,gelb,red,r,0.0,r,1.0,0.6006873220030684,,,,,,,,,,8.0,8.0,104.0,8.0,405.3575691269944,,,,,,,,,,,,,,,,,405.3408217230026,406.5434955200035,407.3579119119968,407.3399217069964,,,,,,,,,,,,,,,,,,,,,,,,,,,,,,,,,,,407.34424731899344,407.3579119119968,407.3579119119968,407.9687628740066,r,1.0,0.6006873220030684,,,,,sub-199,1,stroop_test,64.85221328865822,
,,,,105.0,9.0,8.0,,,,,,,,,,,,,rot,blue,b,0.0,b,1.0,0.952083734999178,,,,,,,,,,8.0,9.0,105.0,2.0,407.9788444269943,,,,,,,,,,,,,,,,,407.96918518299935,408.3167335360049,409.1213942559989,409.10808563799947,,,,,,,,,,,,,,,,,,,,,,,,,,,,,,,,,,,409.11202452999714,409.1213942559989,409.1213942559989,410.0926350850059,b,1.0,0.952083734999178,,,,,sub-199,1,stroop_test,64.85221328865822,
,,,,106.0,10.0,8.0,,,,,,,,,,,,,blau,red,r,0.0,r,1.0,0.7489309920056257,,,,,,,,,,8.0,10.0,106.0,4.0,410.1041649609979,,,,,,,,,,,,,,,,,410.0931776609941,410.457723296,411.2567578710005,411.2435584439954,,,,,,,,,,,,,,,,,,,,,,,,,,,,,,,,,,,411.2476113199955,411.2567578710005,411.2567578710005,412.0141456830024,r,1.0,0.7489309920056257,,,,,sub-199,1,stroop_test,64.85221328865822,
,,,,107.0,11.0,8.0,,,,,,,,,,,,,rot,red,r,1.0,r,1.0,2.598932873996091,,,,,,,,,,8.0,11.0,107.0,1.0,412.0260968200018,,,,,,,,,,,,,,,,,412.0144230970036,412.1163967989996,412.9150790870044,412.9006018369983,,,,,,,,,,,,,,,,,,,,,,,,,,,,,,,,,,,412.9059854549996,412.9150790870044,412.9150790870044,415.525889327997,r,1.0,2.598932873996091,,,,,sub-199,1,stroop_test,64.85221328865822,
,,,,108.0,0.0,9.0,,,,,,,,,,,,,rot,red,r,1.0,r,1.0,0.611530070003937,,,,,,,,,,9.0,0.0,108.0,0.0,415.5353753590025,,,,,,,,,,,,,,,,,415.52622269900166,416.324364746004,417.1351070859964,417.1247079189925,,,,,,,,,,,,,,,,,,,,,,,,,,,,,,,,,,,417.1254010289995,417.1351070859964,417.1351070859964,417.75882799900137,r,1.0,0.611530070003937,,,,,sub-199,1,stroop_test,64.85221328865822,
,,,,109.0,1.0,9.0,,,,,,,,,,,,,gelb,yellow,g,1.0,g,1.0,0.5815569430124015,,,,,,,,,,9.0,1.0,109.0,11.0,417.7699942320032,,,,,,,,,,,,,,,,,417.7593650799972,418.12281676499697,418.9219112790015,418.9080304980016,,,,,,,,,,,,,,,,,,,,,,,,,,,,,,,,,,,418.9126197940059,418.9219112790015,418.9219112790015,419.5089668309956,g,1.0,0.5815569430124015,,,,,sub-199,1,stroop_test,64.85221328865822,
,,,,110.0,2.0,9.0,,,,,,,,,,,,,gelb,red,r,0.0,r,1.0,0.6947339290054515,,,,,,,,,,9.0,2.0,110.0,8.0,419.5190182009974,,,,,,,,,,,,,,,,,419.5092319620017,419.60758932599856,420.4017317310063,420.391421702996,,,,,,,,,,,,,,,,,,,,,,,,,,,,,,,,,,,420.3920966750011,420.4017317310063,420.4017317310063,421.1086722119944,r,1.0,0.6947339290054515,,,,,sub-199,1,stroop_test,64.85221328865822,
,,,,111.0,3.0,9.0,,,,,,,,,,,,,gelb,yellow,g,1.0,g,1.0,0.5789603589946637,,,,,,,,,,9.0,3.0,111.0,10.0,421.11839400099416,,,,,,,,,,,,,,,,,421.10892899200553,421.9078379889979,422.7244028580026,422.7063096780039,,,,,,,,,,,,,,,,,,,,,,,,,,,,,,,,,,,422.70700155899976,422.7244028580026,422.7244028580026,423.3073173489975,g,1.0,0.5789603589946637,,,,,sub-199,1,stroop_test,64.85221328865822,
,,,,112.0,4.0,9.0,,,,,,,,,,,,,rot,red,r,1.0,r,1.0,0.5539159619947895,,,,,,,,,,9.0,4.0,112.0,1.0,423.3242615210038,,,,,,,,,,,,,,,,,423.30757728099707,424.1041912340006,424.907603560001,424.88973194299615,,,,,,,,,,,,,,,,,,,,,,,,,,,,,,,,,,,424.8937912429974,424.907603560001,424.907603560001,425.46883756900206,r,1.0,0.5539159619947895,,,,,sub-199,1,stroop_test,64.85221328865822,
,,,,113.0,5.0,9.0,,,,,,,,,,,,,blau,blue,b,1.0,b,1.0,0.5850090520107187,,,,,,,,,,9.0,5.0,113.0,5.0,425.4788326069975,,,,,,,,,,,,,,,,,425.46911457799433,426.2662454050005,427.0756162210018,427.060747127005,,,,,,,,,,,,,,,,,,,,,,,,,,,,,,,,,,,427.0631610609999,427.0756162210018,427.0756162210018,427.6646191680047,b,1.0,0.5850090520107187,,,,,sub-199,1,stroop_test,64.85221328865822,
,,,,114.0,6.0,9.0,,,,,,,,,,,,,rot,yellow,g,0.0,g,1.0,0.8378768330003368,,,,,,,,,,9.0,6.0,114.0,3.0,427.6759442699986,,,,,,,,,,,,,,,,,427.6649181649991,427.7661563540023,428.5712652140064,428.5579168349941,,,,,,,,,,,,,,,,,,,,,,,,,,,,,,,,,,,428.5618867669982,428.5712652140064,428.5712652140064,429.41267916199286,g,1.0,0.8378768330003368,,,,,sub-199,1,stroop_test,64.85221328865822,
,,,,115.0,7.0,9.0,,,,,,,,,,,,,gelb,blue,b,0.0,b,1.0,0.8128500160091789,,,,,,,,,,9.0,7.0,115.0,9.0,429.4213631260063,,,,,,,,,,,,,,,,,429.41324532500585,430.6128563139937,431.41517943800136,431.4004772769986,,,,,,,,,,,,,,,,,,,,,,,,,,,,,,,,,,,431.405821791006,431.41517943800136,431.41517943800136,432.2304592760047,b,1.0,0.8128500160091789,,,,,sub-199,1,stroop_test,64.85221328865822,
,,,,116.0,8.0,9.0,,,,,,,,,,,,,rot,blue,b,0.0,b,1.0,1.0578744740050752,,,,,,,,,,9.0,8.0,116.0,2.0,432.2422368650005,,,,,,,,,,,,,,,,,432.2308328880026,432.575883996993,433.3762451990042,433.3600660210068,,,,,,,,,,,,,,,,,,,,,,,,,,,,,,,,,,,433.364332733996,433.3762451990042,433.3762451990042,434.4400789770007,b,1.0,1.0578744740050752,,,,,sub-199,1,stroop_test,64.85221328865822,
,,,,117.0,9.0,9.0,,,,,,,,,,,,,blau,yellow,g,0.0,g,1.0,0.5325798760022735,,,,,,,,,,9.0,9.0,117.0,7.0,434.4573656870052,,,,,,,,,,,,,,,,,434.4403970489948,434.7908000930038,435.60722806600097,435.58959005099314,,,,,,,,,,,,,,,,,,,,,,,,,,,,,,,,,,,435.59419059799984,435.60722806600097,435.60722806600097,436.15894259700144,g,1.0,0.5325798760022735,,,,,sub-199,1,stroop_test,64.85221328865822,
,,,,118.0,10.0,9.0,,,,,,,,,,,,,blau,red,r,0.0,r,1.0,0.5896015089965658,,,,,,,,,,9.0,10.0,118.0,4.0,436.1702117759996,,,,,,,,,,,,,,,,,436.1594833249983,436.2726079290005,437.07442588299455,437.056188771996,,,,,,,,,,,,,,,,,,,,,,,,,,,,,,,,,,,437.0568711230008,437.07442588299455,437.07442588299455,437.668307533997,r,1.0,0.5896015089965658,,,,,sub-199,1,stroop_test,64.85221328865822,
,,,,119.0,11.0,9.0,,,,,,,,,,,,,blau,blue,b,1.0,g,0.0,0.817687244998524,,,,,,,,,,9.0,11.0,119.0,6.0,437.6785177629936,,,,,,,,,,,,,,,,,437.6687107780017,437.7742926810024,438.5712875759928,438.5601877650042,,,,,,,,,,,,,,,,,,,,,,,,,,,,,,,,,,,438.5618685399968,438.5712875759928,438.5712875759928,439.39717552400543,g,0.0,0.817687244998524,,,,,sub-199,1,stroop_test,64.85221328865822,
,,,,,,,,,,,,,,,,,,,,,,,,,,,,,,,,,,,,,,,,,,,,,,,,,,,,,,,,,,,,,,,,,,,,,,,,,,,,,,,,,,,,,,,,,,,,,,,,,,,,,,439.397315951006,439.410494042997,444.3997779820056,sub-199,1,stroop_test,64.85221328865822,
