direction,corrAns,thisN,thisTrialN,thisRepN,respDots.keys,respDots.corr,respDots.rt,respDots.duration,randomInstr,respRandomInstr.keys,respRandomInstr.rt,respRandomInstr.duration,practice_trials.thisRepN,practice_trials.thisTrialN,practice_trials.thisN,practice_trials.thisIndex,instr_trials.thisRepN,instr_trials.thisTrialN,instr_trials.thisN,instr_trials.thisIndex,test_trials.thisRepN,test_trials.thisTrialN,test_trials.thisN,test_trials.thisIndex,thisRow.t,notes,general_instruction.started,textGeneralInstr.started,respGeneralInstr.started,general_instruction.stopped,respGeneralInstr.keys,respGeneralInstr.rt,respGeneralInstr.duration,ITI.started,fixcross.started,fixcross.stopped,ITI.stopped,dots.started,backgroundDots.started,stimulusDots.started,respDots.started,stimulusDots.stopped,dots.stopped,practice_trials.respDots.keys,practice_trials.respDots.corr,practice_trials.respDots.rt,practice_trials.respDots.duration,feedback.started,textFeedback.started,feedback.stopped,textFeedback.stopped,info.started,textInfo.started,keyRespInfo.started,info.stopped,keyRespInfo.keys,keyRespInfo.rt,keyRespInfo.duration,test_instruction.started,textTestInstr.started,respTestInstr.started,test_instruction.stopped,respTestInstr.keys,respTestInstr.rt,respTestInstr.duration,random_instruction.started,textRandomInstr.started,respRandomInstr.started,random_instruction.stopped,instr_trials.respRandomInstr.keys,instr_trials.respRandomInstr.rt,instr_trials.respRandomInstr.duration,test_trials.respDots.keys,test_trials.respDots.corr,test_trials.respDots.rt,test_trials.respDots.duration,goodbye.started,textGoodbye.started,textGoodbye.stopped,goodbye.stopped,participant,session,expName,frameRate,Unnamed: 88
,,,,,,,,,,,,,,,,,,,,,,,,,,,0.0087864159941091,0.016433999997389,0.016433999997389,20.08552270799555,space,19.88167037400126,,,,,,,,,,,,,,,,,,,,,,,,,,,,,,,,,,,,,,,,,,,,,,,,,sub-040,1,random_dot,,
right,right,0.0,0.0,0.0,right,1.0,9.419895749000716,,,,,,0.0,0.0,0.0,1.0,,,,,,,,,20.127686749998247,,,,,,,,,20.1055635409939,21.28349624999828,22.151495915997657,22.0699032909979,22.07052441599808,22.151495915997657,22.151495915997657,22.151495915997657,27.069172207993688,31.57783479099453,right,1.0,9.419895749000716,,31.589016415993683,31.658252249995712,32.086634166000294,,,,,,,,,,,,,,,,,,,,,,,,,,,,,,,sub-040,1,random_dot,,
left,left,1.0,1.0,0.0,left,1.0,1.7549834579986054,,,,,,0.0,1.0,1.0,0.0,,,,,,,,,32.09234925000055,,,,,,,,,32.08731324999826,32.426233874997706,33.21830670799682,33.20923558299546,33.20971329099848,33.21830670799682,33.21830670799682,33.21830670799682,,34.97599354099657,left,1.0,1.7549834579986054,,34.97612754099828,34.98553662499762,35.47007841599407,35.475875083000574,,,,,,,,,,,,,,,,,,,,,,,,,,,,,,sub-040,1,random_dot,,
left,left,2.0,0.0,1.0,right,0.0,1.1895600409989129,,,,,,1.0,0.0,2.0,0.0,,,,,,,,,35.475875083000574,,,,,,,,,35.47071195799799,36.2759990409977,37.068505790994095,37.06030895799631,37.06089541599795,37.068505790994095,37.068505790994095,37.068505790994095,,38.2618706659996,right,0.0,1.1895600409989129,,38.26958604099491,38.27732716599712,38.769943749997765,,,,,,,,,,,,,,,,,,,,,,,,,,,,,,,sub-040,1,random_dot,,
right,right,3.0,1.0,1.0,right,1.0,2.4737547490003635,,,,,,1.0,1.0,3.0,1.0,,,,,,,,,38.77566441599629,,,,,,,,,38.77060887499829,39.10860666599911,39.90139533299953,39.892640790996666,39.89308750000055,39.90139533299953,39.90139533299953,39.90139533299953,,42.37767295799858,right,1.0,2.4737547490003635,,42.38159583299421,42.40229841599648,42.88664412499929,,,,,,,,,,,,,,,,,,,,,,,,,,,,,,,sub-040,1,random_dot,,
right,right,4.0,0.0,2.0,left,0.0,1.3927786250060308,,,,,,2.0,0.0,4.0,1.0,,,,,,,,,42.89248383299855,,,,,,,,,42.887324666000495,43.67585599999438,44.46814666599676,44.45915404099651,44.45960949999426,44.46814666599676,44.46814666599676,44.46814666599676,,45.87025208299747,left,0.0,1.3927786250060308,,45.87463337499503,45.88301362499624,46.36980391599354,46.37399633299356,,,,,,,,,,,,,,,,,,,,,,,,,,,,,,sub-040,1,random_dot,,
left,left,5.0,1.0,2.0,left,1.0,1.659994583002117,,,,,,2.0,1.0,5.0,0.0,,,,,,,,,46.37399633299356,,,,,,,,,46.37022425000032,47.55946787499852,48.36085837499559,48.353263249999145,48.35385524999583,48.36085837499559,48.36085837499559,48.36085837499559,,50.02782983299403,left,1.0,1.659994583002117,,50.03189712499443,50.039881999997306,50.52534791599464,50.5363478329964,,,,,,,,,,,,,,,,,,,,,,,,,,,,,,sub-040,1,random_dot,,
left,left,6.0,0.0,3.0,left,1.0,1.377425625003525,,,,,,3.0,0.0,6.0,0.0,,,,,,,,,50.5363478329964,,,,,,,,,50.52573949999351,50.87571475000004,51.66835024999455,51.65926974999456,51.6597342909954,51.66835024999455,51.66835024999455,51.66835024999455,,53.05428133299574,left,1.0,1.377425625003525,,53.054410207994806,53.06254400000034,53.55347679099941,53.55907262499386,,,,,,,,,,,,,,,,,,,,,,,,,,,,,,sub-040,1,random_dot,,
right,right,7.0,1.0,3.0,right,1.0,1.7479885819993797,,,,,,3.0,1.0,7.0,1.0,,,,,,,,,53.55907262499386,,,,,,,,,53.5540869999968,54.35294979099854,55.14470149999397,55.1367171249949,55.13730199999554,55.14470149999397,55.14470149999397,55.14470149999397,,56.89521045799484,right,1.0,1.7479885819993797,,56.89534241599904,56.90467974999774,57.39250695800001,57.40330716599419,,,,,,,,,,,,,,,,,,,,,,,,,,,,,,sub-040,1,random_dot,,
left,left,8.0,0.0,4.0,left,1.0,0.964781665999908,,,,,,4.0,0.0,8.0,0.0,,,,,,,,,57.40330716599419,,,,,,,,,57.39289045799524,57.492862790997606,58.28477974999987,58.27621974999784,58.27675633299805,58.28477974999987,58.28477974999987,58.28477974999987,,59.25323295799899,left,1.0,0.964781665999908,,59.25341416599986,59.26182395799697,59.75349154099968,59.75926149999577,,,,,,,,,,,,,,,,,,,,,,,,,,,,,,sub-040,1,random_dot,,
right,right,9.0,1.0,4.0,right,1.0,1.041343416000018,,,,,,4.0,1.0,9.0,1.0,,,,,,,,,59.75926149999577,,,,,,,,,59.75412254099501,60.09264299999632,60.89516620799986,60.88690341599431,60.88762241599761,60.89516620799986,60.89516620799986,60.89516620799986,,61.94346995799424,right,1.0,1.041343416000018,,61.94360666599823,61.95166691600025,62.436817832996894,62.44233637499565,,,,,,,,,,,,,,,,,,,,,,,,,,,,,,sub-040,1,random_dot,,
right,right,10.0,0.0,5.0,left,0.0,1.0916542490012944,,,,,,5.0,0.0,10.0,1.0,,,,,,,,,62.44233637499565,,,,,,,,,62.43745520799712,63.64320279099775,64.43480066600023,64.42605766599445,64.42649720799818,64.43480066600023,64.43480066600023,64.43480066600023,,65.52770908299863,left,0.0,1.0916542490012944,,65.53213124999456,65.54084891599632,66.02628762499808,66.03632587500033,,,,,,,,,,,,,,,,,,,,,,,,,,,,,,sub-040,1,random_dot,,
left,left,11.0,1.0,5.0,left,1.0,0.943503791000694,,,,,,5.0,1.0,11.0,0.0,,,,,,,,,66.03632587500033,,,,,,,,,66.02677241600031,66.12580216599599,66.91802374999679,66.90932879100001,66.90977916599513,66.91802374999679,66.91802374999679,66.91802374999679,,67.87096604099497,left,1.0,0.943503791000694,,67.87608912499854,67.8851125000001,68.37027420799859,68.37589041599858,,,,,,,,,,,,,,,,,,,,,,,,,,,,,,sub-040,1,random_dot,,
right,right,12.0,0.0,6.0,left,0.0,1.532469581994519,,,,,,6.0,0.0,12.0,1.0,,,,,,,,,68.37589041599858,,,,,,,,,68.37090945799719,69.16976595799497,69.9609008329935,69.953288040997,69.95382516599784,69.9609008329935,69.9609008329935,69.9609008329935,,71.49501133299782,left,0.0,1.532469581994519,,71.49891083299735,71.5070827909949,71.99274716599757,72.00309266599652,,,,,,,,,,,,,,,,,,,,,,,,,,,,,,sub-040,1,random_dot,,
left,left,13.0,1.0,6.0,left,1.0,2.8566755410065525,,,,,,6.0,1.0,13.0,0.0,,,,,,,,,72.00309266599652,,,,,,,,,71.99313120799343,72.79274770799384,73.58473224999761,73.57615658299619,73.57667858299828,73.58473224999761,73.58473224999761,73.58473224999761,,76.44462812499842,left,1.0,2.8566755410065525,,76.44850341599522,76.45691370799614,76.94201883299684,76.95300866599428,,,,,,,,,,,,,,,,,,,,,,,,,,,,,,sub-040,1,random_dot,,
right,right,14.0,0.0,7.0,right,1.0,1.4524915829970269,,,,,,7.0,0.0,14.0,1.0,,,,,,,,,76.95300866599428,,,,,,,,,76.94241545799741,77.04259729099431,77.83474212500005,77.82586708299641,77.82631545799813,77.83474212500005,77.83474212500005,77.83474212500005,,79.2952737079977,right,1.0,1.4524915829970269,,79.29541033299756,79.30506445799983,79.79271004099428,79.80297983299533,,,,,,,,,,,,,,,,,,,,,,,,,,,,,,sub-040,1,random_dot,,
left,left,15.0,1.0,7.0,left,1.0,1.4813488329964457,,,,,,7.0,1.0,15.0,0.0,,,,,,,,,79.80297983299533,,,,,,,,,79.7932009579963,80.14261320799415,80.93474558299931,80.9258599159948,80.92642062499363,80.93474558299931,80.93474558299931,80.93474558299931,,82.42125370799477,left,1.0,1.4813488329964457,,82.42142612499447,82.43084499999532,82.91989308299526,82.92510712499643,,,,,,,,,,,,,,,,,,,,,,,,,,,,,,sub-040,1,random_dot,,
right,right,16.0,0.0,8.0,right,1.0,1.3383658329985335,,,,,,8.0,0.0,16.0,1.0,,,,,,,,,82.92510712499643,,,,,,,,,82.92038633299671,83.01988116599387,83.81175591599458,83.80371604099491,83.80427991599572,83.81175591599458,83.81175591599458,83.81175591599458,,85.15456833299686,right,1.0,1.3383658329985335,,85.1547622500002,85.16493558299408,85.65330383299442,85.65849995799363,,,,,,,,,,,,,,,,,,,,,,,,,,,,,,sub-040,1,random_dot,,
left,left,17.0,1.0,8.0,left,1.0,2.1187202910005,,,,,,8.0,1.0,17.0,0.0,,,,,,,,,85.65849995799363,,,,,,,,,85.65382870799658,86.0029520409953,86.7962672079957,86.7873136249982,86.78804654099804,86.7962672079957,86.7962672079957,86.7962672079957,,88.92132850000053,left,1.0,2.1187202910005,,88.92151283299609,88.9309477909992,89.42010820799624,89.4257036659983,,,,,,,,,,,,,,,,,,,,,,,,,,,,,,sub-040,1,random_dot,,
left,left,18.0,0.0,9.0,right,0.0,1.0154645410002558,,,,,,9.0,0.0,18.0,0.0,,,,,,,,,89.4257036659983,,,,,,,,,89.42072412499692,90.61986358300057,91.41047174999404,91.40333741599898,91.40378904099634,91.41047174999404,91.41047174999404,91.41047174999404,,92.4282779579953,right,0.0,1.0154645410002558,,92.43223612499423,92.44067583300055,92.9251962499984,92.93639383299887,,,,,,,,,,,,,,,,,,,,,,,,,,,,,,sub-040,1,random_dot,,
right,right,19.0,1.0,9.0,right,1.0,1.5824896660051309,,,,,,9.0,1.0,19.0,1.0,,,,,,,,,92.93639383299887,,,,,,,,,92.9255724159957,94.12584433299344,94.9183481250002,94.90899820799676,94.90943924999738,94.9183481250002,94.9183481250002,94.9183481250002,,96.50448245799636,right,1.0,1.5824896660051309,,96.5092349579936,96.51886829099384,97.00364316599736,97.01161504099582,,,,,,,,,,,,,,,,,,,,,,,,,,,,,,sub-040,1,random_dot,,
,,,,,,,,,,,,,,,,,,,,,,,,,,,,,,,,,,,,,,,,,,,,,,,,,,,,97.00391654099803,97.01161504099582,97.01161504099582,100.82183141599673,space,3.8061869160010247,,,,,,,,,,,,,,,,,,,,,,,,sub-040,1,random_dot,,
,,,,,,,,,,,,,,,,,,,,,,,,,,,,,,,,,,,,,,,,,,,,,,,,,,,,,,,,,,,100.82199829099407,100.83547249999538,100.83547249999538,104.89296366599592,space,4.054179333004868,,,,,,,,,,,,,,,,,sub-040,1,random_dot,,
right,right,0.0,0.0,0.0,right,1.0,1.290199457995186,,speed,space,2.7602404990029754,,,,,,0.0,0.0,0.0,1.0,0.0,0.0,0.0,1.0,107.7074536250002,,,,,,,,,107.6997975829945,108.48651487499592,109.27834545799853,109.27019745799772,109.2709332499944,109.27834545799853,109.27834545799853,109.27834545799853,,110.57112933299504,,,,,,,,,,,,,,,,,,,,,,,104.91702629099746,104.92545641600007,104.92545641600007,107.68839870800002,space,2.7602404990029754,,right,1.0,1.290199457995186,,,,,,sub-040,1,random_dot,,
left,left,1.0,1.0,0.0,left,1.0,0.792105458000151,,speed,space,2.7602404990029754,,,,,,0.0,0.0,0.0,1.0,0.0,1.0,1.0,0.0,110.57964508299484,,,,,,,,,110.5718134159979,111.36968999999954,112.16026004099696,112.1534370409936,112.15381316599814,112.16026004099696,112.16026004099696,112.16026004099696,,112.9541116249966,,,,,,,,,,,,,,,,,,,,,,,,,,,,,,left,1.0,0.792105458000151,,,,,,sub-040,1,random_dot,,
left,left,2.0,0.0,1.0,right,0.0,1.490974415995879,,speed,space,2.7602404990029754,,,,,,0.0,0.0,0.0,1.0,1.0,0.0,2.0,0.0,112.96220633299528,,,,,,,,,112.95462574999692,113.75312824999855,114.54530645799969,114.53694966599868,114.53771054099344,114.54530645799969,114.54530645799969,114.54530645799969,,116.03793166599644,,,,,,,,,,,,,,,,,,,,,,,,,,,,,,right,0.0,1.490974415995879,,,,,,sub-040,1,random_dot,,
right,right,3.0,1.0,1.0,right,1.0,1.3835007489979034,,speed,space,2.7602404990029754,,,,,,0.0,0.0,0.0,1.0,1.0,1.0,3.0,1.0,116.0433399579997,,,,,,,,,116.03859658299916,117.23651383299875,118.02781095799584,118.02019429099892,118.0206509579948,118.02781095799584,118.02781095799584,118.02781095799584,,119.41958750000047,,,,,,,,,,,,,,,,,,,,,,,,,,,,,,right,1.0,1.3835007489979034,,,,,,sub-040,1,random_dot,,
left,left,4.0,0.0,2.0,left,1.0,0.5144362069986528,,speed,space,2.7602404990029754,,,,,,0.0,0.0,0.0,1.0,2.0,0.0,4.0,0.0,119.4280084159982,,,,,,,,,119.42007658299552,120.60989462499856,121.40149795799516,121.39270812500035,121.39317662499523,121.40149795799516,121.40149795799516,121.40149795799516,,121.92103804100044,,,,,,,,,,,,,,,,,,,,,,,,,,,,,,left,1.0,0.5144362069986528,,,,,,sub-040,1,random_dot,,
right,right,5.0,1.0,2.0,right,1.0,1.076765040997998,,speed,space,2.7602404990029754,,,,,,0.0,0.0,0.0,1.0,2.0,1.0,5.0,1.0,121.93062720799936,,,,,,,,,121.92155533299956,123.11972616599816,123.91194462499698,123.90364754099572,123.90437970799394,123.91194462499698,123.91194462499698,123.91194462499698,,124.99267841599794,,,,,,,,,,,,,,,,,,,,,,,,,,,,,,right,1.0,1.076765040997998,,,,,,sub-040,1,random_dot,,
right,right,6.0,0.0,3.0,left,0.0,2.005332166001608,,speed,space,2.7602404990029754,,,,,,0.0,0.0,0.0,1.0,3.0,0.0,6.0,1.0,125.00169454099525,,,,,,,,,124.99316499999986,126.19253258299432,126.9848401249983,126.97605958299393,126.9765349159934,126.9848401249983,126.9848401249983,126.9848401249983,,128.99293208299787,,,,,,,,,,,,,,,,,,,,,,,,,,,,,,left,0.0,2.005332166001608,,,,,,sub-040,1,random_dot,,
left,left,7.0,1.0,3.0,right,0.0,1.2353639159991872,,speed,space,2.7602404990029754,,,,,,0.0,0.0,0.0,1.0,3.0,1.0,7.0,0.0,129.002026999995,,,,,,,,,128.9934049999938,130.19251562499994,130.9847074999998,130.97581195800012,130.9762970409938,130.9847074999998,130.9847074999998,130.9847074999998,,132.22658966599556,,,,,,,,,,,,,,,,,,,,,,,,,,,,,,right,0.0,1.2353639159991872,,,,,,sub-040,1,random_dot,,
right,right,8.0,0.0,4.0,left,0.0,1.621852748998208,,speed,space,2.7602404990029754,,,,,,0.0,0.0,0.0,1.0,4.0,0.0,8.0,1.0,132.23506991599425,,,,,,,,,132.2270812909992,132.32630791599513,133.11806483299733,133.10941691599874,133.1099663749992,133.11806483299733,133.11806483299733,133.11806483299733,,134.74432404099937,,,,,,,,,,,,,,,,,,,,,,,,,,,,,,left,0.0,1.621852748998208,,,,,,sub-040,1,random_dot,,
left,left,9.0,1.0,4.0,right,0.0,1.7871449160011252,,speed,space,2.7602404990029754,,,,,,0.0,0.0,0.0,1.0,4.0,1.0,9.0,0.0,134.75275724999665,,,,,,,,,134.74480879099428,135.09292787499726,135.88478749999922,135.8759745829957,135.87642537499778,135.88478749999922,135.88478749999922,135.88478749999922,,137.67752016599843,,,,,,,,,,,,,,,,,,,,,,,,,,,,,,right,0.0,1.7871449160011252,,,,,,sub-040,1,random_dot,,
right,right,10.0,0.0,5.0,right,1.0,1.2380743329995312,,speed,space,2.7602404990029754,,,,,,0.0,0.0,0.0,1.0,5.0,0.0,10.0,1.0,137.68595562499831,,,,,,,,,137.678005457994,138.4757407910001,139.27774466599658,139.26991870799975,139.27047441600007,139.27774466599658,139.27774466599658,139.27774466599658,,140.52019954099524,,,,,,,,,,,,,,,,,,,,,,,,,,,,,,right,1.0,1.2380743329995312,,,,,,sub-040,1,random_dot,,
left,left,11.0,1.0,5.0,left,1.0,1.280277498997748,,speed,space,2.7602404990029754,,,,,,0.0,0.0,0.0,1.0,5.0,1.0,11.0,0.0,140.52581954099878,,,,,,,,,140.52083241599755,140.6093147499996,141.40145504099928,141.3929047499987,141.39343462499528,141.40145504099928,141.40145504099928,141.40145504099928,,142.68786941599683,,,,,,,,,,,,,,,,,,,,,,,,,,,,,,left,1.0,1.280277498997748,,,,,,sub-040,1,random_dot,,
right,right,12.0,0.0,6.0,right,1.0,1.5963237500036485,,speed,space,2.7602404990029754,,,,,,0.0,0.0,0.0,1.0,6.0,0.0,12.0,1.0,142.69687058300042,,,,,,,,,142.6885567079953,143.88647574999777,144.67936566599383,144.67015916599485,144.6708942080004,144.67936566599383,144.67936566599383,144.67936566599383,,146.2786640829945,,,,,,,,,,,,,,,,,,,,,,,,,,,,,,right,1.0,1.5963237500036485,,,,,,sub-040,1,random_dot,,
left,left,13.0,1.0,6.0,left,1.0,0.7781731249997392,,speed,space,2.7602404990029754,,,,,,0.0,0.0,0.0,1.0,6.0,1.0,13.0,0.0,146.28814616599993,,,,,,,,,146.27913412499765,146.37582329099678,147.17640004099667,147.1692401659966,147.16986620799435,147.17640004099667,147.17640004099667,147.17640004099667,,147.96094049999374,,,,,,,,,,,,,,,,,,,,,,,,,,,,,,left,1.0,0.7781731249997392,,,,,,sub-040,1,random_dot,,
right,right,14.0,0.0,7.0,left,0.0,1.593121666002844,,speed,space,2.7602404990029754,,,,,,0.0,0.0,0.0,1.0,7.0,0.0,14.0,1.0,147.96946383299655,,,,,,,,,147.9614226249978,149.15970554099476,149.95142483299423,149.94283249999717,149.9433827499961,149.95142483299423,149.95142483299423,149.95142483299423,,151.55292391599505,,,,,,,,,,,,,,,,,,,,,,,,,,,,,,left,0.0,1.593121666002844,,,,,,sub-040,1,random_dot,,
left,left,15.0,1.0,7.0,right,0.0,1.2042854160026764,,speed,space,2.7602404990029754,,,,,,0.0,0.0,0.0,1.0,7.0,1.0,15.0,0.0,151.56108837499778,,,,,,,,,151.5534367500004,152.7416231659954,153.53617729099642,153.52513691599597,153.52560149999772,153.53617729099642,153.53617729099642,153.53617729099642,,154.7430613329998,,,,,,,,,,,,,,,,,,,,,,,,,,,,,,right,0.0,1.2042854160026764,,,,,,sub-040,1,random_dot,,
left,left,16.0,0.0,8.0,right,0.0,1.4547343329977591,,speed,space,2.7602404990029754,,,,,,0.0,0.0,0.0,1.0,8.0,0.0,16.0,0.0,154.75208899999416,,,,,,,,,154.74353837499802,155.54286820799462,156.33473295799922,156.32641745799629,156.3268774159951,156.33473295799922,156.33473295799922,156.33473295799922,,157.7933517499987,,,,,,,,,,,,,,,,,,,,,,,,,,,,,,right,0.0,1.4547343329977591,,,,,,sub-040,1,random_dot,,
right,right,17.0,1.0,8.0,left,0.0,2.0757086660014465,,speed,space,2.7602404990029754,,,,,,0.0,0.0,0.0,1.0,8.0,1.0,17.0,1.0,157.8016216659962,,,,,,,,,157.793833290998,158.1429513749972,158.93469883299986,158.92592324999714,158.92636587499874,158.93469883299986,158.93469883299986,158.93469883299986,,161.02075412499835,,,,,,,,,,,,,,,,,,,,,,,,,,,,,,left,0.0,2.0757086660014465,,,,,,sub-040,1,random_dot,,
right,right,18.0,0.0,9.0,right,1.0,1.427065498995944,,speed,space,2.7602404990029754,,,,,,0.0,0.0,0.0,1.0,9.0,0.0,18.0,1.0,161.02913324999827,,,,,,,,,161.02127283299342,161.10968299999513,161.91125741599535,161.90329983300035,161.90391291599371,161.91125741599535,161.91125741599535,161.91125741599535,,163.3436969999966,,,,,,,,,,,,,,,,,,,,,,,,,,,,,,right,1.0,1.427065498995944,,,,,,sub-040,1,random_dot,,
left,left,19.0,1.0,9.0,left,1.0,1.8855760830047077,,speed,space,2.7602404990029754,,,,,,0.0,0.0,0.0,1.0,9.0,1.0,19.0,0.0,163.35216616599791,,,,,,,,,163.34418695799832,163.4424172910003,164.23471258299833,164.22601754099742,164.2264535409995,164.23471258299833,164.23471258299833,164.23471258299833,,166.12633541599644,,,,,,,,,,,,,,,,,,,,,,,,,,,,,,left,1.0,1.8855760830047077,,,,,,sub-040,1,random_dot,,
right,right,20.0,0.0,10.0,right,1.0,1.1435528750007506,,speed,space,2.7602404990029754,,,,,,0.0,0.0,0.0,1.0,10.0,0.0,20.0,1.0,166.1356483749987,,,,,,,,,166.12682608299656,167.3259059579941,168.11817995799356,168.10945983299462,168.10988895799528,168.11817995799356,168.11817995799356,168.11817995799356,,169.26991825000005,,,,,,,,,,,,,,,,,,,,,,,,,,,,,,right,1.0,1.1435528750007506,,,,,,sub-040,1,random_dot,,
left,left,21.0,1.0,10.0,right,0.0,1.2605436659941915,,speed,space,2.7602404990029754,,,,,,0.0,0.0,0.0,1.0,10.0,1.0,21.0,0.0,169.27882487500028,,,,,,,,,169.27068654100003,170.05909237499873,170.8513850829986,170.84283783299907,170.84328170799563,170.8513850829986,170.8513850829986,170.8513850829986,,172.1200770409996,,,,,,,,,,,,,,,,,,,,,,,,,,,,,,right,0.0,1.2605436659941915,,,,,,sub-040,1,random_dot,,
right,right,22.0,0.0,11.0,right,1.0,3.2136544160021003,,speed,space,2.7602404990029754,,,,,,0.0,0.0,0.0,1.0,11.0,0.0,22.0,1.0,172.12870633299462,,,,,,,,,172.12063116599893,172.20777049999742,173.00141179099592,172.99286629099515,172.9933076659945,173.00141179099592,173.00141179099592,173.00141179099592,,176.22123708299478,,,,,,,,,,,,,,,,,,,,,,,,,,,,,,right,1.0,3.2136544160021003,,,,,,sub-040,1,random_dot,,
left,left,23.0,1.0,11.0,left,1.0,0.6924936659997911,,speed,space,2.7602404990029754,,,,,,0.0,0.0,0.0,1.0,11.0,1.0,23.0,0.0,176.23013399999763,,,,,,,,,176.22190812500048,176.56982216599863,177.36126029099978,177.35337745799916,177.35394012499455,177.36126029099978,177.36126029099978,177.36126029099978,,178.06188412499614,,,,,,,,,,,,,,,,,,,,,,,,,,,,,,left,1.0,0.6924936659997911,,,,,,sub-040,1,random_dot,,
right,right,24.0,0.0,12.0,right,1.0,1.0173608740005875,,speed,space,2.7602404990029754,,,,,,0.0,0.0,0.0,1.0,12.0,0.0,24.0,1.0,178.07148370799405,,,,,,,,,178.06238083299831,179.25967091599887,180.0515110829947,180.04262816599658,180.04307054099627,180.0515110829947,180.0515110829947,180.0515110829947,,181.0767593749988,,,,,,,,,,,,,,,,,,,,,,,,,,,,,,right,1.0,1.0173608740005875,,,,,,sub-040,1,random_dot,,
left,left,25.0,1.0,12.0,right,0.0,2.27170220699918,,speed,space,2.7602404990029754,,,,,,0.0,0.0,0.0,1.0,12.0,1.0,25.0,0.0,181.0849307909957,,,,,,,,,181.0772338329989,181.87656012499792,182.67803199999616,182.6700231249997,182.67060383299395,182.67803199999616,182.67803199999616,182.67803199999616,,184.95455104099528,,,,,,,,,,,,,,,,,,,,,,,,,,,,,,right,0.0,2.27170220699918,,,,,,sub-040,1,random_dot,,
right,right,26.0,0.0,13.0,left,0.0,0.9287308740022128,,speed,space,2.7602404990029754,,,,,,0.0,0.0,0.0,1.0,13.0,0.0,26.0,1.0,184.9635338329972,,,,,,,,,184.95528362500045,185.7530832909979,186.5460115829992,186.5369243749956,186.5376611249958,186.5460115829992,186.5460115829992,186.5460115829992,,187.47820366599623,,,,,,,,,,,,,,,,,,,,,,,,,,,,,,left,0.0,0.9287308740022128,,,,,,sub-040,1,random_dot,,
left,left,27.0,1.0,13.0,right,0.0,1.1777117490055389,,speed,space,2.7602404990029754,,,,,,0.0,0.0,0.0,1.0,13.0,1.0,27.0,0.0,187.50289854099535,,,,,,,,,187.4786859579981,187.5760689579984,188.36800550000044,188.3594364159944,188.35990254100037,188.36800550000044,188.36800550000044,188.36800550000044,,189.5535945409938,,,,,,,,,,,,,,,,,,,,,,,,,,,,,,right,0.0,1.1777117490055389,,,,,,sub-040,1,random_dot,,
right,right,28.0,0.0,14.0,left,0.0,1.3597873740000068,,speed,space,2.7602404990029754,,,,,,0.0,0.0,0.0,1.0,14.0,0.0,28.0,1.0,189.5619562909997,,,,,,,,,189.55411558299969,189.64228554099827,190.4348402079995,190.42591183299373,190.4263694159963,190.4348402079995,190.4348402079995,190.4348402079995,,191.8040626660004,,,,,,,,,,,,,,,,,,,,,,,,,,,,,,left,0.0,1.3597873740000068,,,,,,sub-040,1,random_dot,,
left,left,29.0,1.0,14.0,left,1.0,1.195455082997796,,speed,space,2.7602404990029754,,,,,,0.0,0.0,0.0,1.0,14.0,1.0,29.0,0.0,191.81293729099707,,,,,,,,,191.80491954099853,191.90340762499545,192.695156457994,192.6868631249963,192.6876107079952,192.695156457994,192.695156457994,192.695156457994,,193.895232457995,,,,,,,,,,,,,,,,,,,,,,,,,,,,,,left,1.0,1.195455082997796,,,,,,sub-040,1,random_dot,,
left,left,30.0,0.0,15.0,right,0.0,1.258843456998875,,speed,space,2.7602404990029754,,,,,,0.0,0.0,0.0,1.0,15.0,0.0,30.0,0.0,193.904698665996,,,,,,,,,193.895745707996,195.09189837499437,195.88474704099644,195.8760855829969,195.8766264160004,195.88474704099644,195.88474704099644,195.88474704099644,,197.14504808299532,,,,,,,,,,,,,,,,,,,,,,,,,,,,,,right,0.0,1.258843456998875,,,,,,sub-040,1,random_dot,,
right,right,31.0,1.0,15.0,right,1.0,1.5346226250039765,,speed,space,2.7602404990029754,,,,,,0.0,0.0,0.0,1.0,15.0,1.0,31.0,1.0,197.15142862499488,,,,,,,,,197.1455252079977,197.94163020799897,198.734776665995,198.72590074999607,198.7263431659958,198.734776665995,198.734776665995,198.734776665995,,200.2775376659993,,,,,,,,,,,,,,,,,,,,,,,,,,,,,,right,1.0,1.5346226250039765,,,,,,sub-040,1,random_dot,,
right,right,32.0,0.0,16.0,left,0.0,1.1429262489982648,,speed,space,2.7602404990029754,,,,,,0.0,0.0,0.0,1.0,16.0,0.0,32.0,1.0,200.2857794579977,,,,,,,,,200.27803070799564,201.07582733299927,201.86840591600048,201.858928499998,201.8593779579969,201.86840591600048,201.86840591600048,201.86840591600048,,203.0196119999964,,,,,,,,,,,,,,,,,,,,,,,,,,,,,,left,0.0,1.1429262489982648,,,,,,sub-040,1,random_dot,,
left,left,33.0,1.0,16.0,right,0.0,1.187836373996106,,speed,space,2.7602404990029754,,,,,,0.0,0.0,0.0,1.0,16.0,1.0,33.0,0.0,203.02801120799995,,,,,,,,,203.0201364999957,203.35938641599927,204.15152099999975,204.14286208299745,204.14334387499548,204.15152099999975,204.15152099999975,204.15152099999975,,205.34314895799616,,,,,,,,,,,,,,,,,,,,,,,,,,,,,,right,0.0,1.187836373996106,,,,,,sub-040,1,random_dot,,
left,left,34.0,0.0,17.0,left,1.0,1.1764752909948584,,speed,space,2.7602404990029754,,,,,,0.0,0.0,0.0,1.0,17.0,0.0,34.0,0.0,205.3516254579954,,,,,,,,,205.34363470799872,206.1430635409997,206.94279995800025,206.93558058299823,206.93632870799772,206.94279995800025,206.94279995800025,206.94279995800025,,208.1212025829955,,,,,,,,,,,,,,,,,,,,,,,,,,,,,,left,1.0,1.1764752909948584,,,,,,sub-040,1,random_dot,,
right,right,35.0,1.0,17.0,right,1.0,1.0175509990003777,,speed,space,2.7602404990029754,,,,,,0.0,0.0,0.0,1.0,17.0,1.0,35.0,1.0,208.12685291599337,,,,,,,,,208.12184304099355,209.3198507079942,210.11168075000023,210.1035204159998,210.10426270799508,210.11168075000023,210.11168075000023,210.11168075000023,,211.1376278749958,,,,,,,,,,,,,,,,,,,,,,,,,,,,,,right,1.0,1.0175509990003777,,,,,,sub-040,1,random_dot,,
right,right,36.0,0.0,18.0,right,1.0,0.8747464580010273,,speed,space,2.7602404990029754,,,,,,0.0,0.0,0.0,1.0,18.0,0.0,36.0,1.0,211.1465146249975,,,,,,,,,211.13815266599704,211.23658541599437,212.02835583299748,212.0201892909972,212.02093670799516,212.02835583299748,212.02835583299748,212.02835583299748,,212.9098055409995,,,,,,,,,,,,,,,,,,,,,,,,,,,,,,right,1.0,0.8747464580010273,,,,,,sub-040,1,random_dot,,
left,left,37.0,1.0,18.0,left,1.0,0.9576492909982336,,speed,space,2.7602404990029754,,,,,,0.0,0.0,0.0,1.0,18.0,1.0,37.0,0.0,212.91876874999437,,,,,,,,,212.91028795799505,213.25916683299877,214.05138274999624,214.04291312499845,214.04336849999527,214.05138274999624,214.05138274999624,214.05138274999624,,215.0214005409944,,,,,,,,,,,,,,,,,,,,,,,,,,,,,,left,1.0,0.9576492909982336,,,,,,sub-040,1,random_dot,,
left,left,38.0,0.0,19.0,right,0.0,1.3423695000019509,,speed,space,2.7602404990029754,,,,,,0.0,0.0,0.0,1.0,19.0,0.0,38.0,0.0,215.0308712909973,,,,,,,,,215.02214195799752,215.8198009159969,216.61157362499944,216.6033654579951,216.6039452080004,216.61157362499944,216.61157362499944,216.61157362499944,,217.9608178329945,,,,,,,,,,,,,,,,,,,,,,,,,,,,,,right,0.0,1.3423695000019509,,,,,,sub-040,1,random_dot,,
right,right,39.0,1.0,19.0,right,1.0,1.2327169990021505,,speed,space,2.7602404990029754,,,,,,0.0,0.0,0.0,1.0,19.0,1.0,39.0,1.0,217.98646858299617,,,,,,,,,217.9613112499937,218.05996862499887,218.851354790997,218.8426952079972,218.84315079099903,218.851354790997,218.851354790997,218.851354790997,,220.08765829099863,,,,,,,,,,,,,,,,,,,,,,,,,,,,,,right,1.0,1.2327169990021505,,,,,,sub-040,1,random_dot,,
right,right,40.0,0.0,20.0,left,0.0,1.602323874998547,,speed,space,2.7602404990029754,,,,,,0.0,0.0,0.0,1.0,20.0,0.0,40.0,1.0,220.09689658299607,,,,,,,,,220.08831833299337,221.28650512499732,222.0780373329981,222.0701917499973,222.07092304099933,222.0780373329981,222.0780373329981,222.0780373329981,,223.68661466599588,,,,,,,,,,,,,,,,,,,,,,,,,,,,,,left,0.0,1.602323874998547,,,,,,sub-040,1,random_dot,,
left,left,41.0,1.0,20.0,right,0.0,1.2718488740065368,,speed,space,2.7602404990029754,,,,,,0.0,0.0,0.0,1.0,20.0,1.0,41.0,0.0,223.6957452499992,,,,,,,,,223.6871699159965,224.0263995829955,224.81804074999675,224.8094653329972,224.8099220410004,224.81804074999675,224.81804074999675,224.81804074999675,,226.0941743749936,,,,,,,,,,,,,,,,,,,,,,,,,,,,,,right,0.0,1.2718488740065368,,,,,,sub-040,1,random_dot,,
right,right,42.0,0.0,21.0,left,0.0,1.7680193740015966,,speed,space,2.7602404990029754,,,,,,0.0,0.0,0.0,1.0,21.0,0.0,42.0,1.0,226.11953379099575,,,,,,,,,226.09465854099835,226.44322045799345,227.2348004579981,227.2261556249941,227.2266036660003,227.2348004579981,227.2348004579981,227.2348004579981,,229.0045597909993,,,,,,,,,,,,,,,,,,,,,,,,,,,,,,left,0.0,1.7680193740015966,,,,,,sub-040,1,random_dot,,
left,left,43.0,1.0,21.0,right,0.0,1.8374554570036707,,speed,space,2.7602404990029754,,,,,,0.0,0.0,0.0,1.0,21.0,1.0,43.0,0.0,229.01031591599892,,,,,,,,,229.0052399159977,229.8030197909975,230.59526004099465,230.5868795409988,230.58762412499345,230.59526004099465,230.59526004099465,230.59526004099465,,232.4379844579962,,,,,,,,,,,,,,,,,,,,,,,,,,,,,,right,0.0,1.8374554570036707,,,,,,sub-040,1,random_dot,,
left,left,44.0,0.0,22.0,right,0.0,1.300295000000915,,speed,space,2.7602404990029754,,,,,,0.0,0.0,0.0,1.0,22.0,0.0,44.0,0.0,232.44728066599785,,,,,,,,,232.4386361249999,232.536391499998,233.32830141599695,233.32009574999392,233.32065533299465,233.32830141599695,233.32830141599695,233.32830141599695,,234.6367512910001,,,,,,,,,,,,,,,,,,,,,,,,,,,,,,right,0.0,1.300295000000915,,,,,,sub-040,1,random_dot,,
right,right,45.0,1.0,22.0,right,1.0,1.792398207995575,,speed,space,2.7602404990029754,,,,,,0.0,0.0,0.0,1.0,22.0,1.0,45.0,1.0,234.6460949999964,,,,,,,,,234.6374286249993,235.82614037500025,236.61817949999383,236.60938220800017,236.60982087499724,236.61817949999383,236.61817949999383,236.61817949999383,,238.42128812499868,,,,,,,,,,,,,,,,,,,,,,,,,,,,,,right,1.0,1.792398207995575,,,,,,sub-040,1,random_dot,,
right,right,46.0,0.0,23.0,right,1.0,1.801974791000248,,speed,space,2.7602404990029754,,,,,,0.0,0.0,0.0,1.0,23.0,0.0,46.0,1.0,238.4306348329992,,,,,,,,,238.42195704099868,238.5197007909956,239.31160216599528,239.3034137499999,239.3041553749936,239.31160216599528,239.31160216599528,239.31160216599528,,241.1199942079984,,,,,,,,,,,,,,,,,,,,,,,,,,,,,,right,1.0,1.801974791000248,,,,,,sub-040,1,random_dot,,
left,left,47.0,1.0,23.0,left,1.0,0.8920520410028985,,speed,space,2.7602404990029754,,,,,,0.0,0.0,0.0,1.0,23.0,1.0,47.0,0.0,241.12922949999484,,,,,,,,,241.12064095799724,241.2086568329978,242.0014358329936,241.99278345799397,241.99331079099647,242.0014358329936,242.0014358329936,242.0014358329936,,242.9033478329948,,,,,,,,,,,,,,,,,,,,,,,,,,,,,,left,1.0,0.8920520410028985,,,,,,sub-040,1,random_dot,,
right,right,48.0,0.0,24.0,right,1.0,0.752726498998527,,speed,space,2.7602404990029754,,,,,,0.0,0.0,0.0,1.0,24.0,0.0,48.0,1.0,242.912576540999,,,,,,,,,242.90404604099604,243.24259729099867,244.03472024999792,244.02589383299343,244.02642341599855,244.03472024999792,244.03472024999792,244.03472024999792,,244.7931586659979,,,,,,,,,,,,,,,,,,,,,,,,,,,,,,right,1.0,0.752726498998527,,,,,,sub-040,1,random_dot,,
left,left,49.0,1.0,24.0,left,1.0,0.6506681659957394,,speed,space,2.7602404990029754,,,,,,0.0,0.0,0.0,1.0,24.0,1.0,49.0,0.0,244.8020563329992,,,,,,,,,244.7936423329957,245.592763749999,246.38469295799587,246.3760773749964,246.3766107909978,246.38469295799587,246.38469295799587,246.38469295799587,,247.0441589159964,,,,,,,,,,,,,,,,,,,,,,,,,,,,,,left,1.0,0.6506681659957394,,,,,,sub-040,1,random_dot,,
left,left,50.0,0.0,25.0,right,0.0,0.7895657070039306,,speed,space,2.7602404990029754,,,,,,0.0,0.0,0.0,1.0,25.0,0.0,50.0,0.0,247.07003304099635,,,,,,,,,247.044631124998,247.8427654579937,248.6347691659976,248.6261952079949,248.6266690409975,248.6347691659976,248.6347691659976,248.6347691659976,,249.4275437079996,,,,,,,,,,,,,,,,,,,,,,,,,,,,,,right,0.0,0.7895657070039306,,,,,,sub-040,1,random_dot,,
right,right,51.0,1.0,25.0,right,1.0,0.8081227079965174,,speed,space,2.7602404990029754,,,,,,0.0,0.0,0.0,1.0,25.0,1.0,51.0,1.0,249.4531278750001,,,,,,,,,249.42803058299612,249.5260240829957,250.31918491599936,250.31050070799392,250.3109460409978,250.31918491599936,250.31918491599936,250.31918491599936,,251.137771624999,,,,,,,,,,,,,,,,,,,,,,,,,,,,,,right,1.0,0.8081227079965174,,,,,,sub-040,1,random_dot,,
left,left,52.0,0.0,26.0,right,0.0,0.8467781660001492,,speed,space,2.7602404990029754,,,,,,0.0,0.0,0.0,1.0,26.0,0.0,52.0,0.0,251.14671262499903,,,,,,,,,251.1383008749981,251.2364202079989,252.02748116599832,252.0200607499937,252.0206102499942,252.02748116599832,252.02748116599832,252.02748116599832,,252.87657858299644,,,,,,,,,,,,,,,,,,,,,,,,,,,,,,right,0.0,0.8467781660001492,,,,,,sub-040,1,random_dot,,
right,right,53.0,1.0,26.0,left,0.0,0.8090671660029329,,speed,space,2.7602404990029754,,,,,,0.0,0.0,0.0,1.0,26.0,1.0,53.0,1.0,252.8850623749968,,,,,,,,,252.8770372910003,252.97473912499845,253.76801362499828,253.75935408299847,253.75990620799712,253.76801362499828,253.76801362499828,253.76801362499828,,254.58675433299504,,,,,,,,,,,,,,,,,,,,,,,,,,,,,,left,0.0,0.8090671660029329,,,,,,sub-040,1,random_dot,,
right,right,54.0,0.0,27.0,right,1.0,0.9221462489949772,,speed,space,2.7602404990029754,,,,,,0.0,0.0,0.0,1.0,27.0,0.0,54.0,1.0,254.59552712499865,,,,,,,,,254.5873009999996,254.9261801659959,255.7180326659945,255.70952945799945,255.7100626659958,255.7180326659945,255.7180326659945,255.7180326659945,,256.64293708299374,,,,,,,,,,,,,,,,,,,,,,,,,,,,,,right,1.0,0.9221462489949772,,,,,,sub-040,1,random_dot,,
left,left,55.0,1.0,27.0,right,0.0,0.9846299159980844,,speed,space,2.7602404990029754,,,,,,0.0,0.0,0.0,1.0,27.0,1.0,55.0,0.0,256.65154687500035,,,,,,,,,256.6434057909937,256.9921344159957,257.7854228750002,257.775663249995,257.7761045829975,257.7854228750002,257.7854228750002,257.7854228750002,,258.77834004099714,,,,,,,,,,,,,,,,,,,,,,,,,,,,,,right,0.0,0.9846299159980844,,,,,,sub-040,1,random_dot,,
left,left,56.0,0.0,28.0,right,0.0,1.0278273320000153,,speed,space,2.7602404990029754,,,,,,0.0,0.0,0.0,1.0,28.0,0.0,56.0,0.0,258.78815983299864,,,,,,,,,258.7788523329946,259.5750082499944,260.3681702909962,260.35928749999584,260.3597554160005,260.3681702909962,260.3681702909962,260.3681702909962,,261.40421329099627,,,,,,,,,,,,,,,,,,,,,,,,,,,,,,right,0.0,1.0278273320000153,,,,,,sub-040,1,random_dot,,
right,right,57.0,1.0,28.0,right,1.0,1.6199075410040678,,speed,space,2.7602404990029754,,,,,,0.0,0.0,0.0,1.0,28.0,1.0,57.0,1.0,261.41285916599736,,,,,,,,,261.4047158749963,262.2030544579975,262.9951434579998,262.9869032909992,262.9876254999981,262.9951434579998,262.9951434579998,262.9951434579998,,264.6211866249941,,,,,,,,,,,,,,,,,,,,,,,,,,,,,,right,1.0,1.6199075410040678,,,,,,sub-040,1,random_dot,,
left,left,58.0,0.0,29.0,left,1.0,0.5553942080005072,,speed,space,2.7602404990029754,,,,,,0.0,0.0,0.0,1.0,29.0,0.0,58.0,0.0,264.63027604099625,,,,,,,,,264.62185154100007,265.819826125,266.61243766599364,266.6037529999958,266.60446662499453,266.61243766599364,266.61243766599364,266.61243766599364,,267.16986666599405,,,,,,,,,,,,,,,,,,,,,,,,,,,,,,left,1.0,0.5553942080005072,,,,,,sub-040,1,random_dot,,
right,right,59.0,1.0,29.0,right,1.0,0.7914337070033071,,speed,space,2.7602404990029754,,,,,,0.0,0.0,0.0,1.0,29.0,1.0,59.0,1.0,267.17817391599965,,,,,,,,,267.1703534999979,267.50909270799457,268.30146237499866,268.2929016249982,268.2934412079994,268.30146237499866,268.30146237499866,268.30146237499866,,269.10374341599527,,,,,,,,,,,,,,,,,,,,,,,,,,,,,,right,1.0,0.7914337070033071,,,,,,sub-040,1,random_dot,,
,,0.0,0.0,0.0,,,,,speed,space,2.7602404990029754,,,,,,0.0,0.0,0.0,1.0,,,,,,,,,,,,,,,,,,,,,,,,,,,,,,,,,,,,,,,,,,,,,,,,,,,,,,,,,,,,,sub-040,1,random_dot,,
right,right,0.0,0.0,0.0,right,1.0,1.1645003329977044,,accuracy,space,6.005092874998809,,,,,,0.0,1.0,1.0,0.0,0.0,0.0,0.0,1.0,275.1564647499981,,,,,,,,,275.1486603749945,276.3365286249973,277.1290133329967,277.1204836659963,277.1210584999935,277.1290133329967,277.1290133329967,277.1290133329967,,278.29491970799427,,,,,,,,,,,,,,,,,,,,,,,269.1234767499991,269.1307166659972,269.1307166659972,275.13833779099514,space,6.005092874998809,,right,1.0,1.1645003329977044,,,,,,sub-040,1,random_dot,,
left,left,1.0,1.0,0.0,left,1.0,1.5547346659950565,,accuracy,space,6.005092874998809,,,,,,0.0,1.0,1.0,0.0,0.0,1.0,1.0,0.0,278.3015541659988,,,,,,,,,278.29536979099794,278.39232254099625,279.1848409999948,279.175849457999,279.17629308299365,279.1848409999948,279.1848409999948,279.1848409999948,,280.7451959999962,,,,,,,,,,,,,,,,,,,,,,,,,,,,,,left,1.0,1.5547346659950565,,,,,,sub-040,1,random_dot,,
left,left,2.0,0.0,1.0,right,0.0,1.508938083003159,,accuracy,space,6.005092874998809,,,,,,0.0,1.0,1.0,0.0,1.0,0.0,2.0,0.0,280.7547689999992,,,,,,,,,280.7456791660006,280.8431255830001,281.6445828329961,281.6368381659995,281.637391915996,281.6445828329961,281.6445828329961,281.6445828329961,,283.15961362499365,,,,,,,,,,,,,,,,,,,,,,,,,,,,,,right,0.0,1.508938083003159,,,,,,sub-040,1,random_dot,,
right,right,3.0,1.0,1.0,right,1.0,1.6310242070030654,,accuracy,space,6.005092874998809,,,,,,0.0,1.0,1.0,0.0,1.0,1.0,3.0,1.0,283.1683815829965,,,,,,,,,283.160086332995,283.509380083,284.30139016599423,284.29271824999887,284.2932386659959,284.30139016599423,284.30139016599423,284.30139016599423,,285.9363234579941,,,,,,,,,,,,,,,,,,,,,,,,,,,,,,right,1.0,1.6310242070030654,,,,,,sub-040,1,random_dot,,
right,right,4.0,0.0,2.0,right,1.0,1.2803019159982796,,accuracy,space,6.005092874998809,,,,,,0.0,1.0,1.0,0.0,2.0,0.0,4.0,1.0,285.94518341599905,,,,,,,,,285.9367859999984,286.72592091599654,287.51815004099626,287.5094967499972,287.510063457994,287.51815004099626,287.51815004099626,287.51815004099626,,288.8046554159955,,,,,,,,,,,,,,,,,,,,,,,,,,,,,,right,1.0,1.2803019159982796,,,,,,sub-040,1,random_dot,,
left,left,5.0,1.0,2.0,right,0.0,1.2903333330032185,,accuracy,space,6.005092874998809,,,,,,0.0,1.0,1.0,0.0,2.0,1.0,5.0,0.0,288.8139611249935,,,,,,,,,288.80532783299714,288.903049499997,289.6950358329996,289.6866729999965,289.68742008299887,289.6950358329996,289.6950358329996,289.6950358329996,,290.9875917909958,,,,,,,,,,,,,,,,,,,,,,,,,,,,,,right,0.0,1.2903333330032185,,,,,,sub-040,1,random_dot,,
left,left,6.0,0.0,3.0,left,1.0,1.3253535830008332,,accuracy,space,6.005092874998809,,,,,,0.0,1.0,1.0,0.0,3.0,0.0,6.0,0.0,290.9966429999986,,,,,,,,,290.98810987499746,291.0864560409973,291.8783855000001,291.8700197500002,291.87073854099435,291.8783855000001,291.8783855000001,291.8783855000001,,293.2116807909988,,,,,,,,,,,,,,,,,,,,,,,,,,,,,,left,1.0,1.3253535830008332,,,,,,sub-040,1,random_dot,,
right,right,7.0,1.0,3.0,right,1.0,1.2163677490025293,,accuracy,space,6.005092874998809,,,,,,0.0,1.0,1.0,0.0,3.0,1.0,7.0,1.0,293.2214599999934,,,,,,,,,293.2121670829947,294.4095224999983,295.2017557910003,295.1925307499987,295.1929658329973,295.2017557910003,295.2017557910003,295.2017557910003,,296.4210154159955,,,,,,,,,,,,,,,,,,,,,,,,,,,,,,right,1.0,1.2163677490025293,,,,,,sub-040,1,random_dot,,
right,right,8.0,0.0,4.0,right,1.0,1.213746916000673,,accuracy,space,6.005092874998809,,,,,,0.0,1.0,1.0,0.0,4.0,0.0,8.0,1.0,296.4301744999975,,,,,,,,,296.42169224999816,297.21978091599885,298.011488665994,298.0034071659975,298.00407574999554,298.011488665994,298.011488665994,298.011488665994,,299.22831641599623,,,,,,,,,,,,,,,,,,,,,,,,,,,,,,right,1.0,1.213746916000673,,,,,,sub-040,1,random_dot,,
left,left,9.0,1.0,4.0,right,0.0,1.847050708005554,,accuracy,space,6.005092874998809,,,,,,0.0,1.0,1.0,0.0,4.0,1.0,9.0,0.0,299.2380905829996,,,,,,,,,299.22879641599866,299.575490999996,300.3680672079936,300.359271207999,300.3597486660001,300.3680672079936,300.3680672079936,300.3680672079936,,302.2196953329985,,,,,,,,,,,,,,,,,,,,,,,,,,,,,,right,0.0,1.847050708005554,,,,,,sub-040,1,random_dot,,
right,right,10.0,0.0,5.0,left,0.0,2.0715888740014634,,accuracy,space,6.005092874998809,,,,,,0.0,1.0,1.0,0.0,5.0,0.0,10.0,1.0,302.2283472909985,,,,,,,,,302.2201741659956,302.55836862499564,303.351410999996,303.3425417499966,303.3429798329962,303.351410999996,303.351410999996,303.351410999996,,305.4275941659944,,,,,,,,,,,,,,,,,,,,,,,,,,,,,,left,0.0,2.0715888740014634,,,,,,sub-040,1,random_dot,,
left,left,11.0,1.0,5.0,right,0.0,1.9128352489933604,,accuracy,space,6.005092874998809,,,,,,0.0,1.0,1.0,0.0,5.0,1.0,11.0,0.0,305.4362020409972,,,,,,,,,305.4280646249972,305.77570637499593,306.5681449159965,306.55920654099464,306.5596502909975,306.5681449159965,306.5681449159965,306.5681449159965,,308.4863688330006,,,,,,,,,,,,,,,,,,,,,,,,,,,,,,right,0.0,1.9128352489933604,,,,,,sub-040,1,random_dot,,
left,left,12.0,0.0,6.0,right,0.0,1.4213269159954507,,accuracy,space,6.005092874998809,,,,,,0.0,1.0,1.0,0.0,6.0,0.0,12.0,0.0,308.49497358299413,,,,,,,,,308.4868387079987,309.2751096659995,310.06956491599703,310.0581802499946,310.05860816600034,310.06956491599703,310.06956491599703,310.06956491599703,,311.4950090409984,,,,,,,,,,,,,,,,,,,,,,,,,,,,,,right,0.0,1.4213269159954507,,,,,,sub-040,1,random_dot,,
right,right,13.0,1.0,6.0,left,0.0,1.205148665998422,,accuracy,space,6.005092874998809,,,,,,0.0,1.0,1.0,0.0,6.0,1.0,13.0,1.0,311.5048237909941,,,,,,,,,311.49549199999456,311.5927052909974,312.3847182499958,312.3759864159947,312.37640508299955,312.3847182499958,312.3847182499958,312.3847182499958,,313.5928626659952,,,,,,,,,,,,,,,,,,,,,,,,,,,,,,left,0.0,1.205148665998422,,,,,,sub-040,1,random_dot,,
left,left,14.0,0.0,7.0,left,1.0,1.6810087069970905,,accuracy,space,6.005092874998809,,,,,,0.0,1.0,1.0,0.0,7.0,0.0,14.0,0.0,313.6016343749943,,,,,,,,,313.5933298749951,314.79263879099744,315.58471233299497,315.5759830409952,315.576524665994,315.58471233299497,315.58471233299497,315.58471233299497,,317.27096058299503,,,,,,,,,,,,,,,,,,,,,,,,,,,,,,left,1.0,1.6810087069970905,,,,,,sub-040,1,random_dot,,
right,right,15.0,1.0,7.0,right,1.0,1.5330686239976783,,accuracy,space,6.005092874998809,,,,,,0.0,1.0,1.0,0.0,7.0,1.0,15.0,1.0,317.2800176249948,,,,,,,,,317.2716029160001,317.6196457909973,318.4115181659945,318.4035846249972,318.40427991599427,318.4115181659945,318.4115181659945,318.4115181659945,,319.95335274999525,,,,,,,,,,,,,,,,,,,,,,,,,,,,,,right,1.0,1.5330686239976783,,,,,,sub-040,1,random_dot,,
left,left,16.0,0.0,8.0,left,1.0,1.2697283329980564,,accuracy,space,6.005092874998809,,,,,,0.0,1.0,1.0,0.0,8.0,0.0,16.0,0.0,319.96241741599806,,,,,,,,,319.9539667909994,320.0430782909971,320.83494179099944,320.82580779099953,320.82625037499383,320.83494179099944,320.83494179099944,320.83494179099944,,322.11170262499945,,,,,,,,,,,,,,,,,,,,,,,,,,,,,,left,1.0,1.2697283329980564,,,,,,sub-040,1,random_dot,,
right,right,17.0,1.0,8.0,right,1.0,1.1181474570039427,,accuracy,space,6.005092874998809,,,,,,0.0,1.0,1.0,0.0,8.0,1.0,17.0,1.0,322.12138379099633,,,,,,,,,322.1121680829965,322.90950541599886,323.70142483299423,323.6930507500001,323.6934894160004,323.70142483299423,323.70142483299423,323.70142483299423,,324.82728012499865,,,,,,,,,,,,,,,,,,,,,,,,,,,,,,right,1.0,1.1181474570039427,,,,,,sub-040,1,random_dot,,
left,left,18.0,0.0,9.0,right,0.0,1.4833533329947386,,accuracy,space,6.005092874998809,,,,,,0.0,1.0,1.0,0.0,9.0,0.0,18.0,0.0,324.83601854099834,,,,,,,,,324.8277429999944,325.17530599999736,325.9681761659958,325.95928241599904,325.95971208300034,325.9681761659958,325.9681761659958,325.9681761659958,,327.45333983299497,,,,,,,,,,,,,,,,,,,,,,,,,,,,,,right,0.0,1.4833533329947386,,,,,,sub-040,1,random_dot,,
right,right,19.0,1.0,9.0,left,0.0,0.993795415997738,,accuracy,space,6.005092874998809,,,,,,0.0,1.0,1.0,0.0,9.0,1.0,19.0,1.0,327.458795999999,,,,,,,,,327.453811374995,328.64275649999763,329.43471949999366,329.42614504099765,329.42660266599705,329.43471949999366,329.43471949999366,329.43471949999366,,330.4380431659956,,,,,,,,,,,,,,,,,,,,,,,,,,,,,,left,0.0,0.993795415997738,,,,,,sub-040,1,random_dot,,
right,right,20.0,0.0,10.0,right,1.0,0.9200507909990848,,accuracy,space,6.005092874998809,,,,,,0.0,1.0,1.0,0.0,10.0,0.0,20.0,1.0,330.44746404099715,,,,,,,,,330.4387304999982,331.63643474999844,332.4284025829984,332.4201220409959,332.42082379099884,332.4284025829984,332.4284025829984,332.4284025829984,,333.3544049579941,,,,,,,,,,,,,,,,,,,,,,,,,,,,,,right,1.0,0.9200507909990848,,,,,,sub-040,1,random_dot,,
left,left,21.0,1.0,10.0,left,1.0,1.3545865409978433,,accuracy,space,6.005092874998809,,,,,,0.0,1.0,1.0,0.0,10.0,1.0,21.0,0.0,333.363675624998,,,,,,,,,333.3549542499968,333.7030308749964,334.495777665994,334.4868864999953,334.4876363749936,334.495777665994,334.495777665994,334.495777665994,,335.8543913329995,,,,,,,,,,,,,,,,,,,,,,,,,,,,,,left,1.0,1.3545865409978433,,,,,,sub-040,1,random_dot,,
left,left,22.0,0.0,11.0,right,0.0,1.1582879990019137,,accuracy,space,6.005092874998809,,,,,,0.0,1.0,1.0,0.0,11.0,0.0,22.0,0.0,335.8640337079996,,,,,,,,,335.8550864159988,335.9531462909945,336.7459517909956,336.7370016249988,336.73775412499526,336.7459517909956,336.7459517909956,336.7459517909956,,337.9114797910006,,,,,,,,,,,,,,,,,,,,,,,,,,,,,,right,0.0,1.1582879990019137,,,,,,sub-040,1,random_dot,,
right,right,23.0,1.0,11.0,right,1.0,0.8263793739970424,,accuracy,space,6.005092874998809,,,,,,0.0,1.0,1.0,0.0,11.0,1.0,23.0,1.0,337.92158149999887,,,,,,,,,337.91203395799675,338.7093957909965,339.5107331249965,339.50326949999726,339.50391266599763,339.5107331249965,339.5107331249965,339.5107331249965,,340.3455501659992,,,,,,,,,,,,,,,,,,,,,,,,,,,,,,right,1.0,0.8263793739970424,,,,,,sub-040,1,random_dot,,
left,left,24.0,0.0,12.0,right,0.0,1.11729904099775,,accuracy,space,6.005092874998809,,,,,,0.0,1.0,1.0,0.0,12.0,0.0,24.0,0.0,340.355168874994,,,,,,,,,340.3460265829999,341.1418991249957,341.9348415409986,341.92593787499936,341.9263765409996,341.9348415409986,341.9348415409986,341.9348415409986,,343.0545710829974,,,,,,,,,,,,,,,,,,,,,,,,,,,,,,right,0.0,1.11729904099775,,,,,,sub-040,1,random_dot,,
right,right,25.0,1.0,12.0,right,1.0,1.131628916002228,,accuracy,space,6.005092874998809,,,,,,0.0,1.0,1.0,0.0,12.0,1.0,25.0,1.0,343.0634450409998,,,,,,,,,343.05519733300025,344.25318491600046,345.0453778749943,345.0366135000004,345.0371571249998,345.0453778749943,345.0453778749943,345.0453778749943,,346.186193249996,,,,,,,,,,,,,,,,,,,,,,,,,,,,,,right,1.0,1.131628916002228,,,,,,sub-040,1,random_dot,,
left,left,26.0,0.0,13.0,left,1.0,1.3137709160000668,,accuracy,space,6.005092874998809,,,,,,0.0,1.0,1.0,0.0,13.0,0.0,26.0,0.0,346.1949717909956,,,,,,,,,346.1866660829983,346.9760326249961,347.77830487499887,347.77031104100024,347.7710014579934,347.77830487499887,347.77830487499887,347.77830487499887,,349.09373208299803,,,,,,,,,,,,,,,,,,,,,,,,,,,,,,left,1.0,1.3137709160000668,,,,,,sub-040,1,random_dot,,
right,right,27.0,1.0,13.0,left,0.0,1.584167790999345,,accuracy,space,6.005092874998809,,,,,,0.0,1.0,1.0,0.0,13.0,1.0,27.0,1.0,349.10247404099937,,,,,,,,,349.0941948330001,349.1928552909958,349.9846983749958,349.97597262499767,349.97649891599576,349.9846983749958,349.9846983749958,349.9846983749958,,351.57757583299826,,,,,,,,,,,,,,,,,,,,,,,,,,,,,,left,0.0,1.584167790999345,,,,,,sub-040,1,random_dot,,
right,right,28.0,0.0,14.0,left,0.0,1.21173074899707,,accuracy,space,6.005092874998809,,,,,,0.0,1.0,1.0,0.0,14.0,0.0,28.0,1.0,351.6028082499979,,,,,,,,,351.5780534579972,351.6760077079962,352.4681706249976,352.45935433299746,352.459796790994,352.4681706249976,352.4681706249976,352.4681706249976,,353.6870077499989,,,,,,,,,,,,,,,,,,,,,,,,,,,,,,left,0.0,1.21173074899707,,,,,,sub-040,1,random_dot,,
left,left,29.0,1.0,14.0,right,0.0,1.4236894570058212,,accuracy,space,6.005092874998809,,,,,,0.0,1.0,1.0,0.0,14.0,1.0,29.0,0.0,353.69616762499936,,,,,,,,,353.6876520000005,354.02593183299905,354.81815729099617,354.8092037079987,354.8096535000004,354.81815729099617,354.81815729099617,354.81815729099617,,356.2449780409952,,,,,,,,,,,,,,,,,,,,,,,,,,,,,,right,0.0,1.4236894570058212,,,,,,sub-040,1,random_dot,,
right,right,30.0,0.0,15.0,left,0.0,1.589576375001343,,accuracy,space,6.005092874998809,,,,,,0.0,1.0,1.0,0.0,15.0,0.0,30.0,1.0,356.2547405410005,,,,,,,,,356.2454573750001,357.04288899999665,357.845174874994,357.8368609159952,357.8375994159942,357.845174874994,357.845174874994,357.845174874994,,359.43681133299833,,,,,,,,,,,,,,,,,,,,,,,,,,,,,,left,0.0,1.589576375001343,,,,,,sub-040,1,random_dot,,
left,left,31.0,1.0,15.0,right,0.0,1.1396367079942138,,accuracy,space,6.005092874998809,,,,,,0.0,1.0,1.0,0.0,15.0,1.0,31.0,0.0,359.44247691599594,,,,,,,,,359.4374337499976,359.52638674999616,360.3181267909968,360.3097378329985,360.3102593329968,360.3181267909968,360.3181267909968,360.3181267909968,,361.4600559579994,,,,,,,,,,,,,,,,,,,,,,,,,,,,,,right,0.0,1.1396367079942138,,,,,,sub-040,1,random_dot,,
right,right,32.0,0.0,16.0,right,1.0,1.153214249003213,,accuracy,space,6.005092874998809,,,,,,0.0,1.0,1.0,0.0,16.0,0.0,32.0,1.0,361.46891958299966,,,,,,,,,361.4605424999973,362.6591147910003,363.45145833299466,363.4426660409954,363.4431300829965,363.45145833299466,363.45145833299466,363.45145833299466,,364.6107264579987,,,,,,,,,,,,,,,,,,,,,,,,,,,,,,right,1.0,1.153214249003213,,,,,,sub-040,1,random_dot,,
left,left,33.0,1.0,16.0,left,1.0,1.5360546660012917,,accuracy,space,6.005092874998809,,,,,,0.0,1.0,1.0,0.0,16.0,1.0,33.0,0.0,364.6362483749981,,,,,,,,,364.6112221660005,365.8094257909979,366.6015094579998,366.5925162079948,366.5929443329951,366.6015094579998,366.6015094579998,366.6015094579998,,368.14487020799424,,,,,,,,,,,,,,,,,,,,,,,,,,,,,,left,1.0,1.5360546660012917,,,,,,sub-040,1,random_dot,,
right,right,34.0,0.0,17.0,right,1.0,1.4136728740049875,,accuracy,space,6.005092874998809,,,,,,0.0,1.0,1.0,0.0,17.0,0.0,34.0,1.0,368.1546380829968,,,,,,,,,368.1453851249971,368.49279237500014,369.284760124996,369.2760620409972,369.2765845409958,369.284760124996,369.284760124996,369.284760124996,,370.7031355829968,,,,,,,,,,,,,,,,,,,,,,,,,,,,,,right,1.0,1.4136728740049875,,,,,,sub-040,1,random_dot,,
left,left,35.0,1.0,17.0,left,1.0,1.6790639580067364,,accuracy,space,6.005092874998809,,,,,,0.0,1.0,1.0,0.0,17.0,1.0,35.0,0.0,370.7120059579975,,,,,,,,,370.7036360409984,371.8927300829964,372.6853499159988,372.6754969159956,372.6759718329995,372.6853499159988,372.6853499159988,372.6853499159988,,374.3711191249968,,,,,,,,,,,,,,,,,,,,,,,,,,,,,,left,1.0,1.6790639580067364,,,,,,sub-040,1,random_dot,,
right,right,36.0,0.0,18.0,right,1.0,1.6075185829977272,,accuracy,space,6.005092874998809,,,,,,0.0,1.0,1.0,0.0,18.0,0.0,36.0,1.0,374.3803482499934,,,,,,,,,374.3717997499989,375.5698566249994,376.3606803749936,376.3531796249954,376.35376320799696,376.3606803749936,376.3606803749936,376.3606803749936,,377.9700532499992,,,,,,,,,,,,,,,,,,,,,,,,,,,,,,right,1.0,1.6075185829977272,,,,,,sub-040,1,random_dot,,
left,left,37.0,1.0,18.0,right,0.0,1.6118189580010949,,accuracy,space,6.005092874998809,,,,,,0.0,1.0,1.0,0.0,18.0,1.0,37.0,0.0,377.9756867079996,,,,,,,,,377.97067479099496,379.1594599159944,379.9514794999996,379.9427300409952,379.9431728749987,379.9514794999996,379.9514794999996,379.9514794999996,,381.5697067500005,,,,,,,,,,,,,,,,,,,,,,,,,,,,,,right,0.0,1.6118189580010949,,,,,,sub-040,1,random_dot,,
right,right,38.0,0.0,19.0,right,1.0,0.9405555410048692,,accuracy,space,6.005092874998809,,,,,,0.0,1.0,1.0,0.0,19.0,0.0,38.0,1.0,381.5785643329946,,,,,,,,,381.5702004579944,382.7593869159973,383.5516008749983,383.54264775000047,383.543094875,383.5516008749983,383.5516008749983,383.5516008749983,,384.49481466599536,,,,,,,,,,,,,,,,,,,,,,,,,,,,,,right,1.0,0.9405555410048692,,,,,,sub-040,1,random_dot,,
left,left,39.0,1.0,19.0,left,1.0,1.0841584999943734,,accuracy,space,6.005092874998809,,,,,,0.0,1.0,1.0,0.0,19.0,1.0,39.0,0.0,384.5045788329953,,,,,,,,,384.495283874996,384.8407177499976,385.63485558299726,385.62710945800063,385.6275485410006,385.63485558299726,385.63485558299726,385.63485558299726,,386.7208421249961,,,,,,,,,,,,,,,,,,,,,,,,,,,,,,left,1.0,1.0841584999943734,,,,,,sub-040,1,random_dot,,
left,left,40.0,0.0,20.0,right,0.0,1.8373110409957008,,accuracy,space,6.005092874998809,,,,,,0.0,1.0,1.0,0.0,20.0,0.0,40.0,0.0,386.72976691599615,,,,,,,,,386.7213522909951,387.068778832996,387.8617554579978,387.85351191600057,387.8542329159973,387.8617554579978,387.8617554579978,387.8617554579978,,389.7036675409981,,,,,,,,,,,,,,,,,,,,,,,,,,,,,,right,0.0,1.8373110409957008,,,,,,sub-040,1,random_dot,,
right,right,41.0,1.0,20.0,right,1.0,2.0482217489989125,,accuracy,space,6.005092874998809,,,,,,0.0,1.0,1.0,0.0,20.0,1.0,41.0,1.0,389.7130118329951,,,,,,,,,389.7042298749948,389.7926500829999,390.58475891599664,390.5762013749991,390.5766334159998,390.58475891599664,390.58475891599664,390.58475891599664,,392.6378315829934,,,,,,,,,,,,,,,,,,,,,,,,,,,,,,right,1.0,2.0482217489989125,,,,,,sub-040,1,random_dot,,
left,left,42.0,0.0,21.0,right,0.0,2.4360546659954707,,accuracy,space,6.005092874998809,,,,,,0.0,1.0,1.0,0.0,21.0,0.0,42.0,0.0,392.6475529999952,,,,,,,,,392.6385154579984,392.9863477909967,393.7778613749979,393.7700483329973,393.770595957998,393.7778613749979,393.7778613749979,393.7778613749979,,396.2213494579992,,,,,,,,,,,,,,,,,,,,,,,,,,,,,,right,0.0,2.4360546659954707,,,,,,sub-040,1,random_dot,,
right,right,43.0,1.0,21.0,right,1.0,1.9671725830048672,,accuracy,space,6.005092874998809,,,,,,0.0,1.0,1.0,0.0,21.0,1.0,43.0,1.0,396.2309020829998,,,,,,,,,396.2220094999939,396.56961883299664,397.3616156659991,397.3534802079957,397.3541879579934,397.3616156659991,397.3616156659991,397.3616156659991,,399.33725933299866,,,,,,,,,,,,,,,,,,,,,,,,,,,,,,right,1.0,1.9671725830048672,,,,,,sub-040,1,random_dot,,
right,right,44.0,0.0,22.0,left,0.0,1.666811165996478,,accuracy,space,6.005092874998809,,,,,,0.0,1.0,1.0,0.0,22.0,0.0,44.0,1.0,399.347110374998,,,,,,,,,399.3380970409999,399.4259845409979,400.2180219579968,400.2095567500001,400.2100802079949,400.2180219579968,400.2180219579968,400.2180219579968,,401.8877546250005,,,,,,,,,,,,,,,,,,,,,,,,,,,,,,left,0.0,1.666811165996478,,,,,,sub-040,1,random_dot,,
left,left,45.0,1.0,22.0,left,1.0,2.4411380820019986,,accuracy,space,6.005092874998809,,,,,,0.0,1.0,1.0,0.0,22.0,1.0,45.0,0.0,401.8969904579935,,,,,,,,,401.8884764999966,401.98641879099887,402.778556499994,402.77025850000064,402.77098229099647,402.778556499994,402.778556499994,402.778556499994,,405.2264028749996,,,,,,,,,,,,,,,,,,,,,,,,,,,,,,left,1.0,2.4411380820019986,,,,,,sub-040,1,random_dot,,
right,right,46.0,0.0,23.0,right,1.0,2.3075973329978297,,accuracy,space,6.005092874998809,,,,,,0.0,1.0,1.0,0.0,23.0,0.0,46.0,1.0,405.2355576249975,,,,,,,,,405.22689745800017,406.42655537499377,407.21805745799793,407.2096252909978,407.21006941599626,407.21805745799793,407.21805745799793,407.21805745799793,,409.5282409159991,,,,,,,,,,,,,,,,,,,,,,,,,,,,,,right,1.0,2.3075973329978297,,,,,,sub-040,1,random_dot,,
left,left,47.0,1.0,23.0,left,1.0,2.567809958003636,,accuracy,space,6.005092874998809,,,,,,0.0,1.0,1.0,0.0,23.0,1.0,47.0,0.0,409.53817374999926,,,,,,,,,409.5287102910006,410.7259490829965,411.5181322079952,411.50924349999696,411.5096885829989,411.5181322079952,411.5181322079952,411.5181322079952,,414.08781379099673,,,,,,,,,,,,,,,,,,,,,,,,,,,,,,left,1.0,2.567809958003636,,,,,,sub-040,1,random_dot,,
right,right,48.0,0.0,24.0,right,1.0,2.400403332001588,,accuracy,space,6.005092874998809,,,,,,0.0,1.0,1.0,0.0,24.0,0.0,48.0,1.0,414.09353270800057,,,,,,,,,414.0884657499992,414.8864354580001,415.6791243329935,415.6703781249962,415.6710974579983,415.6791243329935,415.6791243329935,415.6791243329935,,418.0869229999953,,,,,,,,,,,,,,,,,,,,,,,,,,,,,,right,1.0,2.400403332001588,,,,,,sub-040,1,random_dot,,
left,left,49.0,1.0,24.0,right,0.0,2.7644452910026303,,accuracy,space,6.005092874998809,,,,,,0.0,1.0,1.0,0.0,24.0,1.0,49.0,0.0,418.09598429099424,,,,,,,,,418.0874789579975,418.1758847079982,418.9689264999979,418.95944412499375,418.95993499999895,418.9689264999979,418.9689264999979,418.9689264999979,,421.7362819579939,,,,,,,,,,,,,,,,,,,,,,,,,,,,,,right,0.0,2.7644452910026303,,,,,,sub-040,1,random_dot,,
left,left,50.0,0.0,25.0,right,0.0,1.8732751249990545,,accuracy,space,6.005092874998809,,,,,,0.0,1.0,1.0,0.0,25.0,0.0,50.0,0.0,421.7454996249944,,,,,,,,,421.73682837499655,422.5261024579959,423.3180394999945,423.3093911659962,423.3098420829992,423.3180394999945,423.3180394999945,423.3180394999945,,425.193170874998,,,,,,,,,,,,,,,,,,,,,,,,,,,,,,right,0.0,1.8732751249990545,,,,,,sub-040,1,random_dot,,
right,right,51.0,1.0,25.0,left,0.0,2.471395581997058,,accuracy,space,6.005092874998809,,,,,,0.0,1.0,1.0,0.0,25.0,1.0,51.0,1.0,425.2029220829936,,,,,,,,,425.1936373329954,425.5427854999944,426.3348104159959,426.32625795799686,426.3267179579998,426.3348104159959,426.3348104159959,426.3348104159959,,428.8106517499982,,,,,,,,,,,,,,,,,,,,,,,,,,,,,,left,0.0,2.471395581997058,,,,,,sub-040,1,random_dot,,
right,right,52.0,0.0,26.0,right,1.0,1.5850556250006775,,accuracy,space,6.005092874998809,,,,,,0.0,1.0,1.0,0.0,26.0,0.0,52.0,1.0,428.81937045799714,,,,,,,,,428.81112399999984,429.6089427080005,430.40200012499554,430.3922494159997,430.3926774159991,430.40200012499554,430.40200012499554,430.40200012499554,,431.99270141599845,,,,,,,,,,,,,,,,,,,,,,,,,,,,,,right,1.0,1.5850556250006775,,,,,,sub-040,1,random_dot,,
left,left,53.0,1.0,26.0,left,1.0,2.07623591599986,,accuracy,space,6.005092874998809,,,,,,0.0,1.0,1.0,0.0,26.0,1.0,53.0,0.0,432.0015869999989,,,,,,,,,431.9932192499982,432.0932557079941,432.8847244999997,432.8761044159983,432.8766380409943,432.8847244999997,432.8847244999997,432.8847244999997,,434.9695674159957,,,,,,,,,,,,,,,,,,,,,,,,,,,,,,left,1.0,2.07623591599986,,,,,,sub-040,1,random_dot,,
right,right,54.0,0.0,27.0,right,1.0,2.569665457995143,,accuracy,space,6.005092874998809,,,,,,0.0,1.0,1.0,0.0,27.0,0.0,54.0,1.0,434.9785434160003,,,,,,,,,434.97010279099777,435.759319290999,436.5513459579961,436.5429010829976,436.5433374579952,436.5513459579961,436.5513459579961,436.5513459579961,,439.12678558299376,,,,,,,,,,,,,,,,,,,,,,,,,,,,,,right,1.0,2.569665457995143,,,,,,sub-040,1,random_dot,,
left,left,55.0,1.0,27.0,right,0.0,2.146631665993482,,accuracy,space,6.005092874998809,,,,,,0.0,1.0,1.0,0.0,27.0,1.0,55.0,0.0,439.1356743750002,,,,,,,,,439.1272625829952,440.3256962909945,441.1183004999984,441.1091368329944,441.10957849999977,441.1183004999984,441.1183004999984,441.1183004999984,,443.2700172909972,,,,,,,,,,,,,,,,,,,,,,,,,,,,,,right,0.0,2.146631665993482,,,,,,sub-040,1,random_dot,,
right,right,56.0,0.0,28.0,right,1.0,3.290223290998256,,accuracy,space,6.005092874998809,,,,,,0.0,1.0,1.0,0.0,28.0,0.0,56.0,1.0,443.27949649999937,,,,,,,,,443.2706645409999,443.3593122909952,444.15151612499903,444.1424728749989,444.1429059999937,444.15151612499903,444.15151612499903,444.15151612499903,,447.4442921249938,,,,,,,,,,,,,,,,,,,,,,,,,,,,,,right,1.0,3.290223290998256,,,,,,sub-040,1,random_dot,,
left,left,57.0,1.0,28.0,left,1.0,1.6801535409977078,,accuracy,space,6.005092874998809,,,,,,0.0,1.0,1.0,0.0,28.0,1.0,57.0,0.0,447.4549111659944,,,,,,,,,447.4447668329958,447.7929265409985,448.58478987499984,448.5762663329952,448.5768014999994,448.58478987499984,448.58478987499984,448.58478987499984,,450.2707031249956,,,,,,,,,,,,,,,,,,,,,,,,,,,,,,left,1.0,1.6801535409977078,,,,,,sub-040,1,random_dot,,
left,left,58.0,0.0,29.0,left,1.0,1.7739487910002936,,accuracy,space,6.005092874998809,,,,,,0.0,1.0,1.0,0.0,29.0,0.0,58.0,0.0,450.2803198749971,,,,,,,,,450.2714897909973,450.3696734999976,451.1618709999966,451.1533587909944,451.1541067910002,451.1618709999966,451.1618709999966,451.1618709999966,,452.9433104999989,,,,,,,,,,,,,,,,,,,,,,,,,,,,,,left,1.0,1.7739487910002936,,,,,,sub-040,1,random_dot,,
right,right,59.0,1.0,29.0,right,1.0,3.241947000002256,,accuracy,space,6.005092874998809,,,,,,0.0,1.0,1.0,0.0,29.0,1.0,59.0,1.0,452.952337374998,,,,,,,,,452.9437939579948,453.0426387080006,453.834746374996,453.8259479999979,453.826394290998,453.834746374996,453.834746374996,453.834746374996,,457.0868168749949,,,,,,,,,,,,,,,,,,,,,,,,,,,,,,right,1.0,3.241947000002256,,,,,,sub-040,1,random_dot,,
,,1.0,1.0,0.0,,,,,accuracy,space,6.005092874998809,,,,,,0.0,1.0,1.0,0.0,,,,,,,,,,,,,,,,,,,,,,,,,,,,,,,,,,,,,,,,,,,,,,,,,,,,,,,,,,,,,sub-040,1,random_dot,,
,,,,,,,,,,,,,,,,,,,,,,,,,,,,,,,,,,,,,,,,,,,,,,,,,,,,,,,,,,,,,,,,,,,,,,,,,,,,,457.0936390409988,457.1028547079986,462.09051641599945,462.0866193749971,sub-040,1,random_dot,,
