direction,corrAns,randomInstr,practice_trials.thisRepN,practice_trials.thisTrialN,practice_trials.thisN,practice_trials.thisIndex,instr_trials.thisRepN,instr_trials.thisTrialN,instr_trials.thisN,instr_trials.thisIndex,test_trials.thisRepN,test_trials.thisTrialN,test_trials.thisN,test_trials.thisIndex,thisRow.t,notes,general_instruction.started,textGeneralInstr.started,respGeneralInstr.started,general_instruction.stopped,respGeneralInstr.keys,respGeneralInstr.rt,respGeneralInstr.duration,ITI.started,fixcross.started,fixcross.stopped,ITI.stopped,dots.started,backgroundDots.started,stimulusDots.started,respDots.started,dots.stopped,respDots.keys,respDots.corr,respDots.rt,respDots.duration,feedback.started,textFeedback.started,feedback.stopped,textFeedback.stopped,stimulusDots.stopped,info.started,textInfo.started,keyRespInfo.started,info.stopped,keyRespInfo.keys,keyRespInfo.rt,keyRespInfo.duration,test_instruction.started,textTestInstr.started,respTestInstr.started,test_instruction.stopped,respTestInstr.keys,respTestInstr.rt,respTestInstr.duration,random_instruction.started,textRandomInstr.started,respRandomInstr.started,random_instruction.stopped,respRandomInstr.keys,respRandomInstr.rt,respRandomInstr.duration,goodbye.started,textGoodbye.started,participant,session,expName,frameRate,Unnamed: 72
,,,,,,,,,,,,,,,,,0.0180529999997816,0.0229824000052758,0.0229824000052758,16.26581260000239,space,33.07133299999259,,,,,,,,,,,,,,,,,,,,,,,,,,,,,,,,,,,,,,,,,,,sub-107,1.0,random_dot,59.87518419121263,
left,left,,0.0,0.0,0.0,0.0,,,,,,,,,16.351657400002296,,,,,,,,,16.347789800005557,17.079175500002748,17.879323700006353,17.862666200002423,17.862690300004033,17.879323700006353,17.879323700006353,17.879323700006353,19.898666500004765,right,0.0,18.852633700000297,,19.9314755000014,19.954071800006204,20.443658300006064,,,,,,,,,,,,,,,,,,,,,,,,,,sub-107,1.0,random_dot,59.87518419121263,
right,right,,0.0,1.0,1.0,1.0,,,,,,,,,20.460262100001277,,,,,,,,,20.444320599999628,20.7932260000016,21.59372780000558,21.57766020000417,21.57769130000088,21.59372780000558,21.59372780000558,21.59372780000558,26.42554100000416,left,0.0,21.651916499991785,,26.426298700003827,26.439592700000503,26.92392170000676,26.939448200006154,,,,,,,,,,,,,,,,,,,,,,,,,sub-107,1.0,random_dot,59.87518419121263,
right,right,,1.0,0.0,2.0,1.0,,,,,,,,,26.939448200006154,,,,,,,,,26.924454900006825,27.289422400004696,28.08961480000289,28.073089100005745,28.07311160000245,28.08961480000289,28.08961480000289,28.08961480000289,33.50433530000009,right,1.0,22.247394499994694,,33.50496440000279,33.51845800000592,34.00293110000348,34.01846470000601,33.086522200006584,,,,,,,,,,,,,,,,,,,,,,,,sub-107,1.0,random_dot,59.87518419121263,
left,left,,1.0,1.0,3.0,0.0,,,,,,,,,34.01846470000601,,,,,,,,,34.0035646000033,34.36821240000427,35.16878280000674,35.15327000000252,35.1533361000038,35.16878280000674,35.16878280000674,35.16878280000674,36.8368466000029,left,1.0,18.50223079999705,,36.83743350000441,36.84951280000678,37.33348880000267,37.34946840000339,,,,,,,,,,,,,,,,,,,,,,,,,sub-107,1.0,random_dot,59.87518419121263,
left,left,,2.0,0.0,4.0,0.0,,,,,,,,,37.34946840000339,,,,,,,,,37.33398890000535,38.54861240000173,39.34917040000437,39.33463599999959,39.33471170000121,39.34917040000437,39.34917040000437,39.34917040000437,42.24850090000109,left,1.0,19.71962329999224,,42.24895680000191,42.26303750000079,42.74859670000296,42.76300060000358,,,,,,,,,,,,,,,,,,,,,,,,,sub-107,1.0,random_dot,59.87518419121263,
right,right,,2.0,1.0,5.0,1.0,,,,,,,,,42.76300060000358,,,,,,,,,42.74953760000062,43.961874100001296,44.76270099999965,44.74619010000606,44.7462136000031,44.76270099999965,44.76270099999965,44.76270099999965,46.82906900000671,right,1.0,18.89995149999595,,46.8297326000029,46.84335430000647,47.32813060000626,47.34313860000111,,,,,,,,,,,,,,,,,,,,,,,,,sub-107,1.0,random_dot,59.87518419121263,
left,left,,3.0,0.0,6.0,0.0,,,,,,,,,47.34313860000111,,,,,,,,,47.32874620000075,47.44307800000388,48.24389950000477,48.22659640000347,48.22661979999975,48.24389950000477,48.24389950000477,48.24389950000477,49.14482440000575,left,1.0,17.7218378999969,,49.14556340000127,49.15855270000611,49.64264620000176,49.65824910000083,,,,,,,,,,,,,,,,,,,,,,,,,sub-107,1.0,random_dot,59.87518419121263,
right,right,,3.0,1.0,7.0,1.0,,,,,,,,,49.65824910000083,,,,,,,,,49.64308390000224,50.45792480000091,51.25825530000293,51.24285890000465,51.24290450000262,51.25825530000293,51.25825530000293,51.25825530000293,52.04189650000626,right,1.0,17.609145299989905,,52.04235100000369,52.05679050000617,52.540780900002574,52.556401200003165,,,,,,,,,,,,,,,,,,,,,,,,,sub-107,1.0,random_dot,59.87518419121263,
right,right,,4.0,0.0,8.0,1.0,,,,,,,,,52.556401200003165,,,,,,,,,52.541593699999794,53.35612380000384,54.15637660000357,54.14025320000656,54.140278099999705,54.15637660000357,54.15637660000357,54.15637660000357,56.874306600002456,left,0.0,19.53660449999734,,56.87553950000438,56.887049300006765,57.37195480000082,57.3867934000009,,,,,,,,,,,,,,,,,,,,,,,,,sub-107,1.0,random_dot,59.87518419121263,
left,left,,4.0,1.0,9.0,0.0,,,,,,,,,57.3867934000009,,,,,,,,,57.37306300000637,58.585873800002446,59.38659440000629,59.37076309999975,59.37085930000467,59.38659440000629,59.38659440000629,59.38659440000629,62.16937830000097,left,1.0,19.611457200000583,,62.16985690000001,62.18376740000531,62.669097900005,62.68345970000519,,,,,,,,,,,,,,,,,,,,,,,,,sub-107,1.0,random_dot,59.87518419121263,
left,left,,5.0,0.0,10.0,0.0,,,,,,,,,62.68345970000519,,,,,,,,,62.67020780000166,62.78331900000194,63.58373340000253,63.5670120000068,63.56703430000198,63.58373340000253,63.58373340000253,63.58373340000253,65.08506770000531,left,1.0,18.323394799997917,,65.08584289999999,65.09845610000048,65.58239710000635,65.5980997000006,,,,,,,,,,,,,,,,,,,,,,,,,sub-107,1.0,random_dot,59.87518419121263,
right,right,,5.0,1.0,11.0,1.0,,,,,,,,,65.5980997000006,,,,,,,,,65.58284770000319,65.94783680000546,66.74868920000154,66.73228370000288,66.73231350000424,66.74868920000154,66.74868920000154,66.74868920000154,68.28245000000607,right,1.0,18.3680769999919,,68.28292730000248,68.29620750000322,68.78073930000392,68.79594010000437,,,,,,,,,,,,,,,,,,,,,,,,,sub-107,1.0,random_dot,59.87518419121263,
right,right,,6.0,0.0,12.0,1.0,,,,,,,,,68.79594010000437,,,,,,,,,68.78125360000558,69.14589620000334,69.94674220000161,69.93134520000604,69.93141319999995,69.94674220000161,69.94674220000161,69.94674220000161,70.813931100005,left,0.0,17.69758319999528,,70.81458440000279,70.82834300000104,71.31252880000102,71.3277120000057,,,,,,,,,,,,,,,,,,,,,,,,,sub-107,1.0,random_dot,59.87518419121263,
left,left,,6.0,1.0,13.0,0.0,,,,,,,,,71.3277120000057,,,,,,,,,71.31336700000247,71.67763550000382,72.47856830000092,72.4616457000011,72.46168910000415,72.47856830000092,72.47856830000092,72.47856830000092,74.02885440000682,right,0.0,18.37914749999618,,74.02943290000258,74.04289340000105,74.52726850000181,74.54243420000421,,,,,,,,,,,,,,,,,,,,,,,,,sub-107,1.0,random_dot,59.87518419121263,
right,right,,7.0,0.0,14.0,1.0,,,,,,,,,74.54243420000421,,,,,,,,,74.52786880000349,75.34192880000046,76.14230870000029,76.1262085000053,76.12623200000235,76.14230870000029,76.14230870000029,76.14230870000029,76.97740670000348,left,0.0,17.658171899995068,,76.9780946000028,76.99082009999984,77.47583850000228,77.4905504000053,,,,,,,,,,,,,,,,,,,,,,,,,sub-107,1.0,random_dot,59.87518419121263,
left,left,,7.0,1.0,15.0,0.0,,,,,,,,,77.4905504000053,,,,,,,,,77.47706000000471,77.5909335000033,78.39079760000459,78.37511740000627,78.37519710000197,78.39079760000459,78.39079760000459,78.39079760000459,79.2759112000058,right,0.0,17.704610499997216,,79.27635350000492,79.28979170000093,79.77364099999977,79.7890458000038,,,,,,,,,,,,,,,,,,,,,,,,,sub-107,1.0,random_dot,59.87518419121263,
left,left,,8.0,0.0,16.0,0.0,,,,,,,,,79.7890458000038,,,,,,,,,79.77421410000534,80.13900330000615,80.93938480000361,80.92334240000491,80.92337260000204,80.93938480000361,80.93938480000361,80.93938480000361,84.43922810000367,left,1.0,20.331131599996297,,84.44001090000529,84.4528019000063,84.93736640000134,84.9524470000033,,,,,,,,,,,,,,,,,,,,,,,,,sub-107,1.0,random_dot,59.87518419121263,
right,right,,8.0,1.0,17.0,1.0,,,,,,,,,84.9524470000033,,,,,,,,,84.93796040000598,85.75205510000524,86.55261730000348,86.53617030000169,86.53620030000457,86.55261730000348,86.55261730000348,86.55261730000348,89.23597880000307,left,0.0,19.516696499995305,,89.23792900000262,89.24959650000528,89.73449760000221,89.7494141000061,,,,,,,,,,,,,,,,,,,,,,,,,sub-107,1.0,random_dot,59.87518419121263,
left,left,,9.0,0.0,18.0,0.0,,,,,,,,,89.7494141000061,,,,,,,,,89.73518200000399,89.84945910000533,90.64996090000204,90.63405160000548,90.63408640000124,90.64996090000204,90.64996090000204,90.64996090000204,91.58426460000192,left,1.0,17.76255439999659,,91.58479230000376,91.59821139999984,92.08219480000116,92.09793300000456,,,,,,,,,,,,,,,,,,,,,,,,,sub-107,1.0,random_dot,59.87518419121263,
right,right,,9.0,1.0,19.0,1.0,,,,,,,,,92.09793300000456,,,,,,,,,92.08268240000324,93.29767090000678,94.09770410000056,94.08124190000672,94.0812692000036,94.09770410000056,94.09770410000056,94.09770410000056,95.83169810000254,left,0.0,18.558722699999635,,95.83245060000628,95.84552450000048,96.33053330000256,96.34590130000288,,,,,,,,,,,,,,,,,,,,,,,,,sub-107,1.0,random_dot,59.87518419121263,
,,,,,,,,,,,,,,,,,,,,,,,,,,,,,,,,,,,,,,,,,,96.33081280000624,96.34590130000288,96.34590130000288,99.5611663000018,space,20.038699500000803,,,,,,,,,,,,,,,,,,sub-107,1.0,random_dot,59.87518419121263,
,,,,,,,,,,,,,,,,,,,,,,,,,,,,,,,,,,,,,,,,,,,,,,,,,99.56120139999985,99.57674750000297,99.57674750000297,103.90945430000284,space,21.16252909999457,,,,,,,,,,,sub-107,1.0,random_dot,59.87518419121263,
left,left,accuracy,,,,,0.0,0.0,0.0,0.0,0.0,0.0,0.0,0.0,106.52198240000143,,,,,,,,,106.51477760000124,107.32138690000284,108.12209310000615,108.10698709999996,108.1070375000054,108.12209310000615,108.12209310000615,108.12209310000615,113.65410910000357,left,1.0,22.354450099999667,,,,,,113.11879279999994,,,,,,,,,,,,,,,103.91516380000394,103.94013670000275,103.94013670000275,106.5078011000005,space,19.386742399998184,,,,sub-107,1.0,random_dot,59.87518419121263,
right,right,accuracy,,,,,0.0,0.0,0.0,0.0,0.0,1.0,1.0,1.0,113.66755480000576,,,,,,,,,113.6576522000032,114.8668847000008,115.6672622000042,115.6508901000052,115.65091519999989,115.6672622000042,115.6672622000042,115.6672622000042,117.53438410000672,right,1.0,18.689641699995263,,,,,,,,,,,,,,,,,,,,,,,,,,,,,,sub-107,1.0,random_dot,59.87518419121263,
left,left,accuracy,,,,,0.0,0.0,0.0,0.0,1.0,0.0,2.0,0.0,117.54850940000324,,,,,,,,,117.5354626000044,118.74770980000176,119.54835040000034,119.53205180000076,119.53208820000144,119.54835040000034,119.54835040000034,119.54835040000034,122.79772680000316,left,1.0,20.0721493999954,,,,,,,,,,,,,,,,,,,,,,,,,,,,,,sub-107,1.0,random_dot,59.87518419121263,
right,right,accuracy,,,,,0.0,0.0,0.0,0.0,1.0,1.0,3.0,1.0,122.81169310000404,,,,,,,,,122.79869940000208,122.9115643000041,123.71190690000368,123.6953633000012,123.69538230000036,123.71190690000368,123.71190690000368,123.71190690000368,125.22949260000314,right,1.0,18.343808299992816,,,,,,,,,,,,,,,,,,,,,,,,,,,,,,sub-107,1.0,random_dot,59.87518419121263,
left,left,accuracy,,,,,0.0,0.0,0.0,0.0,2.0,0.0,4.0,0.0,125.24330160000682,,,,,,,,,125.23040890000266,125.5933784000008,126.39416650000204,126.37889580000046,126.37896320000436,126.39416650000204,126.39416650000204,126.39416650000204,131.15933660000155,left,1.0,21.586201499994782,,,,,,,,,,,,,,,,,,,,,,,,,,,,,,sub-107,1.0,random_dot,59.87518419121263,
right,right,accuracy,,,,,0.0,0.0,0.0,0.0,2.0,1.0,5.0,1.0,131.17308250000497,,,,,,,,,131.16053770000144,131.52291760000662,132.32343830000173,132.30733000000328,132.30736260000413,132.32343830000173,132.32343830000173,132.32343830000173,134.35701460000564,right,1.0,18.85941739999544,,,,,,,,,,,,,,,,,,,,,,,,,,,,,,sub-107,1.0,random_dot,59.87518419121263,
right,right,accuracy,,,,,0.0,0.0,0.0,0.0,3.0,0.0,6.0,1.0,134.37098010000045,,,,,,,,,134.35802590000094,134.47149060000083,135.28828559999965,135.27249830000073,135.2725602999999,135.28828559999965,135.28828559999965,135.28828559999965,136.9887239000018,left,0.0,18.52348009999696,,,,,,,,,,,,,,,,,,,,,,,,,,,,,,sub-107,1.0,random_dot,59.87518419121263,
left,left,accuracy,,,,,0.0,0.0,0.0,0.0,3.0,1.0,7.0,0.0,137.00246719999996,,,,,,,,,136.98989640000218,137.1026389000035,137.90316370000073,137.8873839000007,137.88745780000318,137.90316370000073,137.90316370000073,137.90316370000073,139.68805160000193,left,1.0,18.60662189999857,,,,,,,,,,,,,,,,,,,,,,,,,,,,,,sub-107,1.0,random_dot,59.87518419121263,
right,right,accuracy,,,,,0.0,0.0,0.0,0.0,4.0,0.0,8.0,1.0,139.7007969000042,,,,,,,,,139.6891825000057,140.90045810000447,141.7007589000059,141.68417190000036,141.68419610000274,141.7007589000059,141.7007589000059,141.7007589000059,143.08494670000073,right,1.0,18.219414799990773,,,,,,,,,,,,,,,,,,,,,,,,,,,,,,sub-107,1.0,random_dot,59.87518419121263,
left,left,accuracy,,,,,0.0,0.0,0.0,0.0,4.0,1.0,9.0,0.0,143.09869420000177,,,,,,,,,143.0858509000027,143.44869850000396,144.2489984000058,144.23236420000467,144.23238710000442,144.2489984000058,144.2489984000058,144.2489984000058,146.76797310000256,left,1.0,19.352879699996265,,,,,,,,,,,,,,,,,,,,,,,,,,,,,,sub-107,1.0,random_dot,59.87518419121263,
right,right,accuracy,,,,,0.0,0.0,0.0,0.0,5.0,0.0,10.0,1.0,146.7798768000066,,,,,,,,,146.7696175000019,146.8800962000023,147.68039480000152,147.6633368000039,147.66335890000482,147.68039480000152,147.68039480000152,147.68039480000152,150.0810313000038,right,1.0,19.235847299998568,,,,,,,,,,,,,,,,,,,,,,,,,,,,,,sub-107,1.0,random_dot,59.87518419121263,
left,left,accuracy,,,,,0.0,0.0,0.0,0.0,5.0,1.0,11.0,0.0,150.0945559000029,,,,,,,,,150.08194480000384,150.19456360000186,150.99468470000284,150.97807360000297,150.97809750000306,150.99468470000284,150.99468470000284,150.99468470000284,153.27850720000424,left,1.0,19.107257199990272,,,,,,,,,,,,,,,,,,,,,,,,,,,,,,sub-107,1.0,random_dot,59.87518419121263,
right,right,accuracy,,,,,0.0,0.0,0.0,0.0,6.0,0.0,12.0,1.0,153.29223690000072,,,,,,,,,153.27950440000131,153.39207370000076,154.19291480000538,154.17624290000094,154.17626820000442,154.19291480000538,154.19291480000538,154.19291480000538,156.44530700000178,right,1.0,19.07919129999209,,,,,,,,,,,,,,,,,,,,,,,,,,,,,,sub-107,1.0,random_dot,59.87518419121263,
left,left,accuracy,,,,,0.0,0.0,0.0,0.0,6.0,1.0,13.0,0.0,156.45727679999982,,,,,,,,,156.44870000000083,156.5569814000046,157.35746310000104,157.3417985000051,157.34186130000307,157.35746310000104,157.35746310000104,157.35746310000104,159.74193120000564,left,1.0,19.21082829999068,,,,,,,,,,,,,,,,,,,,,,,,,,,,,,sub-107,1.0,random_dot,59.87518419121263,
right,right,accuracy,,,,,0.0,0.0,0.0,0.0,7.0,0.0,14.0,1.0,159.75493070000084,,,,,,,,,159.7437585000007,160.10486130000209,160.90560410000035,160.88923090000026,160.8892929000067,160.90560410000035,160.90560410000035,160.90560410000035,164.0726289000013,right,1.0,19.99757719999616,,,,,,,,,,,,,,,,,,,,,,,,,,,,,,sub-107,1.0,random_dot,59.87518419121263,
left,left,accuracy,,,,,0.0,0.0,0.0,0.0,7.0,1.0,15.0,0.0,164.08546750000096,,,,,,,,,164.07403410000552,164.4355502000035,165.235780300005,165.2193785000054,165.21940170000016,165.235780300005,165.235780300005,165.235780300005,168.2694580000025,left,1.0,19.860038299993903,,,,,,,,,,,,,,,,,,,,,,,,,,,,,,sub-107,1.0,random_dot,59.87518419121263,
right,right,accuracy,,,,,0.0,0.0,0.0,0.0,8.0,0.0,16.0,1.0,168.2828895000057,,,,,,,,,168.27106130000175,169.4822337000005,170.28269870000076,170.26626370000304,170.2662902000011,170.28269870000076,170.28269870000076,170.28269870000076,174.6477476,right,1.0,21.18723470000259,,,,,,,,,,,,,,,,,,,,,,,,,,,,,,sub-107,1.0,random_dot,59.87518419121263,
left,left,accuracy,,,,,0.0,0.0,0.0,0.0,8.0,1.0,17.0,0.0,174.66229230000317,,,,,,,,,174.64888770000107,174.7622174000062,175.56278340000426,175.54626100000314,175.5462903000007,175.56278340000426,175.56278340000426,175.56278340000426,178.46223630000168,left,1.0,19.72163569999248,,,,,,,,,,,,,,,,,,,,,,,,,,,,,,sub-107,1.0,random_dot,59.87518419121263,
right,right,accuracy,,,,,0.0,0.0,0.0,0.0,9.0,0.0,18.0,1.0,178.47650200000498,,,,,,,,,178.4634770000048,179.67586120000487,180.4763374000031,180.4606937999997,180.4607618000009,180.4763374000031,180.4763374000031,180.4763374000031,184.07577430000677,right,1.0,20.419267999997828,,,,,,,,,,,,,,,,,,,,,,,,,,,,,,sub-107,1.0,random_dot,59.87518419121263,
left,left,accuracy,,,,,0.0,0.0,0.0,0.0,9.0,1.0,19.0,0.0,184.089736300004,,,,,,,,,184.07767470000545,184.18942290000268,184.989923000001,184.974258000002,184.97435750000292,184.989923000001,184.989923000001,184.989923000001,186.6073123000024,left,1.0,18.442097399994964,,,,,,,,,,,,,,,,,,,,,,,,,,,,,,sub-107,1.0,random_dot,59.87518419121263,
left,left,accuracy,,,,,0.0,0.0,0.0,0.0,10.0,0.0,20.0,0.0,186.62092210000264,,,,,,,,,186.6082602000024,187.8204930000065,188.62071149999971,188.60428570000656,188.60430920000363,188.62071149999971,188.62071149999971,188.62071149999971,190.38746750000428,right,0.0,18.595149999993737,,,,,,,,,,,,,,,,,,,,,,,,,,,,,,sub-107,1.0,random_dot,59.87518419121263,
right,right,accuracy,,,,,0.0,0.0,0.0,0.0,10.0,1.0,21.0,1.0,190.40213980000408,,,,,,,,,190.3883399000042,191.2016706000068,192.00233760000265,191.98604160000104,191.9860788000005,192.00233760000265,192.00233760000265,192.00233760000265,194.10220720000507,left,0.0,18.93138099999487,,,,,,,,,,,,,,,,,,,,,,,,,,,,,,sub-107,1.0,random_dot,59.87518419121263,
right,right,accuracy,,,,,0.0,0.0,0.0,0.0,11.0,0.0,22.0,1.0,194.1172843000022,,,,,,,,,194.10321190000104,194.2165660000028,195.01670050000396,195.0002311999997,195.0002700000041,195.01670050000396,195.01670050000396,195.01670050000396,196.53392220000387,right,1.0,18.348028599997637,,,,,,,,,,,,,,,,,,,,,,,,,,,,,,sub-107,1.0,random_dot,59.87518419121263,
left,left,accuracy,,,,,0.0,0.0,0.0,0.0,11.0,1.0,23.0,0.0,196.5483108000044,,,,,,,,,196.53490380000585,196.64807819999987,197.44869219999964,197.43235460000145,197.43239440000616,197.44869219999964,197.44869219999964,197.44869219999964,201.91369280000072,left,1.0,21.29833609999332,,,,,,,,,,,,,,,,,,,,,,,,,,,,,,sub-107,1.0,random_dot,59.87518419121263,
right,right,accuracy,,,,,0.0,0.0,0.0,0.0,12.0,0.0,24.0,1.0,201.92811500000244,,,,,,,,,201.9147397000052,202.2778615999996,203.0785104000024,203.06211190000613,203.06213930000376,203.0785104000024,203.0785104000024,203.0785104000024,204.39709399999992,right,1.0,18.141992500000924,,,,,,,,,,,,,,,,,,,,,,,,,,,,,,sub-107,1.0,random_dot,59.87518419121263,
left,left,accuracy,,,,,0.0,0.0,0.0,0.0,12.0,1.0,25.0,0.0,204.4098082000055,,,,,,,,,204.4003573000009,204.50987980000355,205.31075650000275,205.2941621000064,205.2941953000045,205.31075650000275,205.31075650000275,205.31075650000275,209.32582340000224,left,1.0,20.84447389999696,,,,,,,,,,,,,,,,,,,,,,,,,,,,,,sub-107,1.0,random_dot,59.87518419121263,
right,right,accuracy,,,,,0.0,0.0,0.0,0.0,13.0,0.0,26.0,1.0,209.3402536000067,,,,,,,,,209.3267810000034,209.4398455000046,210.24048370000676,210.22391600000265,210.2239417000019,210.24048370000676,210.24048370000676,210.24048370000676,212.87386340000376,right,1.0,19.457482199992228,,,,,,,,,,,,,,,,,,,,,,,,,,,,,,sub-107,1.0,random_dot,59.87518419121263,
left,left,accuracy,,,,,0.0,0.0,0.0,0.0,13.0,1.0,27.0,0.0,212.88779890000296,,,,,,,,,212.8748341000028,213.2376218000063,214.0384783000045,214.02187960000447,214.02191080000196,214.0384783000045,214.0384783000045,214.0384783000045,214.99030300000595,left,1.0,17.785379900000407,,,,,,,,,,,,,,,,,,,,,,,,,,,,,,sub-107,1.0,random_dot,59.87518419121263,
left,left,accuracy,,,,,0.0,0.0,0.0,0.0,14.0,0.0,28.0,0.0,215.00340940000024,,,,,,,,,214.99168920000372,215.35291510000388,216.15333090000055,216.13734660000048,216.13737650000257,216.15333090000055,216.15333090000055,216.15333090000055,220.0524302000049,left,1.0,20.72155969999585,,,,,,,,,,,,,,,,,,,,,,,,,,,,,,sub-107,1.0,random_dot,59.87518419121263,
right,right,accuracy,,,,,0.0,0.0,0.0,0.0,14.0,1.0,29.0,1.0,220.06656590000057,,,,,,,,,220.0536865000031,220.16651030000503,220.9674490000034,220.95109450000015,220.951166800005,220.9674490000034,220.9674490000034,220.9674490000034,222.51942530000088,right,1.0,18.37271799999144,,,,,,,,,,,,,,,,,,,,,,,,,,,,,,sub-107,1.0,random_dot,59.87518419121263,
left,left,accuracy,,,,,0.0,0.0,0.0,0.0,15.0,0.0,30.0,0.0,222.5318546000053,,,,,,,,,222.5213956000007,222.6316982000062,223.4325253999996,223.41635760000645,223.41644090000045,223.4325253999996,223.4325253999996,223.4325253999996,224.3671264000004,left,1.0,17.757092599989846,,,,,,,,,,,,,,,,,,,,,,,,,,,,,,sub-107,1.0,random_dot,59.87518419121263,
right,right,accuracy,,,,,0.0,0.0,0.0,0.0,15.0,1.0,31.0,1.0,224.38056340000185,,,,,,,,,224.3680623000037,225.1802189000009,225.98060930000065,225.96393950000493,225.9639599000002,225.98060930000065,225.98060930000065,225.98060930000065,229.72940519999972,left,0.0,20.56931299999997,,,,,,,,,,,,,,,,,,,,,,,,,,,,,,sub-107,1.0,random_dot,59.87518419121263,
right,right,accuracy,,,,,0.0,0.0,0.0,0.0,16.0,0.0,32.0,1.0,229.7436483000056,,,,,,,,,229.73040890000263,230.9431514000025,231.7438401000036,231.72763380000103,231.72767300000123,231.7438401000036,231.7438401000036,231.7438401000036,233.02815450000344,right,1.0,18.11978879999515,,,,,,,,,,,,,,,,,,,,,,,,,,,,,,sub-107,1.0,random_dot,59.87518419121263,
left,left,accuracy,,,,,0.0,0.0,0.0,0.0,16.0,1.0,33.0,0.0,233.04160020000563,,,,,,,,,233.0291819000049,233.3917064000052,234.1923523000005,234.17535480000515,234.17538100000093,234.1923523000005,234.1923523000005,234.1923523000005,235.52672060000623,left,1.0,18.15607469999668,,,,,,,,,,,,,,,,,,,,,,,,,,,,,,sub-107,1.0,random_dot,59.87518419121263,
right,right,accuracy,,,,,0.0,0.0,0.0,0.0,17.0,0.0,34.0,1.0,235.54014380000444,,,,,,,,,235.52804120000656,236.3397318999996,237.140189800004,237.1242252000011,237.1242554000055,237.140189800004,237.140189800004,237.140189800004,238.59087650000583,right,1.0,18.27397169999313,,,,,,,,,,,,,,,,,,,,,,,,,,,,,,sub-107,1.0,random_dot,59.87518419121263,
left,left,accuracy,,,,,0.0,0.0,0.0,0.0,17.0,1.0,35.0,0.0,238.60479930000287,,,,,,,,,238.5918923000063,239.40424030000577,240.2048397000035,240.18803680000565,240.1880694000065,240.2048397000035,240.2048397000035,240.2048397000035,241.5065736000033,left,1.0,18.13370909999503,,,,,,,,,,,,,,,,,,,,,,,,,,,,,,sub-107,1.0,random_dot,59.87518419121263,
right,right,accuracy,,,,,0.0,0.0,0.0,0.0,18.0,0.0,36.0,1.0,241.51971060000503,,,,,,,,,241.5082223999998,242.31943430000683,243.119786400006,243.10352380000404,243.10355410000196,243.119786400006,243.119786400006,243.119786400006,244.48887000000104,right,1.0,18.20169679999526,,,,,,,,,,,,,,,,,,,,,,,,,,,,,,sub-107,1.0,random_dot,59.87518419121263,
left,left,accuracy,,,,,0.0,0.0,0.0,0.0,18.0,1.0,37.0,0.0,244.5012641000067,,,,,,,,,244.4902390000061,244.85101450000369,245.6517684999999,245.6350678000017,245.6351164000007,245.6517684999999,245.6517684999999,245.6517684999999,248.31841480000003,right,0.0,19.496931900001076,,,,,,,,,,,,,,,,,,,,,,,,,,,,,,sub-107,1.0,random_dot,59.87518419121263,
right,right,accuracy,,,,,0.0,0.0,0.0,0.0,19.0,0.0,38.0,1.0,248.3317875000066,,,,,,,,,248.3203455000039,249.13151930000456,249.9322033999997,249.9158424000052,249.9159088000015,249.9322033999997,249.9322033999997,249.9322033999997,251.56624340000417,right,1.0,18.467381799993746,,,,,,,,,,,,,,,,,,,,,,,,,,,,,,sub-107,1.0,random_dot,59.87518419121263,
left,left,accuracy,,,,,0.0,0.0,0.0,0.0,19.0,1.0,39.0,0.0,251.5800563000012,,,,,,,,,251.56752220000635,252.37974920000124,253.1800555000009,253.16346150000027,253.1634908000051,253.1800555000009,253.1800555000009,253.1800555000009,254.8471368000028,left,1.0,18.49328989999776,,,,,,,,,,,,,,,,,,,,,,,,,,,,,,sub-107,1.0,random_dot,59.87518419121263,
right,right,accuracy,,,,,0.0,0.0,0.0,0.0,20.0,0.0,40.0,1.0,254.86125440000612,,,,,,,,,254.8480794000061,254.9611559000041,255.7616572000043,255.74523350000527,255.7452634000001,255.7616572000043,255.7616572000043,255.7616572000043,259.27752870000404,left,0.0,20.346528599999147,,,,,,,,,,,,,,,,,,,,,,,,,,,,,,sub-107,1.0,random_dot,59.87518419121263,
left,left,accuracy,,,,,0.0,0.0,0.0,0.0,20.0,1.0,41.0,0.0,259.291782100001,,,,,,,,,259.278460600006,260.0914757000064,260.89183360000607,260.8755509000039,260.8756202000004,260.89183360000607,260.89183360000607,260.89183360000607,263.6082871000035,right,0.0,19.55217039999843,,,,,,,,,,,,,,,,,,,,,,,,,,,,,,sub-107,1.0,random_dot,59.87518419121263,
left,left,accuracy,,,,,0.0,0.0,0.0,0.0,21.0,0.0,42.0,0.0,263.6220428000015,,,,,,,,,263.6091293000063,264.42175770000176,265.2226354000013,265.2065290000028,265.2065572000065,265.2226354000013,265.2226354000013,265.2226354000013,267.6065280000039,left,1.0,19.21640069999557,,,,,,,,,,,,,,,,,,,,,,,,,,,,,,sub-107,1.0,random_dot,59.87518419121263,
right,right,accuracy,,,,,0.0,0.0,0.0,0.0,21.0,1.0,43.0,1.0,267.6196861000062,,,,,,,,,267.6076058000035,267.969577200005,268.7700926000034,268.75401210000564,268.75404070000513,268.7700926000034,268.7700926000034,268.7700926000034,270.0052482000028,right,1.0,18.06977139999799,,,,,,,,,,,,,,,,,,,,,,,,,,,,,,sub-107,1.0,random_dot,59.87518419121263,
left,left,accuracy,,,,,0.0,0.0,0.0,0.0,22.0,0.0,44.0,0.0,270.01794010000594,,,,,,,,,270.0062751000005,271.21743810000044,272.0179657000044,272.00146280000627,272.0014897000001,272.0179657000044,272.0179657000044,272.0179657000044,274.6340057000052,left,1.0,19.436164399994595,,,,,,,,,,,,,,,,,,,,,,,,,,,,,,sub-107,1.0,random_dot,59.87518419121263,
right,right,accuracy,,,,,0.0,0.0,0.0,0.0,22.0,1.0,45.0,1.0,274.64871450000646,,,,,,,,,274.6348205000031,275.4483269000048,276.24885010000435,276.232136300001,276.2321599000061,276.24885010000435,276.24885010000435,276.24885010000435,278.2657040000049,right,1.0,18.8431677999979,,,,,,,,,,,,,,,,,,,,,,,,,,,,,,sub-107,1.0,random_dot,59.87518419121263,
left,left,accuracy,,,,,0.0,0.0,0.0,0.0,23.0,0.0,46.0,0.0,278.27957560000505,,,,,,,,,278.26667160000216,279.4790939000013,280.2793273999996,280.2631970000002,280.2632236999998,280.2793273999996,280.2793273999996,280.2793273999996,281.0637061000016,left,1.0,17.612652699994214,,,,,,,,,,,,,,,,,,,,,,,,,,,,,,sub-107,1.0,random_dot,59.87518419121263,
right,right,accuracy,,,,,0.0,0.0,0.0,0.0,23.0,1.0,47.0,1.0,281.07789750000666,,,,,,,,,281.0646691000002,281.4282047000015,282.2447450000036,282.22818460000417,282.2282084000035,282.2447450000036,282.2447450000036,282.2447450000036,285.8611593000023,right,1.0,20.44898729999113,,,,,,,,,,,,,,,,,,,,,,,,,,,,,,sub-107,1.0,random_dot,59.87518419121263,
left,left,accuracy,,,,,0.0,0.0,0.0,0.0,24.0,0.0,48.0,0.0,285.8747134000005,,,,,,,,,285.8621395000009,285.97490560000006,286.7756021000023,286.75948600000265,286.759621600002,286.7756021000023,286.7756021000023,286.7756021000023,288.4097355000049,left,1.0,18.465895999994245,,,,,,,,,,,,,,,,,,,,,,,,,,,,,,sub-107,1.0,random_dot,59.87518419121263,
right,right,accuracy,,,,,0.0,0.0,0.0,0.0,24.0,1.0,49.0,1.0,288.4233644000051,,,,,,,,,288.41079130000435,288.7731816000014,289.5737928000017,289.5582845000026,289.5583165000062,289.5737928000017,289.5737928000017,289.5737928000017,292.03983160000644,left,0.0,19.29691099999036,,,,,,,,,,,,,,,,,,,,,,,,,,,,,,sub-107,1.0,random_dot,59.87518419121263,
right,right,accuracy,,,,,0.0,0.0,0.0,0.0,25.0,0.0,50.0,1.0,292.0540622000044,,,,,,,,,292.0408760999999,292.85377110000263,293.6541069000013,293.63740990000224,293.6374277000068,293.6541069000013,293.6541069000013,293.6541069000013,295.15440769999987,right,1.0,18.325238399993395,,,,,,,,,,,,,,,,,,,,,,,,,,,,,,sub-107,1.0,random_dot,59.87518419121263,
left,left,accuracy,,,,,0.0,0.0,0.0,0.0,25.0,1.0,51.0,0.0,295.1691304000051,,,,,,,,,295.1552254000053,295.2693939000019,296.0696278000032,296.0528475000028,296.05287880000105,296.0696278000032,296.0696278000032,296.0696278000032,297.6703342000037,left,1.0,18.421501299999363,,,,,,,,,,,,,,,,,,,,,,,,,,,,,,sub-107,1.0,random_dot,59.87518419121263,
left,left,accuracy,,,,,0.0,0.0,0.0,0.0,26.0,0.0,52.0,0.0,297.68428010000207,,,,,,,,,297.67138560000603,298.8834629000048,299.6839714000016,299.6672897000026,299.6673142,299.6839714000016,299.6839714000016,299.6839714000016,301.6190015000029,left,1.0,18.768357399996603,,,,,,,,,,,,,,,,,,,,,,,,,,,,,,sub-107,1.0,random_dot,59.87518419121263,
right,right,accuracy,,,,,0.0,0.0,0.0,0.0,26.0,1.0,53.0,1.0,301.6315762000013,,,,,,,,,301.62036540000554,301.9813592000064,302.78210290000425,302.7654910000056,302.7655513999998,302.78210290000425,302.78210290000425,302.78210290000425,303.7330360000051,right,1.0,17.775795399989875,,,,,,,,,,,,,,,,,,,,,,,,,,,,,,sub-107,1.0,random_dot,59.87518419121263,
left,left,accuracy,,,,,0.0,0.0,0.0,0.0,27.0,0.0,54.0,0.0,303.7468020000015,,,,,,,,,303.734397500004,304.0965853000016,304.89686110000184,304.8807964000007,304.88082209999993,304.89686110000184,304.89686110000184,304.89686110000184,306.0481102000049,left,1.0,17.97370559999399,,,,,,,,,,,,,,,,,,,,,,,,,,,,,,sub-107,1.0,random_dot,59.87518419121263,
right,right,accuracy,,,,,0.0,0.0,0.0,0.0,27.0,1.0,55.0,1.0,306.0623642000064,,,,,,,,,306.04967160000524,306.4120516000039,307.21237459999975,307.1973636000039,307.19739140000456,307.21237459999975,307.21237459999975,307.21237459999975,308.29761050000525,right,1.0,17.90765249999822,,,,,,,,,,,,,,,,,,,,,,,,,,,,,,sub-107,1.0,random_dot,59.87518419121263,
right,right,accuracy,,,,,0.0,0.0,0.0,0.0,28.0,0.0,56.0,1.0,308.31100490000244,,,,,,,,,308.2999342000039,309.11042100000486,309.91066230000433,309.8937684000048,309.89379120000376,309.91066230000433,309.91066230000433,309.91066230000433,311.8119877000063,right,1.0,18.724915699996927,,,,,,,,,,,,,,,,,,,,,,,,,,,,,,sub-107,1.0,random_dot,59.87518419121263,
left,left,accuracy,,,,,0.0,0.0,0.0,0.0,28.0,1.0,57.0,0.0,311.8249952000042,,,,,,,,,311.813599400004,313.02453490000335,313.82483470000443,313.8084402000022,313.80847120000544,313.82483470000443,313.82483470000443,313.82483470000443,315.0763536000013,left,1.0,18.073715799997444,,,,,,,,,,,,,,,,,,,,,,,,,,,,,,sub-107,1.0,random_dot,59.87518419121263,
left,left,accuracy,,,,,0.0,0.0,0.0,0.0,29.0,0.0,58.0,0.0,315.0896456000046,,,,,,,,,315.07772470000054,316.2888140000068,317.0893170000054,317.073229900001,317.0732566000006,317.0893170000054,317.0893170000054,317.0893170000054,320.67155840000487,right,0.0,20.40810039999633,,,,,,,,,,,,,,,,,,,,,,,,,,,,,,sub-107,1.0,random_dot,59.87518419121263,
right,right,accuracy,,,,,0.0,0.0,0.0,0.0,29.0,1.0,59.0,1.0,320.6860536000022,,,,,,,,,320.6725269000017,321.03578460000426,321.8365066000042,321.8200108000019,321.8200386000026,321.8365066000042,321.8365066000042,321.8365066000042,322.9705252000058,right,1.0,17.969053000000713,,,,,,,,,,,,,,,,,,,,,,,,,,,,,,sub-107,1.0,random_dot,59.87518419121263,
,,accuracy,,,,,0.0,0.0,0.0,0.0,,,,,,,,,,,,,,,,,,,,,,,,,,,,,,,,,,,,,,,,,,,,,,,,,,,,,,,sub-107,1.0,random_dot,59.87518419121263,
right,right,speed,,,,,0.0,1.0,1.0,1.0,0.0,0.0,0.0,1.0,325.915833900006,,,,,,,,,325.9084340000045,326.01624540000194,326.81671850000566,326.80057460000535,326.800673800004,326.81671850000566,326.81671850000566,326.81671850000566,327.4512967000046,right,1.0,17.45473339999444,,,,,,,,,,,,,,,,,,,,,322.97140930000023,322.984586700004,322.984586700004,325.9012963000059,space,19.74160409999604,,,,sub-107,1.0,random_dot,59.87518419121263,
left,left,speed,,,,,0.0,1.0,1.0,1.0,0.0,1.0,1.0,0.0,327.4656538000054,,,,,,,,,327.45265780000045,328.6644895999998,329.464813000006,329.4484261000034,329.4484556000025,329.464813000006,329.464813000006,329.464813000006,330.7326902000059,left,1.0,18.09735869999713,,,,,,,,,,,,,,,,,,,,,,,,,,,,,,sub-107,1.0,random_dot,59.87518419121263,
left,left,speed,,,,,0.0,1.0,1.0,1.0,1.0,0.0,2.0,0.0,330.7464190000028,,,,,,,,,330.7335525000017,330.8463555000053,331.64690770000016,331.6304780999999,331.6305147000021,331.64690770000016,331.64690770000016,331.64690770000016,332.39938720000646,right,0.0,17.57800719999068,,,,,,,,,,,,,,,,,,,,,,,,,,,,,,sub-107,1.0,random_dot,59.87518419121263,
right,right,speed,,,,,0.0,1.0,1.0,1.0,1.0,1.0,3.0,1.0,332.4120610000027,,,,,,,,,332.4017935000011,332.7617199000015,333.56247290000465,333.5457194000046,333.5457408000002,333.56247290000465,333.56247290000465,333.56247290000465,334.49644050000643,right,1.0,17.767108299995016,,,,,,,,,,,,,,,,,,,,,,,,,,,,,,sub-107,1.0,random_dot,59.87518419121263,
left,left,speed,,,,,0.0,1.0,1.0,1.0,2.0,0.0,4.0,0.0,334.5106487000012,,,,,,,,,334.4976378000065,335.7098391000036,336.51037900000665,336.4938378000006,336.49388990000443,336.51037900000665,336.51037900000665,336.51037900000665,337.194805500003,left,1.0,17.516442899999674,,,,,,,,,,,,,,,,,,,,,,,,,,,,,,sub-107,1.0,random_dot,59.87518419121263,
right,right,speed,,,,,0.0,1.0,1.0,1.0,2.0,1.0,5.0,1.0,337.2092063000018,,,,,,,,,337.1957952000012,337.30895550000423,338.10955350000586,338.0931633,338.0931988000011,338.10955350000586,338.10955350000586,338.10955350000586,338.943760000002,right,1.0,17.65503849999368,,,,,,,,,,,,,,,,,,,,,,,,,,,,,,sub-107,1.0,random_dot,59.87518419121263,
right,right,speed,,,,,0.0,1.0,1.0,1.0,3.0,0.0,6.0,1.0,338.9579631000015,,,,,,,,,338.94572330000665,340.15712700000586,340.95750500000577,340.9423620000016,340.9425596000001,340.95750500000577,340.95750500000577,340.95750500000577,341.82517100000405,right,1.0,17.702008499996737,,,,,,,,,,,,,,,,,,,,,,,,,,,,,,sub-107,1.0,random_dot,59.87518419121263,
left,left,speed,,,,,0.0,1.0,1.0,1.0,3.0,1.0,7.0,0.0,341.8392773000014,,,,,,,,,341.8261135000066,342.189346500003,342.9896116000018,342.9731963000013,342.9732279000018,342.9896116000018,342.9896116000018,342.9896116000018,343.8233190000028,left,1.0,17.66539239999838,,,,,,,,,,,,,,,,,,,,,,,,,,,,,,sub-107,1.0,random_dot,59.87518419121263,
left,left,speed,,,,,0.0,1.0,1.0,1.0,4.0,0.0,8.0,0.0,343.83797150000464,,,,,,,,,343.8242981000003,344.6377301000029,345.4384277000063,345.4227746000033,345.42285800000536,345.4384277000063,345.4384277000063,345.4384277000063,346.44026000000304,right,0.0,17.826520799993887,,,,,,,,,,,,,,,,,,,,,,,,,,,,,,sub-107,1.0,random_dot,59.87518419121263,
right,right,speed,,,,,0.0,1.0,1.0,1.0,4.0,1.0,9.0,1.0,346.4533861000018,,,,,,,,,346.4420270000046,346.8031056000036,347.6034335000004,347.5881947000016,347.58827340000425,347.6034335000004,347.6034335000004,347.6034335000004,349.10435220000363,left,0.0,18.332255199995416,,,,,,,,,,,,,,,,,,,,,,,,,,,,,,sub-107,1.0,random_dot,59.87518419121263,
left,left,speed,,,,,0.0,1.0,1.0,1.0,5.0,0.0,10.0,0.0,349.11785810000583,,,,,,,,,349.1053572000019,349.4677413000027,350.26825790000294,350.2517001000015,350.2517250000019,350.26825790000294,350.26825790000294,350.26825790000294,351.2358142000012,left,1.0,17.798554699991655,,,,,,,,,,,,,,,,,,,,,,,,,,,,,,sub-107,1.0,random_dot,59.87518419121263,
right,right,speed,,,,,0.0,1.0,1.0,1.0,5.0,1.0,11.0,1.0,351.24992270000075,,,,,,,,,351.2369928000044,351.59987390000606,352.4005100000068,352.38484930000413,352.3849313000028,352.4005100000068,352.4005100000068,352.4005100000068,353.2869304000051,right,1.0,17.712388699997973,,,,,,,,,,,,,,,,,,,,,,,,,,,,,,sub-107,1.0,random_dot,59.87518419121263,
right,right,speed,,,,,0.0,1.0,1.0,1.0,6.0,0.0,12.0,1.0,353.298790300003,,,,,,,,,353.2890725000034,353.6487413000068,354.4489903000067,354.4331283000065,354.4331722000061,354.4489903000067,354.4489903000067,354.4489903000067,355.6664486000009,right,1.0,18.03795349999564,,,,,,,,,,,,,,,,,,,,,,,,,,,,,,sub-107,1.0,random_dot,59.87518419121263,
left,left,speed,,,,,0.0,1.0,1.0,1.0,6.0,1.0,13.0,0.0,355.6803036000056,,,,,,,,,355.66753560000507,356.8799016000048,357.6803749000028,357.6634780000022,357.66350140000577,357.6803749000028,357.6803749000028,357.6803749000028,359.1643363000039,left,1.0,18.30587950000336,,,,,,,,,,,,,,,,,,,,,,,,,,,,,,sub-107,1.0,random_dot,59.87518419121263,
right,right,speed,,,,,0.0,1.0,1.0,1.0,7.0,0.0,14.0,1.0,359.17825230000017,,,,,,,,,359.1657093000031,359.2784440000032,360.07905340000434,360.0624571000008,360.06248870000127,360.07905340000434,360.07905340000434,360.07905340000434,361.46276280000166,right,1.0,18.20401660000061,,,,,,,,,,,,,,,,,,,,,,,,,,,,,,sub-107,1.0,random_dot,59.87518419121263,
left,left,speed,,,,,0.0,1.0,1.0,1.0,7.0,1.0,15.0,0.0,361.4766921000046,,,,,,,,,361.4638223000002,361.8267600000036,362.6271835000007,362.6107534000039,362.6107814999996,362.6271835000007,362.6271835000007,362.6271835000007,363.9142270000011,left,1.0,18.11950739999156,,,,,,,,,,,,,,,,,,,,,,,,,,,,,,sub-107,1.0,random_dot,59.87518419121263,
left,left,speed,,,,,0.0,1.0,1.0,1.0,8.0,0.0,16.0,0.0,363.9255095000044,,,,,,,,,363.9159103000056,364.72488390000217,365.52503050000087,365.5081866000037,365.5082085000031,365.52503050000087,365.52503050000087,365.52503050000087,366.9254788000035,left,1.0,18.23198909999337,,,,,,,,,,,,,,,,,,,,,,,,,,,,,,sub-107,1.0,random_dot,59.87518419121263,
right,right,speed,,,,,0.0,1.0,1.0,1.0,8.0,1.0,17.0,1.0,366.9400977000041,,,,,,,,,366.9266836000024,367.2896256000022,368.0905138000016,368.0742880000034,368.0743321000045,368.0905138000016,368.0905138000016,368.0905138000016,369.80818150000414,left,0.0,18.545051399996737,,,,,,,,,,,,,,,,,,,,,,,,,,,,,,sub-107,1.0,random_dot,59.87518419121263,
right,right,speed,,,,,0.0,1.0,1.0,1.0,9.0,0.0,18.0,1.0,369.821566700004,,,,,,,,,369.8096966000012,371.02080430000206,371.8214466000063,371.8047494000057,371.8047817000042,371.8214466000063,371.8214466000063,371.8214466000063,374.2055838000015,right,1.0,19.217892699991356,,,,,,,,,,,,,,,,,,,,,,,,,,,,,,sub-107,1.0,random_dot,59.87518419121263,
left,left,speed,,,,,0.0,1.0,1.0,1.0,9.0,1.0,19.0,0.0,374.21861860000354,,,,,,,,,374.2064406000063,375.418333900001,376.218380600003,376.2025796000016,376.2026127000063,376.218380600003,376.218380600003,376.218380600003,377.6358514000021,left,1.0,18.23822659999132,,,,,,,,,,,,,,,,,,,,,,,,,,,,,,sub-107,1.0,random_dot,59.87518419121263,
left,left,speed,,,,,0.0,1.0,1.0,1.0,10.0,0.0,20.0,0.0,377.6501062000025,,,,,,,,,377.6370693000063,377.99949700000434,378.80038870000135,378.7845884000053,378.7846155000007,378.80038870000135,378.80038870000135,378.80038870000135,379.6012577000001,left,1.0,17.62094879999495,,,,,,,,,,,,,,,,,,,,,,,,,,,,,,sub-107,1.0,random_dot,59.87518419121263,
right,right,speed,,,,,0.0,1.0,1.0,1.0,10.0,1.0,21.0,1.0,379.6153323000035,,,,,,,,,379.602540800006,380.8146224000011,381.61541180000495,381.5994021000006,381.59944440000254,381.61541180000495,381.61541180000495,381.61541180000495,382.5824800000046,right,1.0,17.78920919999655,,,,,,,,,,,,,,,,,,,,,,,,,,,,,,sub-107,1.0,random_dot,59.87518419121263,
left,left,speed,,,,,0.0,1.0,1.0,1.0,11.0,0.0,22.0,0.0,382.5966425000006,,,,,,,,,382.5834328000056,383.3962072000068,384.19669350000186,384.1801553000041,384.1801799000023,384.19669350000186,384.19669350000186,384.19669350000186,385.2470395000055,left,1.0,17.873273599994718,,,,,,,,,,,,,,,,,,,,,,,,,,,,,,sub-107,1.0,random_dot,59.87518419121263,
right,right,speed,,,,,0.0,1.0,1.0,1.0,11.0,1.0,23.0,1.0,385.2617455,,,,,,,,,385.247907500001,385.6119663999998,386.41204840000137,386.39524320000055,386.39526430000114,386.41204840000137,386.41204840000137,386.41204840000137,387.24687340000673,right,1.0,17.664157899998827,,,,,,,,,,,,,,,,,,,,,,,,,,,,,,sub-107,1.0,random_dot,59.87518419121263,
right,right,speed,,,,,0.0,1.0,1.0,1.0,12.0,0.0,24.0,1.0,387.2604520000023,,,,,,,,,387.2482670000026,387.3604467000041,388.1610462000026,388.1444016000023,388.1444272000008,388.1610462000026,388.1610462000026,388.1610462000026,389.0624392000027,right,1.0,17.734098799992353,,,,,,,,,,,,,,,,,,,,,,,,,,,,,,sub-107,1.0,random_dot,59.87518419121263,
left,left,speed,,,,,0.0,1.0,1.0,1.0,12.0,1.0,25.0,0.0,389.0760245000056,,,,,,,,,389.0634333000053,389.17600950000633,389.976582700001,389.96042450000095,389.9605673000042,389.976582700001,389.976582700001,389.976582700001,391.1442939000044,right,0.0,18.002973399998154,,,,,,,,,,,,,,,,,,,,,,,,,,,,,,sub-107,1.0,random_dot,59.87518419121263,
left,left,speed,,,,,0.0,1.0,1.0,1.0,13.0,0.0,26.0,0.0,391.1580474000002,,,,,,,,,391.1458393000066,392.3573405999996,393.1578401000006,393.1411573000005,393.14118460000464,393.1578401000006,393.1578401000006,393.1578401000006,394.3585478000023,left,1.0,18.0268317999944,,,,,,,,,,,,,,,,,,,,,,,,,,,,,,sub-107,1.0,random_dot,59.87518419121263,
right,right,speed,,,,,0.0,1.0,1.0,1.0,13.0,1.0,27.0,1.0,394.3726932000063,,,,,,,,,394.3596655000001,395.1721620000026,395.97270490000665,395.9558971000006,395.95592050000414,395.97270490000665,395.97270490000665,395.97270490000665,397.09034330000577,right,1.0,17.941762299997208,,,,,,,,,,,,,,,,,,,,,,,,,,,,,,sub-107,1.0,random_dot,59.87518419121263,
left,left,speed,,,,,0.0,1.0,1.0,1.0,14.0,0.0,28.0,0.0,397.1043999000031,,,,,,,,,397.09136430000217,397.4547037000011,398.2713868000064,398.25445830000535,398.2544826000012,398.2713868000064,398.2713868000064,398.2713868000064,399.42399529999966,right,0.0,17.973500399995828,,,,,,,,,,,,,,,,,,,,,,,,,,,,,,sub-107,1.0,random_dot,59.87518419121263,
right,right,speed,,,,,0.0,1.0,1.0,1.0,14.0,1.0,29.0,1.0,399.4360557000037,,,,,,,,,399.425665200004,399.78578570000536,400.5862498000061,400.5697649000067,400.5697908000002,400.5862498000061,400.5862498000061,400.5862498000061,402.1201677000063,right,1.0,18.36002949999238,,,,,,,,,,,,,,,,,,,,,,,,,,,,,,sub-107,1.0,random_dot,59.87518419121263,
left,left,speed,,,,,0.0,1.0,1.0,1.0,15.0,0.0,30.0,0.0,402.13411610000185,,,,,,,,,402.1211328999998,402.4845148000022,403.2846100000024,403.2679027000049,403.2679245000036,403.2846100000024,403.2846100000024,403.2846100000024,404.1021881000052,left,1.0,17.637544599994726,,,,,,,,,,,,,,,,,,,,,,,,,,,,,,sub-107,1.0,random_dot,59.87518419121263,
right,right,speed,,,,,0.0,1.0,1.0,1.0,15.0,1.0,31.0,1.0,404.1164264000036,,,,,,,,,404.1033492000061,404.4662487000023,405.26669440000114,405.2502504000004,405.2502777000045,405.26669440000114,405.26669440000114,405.26669440000114,407.40048010000464,left,0.0,18.965839499993308,,,,,,,,,,,,,,,,,,,,,,,,,,,,,,sub-107,1.0,random_dot,59.87518419121263,
right,right,speed,,,,,0.0,1.0,1.0,1.0,16.0,0.0,32.0,1.0,407.4141260000033,,,,,,,,,407.4016221000056,408.6136920000063,409.4142836000028,409.3973121000017,409.3973466000025,409.4142836000028,409.4142836000028,409.4142836000028,410.0483735000016,right,1.0,17.46290449999651,,,,,,,,,,,,,,,,,,,,,,,,,,,,,,sub-107,1.0,random_dot,59.87518419121263,
left,left,speed,,,,,0.0,1.0,1.0,1.0,16.0,1.0,33.0,0.0,410.062740500005,,,,,,,,,410.0493612999999,411.2619709000064,412.0625073000047,412.0469166000039,412.0469485000067,412.0625073000047,412.0625073000047,412.0625073000047,413.0132139000052,right,0.0,17.770715200000268,,,,,,,,,,,,,,,,,,,,,,,,,,,,,,sub-107,1.0,random_dot,59.87518419121263,
left,left,speed,,,,,0.0,1.0,1.0,1.0,17.0,0.0,34.0,0.0,413.02743740000005,,,,,,,,,413.01455890000216,413.8269247000062,414.6275519000046,414.6123136000024,414.6123810000063,414.6275519000046,414.6275519000046,414.6275519000046,416.1787991000019,left,1.0,18.379505099997917,,,,,,,,,,,,,,,,,,,,,,,,,,,,,,sub-107,1.0,random_dot,59.87518419121263,
right,right,speed,,,,,0.0,1.0,1.0,1.0,17.0,1.0,35.0,1.0,416.1920772000012,,,,,,,,,416.1810497000042,416.9918305000028,417.7924280000007,417.77644359999977,417.7764830000015,417.7924280000007,417.7924280000007,417.7924280000007,419.0093212000065,right,1.0,18.03750239999499,,,,,,,,,,,,,,,,,,,,,,,,,,,,,,sub-107,1.0,random_dot,59.87518419121263,
right,right,speed,,,,,0.0,1.0,1.0,1.0,18.0,0.0,36.0,1.0,419.0236564000006,,,,,,,,,419.0103386000046,419.12379400000646,419.9242524000001,419.90755170000193,419.9075840000005,419.9242524000001,419.9242524000001,419.9242524000001,420.6916612000059,right,1.0,17.598422299997765,,,,,,,,,,,,,,,,,,,,,,,,,,,,,,sub-107,1.0,random_dot,59.87518419121263,
left,left,speed,,,,,0.0,1.0,1.0,1.0,18.0,1.0,37.0,0.0,420.705598200002,,,,,,,,,420.69247610000457,421.0557853000064,421.8563437000048,421.8399774000063,421.8400116000048,421.8563437000048,421.8563437000048,421.8563437000048,423.1569035000066,right,0.0,18.13392909999675,,,,,,,,,,,,,,,,,,,,,,,,,,,,,,sub-107,1.0,random_dot,59.87518419121263,
right,right,speed,,,,,0.0,1.0,1.0,1.0,19.0,0.0,38.0,1.0,423.1707654000056,,,,,,,,,423.1580052999998,423.5209883000061,424.32132880000427,424.3046875,424.3047456000058,424.32132880000427,424.32132880000427,424.32132880000427,425.1055656000026,right,1.0,17.606030099996133,,,,,,,,,,,,,,,,,,,,,,,,,,,,,,sub-107,1.0,random_dot,59.87518419121263,
left,left,speed,,,,,0.0,1.0,1.0,1.0,19.0,1.0,39.0,0.0,425.1197024000066,,,,,,,,,425.1066299000013,425.9193054000061,426.72016900000017,426.7042691000024,426.7043226000024,426.72016900000017,426.72016900000017,426.72016900000017,427.4557731000023,left,1.0,17.5690079999913,,,,,,,,,,,,,,,,,,,,,,,,,,,,,,sub-107,1.0,random_dot,59.87518419121263,
right,right,speed,,,,,0.0,1.0,1.0,1.0,20.0,0.0,40.0,1.0,427.4680657000063,,,,,,,,,427.4570831000019,427.5683233000018,428.368799200005,428.3535327999998,428.35357130000193,428.368799200005,428.368799200005,428.368799200005,429.2709262000062,right,1.0,17.736302799996338,,,,,,,,,,,,,,,,,,,,,,,,,,,,,,sub-107,1.0,random_dot,59.87518419121263,
left,left,speed,,,,,0.0,1.0,1.0,1.0,20.0,1.0,41.0,0.0,429.2837756000008,,,,,,,,,429.2720915000027,430.0834335000036,430.8848068000007,430.867216000006,430.8672430000006,430.8848068000007,430.8848068000007,430.8848068000007,431.9522582000063,left,1.0,17.90210919999663,,,,,,,,,,,,,,,,,,,,,,,,,,,,,,sub-107,1.0,random_dot,59.87518419121263,
right,right,speed,,,,,0.0,1.0,1.0,1.0,21.0,0.0,42.0,1.0,431.9653572000025,,,,,,,,,431.9533698000014,433.16461370000616,433.9650744000028,433.9499161000058,433.9499667000055,433.9650744000028,433.9650744000028,433.9650744000028,434.9833515999999,right,1.0,17.84112649999588,,,,,,,,,,,,,,,,,,,,,,,,,,,,,,sub-107,1.0,random_dot,59.87518419121263,
left,left,speed,,,,,0.0,1.0,1.0,1.0,21.0,1.0,43.0,0.0,434.99698720000015,,,,,,,,,434.9843075000026,435.3464302000066,436.1471174000035,436.1315761000005,436.1316189999998,436.1471174000035,436.1471174000035,436.1471174000035,436.84822220000206,left,1.0,17.532063200000266,,,,,,,,,,,,,,,,,,,,,,,,,,,,,,sub-107,1.0,random_dot,59.87518419121263,
left,left,speed,,,,,0.0,1.0,1.0,1.0,22.0,0.0,44.0,0.0,436.8624231000067,,,,,,,,,436.84936780000135,436.9621605000066,437.76276599999983,437.747013500004,437.7470841000031,437.76276599999983,437.76276599999983,437.76276599999983,439.6957774000039,left,1.0,18.755113100000017,,,,,,,,,,,,,,,,,,,,,,,,,,,,,,sub-107,1.0,random_dot,59.87518419121263,
right,right,speed,,,,,0.0,1.0,1.0,1.0,22.0,1.0,45.0,1.0,439.7101447000023,,,,,,,,,439.69669710000016,440.0602351000052,440.86075379999966,440.8454813999997,440.8455266000019,440.86075379999966,440.86075379999966,440.86075379999966,442.5952201000037,left,0.0,18.55903679999756,,,,,,,,,,,,,,,,,,,,,,,,,,,,,,sub-107,1.0,random_dot,59.87518419121263,
right,right,speed,,,,,0.0,1.0,1.0,1.0,23.0,0.0,46.0,1.0,442.6085355000032,,,,,,,,,442.59680020000087,443.4079861999999,444.2085436000052,444.1929058000024,444.1929933000065,444.2085436000052,444.2085436000052,444.2085436000052,446.2762780000048,right,1.0,18.89393929999642,,,,,,,,,,,,,,,,,,,,,,,,,,,,,,sub-107,1.0,random_dot,59.87518419121263,
left,left,speed,,,,,0.0,1.0,1.0,1.0,23.0,1.0,47.0,0.0,446.2896330000003,,,,,,,,,446.2772871000052,447.4888975000067,448.2896624000059,448.2734223000007,448.2734583000056,448.2896624000059,448.2896624000059,448.2896624000059,449.2070593000026,left,1.0,17.742298599994683,,,,,,,,,,,,,,,,,,,,,,,,,,,,,,sub-107,1.0,random_dot,59.87518419121263,
left,left,speed,,,,,0.0,1.0,1.0,1.0,24.0,0.0,48.0,0.0,449.2210266000038,,,,,,,,,449.2079857000063,450.42073170000367,451.2211749000053,451.2043297000055,451.2043843000065,451.2211749000053,451.2211749000053,451.2211749000053,453.97074160000193,left,1.0,19.58392489999824,,,,,,,,,,,,,,,,,,,,,,,,,,,,,,sub-107,1.0,random_dot,59.87518419121263,
right,right,speed,,,,,0.0,1.0,1.0,1.0,24.0,1.0,49.0,1.0,453.9850158000045,,,,,,,,,453.97179300000425,455.184096200006,455.98457100000087,455.9679939000053,455.96803770000406,455.98457100000087,455.98457100000087,455.98457100000087,457.2854161000069,right,1.0,18.132162899994,,,,,,,,,,,,,,,,,,,,,,,,,,,,,,sub-107,1.0,random_dot,59.87518419121263,
left,left,speed,,,,,0.0,1.0,1.0,1.0,25.0,0.0,50.0,0.0,457.2990759000022,,,,,,,,,457.28663360000064,457.3993338,458.1995874000058,458.1833753000028,458.1834012000036,458.1995874000058,458.1995874000058,458.1995874000058,461.116074000005,left,1.0,19.74718189999112,,,,,,,,,,,,,,,,,,,,,,,,,,,,,,sub-107,1.0,random_dot,59.87518419121263,
right,right,speed,,,,,0.0,1.0,1.0,1.0,25.0,1.0,51.0,1.0,461.1300049000056,,,,,,,,,461.1171668000025,461.4799267000053,462.28075780000654,462.26408820000506,462.26411130000633,462.28075780000654,462.28075780000654,462.28075780000654,463.4989099000013,right,1.0,18.048138999998628,,,,,,,,,,,,,,,,,,,,,,,,,,,,,,sub-107,1.0,random_dot,59.87518419121263,
left,left,speed,,,,,0.0,1.0,1.0,1.0,26.0,0.0,52.0,0.0,463.5122839000032,,,,,,,,,463.5008916000006,463.86224760000187,464.66243750000285,464.6456804000045,464.6457158000048,464.66243750000285,464.66243750000285,464.66243750000285,465.6794062000045,left,1.0,17.838042700001097,,,,,,,,,,,,,,,,,,,,,,,,,,,,,,sub-107,1.0,random_dot,59.87518419121263,
right,right,speed,,,,,0.0,1.0,1.0,1.0,26.0,1.0,53.0,1.0,465.693992600005,,,,,,,,,465.6802523000006,465.7938712000032,466.5945587000024,466.57817369999975,466.578196800001,466.5945587000024,466.5945587000024,466.5945587000024,467.5624831000023,right,1.0,17.78833450000093,,,,,,,,,,,,,,,,,,,,,,,,,,,,,,sub-107,1.0,random_dot,59.87518419121263,
left,left,speed,,,,,0.0,1.0,1.0,1.0,27.0,0.0,54.0,0.0,467.576298,,,,,,,,,467.5640437000038,468.77527700000064,469.5760156000033,469.5601801000012,469.560207100003,469.5760156000033,469.5760156000033,469.5760156000033,470.1774914000053,left,1.0,17.43081909999455,,,,,,,,,,,,,,,,,,,,,,,,,,,,,,sub-107,1.0,random_dot,59.87518419121263,
right,right,speed,,,,,0.0,1.0,1.0,1.0,27.0,1.0,55.0,1.0,470.190980600004,,,,,,,,,470.17886590000126,470.99087169999984,471.7911350000068,471.7748659000063,471.7749107000054,471.7911350000068,471.7911350000068,471.7911350000068,472.5104438000053,right,1.0,17.553528399999777,,,,,,,,,,,,,,,,,,,,,,,,,,,,,,sub-107,1.0,random_dot,59.87518419121263,
right,right,speed,,,,,0.0,1.0,1.0,1.0,28.0,0.0,56.0,1.0,472.5228456000041,,,,,,,,,472.51148130000365,472.6230786000015,473.42355490000045,473.4071914000015,473.4072143000012,473.42355490000045,473.42355490000045,473.42355490000045,474.59122000000207,left,0.0,18.00106589999632,,,,,,,,,,,,,,,,,,,,,,,,,,,,,,sub-107,1.0,random_dot,59.87518419121263,
left,left,speed,,,,,0.0,1.0,1.0,1.0,28.0,1.0,57.0,0.0,474.60501240000303,,,,,,,,,474.5922823000001,475.80459350000456,476.6049659000055,476.589118200005,476.5891480000064,476.6049659000055,476.6049659000055,476.6049659000055,477.2721369000064,left,1.0,17.500957499993092,,,,,,,,,,,,,,,,,,,,,,,,,,,,,,sub-107,1.0,random_dot,59.87518419121263,
right,right,speed,,,,,0.0,1.0,1.0,1.0,29.0,0.0,58.0,1.0,477.28665820000606,,,,,,,,,477.27310710000165,478.48586950000026,479.2863361000054,479.269620900006,479.269641400002,479.2863361000054,479.2863361000054,479.2863361000054,479.88783940000576,right,1.0,17.428530899996986,,,,,,,,,,,,,,,,,,,,,,,,,,,,,,sub-107,1.0,random_dot,59.87518419121263,
left,left,speed,,,,,0.0,1.0,1.0,1.0,29.0,1.0,59.0,0.0,479.90164560000267,,,,,,,,,479.8892133000045,480.2516399000015,481.05215950000274,481.0356161000018,481.0356491000057,481.05215950000274,481.05215950000274,481.05215950000274,481.7861431000056,left,1.0,17.562760399996478,,,,,,,,,,,,,,,,,,,,,,,,,,,,,,sub-107,1.0,random_dot,59.87518419121263,
,,speed,,,,,0.0,1.0,1.0,1.0,,,,,,,,,,,,,,,,,,,,,,,,,,,,,,,,,,,,,,,,,,,,,,,,,,,,,,,sub-107,1.0,random_dot,59.87518419121263,
,,,,,,,,,,,,,,,,,,,,,,,,,,,,,,,,,,,,,,,,,,,,,,,,,,,,,,,,,,,,,,,481.7868757000033,481.8006666000001,sub-107,,,,
