direction,corrAns,randomInstr,practice_trials.thisRepN,practice_trials.thisTrialN,practice_trials.thisN,practice_trials.thisIndex,instr_trials.thisRepN,instr_trials.thisTrialN,instr_trials.thisN,instr_trials.thisIndex,test_trials.thisRepN,test_trials.thisTrialN,test_trials.thisN,test_trials.thisIndex,thisRow.t,notes,general_instruction.started,textGeneralInstr.started,respGeneralInstr.started,general_instruction.stopped,respGeneralInstr.keys,respGeneralInstr.rt,respGeneralInstr.duration,ITI.started,fixcross.started,fixcross.stopped,ITI.stopped,dots.started,backgroundDots.started,stimulusDots.started,respDots.started,stimulusDots.stopped,dots.stopped,respDots.keys,respDots.corr,respDots.rt,respDots.duration,feedback.started,textFeedback.started,feedback.stopped,textFeedback.stopped,info.started,textInfo.started,keyRespInfo.started,info.stopped,keyRespInfo.keys,keyRespInfo.rt,keyRespInfo.duration,test_instruction.started,textTestInstr.started,respTestInstr.started,test_instruction.stopped,respTestInstr.keys,respTestInstr.rt,respTestInstr.duration,random_instruction.started,textRandomInstr.started,respRandomInstr.started,random_instruction.stopped,respRandomInstr.keys,respRandomInstr.rt,respRandomInstr.duration,goodbye.started,textGoodbye.started,textGoodbye.stopped,goodbye.stopped,participant,session,expName,frameRate,Unnamed: 74
,,,,,,,,,,,,,,,,,0.0138766999998551,0.0199462000000494,0.0199462000000494,26.961070199999995,space,51.58702100000119,,,,,,,,,,,,,,,,,,,,,,,,,,,,,,,,,,,,,,,,,,,,,sub-056,1.0,random_dot,60.01010570190295,
right,right,,0.0,0.0,0.0,1.0,,,,,,,,,27.01967979999972,,,,,,,,,27.014241399999264,27.325603899999805,28.12634219999927,28.11012889999984,28.110162599999967,28.12634219999927,28.12634219999927,28.12634219999927,33.109798299999966,38.01127240000005,right,1.0,34.53562130000046,,38.01288729999942,38.02788469999996,38.52608799999962,,,,,,,,,,,,,,,,,,,,,,,,,,,sub-056,1.0,random_dot,60.01010570190295,
left,left,,0.0,1.0,1.0,0.0,,,,,,,,,38.54244969999945,,,,,,,,,38.52660930000002,39.325759800000014,40.12631609999971,40.1101036,40.110140099999626,40.12631609999971,40.12631609999971,40.12631609999971,45.1094493999999,47.44468830000005,right,0.0,31.96771760000047,,47.44525599999997,47.4607847999996,47.95917349999945,,,,,,,,,,,,,,,,,,,,,,,,,,,sub-056,1.0,random_dot,60.01010570190295,
right,right,,1.0,0.0,2.0,1.0,,,,,,,,,47.97560599999997,,,,,,,,,47.95999549999942,48.05895969999983,48.85974139999962,48.84410939999998,48.84415739999986,48.85974139999962,48.85974139999962,48.85974139999962,53.859710099999575,54.46101599999929,right,1.0,30.242488900000357,,54.46159169999919,54.47562629999993,54.96008029999939,54.97568259999935,,,,,,,,,,,,,,,,,,,,,,,,,,sub-056,1.0,random_dot,60.01010570190295,
left,left,,1.0,1.0,3.0,0.0,,,,,,,,,54.97568259999935,,,,,,,,,54.9607490999997,55.07557479999923,55.876362699999845,55.859997499999736,55.86002609999923,55.876362699999845,55.876362699999845,55.876362699999845,60.85963289999927,65.39590469999985,left,1.0,34.16613360000065,,65.39676849999978,65.40924479999921,65.89361479999934,65.90904210000008,,,,,,,,,,,,,,,,,,,,,,,,,,sub-056,1.0,random_dot,60.01010570190295,
right,right,,2.0,0.0,4.0,1.0,,,,,,,,,65.90904210000008,,,,,,,,,65.89464169999974,67.10895889999938,67.9098314999992,67.89305759999934,67.89308729999993,67.9098314999992,67.9098314999992,67.9098314999992,72.89289099999951,74.66109069999948,right,1.0,31.403457500000517,,74.6616353999998,74.67562809999981,75.15954789999978,75.17589109999972,,,,,,,,,,,,,,,,,,,,,,,,,,sub-056,1.0,random_dot,60.01010570190295,
left,left,,2.0,1.0,5.0,0.0,,,,,,,,,75.17589109999972,,,,,,,,,75.15994030000002,75.52574339999956,76.32626879999953,76.30987839999943,76.30991139999969,76.32626879999953,76.32626879999953,76.32626879999953,,81.21115649999956,left,1.0,29.533511700001327,,81.2121647999993,81.2257026999996,81.71034539999982,81.72560449999946,,,,,,,,,,,,,,,,,,,,,,,,,,sub-056,1.0,random_dot,60.01010570190295,
right,right,,3.0,0.0,6.0,1.0,,,,,,,,,81.72560449999946,,,,,,,,,81.71093979999932,81.82574279999972,82.62630459999946,82.6100037999995,82.61003439999968,82.62630459999946,82.62630459999946,82.62630459999946,,84.91112429999976,left,0.0,26.93534010000076,,84.91204319999997,84.9255336999995,85.41036459999941,85.42570389999946,,,,,,,,,,,,,,,,,,,,,,,,,,sub-056,1.0,random_dot,60.01010570190295,
left,left,,3.0,1.0,7.0,0.0,,,,,,,,,85.42570389999946,,,,,,,,,85.41095749999931,86.6255257999992,87.4264048999994,87.41029179999987,87.41033509999943,87.4264048999994,87.4264048999994,87.4264048999994,,89.22806629999923,left,1.0,26.44708840000021,,89.22895449999942,89.24218079999991,89.72628420000001,89.74213799999961,,,,,,,,,,,,,,,,,,,,,,,,,,sub-056,1.0,random_dot,60.01010570190295,
left,left,,4.0,0.0,8.0,0.0,,,,,,,,,89.74213799999961,,,,,,,,,89.72677739999926,89.84219809999922,90.6428389999992,90.62646399999994,90.62649149999925,90.6428389999992,90.6428389999992,90.6428389999992,,92.32781889999931,left,1.0,26.32723200000055,,92.32868719999988,92.34221669999988,92.8264365999994,92.84203759999946,,,,,,,,,,,,,,,,,,,,,,,,,,sub-056,1.0,random_dot,60.01010570190295,
right,right,,4.0,1.0,9.0,1.0,,,,,,,,,92.84203759999946,,,,,,,,,92.82712349999927,93.64220299999944,94.442943,94.42660989999968,94.4266448999997,94.442943,94.442943,94.442943,,95.74455099999976,right,1.0,25.9436424000005,,95.74544569999944,95.75886039999932,96.24386179999964,96.25903919999928,,,,,,,,,,,,,,,,,,,,,,,,,,sub-056,1.0,random_dot,60.01010570190295,
left,left,,5.0,0.0,10.0,0.0,,,,,,,,,96.25903919999928,,,,,,,,,96.24494520000007,97.05915879999976,97.8595747999998,97.84339809999985,97.84343409999929,97.8595747999998,97.8595747999998,97.8595747999998,,101.24423659999955,right,0.0,28.02554560000044,,101.24514610000006,101.25880879999931,101.74310129999958,101.75898059999965,,,,,,,,,,,,,,,,,,,,,,,,,,sub-056,1.0,random_dot,60.01010570190295,
right,right,,5.0,1.0,11.0,1.0,,,,,,,,,101.75898059999965,,,,,,,,,101.74353389999942,102.10881599999992,102.90945469999951,102.89272970000002,102.89275139999972,102.90945469999951,102.90945469999951,102.90945469999951,,105.0113922999999,right,1.0,26.745629800000643,,105.01229859999968,105.02553839999928,105.50982729999942,105.52593069999966,,,,,,,,,,,,,,,,,,,,,,,,,,sub-056,1.0,random_dot,60.01010570190295,
left,left,,6.0,0.0,12.0,0.0,,,,,,,,,105.52593069999966,,,,,,,,,105.51024869999948,106.7256693999998,107.5261129999999,107.509951,107.50998989999972,107.5261129999999,107.5261129999999,107.5261129999999,,110.37768309999956,left,1.0,27.492991400000392,,110.37825379999958,110.39236249999976,110.87710100000004,110.89249279999969,,,,,,,,,,,,,,,,,,,,,,,,,,sub-056,1.0,random_dot,60.01010570190295,
right,right,,6.0,1.0,13.0,1.0,,,,,,,,,110.89249279999969,,,,,,,,,110.87815169999976,111.24211709999965,112.04305359999944,112.0266133999994,112.02664839999944,112.04305359999944,112.04305359999944,112.04305359999944,,113.24470649999968,right,1.0,25.84814420000021,,113.24576869999964,113.2590169999994,113.74310960000004,113.75920069999938,,,,,,,,,,,,,,,,,,,,,,,,,,sub-056,1.0,random_dot,60.01010570190295,
right,right,,7.0,0.0,14.0,1.0,,,,,,,,,113.75920069999938,,,,,,,,,113.74374089999948,113.85895939999956,114.65972639999929,114.6435918999996,114.6436475999999,114.65972639999929,114.65972639999929,114.65972639999929,,115.51140579999992,left,0.0,25.49732270000095,,115.51241269999991,115.5256873999997,116.01014829999986,116.02555109999956,,,,,,,,,,,,,,,,,,,,,,,,,,sub-056,1.0,random_dot,60.01010570190295,
left,left,,7.0,1.0,15.0,0.0,,,,,,,,,116.02555109999956,,,,,,,,,116.01093129999936,116.12565199999972,116.92619709999964,116.90993999999957,116.90997439999956,116.92619709999964,116.92619709999964,116.92619709999964,,121.4779826999993,left,1.0,29.20501240000067,,121.47932159999982,121.4923433999993,121.97671349999928,121.9921904999992,,,,,,,,,,,,,,,,,,,,,,,,,,sub-056,1.0,random_dot,60.01010570190295,
right,right,,8.0,0.0,16.0,1.0,,,,,,,,,121.9921904999992,,,,,,,,,121.97747419999996,122.79240739999932,123.59284799999932,123.57668319999992,123.5767191999994,123.59284799999932,123.59284799999932,123.59284799999932,,125.26073149999957,right,1.0,26.30638370000088,,125.2613425999998,125.27558859999954,125.75982440000008,125.7755029,,,,,,,,,,,,,,,,,,,,,,,,,,sub-056,1.0,random_dot,60.01010570190295,
left,left,,8.0,1.0,17.0,0.0,,,,,,,,,125.7755029,,,,,,,,,125.7604883999993,125.87573089999933,126.6762374,126.66031849999943,126.66037400000005,126.6762374,126.6762374,126.6762374,,128.06122109999978,left,1.0,26.0261816000002,,128.06212520000008,128.07572489999984,128.5598001999997,128.57535879999978,,,,,,,,,,,,,,,,,,,,,,,,,,sub-056,1.0,random_dot,60.01010570190295,
left,left,,9.0,0.0,18.0,0.0,,,,,,,,,128.57535879999978,,,,,,,,,128.56048789999932,129.37568800000008,130.17618709999988,130.15966089999984,130.1596915,130.17618709999988,130.17618709999988,130.17618709999988,,132.59457829999974,left,1.0,27.066775199999935,,132.5951198999992,132.60886279999977,133.0933230999999,133.10891850000007,,,,,,,,,,,,,,,,,,,,,,,,,,sub-056,1.0,random_dot,60.01010570190295,
right,right,,9.0,1.0,19.0,1.0,,,,,,,,,133.10891850000007,,,,,,,,,133.0940686999993,133.45897559999958,134.2597636999999,134.24369019999995,134.24372799999946,134.2597636999999,134.2597636999999,134.2597636999999,,135.7954766999992,right,1.0,26.179089500000373,,135.79636019999998,135.80911250000008,136.29357789999997,136.30897749999986,,,,,,,,,,,,,,,,,,,,,,,,,,sub-056,1.0,random_dot,60.01010570190295,
,,,,,,,,,,,,,,,,,,,,,,,,,,,,,,,,,,,,,,,,,,136.2937291999997,136.30897749999986,136.30897749999986,146.74485379999987,space,35.07802070000071,,,,,,,,,,,,,,,,,,,,sub-056,1.0,random_dot,60.01010570190295,
,,,,,,,,,,,,,,,,,,,,,,,,,,,,,,,,,,,,,,,,,,,,,,,,,146.7449418999995,146.7590866999999,146.7590866999999,154.9772624999996,space,32.857360800000606,,,,,,,,,,,,,sub-056,1.0,random_dot,60.01010570190295,
left,left,accuracy,,,,,0.0,0.0,0.0,0.0,0.0,0.0,0.0,0.0,159.14212749999933,,,,,,,,,159.1370524999993,159.2423050999996,160.04270029999952,160.0265749,160.02661519999947,160.04270029999952,160.04270029999952,160.04270029999952,,161.91067609999936,left,1.0,26.50673840000036,,,,,,,,,,,,,,,,,,,,154.9837854999996,155.01528759999928,155.01528759999928,159.12738850000005,space,28.75379460000022,,,,,,sub-056,1.0,random_dot,60.01010570190295,
right,right,accuracy,,,,,0.0,0.0,0.0,0.0,0.0,1.0,1.0,1.0,161.92539849999957,,,,,,,,,161.91214889999992,162.02550119999978,162.82616149999922,162.81032159999995,162.81035749999955,162.82616149999922,162.82616149999922,162.82616149999922,,163.97750879999967,right,1.0,25.790120100000426,,,,,,,,,,,,,,,,,,,,,,,,,,,,,,,sub-056,1.0,random_dot,60.01010570190295,
right,right,accuracy,,,,,0.0,0.0,0.0,0.0,1.0,0.0,2.0,1.0,163.99216479999995,,,,,,,,,163.97880309999982,165.1923554999994,165.99307270000008,165.9772028999996,165.97724209999978,165.99307270000008,165.99307270000008,165.99307270000008,,167.32850679999956,right,1.0,25.987238400000933,,,,,,,,,,,,,,,,,,,,,,,,,,,,,,,sub-056,1.0,random_dot,60.01010570190295,
left,left,accuracy,,,,,0.0,0.0,0.0,0.0,1.0,1.0,3.0,0.0,167.34228859999985,,,,,,,,,167.33022269999947,168.54199889999927,169.34285240000008,169.3264025999997,169.32643449999978,169.34285240000008,169.34285240000008,169.34285240000008,,172.02820780000002,right,0.0,27.328558000001067,,,,,,,,,,,,,,,,,,,,,,,,,,,,,,,sub-056,1.0,random_dot,60.01010570190295,
right,right,accuracy,,,,,0.0,0.0,0.0,0.0,2.0,0.0,4.0,1.0,172.0421628999993,,,,,,,,,172.0296733999994,172.1424361999998,172.94289389999994,172.92732149999938,172.92736539999987,172.94289389999994,172.94289389999994,172.94289389999994,,174.96216509999977,right,1.0,26.66653100000076,,,,,,,,,,,,,,,,,,,,,,,,,,,,,,,sub-056,1.0,random_dot,60.01010570190295,
left,left,accuracy,,,,,0.0,0.0,0.0,0.0,2.0,1.0,5.0,0.0,174.97572929999933,,,,,,,,,174.96388089999982,175.07563879999998,175.87609389999943,175.85983789999955,175.8598732999999,175.87609389999943,175.87609389999943,175.87609389999943,,177.26100659999975,right,0.0,26.02991580000071,,,,,,,,,,,,,,,,,,,,,,,,,,,,,,,sub-056,1.0,random_dot,60.01010570190295,
right,right,accuracy,,,,,0.0,0.0,0.0,0.0,3.0,0.0,6.0,1.0,177.27532619999965,,,,,,,,,177.26254309999968,177.62540589999935,178.42614799999956,178.41028089999963,178.41032300000006,178.42614799999956,178.42614799999956,178.42614799999956,,180.0780849999992,right,1.0,26.296177900000657,,,,,,,,,,,,,,,,,,,,,,,,,,,,,,,sub-056,1.0,random_dot,60.01010570190295,
left,left,accuracy,,,,,0.0,0.0,0.0,0.0,3.0,1.0,7.0,0.0,180.09201369999937,,,,,,,,,180.07953449999968,180.19210609999936,180.9927106999994,180.97686209999935,180.97689790000004,180.9927106999994,180.9927106999994,180.9927106999994,,182.0115055999995,left,1.0,25.65739130000111,,,,,,,,,,,,,,,,,,,,,,,,,,,,,,,sub-056,1.0,random_dot,60.01010570190295,
right,right,accuracy,,,,,0.0,0.0,0.0,0.0,4.0,0.0,8.0,1.0,182.02591089999987,,,,,,,,,182.01346659999945,182.12577109999984,182.92643849999968,182.91031649999968,182.91034889999992,182.92643849999968,182.92643849999968,182.92643849999968,,184.27832390000003,right,1.0,26.00112100000024,,,,,,,,,,,,,,,,,,,,,,,,,,,,,,,sub-056,1.0,random_dot,60.01010570190295,
left,left,accuracy,,,,,0.0,0.0,0.0,0.0,4.0,1.0,9.0,0.0,184.2922252999997,,,,,,,,,184.28021719999924,184.6424817999996,185.44308490000003,185.42700019999936,185.42703449999956,185.44308490000003,185.44308490000003,185.44308490000003,,186.6284034,left,1.0,25.82742370000051,,,,,,,,,,,,,,,,,,,,,,,,,,,,,,,sub-056,1.0,random_dot,60.01010570190295,
left,left,accuracy,,,,,0.0,0.0,0.0,0.0,5.0,0.0,10.0,0.0,186.6423105999993,,,,,,,,,186.63104769999973,186.74224759999925,187.54288339999948,187.52647389999947,187.5265088999995,187.54288339999948,187.54288339999948,187.54288339999948,,188.41087119999972,right,0.0,25.51137370000106,,,,,,,,,,,,,,,,,,,,,,,,,,,,,,,sub-056,1.0,random_dot,60.01010570190295,
right,right,accuracy,,,,,0.0,0.0,0.0,0.0,5.0,1.0,11.0,1.0,188.4252909999996,,,,,,,,,188.41261809999924,188.52530359999943,189.3264341999993,189.3104798999993,189.3105194,189.3264341999993,189.3264341999993,189.3264341999993,,190.92832109999927,right,1.0,26.248613800000385,,,,,,,,,,,,,,,,,,,,,,,,,,,,,,,sub-056,1.0,random_dot,60.01010570190295,
right,right,accuracy,,,,,0.0,0.0,0.0,0.0,6.0,0.0,12.0,1.0,190.94247559999985,,,,,,,,,190.93083979999935,192.14236879999956,192.9426186000001,192.92623139999975,192.92626429999927,192.9426186000001,192.9426186000001,192.9426186000001,,196.24516629999923,right,1.0,27.95125650000045,,,,,,,,,,,,,,,,,,,,,,,,,,,,,,,sub-056,1.0,random_dot,60.01010570190295,
left,left,accuracy,,,,,0.0,0.0,0.0,0.0,6.0,1.0,13.0,0.0,196.25911610000003,,,,,,,,,196.24707919999943,197.0589923999996,197.85971699999936,197.8438127999998,197.84384640000007,197.85971699999936,197.85971699999936,197.85971699999936,202.84297519999927,203.56071879999945,right,0.0,30.348736900000404,,,,,,,,,,,,,,,,,,,,,,,,,,,,,,,sub-056,1.0,random_dot,60.01010570190295,
right,right,accuracy,,,,,0.0,0.0,0.0,0.0,7.0,0.0,14.0,1.0,203.5753169999998,,,,,,,,,203.56183909999984,203.9259509999993,204.72617979999995,204.71030419999988,204.71033629999965,204.72617979999995,204.72617979999995,204.72617979999995,,207.41205629999968,right,1.0,27.33662770000137,,,,,,,,,,,,,,,,,,,,,,,,,,,,,,,sub-056,1.0,random_dot,60.01010570190295,
left,left,accuracy,,,,,0.0,0.0,0.0,0.0,7.0,1.0,15.0,0.0,207.4256183999996,,,,,,,,,207.4139037999994,207.5257477999994,208.32642609999948,208.3105595999996,208.3105971999994,208.32642609999948,208.32642609999948,208.32642609999948,,209.89396140000008,right,0.0,26.215717900000527,,,,,,,,,,,,,,,,,,,,,,,,,,,,,,,sub-056,1.0,random_dot,60.01010570190295,
right,right,accuracy,,,,,0.0,0.0,0.0,0.0,8.0,0.0,16.0,1.0,209.9086662,,,,,,,,,209.89567649999933,210.25893069999984,211.05976939999985,211.0434286,211.04346480000004,211.05976939999985,211.05976939999985,211.05976939999985,,213.0619674,right,1.0,26.644345300000168,,,,,,,,,,,,,,,,,,,,,,,,,,,,,,,sub-056,1.0,random_dot,60.01010570190295,
left,left,accuracy,,,,,0.0,0.0,0.0,0.0,8.0,1.0,17.0,0.0,213.07567449999988,,,,,,,,,213.06381969999984,213.17556729999976,213.97592799999984,213.95985440000004,213.9598851000001,213.97592799999984,213.97592799999984,213.97592799999984,,216.3945981999996,right,0.0,27.060837100000757,,,,,,,,,,,,,,,,,,,,,,,,,,,,,,,sub-056,1.0,random_dot,60.01010570190295,
right,right,accuracy,,,,,0.0,0.0,0.0,0.0,9.0,0.0,18.0,1.0,216.4088347999996,,,,,,,,,216.3967464999996,216.5086150999996,217.30928820000008,217.29283829999983,217.2928728999996,217.30928820000008,217.30928820000008,217.30928820000008,,217.36084739999933,right,1.0,24.693455300000096,,,,,,,,,,,,,,,,,,,,,,,,,,,,,,,sub-056,1.0,random_dot,60.01010570190295,
left,left,accuracy,,,,,0.0,0.0,0.0,0.0,9.0,1.0,19.0,0.0,217.3752670999993,,,,,,,,,217.36262579999948,217.72577469999945,218.5261135000001,218.51002319999952,218.51006030000008,218.5261135000001,218.5261135000001,218.5261135000001,,222.27904529999975,right,0.0,28.39983860000029,,,,,,,,,,,,,,,,,,,,,,,,,,,,,,,sub-056,1.0,random_dot,60.01010570190295,
left,left,accuracy,,,,,0.0,0.0,0.0,0.0,10.0,0.0,20.0,0.0,222.2924424999992,,,,,,,,,222.2810217999995,222.39227269999992,223.19290629999975,223.17711289999988,223.1771640999996,223.19290629999975,223.19290629999975,223.19290629999975,,225.69501599999967,left,1.0,27.1430663000001,,,,,,,,,,,,,,,,,,,,,,,,,,,,,,,sub-056,1.0,random_dot,60.01010570190295,
right,right,accuracy,,,,,0.0,0.0,0.0,0.0,10.0,1.0,21.0,1.0,225.70890659999984,,,,,,,,,225.69699760000003,226.9088660999996,227.7098202999996,227.6935924999998,227.6936259999993,227.7098202999996,227.7098202999996,227.7098202999996,,229.1608168999992,left,0.0,26.10091200000079,,,,,,,,,,,,,,,,,,,,,,,,,,,,,,,sub-056,1.0,random_dot,60.01010570190295,
left,left,accuracy,,,,,0.0,0.0,0.0,0.0,11.0,0.0,22.0,0.0,229.17523600000004,,,,,,,,,229.16185059999955,229.97579330000008,230.77628529999947,230.7600227999992,230.76005739999985,230.77628529999947,230.77628529999947,230.77628529999947,,231.7293125999995,right,0.0,25.59450360000119,,,,,,,,,,,,,,,,,,,,,,,,,,,,,,,sub-056,1.0,random_dot,60.01010570190295,
right,right,accuracy,,,,,0.0,0.0,0.0,0.0,11.0,1.0,23.0,1.0,231.74231989999956,,,,,,,,,231.7312052999996,232.09228669999996,232.89300839999945,232.87688059999985,232.87691369999996,232.89300839999945,232.89300839999945,232.89300839999945,,235.54503579999985,left,0.0,27.290994099999807,,,,,,,,,,,,,,,,,,,,,,,,,,,,,,,sub-056,1.0,random_dot,60.01010570190295,
left,left,accuracy,,,,,0.0,0.0,0.0,0.0,12.0,0.0,24.0,0.0,235.5589633,,,,,,,,,235.5470464,235.90900379999948,236.7095086999998,236.6935096999996,236.6935429999994,236.7095086999998,236.7095086999998,236.7095086999998,,238.59498110000004,left,1.0,26.53075220000028,,,,,,,,,,,,,,,,,,,,,,,,,,,,,,,sub-056,1.0,random_dot,60.01010570190295,
right,right,accuracy,,,,,0.0,0.0,0.0,0.0,12.0,1.0,25.0,1.0,238.60889409999984,,,,,,,,,238.5969712999995,238.70899719999943,239.50948619999963,239.4937778999993,239.4938132999996,239.50948619999963,239.50948619999963,239.50948619999963,,240.6950928999995,left,0.0,25.8266349000005,,,,,,,,,,,,,,,,,,,,,,,,,,,,,,,sub-056,1.0,random_dot,60.01010570190295,
right,right,accuracy,,,,,0.0,0.0,0.0,0.0,13.0,0.0,26.0,1.0,240.70893119999985,,,,,,,,,240.6969928999997,241.50895989999933,242.30963530000008,242.29371959999932,242.2937525999996,242.30963530000008,242.30963530000008,242.30963530000008,,244.5115483,left,0.0,26.85233810000045,,,,,,,,,,,,,,,,,,,,,,,,,,,,,,,sub-056,1.0,random_dot,60.01010570190295,
left,left,accuracy,,,,,0.0,0.0,0.0,0.0,13.0,1.0,27.0,0.0,244.52561949999927,,,,,,,,,244.51343329999963,244.87549709999985,245.6761093999994,245.66007439999976,245.6601101999995,245.6761093999994,245.6761093999994,245.6761093999994,,247.3619145999992,left,1.0,26.338117799999964,,,,,,,,,,,,,,,,,,,,,,,,,,,,,,,sub-056,1.0,random_dot,60.01010570190295,
left,left,accuracy,,,,,0.0,0.0,0.0,0.0,14.0,0.0,28.0,0.0,247.37546049999943,,,,,,,,,247.3637725999997,247.7255428999997,248.5262705999994,248.51033259999983,248.5103664999997,248.5262705999994,248.5262705999994,248.5262705999994,,249.5446083999996,left,1.0,25.66883990000133,,,,,,,,,,,,,,,,,,,,,,,,,,,,,,,sub-056,1.0,random_dot,60.01010570190295,
right,right,accuracy,,,,,0.0,0.0,0.0,0.0,14.0,1.0,29.0,1.0,249.5590704999995,,,,,,,,,249.5467368999998,250.7590014999996,251.55952249999973,251.54352049999943,251.5435541999996,251.55952249999973,251.55952249999973,251.55952249999973,,255.42825379999977,left,0.0,28.508162200000697,,,,,,,,,,,,,,,,,,,,,,,,,,,,,,,sub-056,1.0,random_dot,60.01010570190295,
left,left,accuracy,,,,,0.0,0.0,0.0,0.0,15.0,0.0,30.0,0.0,255.44213369999943,,,,,,,,,255.43032559999935,256.24228199999925,257.0428607999993,257.02675349999936,257.0267866999993,257.0428607999993,257.0428607999993,257.0428607999993,,259.5121623999994,left,1.0,27.11078110000108,,,,,,,,,,,,,,,,,,,,,,,,,,,,,,,sub-056,1.0,random_dot,60.01010570190295,
right,right,accuracy,,,,,0.0,0.0,0.0,0.0,15.0,1.0,31.0,1.0,259.52538729999924,,,,,,,,,259.5140322999996,260.7253656999992,261.5261258999999,261.5101662999996,261.51021239999955,261.5261258999999,261.5261258999999,261.5261258999999,,264.3622698999998,left,0.0,27.475547500001085,,,,,,,,,,,,,,,,,,,,,,,,,,,,,,,sub-056,1.0,random_dot,60.01010570190295,
left,left,accuracy,,,,,0.0,0.0,0.0,0.0,16.0,0.0,32.0,0.0,264.37533019999955,,,,,,,,,264.3640360999998,264.7255888999998,265.52615220000007,265.5106583999996,265.5107029999999,265.52615220000007,265.52615220000007,265.52615220000007,,269.67728589999933,left,1.0,28.79736080000021,,,,,,,,,,,,,,,,,,,,,,,,,,,,,,,sub-056,1.0,random_dot,60.01010570190295,
right,right,accuracy,,,,,0.0,0.0,0.0,0.0,16.0,1.0,33.0,1.0,269.6918096999998,,,,,,,,,269.6788551,270.04208049999943,270.8426666999994,270.82671279999977,270.8267468999993,270.8426666999994,270.8426666999994,270.8426666999994,,273.5947619999997,left,0.0,27.39488890000121,,,,,,,,,,,,,,,,,,,,,,,,,,,,,,,sub-056,1.0,random_dot,60.01010570190295,
left,left,accuracy,,,,,0.0,0.0,0.0,0.0,17.0,0.0,34.0,0.0,273.60898759999964,,,,,,,,,273.59656240000004,274.40890820000004,275.20914809999977,275.19286139999986,275.1928905999994,275.20914809999977,275.20914809999977,275.20914809999977,,278.3106535999996,left,1.0,27.74848360000124,,,,,,,,,,,,,,,,,,,,,,,,,,,,,,,sub-056,1.0,random_dot,60.01010570190295,
right,right,accuracy,,,,,0.0,0.0,0.0,0.0,17.0,1.0,35.0,1.0,278.32505369999944,,,,,,,,,278.3123149999992,278.4254057999997,279.2259383999999,279.2103068999995,279.21034619999955,279.2259383999999,279.2259383999999,279.2259383999999,,281.1779803999998,right,1.0,26.601207500000783,,,,,,,,,,,,,,,,,,,,,,,,,,,,,,,sub-056,1.0,random_dot,60.01010570190295,
left,left,accuracy,,,,,0.0,0.0,0.0,0.0,18.0,0.0,36.0,0.0,281.1923700999996,,,,,,,,,281.17993469999965,281.2923019,282.0928897999993,282.07673499999964,282.0767718999996,282.0928897999993,282.0928897999993,282.0928897999993,,284.9778486999994,left,1.0,27.53711900000053,,,,,,,,,,,,,,,,,,,,,,,,,,,,,,,sub-056,1.0,random_dot,60.01010570190295,
right,right,accuracy,,,,,0.0,0.0,0.0,0.0,18.0,1.0,37.0,1.0,284.99225729999944,,,,,,,,,284.9799205999998,286.1919236999993,286.99294889999965,286.9768030999994,286.9768365,286.99294889999965,286.99294889999965,286.99294889999965,,288.5786380999998,left,0.0,26.22749990000011,,,,,,,,,,,,,,,,,,,,,,,,,,,,,,,sub-056,1.0,random_dot,60.01010570190295,
left,left,accuracy,,,,,0.0,0.0,0.0,0.0,19.0,0.0,38.0,0.0,288.5919764999999,,,,,,,,,288.58055819999936,289.3922769999999,290.19288009999946,290.1769435999995,290.1769904999992,290.19288009999946,290.19288009999946,290.19288009999946,,292.37802959999954,left,1.0,26.831486900000527,,,,,,,,,,,,,,,,,,,,,,,,,,,,,,,sub-056,1.0,random_dot,60.01010570190295,
right,right,accuracy,,,,,0.0,0.0,0.0,0.0,19.0,1.0,39.0,1.0,292.39214679999986,,,,,,,,,292.3800324999993,292.7423549999994,293.54271489999974,293.5269768999997,293.5270105999998,293.54271489999974,293.54271489999974,293.54271489999974,,294.7620214999997,right,1.0,25.87089000000105,,,,,,,,,,,,,,,,,,,,,,,,,,,,,,,sub-056,1.0,random_dot,60.01010570190295,
right,right,accuracy,,,,,0.0,0.0,0.0,0.0,20.0,0.0,40.0,1.0,294.77571219999936,,,,,,,,,294.76392940000005,295.12548329999936,295.9259609999999,295.9098890999994,295.90992449999976,295.9259609999999,295.9259609999999,295.9259609999999,,298.26120059999994,right,1.0,26.986805200001072,,,,,,,,,,,,,,,,,,,,,,,,,,,,,,,sub-056,1.0,random_dot,60.01010570190295,
left,left,accuracy,,,,,0.0,0.0,0.0,0.0,20.0,1.0,41.0,0.0,298.2755411999997,,,,,,,,,298.2631429999992,298.6255844999996,299.42619769999965,299.40994279999995,299.40997609999977,299.42619769999965,299.42619769999965,299.42619769999965,,300.2287785999997,left,1.0,25.45351280000068,,,,,,,,,,,,,,,,,,,,,,,,,,,,,,,sub-056,1.0,random_dot,60.01010570190295,
right,right,accuracy,,,,,0.0,0.0,0.0,0.0,21.0,0.0,42.0,1.0,300.24201749999975,,,,,,,,,300.2307215999999,301.4422267,302.24272369999926,302.2269966999993,302.22702949999984,302.24272369999926,302.24272369999926,302.24272369999926,,305.7280974999994,right,1.0,28.13356610000028,,,,,,,,,,,,,,,,,,,,,,,,,,,,,,,sub-056,1.0,random_dot,60.01010570190295,
left,left,accuracy,,,,,0.0,0.0,0.0,0.0,21.0,1.0,43.0,0.0,305.74202049999985,,,,,,,,,305.73001810000005,306.0921024,306.89228639999965,306.87571299999945,306.87574069999937,306.89228639999965,306.89228639999965,306.89228639999965,,307.8777993999993,left,1.0,25.628786799999943,,,,,,,,,,,,,,,,,,,,,,,,,,,,,,,sub-056,1.0,random_dot,60.01010570190295,
left,left,accuracy,,,,,0.0,0.0,0.0,0.0,22.0,0.0,44.0,0.0,307.8920742999999,,,,,,,,,307.87967949999984,307.9919848999998,308.7926303999993,308.7773312999998,308.7773645999996,308.7926303999993,308.7926303999993,308.7926303999993,,309.9279085999997,left,1.0,25.77732130000004,,,,,,,,,,,,,,,,,,,,,,,,,,,,,,,sub-056,1.0,random_dot,60.01010570190295,
right,right,accuracy,,,,,0.0,0.0,0.0,0.0,22.0,1.0,45.0,1.0,309.94217559999925,,,,,,,,,309.9298339999996,311.1420343,311.94279689999985,311.92664349999995,311.9266785,311.94279689999985,311.94279689999985,311.94279689999985,,313.1779936999992,right,1.0,25.873076100000617,,,,,,,,,,,,,,,,,,,,,,,,,,,,,,,sub-056,1.0,random_dot,60.01010570190295,
left,left,accuracy,,,,,0.0,0.0,0.0,0.0,23.0,0.0,46.0,0.0,313.19202229999973,,,,,,,,,313.1798896999999,314.3922961999997,315.19260829999985,315.1766061999997,315.1766499999994,315.19260829999985,315.19260829999985,315.19260829999985,,316.89499029999934,right,0.0,26.35464310000043,,,,,,,,,,,,,,,,,,,,,,,,,,,,,,,sub-056,1.0,random_dot,60.01010570190295,
right,right,accuracy,,,,,0.0,0.0,0.0,0.0,23.0,1.0,47.0,1.0,316.9086663999997,,,,,,,,,316.89677630000006,318.10865979999926,318.9092434999993,318.8937449999994,318.8937787999994,318.9092434999993,318.9092434999993,318.9092434999993,,321.9945781999995,right,1.0,27.734047500001,,,,,,,,,,,,,,,,,,,,,,,,,,,,,,,sub-056,1.0,random_dot,60.01010570190295,
left,left,accuracy,,,,,0.0,0.0,0.0,0.0,24.0,0.0,48.0,0.0,322.0088416999997,,,,,,,,,321.9965420999997,323.20866750000005,324.00955410000006,323.9934328999998,323.9934657999993,324.00955410000006,324.00955410000006,324.00955410000006,,324.91121589999966,left,1.0,25.54019930000049,,,,,,,,,,,,,,,,,,,,,,,,,,,,,,,sub-056,1.0,random_dot,60.01010570190295,
right,right,accuracy,,,,,0.0,0.0,0.0,0.0,24.0,1.0,49.0,1.0,324.92537189999985,,,,,,,,,324.91327,325.2754688999994,326.0760445999995,326.0602317999992,326.0602698999992,326.0760445999995,326.0760445999995,326.0760445999995,,328.81106009999985,right,1.0,27.377524200001066,,,,,,,,,,,,,,,,,,,,,,,,,,,,,,,sub-056,1.0,random_dot,60.01010570190295,
right,right,accuracy,,,,,0.0,0.0,0.0,0.0,25.0,0.0,50.0,1.0,328.8253350999994,,,,,,,,,328.81292929999927,328.9254256999993,329.7261433999993,329.71004189999985,329.7100754999992,329.7261433999993,329.7261433999993,329.7261433999993,,331.72791639999923,left,0.0,26.65058620000127,,,,,,,,,,,,,,,,,,,,,,,,,,,,,,,sub-056,1.0,random_dot,60.01010570190295,
left,left,accuracy,,,,,0.0,0.0,0.0,0.0,25.0,1.0,51.0,0.0,331.74201339999945,,,,,,,,,331.7301521999998,332.54214909999973,333.342756,333.32666919999974,333.3267025999994,333.342756,333.342756,333.342756,,335.0115249999999,left,1.0,26.315073400000077,,,,,,,,,,,,,,,,,,,,,,,,,,,,,,,sub-056,1.0,random_dot,60.01010570190295,
left,left,accuracy,,,,,0.0,0.0,0.0,0.0,26.0,0.0,52.0,0.0,335.02525849999984,,,,,,,,,335.01343389999965,335.3755795999996,336.17573639999955,336.15986449999946,336.1598981999996,336.17573639999955,336.17573639999955,336.17573639999955,,338.2939345999994,left,1.0,26.76047910000034,,,,,,,,,,,,,,,,,,,,,,,,,,,,,,,sub-056,1.0,random_dot,60.01010570190295,
right,right,accuracy,,,,,0.0,0.0,0.0,0.0,26.0,1.0,53.0,1.0,338.30839789999936,,,,,,,,,338.2952343999996,338.6583719,339.45896730000004,339.4428031999996,339.4428410999999,339.45896730000004,339.45896730000004,339.45896730000004,,341.6941774999996,right,1.0,26.878795800000265,,,,,,,,,,,,,,,,,,,,,,,,,,,,,,,sub-056,1.0,random_dot,60.01010570190295,
left,left,accuracy,,,,,0.0,0.0,0.0,0.0,27.0,0.0,54.0,0.0,341.7085382999994,,,,,,,,,341.6955814999992,342.90858769999977,343.7091972999997,343.6929077999994,343.69294569999965,343.7091972999997,343.7091972999997,343.7091972999997,,345.59436749999986,left,1.0,26.53439850000086,,,,,,,,,,,,,,,,,,,,,,,,,,,,,,,sub-056,1.0,random_dot,60.01010570190295,
right,right,accuracy,,,,,0.0,0.0,0.0,0.0,27.0,1.0,55.0,1.0,345.60841679999976,,,,,,,,,345.5963941,345.9587122999992,346.75920509999924,346.7441098999998,346.74417730000005,346.75920509999924,346.75920509999924,346.75920509999924,,348.3107639,right,1.0,26.197093400000995,,,,,,,,,,,,,,,,,,,,,,,,,,,,,,,sub-056,1.0,random_dot,60.01010570190295,
left,left,accuracy,,,,,0.0,0.0,0.0,0.0,28.0,0.0,56.0,0.0,348.3251281999992,,,,,,,,,348.3117644999993,348.4251562999998,349.2256219000001,349.2094709999992,349.2095079999999,349.2256219000001,349.2256219000001,349.2256219000001,,351.7615544,left,1.0,27.175282600000173,,,,,,,,,,,,,,,,,,,,,,,,,,,,,,,sub-056,1.0,random_dot,60.01010570190295,
right,right,accuracy,,,,,0.0,0.0,0.0,0.0,28.0,1.0,57.0,1.0,351.7754553999994,,,,,,,,,351.7635115999992,351.8751992999996,352.67593469999974,352.6600320999996,352.66006539999944,352.67593469999974,352.67593469999974,352.67593469999974,,355.04465269999946,right,1.0,27.012766500000907,,,,,,,,,,,,,,,,,,,,,,,,,,,,,,,sub-056,1.0,random_dot,60.01010570190295,
right,right,accuracy,,,,,0.0,0.0,0.0,0.0,29.0,0.0,58.0,1.0,355.0586331999993,,,,,,,,,355.0466026999993,356.2585204999996,357.0591562,357.04258499999924,357.04261419999966,357.0591562,357.0591562,357.0591562,,359.14473589999943,left,0.0,26.727219700001115,,,,,,,,,,,,,,,,,,,,,,,,,,,,,,,sub-056,1.0,random_dot,60.01010570190295,
left,left,accuracy,,,,,0.0,0.0,0.0,0.0,29.0,1.0,59.0,0.0,359.1586993000001,,,,,,,,,359.1465097999999,360.3587011,361.1591910999996,361.1434118999996,361.1434455999997,361.1591910999996,361.1591910999996,361.1591910999996,,363.7449201999998,right,0.0,27.234713900001225,,,,,,,,,,,,,,,,,,,,,,,,,,,,,,,sub-056,1.0,random_dot,60.01010570190295,
,,accuracy,,,,,0.0,0.0,0.0,0.0,,,,,,,,,,,,,,,,,,,,,,,,,,,,,,,,,,,,,,,,,,,,,,,,,,,,,,,,,sub-056,1.0,random_dot,60.01010570190295,
left,left,speed,,,,,0.0,1.0,1.0,1.0,0.0,0.0,0.0,0.0,385.4964903999999,,,,,,,,,385.4914190999998,385.8418456,386.6425279999994,386.6264367999993,386.6265107999998,386.6425279999994,386.6425279999994,386.6425279999994,,390.57804080000005,left,1.0,28.58565310000085,,,,,,,,,,,,,,,,,,,,363.7466987999997,363.7714944,363.7714944,385.4774690999993,space,46.3524980000002,,,,,,sub-056,1.0,random_dot,60.01010570190295,
right,right,speed,,,,,0.0,1.0,1.0,1.0,0.0,1.0,1.0,1.0,390.5917176999992,,,,,,,,,390.58046879999984,390.9419061999997,391.74279959999967,391.7266432999995,391.7266761000001,391.74279959999967,391.74279959999967,391.74279959999967,,395.47768519999954,left,0.0,28.384262700001276,,,,,,,,,,,,,,,,,,,,,,,,,,,,,,,sub-056,1.0,random_dot,60.01010570190295,
left,left,speed,,,,,0.0,1.0,1.0,1.0,1.0,0.0,2.0,0.0,395.4917685999999,,,,,,,,,395.4795620999994,396.2920199,397.0924943,397.0766107999998,397.0766543,397.0924943,397.0924943,397.0924943,,398.9442709999994,right,0.0,26.495837600000414,,,,,,,,,,,,,,,,,,,,,,,,,,,,,,,sub-056,1.0,random_dot,60.01010570190295,
right,right,speed,,,,,0.0,1.0,1.0,1.0,1.0,1.0,3.0,1.0,398.9587781999999,,,,,,,,,398.946156,399.7584778999999,400.5592640999994,400.5429606999997,400.5429936999999,400.5592640999994,400.5592640999994,400.5592640999994,,402.0610022000001,left,0.0,26.151271500000803,,,,,,,,,,,,,,,,,,,,,,,,,,,,,,,sub-056,1.0,random_dot,60.01010570190295,
left,left,speed,,,,,0.0,1.0,1.0,1.0,2.0,0.0,4.0,0.0,402.07494059999954,,,,,,,,,402.0624508000001,402.1750030999992,402.9755648999999,402.9592358,402.9592667999996,402.9755648999999,402.9755648999999,402.9755648999999,,405.2283585999994,right,0.0,26.906059000000823,,,,,,,,,,,,,,,,,,,,,,,,,,,,,,,sub-056,1.0,random_dot,60.01010570190295,
right,right,speed,,,,,0.0,1.0,1.0,1.0,2.0,1.0,5.0,1.0,405.24193019999984,,,,,,,,,405.2302179999997,405.5919725999993,406.3925782999995,406.3765337999994,406.3765685999997,406.3925782999995,406.3925782999995,406.3925782999995,,408.2783872,right,1.0,26.53404480000063,,,,,,,,,,,,,,,,,,,,,,,,,,,,,,,sub-056,1.0,random_dot,60.01010570190295,
left,left,speed,,,,,0.0,1.0,1.0,1.0,3.0,0.0,6.0,0.0,408.29161589999967,,,,,,,,,408.2814602999997,409.4918125999993,410.2926978999994,410.2765209999998,410.2765532999993,410.2926978999994,410.2926978999994,410.2926978999994,,411.97789179999927,right,0.0,26.33485660000042,,,,,,,,,,,,,,,,,,,,,,,,,,,,,,,sub-056,1.0,random_dot,60.01010570190295,
right,right,speed,,,,,0.0,1.0,1.0,1.0,3.0,1.0,7.0,1.0,411.9918318999999,,,,,,,,,411.9798877999992,413.1917767999994,413.9925088999999,413.976756,413.9767947999999,413.9925088999999,413.9925088999999,413.9925088999999,,415.34485499999937,right,1.0,25.99238980000064,,,,,,,,,,,,,,,,,,,,,,,,,,,,,,,sub-056,1.0,random_dot,60.01010570190295,
right,right,speed,,,,,0.0,1.0,1.0,1.0,4.0,0.0,8.0,1.0,415.3589173999999,,,,,,,,,415.34674409999934,416.1584786999993,416.9591643999993,416.9430630999996,416.9430990999999,416.9591643999993,416.9591643999993,416.9591643999993,,418.5278230999993,right,1.0,26.21411520000038,,,,,,,,,,,,,,,,,,,,,,,,,,,,,,,sub-056,1.0,random_dot,60.01010570190295,
left,left,speed,,,,,0.0,1.0,1.0,1.0,4.0,1.0,9.0,0.0,418.5419993999994,,,,,,,,,418.52966639999977,419.74177409999993,420.54241529999945,420.5263244999997,420.5263587999998,420.54241529999945,420.54241529999945,420.54241529999945,,422.6612834999996,right,0.0,26.768214600000647,,,,,,,,,,,,,,,,,,,,,,,,,,,,,,,sub-056,1.0,random_dot,60.01010570190295,
right,right,speed,,,,,0.0,1.0,1.0,1.0,5.0,0.0,10.0,1.0,422.6750115999994,,,,,,,,,422.6632012999999,423.8747657999993,424.67572070000006,424.6599585999993,424.6599920999997,424.67572070000006,424.67572070000006,424.67572070000006,,426.02753419999954,right,1.0,25.99656420000065,,,,,,,,,,,,,,,,,,,,,,,,,,,,,,,sub-056,1.0,random_dot,60.01010570190295,
left,left,speed,,,,,0.0,1.0,1.0,1.0,5.0,1.0,11.0,0.0,426.0420004999996,,,,,,,,,426.0294924,426.8418131999997,427.6424287,427.62631109999984,427.6263446999992,427.6424287,427.6424287,427.6424287,432.6258025999996,432.9116199,left,1.0,29.909612400000697,,,,,,,,,,,,,,,,,,,,,,,,,,,,,,,sub-056,1.0,random_dot,60.01010570190295,
left,left,speed,,,,,0.0,1.0,1.0,1.0,6.0,0.0,12.0,0.0,432.9250579,,,,,,,,,432.91349850000006,433.72509209999953,434.5260568999993,434.5102024999997,434.5102462999994,434.5260568999993,434.5260568999993,434.5260568999993,,436.2275258999998,left,1.0,26.339654600001268,,,,,,,,,,,,,,,,,,,,,,,,,,,,,,,sub-056,1.0,random_dot,60.01010570190295,
right,right,speed,,,,,0.0,1.0,1.0,1.0,6.0,1.0,13.0,1.0,436.2418769999995,,,,,,,,,436.2294517,436.5917026999996,437.3920890999998,437.3758324,437.3758680000001,437.3920890999998,437.3920890999998,437.3920890999998,,439.1444163999995,left,0.0,26.39656020000075,,,,,,,,,,,,,,,,,,,,,,,,,,,,,,,sub-056,1.0,random_dot,60.01010570190295,
left,left,speed,,,,,0.0,1.0,1.0,1.0,7.0,0.0,14.0,0.0,439.1584309,,,,,,,,,439.1473514999998,439.5083384,440.3090678999997,440.2929555999999,440.2929887,440.3090678999997,440.3090678999997,440.3090678999997,,441.8942809999999,left,1.0,26.23172849999992,,,,,,,,,,,,,,,,,,,,,,,,,,,,,,,sub-056,1.0,random_dot,60.01010570190295,
right,right,speed,,,,,0.0,1.0,1.0,1.0,7.0,1.0,15.0,1.0,441.9083801999996,,,,,,,,,441.8961092999998,442.7086909999998,443.5092633999993,443.4931436999996,443.4931855999994,443.5092633999993,443.5092633999993,443.5092633999993,448.4923790999992,449.3459869999997,right,1.0,30.47746760000064,,,,,,,,,,,,,,,,,,,,,,,,,,,,,,,sub-056,1.0,random_dot,60.01010570190295,
right,right,speed,,,,,0.0,1.0,1.0,1.0,8.0,0.0,16.0,1.0,449.35851099999945,,,,,,,,,449.3479686999999,450.5583065999999,451.3590602999993,451.3431154,451.3431495999994,451.3590602999993,451.3590602999993,451.3590602999993,,453.46145459999934,left,0.0,26.746353700000327,,,,,,,,,,,,,,,,,,,,,,,,,,,,,,,sub-056,1.0,random_dot,60.01010570190295,
left,left,speed,,,,,0.0,1.0,1.0,1.0,8.0,1.0,17.0,0.0,453.4751266999992,,,,,,,,,453.4633653000001,454.27509669999927,455.0756762000001,455.0596198999992,455.05965359999936,455.0756762000001,455.0756762000001,455.0756762000001,,456.0277466999996,right,0.0,25.59035520000089,,,,,,,,,,,,,,,,,,,,,,,,,,,,,,,sub-056,1.0,random_dot,60.01010570190295,
left,left,speed,,,,,0.0,1.0,1.0,1.0,9.0,0.0,18.0,0.0,456.0419359999996,,,,,,,,,456.0296198999995,456.14173029999984,456.94245749999936,456.9263198999997,456.9263553999999,456.94245749999936,456.94245749999936,456.94245749999936,,457.5778666999995,left,1.0,25.28796790000069,,,,,,,,,,,,,,,,,,,,,,,,,,,,,,,sub-056,1.0,random_dot,60.01010570190295,
right,right,speed,,,,,0.0,1.0,1.0,1.0,9.0,1.0,19.0,1.0,457.59171519999927,,,,,,,,,457.5797137999998,458.79165939999984,459.5922676999999,459.5766819,459.5767161999993,459.5922676999999,459.5922676999999,459.5922676999999,,460.2617823999999,left,0.0,25.31454500000109,,,,,,,,,,,,,,,,,,,,,,,,,,,,,,,sub-056,1.0,random_dot,60.01010570190295,
left,left,speed,,,,,0.0,1.0,1.0,1.0,10.0,0.0,20.0,0.0,460.27521759999945,,,,,,,,,460.2636180999998,460.6250373999992,461.4256220999996,461.4097225999994,461.4097665999998,461.4256220999996,461.4256220999996,461.4256220999996,,462.3279004999995,left,1.0,25.551623600000312,,,,,,,,,,,,,,,,,,,,,,,,,,,,,,,sub-056,1.0,random_dot,60.01010570190295,
right,right,speed,,,,,0.0,1.0,1.0,1.0,10.0,1.0,21.0,1.0,462.34175030000006,,,,,,,,,462.3297249999996,462.6917472999994,463.4923185999996,463.4764210999992,463.4764649999997,463.4923185999996,463.4923185999996,463.4923185999996,,464.6109377999992,left,0.0,25.76846400000068,,,,,,,,,,,,,,,,,,,,,,,,,,,,,,,sub-056,1.0,random_dot,60.01010570190295,
right,right,speed,,,,,0.0,1.0,1.0,1.0,11.0,0.0,22.0,1.0,464.6253350999996,,,,,,,,,464.6128363999997,465.4251313999994,466.225528,466.2092393999992,466.20929350000006,466.225528,466.225528,466.225528,,467.4777776000001,left,0.0,25.8903164000003,,,,,,,,,,,,,,,,,,,,,,,,,,,,,,,sub-056,1.0,random_dot,60.01010570190295,
left,left,speed,,,,,0.0,1.0,1.0,1.0,11.0,1.0,23.0,0.0,467.4919160999998,,,,,,,,,467.4796529999994,468.6918851,469.4923340999994,469.4762880999997,469.4763211,469.4923340999994,469.4923340999994,469.4923340999994,,470.7783096999992,left,1.0,25.925332800000437,,,,,,,,,,,,,,,,,,,,,,,,,,,,,,,sub-056,1.0,random_dot,60.01010570190295,
left,left,speed,,,,,0.0,1.0,1.0,1.0,12.0,0.0,24.0,0.0,470.79169959999945,,,,,,,,,470.7801798999999,470.89191219999975,471.6921591,471.67670009999983,471.6767373999992,471.6921591,471.6921591,471.6921591,,473.19434479999927,left,1.0,26.147107500000857,,,,,,,,,,,,,,,,,,,,,,,,,,,,,,,sub-056,1.0,random_dot,60.01010570190295,
right,right,speed,,,,,0.0,1.0,1.0,1.0,12.0,1.0,25.0,1.0,473.20860509999966,,,,,,,,,473.1962206999997,473.3082543,474.1090279999999,474.0932116999993,474.0932493,474.1090279999999,474.1090279999999,474.1090279999999,,475.177772,right,1.0,25.713708000001134,,,,,,,,,,,,,,,,,,,,,,,,,,,,,,,sub-056,1.0,random_dot,60.01010570190295,
left,left,speed,,,,,0.0,1.0,1.0,1.0,13.0,0.0,26.0,0.0,475.1916373999993,,,,,,,,,475.1796939999995,475.9916162,476.7923533999992,476.77638469999965,476.7764204999994,476.7923533999992,476.7923533999992,476.7923533999992,,477.6615413,left,1.0,25.510512500000917,,,,,,,,,,,,,,,,,,,,,,,,,,,,,,,sub-056,1.0,random_dot,60.01010570190295,
right,right,speed,,,,,0.0,1.0,1.0,1.0,13.0,1.0,27.0,1.0,477.6750237999995,,,,,,,,,477.6633175999996,477.7750231999999,478.5756898999998,478.55963689999953,478.5596808,478.5756898999998,478.5756898999998,478.5756898999998,,479.1609026999995,right,1.0,25.22341490000053,,,,,,,,,,,,,,,,,,,,,,,,,,,,,,,sub-056,1.0,random_dot,60.01010570190295,
left,left,speed,,,,,0.0,1.0,1.0,1.0,14.0,0.0,28.0,0.0,479.1751138,,,,,,,,,479.16272949999984,480.3749990999995,481.1757908999998,481.1598148999992,481.1598555000001,481.1757908999998,481.1757908999998,481.1757908999998,,481.8607947,left,1.0,25.32408020000093,,,,,,,,,,,,,,,,,,,,,,,,,,,,,,,sub-056,1.0,random_dot,60.01010570190295,
right,right,speed,,,,,0.0,1.0,1.0,1.0,14.0,1.0,29.0,1.0,481.8752635999999,,,,,,,,,481.8626718999994,482.67505429999983,483.4758929999998,483.4598883999997,483.4599226999999,483.4758929999998,483.4758929999998,483.4758929999998,,483.8110262999999,right,1.0,24.986705600001187,,,,,,,,,,,,,,,,,,,,,,,,,,,,,,,sub-056,1.0,random_dot,60.01010570190295,
right,right,speed,,,,,0.0,1.0,1.0,1.0,15.0,0.0,30.0,1.0,483.8250896,,,,,,,,,483.8128977999995,484.1751089999998,484.9753714999997,484.9596875999996,484.9597215999993,484.9753714999997,484.9753714999997,484.9753714999997,,485.76290549999976,left,0.0,25.44034610000108,,,,,,,,,,,,,,,,,,,,,,,,,,,,,,,sub-056,1.0,random_dot,60.01010570190295,
left,left,speed,,,,,0.0,1.0,1.0,1.0,15.0,1.0,31.0,0.0,485.7750059999999,,,,,,,,,485.7647749999997,486.9749649999994,487.77569829999993,487.75951279999936,487.7595489999994,487.77569829999993,487.77569829999993,487.77569829999993,,488.61084029999984,left,1.0,25.47399030000088,,,,,,,,,,,,,,,,,,,,,,,,,,,,,,,sub-056,1.0,random_dot,60.01010570190295,
right,right,speed,,,,,0.0,1.0,1.0,1.0,16.0,0.0,32.0,1.0,488.6250942999996,,,,,,,,,488.6127603999994,488.72498169999926,489.5257165999992,489.5095302999998,489.5095646999998,489.5257165999992,489.5257165999992,489.5257165999992,,490.3945336999996,left,0.0,25.519938800001,,,,,,,,,,,,,,,,,,,,,,,,,,,,,,,sub-056,1.0,random_dot,60.01010570190295,
left,left,speed,,,,,0.0,1.0,1.0,1.0,16.0,1.0,33.0,0.0,490.4085470999999,,,,,,,,,490.3963531,491.20821799999976,492.0092789999999,491.99292869999954,491.9929613999993,492.0092789999999,492.0092789999999,492.0092789999999,,492.9941787999997,left,1.0,25.637035800000376,,,,,,,,,,,,,,,,,,,,,,,,,,,,,,,sub-056,1.0,random_dot,60.01010570190295,
left,left,speed,,,,,0.0,1.0,1.0,1.0,17.0,0.0,34.0,0.0,493.0083152999996,,,,,,,,,492.99645019999934,493.3584748999992,494.1589834999995,494.1431044000001,494.1431389,494.1589834999995,494.1589834999995,494.1589834999995,,494.92775809999966,left,1.0,25.419993600000453,,,,,,,,,,,,,,,,,,,,,,,,,,,,,,,sub-056,1.0,random_dot,60.01010570190295,
right,right,speed,,,,,0.0,1.0,1.0,1.0,17.0,1.0,35.0,1.0,494.9416290999998,,,,,,,,,494.9297085999997,495.2916892999992,496.0922892999997,496.0762044999992,496.0762455999993,496.0922892999997,496.0922892999997,496.0922892999997,,496.9774848999996,left,0.0,25.52924990000065,,,,,,,,,,,,,,,,,,,,,,,,,,,,,,,sub-056,1.0,random_dot,60.01010570190295,
left,left,speed,,,,,0.0,1.0,1.0,1.0,18.0,0.0,36.0,0.0,496.9916141999993,,,,,,,,,496.9793553999998,497.7916170999997,498.5917912999994,498.5756322999996,498.5756654999996,498.5917912999994,498.5917912999994,498.5917912999994,,500.2109578,left,1.0,26.26852940000117,,,,,,,,,,,,,,,,,,,,,,,,,,,,,,,sub-056,1.0,random_dot,60.01010570190295,
right,right,speed,,,,,0.0,1.0,1.0,1.0,18.0,1.0,37.0,1.0,500.2249693999993,,,,,,,,,500.2127597999997,501.4249194999993,502.2256625999999,502.2096567999997,502.20969089999926,502.2256625999999,502.2256625999999,502.2256625999999,,503.0124667999999,left,0.0,25.43952640000134,,,,,,,,,,,,,,,,,,,,,,,,,,,,,,,sub-056,1.0,random_dot,60.01010570190295,
right,right,speed,,,,,0.0,1.0,1.0,1.0,19.0,0.0,38.0,1.0,503.0251546999998,,,,,,,,,503.0143320999996,503.12515389999953,503.9255441999994,503.9095934999996,503.9096307,503.9255441999994,503.9255441999994,503.9255441999994,,504.8109144999999,left,0.0,25.525707700000567,,,,,,,,,,,,,,,,,,,,,,,,,,,,,,,sub-056,1.0,random_dot,60.01010570190295,
left,left,speed,,,,,0.0,1.0,1.0,1.0,19.0,1.0,39.0,0.0,504.8248465999996,,,,,,,,,504.8127875,505.6251478999993,506.4257521999998,506.4094281999997,506.4094623000001,506.4257521999998,506.4257521999998,506.4257521999998,,507.5948908999999,left,1.0,25.82147150000037,,,,,,,,,,,,,,,,,,,,,,,,,,,,,,,sub-056,1.0,random_dot,60.01010570190295,
left,left,speed,,,,,0.0,1.0,1.0,1.0,20.0,0.0,40.0,0.0,507.6082168999992,,,,,,,,,507.5970177999998,507.7083718999993,508.5087693999994,508.4927055999997,508.4927412999996,508.5087693999994,508.5087693999994,508.5087693999994,,512.0276623,left,1.0,28.167991000000256,,,,,,,,,,,,,,,,,,,,,,,,,,,,,,,sub-056,1.0,random_dot,60.01010570190295,
right,right,speed,,,,,0.0,1.0,1.0,1.0,20.0,1.0,41.0,1.0,512.0417460999997,,,,,,,,,512.0295180999992,512.3915766,513.1922007999992,513.1761214999997,513.1761699999997,513.1922007999992,513.1922007999992,513.1922007999992,,515.7109235999997,right,1.0,27.158142100000987,,,,,,,,,,,,,,,,,,,,,,,,,,,,,,,sub-056,1.0,random_dot,60.01010570190295,
left,left,speed,,,,,0.0,1.0,1.0,1.0,21.0,0.0,42.0,0.0,515.7249322999996,,,,,,,,,515.7127630999994,516.0750273999993,516.8756362999993,516.8593667999994,516.8594002999998,516.8756362999993,516.8756362999993,516.8756362999993,,517.7789788999999,left,1.0,25.556630900000528,,,,,,,,,,,,,,,,,,,,,,,,,,,,,,,sub-056,1.0,random_dot,60.01010570190295,
right,right,speed,,,,,0.0,1.0,1.0,1.0,21.0,1.0,43.0,1.0,517.7916805999994,,,,,,,,,517.7810016999993,518.9915825999997,519.7922441000001,519.7764094999993,519.7764463999993,519.7922441000001,519.7922441000001,519.7922441000001,,520.7441460999999,right,1.0,25.60094420000132,,,,,,,,,,,,,,,,,,,,,,,,,,,,,,,sub-056,1.0,random_dot,60.01010570190295,
right,right,speed,,,,,0.0,1.0,1.0,1.0,22.0,0.0,44.0,1.0,520.7581796999993,,,,,,,,,520.7460689,520.8584858999993,521.6588185999999,521.6434566999997,521.6434917999995,521.6588185999999,521.6588185999999,521.6588185999999,,523.3449309999996,right,1.0,26.33031150000079,,,,,,,,,,,,,,,,,,,,,,,,,,,,,,,sub-056,1.0,random_dot,60.01010570190295,
left,left,speed,,,,,0.0,1.0,1.0,1.0,22.0,1.0,45.0,0.0,523.3582090999998,,,,,,,,,523.3467973999996,523.7081383999994,524.5088374999996,524.4928378999994,524.4928706999999,524.5088374999996,524.5088374999996,524.5088374999996,,525.3607093999999,right,0.0,25.49051100000088,,,,,,,,,,,,,,,,,,,,,,,,,,,,,,,sub-056,1.0,random_dot,60.01010570190295,
right,right,speed,,,,,0.0,1.0,1.0,1.0,23.0,0.0,46.0,1.0,525.3749491999997,,,,,,,,,525.3625738999999,525.7250519999998,526.5256136999997,526.5096840999995,526.5097179999993,526.5256136999997,526.5256136999997,526.5256136999997,,527.4941450999995,right,1.0,25.60700480000105,,,,,,,,,,,,,,,,,,,,,,,,,,,,,,,sub-056,1.0,random_dot,60.01010570190295,
left,left,speed,,,,,0.0,1.0,1.0,1.0,23.0,1.0,47.0,0.0,527.5084548999994,,,,,,,,,527.4967645999996,527.8583897999997,528.658786,528.6432261999998,528.6432668999996,528.658786,528.658786,528.658786,,529.7613627000001,right,0.0,25.747399500000935,,,,,,,,,,,,,,,,,,,,,,,,,,,,,,,sub-056,1.0,random_dot,60.01010570190295,
right,right,speed,,,,,0.0,1.0,1.0,1.0,24.0,0.0,48.0,1.0,529.7747260999995,,,,,,,,,529.7632745000001,530.974921,531.7757511,531.7595388999998,531.7595719999999,531.7757511,531.7757511,531.7757511,,532.7280756,left,0.0,25.60362000000077,,,,,,,,,,,,,,,,,,,,,,,,,,,,,,,sub-056,1.0,random_dot,60.01010570190295,
left,left,speed,,,,,0.0,1.0,1.0,1.0,24.0,1.0,49.0,0.0,532.7416682999992,,,,,,,,,532.7298616999997,533.0916656999998,533.8921916999998,533.8762133,533.8762452999999,533.8921916999998,533.8921916999998,533.8921916999998,,535.0778407999996,left,1.0,25.83739480000077,,,,,,,,,,,,,,,,,,,,,,,,,,,,,,,sub-056,1.0,random_dot,60.01010570190295,
left,left,speed,,,,,0.0,1.0,1.0,1.0,25.0,0.0,50.0,0.0,535.0913917999997,,,,,,,,,535.0802199999998,535.8914816999995,536.6922068999993,536.6760557999996,536.6760887,536.6922068999993,536.6922068999993,536.6922068999993,,537.7275116999999,left,1.0,25.682144399999743,,,,,,,,,,,,,,,,,,,,,,,,,,,,,,,sub-056,1.0,random_dot,60.01010570190295,
right,right,speed,,,,,0.0,1.0,1.0,1.0,25.0,1.0,51.0,1.0,537.7416048999994,,,,,,,,,537.7292998999992,537.8416122999997,538.6423878999994,538.6261369999993,538.6261701999993,538.6423878999994,538.6423878999994,538.6423878999994,,540.2108442999997,left,0.0,26.220402700000704,,,,,,,,,,,,,,,,,,,,,,,,,,,,,,,sub-056,1.0,random_dot,60.01010570190295,
right,right,speed,,,,,0.0,1.0,1.0,1.0,26.0,0.0,52.0,1.0,540.2247485999997,,,,,,,,,540.2128798999993,540.3248680999995,541.1253313999996,541.1094372999996,541.1094715999998,541.1253313999996,541.1253313999996,541.1253313999996,,542.1941711,left,0.0,25.71909710000091,,,,,,,,,,,,,,,,,,,,,,,,,,,,,,,sub-056,1.0,random_dot,60.01010570190295,
left,left,speed,,,,,0.0,1.0,1.0,1.0,26.0,1.0,53.0,0.0,542.2082611999995,,,,,,,,,542.1960777999993,543.4082458999992,544.2089731999995,544.1930437000001,544.1930773999993,544.2089731999995,544.2089731999995,544.2089731999995,,546.1943097999992,left,1.0,26.63258190000033,,,,,,,,,,,,,,,,,,,,,,,,,,,,,,,sub-056,1.0,random_dot,60.01010570190295,
right,right,speed,,,,,0.0,1.0,1.0,1.0,27.0,0.0,54.0,1.0,546.2080545999997,,,,,,,,,546.1962531999998,546.5583457999992,547.3590527999995,547.3428924999998,547.3429331999996,547.3590527999995,547.3590527999995,547.3590527999995,,548.2607588999999,left,0.0,25.54813850000028,,,,,,,,,,,,,,,,,,,,,,,,,,,,,,,sub-056,1.0,random_dot,60.01010570190295,
left,left,speed,,,,,0.0,1.0,1.0,1.0,27.0,1.0,55.0,0.0,548.2749664999992,,,,,,,,,548.2626352999996,549.0748273999998,549.8754537999994,549.8592948999994,549.8593353999995,549.8754537999994,549.8754537999994,549.8754537999994,,550.7783882999993,left,1.0,25.546256300000096,,,,,,,,,,,,,,,,,,,,,,,,,,,,,,,sub-056,1.0,random_dot,60.01010570190295,
right,right,speed,,,,,0.0,1.0,1.0,1.0,28.0,0.0,56.0,1.0,550.7914684999996,,,,,,,,,550.7805450999995,551.1415917999993,551.9421293999994,551.9263579999997,551.9263996999998,551.9421293999994,551.9421293999994,551.9421293999994,,552.7444220999996,left,0.0,25.44754970000122,,,,,,,,,,,,,,,,,,,,,,,,,,,,,,,sub-056,1.0,random_dot,60.01010570190295,
left,left,speed,,,,,0.0,1.0,1.0,1.0,28.0,1.0,57.0,0.0,552.7582309999998,,,,,,,,,552.7462529999993,553.1081992999998,553.9087621999997,553.8927887,553.8928219999998,553.9087621999997,553.9087621999997,553.9087621999997,,554.8607505,left,1.0,25.596323000000663,,,,,,,,,,,,,,,,,,,,,,,,,,,,,,,sub-056,1.0,random_dot,60.01010570190295,
right,right,speed,,,,,0.0,1.0,1.0,1.0,29.0,0.0,58.0,1.0,554.8747776999999,,,,,,,,,554.8627005999997,554.9749777999996,555.7756559999998,555.7597618999998,555.7597951999996,555.7756559999998,555.7756559999998,555.7756559999998,,556.8610607,left,0.0,25.73630830000093,,,,,,,,,,,,,,,,,,,,,,,,,,,,,,,sub-056,1.0,random_dot,60.01010570190295,
left,left,speed,,,,,0.0,1.0,1.0,1.0,29.0,1.0,59.0,0.0,556.8747068999992,,,,,,,,,556.8635234999992,556.9746735999997,557.7755170999999,557.7602588999998,557.7602921999996,557.7755170999999,557.7755170999999,557.7755170999999,,558.5449939,left,1.0,25.40883230000054,,,,,,,,,,,,,,,,,,,,,,,,,,,,,,,sub-056,1.0,random_dot,60.01010570190295,
,,speed,,,,,0.0,1.0,1.0,1.0,,,,,,,,,,,,,,,,,,,,,,,,,,,,,,,,,,,,,,,,,,,,,,,,,,,,,,,,,sub-056,1.0,random_dot,60.01010570190295,
,,,,,,,,,,,,,,,,,,,,,,,,,,,,,,,,,,,,,,,,,,,,,,,,,,,,,,,,,,,,,,,558.5464259999999,558.5580891,563.5581523999999,563.5429672999999,sub-056,,,,
