wordCTK,colorCTK,corrAnsCTK,congruentCTK,thisN,thisTrialN,thisRepN,keyResp_CTK.keys,keyResp_CTK.corr,keyResp_CTK.rt,keyResp_CTK.duration,wordPractice,colorPractice,corrAnsPractice,congruentPractice,respPractice.keys,respPractice.corr,respPractice.rt,respPractice.duration,word,color,corrAns,congruent,keyResp_test_run.keys,keyResp_test_run.corr,keyResp_test_run.rt,keyResp_test_run.duration,trials_CTK.thisRepN,trials_CTK.thisTrialN,trials_CTK.thisN,trials_CTK.thisIndex,trials_practice.thisRepN,trials_practice.thisTrialN,trials_practice.thisN,trials_practice.thisIndex,trials_test.thisRepN,trials_test.thisTrialN,trials_test.thisN,trials_test.thisIndex,thisRow.t,notes,instruction.started,instr_text.started,instr_image.started,instr_resp.started,instruction.stopped,instr_resp.keys,instr_resp.rt,instr_resp.duration,instr_color_to_key.started,instr_ctk.started,resp_ctk.started,instr_color_to_key.stopped,resp_ctk.keys,resp_ctk.rt,resp_ctk.duration,ITI.started,fixcross.started,fixcross.stopped,ITI.stopped,color_to_key_run.started,stimulus_CTK.started,keyResp_CTK.started,color_to_key_run.stopped,trials_CTK.keyResp_CTK.keys,trials_CTK.keyResp_CTK.corr,trials_CTK.keyResp_CTK.rt,trials_CTK.keyResp_CTK.duration,instr_practice.started,instr_practice_text.started,instr_practice_resp.started,instr_practice.stopped,instr_practice_resp.keys,instr_practice_resp.rt,instr_practice_resp.duration,practice_run.started,stimulus_practice.started,respPractice.started,practice_run.stopped,trials_practice.respPractice.keys,trials_practice.respPractice.corr,trials_practice.respPractice.rt,trials_practice.respPractice.duration,feedback.started,textFeedback.started,feedback.stopped,textFeedback.stopped,instr_test.started,instr_test_text.started,instr_test_resp.started,instr_test.stopped,instr_test_resp.keys,instr_test_resp.rt,instr_test_resp.duration,test_run.started,stimulus_test_run.started,keyResp_test_run.started,test_run.stopped,trials_test.keyResp_test_run.keys,trials_test.keyResp_test_run.corr,trials_test.keyResp_test_run.rt,trials_test.keyResp_test_run.duration,goodbye.started,textGoodbye.started,textGoodbye.stopped,goodbye.stopped,participant,session,expName,frameRate,Unnamed: 113
,,,,,,,,,,,,,,,,,,,,,,,,,,,,,,,,,,,,,,,,,0.0044040000066161,0.0315571000101044,0.0315571000101044,0.0315571000101044,20.900248000049032,space,20.85523969994392,,,,,,,,,,,,,,,,,,,,,,,,,,,,,,,,,,,,,,,,,,,,,,,,,,,,,,,,,,,sub-006,1,stroop_test,60.414783760947095,
,,,,,,,,,,,,,,,,,,,,,,,,,,,,,,,,,,,,,,,,,,,,,,,,,20.900331300101243,20.914928100071847,20.914928100071847,26.568084300030023,space,5.64690730010625,,,,,,,,,,,,,,,,,,,,,,,,,,,,,,,,,,,,,,,,,,,,,,,,,,,,sub-006,1,stroop_test,60.414783760947095,
test,blue,b,1.0,0.0,0.0,0.0,b,1.0,1.2629070000257343,,,,,,,,,,,,,,,,,,0.0,0.0,0.0,2.0,,,,,,,,,26.58393880003132,,,,,,,,,,,,,,,,,26.578972900053486,27.38171770004556,28.18345520005096,28.1665882000234,28.177295900066383,28.18345520005096,28.18345520005096,29.45050989999436,b,1.0,1.2629070000257343,,,,,,,,,,,,,,,,,,,,,,,,,,,,,,,,,,,,,,,,sub-006,1,stroop_test,60.414783760947095,
test,red,r,1.0,1.0,1.0,0.0,r,1.0,0.7561700000660494,,,,,,,,,,,,,,,,,,0.0,1.0,1.0,0.0,,,,,,,,,29.46504180005286,,,,,,,,,,,,,,,,,29.4509212000994,29.56492200004868,30.365118500078097,30.349016900057904,30.349399400060065,30.365118500078097,30.365118500078097,31.13202960009221,r,1.0,0.7561700000660494,,,,,,,,,,,,,,,,,,,,,,,,,,,,,,,,,,,,,,,,sub-006,1,stroop_test,60.414783760947095,
test,yellow,g,1.0,2.0,2.0,0.0,g,1.0,0.4973229999886825,,,,,,,,,,,,,,,,,,0.0,2.0,2.0,1.0,,,,,,,,,31.14791000005789,,,,,,,,,,,,,,,,,31.13224890001584,32.33159160008654,33.131909000105225,33.11617300007492,33.11673000000883,33.131909000105225,33.131909000105225,33.63424130005296,g,1.0,0.4973229999886825,,,,,,,,,,,,,,,,,,,,,,,,,,,,,,,,,,,,,,,,sub-006,1,stroop_test,60.414783760947095,
test,blue,b,1.0,3.0,0.0,1.0,b,1.0,0.5769616999896243,,,,,,,,,,,,,,,,,,1.0,0.0,3.0,2.0,,,,,,,,,33.6482916000532,,,,,,,,,,,,,,,,,33.63469980005175,33.74857360008173,34.54840080009308,34.53295200003777,34.533510100096464,34.54840080009308,34.54840080009308,35.13445000001229,b,1.0,0.5769616999896243,,,,,,,,,,,,,,,,,,,,,,,,,,,,,,,,,,,,,,,,sub-006,1,stroop_test,60.414783760947095,
test,yellow,g,1.0,4.0,1.0,1.0,g,1.0,0.5802256999304518,,,,,,,,,,,,,,,,,,1.0,1.0,4.0,1.0,,,,,,,,,35.14824790006969,,,,,,,,,,,,,,,,,35.13492680003401,35.49855640006717,36.29838610009756,36.28333390003536,36.28413470007945,36.29838610009756,36.29838610009756,36.88398939999752,g,1.0,0.5802256999304518,,,,,,,,,,,,,,,,,,,,,,,,,,,,,,,,,,,,,,,,sub-006,1,stroop_test,60.414783760947095,
test,red,r,1.0,5.0,2.0,1.0,r,1.0,0.7213303999742493,,,,,,,,,,,,,,,,,,1.0,2.0,5.0,0.0,,,,,,,,,36.89828200009652,,,,,,,,,,,,,,,,,36.88442280003801,37.69815470010508,38.498449700069614,38.48301090009045,38.48373810003977,38.498449700069614,38.498449700069614,39.23400280007627,r,1.0,0.7213303999742493,,,,,,,,,,,,,,,,,,,,,,,,,,,,,,,,,,,,,,,,sub-006,1,stroop_test,60.414783760947095,
test,red,r,1.0,6.0,0.0,2.0,r,1.0,0.56492359994445,,,,,,,,,,,,,,,,,,2.0,0.0,6.0,0.0,,,,,,,,,39.24836250010412,,,,,,,,,,,,,,,,,39.23449270008132,39.34850830002688,40.14827180001885,40.133100300095975,40.13399080000818,40.14827180001885,40.14827180001885,40.71732050005812,r,1.0,0.56492359994445,,,,,,,,,,,,,,,,,,,,,,,,,,,,,,,,,,,,,,,,sub-006,1,stroop_test,60.414783760947095,
test,blue,b,1.0,7.0,1.0,2.0,b,1.0,0.4760082999709993,,,,,,,,,,,,,,,,,,2.0,1.0,7.0,2.0,,,,,,,,,40.7314086999977,,,,,,,,,,,,,,,,,40.71782440005336,41.93157480005175,42.73177790001501,42.71605090005323,42.716684300103225,42.73177790001501,42.73177790001501,43.21717700001318,b,1.0,0.4760082999709993,,,,,,,,,,,,,,,,,,,,,,,,,,,,,,,,,,,,,,,,sub-006,1,stroop_test,60.414783760947095,
test,yellow,g,1.0,8.0,2.0,2.0,g,1.0,0.552123999921605,,,,,,,,,,,,,,,,,,2.0,2.0,8.0,1.0,,,,,,,,,43.23148459999357,,,,,,,,,,,,,,,,,43.217751200078055,44.03151360002812,44.83191980002448,44.815830500097945,44.81639740010724,44.83191980002448,44.83191980002448,45.40123330010101,g,1.0,0.552123999921605,,,,,,,,,,,,,,,,,,,,,,,,,,,,,,,,,,,,,,,,sub-006,1,stroop_test,60.414783760947095,
test,yellow,g,1.0,9.0,0.0,3.0,g,1.0,0.4570796999614686,,,,,,,,,,,,,,,,,,3.0,0.0,9.0,1.0,,,,,,,,,45.41498230001889,,,,,,,,,,,,,,,,,45.40178180008661,46.61639610002749,47.43207030009944,47.41638400009833,47.41741410002578,47.43207030009944,47.43207030009944,47.90055800008122,g,1.0,0.4570796999614686,,,,,,,,,,,,,,,,,,,,,,,,,,,,,,,,,,,,,,,,sub-006,1,stroop_test,60.414783760947095,
test,red,r,1.0,10.0,1.0,3.0,r,1.0,0.4717552000656724,,,,,,,,,,,,,,,,,,3.0,1.0,10.0,0.0,,,,,,,,,47.915070000104606,,,,,,,,,,,,,,,,,47.90106860001106,48.26539160008542,49.0653098000912,49.04885960009415,49.04940860008355,49.0653098000912,49.0653098000912,49.55109750002157,r,1.0,0.4717552000656724,,,,,,,,,,,,,,,,,,,,,,,,,,,,,,,,,,,,,,,,sub-006,1,stroop_test,60.414783760947095,
test,blue,b,1.0,11.0,2.0,3.0,b,1.0,0.4979820000007748,,,,,,,,,,,,,,,,,,3.0,2.0,11.0,2.0,,,,,,,,,49.56502400001045,,,,,,,,,,,,,,,,,49.55165550007951,50.36529290000908,51.16532450006344,51.14925090002362,51.14989350002725,51.16532450006344,51.16532450006344,51.66818260005675,b,1.0,0.4979820000007748,,,,,,,,,,,,,,,,,,,,,,,,,,,,,,,,,,,,,,,,sub-006,1,stroop_test,60.414783760947095,
,,,,,,,,,,,,,,,,,,,,,,,,,,,,,,,,,,,,,,,,,,,,,,,,,,,,,,,,,,,,,,,,,,,,51.668469900032505,51.68169170001056,51.68169170001056,57.90026810008567,space,6.207267499994487,,,,,,,,,,,,,,,,,,,,,,,,,,,,,,,,,sub-006,1,stroop_test,60.414783760947095,
,,,,0.0,0.0,0.0,,,,,gelb,yellow,g,1.0,b,0.0,0.5374755999073386,,,,,,,,,,,,,,0.0,0.0,0.0,11.0,,,,,57.9155313000083,,,,,,,,,,,,,,,,,57.91040779999457,58.26485130004585,59.06525540002622,59.04992620006669,,,,,,,,,,,,,,,,59.05950960004702,59.06525540002622,59.06525540002622,59.61723080009688,b,0.0,0.5374755999073386,,59.62807400000747,59.63394490000792,60.63181600009557,,,,,,,,,,,,,,,,,,,,,sub-006,1,stroop_test,60.414783760947095,
,,,,1.0,1.0,0.0,,,,,blau,blue,b,1.0,b,1.0,0.8319859000621364,,,,,,,,,,,,,,0.0,1.0,1.0,6.0,,,,,60.64821520005353,,,,,,,,,,,,,,,,,60.63227840000764,61.43139370006975,62.23107770003844,62.21621420001611,,,,,,,,,,,,,,,,62.22290610009805,62.23107770003844,62.23107770003844,63.06662540009711,b,1.0,0.8319859000621364,,63.07318950002082,63.08105020003859,64.06626220000908,64.08150080009364,,,,,,,,,,,,,,,,,,,,sub-006,1,stroop_test,60.414783760947095,
,,,,2.0,2.0,0.0,,,,,rot,red,r,1.0,r,1.0,0.3889521000673994,,,,,,,,,,,,,,0.0,2.0,2.0,1.0,,,,,64.08150080009364,,,,,,,,,,,,,,,,,64.06680150004104,64.18135220010299,64.98103580006864,64.96643630007748,,,,,,,,,,,,,,,,64.97447300003842,64.98103580006864,64.98103580006864,65.38402600004338,r,1.0,0.3889521000673994,,65.38473270006943,65.39794080005959,66.38230240007397,66.39827700005844,,,,,,,,,,,,,,,,,,,,sub-006,1,stroop_test,60.414783760947095,
,,,,3.0,3.0,0.0,,,,,blau,red,r,0.0,r,1.0,1.3877556000370532,,,,,,,,,,,,,,0.0,3.0,3.0,4.0,,,,,66.39827700005844,,,,,,,,,,,,,,,,,66.38269410002977,67.1978765000822,67.9979499001056,67.98232260008808,,,,,,,,,,,,,,,,67.98554280004464,67.9979499001056,67.9979499001056,69.4009174000239,r,1.0,1.3877556000370532,,69.40174030000344,69.41454150003847,70.39965220005251,70.41468180005904,,,,,,,,,,,,,,,,,,,,sub-006,1,stroop_test,60.414783760947095,
,,,,4.0,4.0,0.0,,,,,blau,blue,b,1.0,b,1.0,0.99460590002127,,,,,,,,,,,,,,0.0,4.0,4.0,5.0,,,,,70.41468180005904,,,,,,,,,,,,,,,,,70.40036570001394,71.61452810000628,72.41464050009381,72.40000600006897,,,,,,,,,,,,,,,,72.40088190010283,72.41464050009381,72.41464050009381,73.41701650002506,b,1.0,0.99460590002127,,73.4178570000222,73.43117110000458,74.41599190002307,74.43132360000163,,,,,,,,,,,,,,,,,,,,sub-006,1,stroop_test,60.414783760947095,
,,,,5.0,5.0,0.0,,,,,rot,yellow,g,0.0,g,1.0,0.8449598998995498,,,,,,,,,,,,,,0.0,5.0,5.0,3.0,,,,,74.43132360000163,,,,,,,,,,,,,,,,,74.41654190002009,75.63164040003903,76.43157760007307,76.41541940008756,,,,,,,,,,,,,,,,76.4190210000379,76.43157760007307,76.43157760007307,77.2834906000644,g,1.0,0.8449598998995498,,77.2841868000105,77.29802450002171,78.28327880008146,78.29821100004483,,,,,,,,,,,,,,,,,,,,sub-006,1,stroop_test,60.414783760947095,
,,,,6.0,6.0,0.0,,,,,gelb,yellow,g,1.0,g,1.0,0.7716851000441238,,,,,,,,,,,,,,0.0,6.0,6.0,10.0,,,,,78.29821100004483,,,,,,,,,,,,,,,,,78.28394870006014,78.39827180001885,79.1982193000149,79.18292490008753,,,,,,,,,,,,,,,,79.18649029999506,79.1982193000149,79.1982193000149,79.983948100009,g,1.0,0.7716851000441238,,79.98477410001215,79.9977377000032,80.98344010009896,80.99776260007638,,,,,,,,,,,,,,,,,,,,sub-006,1,stroop_test,60.414783760947095,
,,,,7.0,7.0,0.0,,,,,rot,red,r,1.0,r,1.0,0.5114505999954417,,,,,,,,,,,,,,0.0,7.0,7.0,0.0,,,,,80.99776260007638,,,,,,,,,,,,,,,,,80.98411130008753,82.19792870001402,82.99808240006678,82.98343930009287,,,,,,,,,,,,,,,,82.98816390009597,82.99808240006678,82.99808240006678,83.5171484000748,r,1.0,0.5114505999954417,,83.51782880001701,83.53144570009317,84.51630440005101,84.53180920006707,,,,,,,,,,,,,,,,,,,,sub-006,1,stroop_test,60.414783760947095,
,,,,8.0,8.0,0.0,,,,,rot,blue,b,0.0,b,1.0,0.9309925000416116,,,,,,,,,,,,,,0.0,8.0,8.0,2.0,,,,,84.53180920006707,,,,,,,,,,,,,,,,,84.5168030000059,84.61522860010155,85.41446490003727,85.39838050003164,,,,,,,,,,,,,,,,85.39897430001292,85.41446490003727,85.41446490003727,86.35179470002186,b,1.0,0.9309925000416116,,86.35256130003836,86.36445790005382,87.34911360009573,87.36481360008474,,,,,,,,,,,,,,,,,,,,sub-006,1,stroop_test,60.414783760947095,
,,,,9.0,9.0,0.0,,,,,blau,yellow,g,0.0,g,1.0,0.9576386999106036,,,,,,,,,,,,,,0.0,9.0,9.0,7.0,,,,,87.36481360008474,,,,,,,,,,,,,,,,,87.34954340010881,88.56458080001175,89.36444760009181,89.34974219999276,,,,,,,,,,,,,,,,89.35377770010382,89.36444760009181,89.36444760009181,90.33445720002057,g,1.0,0.9576386999106036,,90.33517500001471,90.34800300002098,91.33303610002622,91.34810810000636,,,,,,,,,,,,,,,,,,,,sub-006,1,stroop_test,60.414783760947095,
,,,,10.0,10.0,0.0,,,,,gelb,red,r,0.0,r,1.0,0.7315450999885798,,,,,,,,,,,,,,0.0,10.0,10.0,8.0,,,,,91.34810810000636,,,,,,,,,,,,,,,,,91.33359420008492,91.44799770007376,92.24766480003018,92.23225170001388,,,,,,,,,,,,,,,,92.23629200004508,92.24766480003018,92.24766480003018,92.98392010002864,r,1.0,0.7315450999885798,,92.98466910002752,92.99783090001438,93.98256330005825,93.9975100000156,,,,,,,,,,,,,,,,,,,,sub-006,1,stroop_test,60.414783760947095,
,,,,11.0,11.0,0.0,,,,,gelb,blue,b,0.0,b,1.0,0.7396674000192434,,,,,,,,,,,,,,0.0,11.0,11.0,9.0,,,,,93.9975100000156,,,,,,,,,,,,,,,,,93.98310280009171,94.09781800000928,94.8979708000552,94.8828622000292,,,,,,,,,,,,,,,,94.88365560001694,94.8979708000552,94.8979708000552,95.64991730009206,b,1.0,0.7396674000192434,,95.65056560002267,95.66439330007417,96.64945040002932,96.6643479000777,,,,,,,,,,,,,,,,,,,,sub-006,1,stroop_test,60.414783760947095,
,,,,12.0,0.0,1.0,,,,,blau,yellow,g,0.0,g,1.0,0.9090192000148818,,,,,,,,,,,,,,1.0,0.0,12.0,7.0,,,,,96.6643479000777,,,,,,,,,,,,,,,,,96.64999190007802,96.7644932999974,97.5644446000224,97.5490698000649,,,,,,,,,,,,,,,,97.55297930003144,97.5644446000224,97.5644446000224,98.48473450005986,g,1.0,0.9090192000148818,,98.48551940009928,98.49862570001278,99.48362430010457,99.49807450000662,,,,,,,,,,,,,,,,,,,,sub-006,1,stroop_test,60.414783760947095,
,,,,13.0,1.0,1.0,,,,,rot,red,r,1.0,r,1.0,0.6695473999716341,,,,,,,,,,,,,,1.0,1.0,13.0,0.0,,,,,99.49807450000662,,,,,,,,,,,,,,,,,99.48418960010169,99.59838410001248,100.39776060008444,100.38284710003065,,,,,,,,,,,,,,,,100.38671340001748,100.39776060008444,100.39776060008444,101.08425549999812,r,1.0,0.6695473999716341,,101.08497540000826,101.09759410005064,102.08343990007415,102.09762220003176,,,,,,,,,,,,,,,,,,,,sub-006,1,stroop_test,60.414783760947095,
,,,,14.0,2.0,1.0,,,,,gelb,red,r,0.0,r,1.0,1.135813600034453,,,,,,,,,,,,,,1.0,2.0,14.0,8.0,,,,,102.09762220003176,,,,,,,,,,,,,,,,,102.08417780010495,102.89804520003965,103.69766200007872,103.68345780007076,,,,,,,,,,,,,,,,103.6883463000413,103.69766200007872,103.69766200007872,104.84989250008948,r,1.0,1.135813600034453,,104.85099659999833,104.8649428000208,105.84946080006192,105.86457400000654,,,,,,,,,,,,,,,,,,,,sub-006,1,stroop_test,60.414783760947095,
,,,,15.0,3.0,1.0,,,,,rot,blue,b,0.0,b,1.0,1.2467457000166178,,,,,,,,,,,,,,1.0,3.0,15.0,2.0,,,,,105.86457400000654,,,,,,,,,,,,,,,,,105.85023340000772,106.66443400003482,107.46440360008272,107.44922160007992,,,,,,,,,,,,,,,,107.4540031000506,107.46440360008272,107.46440360008272,108.71692120004444,b,1.0,1.2467457000166178,,108.71758590009996,108.73088310007006,109.71548790007364,109.73083170002792,,,,,,,,,,,,,,,,,,,,sub-006,1,stroop_test,60.414783760947095,
,,,,16.0,4.0,1.0,,,,,gelb,blue,b,0.0,b,1.0,0.8546294000698254,,,,,,,,,,,,,,1.0,4.0,16.0,9.0,,,,,109.73083170002792,,,,,,,,,,,,,,,,,109.71594040002674,110.53110560006462,111.3312292000046,111.3159389999928,,,,,,,,,,,,,,,,111.3205239000963,111.3312292000046,111.3312292000046,112.20032320008612,b,1.0,0.8546294000698254,,112.2010578000918,112.2141835000366,113.19852610002272,113.21432310005184,,,,,,,,,,,,,,,,,,,,sub-006,1,stroop_test,60.414783760947095,
,,,,17.0,5.0,1.0,,,,,blau,red,r,0.0,r,1.0,1.4333671000786126,,,,,,,,,,,,,,1.0,5.0,17.0,4.0,,,,,113.21432310005184,,,,,,,,,,,,,,,,,113.19894750008824,114.01439510006458,114.81423490005544,114.79824650008231,,,,,,,,,,,,,,,,114.80112250009552,114.81423490005544,114.81423490005544,116.25084220001008,r,1.0,1.4333671000786126,,116.25152190006338,116.26417440001389,117.2486324000638,117.26417390001006,,,,,,,,,,,,,,,,,,,,sub-006,1,stroop_test,60.414783760947095,
,,,,18.0,6.0,1.0,,,,,gelb,yellow,g,1.0,g,1.0,0.6680937999626622,,,,,,,,,,,,,,1.0,6.0,18.0,10.0,,,,,117.26417390001006,,,,,,,,,,,,,,,,,117.24899740004912,118.06445130007342,118.86417780001648,118.84968900005332,,,,,,,,,,,,,,,,118.8544569000369,118.86417780001648,118.86417780001648,119.54938990005758,g,1.0,0.6680937999626622,,119.55004420003388,119.56441740004811,120.5488090000581,120.56415400002152,,,,,,,,,,,,,,,,,,,,sub-006,1,stroop_test,60.414783760947095,
,,,,19.0,7.0,1.0,,,,,blau,blue,b,1.0,b,1.0,0.5099487999686971,,,,,,,,,,,,,,1.0,7.0,19.0,6.0,,,,,120.56415400002152,,,,,,,,,,,,,,,,,120.5492072000634,121.364759100019,122.16416580008809,122.1489151000278,,,,,,,,,,,,,,,,122.15309790009633,122.16416580008809,122.16416580008809,122.68338350008707,b,1.0,0.5099487999686971,,122.68421700003093,122.69761010003276,123.68319190002512,123.6975784000242,,,,,,,,,,,,,,,,,,,,sub-006,1,stroop_test,60.414783760947095,
,,,,20.0,8.0,1.0,,,,,gelb,yellow,g,1.0,g,1.0,0.7182517000474036,,,,,,,,,,,,,,1.0,8.0,20.0,11.0,,,,,123.6975784000242,,,,,,,,,,,,,,,,,123.68379900010768,123.79762000008486,124.5977582000196,124.58277269999962,,,,,,,,,,,,,,,,124.58669260004535,124.5977582000196,124.5977582000196,125.3325055000605,g,1.0,0.7182517000474036,,125.33321130007972,125.34762040001806,126.3319583000848,126.34744030004369,,,,,,,,,,,,,,,,,,,,sub-006,1,stroop_test,60.414783760947095,
,,,,21.0,9.0,1.0,,,,,rot,red,r,1.0,r,1.0,0.4307827000739053,,,,,,,,,,,,,,1.0,9.0,21.0,1.0,,,,,126.34744030004369,,,,,,,,,,,,,,,,,126.33255330007523,127.147465200047,127.94755770009942,127.9317273000488,,,,,,,,,,,,,,,,127.93486680008937,127.94755770009942,127.94755770009942,128.3841744000092,r,1.0,0.4307827000739053,,128.3849100000225,128.3976246000966,129.38249850005377,129.3977498000022,,,,,,,,,,,,,,,,,,,,sub-006,1,stroop_test,60.414783760947095,
,,,,22.0,10.0,1.0,,,,,rot,yellow,g,0.0,g,1.0,0.8097300999797881,,,,,,,,,,,,,,1.0,10.0,22.0,3.0,,,,,129.3977498000022,,,,,,,,,,,,,,,,,129.38305890001357,130.1976033000974,130.9976977000479,130.9825290000299,,,,,,,,,,,,,,,,130.98339260008652,130.9976977000479,130.9976977000479,131.81626310001593,g,1.0,0.8097300999797881,,131.81684109999333,131.83125470008235,132.81573320005555,132.83082110004034,,,,,,,,,,,,,,,,,,,,sub-006,1,stroop_test,60.414783760947095,
,,,,23.0,11.0,1.0,,,,,blau,blue,b,1.0,b,1.0,0.5460302999708802,,,,,,,,,,,,,,1.0,11.0,23.0,5.0,,,,,132.83082110004034,,,,,,,,,,,,,,,,,132.81638990005013,133.18083349999506,133.9811477001058,133.9664287000196,,,,,,,,,,,,,,,,133.97072320000734,133.9811477001058,133.9811477001058,134.53409800003283,b,1.0,0.5460302999708802,,134.53497120004613,134.54762420000043,135.5325429000659,135.5476028000703,,,,,,,,,,,,,,,,,,,,sub-006,1,stroop_test,60.414783760947095,
,,,,,,,,,,,,,,,,,,,,,,,,,,,,,,,,,,,,,,,,,,,,,,,,,,,,,,,,,,,,,,,,,,,,,,,,,,,,,,,,,,,,,,,135.53277720010374,135.5476028000703,135.5476028000703,142.43338490009774,space,6.880604999954812,,,,,,,,,,,,,,sub-006,1,stroop_test,60.414783760947095,
,,,,0.0,0.0,0.0,,,,,,,,,,,,,gelb,yellow,g,1.0,g,1.0,0.6331788999959826,,,,,,,,,,0.0,0.0,0.0,11.0,142.44886980007868,,,,,,,,,,,,,,,,,142.44383690005634,143.24772800004575,144.04726890008897,144.03178340010345,,,,,,,,,,,,,,,,,,,,,,,,,,,,,,,,,,,144.03491770010442,144.04726890008897,144.04726890008897,144.68366990005595,g,1.0,0.6331788999959826,,,,,,sub-006,1,stroop_test,60.414783760947095,
,,,,1.0,1.0,0.0,,,,,,,,,,,,,blau,yellow,g,0.0,g,1.0,0.5309660999337211,,,,,,,,,,0.0,1.0,1.0,7.0,144.6970015000552,,,,,,,,,,,,,,,,,144.68434969999362,145.8974220000673,146.69703520007897,146.6815788000822,,,,,,,,,,,,,,,,,,,,,,,,,,,,,,,,,,,146.68484450003598,146.69703520007897,146.69703520007897,147.2336648000637,g,1.0,0.5309660999337211,,,,,,sub-006,1,stroop_test,60.414783760947095,
,,,,2.0,2.0,0.0,,,,,,,,,,,,,gelb,red,r,0.0,r,1.0,0.585848500020802,,,,,,,,,,0.0,2.0,2.0,8.0,147.24724490009248,,,,,,,,,,,,,,,,,147.23421120003331,148.04743380006403,148.8473351000575,148.8321464000037,,,,,,,,,,,,,,,,,,,,,,,,,,,,,,,,,,,148.83649700006936,148.8473351000575,148.8473351000575,149.44862090004608,r,1.0,0.585848500020802,,,,,,sub-006,1,stroop_test,60.414783760947095,
,,,,3.0,3.0,0.0,,,,,,,,,,,,,gelb,yellow,g,1.0,g,1.0,0.7318884000414982,,,,,,,,,,0.0,3.0,3.0,10.0,149.46385240007658,,,,,,,,,,,,,,,,,149.44894940010272,149.56415880005807,150.36395620007534,150.347878200002,,,,,,,,,,,,,,,,,,,,,,,,,,,,,,,,,,,150.34834590007085,150.36395620007534,150.36395620007534,151.09970300004352,g,1.0,0.7318884000414982,,,,,,sub-006,1,stroop_test,60.414783760947095,
,,,,4.0,4.0,0.0,,,,,,,,,,,,,blau,blue,b,1.0,b,1.0,0.6044175000861287,,,,,,,,,,0.0,4.0,4.0,5.0,151.1140088000102,,,,,,,,,,,,,,,,,151.10012410010677,152.31417260004673,153.11409720010124,153.0981890000403,,,,,,,,,,,,,,,,,,,,,,,,,,,,,,,,,,,153.10132260003593,153.11409720010124,153.11409720010124,153.73142660001758,b,1.0,0.6044175000861287,,,,,,sub-006,1,stroop_test,60.414783760947095,
,,,,5.0,5.0,0.0,,,,,,,,,,,,,rot,red,r,1.0,r,1.0,0.5186228000093251,,,,,,,,,,0.0,5.0,5.0,0.0,153.74738240009174,,,,,,,,,,,,,,,,,153.731636700104,154.93081780010834,155.73052810004447,155.71579700009897,,,,,,,,,,,,,,,,,,,,,,,,,,,,,,,,,,,155.71961090003606,155.73052810004447,155.73052810004447,156.2656100000022,r,1.0,0.5186228000093251,,,,,,sub-006,1,stroop_test,60.414783760947095,
,,,,6.0,6.0,0.0,,,,,,,,,,,,,rot,yellow,g,0.0,g,1.0,0.7687445000046864,,,,,,,,,,0.0,6.0,6.0,3.0,156.28090010001324,,,,,,,,,,,,,,,,,156.26605790003669,156.63133030000608,157.4309928000439,157.4160475000972,,,,,,,,,,,,,,,,,,,,,,,,,,,,,,,,,,,157.4167636000784,157.4309928000439,157.4309928000439,158.2171728000976,g,1.0,0.7687445000046864,,,,,,sub-006,1,stroop_test,60.414783760947095,
,,,,7.0,7.0,0.0,,,,,,,,,,,,,rot,red,r,1.0,r,1.0,0.6737785000586882,,,,,,,,,,0.0,7.0,7.0,1.0,158.2306080000708,,,,,,,,,,,,,,,,,158.2177537000971,159.43090940010734,160.2309073000215,160.21483660000376,,,,,,,,,,,,,,,,,,,,,,,,,,,,,,,,,,,160.21528250002302,160.2309073000215,160.2309073000215,160.91584650008008,r,1.0,0.6737785000586882,,,,,,sub-006,1,stroop_test,60.414783760947095,
,,,,8.0,8.0,0.0,,,,,,,,,,,,,blau,red,r,0.0,r,1.0,0.6586098000407219,,,,,,,,,,0.0,8.0,8.0,4.0,160.93059110001195,,,,,,,,,,,,,,,,,160.9163026000606,161.73082130006514,162.53073580004275,162.51548080006614,,,,,,,,,,,,,,,,,,,,,,,,,,,,,,,,,,,162.5191235000966,162.53073580004275,162.53073580004275,163.199389000074,r,1.0,0.6586098000407219,,,,,,sub-006,1,stroop_test,60.414783760947095,
,,,,9.0,9.0,0.0,,,,,,,,,,,,,rot,blue,b,0.0,b,1.0,0.804970599943772,,,,,,,,,,0.0,9.0,9.0,2.0,163.21431430010125,,,,,,,,,,,,,,,,,163.1998977001058,163.56429100001696,164.3640003000619,164.34877610008698,,,,,,,,,,,,,,,,,,,,,,,,,,,,,,,,,,,164.35321690002456,164.3640003000619,164.3640003000619,165.18367420008872,b,1.0,0.804970599943772,,,,,,sub-006,1,stroop_test,60.414783760947095,
,,,,10.0,10.0,0.0,,,,,,,,,,,,,gelb,blue,b,0.0,b,1.0,1.4177454999880863,,,,,,,,,,0.0,10.0,10.0,9.0,165.1971470999997,,,,,,,,,,,,,,,,,165.1843231000239,165.9973773000529,166.79749760008417,166.7821116000414,,,,,,,,,,,,,,,,,,,,,,,,,,,,,,,,,,,166.78618819999974,166.79749760008417,166.79749760008417,168.232465100009,b,1.0,1.4177454999880863,,,,,,sub-006,1,stroop_test,60.414783760947095,
,,,,11.0,11.0,0.0,,,,,,,,,,,,,blau,blue,b,1.0,b,1.0,0.6254968999419361,,,,,,,,,,0.0,11.0,11.0,6.0,168.24789950007107,,,,,,,,,,,,,,,,,168.23291030002292,169.04747590003535,169.84735430008732,169.83265960006975,,,,,,,,,,,,,,,,,,,,,,,,,,,,,,,,,,,169.83664910006337,169.84735430008732,169.84735430008732,170.48404080001637,b,1.0,0.6254968999419361,,,,,,sub-006,1,stroop_test,60.414783760947095,
,,,,12.0,0.0,1.0,,,,,,,,,,,,,gelb,yellow,g,1.0,g,1.0,0.4749637000495568,,,,,,,,,,1.0,0.0,12.0,11.0,170.4975460000569,,,,,,,,,,,,,,,,,170.48469670000486,170.8473541000858,171.64771170006134,171.63246019999497,,,,,,,,,,,,,,,,,,,,,,,,,,,,,,,,,,,171.63713710010052,171.64771170006134,171.64771170006134,172.13323100004345,g,1.0,0.4749637000495568,,,,,,sub-006,1,stroop_test,60.414783760947095,
,,,,13.0,1.0,1.0,,,,,,,,,,,,,gelb,yellow,g,1.0,g,1.0,0.647196999983862,,,,,,,,,,1.0,1.0,13.0,10.0,172.1471079000039,,,,,,,,,,,,,,,,,172.13380030007102,172.9474043000955,173.7475491000805,173.73155200004112,,,,,,,,,,,,,,,,,,,,,,,,,,,,,,,,,,,173.73216150002554,173.7475491000805,173.7475491000805,174.39960010000505,g,1.0,0.647196999983862,,,,,,sub-006,1,stroop_test,60.414783760947095,
,,,,14.0,2.0,1.0,,,,,,,,,,,,,rot,yellow,g,0.0,g,1.0,0.9739416000666096,,,,,,,,,,1.0,2.0,14.0,3.0,174.4140729000792,,,,,,,,,,,,,,,,,174.39998480002396,175.61394120007753,176.41401870001573,176.39749920007307,,,,,,,,,,,,,,,,,,,,,,,,,,,,,,,,,,,176.40087750006933,176.41401870001573,176.41401870001573,177.40040929999668,g,1.0,0.9739416000666096,,,,,,sub-006,1,stroop_test,60.414783760947095,
,,,,15.0,3.0,1.0,,,,,,,,,,,,,blau,red,r,0.0,r,1.0,1.8886599999386815,,,,,,,,,,1.0,3.0,15.0,4.0,177.4135158000281,,,,,,,,,,,,,,,,,177.40103470010217,178.21398070000578,179.01388550002594,178.99785690009594,,,,,,,,,,,,,,,,,,,,,,,,,,,,,,,,,,,179.00014720007312,179.01388550002594,179.01388550002594,180.91595490009055,r,1.0,1.8886599999386815,,,,,,sub-006,1,stroop_test,60.414783760947095,
,,,,16.0,4.0,1.0,,,,,,,,,,,,,gelb,blue,b,0.0,b,1.0,0.7392324999673292,,,,,,,,,,1.0,4.0,16.0,9.0,180.9302060001064,,,,,,,,,,,,,,,,,180.91649100009815,182.13030380010605,182.9303519000532,182.915864800103,,,,,,,,,,,,,,,,,,,,,,,,,,,,,,,,,,,182.9202750000404,182.9303519000532,182.9303519000532,183.6821103000548,b,1.0,0.7392324999673292,,,,,,sub-006,1,stroop_test,60.414783760947095,
,,,,17.0,5.0,1.0,,,,,,,,,,,,,blau,yellow,g,0.0,g,1.0,1.1440225000260398,,,,,,,,,,1.0,5.0,17.0,7.0,183.6968412999995,,,,,,,,,,,,,,,,,183.682507700054,184.89685660006944,185.69672530004755,185.6815417000325,,,,,,,,,,,,,,,,,,,,,,,,,,,,,,,,,,,185.6853112000972,185.69672530004755,185.69672530004755,186.8502141000936,g,1.0,1.1440225000260398,,,,,,sub-006,1,stroop_test,60.414783760947095,
,,,,18.0,6.0,1.0,,,,,,,,,,,,,rot,blue,b,0.0,b,1.0,1.8434753000037745,,,,,,,,,,1.0,6.0,18.0,2.0,186.8636524000904,,,,,,,,,,,,,,,,,186.8508319000248,186.96387269999832,187.76352750009391,187.748509200057,,,,,,,,,,,,,,,,,,,,,,,,,,,,,,,,,,,187.75220600003377,187.76352750009391,187.76352750009391,189.6149356000824,b,1.0,1.8434753000037745,,,,,,sub-006,1,stroop_test,60.414783760947095,
,,,,19.0,7.0,1.0,,,,,,,,,,,,,blau,blue,b,1.0,b,1.0,1.1043199999257922,,,,,,,,,,1.0,7.0,19.0,5.0,189.6303203999996,,,,,,,,,,,,,,,,,189.61529800004791,189.97998490009925,190.780316999997,190.7637848000741,,,,,,,,,,,,,,,,,,,,,,,,,,,,,,,,,,,190.76550020009745,190.780316999997,190.780316999997,191.8994991000509,b,1.0,1.1043199999257922,,,,,,sub-006,1,stroop_test,60.414783760947095,
,,,,20.0,8.0,1.0,,,,,,,,,,,,,gelb,red,r,0.0,r,1.0,0.6640182000119239,,,,,,,,,,1.0,8.0,20.0,8.0,191.9133766000159,,,,,,,,,,,,,,,,,191.90002420009117,192.01340610010084,192.813538000104,192.7981356000528,,,,,,,,,,,,,,,,,,,,,,,,,,,,,,,,,,,192.80237330007367,192.813538000104,192.813538000104,193.48341210000217,r,1.0,0.6640182000119239,,,,,,sub-006,1,stroop_test,60.414783760947095,
,,,,21.0,9.0,1.0,,,,,,,,,,,,,blau,blue,b,1.0,b,1.0,1.65157210000325,,,,,,,,,,1.0,9.0,21.0,6.0,193.49674460000824,,,,,,,,,,,,,,,,,193.4839409000706,193.5968920000596,194.3973752000602,194.38156640005764,,,,,,,,,,,,,,,,,,,,,,,,,,,,,,,,,,,194.3855820000172,194.3973752000602,194.3973752000602,196.06513820006512,b,1.0,1.65157210000325,,,,,,sub-006,1,stroop_test,60.414783760947095,
,,,,22.0,10.0,1.0,,,,,,,,,,,,,rot,red,r,1.0,g,0.0,0.7306931000202894,,,,,,,,,,1.0,10.0,22.0,1.0,196.08035300008487,,,,,,,,,,,,,,,,,196.0655785000417,197.28017360006925,198.08038650010712,198.06567790010013,,,,,,,,,,,,,,,,,,,,,,,,,,,,,,,,,,,198.06988990004172,198.08038650010712,198.08038650010712,198.81388750008773,g,0.0,0.7306931000202894,,,,,,sub-006,1,stroop_test,60.414783760947095,
,,,,23.0,11.0,1.0,,,,,,,,,,,,,rot,red,r,1.0,r,1.0,0.9183582999976352,,,,,,,,,,1.0,11.0,23.0,0.0,198.82990380004048,,,,,,,,,,,,,,,,,198.81410020007752,199.6137964000227,200.41358170006424,200.398362500011,,,,,,,,,,,,,,,,,,,,,,,,,,,,,,,,,,,200.39923500001896,200.41358170006424,200.41358170006424,201.34779840009287,r,1.0,0.9183582999976352,,,,,,sub-006,1,stroop_test,60.414783760947095,
,,,,24.0,0.0,2.0,,,,,,,,,,,,,blau,yellow,g,0.0,g,1.0,0.9287544999970124,,,,,,,,,,2.0,0.0,24.0,7.0,201.36332170001697,,,,,,,,,,,,,,,,,201.3481673001079,201.46372930007053,202.26338770007715,202.248588400078,,,,,,,,,,,,,,,,,,,,,,,,,,,,,,,,,,,202.25326580007092,202.26338770007715,202.26338770007715,203.1986667000456,g,1.0,0.9287544999970124,,,,,,sub-006,1,stroop_test,60.414783760947095,
,,,,25.0,1.0,2.0,,,,,,,,,,,,,gelb,blue,b,0.0,b,1.0,0.593313799938187,,,,,,,,,,2.0,1.0,25.0,9.0,203.21356120007115,,,,,,,,,,,,,,,,,203.19911100005265,204.413280100096,205.21340900007635,205.19740130007267,,,,,,,,,,,,,,,,,,,,,,,,,,,,,,,,,,,205.2000883000437,205.21340900007635,205.21340900007635,205.81530080002267,b,1.0,0.593313799938187,,,,,,sub-006,1,stroop_test,60.414783760947095,
,,,,26.0,2.0,2.0,,,,,,,,,,,,,blau,red,r,0.0,r,1.0,0.6765601000515744,,,,,,,,,,2.0,2.0,26.0,4.0,205.8299135999987,,,,,,,,,,,,,,,,,205.8157787000528,206.18021930009127,206.98003500001505,206.9651430000085,,,,,,,,,,,,,,,,,,,,,,,,,,,,,,,,,,,206.96955959999468,206.98003500001505,206.98003500001505,207.66554820002057,r,1.0,0.6765601000515744,,,,,,sub-006,1,stroop_test,60.414783760947095,
,,,,27.0,3.0,2.0,,,,,,,,,,,,,blau,blue,b,1.0,b,1.0,0.765935100032948,,,,,,,,,,2.0,3.0,27.0,5.0,207.68001100001857,,,,,,,,,,,,,,,,,207.66600070009008,208.4801112000132,209.28038450004533,209.2651180000976,,,,,,,,,,,,,,,,,,,,,,,,,,,,,,,,,,,209.26597680000123,209.28038450004533,209.28038450004533,210.05008280009497,b,1.0,0.765935100032948,,,,,,sub-006,1,stroop_test,60.414783760947095,
,,,,28.0,4.0,2.0,,,,,,,,,,,,,gelb,red,r,0.0,r,1.0,2.1447093000169843,,,,,,,,,,2.0,4.0,28.0,8.0,210.06361810001545,,,,,,,,,,,,,,,,,210.05061060003936,210.41346380009784,211.2138029000489,211.19782040000428,,,,,,,,,,,,,,,,,,,,,,,,,,,,,,,,,,,211.20163520006463,211.2138029000489,211.2138029000489,213.3645751000149,r,1.0,2.1447093000169843,,,,,,sub-006,1,stroop_test,60.414783760947095,
,,,,29.0,5.0,2.0,,,,,,,,,,,,,rot,red,r,1.0,r,1.0,1.147423699963838,,,,,,,,,,2.0,5.0,29.0,1.0,213.38002430007327,,,,,,,,,,,,,,,,,213.3649169000564,213.4635259000352,214.2638121000491,214.24797310004945,,,,,,,,,,,,,,,,,,,,,,,,,,,,,,,,,,,214.25192250008692,214.2638121000491,214.2638121000491,215.4157547000796,r,1.0,1.147423699963838,,,,,,sub-006,1,stroop_test,60.414783760947095,
,,,,30.0,6.0,2.0,,,,,,,,,,,,,gelb,yellow,g,1.0,g,1.0,0.594769100076519,,,,,,,,,,2.0,6.0,30.0,10.0,215.4301158000017,,,,,,,,,,,,,,,,,215.4161618000362,215.78007700003215,216.58002180000767,216.5650627000723,,,,,,,,,,,,,,,,,,,,,,,,,,,,,,,,,,,216.56917380006053,216.58002180000767,216.58002180000767,217.1813131000381,g,1.0,0.594769100076519,,,,,,sub-006,1,stroop_test,60.414783760947095,
,,,,31.0,7.0,2.0,,,,,,,,,,,,,rot,yellow,g,0.0,g,1.0,0.978292999905534,,,,,,,,,,2.0,7.0,31.0,3.0,217.1964367000619,,,,,,,,,,,,,,,,,217.18167409999296,217.99650370003656,218.79671240004245,218.7810267000459,,,,,,,,,,,,,,,,,,,,,,,,,,,,,,,,,,,218.7837938000448,218.79671240004245,218.79671240004245,219.7819807000924,g,1.0,0.978292999905534,,,,,,sub-006,1,stroop_test,60.414783760947095,
,,,,32.0,8.0,2.0,,,,,,,,,,,,,rot,red,r,1.0,r,1.0,0.6911594000412151,,,,,,,,,,2.0,8.0,32.0,0.0,219.79643600003328,,,,,,,,,,,,,,,,,219.782430900028,220.59663570008703,221.39671070000625,221.38101140002252,,,,,,,,,,,,,,,,,,,,,,,,,,,,,,,,,,,221.38153160002548,221.39671070000625,221.39671070000625,222.0980147999944,r,1.0,0.6911594000412151,,,,,,sub-006,1,stroop_test,60.414783760947095,
,,,,33.0,9.0,2.0,,,,,,,,,,,,,blau,blue,b,1.0,b,1.0,0.487871199962683,,,,,,,,,,2.0,9.0,33.0,6.0,222.1134886000073,,,,,,,,,,,,,,,,,222.0983936000848,223.3140824000584,224.11356160009743,224.098349200096,,,,,,,,,,,,,,,,,,,,,,,,,,,,,,,,,,,224.102601599996,224.11356160009743,224.11356160009743,224.61522790009624,b,1.0,0.487871199962683,,,,,,sub-006,1,stroop_test,60.414783760947095,
,,,,34.0,10.0,2.0,,,,,,,,,,,,,rot,blue,b,0.0,b,1.0,1.132374000037089,,,,,,,,,,2.0,10.0,34.0,2.0,224.63026970007925,,,,,,,,,,,,,,,,,224.61569250002503,225.43053630006037,226.23008210002445,226.21434900001623,,,,,,,,,,,,,,,,,,,,,,,,,,,,,,,,,,,226.2177992000943,226.23008210002445,226.23008210002445,227.36777800007255,b,1.0,1.132374000037089,,,,,,sub-006,1,stroop_test,60.414783760947095,
,,,,35.0,11.0,2.0,,,,,,,,,,,,,gelb,yellow,g,1.0,g,1.0,0.8281944999471307,,,,,,,,,,2.0,11.0,35.0,11.0,227.38028230005875,,,,,,,,,,,,,,,,,227.368397800019,227.4802069000434,228.2800617000321,228.2652853000909,,,,,,,,,,,,,,,,,,,,,,,,,,,,,,,,,,,228.27072310005315,228.2800617000321,228.2800617000321,229.1150253000669,g,1.0,0.8281944999471307,,,,,,sub-006,1,stroop_test,60.414783760947095,
,,,,36.0,0.0,3.0,,,,,,,,,,,,,gelb,red,r,0.0,r,1.0,0.5028874999843538,,,,,,,,,,3.0,0.0,36.0,8.0,229.1297357000876,,,,,,,,,,,,,,,,,229.1154388000723,230.3132278000703,231.11341039999388,231.0982042000396,,,,,,,,,,,,,,,,,,,,,,,,,,,,,,,,,,,231.09898700006303,231.11341039999388,231.11341039999388,231.63190720009152,r,1.0,0.5028874999843538,,,,,,sub-006,1,stroop_test,60.414783760947095,
,,,,37.0,1.0,3.0,,,,,,,,,,,,,rot,red,r,1.0,r,1.0,0.7262950000585988,,,,,,,,,,3.0,1.0,37.0,1.0,231.646505300072,,,,,,,,,,,,,,,,,231.63238190009724,232.84662970004135,233.6465586000122,233.6336785000749,,,,,,,,,,,,,,,,,,,,,,,,,,,,,,,,,,,233.63787030009556,233.6465586000122,233.6465586000122,234.38257800007705,r,1.0,0.7262950000585988,,,,,,sub-006,1,stroop_test,60.414783760947095,
,,,,38.0,2.0,3.0,,,,,,,,,,,,,rot,red,r,1.0,r,1.0,2.080371299991384,,,,,,,,,,3.0,2.0,38.0,0.0,234.3970973000396,,,,,,,,,,,,,,,,,234.38322600000535,235.5973701000912,236.3963867001003,236.38122250000012,,,,,,,,,,,,,,,,,,,,,,,,,,,,,,,,,,,236.38206990004983,236.3963867001003,236.3963867001003,238.48332790005952,r,1.0,2.080371299991384,,,,,,sub-006,1,stroop_test,60.414783760947095,
,,,,39.0,3.0,3.0,,,,,,,,,,,,,blau,yellow,g,0.0,g,1.0,0.9478446999564768,,,,,,,,,,3.0,3.0,39.0,7.0,238.4966218000045,,,,,,,,,,,,,,,,,238.4839239000576,239.6966955000535,240.4966425000457,240.4820881000487,,,,,,,,,,,,,,,,,,,,,,,,,,,,,,,,,,,240.4864316000603,240.4966425000457,240.4966425000457,241.44764020002916,g,1.0,0.9478446999564768,,,,,,sub-006,1,stroop_test,60.414783760947095,
,,,,40.0,4.0,3.0,,,,,,,,,,,,,gelb,yellow,g,1.0,g,1.0,0.703277200111188,,,,,,,,,,3.0,4.0,40.0,11.0,241.46327619999647,,,,,,,,,,,,,,,,,241.44808390003163,241.54674270004037,242.3463963000104,242.3315927000949,,,,,,,,,,,,,,,,,,,,,,,,,,,,,,,,,,,242.33589139999825,242.3463963000104,242.3463963000104,243.06501290004235,g,1.0,0.703277200111188,,,,,,sub-006,1,stroop_test,60.414783760947095,
,,,,41.0,5.0,3.0,,,,,,,,,,,,,blau,blue,b,1.0,b,1.0,0.6474206000566483,,,,,,,,,,3.0,5.0,41.0,6.0,243.0803141000215,,,,,,,,,,,,,,,,,243.0655659000622,243.42993220000065,244.2300701000495,244.2158228000626,,,,,,,,,,,,,,,,,,,,,,,,,,,,,,,,,,,244.2203756000381,244.2300701000495,244.2300701000495,244.88300490006804,b,1.0,0.6474206000566483,,,,,,sub-006,1,stroop_test,60.414783760947095,
,,,,42.0,6.0,3.0,,,,,,,,,,,,,blau,blue,b,1.0,b,1.0,0.597052099998109,,,,,,,,,,3.0,6.0,42.0,5.0,244.8967162000481,,,,,,,,,,,,,,,,,244.88350029999856,245.24648480000903,246.04644120007288,246.0312615000876,,,,,,,,,,,,,,,,,,,,,,,,,,,,,,,,,,,246.03200120001569,246.04644120007288,246.04644120007288,246.64962890010796,b,1.0,0.597052099998109,,,,,,sub-006,1,stroop_test,60.414783760947095,
,,,,43.0,7.0,3.0,,,,,,,,,,,,,gelb,yellow,g,1.0,g,1.0,0.6346214999211952,,,,,,,,,,3.0,7.0,43.0,10.0,246.66302229999565,,,,,,,,,,,,,,,,,246.6502131000161,247.01308550010435,247.813014900079,247.79784440004727,,,,,,,,,,,,,,,,,,,,,,,,,,,,,,,,,,,247.8018604000099,247.813014900079,247.813014900079,248.4647134999977,g,1.0,0.6346214999211952,,,,,,sub-006,1,stroop_test,60.414783760947095,
,,,,44.0,8.0,3.0,,,,,,,,,,,,,rot,yellow,g,0.0,g,1.0,0.7898864999879152,,,,,,,,,,3.0,8.0,44.0,3.0,248.48015140008647,,,,,,,,,,,,,,,,,248.46516130003147,248.82976180000696,249.62970190006308,249.61589610006197,,,,,,,,,,,,,,,,,,,,,,,,,,,,,,,,,,,249.6201816000976,249.62970190006308,249.62970190006308,250.43276049999983,g,1.0,0.7898864999879152,,,,,,sub-006,1,stroop_test,60.414783760947095,
,,,,45.0,9.0,3.0,,,,,,,,,,,,,rot,blue,b,0.0,b,1.0,0.7952987999888137,,,,,,,,,,3.0,9.0,45.0,2.0,250.44662110006905,,,,,,,,,,,,,,,,,250.4333306000335,251.6464655000018,252.4464688000735,252.4313806000864,,,,,,,,,,,,,,,,,,,,,,,,,,,,,,,,,,,252.43237860000227,252.4464688000735,252.4464688000735,253.24810140009504,b,1.0,0.7952987999888137,,,,,,sub-006,1,stroop_test,60.414783760947095,
,,,,46.0,10.0,3.0,,,,,,,,,,,,,blau,red,r,0.0,r,1.0,1.0388177999993786,,,,,,,,,,3.0,10.0,46.0,4.0,253.26333490002435,,,,,,,,,,,,,,,,,253.24861490004696,254.063308800105,254.8631047999952,254.8483352001058,,,,,,,,,,,,,,,,,,,,,,,,,,,,,,,,,,,254.85308650007937,254.8631047999952,254.8631047999952,255.9161178000504,r,1.0,1.0388177999993786,,,,,,sub-006,1,stroop_test,60.414783760947095,
,,,,47.0,11.0,3.0,,,,,,,,,,,,,gelb,blue,b,0.0,b,1.0,0.9867450000019744,,,,,,,,,,3.0,11.0,47.0,9.0,255.9299780000001,,,,,,,,,,,,,,,,,255.9166863000719,256.2800601000199,257.0796690999996,257.06413990003057,,,,,,,,,,,,,,,,,,,,,,,,,,,,,,,,,,,257.06839290005155,257.0796690999996,257.0796690999996,258.0822357001016,b,1.0,0.9867450000019744,,,,,,sub-006,1,stroop_test,60.414783760947095,
,,,,48.0,0.0,4.0,,,,,,,,,,,,,rot,red,r,1.0,r,1.0,0.5552798999706283,,,,,,,,,,4.0,0.0,48.0,1.0,258.0963370000245,,,,,,,,,,,,,,,,,258.0828649000032,259.2965923000593,260.09631720010657,260.0814005000284,,,,,,,,,,,,,,,,,,,,,,,,,,,,,,,,,,,260.0857148000505,260.09631720010657,260.09631720010657,260.6655928000109,r,1.0,0.5552798999706283,,,,,,sub-006,1,stroop_test,60.414783760947095,
,,,,49.0,1.0,4.0,,,,,,,,,,,,,blau,blue,b,1.0,b,1.0,0.6375029999762774,,,,,,,,,,4.0,1.0,49.0,6.0,260.6797628001077,,,,,,,,,,,,,,,,,260.666297400021,261.4800308000995,262.28154200001154,262.2700929000275,,,,,,,,,,,,,,,,,,,,,,,,,,,,,,,,,,,262.27486500004306,262.28154200001154,262.28154200001154,262.93234140006825,b,1.0,0.6375029999762774,,,,,,sub-006,1,stroop_test,60.414783760947095,
,,,,50.0,2.0,4.0,,,,,,,,,,,,,gelb,blue,b,0.0,b,1.0,1.2616911000804976,,,,,,,,,,4.0,2.0,50.0,9.0,262.94629450002685,,,,,,,,,,,,,,,,,262.93293260002974,263.2967020000797,264.0964648000663,264.08210800006054,,,,,,,,,,,,,,,,,,,,,,,,,,,,,,,,,,,264.08636820001993,264.0964648000663,264.0964648000663,265.3655999000184,b,1.0,1.2616911000804976,,,,,,sub-006,1,stroop_test,60.414783760947095,
,,,,51.0,3.0,4.0,,,,,,,,,,,,,blau,blue,b,1.0,b,1.0,0.4650332999881357,,,,,,,,,,4.0,3.0,51.0,5.0,265.3801406000275,,,,,,,,,,,,,,,,,265.36604720004834,266.18000819999725,266.9799567000009,266.9641597000882,,,,,,,,,,,,,,,,,,,,,,,,,,,,,,,,,,,266.96735280007124,266.9799567000009,266.9799567000009,267.44936790002976,b,1.0,0.4650332999881357,,,,,,sub-006,1,stroop_test,60.414783760947095,
,,,,52.0,4.0,4.0,,,,,,,,,,,,,gelb,yellow,g,1.0,g,1.0,0.6113425000803545,,,,,,,,,,4.0,4.0,52.0,11.0,267.463153699995,,,,,,,,,,,,,,,,,267.44993950007483,267.8133002000395,268.6133904000744,268.5977207000833,,,,,,,,,,,,,,,,,,,,,,,,,,,,,,,,,,,268.60132640006486,268.6133904000744,268.6133904000744,269.23164170002565,g,1.0,0.6113425000803545,,,,,,sub-006,1,stroop_test,60.414783760947095,
,,,,53.0,5.0,4.0,,,,,,,,,,,,,blau,yellow,g,0.0,g,1.0,0.7244611999485642,,,,,,,,,,4.0,5.0,53.0,7.0,269.2464589000447,,,,,,,,,,,,,,,,,269.2320890000556,270.44642750010826,271.24654850002844,271.23172740009613,,,,,,,,,,,,,,,,,,,,,,,,,,,,,,,,,,,271.2369095000904,271.24654850002844,271.24654850002844,271.98173720005434,g,1.0,0.7244611999485642,,,,,,sub-006,1,stroop_test,60.414783760947095,
,,,,54.0,6.0,4.0,,,,,,,,,,,,,gelb,yellow,g,1.0,g,1.0,0.5566622000187635,,,,,,,,,,4.0,6.0,54.0,10.0,271.99619219999295,,,,,,,,,,,,,,,,,271.9822755000787,272.7965809000889,273.59646290005185,273.5807131000329,,,,,,,,,,,,,,,,,,,,,,,,,,,,,,,,,,,273.5852037000004,273.59646290005185,273.59646290005185,274.1651026000036,g,1.0,0.5566622000187635,,,,,,sub-006,1,stroop_test,60.414783760947095,
,,,,55.0,7.0,4.0,,,,,,,,,,,,,rot,red,r,1.0,r,1.0,0.4246297000208869,,,,,,,,,,4.0,7.0,55.0,0.0,274.1803701000754,,,,,,,,,,,,,,,,,274.1655813000398,274.9796334001003,275.7797393000219,275.7645551000023,,,,,,,,,,,,,,,,,,,,,,,,,,,,,,,,,,,275.76807890005875,275.7797393000219,275.7797393000219,276.2149362000637,r,1.0,0.4246297000208869,,,,,,sub-006,1,stroop_test,60.414783760947095,
,,,,56.0,8.0,4.0,,,,,,,,,,,,,blau,red,r,0.0,r,1.0,0.6151971999788657,,,,,,,,,,4.0,8.0,56.0,4.0,276.2296505999984,,,,,,,,,,,,,,,,,276.2153957000701,276.5799361000536,277.3797634000657,277.3639548000647,,,,,,,,,,,,,,,,,,,,,,,,,,,,,,,,,,,277.36785670008976,277.3797634000657,277.3797634000657,278.0005532000214,r,1.0,0.6151971999788657,,,,,,sub-006,1,stroop_test,60.414783760947095,
,,,,57.0,9.0,4.0,,,,,,,,,,,,,gelb,red,r,0.0,r,1.0,0.7671898000407964,,,,,,,,,,4.0,9.0,57.0,8.0,278.01323110004887,,,,,,,,,,,,,,,,,278.0011552000651,278.11315490002744,278.9130191000877,278.8971131000435,,,,,,,,,,,,,,,,,,,,,,,,,,,,,,,,,,,278.9003262000624,278.9130191000877,278.9130191000877,279.6827840000624,r,1.0,0.7671898000407964,,,,,,sub-006,1,stroop_test,60.414783760947095,
,,,,58.0,10.0,4.0,,,,,,,,,,,,,rot,blue,b,0.0,b,1.0,0.9242711000842974,,,,,,,,,,4.0,10.0,58.0,2.0,279.69630440010224,,,,,,,,,,,,,,,,,279.68327850010246,280.0465884000296,280.8464434000198,280.8311057999963,,,,,,,,,,,,,,,,,,,,,,,,,,,,,,,,,,,280.83506860001944,280.8464434000198,280.8464434000198,281.7818114000838,b,1.0,0.9242711000842974,,,,,,sub-006,1,stroop_test,60.414783760947095,
,,,,59.0,11.0,4.0,,,,,,,,,,,,,rot,yellow,g,0.0,g,1.0,0.8186204000376165,,,,,,,,,,4.0,11.0,59.0,3.0,281.7967923000688,,,,,,,,,,,,,,,,,281.78227910003625,282.9963297001086,283.7960549000418,283.7802535000956,,,,,,,,,,,,,,,,,,,,,,,,,,,,,,,,,,,283.7809142000042,283.7960549000418,283.7960549000418,284.6322513000341,g,1.0,0.8186204000376165,,,,,,sub-006,1,stroop_test,60.414783760947095,
,,,,60.0,0.0,5.0,,,,,,,,,,,,,gelb,yellow,g,1.0,g,1.0,0.5855117999017239,,,,,,,,,,5.0,0.0,60.0,10.0,284.64647180004977,,,,,,,,,,,,,,,,,284.632835800061,285.4462307000067,286.24617070006207,286.2316232000012,,,,,,,,,,,,,,,,,,,,,,,,,,,,,,,,,,,286.2358317000326,286.24617070006207,286.24617070006207,286.84843670006376,g,1.0,0.5855117999017239,,,,,,sub-006,1,stroop_test,60.414783760947095,
,,,,61.0,1.0,5.0,,,,,,,,,,,,,blau,blue,b,1.0,b,1.0,0.6727663000347093,,,,,,,,,,5.0,1.0,61.0,5.0,286.8630329000298,,,,,,,,,,,,,,,,,286.8490140000358,286.9628107000608,287.7627818000037,287.7471448000288,,,,,,,,,,,,,,,,,,,,,,,,,,,,,,,,,,,287.75111060007475,287.7627818000037,287.7627818000037,288.4480485999957,b,1.0,0.6727663000347093,,,,,,sub-006,1,stroop_test,60.414783760947095,
,,,,62.0,2.0,5.0,,,,,,,,,,,,,blau,yellow,g,0.0,g,1.0,0.7456942000426352,,,,,,,,,,5.0,2.0,62.0,7.0,288.462957700016,,,,,,,,,,,,,,,,,288.4485179000767,288.8128881000448,289.6131428000517,289.5979512000922,,,,,,,,,,,,,,,,,,,,,,,,,,,,,,,,,,,289.598917299998,289.6131428000517,289.6131428000517,290.36551710008644,g,1.0,0.7456942000426352,,,,,,sub-006,1,stroop_test,60.414783760947095,
,,,,63.0,3.0,5.0,,,,,,,,,,,,,rot,yellow,g,0.0,g,1.0,0.4442773000337183,,,,,,,,,,5.0,3.0,63.0,3.0,290.3801168000791,,,,,,,,,,,,,,,,,290.36599439999554,291.5797601999948,292.3795849001035,292.36418700008653,,,,,,,,,,,,,,,,,,,,,,,,,,,,,,,,,,,292.3682525000768,292.3795849001035,292.3795849001035,292.83147330000065,g,1.0,0.4442773000337183,,,,,,sub-006,1,stroop_test,60.414783760947095,
,,,,64.0,4.0,5.0,,,,,,,,,,,,,gelb,red,r,0.0,r,1.0,0.6579071999294683,,,,,,,,,,5.0,4.0,64.0,8.0,292.8467349000275,,,,,,,,,,,,,,,,,292.83195610006806,294.0462041000137,294.84661060001235,294.8312533000717,,,,,,,,,,,,,,,,,,,,,,,,,,,,,,,,,,,294.8349748000037,294.84661060001235,294.84661060001235,295.5152876999928,r,1.0,0.6579071999294683,,,,,,sub-006,1,stroop_test,60.414783760947095,
,,,,65.0,5.0,5.0,,,,,,,,,,,,,blau,red,r,0.0,r,1.0,0.6020764999557287,,,,,,,,,,5.0,5.0,65.0,4.0,295.5298085000832,,,,,,,,,,,,,,,,,295.51568490010686,296.32945140008815,297.12945100001525,297.1138489000732,,,,,,,,,,,,,,,,,,,,,,,,,,,,,,,,,,,297.11756700009573,297.12945100001525,297.12945100001525,297.74901930009946,r,1.0,0.6020764999557287,,,,,,sub-006,1,stroop_test,60.414783760947095,
,,,,66.0,6.0,5.0,,,,,,,,,,,,,blau,blue,b,1.0,b,1.0,1.025998100056313,,,,,,,,,,5.0,6.0,66.0,6.0,297.7629156000912,,,,,,,,,,,,,,,,,297.74958080006763,297.8632230000803,298.6628048000857,298.6480218000943,,,,,,,,,,,,,,,,,,,,,,,,,,,,,,,,,,,298.64883840002585,298.6628048000857,298.6628048000857,299.6969885000726,b,1.0,1.025998100056313,,,,,,sub-006,1,stroop_test,60.414783760947095,
,,,,67.0,7.0,5.0,,,,,,,,,,,,,gelb,blue,b,0.0,b,1.0,1.2894613000098616,,,,,,,,,,5.0,7.0,67.0,9.0,299.71262170001864,,,,,,,,,,,,,,,,,299.6974309000652,300.0462140000891,300.8458993000677,300.8307734000264,,,,,,,,,,,,,,,,,,,,,,,,,,,,,,,,,,,300.8353924000403,300.8458993000677,300.8458993000677,302.14853340003174,b,1.0,1.2894613000098616,,,,,,sub-006,1,stroop_test,60.414783760947095,
,,,,68.0,8.0,5.0,,,,,,,,,,,,,rot,blue,b,0.0,b,1.0,0.8427091999910772,,,,,,,,,,5.0,8.0,68.0,2.0,302.16268550010864,,,,,,,,,,,,,,,,,302.1491251999978,302.2626047000522,303.06260649999604,303.0475096000592,,,,,,,,,,,,,,,,,,,,,,,,,,,,,,,,,,,303.05186910007615,303.06260649999604,303.06260649999604,303.9153197000269,b,1.0,0.8427091999910772,,,,,,sub-006,1,stroop_test,60.414783760947095,
,,,,69.0,9.0,5.0,,,,,,,,,,,,,gelb,yellow,g,1.0,g,1.0,0.5257639000192285,,,,,,,,,,5.0,9.0,69.0,11.0,303.9295589000685,,,,,,,,,,,,,,,,,303.91593450005166,304.2792902000947,305.0792626000475,305.0665592000587,,,,,,,,,,,,,,,,,,,,,,,,,,,,,,,,,,,305.0708665000275,305.0792626000475,305.0792626000475,305.6155063000042,g,1.0,0.5257639000192285,,,,,,sub-006,1,stroop_test,60.414783760947095,
,,,,70.0,10.0,5.0,,,,,,,,,,,,,rot,red,r,1.0,r,1.0,0.5029947999864817,,,,,,,,,,5.0,10.0,70.0,1.0,305.6303727000486,,,,,,,,,,,,,,,,,305.61599650001153,305.7294600000605,306.5293018000666,306.5138850000221,,,,,,,,,,,,,,,,,,,,,,,,,,,,,,,,,,,306.5180384000996,306.5293018000666,306.5293018000666,307.04787120001856,r,1.0,0.5029947999864817,,,,,,sub-006,1,stroop_test,60.414783760947095,
,,,,71.0,11.0,5.0,,,,,,,,,,,,,rot,red,r,1.0,r,1.0,0.4388698000693694,,,,,,,,,,5.0,11.0,71.0,0.0,307.0630191999953,,,,,,,,,,,,,,,,,307.0483224000782,307.4129032000201,308.2129406000022,308.19760880002286,,,,,,,,,,,,,,,,,,,,,,,,,,,,,,,,,,,308.1987355001038,308.2129406000022,308.2129406000022,308.6653347000247,r,1.0,0.4388698000693694,,,,,,sub-006,1,stroop_test,60.414783760947095,
,,,,72.0,0.0,6.0,,,,,,,,,,,,,rot,red,r,1.0,r,1.0,0.4236470999894663,,,,,,,,,,6.0,0.0,72.0,1.0,308.67948970000725,,,,,,,,,,,,,,,,,308.66587350005284,309.4797471000348,310.2796560000861,310.2643133000238,,,,,,,,,,,,,,,,,,,,,,,,,,,,,,,,,,,310.26502100005746,310.2796560000861,310.2796560000861,310.7148656999925,r,1.0,0.4236470999894663,,,,,,sub-006,1,stroop_test,60.414783760947095,
,,,,73.0,1.0,6.0,,,,,,,,,,,,,rot,yellow,g,0.0,g,1.0,0.6016420000232756,,,,,,,,,,6.0,1.0,73.0,3.0,310.72977370000444,,,,,,,,,,,,,,,,,310.7154248000588,311.52943410002626,312.33008060010616,312.31395600002725,,,,,,,,,,,,,,,,,,,,,,,,,,,,,,,,,,,312.3147158001084,312.33008060010616,312.33008060010616,312.9472697000019,g,1.0,0.6016420000232756,,,,,,sub-006,1,stroop_test,60.414783760947095,
,,,,74.0,2.0,6.0,,,,,,,,,,,,,blau,blue,b,1.0,b,1.0,0.3914826000109315,,,,,,,,,,6.0,2.0,74.0,6.0,312.9624228000175,,,,,,,,,,,,,,,,,312.94766110007185,314.1627109000692,314.9624795001,314.9462925000116,,,,,,,,,,,,,,,,,,,,,,,,,,,,,,,,,,,314.9491341999965,314.9624795001,314.9624795001,315.363216000027,b,1.0,0.3914826000109315,,,,,,sub-006,1,stroop_test,60.414783760947095,
,,,,75.0,3.0,6.0,,,,,,,,,,,,,rot,blue,b,0.0,b,1.0,0.9779498999705538,,,,,,,,,,6.0,3.0,75.0,2.0,315.3790538000176,,,,,,,,,,,,,,,,,315.3634194000624,316.162788500078,316.96245350001846,316.9472102000145,,,,,,,,,,,,,,,,,,,,,,,,,,,,,,,,,,,316.9513199001085,316.96245350001846,316.96245350001846,317.948109799996,b,1.0,0.9779498999705538,,,,,,sub-006,1,stroop_test,60.414783760947095,
,,,,76.0,4.0,6.0,,,,,,,,,,,,,gelb,yellow,g,1.0,g,1.0,0.5808146999916062,,,,,,,,,,6.0,4.0,76.0,10.0,317.96240429999307,,,,,,,,,,,,,,,,,317.94875320000574,318.7623751000501,319.56255110003985,319.5471997000277,,,,,,,,,,,,,,,,,,,,,,,,,,,,,,,,,,,319.5511059000856,319.56255110003985,319.56255110003985,320.14892820001114,g,1.0,0.5808146999916062,,,,,,sub-006,1,stroop_test,60.414783760947095,
,,,,77.0,5.0,6.0,,,,,,,,,,,,,blau,blue,b,1.0,b,1.0,0.6194758000783622,,,,,,,,,,6.0,5.0,77.0,5.0,320.1624475000426,,,,,,,,,,,,,,,,,320.14949400001206,320.26231290004216,321.0624925000593,321.0472175000468,,,,,,,,,,,,,,,,,,,,,,,,,,,,,,,,,,,321.0507298000157,321.0624925000593,321.0624925000593,321.69872010010295,b,1.0,0.6194758000783622,,,,,,sub-006,1,stroop_test,60.414783760947095,
,,,,78.0,6.0,6.0,,,,,,,,,,,,,gelb,yellow,g,1.0,g,1.0,0.6941623000893742,,,,,,,,,,6.0,6.0,78.0,11.0,321.71236610005144,,,,,,,,,,,,,,,,,321.6994456000393,322.91259030008223,323.71261140005663,323.6977644000435,,,,,,,,,,,,,,,,,,,,,,,,,,,,,,,,,,,323.70226490008645,323.71261140005663,323.71261140005663,324.4141758000478,g,1.0,0.6941623000893742,,,,,,sub-006,1,stroop_test,60.414783760947095,
,,,,79.0,7.0,6.0,,,,,,,,,,,,,blau,red,r,0.0,r,1.0,1.5051079000113532,,,,,,,,,,6.0,7.0,79.0,4.0,324.4292759000091,,,,,,,,,,,,,,,,,324.4146459000185,324.7792976000346,325.5788484000368,325.5641721000429,,,,,,,,,,,,,,,,,,,,,,,,,,,,,,,,,,,325.5675477000186,325.5788484000368,325.5788484000368,327.0984517000616,r,1.0,1.5051079000113532,,,,,,sub-006,1,stroop_test,60.414783760947095,
,,,,80.0,8.0,6.0,,,,,,,,,,,,,rot,red,r,1.0,r,1.0,0.4156423000385985,,,,,,,,,,6.0,8.0,80.0,0.0,327.1123630000511,,,,,,,,,,,,,,,,,327.09907630004454,327.4623093000846,328.2624127001036,328.2474198000273,,,,,,,,,,,,,,,,,,,,,,,,,,,,,,,,,,,328.2512209000997,328.2624127001036,328.2624127001036,328.6809085001005,r,1.0,0.4156423000385985,,,,,,sub-006,1,stroop_test,60.414783760947095,
,,,,81.0,9.0,6.0,,,,,,,,,,,,,blau,yellow,g,0.0,g,1.0,0.8550277000758797,,,,,,,,,,6.0,9.0,81.0,7.0,328.6955172000453,,,,,,,,,,,,,,,,,328.68130390008446,329.4958606000291,330.2956583000487,330.2803903000895,,,,,,,,,,,,,,,,,,,,,,,,,,,,,,,,,,,330.2842262000777,330.2956583000487,330.2956583000487,331.1656224000035,g,1.0,0.8550277000758797,,,,,,sub-006,1,stroop_test,60.414783760947095,
,,,,82.0,10.0,6.0,,,,,,,,,,,,,gelb,red,r,0.0,r,1.0,0.8377879000036046,,,,,,,,,,6.0,10.0,82.0,8.0,331.1793328000931,,,,,,,,,,,,,,,,,331.1662090000464,331.528892600094,332.3291476001032,332.3138043000363,,,,,,,,,,,,,,,,,,,,,,,,,,,,,,,,,,,332.3214540000772,332.3291476001032,332.3291476001032,333.18218640005216,r,1.0,0.8377879000036046,,,,,,sub-006,1,stroop_test,60.414783760947095,
,,,,83.0,11.0,6.0,,,,,,,,,,,,,gelb,blue,b,0.0,b,1.0,0.6512156999669969,,,,,,,,,,6.0,11.0,83.0,9.0,333.195848000003,,,,,,,,,,,,,,,,,333.1827860000776,333.5456645000959,334.3459208999993,334.3308261000784,,,,,,,,,,,,,,,,,,,,,,,,,,,,,,,,,,,334.3317481999984,334.3459208999993,334.3459208999993,335.01480160001665,b,1.0,0.6512156999669969,,,,,,sub-006,1,stroop_test,60.414783760947095,
,,,,84.0,0.0,7.0,,,,,,,,,,,,,gelb,yellow,g,1.0,g,1.0,0.60808909998741,,,,,,,,,,7.0,0.0,84.0,10.0,335.0288028001087,,,,,,,,,,,,,,,,,335.0153846000321,336.22904560004827,337.0288958000019,337.0138396000257,,,,,,,,,,,,,,,,,,,,,,,,,,,,,,,,,,,337.0146079000551,337.0288958000019,337.0288958000019,337.6489032000536,g,1.0,0.60808909998741,,,,,,sub-006,1,stroop_test,60.414783760947095,
,,,,85.0,1.0,7.0,,,,,,,,,,,,,blau,blue,b,1.0,b,1.0,0.8647377999732271,,,,,,,,,,7.0,1.0,85.0,5.0,337.66228230006527,,,,,,,,,,,,,,,,,337.6495097000152,337.7625315000769,338.562433800078,338.5467717000284,,,,,,,,,,,,,,,,,,,,,,,,,,,,,,,,,,,338.55008900002576,338.562433800078,338.562433800078,339.4316495000385,b,1.0,0.8647377999732271,,,,,,sub-006,1,stroop_test,60.414783760947095,
,,,,86.0,2.0,7.0,,,,,,,,,,,,,blau,blue,b,1.0,b,1.0,0.9179665999254212,,,,,,,,,,7.0,2.0,86.0,6.0,339.445475100074,,,,,,,,,,,,,,,,,339.4322148000356,340.24576040008105,341.0456324000843,341.0310149000725,,,,,,,,,,,,,,,,,,,,,,,,,,,,,,,,,,,341.0319871000247,341.0456324000843,341.0456324000843,341.9814507000847,b,1.0,0.9179665999254212,,,,,,sub-006,1,stroop_test,60.414783760947095,
,,,,87.0,3.0,7.0,,,,,,,,,,,,,rot,blue,b,0.0,b,1.0,0.8995442000450566,,,,,,,,,,7.0,3.0,87.0,2.0,341.9960689001018,,,,,,,,,,,,,,,,,341.9819722000975,343.19624820002355,343.9962417000206,343.98059490008745,,,,,,,,,,,,,,,,,,,,,,,,,,,,,,,,,,,343.9839913001051,343.9962417000206,343.9962417000206,344.89913830009755,b,1.0,0.8995442000450566,,,,,,sub-006,1,stroop_test,60.414783760947095,
,,,,88.0,4.0,7.0,,,,,,,,,,,,,rot,red,r,1.0,r,1.0,0.5149093000218272,,,,,,,,,,7.0,4.0,88.0,1.0,344.9123333001044,,,,,,,,,,,,,,,,,344.8996030000271,346.112593100057,346.91230180009734,346.8977910000831,,,,,,,,,,,,,,,,,,,,,,,,,,,,,,,,,,,346.8985314000165,346.91230180009734,346.91230180009734,347.432028500014,r,1.0,0.5149093000218272,,,,,,sub-006,1,stroop_test,60.414783760947095,
,,,,89.0,5.0,7.0,,,,,,,,,,,,,rot,red,r,1.0,r,1.0,0.492178300046362,,,,,,,,,,7.0,5.0,89.0,0.0,347.4455893000122,,,,,,,,,,,,,,,,,347.4325295001036,348.64612980000675,349.445640000049,349.4305778000271,,,,,,,,,,,,,,,,,,,,,,,,,,,,,,,,,,,349.43132560001686,349.445640000049,349.445640000049,349.95228040008806,r,1.0,0.492178300046362,,,,,,sub-006,1,stroop_test,60.414783760947095,
,,,,90.0,6.0,7.0,,,,,,,,,,,,,blau,yellow,g,0.0,g,1.0,0.8706846999702975,,,,,,,,,,7.0,6.0,90.0,7.0,349.96226699999534,,,,,,,,,,,,,,,,,349.95285350002814,350.3123085000552,351.11229180009104,351.0971117001027,,,,,,,,,,,,,,,,,,,,,,,,,,,,,,,,,,,351.1007183000911,351.11229180009104,351.11229180009104,351.9983688000357,g,1.0,0.8706846999702975,,,,,,sub-006,1,stroop_test,60.414783760947095,
,,,,91.0,7.0,7.0,,,,,,,,,,,,,blau,red,r,0.0,r,1.0,0.9515537000261248,,,,,,,,,,7.0,7.0,91.0,4.0,352.0123798000859,,,,,,,,,,,,,,,,,351.99903300008737,352.11350310000125,352.91264009999577,352.89690760010853,,,,,,,,,,,,,,,,,,,,,,,,,,,,,,,,,,,352.8975545000285,352.91264009999577,352.91264009999577,353.8804315000307,r,1.0,0.9515537000261248,,,,,,sub-006,1,stroop_test,60.414783760947095,
,,,,92.0,8.0,7.0,,,,,,,,,,,,,rot,yellow,g,0.0,g,1.0,1.2315568999620157,,,,,,,,,,7.0,8.0,92.0,3.0,353.89585660002194,,,,,,,,,,,,,,,,,353.8808886000188,354.6957117000129,355.4956946000457,355.48020990006626,,,,,,,,,,,,,,,,,,,,,,,,,,,,,,,,,,,355.4833562000422,355.4956946000457,355.4956946000457,356.7320510999998,g,1.0,1.2315568999620157,,,,,,sub-006,1,stroop_test,60.414783760947095,
,,,,93.0,9.0,7.0,,,,,,,,,,,,,gelb,red,r,0.0,r,1.0,0.8203816999448463,,,,,,,,,,7.0,9.0,93.0,8.0,356.74539460008964,,,,,,,,,,,,,,,,,356.73272940004244,356.84560490003787,357.64569780009333,357.62993739999365,,,,,,,,,,,,,,,,,,,,,,,,,,,,,,,,,,,357.6337338000303,357.64569780009333,357.64569780009333,358.48079520009924,r,1.0,0.8203816999448463,,,,,,sub-006,1,stroop_test,60.414783760947095,
,,,,94.0,10.0,7.0,,,,,,,,,,,,,gelb,blue,b,0.0,b,1.0,0.7102817000122741,,,,,,,,,,7.0,10.0,94.0,9.0,358.49535630003083,,,,,,,,,,,,,,,,,358.48128340009134,359.6958579000784,360.4953897000523,360.48071130004246,,,,,,,,,,,,,,,,,,,,,,,,,,,,,,,,,,,360.48160340008326,360.4953897000523,360.4953897000523,361.2141346000135,b,1.0,0.7102817000122741,,,,,,sub-006,1,stroop_test,60.414783760947095,
,,,,95.0,11.0,7.0,,,,,,,,,,,,,gelb,yellow,g,1.0,g,1.0,0.5734039000235498,,,,,,,,,,7.0,11.0,95.0,11.0,361.2288025000598,,,,,,,,,,,,,,,,,361.2145952000282,362.428625700064,363.22882340010256,363.21331220003776,,,,,,,,,,,,,,,,,,,,,,,,,,,,,,,,,,,363.2140458000358,363.22882340010256,363.22882340010256,363.8146079001017,g,1.0,0.5734039000235498,,,,,,sub-006,1,stroop_test,60.414783760947095,
,,,,96.0,0.0,8.0,,,,,,,,,,,,,rot,red,r,1.0,r,1.0,0.6810867000604048,,,,,,,,,,8.0,0.0,96.0,0.0,363.82852880004793,,,,,,,,,,,,,,,,,363.8151572000934,363.92899190005846,364.7284913000185,364.7133198000956,,,,,,,,,,,,,,,,,,,,,,,,,,,,,,,,,,,364.7176538000349,364.7284913000185,364.7284913000185,365.4146804000484,r,1.0,0.6810867000604048,,,,,,sub-006,1,stroop_test,60.414783760947095,
,,,,97.0,1.0,8.0,,,,,,,,,,,,,blau,blue,b,1.0,b,1.0,0.6391518000746146,,,,,,,,,,8.0,1.0,97.0,6.0,365.4285820000805,,,,,,,,,,,,,,,,,365.4151230000425,366.22864570003,367.0285137000028,367.0133089000592,,,,,,,,,,,,,,,,,,,,,,,,,,,,,,,,,,,367.0170837000478,367.0285137000028,367.0285137000028,367.6804530000081,b,1.0,0.6391518000746146,,,,,,sub-006,1,stroop_test,60.414783760947095,
,,,,98.0,2.0,8.0,,,,,,,,,,,,,gelb,blue,b,0.0,b,1.0,0.6028674999251962,,,,,,,,,,8.0,2.0,98.0,9.0,367.6953247000929,,,,,,,,,,,,,,,,,367.68092850002,368.8955106000649,369.6953357000602,369.67913709999993,,,,,,,,,,,,,,,,,,,,,,,,,,,,,,,,,,,369.68078280007467,369.6953357000602,369.6953357000602,370.31238790007774,b,1.0,0.6028674999251962,,,,,,sub-006,1,stroop_test,60.414783760947095,
,,,,99.0,3.0,8.0,,,,,,,,,,,,,gelb,yellow,g,1.0,g,1.0,0.5045637999428436,,,,,,,,,,8.0,3.0,99.0,11.0,370.3285734000383,,,,,,,,,,,,,,,,,370.3125849000644,371.51214610005263,372.3121401000535,372.2956933000824,,,,,,,,,,,,,,,,,,,,,,,,,,,,,,,,,,,372.2961577000096,372.3121401000535,372.3121401000535,372.83084160008,g,1.0,0.5045637999428436,,,,,,sub-006,1,stroop_test,60.414783760947095,
,,,,100.0,4.0,8.0,,,,,,,,,,,,,gelb,yellow,g,1.0,g,1.0,0.8774782000109553,,,,,,,,,,8.0,4.0,100.0,10.0,372.845146000036,,,,,,,,,,,,,,,,,372.8313538000221,372.94550900009926,373.74534440005664,373.7293276001001,,,,,,,,,,,,,,,,,,,,,,,,,,,,,,,,,,,373.72981420008,373.74534440005664,373.74534440005664,374.6308444000315,g,1.0,0.8774782000109553,,,,,,sub-006,1,stroop_test,60.414783760947095,
,,,,101.0,5.0,8.0,,,,,,,,,,,,,blau,blue,b,1.0,b,1.0,0.6409332999028265,,,,,,,,,,8.0,5.0,101.0,5.0,374.6454163000453,,,,,,,,,,,,,,,,,374.63126310007647,374.7454568000976,375.5451654000208,375.530696400092,,,,,,,,,,,,,,,,,,,,,,,,,,,,,,,,,,,375.5350165000418,375.5451654000208,375.5451654000208,376.19831000000704,b,1.0,0.6409332999028265,,,,,,sub-006,1,stroop_test,60.414783760947095,
,,,,102.0,6.0,8.0,,,,,,,,,,,,,blau,yellow,g,0.0,g,1.0,0.880273099988699,,,,,,,,,,8.0,6.0,102.0,7.0,376.2120829001069,,,,,,,,,,,,,,,,,376.1989256000379,376.3120635000523,377.1122358000139,377.09643440006766,,,,,,,,,,,,,,,,,,,,,,,,,,,,,,,,,,,377.09715340007097,377.1122358000139,377.1122358000139,377.9986059000949,g,1.0,0.880273099988699,,,,,,sub-006,1,stroop_test,60.414783760947095,
,,,,103.0,7.0,8.0,,,,,,,,,,,,,blau,red,r,0.0,r,1.0,0.612275299965404,,,,,,,,,,8.0,7.0,103.0,4.0,378.011947400053,,,,,,,,,,,,,,,,,377.9995046000695,379.2121680000564,380.0120862000622,379.9968014000915,,,,,,,,,,,,,,,,,,,,,,,,,,,,,,,,,,,379.99776940001175,380.0120862000622,380.0120862000622,380.6310354000889,r,1.0,0.612275299965404,,,,,,sub-006,1,stroop_test,60.414783760947095,
,,,,104.0,8.0,8.0,,,,,,,,,,,,,rot,red,r,1.0,r,1.0,0.5611287000356242,,,,,,,,,,8.0,8.0,104.0,1.0,380.6455631999997,,,,,,,,,,,,,,,,,380.631538500078,381.84525020001456,382.6453514000168,382.6305856000399,,,,,,,,,,,,,,,,,,,,,,,,,,,,,,,,,,,382.6353910000762,382.6453514000168,382.6453514000168,383.21484930010047,r,1.0,0.5611287000356242,,,,,,sub-006,1,stroop_test,60.414783760947095,
,,,,105.0,9.0,8.0,,,,,,,,,,,,,rot,yellow,g,0.0,g,1.0,0.6569684999994934,,,,,,,,,,8.0,9.0,105.0,3.0,383.22917940001935,,,,,,,,,,,,,,,,,383.2154254000634,383.57874060003087,384.3802679000655,384.3661148000974,,,,,,,,,,,,,,,,,,,,,,,,,,,,,,,,,,,384.3675102000125,384.3802679000655,384.3802679000655,385.048118100036,g,1.0,0.6569684999994934,,,,,,sub-006,1,stroop_test,60.414783760947095,
,,,,106.0,10.0,8.0,,,,,,,,,,,,,rot,blue,b,0.0,b,1.0,0.7896032000426203,,,,,,,,,,8.0,10.0,106.0,2.0,385.06183910008986,,,,,,,,,,,,,,,,,385.0487566000084,385.161957000033,385.96199370000977,385.9467212000163,,,,,,,,,,,,,,,,,,,,,,,,,,,,,,,,,,,385.94754190009553,385.96199370000977,385.96199370000977,386.7636731000384,b,1.0,0.7896032000426203,,,,,,sub-006,1,stroop_test,60.414783760947095,
,,,,107.0,11.0,8.0,,,,,,,,,,,,,gelb,red,r,0.0,r,1.0,0.7693650999572128,,,,,,,,,,8.0,11.0,107.0,8.0,386.77863730001263,,,,,,,,,,,,,,,,,386.764055000036,387.9785519000143,388.7788059000159,388.7627684000181,,,,,,,,,,,,,,,,,,,,,,,,,,,,,,,,,,,388.7663034000434,388.7788059000159,388.7788059000159,389.5642959000543,r,1.0,0.7693650999572128,,,,,,sub-006,1,stroop_test,60.414783760947095,
,,,,108.0,0.0,9.0,,,,,,,,,,,,,gelb,yellow,g,1.0,g,1.0,0.4297187000047415,,,,,,,,,,9.0,0.0,108.0,10.0,389.578631100012,,,,,,,,,,,,,,,,,389.564829000039,389.92878960003145,390.7289128000848,390.7127418000018,,,,,,,,,,,,,,,,,,,,,,,,,,,,,,,,,,,390.7133051001001,390.7289128000848,390.7289128000848,391.16480000002775,g,1.0,0.4297187000047415,,,,,,sub-006,1,stroop_test,60.414783760947095,
,,,,109.0,1.0,9.0,,,,,,,,,,,,,rot,yellow,g,0.0,g,1.0,0.6332620999310166,,,,,,,,,,9.0,1.0,109.0,3.0,391.17871610005386,,,,,,,,,,,,,,,,,391.1653664000333,391.2787124000024,392.0787329000887,392.0633551999927,,,,,,,,,,,,,,,,,,,,,,,,,,,,,,,,,,,392.0672939000651,392.0787329000887,392.0787329000887,392.7150133000687,g,1.0,0.6332620999310166,,,,,,sub-006,1,stroop_test,60.414783760947095,
,,,,110.0,2.0,9.0,,,,,,,,,,,,,blau,blue,b,1.0,b,1.0,0.4878368000499904,,,,,,,,,,9.0,2.0,110.0,6.0,392.7286077000899,,,,,,,,,,,,,,,,,392.7155660000863,393.0787295000628,393.8786449000472,393.86363280005753,,,,,,,,,,,,,,,,,,,,,,,,,,,,,,,,,,,393.86841840005945,393.8786449000472,393.8786449000472,394.3809643000132,b,1.0,0.4878368000499904,,,,,,sub-006,1,stroop_test,60.414783760947095,
,,,,111.0,3.0,9.0,,,,,,,,,,,,,blau,blue,b,1.0,b,1.0,0.8372092999052256,,,,,,,,,,9.0,3.0,111.0,5.0,394.3951908000745,,,,,,,,,,,,,,,,,394.3814330000896,395.5952184000053,396.3955587000819,396.37984810001217,,,,,,,,,,,,,,,,,,,,,,,,,,,,,,,,,,,396.3804687000811,396.3955587000819,396.3955587000819,397.2475837999955,b,1.0,0.8372092999052256,,,,,,sub-006,1,stroop_test,60.414783760947095,
,,,,112.0,4.0,9.0,,,,,,,,,,,,,gelb,red,r,0.0,r,1.0,0.9606266000773758,,,,,,,,,,9.0,4.0,112.0,8.0,397.26200530002825,,,,,,,,,,,,,,,,,397.24818210001104,397.3621417999966,398.1621659999946,398.1468560000649,,,,,,,,,,,,,,,,,,,,,,,,,,,,,,,,,,,398.1513919000281,398.1621659999946,398.1621659999946,399.1305200000061,r,1.0,0.9606266000773758,,,,,,sub-006,1,stroop_test,60.414783760947095,
,,,,113.0,5.0,9.0,,,,,,,,,,,,,gelb,blue,b,0.0,b,1.0,0.9857473999727516,,,,,,,,,,9.0,5.0,113.0,9.0,399.14532620005775,,,,,,,,,,,,,,,,,399.1309563000687,399.4954931000248,400.2953699000645,400.2798527000705,,,,,,,,,,,,,,,,,,,,,,,,,,,,,,,,,,,400.28050370002165,400.2953699000645,400.2953699000645,401.2976660000859,b,1.0,0.9857473999727516,,,,,,sub-006,1,stroop_test,60.414783760947095,
,,,,114.0,6.0,9.0,,,,,,,,,,,,,gelb,yellow,g,1.0,g,1.0,0.4304082000162452,,,,,,,,,,9.0,6.0,114.0,11.0,401.31216020009015,,,,,,,,,,,,,,,,,401.2982389000245,402.11193890008144,402.91197600006126,402.8970391000621,,,,,,,,,,,,,,,,,,,,,,,,,,,,,,,,,,,402.8979894000804,402.91197600006126,402.91197600006126,403.34817050001584,g,1.0,0.4304082000162452,,,,,,sub-006,1,stroop_test,60.414783760947095,
,,,,115.0,7.0,9.0,,,,,,,,,,,,,blau,yellow,g,0.0,g,1.0,0.3915305000264197,,,,,,,,,,9.0,7.0,115.0,7.0,403.3621543000918,,,,,,,,,,,,,,,,,403.3487393000396,404.162165600108,404.9621201000409,404.9463301000651,,,,,,,,,,,,,,,,,,,,,,,,,,,,,,,,,,,404.9500186000951,404.9621201000409,404.9621201000409,405.3638911000453,g,1.0,0.3915305000264197,,,,,,sub-006,1,stroop_test,60.414783760947095,
,,,,116.0,8.0,9.0,,,,,,,,,,,,,rot,red,r,1.0,r,1.0,0.5045802999520674,,,,,,,,,,9.0,8.0,116.0,0.0,405.3787208000431,,,,,,,,,,,,,,,,,405.3643899000017,405.47866320004687,406.27857770002447,406.2629611000884,,,,,,,,,,,,,,,,,,,,,,,,,,,,,,,,,,,406.2671220001066,406.27857770002447,406.27857770002447,406.79810510005336,r,1.0,0.5045802999520674,,,,,,sub-006,1,stroop_test,60.414783760947095,
,,,,117.0,9.0,9.0,,,,,,,,,,,,,rot,red,r,1.0,r,1.0,0.4390705999685451,,,,,,,,,,9.0,9.0,117.0,1.0,406.8123342000181,,,,,,,,,,,,,,,,,406.7986716000596,407.1621368000051,407.9622590000509,407.948372200015,,,,,,,,,,,,,,,,,,,,,,,,,,,,,,,,,,,407.949196600006,407.9622590000509,407.9622590000509,408.4147084000288,r,1.0,0.4390705999685451,,,,,,sub-006,1,stroop_test,60.414783760947095,
,,,,118.0,10.0,9.0,,,,,,,,,,,,,blau,red,r,0.0,r,1.0,0.4517563000554219,,,,,,,,,,9.0,10.0,118.0,4.0,408.4286704000551,,,,,,,,,,,,,,,,,408.4153367000399,409.6285299001029,410.4284744000761,410.4139258000069,,,,,,,,,,,,,,,,,,,,,,,,,,,,,,,,,,,410.4188338000095,410.4284744000761,410.4284744000761,410.8976465000305,r,1.0,0.4517563000554219,,,,,,sub-006,1,stroop_test,60.414783760947095,
,,,,119.0,11.0,9.0,,,,,,,,,,,,,rot,blue,b,0.0,b,1.0,0.8965352999512106,,,,,,,,,,9.0,11.0,119.0,2.0,410.9114979000296,,,,,,,,,,,,,,,,,410.8982311000582,411.7118745000335,412.5117380000884,412.49576970003545,,,,,,,,,,,,,,,,,,,,,,,,,,,,,,,,,,,412.4990786000853,412.5117380000884,412.5117380000884,413.4144951000344,b,1.0,0.8965352999512106,,,,,,sub-006,1,stroop_test,60.414783760947095,
,,,,,,,,,,,,,,,,,,,,,,,,,,,,,,,,,,,,,,,,,,,,,,,,,,,,,,,,,,,,,,,,,,,,,,,,,,,,,,,,,,,,,,,,,,,,,,,,,,,,,,413.41477910010144,413.4286022000015,418.4286948000081,418.4137304000324,sub-006,1,stroop_test,60.414783760947095,
