direction,corrAns,randomInstr,practice_trials.thisRepN,practice_trials.thisTrialN,practice_trials.thisN,practice_trials.thisIndex,instr_trials.thisRepN,instr_trials.thisTrialN,instr_trials.thisN,instr_trials.thisIndex,test_trials.thisRepN,test_trials.thisTrialN,test_trials.thisN,test_trials.thisIndex,thisRow.t,notes,general_instruction.started,textGeneralInstr.started,respGeneralInstr.started,general_instruction.stopped,respGeneralInstr.keys,respGeneralInstr.rt,respGeneralInstr.duration,ITI.started,fixcross.started,fixcross.stopped,ITI.stopped,dots.started,backgroundDots.started,stimulusDots.started,respDots.started,stimulusDots.stopped,dots.stopped,respDots.keys,respDots.corr,respDots.rt,respDots.duration,feedback.started,textFeedback.started,textFeedback.stopped,feedback.stopped,info.started,textInfo.started,keyRespInfo.started,info.stopped,keyRespInfo.keys,keyRespInfo.rt,keyRespInfo.duration,test_instruction.started,textTestInstr.started,respTestInstr.started,test_instruction.stopped,respTestInstr.keys,respTestInstr.rt,respTestInstr.duration,random_instruction.started,textRandomInstr.started,respRandomInstr.started,random_instruction.stopped,respRandomInstr.keys,respRandomInstr.rt,respRandomInstr.duration,goodbye.started,textGoodbye.started,goodbye.stopped,participant,session,expName,frameRate,Unnamed: 73
,,,,,,,,,,,,,,,,,0.0126218998339027,0.0151517000049352,0.0151517000049352,1329.027158299927,space,1345.0625016000122,,,,,,,,,,,,,,,,,,,,,,,,,,,,,,,,,,,,,,,,,,,,sub-063,1.0,random_dot,60.40894440966828,
right,right,,0.0,0.0,0.0,1.0,,,,,,,,,1329.0420732998757,,,,,,,,,1329.037884999998,1329.3920465998815,1330.1914190000389,1330.1752599999309,1330.1752795998473,1330.1914190000389,1330.1914190000389,1330.1914190000389,1335.1874161998276,1343.1148502000142,left,0.0,28.97374519985169,,1343.1154507999308,1343.1305636998732,1343.6300836999435,1343.6142561000306,,,,,,,,,,,,,,,,,,,,,,,,,sub-063,1.0,random_dot,60.40894440966828,
left,left,,0.0,1.0,1.0,0.0,,,,,,,,,1343.6300836999435,,,,,,,,,1343.6148079000411,1343.979952099966,1344.779627899872,1344.7637708999682,1344.7638099999167,1344.779627899872,1344.779627899872,1344.779627899872,1349.7754098998848,1349.7936090999283,right,0.0,21.064787599956617,,1349.7943950998597,1349.808704199968,1350.3079407999758,1350.291904699989,,,,,,,,,,,,,,,,,,,,,,,,,sub-063,1.0,random_dot,60.40894440966828,
right,right,,1.0,0.0,2.0,1.0,,,,,,,,,1350.3079407999758,,,,,,,,,1350.2923264999408,1350.6579535000492,1351.457333700033,1351.441054899944,1351.4410776000004,1351.457333700033,1351.457333700033,1351.457333700033,1356.4530346998945,1358.486594100017,left,0.0,23.07984510017559,,1358.487307399977,1358.5015302000102,1359.001159399981,1358.9852453998756,,,,,,,,,,,,,,,,,,,,,,,,,sub-063,1.0,random_dot,60.40894440966828,
left,left,,1.0,1.0,3.0,0.0,,,,,,,,,1359.001159399981,,,,,,,,,1358.985720800003,1360.1999754998833,1360.9993667998351,1360.9833565999288,1360.9833784999792,1360.9993667998351,1360.9993667998351,1360.9993667998351,1365.9956596998964,1369.4435641998425,right,0.0,24.499702400062237,,1369.4440907000098,1369.458903899882,1369.9586159999017,1369.9429933000356,,,,,,,,,,,,,,,,,,,,,,,,,sub-063,1.0,random_dot,60.40894440966828,
right,right,,2.0,0.0,4.0,1.0,,,,,,,,,1369.9586159999017,,,,,,,,,1369.943597999867,1371.1576602000275,1371.9570897000376,1371.941116699949,1371.9411424000282,1371.9570897000376,1371.9570897000376,1371.9570897000376,1376.9529569000006,1377.5704751999583,left,0.0,21.658986000111327,,1377.5709996998776,1377.5857833998743,1378.0853391999844,1378.069078499917,,,,,,,,,,,,,,,,,,,,,,,,,sub-063,1.0,random_dot,60.40894440966828,
left,left,,2.0,1.0,5.0,0.0,,,,,,,,,1378.0853391999844,,,,,,,,,1378.0694400998764,1379.284438899951,1380.083942399826,1380.0681228998585,1380.0681695998646,1380.083942399826,1380.083942399826,1380.083942399826,1385.079819599865,1388.2445473000407,right,0.0,24.203008000040427,,1388.244935899973,1388.259976199828,1388.7598745999858,1388.7442584999371,,,,,,,,,,,,,,,,,,,,,,,,,sub-063,1.0,random_dot,60.40894440966828,
left,left,,3.0,0.0,6.0,0.0,,,,,,,,,1388.7598745999858,,,,,,,,,1388.744862399995,1388.8597099999895,1389.6593312998302,1389.6428137999028,1389.6428346999455,1389.6593312998302,1389.6593312998302,1389.6593312998302,1394.655087799998,1396.404167599976,left,1.0,22.80158569989726,,1396.4045555999037,1396.419921200024,1396.9196701999754,1396.9040677999146,,,,,,,,,,,,,,,,,,,,,,,,,sub-063,1.0,random_dot,60.40894440966828,
right,right,,3.0,1.0,7.0,1.0,,,,,,,,,1396.9196701999754,,,,,,,,,1396.904649300035,1397.2696189000271,1398.069083899958,1398.0526395998895,1398.052657800028,1398.069083899958,1398.069083899958,1398.069083899958,1403.0651962999254,1429.9616550998762,right,1.0,47.94964140001685,,1429.9621979999356,1429.9758259998634,1430.4752606998663,1430.4593778999988,,,,,,,,,,,,,,,,,,,,,,,,,sub-063,1.0,random_dot,60.40894440966828,
right,right,,4.0,0.0,8.0,1.0,,,,,,,,,1430.4752606998663,,,,,,,,,1430.4598941998556,1430.825488699833,1431.6249206999782,1431.6084849999752,1431.608507100027,1431.6249206999782,1431.6249206999782,1431.6249206999782,1436.6203508998733,1441.5006619999183,right,1.0,25.93274630024098,,1441.5010605000425,1441.5160874999128,1442.0158887999132,1442.00013890001,,,,,,,,,,,,,,,,,,,,,,,,,sub-063,1.0,random_dot,60.40894440966828,
left,left,,4.0,1.0,9.0,0.0,,,,,,,,,1442.0158887999132,,,,,,,,,1442.0005932999777,1442.8151994999498,1443.614886000054,1443.5987088999243,1443.598742299946,1443.614886000054,1443.614886000054,1443.614886000054,1448.6106177999172,1449.9268570998684,right,0.0,22.368270399980247,,1449.9273834000342,1449.942544999998,1450.4424093000123,1450.4265833999962,,,,,,,,,,,,,,,,,,,,,,,,,sub-063,1.0,random_dot,60.40894440966828,
left,left,,5.0,0.0,10.0,0.0,,,,,,,,,1450.4424093000123,,,,,,,,,1450.4271631999873,1451.2415911999997,1452.0409035000484,1452.0246146998834,1452.0246270999778,1452.0409035000484,1452.0409035000484,1452.0409035000484,1457.037210699869,1458.070620100014,right,0.0,22.085892100119963,,1458.071009799838,1458.086035599932,1458.5856757999863,1458.569897599984,,,,,,,,,,,,,,,,,,,,,,,,,sub-063,1.0,random_dot,60.40894440966828,
right,right,,5.0,1.0,11.0,1.0,,,,,,,,,1458.5856757999863,,,,,,,,,1458.5703873999882,1458.685422600014,1459.4851984998677,1459.46903739986,1459.469061099924,1459.4851984998677,1459.4851984998677,1459.4851984998677,1464.4810671999585,1466.863143999828,right,1.0,23.42248170007952,,1466.8635525999125,1466.878560999874,1467.378642299911,1467.363018600037,,,,,,,,,,,,,,,,,,,,,,,,,sub-063,1.0,random_dot,60.40894440966828,
left,left,,6.0,0.0,12.0,0.0,,,,,,,,,1467.378642299911,,,,,,,,,1467.3636512998492,1467.728194199968,1468.5275309998542,1468.5112610999497,1468.5112796998585,1468.5275309998542,1468.5275309998542,1468.5275309998542,1473.523605399998,1475.7388605999297,left,1.0,23.25786010012962,,1475.739225300029,1475.7547134999186,1476.254307499854,1476.2379141999409,,,,,,,,,,,,,,,,,,,,,,,,,sub-063,1.0,random_dot,60.40894440966828,
right,right,,6.0,1.0,13.0,1.0,,,,,,,,,1476.254307499854,,,,,,,,,1476.238268799847,1477.4534715998452,1478.2529295999557,1478.2364030999595,1478.236419999972,1478.2529295999557,1478.2529295999557,1478.2529295999557,,1481.251221699873,left,0.0,19.046904100105166,,1481.2516087999102,1481.266744399909,1481.7664846000262,1481.7506250999868,,,,,,,,,,,,,,,,,,,,,,,,,sub-063,1.0,random_dot,60.40894440966828,
right,right,,7.0,0.0,14.0,1.0,,,,,,,,,1481.7664846000262,,,,,,,,,1481.7511509999167,1482.9656433998607,1483.7649276000448,1483.7487609998789,1483.7487840999383,1483.7649276000448,1483.7649276000448,1483.7649276000448,1488.7608521999791,1489.378420899855,left,0.0,21.66578690009192,,1489.3789164999034,1489.3935789000243,1489.8930662998464,1489.8774303998798,,,,,,,,,,,,,,,,,,,,,,,,,sub-063,1.0,random_dot,60.40894440966828,
left,left,,7.0,1.0,15.0,0.0,,,,,,,,,1489.8930662998464,,,,,,,,,1489.87792670005,1491.0921914000064,1491.891714300029,1491.875588899944,1491.8756095999852,1491.891714300029,1491.891714300029,1491.891714300029,1496.8871420999058,1496.871586299967,right,0.0,21.033541599987075,,1496.8719772000331,1496.8871420999058,1497.3866965000052,1497.370757599827,,,,,,,,,,,,,,,,,,,,,,,,,sub-063,1.0,random_dot,60.40894440966828,
right,right,,8.0,0.0,16.0,1.0,,,,,,,,,1497.3866965000052,,,,,,,,,1497.37107559992,1498.585964199854,1499.3856007000431,1499.3691803000402,1499.3692019998562,1499.3856007000431,1499.3856007000431,1499.3856007000431,1504.3810759999324,1505.6310443999246,right,1.0,22.296279199887067,,1505.6314079998992,1505.6465441000182,1506.1464845999144,1506.130817399826,,,,,,,,,,,,,,,,,,,,,,,,,sub-063,1.0,random_dot,60.40894440966828,
left,left,,8.0,1.0,17.0,0.0,,,,,,,,,1506.1464845999144,,,,,,,,,1506.1314065000042,1507.345844599884,1508.1615802999586,1508.1457672000397,1508.1457938000094,1508.1615802999586,1508.1615802999586,1508.1615802999586,1513.1571732999291,1514.8079492000395,right,0.0,22.69526219996624,,1514.8087815998588,1514.8227317999117,1515.3221573999615,1515.3060075000394,,,,,,,,,,,,,,,,,,,,,,,,,sub-063,1.0,random_dot,60.40894440966828,
right,right,,9.0,0.0,18.0,1.0,,,,,,,,,1515.3221573999615,,,,,,,,,1515.3064561998472,1515.4220702999737,1516.2219207999296,1516.205551299965,1516.20557069988,1516.2219207999296,1516.2219207999296,1516.2219207999296,1521.217724399874,1522.3848760998808,right,1.0,22.213906600140035,,1522.3854882998858,1522.399788599927,1522.899313800037,1522.8834613000508,,,,,,,,,,,,,,,,,,,,,,,,,sub-063,1.0,random_dot,60.40894440966828,
left,left,,9.0,1.0,19.0,0.0,,,,,,,,,1522.899313800037,,,,,,,,,1522.8840752998367,1524.0984392999671,1524.8979549999349,1524.8818583998363,1524.8818852000404,1524.8979549999349,1524.8979549999349,1524.8979549999349,,1529.5454964998644,left,1.0,20.70535579998977,,1529.5459991998505,1529.560095099965,1530.0602351999842,1530.044401400024,,,,,,,,,,,,,,,,,,,,,,,,,sub-063,1.0,random_dot,60.40894440966828,
,,,,,,,,,,,,,,,,,,,,,,,,,,,,,,,,,,,,,,,,,,1530.0444836998358,1530.0602351999842,1530.0602351999842,1533.9073604999576,space,19.901565300067887,,,,,,,,,,,,,,,,,,,sub-063,1.0,random_dot,60.40894440966828,
,,,,,,,,,,,,,,,,,,,,,,,,,,,,,,,,,,,,,,,,,,,,,,,,,1533.90738400002,1533.9233507998288,1533.9233507998288,1660.3534484999254,space,142.4779364001006,,,,,,,,,,,,sub-063,1.0,random_dot,60.40894440966828,
right,right,accuracy,,,,,0.0,0.0,0.0,0.0,0.0,0.0,0.0,1.0,1666.081467999844,,,,,,,,,1666.07355979993,1666.181355000008,1666.9810343999416,1666.9648333999794,1666.964859499829,1666.9810343999416,1666.9810343999416,1666.9810343999416,1671.9769128998742,1673.7601447999475,right,1.0,22.82138660014607,,,,,,,,,,,,,,,,,,,,1660.356539499946,1660.3690720000304,1660.3690720000304,1666.0664424998686,space,21.742028900189325,,,,,sub-063,1.0,random_dot,60.40894440966828,
left,left,accuracy,,,,,0.0,0.0,0.0,0.0,0.0,1.0,1.0,0.0,1673.775045099901,,,,,,,,,1673.761542599881,1674.574463199824,1675.3741188000422,1675.357978799846,1675.358001699904,1675.3741188000422,1675.3741188000422,1675.3741188000422,,1676.7732706000097,left,1.0,17.442206900101155,,,,,,,,,,,,,,,,,,,,,,,,,,,,,,sub-063,1.0,random_dot,60.40894440966828,
right,right,accuracy,,,,,0.0,0.0,0.0,0.0,1.0,0.0,2.0,1.0,1676.7890325998887,,,,,,,,,1676.7740074999165,1677.5886738998815,1678.3880339998286,1678.3714840998873,1678.3714967998676,1678.3880339998286,1678.3880339998286,1678.3880339998286,1683.3839443998877,1684.4011452998966,right,1.0,22.06738250004128,,,,,,,,,,,,,,,,,,,,,,,,,,,,,,sub-063,1.0,random_dot,60.40894440966828,
left,left,accuracy,,,,,0.0,0.0,0.0,0.0,1.0,1.0,3.0,0.0,1684.41611859994,,,,,,,,,1684.4022842999548,1684.7660045998637,1685.565577500034,1685.5493214000016,1685.549353200011,1685.565577500034,1685.565577500034,1685.565577500034,,1686.966504199896,left,1.0,17.45866630016826,,,,,,,,,,,,,,,,,,,,,,,,,,,,,,sub-063,1.0,random_dot,60.40894440966828,
left,left,accuracy,,,,,0.0,0.0,0.0,0.0,2.0,0.0,4.0,0.0,1686.9809051000047,,,,,,,,,1686.9678252998274,1687.7801822000183,1688.579955499852,1688.5640006000176,1688.5640263999812,1688.579955499852,1688.579955499852,1688.579955499852,,1689.996985899983,left,1.0,17.471194400219247,,,,,,,,,,,,,,,,,,,,,,,,,,,,,,sub-063,1.0,random_dot,60.40894440966828,
right,right,accuracy,,,,,0.0,0.0,0.0,0.0,2.0,1.0,5.0,1.0,1690.0117078998592,,,,,,,,,1689.9982191999443,1691.2106941998936,1692.0103437998332,1691.9936901999172,1691.9937078999355,1692.0103437998332,1692.0103437998332,1692.0103437998332,,1694.4094599999953,right,1.0,18.44114360003732,,,,,,,,,,,,,,,,,,,,,,,,,,,,,,sub-063,1.0,random_dot,60.40894440966828,
right,right,accuracy,,,,,0.0,0.0,0.0,0.0,3.0,0.0,6.0,1.0,1694.424802399939,,,,,,,,,1694.4105211999267,1694.7742627998814,1695.5741526999043,1695.5580195998773,1695.5580420999322,1695.5741526999043,1695.5741526999043,1695.5741526999043,,1697.3730554999784,left,0.0,17.854853600030765,,,,,,,,,,,,,,,,,,,,,,,,,,,,,,sub-063,1.0,random_dot,60.40894440966828,
left,left,accuracy,,,,,0.0,0.0,0.0,0.0,3.0,1.0,7.0,0.0,1697.3888148998376,,,,,,,,,1697.373723599827,1698.1882259000558,1698.9881129998248,1698.9722718999255,1698.9723057998344,1698.9881129998248,1698.9881129998248,1698.9881129998248,,1700.3377077998591,left,1.0,17.408189800102264,,,,,,,,,,,,,,,,,,,,,,,,,,,,,,sub-063,1.0,random_dot,60.40894440966828,
right,right,accuracy,,,,,0.0,0.0,0.0,0.0,4.0,0.0,8.0,1.0,1700.3530637999063,,,,,,,,,1700.338334799977,1700.7026292998344,1701.5023564998992,1701.4857858000323,1701.4858044998257,1701.5023564998992,1701.5023564998992,1701.5023564998992,,1702.8859896999784,right,1.0,17.439869200112298,,,,,,,,,,,,,,,,,,,,,,,,,,,,,,sub-063,1.0,random_dot,60.40894440966828,
left,left,accuracy,,,,,0.0,0.0,0.0,0.0,4.0,1.0,9.0,0.0,1702.9011033000425,,,,,,,,,1702.8871126000304,1703.7005351998378,1704.499961500056,1704.483716599876,1704.4837382999249,1704.499961500056,1704.499961500056,1704.499961500056,,1705.4332413999364,left,1.0,16.987213500076905,,,,,,,,,,,,,,,,,,,,,,,,,,,,,,sub-063,1.0,random_dot,60.40894440966828,
left,left,accuracy,,,,,0.0,0.0,0.0,0.0,5.0,0.0,10.0,0.0,1705.4487596000545,,,,,,,,,1705.433991999831,1705.798429499846,1706.5984432999976,1706.5823568999767,1706.5824171998538,1706.5984432999976,1706.5984432999976,1706.5984432999976,,1708.282329699956,left,1.0,17.72779960022308,,,,,,,,,,,,,,,,,,,,,,,,,,,,,,sub-063,1.0,random_dot,60.40894440966828,
right,right,accuracy,,,,,0.0,0.0,0.0,0.0,5.0,1.0,11.0,1.0,1708.297313899966,,,,,,,,,1708.2838923998645,1709.0961664998904,1709.8956984998658,1709.8796025000047,1709.8796321998816,1709.8956984998658,1709.8956984998658,1709.8956984998658,,1710.8796375999227,right,1.0,17.036205400014296,,,,,,,,,,,,,,,,,,,,,,,,,,,,,,sub-063,1.0,random_dot,60.40894440966828,
right,right,accuracy,,,,,0.0,0.0,0.0,0.0,6.0,0.0,12.0,1.0,1710.8946250998415,,,,,,,,,1710.8805869000498,1711.2443966998253,1712.043962100055,1712.0279361000285,1712.0279635000045,1712.043962100055,1712.043962100055,1712.043962100055,,1713.0442492000293,right,1.0,17.05036830017343,,,,,,,,,,,,,,,,,,,,,,,,,,,,,,sub-063,1.0,random_dot,60.40894440966828,
left,left,accuracy,,,,,0.0,0.0,0.0,0.0,6.0,1.0,13.0,0.0,1713.0592860998586,,,,,,,,,1713.0452745000366,1713.8586842999794,1714.658580099931,1714.6424868998583,1714.642520399997,1714.658580099931,1714.658580099931,1714.658580099931,,1715.5081912998576,left,1.0,16.892322700005025,,,,,,,,,,,,,,,,,,,,,,,,,,,,,,sub-063,1.0,random_dot,60.40894440966828,
right,right,accuracy,,,,,0.0,0.0,0.0,0.0,7.0,0.0,14.0,1.0,1715.5239728000015,,,,,,,,,1715.509014699841,1716.723124000011,1717.5226739000063,1717.5067052999511,1717.5067370999604,1717.5226739000063,1717.5226739000063,1717.5226739000063,,1718.37314959988,right,1.0,16.90271809999831,,,,,,,,,,,,,,,,,,,,,,,,,,,,,,sub-063,1.0,random_dot,60.40894440966828,
left,left,accuracy,,,,,0.0,0.0,0.0,0.0,7.0,1.0,15.0,0.0,1718.3881926999893,,,,,,,,,1718.3740367998837,1718.4882520998362,1719.2877117998432,1719.2713704998605,1719.2713869998695,1719.2877117998432,1719.2877117998432,1719.2877117998432,,1720.055022199871,left,1.0,16.81684170011431,,,,,,,,,,,,,,,,,,,,,,,,,,,,,,sub-063,1.0,random_dot,60.40894440966828,
right,right,accuracy,,,,,0.0,0.0,0.0,0.0,8.0,0.0,16.0,1.0,1720.0702412000392,,,,,,,,,1720.05620849994,1720.8692498998716,1721.6691206998655,1721.6528022000566,1721.652828899911,1721.6691206998655,1721.6691206998655,1721.6691206998655,,1722.9859299999662,right,1.0,17.36775629990734,,,,,,,,,,,,,,,,,,,,,,,,,,,,,,sub-063,1.0,random_dot,60.40894440966828,
left,left,accuracy,,,,,0.0,0.0,0.0,0.0,8.0,1.0,17.0,0.0,1723.001224000007,,,,,,,,,1722.9873589999042,1723.1013038000092,1723.9005879999604,1723.8844121999573,1723.8844343000092,1723.9005879999604,1723.9005879999604,1723.9005879999604,,1724.5674753000494,left,1.0,16.71259930008091,,,,,,,,,,,,,,,,,,,,,,,,,,,,,,sub-063,1.0,random_dot,60.40894440966828,
left,left,accuracy,,,,,0.0,0.0,0.0,0.0,9.0,0.0,18.0,0.0,1724.5829483999405,,,,,,,,,1724.56829259987,1725.7823208998889,1726.58172310004,1726.5658231000416,1726.5658837999215,1726.58172310004,1726.58172310004,1726.58172310004,,1727.4989368000531,left,1.0,16.96599069982767,,,,,,,,,,,,,,,,,,,,,,,,,,,,,,sub-063,1.0,random_dot,60.40894440966828,
right,right,accuracy,,,,,0.0,0.0,0.0,0.0,9.0,1.0,19.0,1.0,1727.5142532999162,,,,,,,,,1727.50010569999,1727.863735599909,1728.6633840999566,1728.6468320998829,1728.6468529999256,1728.6633840999566,1728.6633840999566,1728.6633840999566,,1729.3476054000205,right,1.0,16.731983999954537,,,,,,,,,,,,,,,,,,,,,,,,,,,,,,sub-063,1.0,random_dot,60.40894440966828,
right,right,accuracy,,,,,0.0,0.0,0.0,0.0,10.0,0.0,20.0,1.0,1729.3623597999103,,,,,,,,,1729.3488846998662,1730.5613168999553,1731.3609724999403,1731.3449875998776,1731.3450177998748,1731.3609724999403,1731.3609724999403,1731.3609724999403,,1732.993846999947,right,1.0,17.68339110026136,,,,,,,,,,,,,,,,,,,,,,,,,,,,,,sub-063,1.0,random_dot,60.40894440966828,
left,left,accuracy,,,,,0.0,0.0,0.0,0.0,10.0,1.0,21.0,0.0,1733.009264099877,,,,,,,,,1732.994491999969,1733.808668399928,1734.608515299857,1734.5921187999193,1734.5921358000487,1734.608515299857,1734.608515299857,1734.608515299857,,1736.674508499913,left,1.0,18.115612200228497,,,,,,,,,,,,,,,,,,,,,,,,,,,,,,sub-063,1.0,random_dot,60.40894440966828,
right,right,accuracy,,,,,0.0,0.0,0.0,0.0,11.0,0.0,22.0,1.0,1736.6899443999864,,,,,,,,,1736.6751518999226,1736.7897981998976,1737.5891384000424,1737.5730928999835,1737.5731102998834,1737.5891384000424,1737.5891384000424,1737.5891384000424,,1738.4561413000338,right,1.0,16.923292400082573,,,,,,,,,,,,,,,,,,,,,,,,,,,,,,sub-063,1.0,random_dot,60.40894440966828,
left,left,accuracy,,,,,0.0,0.0,0.0,0.0,11.0,1.0,23.0,0.0,1738.471482799854,,,,,,,,,1738.4571926998906,1738.8212430998683,1739.6210731000174,1739.604514699895,1739.6045337000396,1739.6210731000174,1739.6210731000174,1739.6210731000174,,1741.1041377999354,left,1.0,17.527603500057012,,,,,,,,,,,,,,,,,,,,,,,,,,,,,,sub-063,1.0,random_dot,60.40894440966828,
left,left,accuracy,,,,,0.0,0.0,0.0,0.0,12.0,0.0,24.0,0.0,1741.119329100009,,,,,,,,,1741.1052290999796,1741.4695661000442,1742.269187900005,1742.253148799995,1742.253200199921,1742.269187900005,1742.269187900005,1742.269187900005,,1744.1692596999928,left,1.0,17.945758800022304,,,,,,,,,,,,,,,,,,,,,,,,,,,,,,sub-063,1.0,random_dot,60.40894440966828,
right,right,accuracy,,,,,0.0,0.0,0.0,0.0,12.0,1.0,25.0,1.0,1744.1838340999093,,,,,,,,,1744.1699816000182,1745.3827891000549,1746.1824606000446,1746.1663061999716,1746.1663704998791,1746.1824606000446,1746.1824606000446,1746.1824606000446,,1748.5654162999708,right,1.0,18.432598600164056,,,,,,,,,,,,,,,,,,,,,,,,,,,,,,sub-063,1.0,random_dot,60.40894440966828,
right,right,accuracy,,,,,0.0,0.0,0.0,0.0,13.0,0.0,26.0,1.0,1748.5802308998536,,,,,,,,,1748.566132799955,1749.7791448999196,1750.5792079998646,1750.5632666000165,1750.563293499872,1750.5792079998646,1750.5792079998646,1750.5792079998646,,1752.6475056998895,right,1.0,18.12406750000082,,,,,,,,,,,,,,,,,,,,,,,,,,,,,,sub-063,1.0,random_dot,60.40894440966828,
left,left,accuracy,,,,,0.0,0.0,0.0,0.0,13.0,1.0,27.0,0.0,1752.6602856998798,,,,,,,,,1752.649269900052,1753.4595428998582,1754.259563999949,1754.243661500048,1754.2437006998807,1754.259563999949,1754.259563999949,1754.259563999949,,1756.3921215999871,left,1.0,18.18347340007313,,,,,,,,,,,,,,,,,,,,,,,,,,,,,,sub-063,1.0,random_dot,60.40894440966828,
right,right,accuracy,,,,,0.0,0.0,0.0,0.0,14.0,0.0,28.0,1.0,1756.40761330002,,,,,,,,,1756.3929643998854,1757.2067962000149,1758.0063229999505,1757.9898705000523,1757.9898871998305,1758.0063229999505,1758.0063229999505,1758.0063229999505,,1760.122652699938,right,1.0,18.16511489986442,,,,,,,,,,,,,,,,,,,,,,,,,,,,,,sub-063,1.0,random_dot,60.40894440966828,
left,left,accuracy,,,,,0.0,0.0,0.0,0.0,14.0,1.0,29.0,0.0,1760.1377634999808,,,,,,,,,1760.1235666000284,1761.3363933998626,1762.1359351999126,1762.120064900024,1762.1200941998975,1762.1359351999126,1762.1359351999126,1762.1359351999126,,1763.9849912000354,left,1.0,17.901062700198963,,,,,,,,,,,,,,,,,,,,,,,,,,,,,,sub-063,1.0,random_dot,60.40894440966828,
right,right,accuracy,,,,,0.0,0.0,0.0,0.0,15.0,0.0,30.0,1.0,1764.0003742000554,,,,,,,,,1763.9856616999025,1764.3502553999424,1765.1502018999308,1765.1340136998333,1765.134037700016,1765.1502018999308,1765.1502018999308,1765.1502018999308,,1766.9665715999436,right,1.0,17.860739700030535,,,,,,,,,,,,,,,,,,,,,,,,,,,,,,sub-063,1.0,random_dot,60.40894440966828,
left,left,accuracy,,,,,0.0,0.0,0.0,0.0,15.0,1.0,31.0,0.0,1766.9817846999504,,,,,,,,,1766.9675322000403,1767.3313278998248,1768.1309258998372,1768.1149273999035,1768.1149537998715,1768.1309258998372,1768.1309258998372,1768.1309258998372,,1769.2307058000006,left,1.0,17.14460360002704,,,,,,,,,,,,,,,,,,,,,,,,,,,,,,sub-063,1.0,random_dot,60.40894440966828,
left,left,accuracy,,,,,0.0,0.0,0.0,0.0,16.0,0.0,32.0,0.0,1769.2461546999402,,,,,,,,,1769.2314802999608,1770.445569399977,1771.2449588999152,1771.2284623000303,1771.2284794000443,1771.2449588999152,1771.2449588999152,1771.2449588999152,,1772.928364200052,left,1.0,17.733397000003606,,,,,,,,,,,,,,,,,,,,,,,,,,,,,,sub-063,1.0,random_dot,60.40894440966828,
right,right,accuracy,,,,,0.0,0.0,0.0,0.0,16.0,1.0,33.0,1.0,1772.9432683999185,,,,,,,,,1772.9294257999863,1773.043415499851,1773.8428543999323,1773.8266506998334,1773.8266737000083,1773.8428543999323,1773.8428543999323,1773.8428543999323,,1776.925116499886,right,1.0,19.128804000094533,,,,,,,,,,,,,,,,,,,,,,,,,,,,,,sub-063,1.0,random_dot,60.40894440966828,
right,right,accuracy,,,,,0.0,0.0,0.0,0.0,17.0,0.0,34.0,1.0,1776.9401322000194,,,,,,,,,1776.926444799872,1777.04012089991,1777.8396441999355,1777.8232319999952,1777.8232495998964,1777.8396441999355,1777.8396441999355,1777.8396441999355,,1782.353151399875,right,1.0,20.557519200025126,,,,,,,,,,,,,,,,,,,,,,,,,,,,,,sub-063,1.0,random_dot,60.40894440966828,
left,left,accuracy,,,,,0.0,0.0,0.0,0.0,17.0,1.0,35.0,0.0,1782.368738099933,,,,,,,,,1782.3538458999246,1783.1680825999938,1783.9678600998595,1783.9514991999604,1783.9515209000092,1783.9678600998595,1783.9678600998595,1783.9678600998595,,1786.3501164999325,left,1.0,18.44041469995864,,,,,,,,,,,,,,,,,,,,,,,,,,,,,,sub-063,1.0,random_dot,60.40894440966828,
left,left,accuracy,,,,,0.0,0.0,0.0,0.0,18.0,0.0,36.0,0.0,1786.3653631999623,,,,,,,,,1786.3510147000195,1787.1651842000429,1787.9648869000375,1787.9486415998545,1787.9486702999566,1787.9648869000375,1787.9648869000375,1787.9648869000375,,1789.5652661998756,left,1.0,17.657402200158685,,,,,,,,,,,,,,,,,,,,,,,,,,,,,,sub-063,1.0,random_dot,60.40894440966828,
right,right,accuracy,,,,,0.0,0.0,0.0,0.0,18.0,1.0,37.0,1.0,1789.5796590999234,,,,,,,,,1789.5664095999673,1789.929369600024,1790.7290125999134,1790.71300280001,1790.713028699858,1790.7290125999134,1790.7290125999134,1790.7290125999134,,1794.3266823999584,right,1.0,19.640059200115505,,,,,,,,,,,,,,,,,,,,,,,,,,,,,,sub-063,1.0,random_dot,60.40894440966828,
right,right,accuracy,,,,,0.0,0.0,0.0,0.0,19.0,0.0,38.0,1.0,1794.342152799945,,,,,,,,,1794.327485699905,1795.1418985000346,1795.9412318998948,1795.9250556000045,1795.9250765999311,1795.9412318998948,1795.9412318998948,1795.9412318998948,1800.937245100038,1801.2874823999591,right,1.0,21.39031590009108,,,,,,,,,,,,,,,,,,,,,,,,,,,,,,sub-063,1.0,random_dot,60.40894440966828,
left,left,accuracy,,,,,0.0,0.0,0.0,0.0,19.0,1.0,39.0,0.0,1801.3031394998543,,,,,,,,,1801.2883073999546,1802.502440399956,1803.302184900036,1803.286245199852,1803.2862775998656,1803.302184900036,1803.302184900036,1803.302184900036,,1805.0521800999995,left,1.0,17.8051812001504,,,,,,,,,,,,,,,,,,,,,,,,,,,,,,sub-063,1.0,random_dot,60.40894440966828,
left,left,accuracy,,,,,0.0,0.0,0.0,0.0,20.0,0.0,40.0,0.0,1805.067076700041,,,,,,,,,1805.0533213999588,1805.8664969999809,1806.666012099944,1806.64978899993,1806.6498135,1806.666012099944,1806.666012099944,1806.666012099944,,1809.8646555999292,left,1.0,19.24502440006472,,,,,,,,,,,,,,,,,,,,,,,,,,,,,,sub-063,1.0,random_dot,60.40894440966828,
right,right,accuracy,,,,,0.0,0.0,0.0,0.0,20.0,1.0,41.0,1.0,1809.8796840000432,,,,,,,,,1809.865722599905,1810.229338399833,1811.0289811999537,1811.0125976998825,1811.0126197999343,1811.0289811999537,1811.0289811999537,1811.0289811999537,,1814.9764604000372,right,1.0,20.00292870006524,,,,,,,,,,,,,,,,,,,,,,,,,,,,,,sub-063,1.0,random_dot,60.40894440966828,
right,right,accuracy,,,,,0.0,0.0,0.0,0.0,21.0,0.0,42.0,1.0,1814.9918583999388,,,,,,,,,1814.977213999955,1815.791518899845,1816.590884599835,1816.574606699869,1816.5746213998648,1816.590884599835,1816.590884599835,1816.590884599835,,1819.2903072999325,right,1.0,18.750701099867,,,,,,,,,,,,,,,,,,,,,,,,,,,,,,sub-063,1.0,random_dot,60.40894440966828,
left,left,accuracy,,,,,0.0,0.0,0.0,0.0,21.0,1.0,43.0,0.0,1819.30530639994,,,,,,,,,1819.2915733999107,1819.6551645,1820.4544781998263,1820.43824999989,1820.4382722999435,1820.4544781998263,1820.4544781998263,1820.4544781998263,,1822.887771999929,left,1.0,18.49097579997033,,,,,,,,,,,,,,,,,,,,,,,,,,,,,,sub-063,1.0,random_dot,60.40894440966828,
left,left,accuracy,,,,,0.0,0.0,0.0,0.0,22.0,0.0,44.0,0.0,1822.9019420000257,,,,,,,,,1822.8892361999024,1823.2518308998551,1824.05161269987,1824.0357367999384,1824.0357678998264,1824.05161269987,1824.05161269987,1824.05161269987,,1825.7348191000056,left,1.0,17.738381000002846,,,,,,,,,,,,,,,,,,,,,,,,,,,,,,sub-063,1.0,random_dot,60.40894440966828,
right,right,accuracy,,,,,0.0,0.0,0.0,0.0,22.0,1.0,45.0,1.0,1825.7500175999007,,,,,,,,,1825.736014700029,1826.549248599913,1827.348781599896,1827.332102800021,1827.332120399922,1827.348781599896,1827.348781599896,1827.348781599896,,1829.148636299884,right,1.0,17.85452410019934,,,,,,,,,,,,,,,,,,,,,,,,,,,,,,sub-063,1.0,random_dot,60.40894440966828,
right,right,accuracy,,,,,0.0,0.0,0.0,0.0,23.0,0.0,46.0,1.0,1829.16369379987,,,,,,,,,1829.149727199925,1829.263771799859,1830.063366399845,1830.047290599905,1830.047324700048,1830.063366399845,1830.063366399845,1830.063366399845,,1831.896570199868,right,1.0,17.875922600040212,,,,,,,,,,,,,,,,,,,,,,,,,,,,,,sub-063,1.0,random_dot,60.40894440966828,
left,left,accuracy,,,,,0.0,0.0,0.0,0.0,23.0,1.0,47.0,0.0,1831.9112598998472,,,,,,,,,1831.8978046998384,1832.7110551998485,1833.510433099931,1833.4945517999583,1833.494584799977,1833.510433099931,1833.510433099931,1833.510433099931,,1834.877306499984,left,1.0,17.413727999897674,,,,,,,,,,,,,,,,,,,,,,,,,,,,,,sub-063,1.0,random_dot,60.40894440966828,
left,left,accuracy,,,,,0.0,0.0,0.0,0.0,24.0,0.0,48.0,0.0,1834.8923992998896,,,,,,,,,1834.8784596999176,1835.6916741998864,1836.491544399876,1836.4754844999409,1836.4755172999576,1836.491544399876,1836.491544399876,1836.491544399876,,1838.474339599954,left,1.0,18.024958099937063,,,,,,,,,,,,,,,,,,,,,,,,,,,,,,sub-063,1.0,random_dot,60.40894440966828,
right,right,accuracy,,,,,0.0,0.0,0.0,0.0,24.0,1.0,49.0,1.0,1838.4895138000136,,,,,,,,,1838.4755726000292,1839.289112600032,1840.0885306999555,1840.0725656000432,1840.072627699934,1840.0885306999555,1840.0885306999555,1840.0885306999555,,1841.5542368998283,right,1.0,17.520838500233367,,,,,,,,,,,,,,,,,,,,,,,,,,,,,,sub-063,1.0,random_dot,60.40894440966828,
right,right,accuracy,,,,,0.0,0.0,0.0,0.0,25.0,0.0,50.0,1.0,1841.56994379987,,,,,,,,,1841.5548953998368,1841.669925400056,1842.46976909996,1842.453692900017,1842.453715399839,1842.46976909996,1842.46976909996,1842.46976909996,1847.465688099852,1848.4486821000464,right,1.0,22.026801000116397,,,,,,,,,,,,,,,,,,,,,,,,,,,,,,sub-063,1.0,random_dot,60.40894440966828,
left,left,accuracy,,,,,0.0,0.0,0.0,0.0,25.0,1.0,51.0,0.0,1848.4645153998863,,,,,,,,,1848.449286499992,1849.6637027999384,1850.4629707999995,1850.4467843999155,1850.4468049998395,1850.4629707999995,1850.4629707999995,1850.4629707999995,,1851.4471741998568,left,1.0,17.027163400081918,,,,,,,,,,,,,,,,,,,,,,,,,,,,,,sub-063,1.0,random_dot,60.40894440966828,
right,right,accuracy,,,,,0.0,0.0,0.0,0.0,26.0,0.0,52.0,1.0,1851.4621762000024,,,,,,,,,1851.4484252999537,1852.2613592999987,1853.0609177998267,1853.0448026999368,1853.0448208998423,1853.0609177998267,1853.0609177998267,1853.0609177998267,,1853.8781385999173,right,1.0,16.866039199987426,,,,,,,,,,,,,,,,,,,,,,,,,,,,,,sub-063,1.0,random_dot,60.40894440966828,
left,left,accuracy,,,,,0.0,0.0,0.0,0.0,26.0,1.0,53.0,0.0,1853.8934495998544,,,,,,,,,1853.8788335998545,1853.9931791999843,1854.7929499999157,1854.7769406999,1854.7769669999836,1854.7929499999157,1854.7929499999157,1854.7929499999157,,1856.5262537000235,left,1.0,17.78811420011334,,,,,,,,,,,,,,,,,,,,,,,,,,,,,,sub-063,1.0,random_dot,60.40894440966828,
left,left,accuracy,,,,,0.0,0.0,0.0,0.0,27.0,0.0,54.0,0.0,1856.5413493998349,,,,,,,,,1856.5272697999608,1856.890876800055,1857.6906514000148,1857.6746255999897,1857.6746567999944,1857.6906514000148,1857.6906514000148,1857.6906514000148,,1861.0550342998467,right,0.0,19.40715600014664,,,,,,,,,,,,,,,,,,,,,,,,,,,,,,sub-063,1.0,random_dot,60.40894440966828,
right,right,accuracy,,,,,0.0,0.0,0.0,0.0,27.0,1.0,55.0,1.0,1861.070610899944,,,,,,,,,1861.055772599997,1862.2698339000344,1863.0695759998637,1863.0536898998544,1863.0537219999824,1863.0695759998637,1863.0695759998637,1863.0695759998637,,1865.6512033999895,right,1.0,18.62420680001378,,,,,,,,,,,,,,,,,,,,,,,,,,,,,,sub-063,1.0,random_dot,60.40894440966828,
right,right,accuracy,,,,,0.0,0.0,0.0,0.0,28.0,0.0,56.0,1.0,1865.6668983998245,,,,,,,,,1865.651889699977,1866.8661090999376,1867.6658671998885,1867.649581999984,1867.6496261998543,1867.6658671998885,1867.6658671998885,1867.6658671998885,,1869.1491188998332,right,1.0,17.526590100023896,,,,,,,,,,,,,,,,,,,,,,,,,,,,,,sub-063,1.0,random_dot,60.40894440966828,
left,left,accuracy,,,,,0.0,0.0,0.0,0.0,28.0,1.0,57.0,0.0,1869.1640708998311,,,,,,,,,1869.1501078000288,1869.2640141998415,1870.0638077999463,1870.047834899975,1870.047868099995,1870.0638077999463,1870.0638077999463,1870.0638077999463,,1871.130112899933,left,1.0,17.116314500104636,,,,,,,,,,,,,,,,,,,,,,,,,,,,,,sub-063,1.0,random_dot,60.40894440966828,
left,left,accuracy,,,,,0.0,0.0,0.0,0.0,29.0,0.0,58.0,0.0,1871.145698599983,,,,,,,,,1871.130876099924,1871.4955269000493,1872.295457900036,1872.2787913999052,1872.278812599834,1872.295457900036,1872.295457900036,1872.295457900036,,1876.2763018999249,left,1.0,20.033547800034285,,,,,,,,,,,,,,,,,,,,,,,,,,,,,,sub-063,1.0,random_dot,60.40894440966828,
right,right,accuracy,,,,,0.0,0.0,0.0,0.0,29.0,1.0,59.0,1.0,1876.2917068998795,,,,,,,,,1876.2774554998612,1876.3917590999044,1877.191032399889,1877.1748647999484,1877.1748889999,1877.191032399889,1877.191032399889,1877.191032399889,,1879.090925599914,right,1.0,17.954399700043723,,,,,,,,,,,,,,,,,,,,,,,,,,,,,,sub-063,1.0,random_dot,60.40894440966828,
,,accuracy,,,,,0.0,0.0,0.0,0.0,,,,,,,,,,,,,,,,,,,,,,,,,,,,,,,,,,,,,,,,,,,,,,,,,,,,,,,,sub-063,1.0,random_dot,60.40894440966828,
left,left,speed,,,,,0.0,1.0,1.0,1.0,0.0,0.0,0.0,0.0,1954.1772791000549,,,,,,,,,1954.166460099863,1954.5272394998465,1955.3271094998345,1955.3108273998369,1955.3108570999464,1955.3271094998345,1955.3271094998345,1955.3271094998345,,1956.5431709999684,left,1.0,17.26193860010244,,,,,,,,,,,,,,,,,,,,1879.0919808000328,1879.1060080998575,1879.1060080998575,1954.161530500045,space,91.10743130021729,,,,,sub-063,1.0,random_dot,60.40894440966828,
right,right,speed,,,,,0.0,1.0,1.0,1.0,0.0,1.0,1.0,1.0,1956.5586949000133,,,,,,,,,1956.5441923998296,1956.9085736998825,1957.7078531000295,1957.691873200005,1957.6919404999355,1957.7078531000295,1957.7078531000295,1957.7078531000295,,1958.4254521999972,right,1.0,16.77500470005907,,,,,,,,,,,,,,,,,,,,,,,,,,,,,,sub-063,1.0,random_dot,60.40894440966828,
left,left,speed,,,,,0.0,1.0,1.0,1.0,1.0,0.0,2.0,0.0,1958.44083769992,,,,,,,,,1958.4262637998909,1958.7903173000088,1959.5897619999012,1959.573593199952,1959.573613199871,1959.5897619999012,1959.5897619999012,1959.5897619999012,,1960.3233235999944,left,1.0,16.787701699882746,,,,,,,,,,,,,,,,,,,,,,,,,,,,,,sub-063,1.0,random_dot,60.40894440966828,
right,right,speed,,,,,0.0,1.0,1.0,1.0,1.0,1.0,3.0,1.0,1960.3389017998709,,,,,,,,,1960.324074599892,1961.1385261998512,1961.9380452998448,1961.921937600011,1961.921967800008,1961.9380452998448,1961.9380452998448,1961.9380452998448,,1962.7046695000024,right,1.0,16.817523000063375,,,,,,,,,,,,,,,,,,,,,,,,,,,,,,sub-063,1.0,random_dot,60.40894440966828,
right,right,speed,,,,,0.0,1.0,1.0,1.0,2.0,0.0,4.0,1.0,1962.7202736998445,,,,,,,,,1962.705308299977,1963.519741399912,1964.3195497000124,1964.3035952998323,1964.3036334000064,1964.3195497000124,1964.3195497000124,1964.3195497000124,,1965.8854336000516,right,1.0,17.620256000198424,,,,,,,,,,,,,,,,,,,,,,,,,,,,,,sub-063,1.0,random_dot,60.40894440966828,
left,left,speed,,,,,0.0,1.0,1.0,1.0,2.0,1.0,5.0,0.0,1965.900886700023,,,,,,,,,1965.8861149998847,1967.1001657999584,1967.8999807999933,1967.8840895998287,1967.884125399869,1967.8999807999933,1967.8999807999933,1967.8999807999933,,1968.5996943998616,left,1.0,16.742226700065657,,,,,,,,,,,,,,,,,,,,,,,,,,,,,,sub-063,1.0,random_dot,60.40894440966828,
left,left,speed,,,,,0.0,1.0,1.0,1.0,3.0,0.0,6.0,0.0,1968.615545099834,,,,,,,,,1968.600380399963,1969.4150336999448,1970.214432299836,1970.1988576999863,1970.1988931000235,1970.214432299836,1970.214432299836,1970.214432299836,,1971.5141769999173,left,1.0,17.34363569994457,,,,,,,,,,,,,,,,,,,,,,,,,,,,,,sub-063,1.0,random_dot,60.40894440966828,
right,right,speed,,,,,0.0,1.0,1.0,1.0,3.0,1.0,7.0,1.0,1971.5296147000045,,,,,,,,,1971.515031900024,1971.8795061998533,1972.6792025000325,1972.662835799856,1972.662857600022,1972.6792025000325,1972.6792025000325,1972.6792025000325,,1973.3135795998387,right,1.0,16.682055300101638,,,,,,,,,,,,,,,,,,,,,,,,,,,,,,sub-063,1.0,random_dot,60.40894440966828,
left,left,speed,,,,,0.0,1.0,1.0,1.0,4.0,0.0,8.0,0.0,1973.3286168000195,,,,,,,,,1973.3146508999637,1973.6782761998477,1974.477577399928,1974.4617665999103,1974.461799300043,1974.477577399928,1974.477577399928,1974.477577399928,,1975.1946111000143,left,1.0,16.770384799921885,,,,,,,,,,,,,,,,,,,,,,,,,,,,,,sub-063,1.0,random_dot,60.40894440966828,
right,right,speed,,,,,0.0,1.0,1.0,1.0,4.0,1.0,9.0,1.0,1975.2103666998448,,,,,,,,,1975.195265099872,1976.009775700048,1976.809052000055,1976.792730899993,1976.792751299916,1976.809052000055,1976.809052000055,1976.809052000055,,1979.80718689994,right,1.0,19.04368540016003,,,,,,,,,,,,,,,,,,,,,,,,,,,,,,sub-063,1.0,random_dot,60.40894440966828,
left,left,speed,,,,,0.0,1.0,1.0,1.0,5.0,0.0,10.0,0.0,1979.8227671999484,,,,,,,,,1979.807829000056,1979.9227360999207,1980.7224081000315,1980.705968499882,1980.705980999861,1980.7224081000315,1980.7224081000315,1980.7224081000315,,1982.1222979000304,left,1.0,17.44839629996568,,,,,,,,,,,,,,,,,,,,,,,,,,,,,,sub-063,1.0,random_dot,60.40894440966828,
right,right,speed,,,,,0.0,1.0,1.0,1.0,5.0,1.0,11.0,1.0,1982.1375499998685,,,,,,,,,1982.123110600049,1982.237657299964,1983.0373653999995,1983.0213760000188,1983.021399399964,1983.0373653999995,1983.0373653999995,1983.0373653999995,,1983.8874703999609,right,1.0,16.893509700195864,,,,,,,,,,,,,,,,,,,,,,,,,,,,,,sub-063,1.0,random_dot,60.40894440966828,
left,left,speed,,,,,0.0,1.0,1.0,1.0,6.0,0.0,12.0,0.0,1983.902798699913,,,,,,,,,1983.8881860000547,1984.702455400024,1985.5021253998857,1985.4863458999896,1985.486380700022,1985.5021253998857,1985.5021253998857,1985.5021253998857,,1986.4858194000556,left,1.0,17.034849599935114,,,,,,,,,,,,,,,,,,,,,,,,,,,,,,sub-063,1.0,random_dot,60.40894440966828,
right,right,speed,,,,,0.0,1.0,1.0,1.0,6.0,1.0,13.0,1.0,1986.5006736998912,,,,,,,,,1986.4867101998532,1986.8505649999715,1987.6500406998675,1987.633866699878,1987.6338843998965,1987.6500406998675,1987.6500406998675,1987.6500406998675,,1988.31770639983,right,1.0,16.7167229000479,,,,,,,,,,,,,,,,,,,,,,,,,,,,,,sub-063,1.0,random_dot,60.40894440966828,
right,right,speed,,,,,0.0,1.0,1.0,1.0,7.0,0.0,14.0,1.0,1988.332855900051,,,,,,,,,1988.318488499848,1988.6826510999815,1989.4820214000065,1989.4659775998443,1989.466001200024,1989.4820214000065,1989.4820214000065,1989.4820214000065,,1990.5821750999892,right,1.0,17.15157280024141,,,,,,,,,,,,,,,,,,,,,,,,,,,,,,sub-063,1.0,random_dot,60.40894440966828,
left,left,speed,,,,,0.0,1.0,1.0,1.0,7.0,1.0,15.0,0.0,1990.5975925999228,,,,,,,,,1990.583810799988,1991.3967929999344,1992.196421599947,1992.1804742999373,1992.180503099924,1992.196421599947,1992.196421599947,1992.196421599947,,1993.030627399916,left,1.0,16.886141900205985,,,,,,,,,,,,,,,,,,,,,,,,,,,,,,sub-063,1.0,random_dot,60.40894440966828,
left,left,speed,,,,,0.0,1.0,1.0,1.0,8.0,0.0,16.0,0.0,1993.0454382998869,,,,,,,,,1993.0314326998775,1993.844583499944,1994.6442638000008,1994.628272899892,1994.628291199915,1994.6442638000008,1994.6442638000008,1994.6442638000008,,1995.3118875999933,left,1.0,16.718397800112143,,,,,,,,,,,,,,,,,,,,,,,,,,,,,,sub-063,1.0,random_dot,60.40894440966828,
right,right,speed,,,,,0.0,1.0,1.0,1.0,8.0,1.0,17.0,1.0,1995.3269275999628,,,,,,,,,1995.312852199888,1996.5262666998897,1997.3257615000475,1997.309875200037,1997.309916399885,1997.3257615000475,1997.3257615000475,1997.3257615000475,,1998.3589834999293,right,1.0,17.090680399909616,,,,,,,,,,,,,,,,,,,,,,,,,,,,,,sub-063,1.0,random_dot,60.40894440966828,
right,right,speed,,,,,0.0,1.0,1.0,1.0,9.0,0.0,18.0,1.0,1998.374237400014,,,,,,,,,1998.3597254999916,1999.17379130004,1999.9735195999965,1999.957578700036,1999.9576137999536,1999.9735195999965,1999.9735195999965,1999.9735195999965,,2002.2054675999095,right,1.0,18.289076500106603,,,,,,,,,,,,,,,,,,,,,,,,,,,,,,sub-063,1.0,random_dot,60.40894440966828,
left,left,speed,,,,,0.0,1.0,1.0,1.0,9.0,1.0,19.0,0.0,2002.220963699976,,,,,,,,,2002.2063131998293,2002.5708794000093,2003.3706810998265,2003.3546674998945,2003.354693699861,2003.3706810998265,2003.3706810998265,2003.3706810998265,,2004.0377048000228,left,1.0,16.72554689995013,,,,,,,,,,,,,,,,,,,,,,,,,,,,,,sub-063,1.0,random_dot,60.40894440966828,
right,right,speed,,,,,0.0,1.0,1.0,1.0,10.0,0.0,20.0,1.0,2004.052937099943,,,,,,,,,2004.0384964998807,2004.1528767999264,2004.9527189999355,2004.9368612999097,2004.9368930000344,2004.9527189999355,2004.9527189999355,2004.9527189999355,,2005.536572099896,right,1.0,16.629744000034407,,,,,,,,,,,,,,,,,,,,,,,,,,,,,,sub-063,1.0,random_dot,60.40894440966828,
left,left,speed,,,,,0.0,1.0,1.0,1.0,10.0,1.0,21.0,0.0,2005.5516136998776,,,,,,,,,2005.537424999988,2006.750709499931,2007.5503151000007,2007.533999199979,2007.534019799903,2007.5503151000007,2007.5503151000007,2007.5503151000007,,2008.350473999977,left,1.0,16.84541120007634,,,,,,,,,,,,,,,,,,,,,,,,,,,,,,sub-063,1.0,random_dot,60.40894440966828,
left,left,speed,,,,,0.0,1.0,1.0,1.0,11.0,0.0,22.0,0.0,2008.3660528999756,,,,,,,,,2008.3512130999009,2009.1657583999915,2009.96519170003,2009.949177699862,2009.9492046998348,2009.96519170003,2009.96519170003,2009.96519170003,,2010.9489330998624,left,1.0,17.037543000187725,,,,,,,,,,,,,,,,,,,,,,,,,,,,,,sub-063,1.0,random_dot,60.40894440966828,
right,right,speed,,,,,0.0,1.0,1.0,1.0,11.0,1.0,23.0,1.0,2010.9639661998956,,,,,,,,,2010.950045599835,2011.313967199996,2012.1134595999029,2012.0975027000527,2012.097537399968,2012.1134595999029,2012.1134595999029,2012.1134595999029,,2013.4461787999608,right,1.0,17.38245190004818,,,,,,,,,,,,,,,,,,,,,,,,,,,,,,sub-063,1.0,random_dot,60.40894440966828,
left,left,speed,,,,,0.0,1.0,1.0,1.0,12.0,0.0,24.0,0.0,2013.4616657998413,,,,,,,,,2013.4468663998412,2013.8117529999,2014.611447099829,2014.595338399988,2014.5953638998328,2014.611447099829,2014.611447099829,2014.611447099829,,2015.478894799948,left,1.0,16.91483939997852,,,,,,,,,,,,,,,,,,,,,,,,,,,,,,sub-063,1.0,random_dot,60.40894440966828,
right,right,speed,,,,,0.0,1.0,1.0,1.0,12.0,1.0,25.0,1.0,2015.4938341998493,,,,,,,,,2015.4799619000405,2015.8435437998269,2016.6427851000333,2016.626574799884,2016.6265946999192,2016.6427851000333,2016.6427851000333,2016.6427851000333,,2017.4264079998247,right,1.0,16.830600099870935,,,,,,,,,,,,,,,,,,,,,,,,,,,,,,sub-063,1.0,random_dot,60.40894440966828,
right,right,speed,,,,,0.0,1.0,1.0,1.0,13.0,0.0,26.0,1.0,2017.441811800003,,,,,,,,,2017.4271823999009,2017.791718599852,2018.5913384000305,2018.5755260000003,2018.575551699847,2018.5913384000305,2018.5913384000305,2018.5913384000305,,2019.641902399948,right,1.0,17.1035736000631,,,,,,,,,,,,,,,,,,,,,,,,,,,,,,sub-063,1.0,random_dot,60.40894440966828,
left,left,speed,,,,,0.0,1.0,1.0,1.0,13.0,1.0,27.0,0.0,2019.657056899974,,,,,,,,,2019.6430144000333,2020.4565959998872,2021.2559568998404,2021.2398508000188,2021.2398714998271,2021.2559568998404,2021.2559568998404,2021.2559568998404,,2022.0066503998823,left,1.0,16.802285599987954,,,,,,,,,,,,,,,,,,,,,,,,,,,,,,sub-063,1.0,random_dot,60.40894440966828,
right,right,speed,,,,,0.0,1.0,1.0,1.0,14.0,0.0,28.0,1.0,2022.0214765998533,,,,,,,,,2022.0078088999728,2022.371484400006,2023.17093709996,2023.154751499882,2023.154778999975,2023.17093709996,2023.17093709996,2023.17093709996,,2024.254077399848,right,1.0,17.125737800030038,,,,,,,,,,,,,,,,,,,,,,,,,,,,,,sub-063,1.0,random_dot,60.40894440966828,
left,left,speed,,,,,0.0,1.0,1.0,1.0,14.0,1.0,29.0,0.0,2024.269537499873,,,,,,,,,2024.2549417999107,2024.369770899881,2025.169403499924,2025.1530991999896,2025.153122100048,2025.169403499924,2025.169403499924,2025.169403499924,,2025.9531503999608,left,1.0,16.830168299842626,,,,,,,,,,,,,,,,,,,,,,,,,,,,,,sub-063,1.0,random_dot,60.40894440966828,
left,left,speed,,,,,0.0,1.0,1.0,1.0,15.0,0.0,30.0,0.0,2025.9683276000435,,,,,,,,,2025.954177199863,2026.3179968998304,2027.1174953000157,2027.1016636998395,2027.1016921000555,2027.1174953000157,2027.1174953000157,2027.1174953000157,,2027.9024197999388,left,1.0,16.842305399943143,,,,,,,,,,,,,,,,,,,,,,,,,,,,,,sub-063,1.0,random_dot,60.40894440966828,
right,right,speed,,,,,0.0,1.0,1.0,1.0,15.0,1.0,31.0,1.0,2027.9168229999489,,,,,,,,,2027.90335339983,2028.016698499909,2028.816184999887,2028.7998331000565,2028.799851299962,2028.816184999887,2028.816184999887,2028.816184999887,,2029.9000291998964,right,1.0,17.12590830004774,,,,,,,,,,,,,,,,,,,,,,,,,,,,,,sub-063,1.0,random_dot,60.40894440966828,
right,right,speed,,,,,0.0,1.0,1.0,1.0,16.0,0.0,32.0,1.0,2029.9151041998996,,,,,,,,,2029.900860699825,2030.264912799932,2031.064355300041,2031.048648499884,2031.0486810000148,2031.064355300041,2031.064355300041,2031.064355300041,,2031.765084499959,right,1.0,16.75803739996627,,,,,,,,,,,,,,,,,,,,,,,,,,,,,,sub-063,1.0,random_dot,60.40894440966828,
left,left,speed,,,,,0.0,1.0,1.0,1.0,16.0,1.0,33.0,0.0,2031.7808176998517,,,,,,,,,2031.7658108000176,2031.880321699893,2032.6799892999695,2032.663788300008,2032.6638100999407,2032.6799892999695,2032.6799892999695,2032.6799892999695,,2033.397063399898,left,1.0,16.7725114999339,,,,,,,,,,,,,,,,,,,,,,,,,,,,,,sub-063,1.0,random_dot,60.40894440966828,
left,left,speed,,,,,0.0,1.0,1.0,1.0,17.0,0.0,34.0,0.0,2033.4123688000252,,,,,,,,,2033.398312599864,2034.6113274998495,2035.4109377998395,2035.39477909985,2035.3948017999064,2035.4109377998395,2035.4109377998395,2035.4109377998395,,2036.11100080004,left,1.0,16.747959700180218,,,,,,,,,,,,,,,,,,,,,,,,,,,,,,sub-063,1.0,random_dot,60.40894440966828,
right,right,speed,,,,,0.0,1.0,1.0,1.0,17.0,1.0,35.0,1.0,2036.126433999976,,,,,,,,,2036.1116357999852,2037.3258473000024,2038.1250984999351,2038.1086323999332,2038.1086484000552,2038.1250984999351,2038.1250984999351,2038.1250984999351,,2038.725868599955,right,1.0,16.6551652001217,,,,,,,,,,,,,,,,,,,,,,,,,,,,,,sub-063,1.0,random_dot,60.40894440966828,
right,right,speed,,,,,0.0,1.0,1.0,1.0,18.0,0.0,36.0,1.0,2038.7412780998277,,,,,,,,,2038.7271340000443,2039.9404615999665,2040.740383299999,2040.7238272000104,2040.7238552998751,2040.740383299999,2040.740383299999,2040.740383299999,,2041.4235640000552,right,1.0,16.741541400086135,,,,,,,,,,,,,,,,,,,,,,,,,,,,,,sub-063,1.0,random_dot,60.40894440966828,
left,left,speed,,,,,0.0,1.0,1.0,1.0,18.0,1.0,37.0,0.0,2041.43855439988,,,,,,,,,2041.4242746999955,2041.7884883000515,2042.5887635999825,2042.5725221999453,2042.5725523999429,2042.5887635999825,2042.5887635999825,2042.5887635999825,,2043.1723495998883,left,1.0,16.636555599980056,,,,,,,,,,,,,,,,,,,,,,,,,,,,,,sub-063,1.0,random_dot,60.40894440966828,
right,right,speed,,,,,0.0,1.0,1.0,1.0,19.0,0.0,38.0,1.0,2043.187574799871,,,,,,,,,2043.1734780999832,2043.5371495999864,2044.3366725000087,2044.320573200006,2044.3205937000455,2044.3366725000087,2044.3366725000087,2044.3366725000087,,2044.9372767999305,right,1.0,16.647393299965188,,,,,,,,,,,,,,,,,,,,,,,,,,,,,,sub-063,1.0,random_dot,60.40894440966828,
left,left,speed,,,,,0.0,1.0,1.0,1.0,19.0,1.0,39.0,0.0,2044.9525070998352,,,,,,,,,2044.938226299826,2045.7520447999705,2046.551631300012,2046.5357748998797,2046.535801799968,2046.551631300012,2046.551631300012,2046.551631300012,,2047.0851806998253,left,1.0,16.583166799973696,,,,,,,,,,,,,,,,,,,,,,,,,,,,,,sub-063,1.0,random_dot,60.40894440966828,
left,left,speed,,,,,0.0,1.0,1.0,1.0,20.0,0.0,40.0,0.0,2047.1008389999624,,,,,,,,,2047.085859499872,2048.2999847000465,2049.0992775999475,2049.0830564999487,2049.083078399999,2049.0992775999475,2049.0992775999475,2049.0992775999475,,2049.866277999943,left,1.0,16.810465100221336,,,,,,,,,,,,,,,,,,,,,,,,,,,,,,sub-063,1.0,random_dot,60.40894440966828,
right,right,speed,,,,,0.0,1.0,1.0,1.0,20.0,1.0,41.0,1.0,2049.881752499845,,,,,,,,,2049.8669338000477,2050.231545499992,2051.031133899931,2051.014979599975,2051.015000500018,2051.031133899931,2051.031133899931,2051.031133899931,,2051.6154312000144,right,1.0,16.63826430006884,,,,,,,,,,,,,,,,,,,,,,,,,,,,,,sub-063,1.0,random_dot,60.40894440966828,
right,right,speed,,,,,0.0,1.0,1.0,1.0,21.0,0.0,42.0,1.0,2051.6305878998246,,,,,,,,,2051.6163758998737,2051.980415799888,2052.779795999872,2052.7635716998484,2052.763594100019,2052.779795999872,2052.779795999872,2052.779795999872,,2053.547255199868,right,1.0,16.815525999991223,,,,,,,,,,,,,,,,,,,,,,,,,,,,,,sub-063,1.0,random_dot,60.40894440966828,
left,left,speed,,,,,0.0,1.0,1.0,1.0,21.0,1.0,43.0,0.0,2053.5623335000128,,,,,,,,,2053.5484382000286,2054.7614112000447,2055.560929799918,2055.544830400031,2055.544862800045,2055.560929799918,2055.560929799918,2055.560929799918,,2056.261170399841,left,1.0,16.750821799971163,,,,,,,,,,,,,,,,,,,,,,,,,,,,,,sub-063,1.0,random_dot,60.40894440966828,
left,left,speed,,,,,0.0,1.0,1.0,1.0,22.0,0.0,44.0,0.0,2056.2766513999086,,,,,,,,,2056.261795199942,2057.4757373998877,2058.2751177998725,2058.259089499945,2058.259107199963,2058.2751177998725,2058.2751177998725,2058.2751177998725,,2059.65890449984,left,1.0,17.42800320009701,,,,,,,,,,,,,,,,,,,,,,,,,,,,,,sub-063,1.0,random_dot,60.40894440966828,
right,right,speed,,,,,0.0,1.0,1.0,1.0,22.0,1.0,45.0,1.0,2059.6739316999447,,,,,,,,,2059.660027799895,2060.473373499932,2061.272767900024,2061.256338399835,2061.2563585999887,2061.272767900024,2061.272767900024,2061.272767900024,,2061.9735989000183,right,1.0,16.744596800068393,,,,,,,,,,,,,,,,,,,,,,,,,,,,,,sub-063,1.0,random_dot,60.40894440966828,
left,left,speed,,,,,0.0,1.0,1.0,1.0,23.0,0.0,46.0,0.0,2061.988662600052,,,,,,,,,2061.974717899924,2062.338285499951,2063.1378794999328,2063.1214821999893,2063.121500500012,2063.1378794999328,2063.1378794999328,2063.1378794999328,,2063.88821460004,left,1.0,16.792865600204095,,,,,,,,,,,,,,,,,,,,,,,,,,,,,,sub-063,1.0,random_dot,60.40894440966828,
right,right,speed,,,,,0.0,1.0,1.0,1.0,23.0,1.0,47.0,1.0,2063.9037428998854,,,,,,,,,2063.889278399991,2064.0035741999745,2064.8036028998904,2064.787391499849,2064.787418500054,2064.8036028998904,2064.8036028998904,2064.8036028998904,,2065.669918499887,right,1.0,16.911088299937546,,,,,,,,,,,,,,,,,,,,,,,,,,,,,,sub-063,1.0,random_dot,60.40894440966828,
left,left,speed,,,,,0.0,1.0,1.0,1.0,24.0,0.0,48.0,0.0,2065.68537439988,,,,,,,,,2065.6705789999105,2066.035422699992,2066.8348838998936,2066.819162899861,2066.8191892998293,2066.8348838998936,2066.8348838998936,2066.8348838998936,,2067.5521364999004,left,1.0,16.77514180005528,,,,,,,,,,,,,,,,,,,,,,,,,,,,,,sub-063,1.0,random_dot,60.40894440966828,
right,right,speed,,,,,0.0,1.0,1.0,1.0,24.0,1.0,49.0,1.0,2067.5672889999114,,,,,,,,,2067.5530044999905,2068.7667353998404,2069.5662179999053,2069.5501090998296,2069.550133399898,2069.5662179999053,2069.5662179999053,2069.5662179999053,,2070.266948199831,right,1.0,16.751182300038636,,,,,,,,,,,,,,,,,,,,,,,,,,,,,,sub-063,1.0,random_dot,60.40894440966828,
left,left,speed,,,,,0.0,1.0,1.0,1.0,25.0,0.0,50.0,0.0,2070.2819782998413,,,,,,,,,2070.267764599994,2070.3817741998937,2071.1812040999066,2071.1652130000293,2071.165233899839,2071.1812040999066,2071.1812040999066,2071.1812040999066,,2072.1321123000234,left,1.0,16.996753299841657,,,,,,,,,,,,,,,,,,,,,,,,,,,,,,sub-063,1.0,random_dot,60.40894440966828,
right,right,speed,,,,,0.0,1.0,1.0,1.0,25.0,1.0,51.0,1.0,2072.147166599985,,,,,,,,,2072.133269599872,2072.9464942999184,2073.7626493000425,2073.7460936999414,2073.7461123999674,2073.7626493000425,2073.7626493000425,2073.7626493000425,,2074.495931299869,right,1.0,16.778275500051677,,,,,,,,,,,,,,,,,,,,,,,,,,,,,,sub-063,1.0,random_dot,60.40894440966828,
left,left,speed,,,,,0.0,1.0,1.0,1.0,26.0,0.0,52.0,0.0,2074.511480599874,,,,,,,,,2074.496685500024,2074.611629999941,2075.411287300056,2075.3952717999928,2075.395298099844,2075.411287300056,2075.411287300056,2075.411287300056,,2076.162173999939,left,1.0,16.79347759997472,,,,,,,,,,,,,,,,,,,,,,,,,,,,,,sub-063,1.0,random_dot,60.40894440966828,
right,right,speed,,,,,0.0,1.0,1.0,1.0,26.0,1.0,53.0,1.0,2076.177101099864,,,,,,,,,2076.163376600016,2076.5269775998318,2077.3262229999527,2077.3100761999376,2077.3100963998586,2077.3262229999527,2077.3262229999527,2077.3262229999527,,2078.275883299997,right,1.0,16.99950879998505,,,,,,,,,,,,,,,,,,,,,,,,,,,,,,sub-063,1.0,random_dot,60.40894440966828,
left,left,speed,,,,,0.0,1.0,1.0,1.0,27.0,0.0,54.0,0.0,2078.2917766999453,,,,,,,,,2078.276505299844,2078.641676099971,2079.441075499868,2079.425047899829,2079.4250669998582,2079.441075499868,2079.441075499868,2079.441075499868,,2080.074581899913,left,1.0,16.69010900007561,,,,,,,,,,,,,,,,,,,,,,,,,,,,,,sub-063,1.0,random_dot,60.40894440966828,
right,right,speed,,,,,0.0,1.0,1.0,1.0,27.0,1.0,55.0,1.0,2080.0902535999194,,,,,,,,,2080.0752046999987,2080.1904504999984,2080.989985699998,2080.9736362998374,2080.973663199926,2080.989985699998,2080.989985699998,2080.989985699998,,2081.9730501999147,right,1.0,17.038573099998757,,,,,,,,,,,,,,,,,,,,,,,,,,,,,,sub-063,1.0,random_dot,60.40894440966828,
left,left,speed,,,,,0.0,1.0,1.0,1.0,28.0,0.0,56.0,0.0,2081.988655099878,,,,,,,,,2081.9736875998788,2082.3384447998837,2083.138288999908,2083.1220734999515,2083.1221394999884,2083.138288999908,2083.138288999908,2083.138288999908,,2083.8223967000376,left,1.0,16.729350400157273,,,,,,,,,,,,,,,,,,,,,,,,,,,,,,sub-063,1.0,random_dot,60.40894440966828,
right,right,speed,,,,,0.0,1.0,1.0,1.0,28.0,1.0,57.0,1.0,2083.8374632999767,,,,,,,,,2083.8235488999635,2084.18737589987,2084.986743299989,2084.9707126999274,2084.9707370998804,2084.986743299989,2084.986743299989,2084.986743299989,,2085.736719900044,right,1.0,16.797337000025436,,,,,,,,,,,,,,,,,,,,,,,,,,,,,,sub-063,1.0,random_dot,60.40894440966828,
left,left,speed,,,,,0.0,1.0,1.0,1.0,29.0,0.0,58.0,0.0,2085.7523389998823,,,,,,,,,2085.7373591999058,2085.852375299902,2086.6518727999646,2086.635545699857,2086.635565799894,2086.6518727999646,2086.6518727999646,2086.6518727999646,,2087.303060599836,left,1.0,16.702934100059792,,,,,,,,,,,,,,,,,,,,,,,,,,,,,,sub-063,1.0,random_dot,60.40894440966828,
right,right,speed,,,,,0.0,1.0,1.0,1.0,29.0,1.0,59.0,1.0,2087.317887800047,,,,,,,,,2087.304126000032,2087.417789499974,2088.21753429994,2088.2013729000464,2088.2013945998624,2088.21753429994,2088.21753429994,2088.21753429994,,2088.934840299888,right,1.0,16.771413099952042,,,,,,,,,,,,,,,,,,,,,,,,,,,,,,sub-063,1.0,random_dot,60.40894440966828,
,,speed,,,,,0.0,1.0,1.0,1.0,,,,,,,,,,,,,,,,,,,,,,,,,,,,,,,,,,,,,,,,,,,,,,,,,,,,,,,,sub-063,1.0,random_dot,60.40894440966828,
,,,,,,,,,,,,,,,,,,,,,,,,,,,,,,,,,,,,,,,,,,,,,,,,,,,,,,,,,,,,,,,2088.935694299871,2088.95001699985,2093.94593229983,sub-063,,,,
