direction,corrAns,thisN,thisTrialN,thisRepN,respDots.keys,respDots.corr,respDots.rt,respDots.duration,randomInstr,respRandomInstr.keys,respRandomInstr.rt,respRandomInstr.duration,practice_trials.thisRepN,practice_trials.thisTrialN,practice_trials.thisN,practice_trials.thisIndex,instr_trials.thisRepN,instr_trials.thisTrialN,instr_trials.thisN,instr_trials.thisIndex,test_trials.thisRepN,test_trials.thisTrialN,test_trials.thisN,test_trials.thisIndex,thisRow.t,notes,general_instruction.started,textGeneralInstr.started,respGeneralInstr.started,general_instruction.stopped,respGeneralInstr.keys,respGeneralInstr.rt,respGeneralInstr.duration,ITI.started,fixcross.started,fixcross.stopped,ITI.stopped,dots.started,backgroundDots.started,stimulusDots.started,respDots.started,stimulusDots.stopped,dots.stopped,practice_trials.respDots.keys,practice_trials.respDots.corr,practice_trials.respDots.rt,practice_trials.respDots.duration,feedback.started,textFeedback.started,feedback.stopped,textFeedback.stopped,info.started,textInfo.started,keyRespInfo.started,info.stopped,keyRespInfo.keys,keyRespInfo.rt,keyRespInfo.duration,test_instruction.started,textTestInstr.started,respTestInstr.started,test_instruction.stopped,respTestInstr.keys,respTestInstr.rt,respTestInstr.duration,random_instruction.started,textRandomInstr.started,respRandomInstr.started,random_instruction.stopped,instr_trials.respRandomInstr.keys,instr_trials.respRandomInstr.rt,instr_trials.respRandomInstr.duration,test_trials.respDots.keys,test_trials.respDots.corr,test_trials.respDots.rt,test_trials.respDots.duration,goodbye.started,textGoodbye.started,goodbye.stopped,participant,session,expName,frameRate,Unnamed: 87
,,,,,,,,,,,,,,,,,,,,,,,,,,,0.0100568329999646,0.0170147909999514,0.0170147909999514,29.110213415999965,space,29.09077383300001,,,,,,,,,,,,,,,,,,,,,,,,,,,,,,,,,,,,,,,,,,,,,,,,sub-140,1,random_dot,119.8938340099728,
right,right,0.0,0.0,0.0,left,0.0,6.119443625000031,,,,,,0.0,0.0,0.0,1.0,,,,,,,,,29.154866624999958,,,,,,,,,29.136993665999967,29.960875375,30.78404991599996,30.747254874999957,30.747761499999967,30.78404991599996,30.78404991599996,30.78404991599996,35.74109920799998,36.910377541,left,0.0,6.119443625000031,,36.91968354099998,36.998858790999975,37.413734208,,,,,,,,,,,,,,,,,,,,,,,,,,,,,,sub-140,1,random_dot,119.8938340099728,
left,left,1.0,1.0,0.0,left,1.0,3.8965112499999455,,,,,,0.0,1.0,1.0,0.0,,,,,,,,,37.42470866599996,,,,,,,,,37.41420362499997,38.608252833,39.40121020799995,39.39217483299996,39.39264991599998,39.40121020799995,39.40121020799995,39.40121020799995,,43.30008758299999,left,1.0,3.8965112499999455,,43.30570695799997,43.31833420799995,43.80839908299998,,,,,,,,,,,,,,,,,,,,,,,,,,,,,,sub-140,1,random_dot,119.8938340099728,
left,left,2.0,0.0,1.0,right,0.0,2.7634406669999976,,,,,,1.0,0.0,2.0,0.0,,,,,,,,,43.813632708,,,,,,,,,43.80878849999999,44.59828437499999,45.40071929099997,45.392427374999954,45.39297216599999,45.40071929099997,45.40071929099997,45.40071929099997,,48.16664449999996,right,0.0,2.7634406669999976,,48.170222916,48.17858024999998,48.66523187499996,48.675039665999975,,,,,,,,,,,,,,,,,,,,,,,,,,,,,sub-140,1,random_dot,119.8938340099728,
right,right,3.0,1.0,1.0,left,0.0,1.6877489999999966,,,,,,1.0,1.0,3.0,1.0,,,,,,,,,48.675039665999975,,,,,,,,,48.66564666599999,49.465245041,50.26720937499999,50.25907791599997,50.25953729099996,50.26720937499999,50.26720937499999,50.26720937499999,,51.95975733299997,left,0.0,1.6877489999999966,,51.95987308299999,51.96838374999999,52.45896620799999,52.46494845799998,,,,,,,,,,,,,,,,,,,,,,,,,,,,,sub-140,1,random_dot,119.8938340099728,
left,left,4.0,0.0,2.0,left,1.0,0.8228309579999973,,,,,,2.0,0.0,4.0,0.0,,,,,,,,,52.46494845799998,,,,,,,,,52.45938183299995,53.25847662499996,54.05165733299998,54.04284120799997,54.04335654099998,54.05165733299998,54.05165733299998,54.05165733299998,,54.87665754099999,left,1.0,0.8228309579999973,,54.879805499999975,54.888941375,55.37588637499999,55.381554249999965,,,,,,,,,,,,,,,,,,,,,,,,,,,,,sub-140,1,random_dot,119.8938340099728,
right,right,5.0,1.0,2.0,right,1.0,0.9359191670000088,,,,,,2.0,1.0,5.0,1.0,,,,,,,,,55.381554249999965,,,,,,,,,55.37627262499996,55.72537791599996,56.516919332999976,56.50911829099999,56.509596166,56.516919332999976,56.516919332999976,56.516919332999976,,57.45990258299997,right,1.0,0.9359191670000088,,57.46001845799998,57.46802499999996,57.95917579099995,57.96489508299999,,,,,,,,,,,,,,,,,,,,,,,,,,,,,sub-140,1,random_dot,119.8938340099728,
left,left,6.0,0.0,3.0,right,0.0,1.1256268750000231,,,,,,3.0,0.0,6.0,0.0,,,,,,,,,57.96489508299999,,,,,,,,,57.95955604099999,59.15885395799995,59.95006874999996,59.942370875,59.94283249999995,59.95006874999996,59.95006874999996,59.95006874999996,,61.08126687499998,right,0.0,1.1256268750000231,,61.082706290999965,61.09153858299999,61.57610758299995,61.58209099999999,,,,,,,,,,,,,,,,,,,,,,,,,,,,,sub-140,1,random_dot,119.8938340099728,
right,right,7.0,1.0,3.0,left,0.0,0.9371621669999968,,,,,,3.0,1.0,7.0,1.0,,,,,,,,,61.58209099999999,,,,,,,,,61.57656454099998,61.67554849999999,62.46696670799997,62.45921083299999,62.45968104099995,62.46696670799997,62.46696670799997,62.46696670799997,,63.41003512499998,left,0.0,0.9371621669999968,,63.41015291599996,63.41858533299995,63.909268415999975,63.91493758299998,,,,,,,,,,,,,,,,,,,,,,,,,,,,,sub-140,1,random_dot,119.8938340099728,
left,left,8.0,0.0,4.0,left,1.0,0.561480041999971,,,,,,4.0,0.0,8.0,0.0,,,,,,,,,63.91493758299998,,,,,,,,,63.90970949999996,65.09941520799998,65.90122633299995,65.89302841599999,65.89349662499995,65.90122633299995,65.90122633299995,65.90122633299995,,66.46707687499998,left,1.0,0.561480041999971,,66.47018349999996,66.47862749999996,66.96481349999999,66.97445816599998,,,,,,,,,,,,,,,,,,,,,,,,,,,,,sub-140,1,random_dot,119.8938340099728,
right,right,9.0,1.0,4.0,right,1.0,0.5926667919999886,,,,,,4.0,1.0,9.0,1.0,,,,,,,,,66.97445816599998,,,,,,,,,66.96524154099995,68.16548341599997,68.96727870799998,68.95952120799996,68.959981583,68.96727870799998,68.96727870799998,68.96727870799998,,69.56716679099998,right,1.0,0.5926667919999886,,69.56727729099998,69.57527262499997,70.05948595799998,70.06516208299996,,,,,,,,,,,,,,,,,,,,,,,,,,,,,sub-140,1,random_dot,119.8938340099728,
right,right,10.0,0.0,5.0,right,1.0,0.9612406249999594,,,,,,5.0,0.0,10.0,1.0,,,,,,,,,70.06516208299996,,,,,,,,,70.05987208299996,70.86584041599997,71.66747587499998,71.65958595799998,71.66002974999998,71.66747587499998,71.66747587499998,71.66747587499998,,72.63380091599998,right,1.0,0.9612406249999594,,72.63392241599996,72.64200812499996,73.12626212499998,73.13237991599999,,,,,,,,,,,,,,,,,,,,,,,,,,,,,sub-140,1,random_dot,119.8938340099728,
left,left,11.0,1.0,5.0,left,1.0,0.6881611670000325,,,,,,5.0,1.0,11.0,0.0,,,,,,,,,73.13237991599999,,,,,,,,,73.12665033299999,74.33181795799999,75.12523641599995,75.11602466599999,75.11649370799995,75.12523641599995,75.12523641599995,75.12523641599995,,75.817035041,left,1.0,0.6881611670000325,,75.81714583299998,75.82524112499999,76.309671041,76.315402791,,,,,,,,,,,,,,,,,,,,,,,,,,,,,sub-140,1,random_dot,119.8938340099728,
left,left,12.0,0.0,6.0,right,0.0,1.1437425830000052,,,,,,6.0,0.0,12.0,0.0,,,,,,,,,76.315402791,,,,,,,,,76.31006574999998,77.11562266599998,77.91774245799996,77.909727041,77.91019512499997,77.91774245799996,77.91774245799996,77.91774245799996,,79.06756704099996,right,0.0,1.1437425830000052,,79.07099633299998,79.07947333299995,79.56573524999999,79.57566616599996,,,,,,,,,,,,,,,,,,,,,,,,,,,,,sub-140,1,random_dot,119.8938340099728,
right,right,13.0,1.0,6.0,right,1.0,1.2521427919999724,,,,,,6.0,1.0,13.0,1.0,,,,,,,,,79.57566616599996,,,,,,,,,79.56620470799999,80.76534137499999,81.55862074999999,81.54914554099997,81.54962083299995,81.55862074999999,81.55862074999999,81.55862074999999,,82.81712449999998,right,1.0,1.2521427919999724,,82.82043558299995,82.82857824999996,83.31525458299996,83.325852833,,,,,,,,,,,,,,,,,,,,,,,,,,,,,sub-140,1,random_dot,119.8938340099728,
left,left,14.0,0.0,7.0,left,1.0,0.8362976249999861,,,,,,7.0,0.0,14.0,0.0,,,,,,,,,83.325852833,,,,,,,,,83.31565191599998,84.11519625,84.90848295799998,84.90017745799997,84.90069412499997,84.90848295799998,84.90848295799998,84.90848295799998,,85.75098754099997,left,1.0,0.8362976249999861,,85.75109729099995,85.75957949999997,86.24321137499999,86.24899462499997,,,,,,,,,,,,,,,,,,,,,,,,,,,,,sub-140,1,random_dot,119.8938340099728,
right,right,15.0,1.0,7.0,left,0.0,1.1235491670000215,,,,,,7.0,1.0,15.0,1.0,,,,,,,,,86.24899462499997,,,,,,,,,86.243632666,87.049080291,87.84190774999996,87.83353462499997,87.83401729099995,87.84190774999996,87.84190774999996,87.84190774999996,,88.96780224999998,left,0.0,1.1235491670000215,,88.97086908299997,88.979568083,89.46573224999997,89.47616191599997,,,,,,,,,,,,,,,,,,,,,,,,,,,,,sub-140,1,random_dot,119.8938340099728,
right,right,16.0,0.0,8.0,right,1.0,0.6405743750000283,,,,,,8.0,0.0,16.0,1.0,,,,,,,,,89.47616191599997,,,,,,,,,89.46616020799996,90.26577454099998,91.05884095799996,91.04889095799996,91.04936570799998,91.05884095799996,91.05884095799996,91.05884095799996,,91.701525291,right,1.0,0.6405743750000283,,91.70467145799996,91.71304041599996,92.19973716599998,92.20930954099998,,,,,,,,,,,,,,,,,,,,,,,,,,,,,sub-140,1,random_dot,119.8938340099728,
left,left,17.0,1.0,8.0,left,1.0,1.0947165410000252,,,,,,8.0,1.0,17.0,0.0,,,,,,,,,92.20930954099998,,,,,,,,,92.200217625,92.54808787499996,93.34247887499998,93.33301512499996,93.333522416,93.34247887499998,93.34247887499998,93.34247887499998,,94.444239875,left,1.0,1.0947165410000252,,94.444355375,94.45242787499996,94.94345241599996,94.94919995799997,,,,,,,,,,,,,,,,,,,,,,,,,,,,,sub-140,1,random_dot,119.8938340099728,
right,right,18.0,0.0,9.0,right,1.0,1.122216917000003,,,,,,9.0,0.0,18.0,1.0,,,,,,,,,94.94919995799997,,,,,,,,,94.943855333,95.742958708,96.53510162499998,96.52696833299996,96.52750737499996,96.53510162499998,96.53510162499998,96.53510162499998,,97.66092774999998,right,1.0,1.122216917000003,,97.66104224999998,97.66963316599998,98.16001895799997,98.16545954099996,,,,,,,,,,,,,,,,,,,,,,,,,,,,,sub-140,1,random_dot,119.8938340099728,
left,left,19.0,1.0,9.0,left,1.0,1.123357833,,,,,,9.0,1.0,19.0,0.0,,,,,,,,,98.16545954099996,,,,,,,,,98.16036475,98.95978499999995,99.75270170799996,99.74396149999995,99.744560708,99.75270170799996,99.75270170799996,99.75270170799996,,100.878181666,left,1.0,1.123357833,,100.87830154099998,100.88641237499996,101.376802,101.38440949999996,,,,,,,,,,,,,,,,,,,,,,,,,,,,,sub-140,1,random_dot,119.8938340099728,
,,,,,,,,,,,,,,,,,,,,,,,,,,,,,,,,,,,,,,,,,,,,,,,,,,,,101.376960333,101.38440949999996,101.38440949999996,123.117703791,space,21.728032041999995,,,,,,,,,,,,,,,,,,,,,,,sub-140,1,random_dot,119.8938340099728,
,,,,,,,,,,,,,,,,,,,,,,,,,,,,,,,,,,,,,,,,,,,,,,,,,,,,,,,,,,,123.117775791,123.129056875,123.129056875,131.812470416,space,8.67616633299997,,,,,,,,,,,,,,,,sub-140,1,random_dot,119.8938340099728,
left,left,0.0,0.0,0.0,right,0.0,0.8209272919999648,,speed,space,10.283000415999991,,,,,,0.0,0.0,0.0,1.0,0.0,0.0,0.0,0.0,142.14664308299996,,,,,,,,,142.13790912499996,142.227326458,143.01908399999996,143.011254291,143.011752791,143.01908399999996,143.01908399999996,143.01908399999996,,143.84550504099997,,,,,,,,,,,,,,,,,,,,,,,131.83519208299998,131.84456704099995,131.84456704099995,142.13005929099995,space,10.283000415999991,,right,0.0,0.8209272919999648,,,,,sub-140,1,random_dot,119.8938340099728,
right,right,1.0,1.0,0.0,left,0.0,0.9428805000000012,,speed,space,10.283000415999991,,,,,,0.0,0.0,0.0,1.0,0.0,1.0,1.0,1.0,143.85378216599997,,,,,,,,,143.84592416599995,144.194188333,144.985740083,144.978102875,144.97855912499995,144.985740083,144.985740083,144.985740083,,145.935833625,,,,,,,,,,,,,,,,,,,,,,,,,,,,,,left,0.0,0.9428805000000012,,,,,sub-140,1,random_dot,119.8938340099728,
left,left,2.0,0.0,1.0,left,1.0,1.1906341669999847,,speed,space,10.283000415999991,,,,,,0.0,0.0,0.0,1.0,1.0,0.0,2.0,0.0,145.94387991599996,,,,,,,,,145.93624254099996,146.73401116599996,147.53683374999997,147.52842820799998,147.52900462499997,147.53683374999997,147.53683374999997,147.53683374999997,,148.73917437499995,,,,,,,,,,,,,,,,,,,,,,,,,,,,,,left,1.0,1.1906341669999847,,,,,sub-140,1,random_dot,119.8938340099728,
right,right,3.0,1.0,1.0,right,1.0,0.7757019580000133,,speed,space,10.283000415999991,,,,,,0.0,0.0,0.0,1.0,1.0,1.0,3.0,1.0,148.760422291,,,,,,,,,148.73960562499997,148.834165375,149.63612862499997,149.62805683299996,149.62851899999998,149.63612862499997,149.63612862499997,149.63612862499997,,150.41908487499995,,,,,,,,,,,,,,,,,,,,,,,,,,,,,,right,1.0,0.7757019580000133,,,,,sub-140,1,random_dot,119.8938340099728,
left,left,4.0,0.0,2.0,right,0.0,0.8787086250000016,,speed,space,10.283000415999991,,,,,,0.0,0.0,0.0,1.0,2.0,0.0,4.0,0.0,150.426956583,,,,,,,,,150.41948924999997,151.61765724999998,152.41040599999997,152.40080304099996,152.401337083,152.41040599999997,152.41040599999997,152.41040599999997,,153.29546699999997,,,,,,,,,,,,,,,,,,,,,,,,,,,,,,right,0.0,0.8787086250000016,,,,,sub-140,1,random_dot,119.8938340099728,
right,right,5.0,1.0,2.0,right,1.0,1.0111747079999986,,speed,space,10.283000415999991,,,,,,0.0,0.0,0.0,1.0,2.0,1.0,5.0,1.0,153.303810458,,,,,,,,,153.29587012499996,153.39439675,154.186820916,154.17838166599995,154.178907166,154.186820916,154.186820916,154.186820916,,155.20245154099996,,,,,,,,,,,,,,,,,,,,,,,,,,,,,,right,1.0,1.0111747079999986,,,,,sub-140,1,random_dot,119.8938340099728,
right,right,6.0,0.0,3.0,left,0.0,0.6951310829999784,,speed,space,10.283000415999991,,,,,,0.0,0.0,0.0,1.0,3.0,0.0,6.0,1.0,155.210501541,,,,,,,,,155.20284462499995,156.00120245799997,156.79314070799995,156.78499354099995,156.78548058299998,156.79314070799995,156.79314070799995,156.79314070799995,,157.49551166599997,,,,,,,,,,,,,,,,,,,,,,,,,,,,,,left,0.0,0.6951310829999784,,,,,sub-140,1,random_dot,119.8938340099728,
left,left,7.0,1.0,3.0,right,0.0,1.1111345410000126,,speed,space,10.283000415999991,,,,,,0.0,0.0,0.0,1.0,3.0,1.0,7.0,0.0,157.503918,,,,,,,,,157.49591916599996,157.59449074999998,158.387005875,158.37835574999997,158.378890083,158.387005875,158.387005875,158.387005875,,159.50275304099995,,,,,,,,,,,,,,,,,,,,,,,,,,,,,,right,0.0,1.1111345410000126,,,,,sub-140,1,random_dot,119.8938340099728,
left,left,8.0,0.0,4.0,right,0.0,0.7911225419999823,,speed,space,10.283000415999991,,,,,,0.0,0.0,0.0,1.0,4.0,0.0,8.0,0.0,159.510669958,,,,,,,,,159.503149791,159.601409333,160.40360637499998,160.39528037499997,160.39581895799995,160.40360637499998,160.40360637499998,160.40360637499998,,161.20412445799997,,,,,,,,,,,,,,,,,,,,,,,,,,,,,,right,0.0,0.7911225419999823,,,,,sub-140,1,random_dot,119.8938340099728,
right,right,9.0,1.0,4.0,left,0.0,0.7138175000000047,,speed,space,10.283000415999991,,,,,,0.0,0.0,0.0,1.0,4.0,1.0,9.0,1.0,161.212256208,,,,,,,,,161.204518958,162.40236766599998,163.20297679099997,163.19508791599998,163.195538333,163.20297679099997,163.20297679099997,163.20297679099997,,163.91926604099996,,,,,,,,,,,,,,,,,,,,,,,,,,,,,,left,0.0,0.7138175000000047,,,,,sub-140,1,random_dot,119.8938340099728,
right,right,10.0,0.0,5.0,right,1.0,0.9387743329999694,,speed,space,10.283000415999991,,,,,,0.0,0.0,0.0,1.0,5.0,0.0,10.0,1.0,163.92753112499997,,,,,,,,,163.91966741599998,164.01788962499995,164.81947587499997,164.811660583,164.81213066599997,164.81947587499997,164.81947587499997,164.81947587499997,,165.76248783299997,,,,,,,,,,,,,,,,,,,,,,,,,,,,,,right,1.0,0.9387743329999694,,,,,sub-140,1,random_dot,119.8938340099728,
left,left,11.0,1.0,5.0,left,1.0,0.5534516660000008,,speed,space,10.283000415999991,,,,,,0.0,0.0,0.0,1.0,5.0,1.0,11.0,0.0,165.77057179099995,,,,,,,,,165.76288766599998,166.56135474999996,167.35355416599998,167.34536316599997,167.34585299999998,167.35355416599998,167.35355416599998,167.35355416599998,,167.912698875,,,,,,,,,,,,,,,,,,,,,,,,,,,,,,left,1.0,0.5534516660000008,,,,,sub-140,1,random_dot,119.8938340099728,
right,right,12.0,0.0,6.0,left,0.0,0.537442958999975,,speed,space,10.283000415999991,,,,,,0.0,0.0,0.0,1.0,6.0,0.0,12.0,1.0,167.921043458,,,,,,,,,167.91310745799996,169.11147674999995,169.904322875,169.89555266599996,169.896142291,169.904322875,169.904322875,169.904322875,,170.44593525,,,,,,,,,,,,,,,,,,,,,,,,,,,,,,left,0.0,0.537442958999975,,,,,sub-140,1,random_dot,119.8938340099728,
left,left,13.0,1.0,6.0,right,0.0,0.740116291999982,,speed,space,10.283000415999991,,,,,,0.0,0.0,0.0,1.0,6.0,1.0,13.0,0.0,170.45174808299998,,,,,,,,,170.446339541,170.54479754099998,171.33721708299998,171.32886995799998,171.32938466599995,171.33721708299998,171.33721708299998,171.33721708299998,,172.07944649999996,,,,,,,,,,,,,,,,,,,,,,,,,,,,,,right,0.0,0.740116291999982,,,,,sub-140,1,random_dot,119.8938340099728,
left,left,14.0,0.0,7.0,left,1.0,0.6473094579999952,,speed,space,10.283000415999991,,,,,,0.0,0.0,0.0,1.0,7.0,0.0,14.0,0.0,172.08527875,,,,,,,,,172.079847208,172.428705041,173.22036616599996,173.21220866599998,173.212700541,173.22036616599996,173.22036616599996,173.22036616599996,,173.86993037499997,,,,,,,,,,,,,,,,,,,,,,,,,,,,,,left,1.0,0.6473094579999952,,,,,sub-140,1,random_dot,119.8938340099728,
right,right,15.0,1.0,7.0,right,1.0,0.8283749999999941,,speed,space,10.283000415999991,,,,,,0.0,0.0,0.0,1.0,7.0,1.0,15.0,1.0,173.87848249999996,,,,,,,,,173.87033741599998,173.967850833,174.76117079099998,174.75200974999996,174.752470083,174.76117079099998,174.76117079099998,174.76117079099998,,175.59595316599996,,,,,,,,,,,,,,,,,,,,,,,,,,,,,,right,1.0,0.8283749999999941,,,,,sub-140,1,random_dot,119.8938340099728,
left,left,16.0,0.0,8.0,left,1.0,0.6581838749999633,,speed,space,10.283000415999991,,,,,,0.0,0.0,0.0,1.0,8.0,0.0,16.0,0.0,175.60426904099995,,,,,,,,,175.59636662499997,175.944888875,176.73691654099997,176.72888016599995,176.729349583,176.73691654099997,176.73691654099997,176.73691654099997,,177.404229166,,,,,,,,,,,,,,,,,,,,,,,,,,,,,,left,1.0,0.6581838749999633,,,,,sub-140,1,random_dot,119.8938340099728,
right,right,17.0,1.0,8.0,right,1.0,0.8716173340000068,,speed,space,10.283000415999991,,,,,,0.0,0.0,0.0,1.0,8.0,1.0,17.0,1.0,177.42773170799995,,,,,,,,,177.404636708,177.75113516599998,178.544266666,178.534151791,178.534626958,178.544266666,178.544266666,178.544266666,,179.42051779099995,,,,,,,,,,,,,,,,,,,,,,,,,,,,,,right,1.0,0.8716173340000068,,,,,sub-140,1,random_dot,119.8938340099728,
right,right,18.0,0.0,9.0,right,1.0,0.7201945840000121,,speed,space,10.283000415999991,,,,,,0.0,0.0,0.0,1.0,9.0,0.0,18.0,1.0,179.44461804099996,,,,,,,,,179.42091408299996,180.617926666,181.42028574999995,181.412274416,181.412729333,181.42028574999995,181.42028574999995,181.42028574999995,,182.146048416,,,,,,,,,,,,,,,,,,,,,,,,,,,,,,right,1.0,0.7201945840000121,,,,,sub-140,1,random_dot,119.8938340099728,
left,left,19.0,1.0,9.0,left,1.0,1.3837888749999934,,speed,space,10.283000415999991,,,,,,0.0,0.0,0.0,1.0,9.0,1.0,19.0,0.0,182.154345666,,,,,,,,,182.1464665,182.24509525,183.03739325,183.029130291,183.029670041,183.03739325,183.03739325,183.03739325,,184.429892625,,,,,,,,,,,,,,,,,,,,,,,,,,,,,,left,1.0,1.3837888749999934,,,,,sub-140,1,random_dot,119.8938340099728,
left,left,20.0,0.0,10.0,left,1.0,1.3277115420000314,,speed,space,10.283000415999991,,,,,,0.0,0.0,0.0,1.0,10.0,0.0,20.0,0.0,184.4380485,,,,,,,,,184.43032304099995,185.228494791,186.02037737499995,186.012385,186.012839625,186.02037737499995,186.02037737499995,186.02037737499995,,187.35321791599995,,,,,,,,,,,,,,,,,,,,,,,,,,,,,,left,1.0,1.3277115420000314,,,,,sub-140,1,random_dot,119.8938340099728,
right,right,21.0,1.0,10.0,right,1.0,0.5332222499999943,,speed,space,10.283000415999991,,,,,,0.0,0.0,0.0,1.0,10.0,1.0,21.0,1.0,187.361116666,,,,,,,,,187.353625666,188.552329,189.344684,189.335471083,189.335967166,189.344684,189.344684,189.344684,,189.880005916,,,,,,,,,,,,,,,,,,,,,,,,,,,,,,right,1.0,0.5332222499999943,,,,,sub-140,1,random_dot,119.8938340099728,
left,left,22.0,0.0,11.0,right,0.0,0.9743865830000118,,speed,space,10.283000415999991,,,,,,0.0,0.0,0.0,1.0,11.0,0.0,22.0,0.0,189.888371083,,,,,,,,,189.880420916,189.97865025,190.770671416,190.762671583,190.76317958299995,190.770671416,190.770671416,190.770671416,,191.747166958,,,,,,,,,,,,,,,,,,,,,,,,,,,,,,right,0.0,0.9743865830000118,,,,,sub-140,1,random_dot,119.8938340099728,
right,right,23.0,1.0,11.0,right,1.0,0.91642058299999,,speed,space,10.283000415999991,,,,,,0.0,0.0,0.0,1.0,11.0,1.0,23.0,1.0,191.75283625,,,,,,,,,191.747584166,192.545287375,193.337314583,193.329286208,193.329747083,193.337314583,193.337314583,193.337314583,,194.26319149999995,,,,,,,,,,,,,,,,,,,,,,,,,,,,,,right,1.0,0.91642058299999,,,,,sub-140,1,random_dot,119.8938340099728,
right,right,24.0,0.0,12.0,left,0.0,0.5470125410000151,,speed,space,10.283000415999991,,,,,,0.0,0.0,0.0,1.0,12.0,0.0,24.0,1.0,194.271601458,,,,,,,,,194.263601291,194.361965125,195.153495666,195.145880458,195.146329291,195.153495666,195.153495666,195.153495666,,195.703434708,,,,,,,,,,,,,,,,,,,,,,,,,,,,,,left,0.0,0.5470125410000151,,,,,sub-140,1,random_dot,119.8938340099728,
left,left,25.0,1.0,12.0,right,0.0,0.6431067919999691,,speed,space,10.283000415999991,,,,,,0.0,0.0,0.0,1.0,12.0,1.0,25.0,0.0,195.711487,,,,,,,,,195.703826958,196.502242416,197.304064041,197.295974041,197.296445625,197.304064041,197.304064041,197.304064041,,197.953467333,,,,,,,,,,,,,,,,,,,,,,,,,,,,,,right,0.0,0.6431067919999691,,,,,sub-140,1,random_dot,119.8938340099728,
right,right,26.0,0.0,13.0,left,0.0,1.1549917080000114,,speed,space,10.283000415999991,,,,,,0.0,0.0,0.0,1.0,13.0,0.0,26.0,1.0,197.961603541,,,,,,,,,197.953878791,199.152339666,199.954100333,199.946079,199.94655320799995,199.954100333,199.954100333,199.954100333,,201.11375341599995,,,,,,,,,,,,,,,,,,,,,,,,,,,,,,left,0.0,1.1549917080000114,,,,,sub-140,1,random_dot,119.8938340099728,
left,left,27.0,1.0,13.0,right,0.0,0.5086572079999883,,speed,space,10.283000415999991,,,,,,0.0,0.0,0.0,1.0,13.0,1.0,27.0,0.0,201.122082333,,,,,,,,,201.114169541,202.311943,203.104241708,203.096064333,203.096535041,203.104241708,203.104241708,203.104241708,,203.620200458,,,,,,,,,,,,,,,,,,,,,,,,,,,,,,right,0.0,0.5086572079999883,,,,,sub-140,1,random_dot,119.8938340099728,
right,right,28.0,0.0,14.0,left,0.0,1.344353500000011,,speed,space,10.283000415999991,,,,,,0.0,0.0,0.0,1.0,14.0,0.0,28.0,1.0,203.62815175,,,,,,,,,203.62061275,204.418541708,205.211779666,205.201550458,205.202037208,205.211779666,205.211779666,205.211779666,,206.563488666,,,,,,,,,,,,,,,,,,,,,,,,,,,,,,left,0.0,1.344353500000011,,,,,sub-140,1,random_dot,119.8938340099728,
left,left,29.0,1.0,14.0,left,1.0,1.1165101249999907,,speed,space,10.283000415999991,,,,,,0.0,0.0,0.0,1.0,14.0,1.0,29.0,0.0,206.571858833,,,,,,,,,206.563904958,207.762356916,208.554095833,208.54628075,208.546746625,208.554095833,208.554095833,208.554095833,,209.680136625,,,,,,,,,,,,,,,,,,,,,,,,,,,,,,left,1.0,1.1165101249999907,,,,,sub-140,1,random_dot,119.8938340099728,
right,right,30.0,0.0,15.0,right,1.0,0.6410941249999951,,speed,space,10.283000415999991,,,,,,0.0,0.0,0.0,1.0,15.0,0.0,30.0,1.0,209.688504416,,,,,,,,,209.680540041,209.769419333,210.571051166,210.56298775,210.563438208,210.571051166,210.571051166,210.571051166,,211.214718958,,,,,,,,,,,,,,,,,,,,,,,,,,,,,,right,1.0,0.6410941249999951,,,,,sub-140,1,random_dot,119.8938340099728,
left,left,31.0,1.0,15.0,right,0.0,0.8738386249999621,,speed,space,10.283000415999991,,,,,,0.0,0.0,0.0,1.0,15.0,1.0,31.0,0.0,211.223242333,,,,,,,,,211.21525479099995,212.01250525,212.804781833,212.796413958,212.796858625,212.804781833,212.804781833,212.804781833,,213.680737583,,,,,,,,,,,,,,,,,,,,,,,,,,,,,,right,0.0,0.8738386249999621,,,,,sub-140,1,random_dot,119.8938340099728,
left,left,32.0,0.0,16.0,left,1.0,0.6170025000000123,,speed,space,10.283000415999991,,,,,,0.0,0.0,0.0,1.0,16.0,0.0,32.0,0.0,213.68639029099995,,,,,,,,,213.681141958,214.47928837499995,215.270637708,215.26315083299997,215.263621375,215.270637708,215.270637708,215.270637708,,215.897121291,,,,,,,,,,,,,,,,,,,,,,,,,,,,,,left,1.0,0.6170025000000123,,,,,sub-140,1,random_dot,119.8938340099728,
right,right,33.0,1.0,16.0,left,0.0,0.6362022920000072,,speed,space,10.283000415999991,,,,,,0.0,0.0,0.0,1.0,16.0,1.0,33.0,1.0,215.905342166,,,,,,,,,215.8975405,217.09583420799996,217.88794029099995,217.87989800000005,217.88036987499996,217.88794029099995,217.88794029099995,217.88794029099995,,218.53034108299997,,,,,,,,,,,,,,,,,,,,,,,,,,,,,,left,0.0,0.6362022920000072,,,,,sub-140,1,random_dot,119.8938340099728,
left,left,34.0,0.0,17.0,right,0.0,0.7021124169999666,,speed,space,10.283000415999991,,,,,,0.0,0.0,0.0,1.0,17.0,0.0,34.0,0.0,218.53870495799995,,,,,,,,,218.53075412499996,219.719685625,220.511715041,220.50360983299996,220.504080833,220.511715041,220.511715041,220.511715041,,221.22075699999996,,,,,,,,,,,,,,,,,,,,,,,,,,,,,,right,0.0,0.7021124169999666,,,,,sub-140,1,random_dot,119.8938340099728,
right,right,35.0,1.0,17.0,right,1.0,0.8124505409999756,,speed,space,10.283000415999991,,,,,,0.0,0.0,0.0,1.0,17.0,1.0,35.0,1.0,221.228978583,,,,,,,,,221.221158375,221.56882666599995,222.362074875,222.35182375,222.35228166599995,222.362074875,222.362074875,222.362074875,,223.180678375,,,,,,,,,,,,,,,,,,,,,,,,,,,,,,right,1.0,0.8124505409999756,,,,,sub-140,1,random_dot,119.8938340099728,
right,right,36.0,0.0,18.0,left,0.0,0.558452500000044,,speed,space,10.283000415999991,,,,,,0.0,0.0,0.0,1.0,18.0,0.0,36.0,1.0,223.18897433299992,,,,,,,,,223.181093208,224.379334083,225.17089179100003,225.16319379100003,225.16363325,225.17089179100003,225.17089179100003,225.17089179100003,,225.731434208,,,,,,,,,,,,,,,,,,,,,,,,,,,,,,left,0.0,0.558452500000044,,,,,sub-140,1,random_dot,119.8938340099728,
left,left,37.0,1.0,18.0,left,1.0,0.7691734159999442,,speed,space,10.283000415999991,,,,,,0.0,0.0,0.0,1.0,18.0,1.0,37.0,0.0,225.73726554099997,,,,,,,,,225.731843458,226.529587375,227.321512375,227.313397666,227.31385779100003,227.321512375,227.321512375,227.321512375,,228.097536333,,,,,,,,,,,,,,,,,,,,,,,,,,,,,,left,1.0,0.7691734159999442,,,,,sub-140,1,random_dot,119.8938340099728,
right,right,38.0,0.0,19.0,right,1.0,0.7861855830000195,,speed,space,10.283000415999991,,,,,,0.0,0.0,0.0,1.0,19.0,0.0,38.0,1.0,228.10585779099995,,,,,,,,,228.097956458,228.446230541,229.23823812499995,229.230172541,229.23063012499995,229.23823812499995,229.23823812499995,229.23823812499995,,230.03059229099995,,,,,,,,,,,,,,,,,,,,,,,,,,,,,,right,1.0,0.7861855830000195,,,,,sub-140,1,random_dot,119.8938340099728,
left,left,39.0,1.0,19.0,left,1.0,0.6028276250000317,,speed,space,10.283000415999991,,,,,,0.0,0.0,0.0,1.0,19.0,1.0,39.0,0.0,230.038872791,,,,,,,,,230.03099754099992,230.12964216599997,230.921134083,230.913492625,230.91395887499996,230.921134083,230.921134083,230.921134083,,231.530872583,,,,,,,,,,,,,,,,,,,,,,,,,,,,,,left,1.0,0.6028276250000317,,,,,sub-140,1,random_dot,119.8938340099728,
left,left,40.0,0.0,20.0,left,1.0,0.8934116249999988,,speed,space,10.283000415999991,,,,,,0.0,0.0,0.0,1.0,20.0,0.0,40.0,0.0,231.539171666,,,,,,,,,231.53127599999996,232.32969125,233.12185545800003,233.11360025,233.11409679099995,233.12185545800003,233.12185545800003,233.12185545800003,,234.02137262500003,,,,,,,,,,,,,,,,,,,,,,,,,,,,,,left,1.0,0.8934116249999988,,,,,sub-140,1,random_dot,119.8938340099728,
right,right,41.0,1.0,20.0,right,1.0,0.6194743749999816,,speed,space,10.283000415999991,,,,,,0.0,0.0,0.0,1.0,20.0,1.0,41.0,1.0,234.029680708,,,,,,,,,234.02177466599997,234.118550833,234.91245433300003,234.90217399999997,234.90268779099995,234.91245433300003,234.91245433300003,234.91245433300003,,235.53798862500005,,,,,,,,,,,,,,,,,,,,,,,,,,,,,,right,1.0,0.6194743749999816,,,,,sub-140,1,random_dot,119.8938340099728,
left,left,42.0,0.0,21.0,left,1.0,0.8040389170000708,,speed,space,10.283000415999991,,,,,,0.0,0.0,0.0,1.0,21.0,0.0,42.0,0.0,235.54613133299995,,,,,,,,,235.53840274999996,236.33603399999996,237.1291675,237.11981241599997,237.12036441600003,237.1291675,237.1291675,237.1291675,,237.93809554099997,,,,,,,,,,,,,,,,,,,,,,,,,,,,,,left,1.0,0.8040389170000708,,,,,sub-140,1,random_dot,119.8938340099728,
right,right,43.0,1.0,21.0,right,1.0,0.5828370839999479,,speed,space,10.283000415999991,,,,,,0.0,0.0,0.0,1.0,21.0,1.0,43.0,1.0,237.94614012499997,,,,,,,,,237.938501083,238.736249125,239.529303875,239.519974875,239.520445333,239.529303875,239.529303875,239.529303875,,240.11437649999996,,,,,,,,,,,,,,,,,,,,,,,,,,,,,,right,1.0,0.5828370839999479,,,,,sub-140,1,random_dot,119.8938340099728,
left,left,44.0,0.0,22.0,left,1.0,1.0582879579999371,,speed,space,10.283000415999991,,,,,,0.0,0.0,0.0,1.0,22.0,0.0,44.0,0.0,240.120208125,,,,,,,,,240.114783958,240.46322754099992,241.25549575,241.247241208,241.24775950000003,241.25549575,241.25549575,241.25549575,,242.321451958,,,,,,,,,,,,,,,,,,,,,,,,,,,,,,left,1.0,1.0582879579999371,,,,,sub-140,1,random_dot,119.8938340099728,
right,right,45.0,1.0,22.0,left,0.0,0.7362339170000496,,speed,space,10.283000415999991,,,,,,0.0,0.0,0.0,1.0,22.0,1.0,45.0,1.0,242.329577375,,,,,,,,,242.32186137500003,242.66990012500003,243.462232291,243.45336854100003,243.45397879099997,243.462232291,243.462232291,243.462232291,,244.20486029099996,,,,,,,,,,,,,,,,,,,,,,,,,,,,,,left,0.0,0.7362339170000496,,,,,sub-140,1,random_dot,119.8938340099728,
left,left,46.0,0.0,23.0,right,0.0,0.719274333000044,,speed,space,10.283000415999991,,,,,,0.0,0.0,0.0,1.0,23.0,0.0,46.0,0.0,244.212826416,,,,,,,,,244.205262125,245.00274212499997,245.79566316599997,245.787082083,245.78764345799996,245.79566316599997,245.79566316599997,245.79566316599997,,246.52206004100003,,,,,,,,,,,,,,,,,,,,,,,,,,,,,,right,0.0,0.719274333000044,,,,,sub-140,1,random_dot,119.8938340099728,
right,right,47.0,1.0,23.0,right,1.0,0.8756255829999873,,speed,space,10.283000415999991,,,,,,0.0,0.0,0.0,1.0,23.0,1.0,47.0,1.0,246.546374958,,,,,,,,,246.52246474999995,246.86974016599996,247.662838,247.65330725,247.653788458,247.662838,247.662838,247.662838,,248.54787149999996,,,,,,,,,,,,,,,,,,,,,,,,,,,,,,right,1.0,0.8756255829999873,,,,,sub-140,1,random_dot,119.8938340099728,
right,right,48.0,0.0,24.0,left,0.0,1.1914130839999189,,speed,space,10.283000415999991,,,,,,0.0,0.0,0.0,1.0,24.0,0.0,48.0,1.0,248.55616224999997,,,,,,,,,248.548277708,249.34682283299992,250.138961625,250.130835916,250.131291541,250.138961625,250.138961625,250.138961625,,251.338300208,,,,,,,,,,,,,,,,,,,,,,,,,,,,,,left,0.0,1.1914130839999189,,,,,sub-140,1,random_dot,119.8938340099728,
left,left,49.0,1.0,24.0,right,0.0,0.6926054159999921,,speed,space,10.283000415999991,,,,,,0.0,0.0,0.0,1.0,24.0,1.0,49.0,0.0,251.34622787499995,,,,,,,,,251.33868975,252.536181708,253.32952787499997,253.319398375,253.319884666,253.32952787499997,253.32952787499997,253.32952787499997,,254.031250041,,,,,,,,,,,,,,,,,,,,,,,,,,,,,,right,0.0,0.6926054159999921,,,,,sub-140,1,random_dot,119.8938340099728,
left,left,50.0,0.0,25.0,right,0.0,0.7359525829999711,,speed,space,10.283000415999991,,,,,,0.0,0.0,0.0,1.0,25.0,0.0,50.0,0.0,254.03966141599997,,,,,,,,,254.031654625,254.380102333,255.17212929099992,255.1641095,255.164564791,255.17212929099992,255.17212929099992,255.17212929099992,,255.915022333,,,,,,,,,,,,,,,,,,,,,,,,,,,,,,right,0.0,0.7359525829999711,,,,,sub-140,1,random_dot,119.8938340099728,
right,right,51.0,1.0,25.0,left,0.0,0.838250665999908,,speed,space,10.283000415999991,,,,,,0.0,0.0,0.0,1.0,25.0,1.0,51.0,1.0,255.923534625,,,,,,,,,255.91542812499995,256.263598,257.05546908299993,257.04746991599995,257.047917125,257.05546908299993,257.05546908299993,257.05546908299993,,257.8980144579999,,,,,,,,,,,,,,,,,,,,,,,,,,,,,,left,0.0,0.838250665999908,,,,,sub-140,1,random_dot,119.8938340099728,
left,left,52.0,0.0,26.0,left,1.0,0.6645432919999621,,speed,space,10.283000415999991,,,,,,0.0,0.0,0.0,1.0,26.0,0.0,52.0,0.0,257.90669541599993,,,,,,,,,257.898515125,258.24704875,259.038410458,259.030798291,259.031259625,259.038410458,259.038410458,259.038410458,,259.705278541,,,,,,,,,,,,,,,,,,,,,,,,,,,,,,left,1.0,0.6645432919999621,,,,,sub-140,1,random_dot,119.8938340099728,
right,right,53.0,1.0,26.0,right,1.0,0.5364386669999703,,speed,space,10.283000415999991,,,,,,0.0,0.0,0.0,1.0,26.0,1.0,53.0,1.0,259.713179333,,,,,,,,,259.7056719579999,259.804219291,260.605349583,260.597496625,260.597944083,260.605349583,260.605349583,260.605349583,,261.148146291,,,,,,,,,,,,,,,,,,,,,,,,,,,,,,right,1.0,0.5364386669999703,,,,,sub-140,1,random_dot,119.8938340099728,
left,left,54.0,0.0,27.0,left,1.0,0.7051869169999918,,speed,space,10.283000415999991,,,,,,0.0,0.0,0.0,1.0,27.0,0.0,54.0,0.0,261.156277583,,,,,,,,,261.148544166,261.49709825,262.2889785,262.28099120799993,262.281448041,262.2889785,262.2889785,262.2889785,,262.998243875,,,,,,,,,,,,,,,,,,,,,,,,,,,,,,left,1.0,0.7051869169999918,,,,,sub-140,1,random_dot,119.8938340099728,
right,right,55.0,1.0,27.0,left,0.0,1.2680714580000083,,speed,space,10.283000415999991,,,,,,0.0,0.0,0.0,1.0,27.0,1.0,55.0,1.0,263.004062708,,,,,,,,,262.99864066600003,263.79717333299993,264.589496875,264.581017083,264.58154725,264.589496875,264.589496875,264.589496875,,265.864909083,,,,,,,,,,,,,,,,,,,,,,,,,,,,,,left,0.0,1.2680714580000083,,,,,sub-140,1,random_dot,119.8938340099728,
right,right,56.0,0.0,28.0,right,1.0,0.6321442500000103,,speed,space,10.283000415999991,,,,,,0.0,0.0,0.0,1.0,28.0,0.0,56.0,1.0,265.873241708,,,,,,,,,265.8653150829999,266.663678291,267.456845625,267.44806504099995,267.448637375,267.456845625,267.456845625,267.456845625,,268.098505208,,,,,,,,,,,,,,,,,,,,,,,,,,,,,,right,1.0,0.6321442500000103,,,,,sub-140,1,random_dot,119.8938340099728,
left,left,57.0,1.0,28.0,right,0.0,0.8554265830000531,,speed,space,10.283000415999991,,,,,,0.0,0.0,0.0,1.0,28.0,1.0,57.0,0.0,268.10691387500003,,,,,,,,,268.098912625,269.297186916,270.08842337499993,270.081024708,270.081491291,270.08842337499993,270.08842337499993,270.08842337499993,,270.948466208,,,,,,,,,,,,,,,,,,,,,,,,,,,,,,right,0.0,0.8554265830000531,,,,,sub-140,1,random_dot,119.8938340099728,
right,right,58.0,0.0,29.0,left,0.0,0.8909897499999033,,speed,space,10.283000415999991,,,,,,0.0,0.0,0.0,1.0,29.0,0.0,58.0,1.0,270.954269708,,,,,,,,,270.948864666,271.297313833,272.089445458,272.08132924999995,272.081773,272.089445458,272.089445458,272.089445458,,272.982500166,,,,,,,,,,,,,,,,,,,,,,,,,,,,,,left,0.0,0.8909897499999033,,,,,sub-140,1,random_dot,119.8938340099728,
left,left,59.0,1.0,29.0,right,0.0,1.6994227080000428,,speed,space,10.283000415999991,,,,,,0.0,0.0,0.0,1.0,29.0,1.0,59.0,0.0,272.988355166,,,,,,,,,272.98292304099994,273.33049804099994,274.1236756249999,274.114869,274.115463791,274.1236756249999,274.1236756249999,274.1236756249999,,275.83173654099994,,,,,,,,,,,,,,,,,,,,,,,,,,,,,,right,0.0,1.6994227080000428,,,,,sub-140,1,random_dot,119.8938340099728,
,,0.0,0.0,0.0,,,,,speed,space,10.283000415999991,,,,,,0.0,0.0,0.0,1.0,,,,,,,,,,,,,,,,,,,,,,,,,,,,,,,,,,,,,,,,,,,,,,,,,,,,,,,,,,,,sub-140,1,random_dot,119.8938340099728,
left,left,0.0,0.0,0.0,right,0.0,1.040392957999984,,accuracy,space,16.603114667,,,,,,0.0,1.0,1.0,0.0,0.0,0.0,0.0,0.0,292.48199920799993,,,,,,,,,292.472596375,293.26446054099995,294.05684491599993,294.048512791,294.048991708,294.05684491599993,294.05684491599993,294.05684491599993,,295.09930424999993,,,,,,,,,,,,,,,,,,,,,,,275.849017333,275.856726083,275.856726083,292.466364333,space,16.603114667,,right,0.0,1.040392957999984,,,,,sub-140,1,random_dot,119.8938340099728,
right,right,1.0,1.0,0.0,right,1.0,1.2149361250000084,,accuracy,space,16.603114667,,,,,,0.0,1.0,1.0,0.0,0.0,1.0,1.0,1.0,295.10765125,,,,,,,,,295.099719791,295.197975541,295.98978383299993,295.981891,295.982340666,295.98978383299993,295.98978383299993,295.98978383299993,,297.21500266600003,,,,,,,,,,,,,,,,,,,,,,,,,,,,,,right,1.0,1.2149361250000084,,,,,sub-140,1,random_dot,119.8938340099728,
right,right,2.0,0.0,1.0,left,0.0,0.905029165999963,,accuracy,space,16.603114667,,,,,,0.0,1.0,1.0,0.0,1.0,0.0,2.0,1.0,297.22063245799995,,,,,,,,,297.21520079100003,297.554496041,298.356613875,298.34850770799994,298.348979125,298.356613875,298.356613875,298.356613875,,299.265673,,,,,,,,,,,,,,,,,,,,,,,,,,,,,,left,0.0,0.905029165999963,,,,,sub-140,1,random_dot,119.8938340099728,
left,left,3.0,1.0,1.0,left,1.0,1.2508107499999142,,accuracy,space,16.603114667,,,,,,0.0,1.0,1.0,0.0,1.0,1.0,3.0,0.0,299.27388825,,,,,,,,,299.266076458,299.354847083,300.147360875,300.13824954099994,300.138740583,300.147360875,300.147360875,300.147360875,,301.410706333,,,,,,,,,,,,,,,,,,,,,,,,,,,,,,left,1.0,1.2508107499999142,,,,,sub-140,1,random_dot,119.8938340099728,
right,right,4.0,0.0,2.0,right,1.0,1.2894136660000868,,accuracy,space,16.603114667,,,,,,0.0,1.0,1.0,0.0,2.0,0.0,4.0,1.0,301.41607858299994,,,,,,,,,301.411139583,301.754376708,302.54680462499994,302.538627291,302.539120291,302.54680462499994,302.54680462499994,302.54680462499994,,303.83965754099995,,,,,,,,,,,,,,,,,,,,,,,,,,,,,,right,1.0,1.2894136660000868,,,,,sub-140,1,random_dot,119.8938340099728,
left,left,5.0,1.0,2.0,left,1.0,2.1658527920000097,,accuracy,space,16.603114667,,,,,,0.0,1.0,1.0,0.0,2.0,1.0,5.0,0.0,303.847590416,,,,,,,,,303.840049916,304.638483833,305.44047683299993,305.43221375,305.432734375,305.44047683299993,305.44047683299993,305.44047683299993,,307.615927375,,,,,,,,,,,,,,,,,,,,,,,,,,,,,,left,1.0,2.1658527920000097,,,,,sub-140,1,random_dot,119.8938340099728,
left,left,6.0,0.0,3.0,right,0.0,0.8206067500000245,,accuracy,space,16.603114667,,,,,,0.0,1.0,1.0,0.0,3.0,0.0,6.0,0.0,307.624229,,,,,,,,,307.61633466599994,307.7147467909999,308.506583416,308.4988,308.49926295800003,308.506583416,308.506583416,308.506583416,,309.332858416,,,,,,,,,,,,,,,,,,,,,,,,,,,,,,right,0.0,0.8206067500000245,,,,,sub-140,1,random_dot,119.8938340099728,
right,right,7.0,1.0,3.0,right,1.0,2.844565125000031,,accuracy,space,16.603114667,,,,,,0.0,1.0,1.0,0.0,3.0,1.0,7.0,1.0,309.341202458,,,,,,,,,309.33326520799994,309.681547791,310.4739579999999,310.4656497909999,310.466220291,310.4739579999999,310.4739579999999,310.4739579999999,,313.32303887499995,,,,,,,,,,,,,,,,,,,,,,,,,,,,,,right,1.0,2.844565125000031,,,,,sub-140,1,random_dot,119.8938340099728,
right,right,8.0,0.0,4.0,left,0.0,2.126418625000042,,accuracy,space,16.603114667,,,,,,0.0,1.0,1.0,0.0,4.0,0.0,8.0,1.0,313.33119658299995,,,,,,,,,313.323443916,314.521619708,315.31439816599993,315.305094166,315.305547833,315.31439816599993,315.31439816599993,315.31439816599993,,317.449470625,,,,,,,,,,,,,,,,,,,,,,,,,,,,,,left,0.0,2.126418625000042,,,,,sub-140,1,random_dot,119.8938340099728,
left,left,9.0,1.0,4.0,right,0.0,1.1555412500000557,,accuracy,space,16.603114667,,,,,,0.0,1.0,1.0,0.0,4.0,1.0,9.0,0.0,317.457377708,,,,,,,,,317.449889083,318.24832825,319.040182041,319.032180166,319.032666125,319.040182041,319.040182041,319.040182041,,320.1997578329999,,,,,,,,,,,,,,,,,,,,,,,,,,,,,,right,0.0,1.1555412500000557,,,,,sub-140,1,random_dot,119.8938340099728,
right,right,10.0,0.0,5.0,right,1.0,1.303301458999954,,accuracy,space,16.603114667,,,,,,0.0,1.0,1.0,0.0,5.0,0.0,10.0,1.0,320.207866666,,,,,,,,,320.2001725829999,320.54853649999995,321.340639166,321.332502416,321.332960583,321.340639166,321.340639166,321.340639166,,322.649724041,,,,,,,,,,,,,,,,,,,,,,,,,,,,,,right,1.0,1.303301458999954,,,,,sub-140,1,random_dot,119.8938340099728,
left,left,11.0,1.0,5.0,left,1.0,1.2359009999998989,,accuracy,space,16.603114667,,,,,,0.0,1.0,1.0,0.0,5.0,1.0,11.0,0.0,322.658217291,,,,,,,,,322.65012479099994,322.748866875,323.540909166,323.532652708,323.5331259999999,323.540909166,323.540909166,323.540909166,,324.783014916,,,,,,,,,,,,,,,,,,,,,,,,,,,,,,left,1.0,1.2359009999998989,,,,,sub-140,1,random_dot,119.8938340099728,
right,right,12.0,0.0,6.0,right,1.0,1.6266185839999707,,accuracy,space,16.603114667,,,,,,0.0,1.0,1.0,0.0,6.0,0.0,12.0,1.0,324.79116975,,,,,,,,,324.783410333,324.88198624999995,325.673983958,325.6657406659999,325.666271166,325.673983958,325.673983958,325.673983958,,327.3066615409999,,,,,,,,,,,,,,,,,,,,,,,,,,,,,,right,1.0,1.6266185839999707,,,,,sub-140,1,random_dot,119.8938340099728,
left,left,13.0,1.0,6.0,right,0.0,1.1185400839999602,,accuracy,space,16.603114667,,,,,,0.0,1.0,1.0,0.0,6.0,1.0,13.0,0.0,327.315016333,,,,,,,,,327.307052,327.40563124999994,328.2069836659999,328.19925483299994,328.199706083,328.2069836659999,328.2069836659999,328.2069836659999,,329.333217375,,,,,,,,,,,,,,,,,,,,,,,,,,,,,,right,0.0,1.1185400839999602,,,,,sub-140,1,random_dot,119.8938340099728,
left,left,14.0,0.0,7.0,left,1.0,1.365678291999984,,accuracy,space,16.603114667,,,,,,0.0,1.0,1.0,0.0,7.0,0.0,14.0,0.0,329.34087754099994,,,,,,,,,329.333624958,329.682105958,330.47422662500003,330.465957208,330.466481541,330.47422662500003,330.47422662500003,330.47422662500003,,331.85045125,,,,,,,,,,,,,,,,,,,,,,,,,,,,,,left,1.0,1.365678291999984,,,,,sub-140,1,random_dot,119.8938340099728,
right,right,15.0,1.0,7.0,left,0.0,1.1490966669999807,,accuracy,space,16.603114667,,,,,,0.0,1.0,1.0,0.0,7.0,1.0,15.0,1.0,331.858985041,,,,,,,,,331.850858625,332.198852916,332.990768916,332.9826335,332.98309225,332.990768916,332.990768916,332.990768916,,334.150166958,,,,,,,,,,,,,,,,,,,,,,,,,,,,,,left,0.0,1.1490966669999807,,,,,sub-140,1,random_dot,119.8938340099728,
left,left,16.0,0.0,8.0,right,0.0,1.1750185839999858,,accuracy,space,16.603114667,,,,,,0.0,1.0,1.0,0.0,8.0,0.0,16.0,0.0,334.158515125,,,,,,,,,334.150573708,334.948912833,335.741311666,335.732969333,335.73351645799994,335.741311666,335.741311666,335.741311666,,336.92369875,,,,,,,,,,,,,,,,,,,,,,,,,,,,,,right,0.0,1.1750185839999858,,,,,sub-140,1,random_dot,119.8938340099728,
right,right,17.0,1.0,8.0,left,0.0,1.3099169580000307,,accuracy,space,16.603114667,,,,,,0.0,1.0,1.0,0.0,8.0,1.0,17.0,1.0,336.93162095799994,,,,,,,,,336.924100375,337.272162166,338.064102041,338.056196333,338.0566427499999,338.064102041,338.064102041,338.064102041,,339.383626875,,,,,,,,,,,,,,,,,,,,,,,,,,,,,,left,0.0,1.3099169580000307,,,,,sub-140,1,random_dot,119.8938340099728,
right,right,18.0,0.0,9.0,right,1.0,0.9083649159999824,,accuracy,space,16.603114667,,,,,,0.0,1.0,1.0,0.0,9.0,0.0,18.0,1.0,339.391953875,,,,,,,,,339.38403337499994,340.182319708,340.9746964579999,340.966286041,340.966799583,340.9746964579999,340.9746964579999,340.9746964579999,,341.8904397499999,,,,,,,,,,,,,,,,,,,,,,,,,,,,,,right,1.0,0.9083649159999824,,,,,sub-140,1,random_dot,119.8938340099728,
left,left,19.0,1.0,9.0,right,0.0,1.331252749999976,,accuracy,space,16.603114667,,,,,,0.0,1.0,1.0,0.0,9.0,1.0,19.0,0.0,341.899268916,,,,,,,,,341.890842583,342.238258375,343.03090124999994,343.02293262499995,343.023439291,343.03090124999994,343.03090124999994,343.03090124999994,,344.366660291,,,,,,,,,,,,,,,,,,,,,,,,,,,,,,right,0.0,1.331252749999976,,,,,sub-140,1,random_dot,119.8938340099728,
left,left,20.0,0.0,10.0,right,0.0,1.0747144160000062,,accuracy,space,16.603114667,,,,,,0.0,1.0,1.0,0.0,10.0,0.0,20.0,0.0,344.374888208,,,,,,,,,344.367055833,345.5559205,346.357796666,346.3497273329999,346.350196708,346.357796666,346.357796666,346.357796666,,347.4416259999999,,,,,,,,,,,,,,,,,,,,,,,,,,,,,,right,0.0,1.0747144160000062,,,,,sub-140,1,random_dot,119.8938340099728,
right,right,21.0,1.0,10.0,left,0.0,1.017365625000025,,accuracy,space,16.603114667,,,,,,0.0,1.0,1.0,0.0,10.0,1.0,21.0,1.0,347.465274541,,,,,,,,,347.442014708,348.239304208,349.041092541,349.033001083,349.033466416,349.041092541,349.041092541,349.041092541,,350.066990791,,,,,,,,,,,,,,,,,,,,,,,,,,,,,,left,0.0,1.017365625000025,,,,,sub-140,1,random_dot,119.8938340099728,
right,right,22.0,0.0,11.0,right,1.0,1.077824249999935,,accuracy,space,16.603114667,,,,,,0.0,1.0,1.0,0.0,11.0,0.0,22.0,1.0,350.0755208329999,,,,,,,,,350.067401291,350.865892458,351.658438583,351.649861083,351.650369583,351.658438583,351.658438583,351.658438583,,352.740975541,,,,,,,,,,,,,,,,,,,,,,,,,,,,,,right,1.0,1.077824249999935,,,,,sub-140,1,random_dot,119.8938340099728,
left,left,23.0,1.0,11.0,right,0.0,1.631099416999973,,accuracy,space,16.603114667,,,,,,0.0,1.0,1.0,0.0,11.0,1.0,23.0,0.0,352.748992166,,,,,,,,,352.741375833,353.939475583,354.741892708,354.73331125,354.733849291,354.741892708,354.741892708,354.741892708,,356.384096625,,,,,,,,,,,,,,,,,,,,,,,,,,,,,,right,0.0,1.631099416999973,,,,,sub-140,1,random_dot,119.8938340099728,
right,right,24.0,0.0,12.0,right,1.0,1.3910879160000604,,accuracy,space,16.603114667,,,,,,0.0,1.0,1.0,0.0,12.0,0.0,24.0,1.0,356.392639875,,,,,,,,,356.384533791,357.5828091249999,358.374442583,358.36660804099995,358.36705475,358.374442583,358.374442583,358.374442583,,359.767958333,,,,,,,,,,,,,,,,,,,,,,,,,,,,,,right,1.0,1.3910879160000604,,,,,sub-140,1,random_dot,119.8938340099728,
left,left,25.0,1.0,12.0,left,1.0,1.832321792000016,,accuracy,space,16.603114667,,,,,,0.0,1.0,1.0,0.0,12.0,1.0,25.0,0.0,359.776253916,,,,,,,,,359.768367333,360.9661820829999,361.758687541,361.750256083,361.7508154579999,361.758687541,361.758687541,361.758687541,,363.60061925,,,,,,,,,,,,,,,,,,,,,,,,,,,,,,left,1.0,1.832321792000016,,,,,sub-140,1,random_dot,119.8938340099728,
left,left,26.0,0.0,13.0,right,0.0,1.1880300829999442,,accuracy,space,16.603114667,,,,,,0.0,1.0,1.0,0.0,13.0,0.0,26.0,0.0,363.609076291,,,,,,,,,363.601045041,364.39963649999993,365.191686,365.183581208,365.184043916,365.191686,365.191686,365.191686,,366.384148208,,,,,,,,,,,,,,,,,,,,,,,,,,,,,,right,0.0,1.1880300829999442,,,,,sub-140,1,random_dot,119.8938340099728,
right,right,27.0,1.0,13.0,left,0.0,1.7708085829999618,,accuracy,space,16.603114667,,,,,,0.0,1.0,1.0,0.0,13.0,1.0,27.0,1.0,366.392117208,,,,,,,,,366.384552333,366.4828901249999,367.274803958,367.26676320799993,367.267275083,367.274803958,367.274803958,367.274803958,,369.050857166,,,,,,,,,,,,,,,,,,,,,,,,,,,,,,left,0.0,1.7708085829999618,,,,,sub-140,1,random_dot,119.8938340099728,
right,right,28.0,0.0,14.0,right,1.0,1.1965526250000948,,accuracy,space,16.603114667,,,,,,0.0,1.0,1.0,0.0,14.0,0.0,28.0,1.0,369.058471416,,,,,,,,,369.05126999999993,369.399579875,370.191898833,370.183702625,370.184243458,370.191898833,370.191898833,370.191898833,,371.391195041,,,,,,,,,,,,,,,,,,,,,,,,,,,,,,right,1.0,1.1965526250000948,,,,,sub-140,1,random_dot,119.8938340099728,
left,left,29.0,1.0,14.0,left,1.0,0.8812725829999408,,accuracy,space,16.603114667,,,,,,0.0,1.0,1.0,0.0,14.0,1.0,29.0,0.0,371.3992197079999,,,,,,,,,371.3915919159999,371.74014575,372.541275208,372.533760916,372.534231083,372.541275208,372.541275208,372.541275208,,373.424978958,,,,,,,,,,,,,,,,,,,,,,,,,,,,,,left,1.0,0.8812725829999408,,,,,sub-140,1,random_dot,119.8938340099728,
right,right,30.0,0.0,15.0,right,1.0,1.3262670000000298,,accuracy,space,16.603114667,,,,,,0.0,1.0,1.0,0.0,15.0,0.0,30.0,1.0,373.43263925,,,,,,,,,373.425371833,373.773835166,374.575329583,374.567208416,374.567644416,374.575329583,374.575329583,374.575329583,,375.907906958,,,,,,,,,,,,,,,,,,,,,,,,,,,,,,right,1.0,1.3262670000000298,,,,,sub-140,1,random_dot,119.8938340099728,
left,left,31.0,1.0,15.0,right,0.0,1.1361654580000504,,accuracy,space,16.603114667,,,,,,0.0,1.0,1.0,0.0,15.0,1.0,31.0,0.0,375.915861791,,,,,,,,,375.908323541,376.006117291,376.799246458,376.78900775,376.7894249579999,376.799246458,376.799246458,376.799246458,,377.941369833,,,,,,,,,,,,,,,,,,,,,,,,,,,,,,right,0.0,1.1361654580000504,,,,,sub-140,1,random_dot,119.8938340099728,
right,right,32.0,0.0,16.0,left,0.0,1.0415447920000815,,accuracy,space,16.603114667,,,,,,0.0,1.0,1.0,0.0,16.0,0.0,32.0,1.0,377.949609791,,,,,,,,,377.941768458,378.289328125,379.082921166,379.073550458,379.074073041,379.082921166,379.082921166,379.082921166,,380.134349625,,,,,,,,,,,,,,,,,,,,,,,,,,,,,,left,0.0,1.0415447920000815,,,,,sub-140,1,random_dot,119.8938340099728,
left,left,33.0,1.0,16.0,right,0.0,0.646938041999988,,accuracy,space,16.603114667,,,,,,0.0,1.0,1.0,0.0,16.0,1.0,33.0,0.0,380.142749583,,,,,,,,,380.13477245799993,380.93296675,381.725777041,381.717362416,381.717897416,381.725777041,381.725777041,381.725777041,,382.375082625,,,,,,,,,,,,,,,,,,,,,,,,,,,,,,right,0.0,0.646938041999988,,,,,sub-140,1,random_dot,119.8938340099728,
left,left,34.0,0.0,17.0,right,0.0,1.8050494170000773,,accuracy,space,16.603114667,,,,,,0.0,1.0,1.0,0.0,17.0,0.0,34.0,0.0,382.383606333,,,,,,,,,382.3754809999999,382.473513166,383.275658291,383.267441958,383.267908458,383.275658291,383.275658291,383.275658291,,385.084562458,,,,,,,,,,,,,,,,,,,,,,,,,,,,,,right,0.0,1.8050494170000773,,,,,sub-140,1,random_dot,119.8938340099728,
right,right,35.0,1.0,17.0,right,1.0,1.3713710829999854,,accuracy,space,16.603114667,,,,,,0.0,1.0,1.0,0.0,17.0,1.0,35.0,1.0,385.090187125,,,,,,,,,385.084957791,385.88305274999993,386.67529,386.667252958,386.667710666,386.67529,386.67529,386.67529,,388.051193125,,,,,,,,,,,,,,,,,,,,,,,,,,,,,,right,1.0,1.3713710829999854,,,,,sub-140,1,random_dot,119.8938340099728,
left,left,36.0,0.0,18.0,right,0.0,1.0777507079999396,,accuracy,space,16.603114667,,,,,,0.0,1.0,1.0,0.0,18.0,0.0,36.0,0.0,388.0570447079999,,,,,,,,,388.051586833,389.240321833,390.03256375,390.024270208,390.024747416,390.03256375,390.03256375,390.03256375,,391.11807954099993,,,,,,,,,,,,,,,,,,,,,,,,,,,,,,right,0.0,1.0777507079999396,,,,,sub-140,1,random_dot,119.8938340099728,
right,right,37.0,1.0,18.0,left,0.0,0.7916398749999871,,accuracy,space,16.603114667,,,,,,0.0,1.0,1.0,0.0,18.0,1.0,37.0,1.0,391.126258208,,,,,,,,,391.11848325,391.466772875,392.258598625,392.250783958,392.251341291,392.258598625,392.258598625,392.258598625,,393.052434791,,,,,,,,,,,,,,,,,,,,,,,,,,,,,,left,0.0,0.7916398749999871,,,,,sub-140,1,random_dot,119.8938340099728,
right,right,38.0,0.0,19.0,left,0.0,1.690448292000042,,accuracy,space,16.603114667,,,,,,0.0,1.0,1.0,0.0,19.0,0.0,38.0,1.0,393.058139541,,,,,,,,,393.0528557079999,394.250184,395.042807041,395.034473083,395.0350304159999,395.042807041,395.042807041,395.042807041,,396.7359365,,,,,,,,,,,,,,,,,,,,,,,,,,,,,,left,0.0,1.690448292000042,,,,,sub-140,1,random_dot,119.8938340099728,
left,left,39.0,1.0,19.0,left,1.0,0.8409835830000247,,accuracy,space,16.603114667,,,,,,0.0,1.0,1.0,0.0,19.0,1.0,39.0,0.0,396.742203333,,,,,,,,,396.73649816599993,397.533485583,398.32611125,398.317738708,398.318355166,398.32611125,398.32611125,398.32611125,,399.169694791,,,,,,,,,,,,,,,,,,,,,,,,,,,,,,left,1.0,0.8409835830000247,,,,,sub-140,1,random_dot,119.8938340099728,
left,left,40.0,0.0,20.0,right,0.0,1.099329541999964,,accuracy,space,16.603114667,,,,,,0.0,1.0,1.0,0.0,20.0,0.0,40.0,0.0,399.178070458,,,,,,,,,399.170116208,399.266803125,400.058991916,400.051062958,400.05157558299993,400.058991916,400.058991916,400.058991916,,401.168099875,,,,,,,,,,,,,,,,,,,,,,,,,,,,,,right,0.0,1.099329541999964,,,,,sub-140,1,random_dot,119.8938340099728,
right,right,41.0,1.0,20.0,left,0.0,1.606511208000029,,accuracy,space,16.603114667,,,,,,0.0,1.0,1.0,0.0,20.0,1.0,41.0,1.0,401.1763888329999,,,,,,,,,401.168528583,401.25745329099993,402.049105875,402.041004458,402.04143825,402.049105875,402.049105875,402.049105875,,403.6582969159999,,,,,,,,,,,,,,,,,,,,,,,,,,,,,,left,0.0,1.606511208000029,,,,,sub-140,1,random_dot,119.8938340099728,
left,left,42.0,0.0,21.0,left,1.0,1.6080062500000167,,accuracy,space,16.603114667,,,,,,0.0,1.0,1.0,0.0,21.0,0.0,42.0,0.0,403.666517375,,,,,,,,,403.658693416,404.00689987499993,404.809698125,404.8011275,404.801597375,404.809698125,404.809698125,404.809698125,,406.425566791,,,,,,,,,,,,,,,,,,,,,,,,,,,,,,left,1.0,1.6080062500000167,,,,,sub-140,1,random_dot,119.8938340099728,
right,right,43.0,1.0,21.0,left,0.0,1.717256708999912,,accuracy,space,16.603114667,,,,,,0.0,1.0,1.0,0.0,21.0,1.0,43.0,1.0,406.43340649999993,,,,,,,,,406.42596037499993,406.773389125,407.566720583,407.556539625,407.557024375,407.566720583,407.566720583,407.566720583,,409.296007916,,,,,,,,,,,,,,,,,,,,,,,,,,,,,,left,0.0,1.717256708999912,,,,,sub-140,1,random_dot,119.8938340099728,
left,left,44.0,0.0,22.0,left,1.0,1.2133847500000456,,accuracy,space,16.603114667,,,,,,0.0,1.0,1.0,0.0,22.0,0.0,44.0,0.0,409.302168583,,,,,,,,,409.296411041,410.090288625,410.892696541,410.884677,410.885167458,410.892696541,410.892696541,410.892696541,,412.108549583,,,,,,,,,,,,,,,,,,,,,,,,,,,,,,left,1.0,1.2133847500000456,,,,,sub-140,1,random_dot,119.8938340099728,
right,right,45.0,1.0,22.0,right,1.0,1.0082575410000345,,accuracy,space,16.603114667,,,,,,0.0,1.0,1.0,0.0,22.0,1.0,45.0,1.0,412.116867375,,,,,,,,,412.10895775,412.907555291,413.7094989579999,413.701452291,413.701960916,413.7094989579999,413.7094989579999,413.7094989579999,,414.72554004099993,,,,,,,,,,,,,,,,,,,,,,,,,,,,,,right,1.0,1.0082575410000345,,,,,sub-140,1,random_dot,119.8938340099728,
left,left,46.0,0.0,23.0,right,0.0,0.9615454589999216,,accuracy,space,16.603114667,,,,,,0.0,1.0,1.0,0.0,23.0,0.0,46.0,0.0,414.733534916,,,,,,,,,414.725929333,415.524286083,416.326222583,416.318114625,416.318565125,416.326222583,416.326222583,416.326222583,,417.2923035,,,,,,,,,,,,,,,,,,,,,,,,,,,,,,right,0.0,0.9615454589999216,,,,,sub-140,1,random_dot,119.8938340099728,
right,right,47.0,1.0,23.0,right,1.0,3.6888263749999615,,accuracy,space,16.603114667,,,,,,0.0,1.0,1.0,0.0,23.0,1.0,47.0,1.0,417.300316541,,,,,,,,,417.2927119579999,417.640234416,418.433128708,418.424484541,418.424939333,418.433128708,418.433128708,418.433128708,,422.125713625,,,,,,,,,,,,,,,,,,,,,,,,,,,,,,right,1.0,3.6888263749999615,,,,,sub-140,1,random_dot,119.8938340099728,
right,right,48.0,0.0,24.0,right,1.0,1.691149375000009,,accuracy,space,16.603114667,,,,,,0.0,1.0,1.0,0.0,24.0,0.0,48.0,1.0,422.133656,,,,,,,,,422.1261250829999,422.474150041,423.27651525,423.268085041,423.268548208,423.27651525,423.27651525,423.27651525,,424.976839083,,,,,,,,,,,,,,,,,,,,,,,,,,,,,,right,1.0,1.691149375000009,,,,,sub-140,1,random_dot,119.8938340099728,
left,left,49.0,1.0,24.0,left,1.0,1.1332165000000032,,accuracy,space,16.603114667,,,,,,0.0,1.0,1.0,0.0,24.0,1.0,49.0,0.0,425.000564041,,,,,,,,,424.977224958,425.3244935409999,426.126952375,426.118658666,426.1192448329999,426.126952375,426.126952375,426.126952375,,427.268736708,,,,,,,,,,,,,,,,,,,,,,,,,,,,,,left,1.0,1.1332165000000032,,,,,sub-140,1,random_dot,119.8938340099728,
left,left,50.0,0.0,25.0,right,0.0,1.4637194590000036,,accuracy,space,16.603114667,,,,,,0.0,1.0,1.0,0.0,25.0,0.0,50.0,0.0,427.276919916,,,,,,,,,427.269140166,427.6076419159999,428.409669583,428.4017118329999,428.402245916,428.409669583,428.409669583,428.409669583,,429.8761092909999,,,,,,,,,,,,,,,,,,,,,,,,,,,,,,right,0.0,1.4637194590000036,,,,,sub-140,1,random_dot,119.8938340099728,
right,right,51.0,1.0,25.0,left,0.0,0.9692533340000864,,accuracy,space,16.603114667,,,,,,0.0,1.0,1.0,0.0,25.0,1.0,51.0,1.0,429.88385870799993,,,,,,,,,429.87652070799993,430.673971375,431.476477708,431.468535458,431.46903354099993,431.476477708,431.476477708,431.476477708,,432.452424208,,,,,,,,,,,,,,,,,,,,,,,,,,,,,,left,0.0,0.9692533340000864,,,,,sub-140,1,random_dot,119.8938340099728,
right,right,52.0,0.0,26.0,left,0.0,1.4516390829999182,,accuracy,space,16.603114667,,,,,,0.0,1.0,1.0,0.0,26.0,0.0,52.0,1.0,432.460512166,,,,,,,,,432.452848791,432.8008921659999,433.59355970799993,433.58539925,433.585919041,433.59355970799993,433.59355970799993,433.59355970799993,,435.05237887499993,,,,,,,,,,,,,,,,,,,,,,,,,,,,,,left,0.0,1.4516390829999182,,,,,sub-140,1,random_dot,119.8938340099728,
left,left,53.0,1.0,26.0,left,1.0,1.1918595409999853,,accuracy,space,16.603114667,,,,,,0.0,1.0,1.0,0.0,26.0,1.0,53.0,0.0,435.060600083,,,,,,,,,435.052797583,435.8514735,436.643259291,436.635210166,436.635775833,436.643259291,436.643259291,436.643259291,,437.84243237499993,,,,,,,,,,,,,,,,,,,,,,,,,,,,,,left,1.0,1.1918595409999853,,,,,sub-140,1,random_dot,119.8938340099728,
left,left,54.0,0.0,27.0,right,0.0,1.3725802499999418,,accuracy,space,16.603114667,,,,,,0.0,1.0,1.0,0.0,27.0,0.0,54.0,0.0,437.85049575,,,,,,,,,437.842855291,437.940054083,438.734113291,438.723824083,438.724345666,438.734113291,438.734113291,438.734113291,,440.109580583,,,,,,,,,,,,,,,,,,,,,,,,,,,,,,right,0.0,1.3725802499999418,,,,,sub-140,1,random_dot,119.8938340099728,
right,right,55.0,1.0,27.0,left,0.0,0.5287269159999823,,accuracy,space,16.603114667,,,,,,0.0,1.0,1.0,0.0,27.0,1.0,55.0,1.0,440.117358791,,,,,,,,,440.109982666,440.457008041,441.250838583,441.241588666,441.242037416,441.250838583,441.250838583,441.250838583,,441.78584675,,,,,,,,,,,,,,,,,,,,,,,,,,,,,,left,0.0,0.5287269159999823,,,,,sub-140,1,random_dot,119.8938340099728,
left,left,56.0,0.0,28.0,right,0.0,0.8824068330000046,,accuracy,space,16.603114667,,,,,,0.0,1.0,1.0,0.0,28.0,0.0,56.0,0.0,441.793943916,,,,,,,,,441.7862601659999,442.575025708,443.376458958,443.3687044999999,443.369174375,443.376458958,443.376458958,443.376458958,,444.285531875,,,,,,,,,,,,,,,,,,,,,,,,,,,,,,right,0.0,0.8824068330000046,,,,,sub-140,1,random_dot,119.8938340099728,
right,right,57.0,1.0,28.0,left,0.0,0.6859650420000207,,accuracy,space,16.603114667,,,,,,0.0,1.0,1.0,0.0,28.0,1.0,57.0,1.0,444.301543875,,,,,,,,,444.286030083,445.07449995799993,445.8670945829999,445.858032875,445.858510541,445.8670945829999,445.8670945829999,445.8670945829999,,446.55961525,,,,,,,,,,,,,,,,,,,,,,,,,,,,,,left,0.0,0.6859650420000207,,,,,sub-140,1,random_dot,119.8938340099728,
right,right,58.0,0.0,29.0,left,0.0,1.828962625000031,,accuracy,space,16.603114667,,,,,,0.0,1.0,1.0,0.0,29.0,0.0,58.0,1.0,446.5675715,,,,,,,,,446.560008208,446.908385958,447.710328166,447.702103791,447.702602416,447.710328166,447.710328166,447.710328166,,449.542882875,,,,,,,,,,,,,,,,,,,,,,,,,,,,,,left,0.0,1.828962625000031,,,,,sub-140,1,random_dot,119.8938340099728,
left,left,59.0,1.0,29.0,right,0.0,0.8422379169999203,,accuracy,space,16.603114667,,,,,,0.0,1.0,1.0,0.0,29.0,1.0,59.0,0.0,449.551018541,,,,,,,,,449.543296333,450.741588416,451.542338416,451.535074541,451.535544791,451.542338416,451.542338416,451.542338416,,452.386640583,,,,,,,,,,,,,,,,,,,,,,,,,,,,,,right,0.0,0.8422379169999203,,,,,sub-140,1,random_dot,119.8938340099728,
,,1.0,1.0,0.0,,,,,accuracy,space,16.603114667,,,,,,0.0,1.0,1.0,0.0,,,,,,,,,,,,,,,,,,,,,,,,,,,,,,,,,,,,,,,,,,,,,,,,,,,,,,,,,,,,sub-140,1,random_dot,119.8938340099728,
,,,,,,,,,,,,,,,,,,,,,,,,,,,,,,,,,,,,,,,,,,,,,,,,,,,,,,,,,,,,,,,,,,,,,,,,,,,,,452.39645024999993,452.405847,457.390834375,sub-140,1,random_dot,119.8938340099728,
