direction,corrAns,thisN,thisTrialN,thisRepN,respDots.keys,respDots.corr,respDots.rt,respDots.duration,randomInstr,respRandomInstr.keys,respRandomInstr.rt,respRandomInstr.duration,practice_trials.thisRepN,practice_trials.thisTrialN,practice_trials.thisN,practice_trials.thisIndex,instr_trials.thisRepN,instr_trials.thisTrialN,instr_trials.thisN,instr_trials.thisIndex,test_trials.thisRepN,test_trials.thisTrialN,test_trials.thisN,test_trials.thisIndex,thisRow.t,notes,general_instruction.started,textGeneralInstr.started,respGeneralInstr.started,general_instruction.stopped,respGeneralInstr.keys,respGeneralInstr.rt,respGeneralInstr.duration,ITI.started,fixcross.started,fixcross.stopped,ITI.stopped,dots.started,backgroundDots.started,stimulusDots.started,respDots.started,dots.stopped,practice_trials.respDots.keys,practice_trials.respDots.corr,practice_trials.respDots.rt,practice_trials.respDots.duration,feedback.started,textFeedback.started,feedback.stopped,textFeedback.stopped,stimulusDots.stopped,info.started,textInfo.started,keyRespInfo.started,info.stopped,keyRespInfo.keys,keyRespInfo.rt,keyRespInfo.duration,test_instruction.started,textTestInstr.started,respTestInstr.started,test_instruction.stopped,respTestInstr.keys,respTestInstr.rt,respTestInstr.duration,random_instruction.started,textRandomInstr.started,respRandomInstr.started,random_instruction.stopped,instr_trials.respRandomInstr.keys,instr_trials.respRandomInstr.rt,instr_trials.respRandomInstr.duration,test_trials.respDots.keys,test_trials.respDots.corr,test_trials.respDots.rt,test_trials.respDots.duration,goodbye.started,textGoodbye.started,goodbye.stopped,participant,session,expName,frameRate,Unnamed: 87
,,,,,,,,,,,,,,,,,,,,,,,,,,,0.0130618330003926,0.0215118749983957,0.0215118749983957,73.02167508300045,space,72.97429275000104,,,,,,,,,,,,,,,,,,,,,,,,,,,,,,,,,,,,,,,,,,,,,,,,sub-121,1,random_dot,121.704656271785,
right,right,0.0,0.0,0.0,right,1.0,3.783707416998368,,,,,,0.0,0.0,0.0,1.0,,,,,,,,,73.05232987499767,,,,,,,,,73.03617845799818,73.11965095800042,73.9256344159985,73.90802004099896,73.90849829099898,73.9256344159985,73.9256344159985,73.9256344159985,77.71738941600051,right,1.0,3.783707416998368,,77.73138783299873,77.74515779099966,78.22233812500053,,,,,,,,,,,,,,,,,,,,,,,,,,,,,,,sub-121,1,random_dot,121.704656271785,
left,left,1.0,1.0,0.0,left,1.0,2.830647667000449,,,,,,0.0,1.0,1.0,0.0,,,,,,,,,78.23164337499838,,,,,,,,,78.22288145799757,79.41098516599959,80.21415424999941,80.20120820800003,80.20206479099943,80.21415424999941,80.21415424999941,80.21415424999941,83.05171045799943,left,1.0,2.830647667000449,,83.05197699999917,83.06448091600032,83.54904449999958,83.55552783299936,,,,,,,,,,,,,,,,,,,,,,,,,,,,,,sub-121,1,random_dot,121.704656271785,
right,right,2.0,0.0,1.0,right,1.0,0.9924193330007256,,,,,,1.0,0.0,2.0,1.0,,,,,,,,,83.55552783299936,,,,,,,,,83.54940104100024,84.38233362499886,85.17482654099877,85.16632637499788,85.16673804099992,85.17482654099877,85.17482654099877,85.17482654099877,86.17534283299756,right,1.0,0.9924193330007256,,86.17545450000034,86.1866303329989,86.6728169579983,86.68201708299966,,,,,,,,,,,,,,,,,,,,,,,,,,,,,,sub-121,1,random_dot,121.704656271785,
left,left,3.0,1.0,1.0,left,1.0,12.998815875002038,,,,,,1.0,1.0,3.0,0.0,,,,,,,,,86.68201708299966,,,,,,,,,86.673224457998,87.87280533299781,88.66635166599735,88.65716408299704,88.65764149999814,88.66635166599735,88.66635166599735,88.66635166599735,101.67063316599888,left,1.0,12.998815875002038,,101.67078416599908,101.6843682079998,102.1714373750001,,93.65696020799804,,,,,,,,,,,,,,,,,,,,,,,,,,,,,sub-121,1,random_dot,121.704656271785,
left,left,4.0,0.0,2.0,left,1.0,3.995048290998966,,,,,,2.0,0.0,4.0,0.0,,,,,,,,,102.182374041,,,,,,,,,102.17195404099766,102.96584279099989,103.75896808299876,103.74998729099752,103.75046279099844,103.75896808299876,103.75896808299876,103.75896808299876,107.76933624999948,left,1.0,3.995048290998966,,107.7694826659972,107.78114620799896,108.2664942909978,108.27292875000056,,,,,,,,,,,,,,,,,,,,,,,,,,,,,,sub-121,1,random_dot,121.704656271785,
right,right,5.0,1.0,2.0,left,0.0,1.4952346659993054,,,,,,2.0,1.0,5.0,1.0,,,,,,,,,108.27292875000056,,,,,,,,,108.267012332999,109.46571508299894,110.27302741599853,110.25568570799804,110.25617124999916,110.27302741599853,110.27302741599853,110.27302741599853,111.78517341599944,left,0.0,1.4952346659993054,,111.79334091599958,111.80445258299731,112.28738091599736,,,,,,,,,,,,,,,,,,,,,,,,,,,,,,,sub-121,1,random_dot,121.704656271785,
right,right,6.0,0.0,3.0,left,0.0,1.408847708000394,,,,,,3.0,0.0,6.0,1.0,,,,,,,,,112.2990848749978,,,,,,,,,112.28786099999706,112.38247370799944,113.174402790999,113.16605279099896,113.16651787499724,113.174402790999,113.174402790999,113.174402790999,114.58832541599986,left,0.0,1.408847708000394,,114.58843358299782,114.601434082997,115.089274957998,,,,,,,,,,,,,,,,,,,,,,,,,,,,,,,sub-121,1,random_dot,121.704656271785,
left,left,7.0,1.0,3.0,left,1.0,1.856413417001022,,,,,,3.0,1.0,7.0,0.0,,,,,,,,,115.09974216599949,,,,,,,,,115.08978604100048,115.43175187499946,116.22558358300012,116.21638904099746,116.216853832997,116.22558358300012,116.22558358300012,116.22558358300012,118.08694845799982,left,1.0,1.856413417001022,,118.09492770799989,118.10792924999988,118.58863099999871,,,,,,,,,,,,,,,,,,,,,,,,,,,,,,,sub-121,1,random_dot,121.704656271785,
right,right,8.0,0.0,4.0,right,1.0,1.796481583001878,,,,,,4.0,0.0,8.0,1.0,,,,,,,,,118.59911970800022,,,,,,,,,118.58913599999867,118.68144933299844,119.47535133299972,119.46632224999848,119.46681204099878,119.47535133299972,119.47535133299972,119.47535133299972,121.28403875000004,right,1.0,1.796481583001878,,121.28418975000022,121.29906899999696,121.78232416599712,121.78748583299966,,,,,,,,,,,,,,,,,,,,,,,,,,,,,,sub-121,1,random_dot,121.704656271785,
left,left,9.0,1.0,4.0,right,0.0,0.9655265410001448,,,,,,4.0,1.0,9.0,0.0,,,,,,,,,121.78748583299966,,,,,,,,,121.78279983299944,122.13142158299888,122.9259684159988,122.91665400000056,122.91721362499813,122.9259684159988,122.9259684159988,122.9259684159988,123.89437241599808,right,0.0,0.9655265410001448,,123.90046916599748,123.913180790998,124.39833774999715,,,,,,,,,,,,,,,,,,,,,,,,,,,,,,,sub-121,1,random_dot,121.704656271785,
left,left,10.0,0.0,5.0,right,0.0,0.8466627920024621,,,,,,5.0,0.0,10.0,0.0,,,,,,,,,124.40486804099784,,,,,,,,,124.3988324159982,125.59258662499995,126.39475362499796,126.3857635409986,126.38631791599984,126.39475362499796,126.39475362499796,126.39475362499796,127.24478325000018,right,0.0,0.8466627920024621,,127.24501145799876,127.25621424999918,127.74987858299936,,,,,,,,,,,,,,,,,,,,,,,,,,,,,,,sub-121,1,random_dot,121.704656271785,
right,right,11.0,1.0,5.0,left,0.0,0.7414741249995132,,,,,,5.0,1.0,11.0,1.0,,,,,,,,,127.75608262499736,,,,,,,,,127.75029716599964,128.93978604099902,129.73209120799947,129.72354870799973,129.72401129100035,129.73209120799947,129.73209120799947,129.73209120799947,130.48703554099848,left,0.0,0.7414741249995132,,130.48721554099757,130.50077962499927,130.98999533299866,,,,,,,,,,,,,,,,,,,,,,,,,,,,,,,sub-121,1,random_dot,121.704656271785,
right,right,12.0,0.0,6.0,left,0.0,0.3325782909996633,,,,,,6.0,0.0,12.0,1.0,,,,,,,,,130.99807999999757,,,,,,,,,130.99050745799832,131.33243558299728,132.12515529099983,132.1157817079984,132.11627895799757,132.12515529099983,132.12515529099983,132.12515529099983,132.46609974999956,left,0.0,0.3325782909996633,,132.46620512499794,132.4743522079989,132.96645154100042,132.97270408300028,,,,,,,,,,,,,,,,,,,,,,,,,,,,,,sub-121,1,random_dot,121.704656271785,
left,left,13.0,1.0,6.0,left,1.0,1.730963582998811,,,,,,6.0,1.0,13.0,0.0,,,,,,,,,132.97270408300028,,,,,,,,,132.96685579099722,133.05626104099792,133.8588709579999,133.8498753749991,133.85034320799969,133.8588709579999,133.8588709579999,133.8588709579999,135.60382762500012,left,1.0,1.730963582998811,,135.60665358299957,135.6191278749975,136.10612941599902,,,,,,,,,,,,,,,,,,,,,,,,,,,,,,,sub-121,1,random_dot,121.704656271785,
left,left,14.0,0.0,7.0,right,0.0,0.8929319580020092,,,,,,7.0,0.0,14.0,0.0,,,,,,,,,136.11517287499737,,,,,,,,,136.10661616599828,136.44834662499852,137.24175304099845,137.2329941249991,137.2334732499985,137.24175304099845,137.24175304099845,137.24175304099845,138.1448570829998,right,0.0,0.8929319580020092,,138.15109291599947,138.17219341599775,138.64909854099824,,,,,,,,,,,,,,,,,,,,,,,,,,,,,,,sub-121,1,random_dot,121.704656271785,
right,right,15.0,1.0,7.0,left,0.0,0.3371521670014772,,,,,,7.0,1.0,15.0,1.0,,,,,,,,,138.6549703749988,,,,,,,,,138.64951183299854,139.43967962500028,140.2407922909988,140.23263616599797,140.23312529099712,140.2407922909988,140.2407922909988,140.2407922909988,140.5835257079998,left,0.0,0.3371521670014772,,140.58363229099996,140.59201679099715,141.08314337499905,141.08921333299804,,,,,,,,,,,,,,,,,,,,,,,,,,,,,,sub-121,1,random_dot,121.704656271785,
left,left,16.0,0.0,8.0,left,1.0,0.3080184579994238,,,,,,8.0,0.0,16.0,0.0,,,,,,,,,141.08921333299804,,,,,,,,,141.08354212499762,142.28245058299945,143.07583512499696,143.06659241599846,143.06708558299945,143.07583512499696,143.07583512499696,143.07583512499696,143.39136437499835,left,1.0,0.3080184579994238,,143.394654290998,143.40304304099843,143.88951237499714,143.89854558299703,,,,,,,,,,,,,,,,,,,,,,,,,,,,,,sub-121,1,random_dot,121.704656271785,
right,right,17.0,1.0,8.0,right,1.0,1.035224166997068,,,,,,8.0,1.0,17.0,1.0,,,,,,,,,143.89854558299703,,,,,,,,,143.88990254099917,143.98960537499806,144.78149708300043,144.77276862500003,144.77322974999697,144.78149708300043,144.78149708300043,144.78149708300043,145.81881854099993,right,1.0,1.035224166997068,,145.81892341599814,145.82687412499945,146.31655133299864,146.32272454099802,,,,,,,,,,,,,,,,,,,,,,,,,,,,,,sub-121,1,random_dot,121.704656271785,
left,left,18.0,0.0,9.0,right,0.0,1.4225434159998258,,,,,,9.0,0.0,18.0,0.0,,,,,,,,,146.32272454099802,,,,,,,,,146.31695874999787,147.11590191600044,147.9103593330001,147.9001833330003,147.90078891599842,147.9103593330001,147.9103593330001,147.9103593330001,149.3350381249984,right,0.0,1.4225434159998258,,149.33803166600046,149.3465657079978,149.8331467909993,149.83936541599903,,,,,,,,,,,,,,,,,,,,,,,,,,,,,,sub-121,1,random_dot,121.704656271785,
right,right,19.0,1.0,9.0,right,1.0,0.7104707919970679,,,,,,9.0,1.0,19.0,1.0,,,,,,,,,149.83936541599903,,,,,,,,,149.83357024999714,150.6324200409981,151.42570729100044,151.41636624999956,151.41697291599849,151.42570729100044,151.42570729100044,151.42570729100044,152.14095870799792,right,1.0,0.7104707919970679,,152.14414029099862,152.15541012500034,152.63976541599914,152.64830687499853,,,,,,,,,,,,,,,,,,,,,,,,,,,,,,sub-121,1,random_dot,121.704656271785,
,,,,,,,,,,,,,,,,,,,,,,,,,,,,,,,,,,,,,,,,,,,,,,,,,,,,152.63992991600026,152.64830687499853,152.64830687499853,162.2753727499985,space,9.624251790999551,,,,,,,,,,,,,,,,,,,,,,,sub-121,1,random_dot,121.704656271785,
,,,,,,,,,,,,,,,,,,,,,,,,,,,,,,,,,,,,,,,,,,,,,,,,,,,,,,,,,,,162.27548754099917,162.2889655830004,162.2889655830004,165.17852299999868,space,2.883603332997154,,,,,,,,,,,,,,,,sub-121,1,random_dot,121.704656271785,
right,right,0.0,0.0,0.0,left,0.0,1.5067246250000608,,accuracy,space,2.53055970800051,,,,,,0.0,0.0,0.0,0.0,0.0,0.0,0.0,1.0,167.7570994579983,,,,,,,,,167.74930349999704,168.94024316599825,169.7423227500003,169.7331099999974,169.733622249998,169.7423227500003,169.7423227500003,169.7423227500003,171.25335358299708,,,,,,,,,,,,,,,,,,,,,,,,165.1971665409983,165.2060185829978,165.2060185829978,167.7410605829973,space,2.53055970800051,,left,0.0,1.5067246250000608,,,,,sub-121,1,random_dot,121.704656271785,
left,left,1.0,1.0,0.0,right,0.0,1.0759795829981158,,accuracy,space,2.53055970800051,,,,,,0.0,0.0,0.0,0.0,0.0,1.0,1.0,0.0,171.26653020799858,,,,,,,,,171.25394833300015,171.34894204100056,172.14209933299935,172.13306470799944,172.13353787499727,172.14209933299935,172.14209933299935,172.14209933299935,173.2237349579991,,,,,,,,,,,,,,,,,,,,,,,,,,,,,,,right,0.0,1.0759795829981158,,,,,sub-121,1,random_dot,121.704656271785,
right,right,2.0,0.0,1.0,right,1.0,1.8250951250010985,,accuracy,space,2.53055970800051,,,,,,0.0,0.0,0.0,0.0,1.0,0.0,2.0,1.0,173.23626504099957,,,,,,,,,173.22409458299808,174.42289766599788,175.215004665999,175.20650516599926,175.20696341599978,175.215004665999,175.215004665999,175.215004665999,177.05034941600024,,,,,,,,,,,,,,,,,,,,,,,,,,,,,,,right,1.0,1.8250951250010985,,,,,sub-121,1,random_dot,121.704656271785,
left,left,3.0,1.0,1.0,left,1.0,1.6466872499986491,,accuracy,space,2.53055970800051,,,,,,0.0,0.0,0.0,0.0,1.0,1.0,3.0,0.0,177.05858270799945,,,,,,,,,177.05079287499757,177.14914566600055,177.94275308299984,177.93345116599812,177.93402633299775,177.94275308299984,177.94275308299984,177.94275308299984,179.59112770799766,,,,,,,,,,,,,,,,,,,,,,,,,,,,,,,left,1.0,1.6466872499986491,,,,,sub-121,1,random_dot,121.704656271785,
left,left,4.0,0.0,2.0,right,0.0,1.3965323340016766,,accuracy,space,2.53055970800051,,,,,,0.0,0.0,0.0,0.0,2.0,0.0,4.0,0.0,179.60120979099884,,,,,,,,,179.59148066600028,180.78988841599855,181.59273737499825,181.58328470799825,181.58387437499917,181.59273737499825,181.59273737499825,181.59273737499825,183.00503249999747,,,,,,,,,,,,,,,,,,,,,,,,,,,,,,,right,0.0,1.3965323340016766,,,,,sub-121,1,random_dot,121.704656271785,
right,right,5.0,1.0,2.0,left,0.0,2.2437708750003367,,accuracy,space,2.53055970800051,,,,,,0.0,0.0,0.0,0.0,2.0,1.0,5.0,1.0,183.0177598329974,,,,,,,,,183.0054112079997,183.8038998329976,184.60189683299905,184.59060612499889,184.59122012499935,184.60189683299905,184.60189683299905,184.60189683299905,186.856680957997,,,,,,,,,,,,,,,,,,,,,,,,,,,,,,,left,0.0,2.2437708750003367,,,,,sub-121,1,random_dot,121.704656271785,
right,right,6.0,0.0,3.0,right,1.0,1.734981958001299,,accuracy,space,2.53055970800051,,,,,,0.0,0.0,0.0,0.0,3.0,0.0,6.0,1.0,186.8714535830004,,,,,,,,,186.85769837499905,187.1982701249981,187.99419012499857,187.9838982500005,187.9844952909989,187.99419012499857,187.99419012499857,187.99419012499857,189.73527929099876,,,,,,,,,,,,,,,,,,,,,,,,,,,,,,,right,1.0,1.734981958001299,,,,,sub-121,1,random_dot,121.704656271785,
left,left,7.0,1.0,3.0,left,1.0,1.7973359159987012,,accuracy,space,2.53055970800051,,,,,,0.0,0.0,0.0,0.0,3.0,1.0,7.0,0.0,189.7462304999972,,,,,,,,,189.73600583299776,190.93219366599808,191.7258484999984,191.71644583299712,191.7169414999989,191.7258484999984,191.7258484999984,191.7258484999984,193.53276320799705,,,,,,,,,,,,,,,,,,,,,,,,,,,,,,,left,1.0,1.7973359159987012,,,,,sub-121,1,random_dot,121.704656271785,
right,right,8.0,0.0,4.0,right,1.0,1.650901165998221,,accuracy,space,2.53055970800051,,,,,,0.0,0.0,0.0,0.0,4.0,0.0,8.0,1.0,193.5408937909997,,,,,,,,,193.5331367910003,194.3228559579984,195.11479424999925,195.1062046249972,195.10668258299847,195.11479424999925,195.11479424999925,195.11479424999925,196.7690792909998,,,,,,,,,,,,,,,,,,,,,,,,,,,,,,,right,1.0,1.650901165998221,,,,,sub-121,1,random_dot,121.704656271785,
left,left,9.0,1.0,4.0,right,0.0,2.1234122500027297,,accuracy,space,2.53055970800051,,,,,,0.0,0.0,0.0,0.0,4.0,1.0,9.0,0.0,196.7815352079997,,,,,,,,,196.76996037499703,196.86572225000052,197.66021229099715,197.65141608299743,197.65188195799783,197.66021229099715,197.66021229099715,197.66021229099715,199.78702733299724,,,,,,,,,,,,,,,,,,,,,,,,,,,,,,,right,0.0,2.1234122500027297,,,,,sub-121,1,random_dot,121.704656271785,
right,right,10.0,0.0,5.0,left,0.0,2.9258434580006,,accuracy,space,2.53055970800051,,,,,,0.0,0.0,0.0,0.0,5.0,0.0,10.0,1.0,199.79901108299964,,,,,,,,,199.7874978330001,199.88763783299876,200.68191004099936,200.67316812499848,200.67363004099752,200.68191004099936,200.68191004099936,200.68191004099936,203.61618745799933,,,,,,,,,,,,,,,,,,,,,,,,,,,,,,,left,0.0,2.9258434580006,,,,,sub-121,1,random_dot,121.704656271785,
left,left,11.0,1.0,5.0,left,1.0,1.2670990829974471,,accuracy,space,2.53055970800051,,,,,,0.0,0.0,0.0,0.0,5.0,1.0,11.0,0.0,203.62432029099728,,,,,,,,,203.6165573750004,204.406550124997,205.209362540998,205.1999416250001,205.2005279579971,205.209362540998,205.209362540998,205.209362540998,206.48586829099804,,,,,,,,,,,,,,,,,,,,,,,,,,,,,,,left,1.0,1.2670990829974471,,,,,sub-121,1,random_dot,121.704656271785,
left,left,12.0,0.0,6.0,right,0.0,0.8138890420013922,,accuracy,space,2.53055970800051,,,,,,0.0,0.0,0.0,0.0,6.0,0.0,12.0,0.0,206.49359137499775,,,,,,,,,206.48622254099973,207.2825229159971,208.07512066599884,208.06644762499852,208.0669054159989,208.07512066599884,208.07512066599884,208.07512066599884,208.89438412500024,,,,,,,,,,,,,,,,,,,,,,,,,,,,,,,right,0.0,0.8138890420013922,,,,,sub-121,1,random_dot,121.704656271785,
right,right,13.0,1.0,6.0,right,1.0,1.3622373750004044,,accuracy,space,2.53055970800051,,,,,,0.0,0.0,0.0,0.0,6.0,1.0,13.0,1.0,208.90299283299828,,,,,,,,,208.89475141599905,209.23957345799863,210.0314885409971,210.0229652079979,210.02342595799928,210.0314885409971,210.0314885409971,210.0314885409971,211.39745079099885,,,,,,,,,,,,,,,,,,,,,,,,,,,,,,,right,1.0,1.3622373750004044,,,,,sub-121,1,random_dot,121.704656271785,
right,right,14.0,0.0,7.0,left,0.0,1.530942583001888,,accuracy,space,2.53055970800051,,,,,,0.0,0.0,0.0,0.0,7.0,0.0,14.0,1.0,211.4074658749996,,,,,,,,,211.3982028749997,212.1891516249998,212.99178166599813,212.983048332997,212.98350358300013,212.99178166599813,212.99178166599813,212.99178166599813,214.52871670799868,,,,,,,,,,,,,,,,,,,,,,,,,,,,,,,left,0.0,1.530942583001888,,,,,sub-121,1,random_dot,121.704656271785,
left,left,15.0,1.0,7.0,right,0.0,1.5622063749979134,,accuracy,space,2.53055970800051,,,,,,0.0,0.0,0.0,0.0,7.0,1.0,15.0,0.0,214.53676070799705,,,,,,,,,214.52907058299752,215.7228544999998,216.5259414579996,216.51659245799965,216.51716604099784,216.5259414579996,216.5259414579996,216.5259414579996,218.1034916659992,,,,,,,,,,,,,,,,,,,,,,,,,,,,,,,right,0.0,1.5622063749979134,,,,,sub-121,1,random_dot,121.704656271785,
left,left,16.0,0.0,8.0,right,0.0,1.962925125000765,,accuracy,space,2.53055970800051,,,,,,0.0,0.0,0.0,0.0,8.0,0.0,16.0,0.0,218.11315408299924,,,,,,,,,218.1040436250005,219.29800416599755,220.091937833,220.08267966600036,220.08317787499985,220.091937833,220.091937833,220.091937833,222.0691303329986,,,,,,,,,,,,,,,,,,,,,,,,,,,,,,,right,0.0,1.962925125000765,,,,,sub-121,1,random_dot,121.704656271785,
right,right,17.0,1.0,8.0,right,1.0,0.9872162500032572,,accuracy,space,2.53055970800051,,,,,,0.0,0.0,0.0,0.0,8.0,1.0,17.0,1.0,222.0775607079995,,,,,,,,,222.069576124999,222.86551016599697,223.65843295800005,223.64970504099983,223.65017158299813,223.65843295800005,223.65843295800005,223.65843295800005,224.64916770799755,,,,,,,,,,,,,,,,,,,,,,,,,,,,,,,right,1.0,0.9872162500032572,,,,,sub-121,1,random_dot,121.704656271785,
right,right,18.0,0.0,9.0,left,0.0,1.1925111249984184,,accuracy,space,2.53055970800051,,,,,,0.0,0.0,0.0,0.0,9.0,0.0,18.0,1.0,224.65463887499936,,,,,,,,,224.6495294579981,224.739093958,225.53192695799956,225.52336716599893,225.5238122909977,225.53192695799956,225.53192695799956,225.53192695799956,226.7267489579972,,,,,,,,,,,,,,,,,,,,,,,,,,,,,,,left,0.0,1.1925111249984184,,,,,sub-121,1,random_dot,121.704656271785,
left,left,19.0,1.0,9.0,right,0.0,1.636683290998917,,accuracy,space,2.53055970800051,,,,,,0.0,0.0,0.0,0.0,9.0,1.0,19.0,0.0,226.73630816600053,,,,,,,,,226.7270934579974,226.8239200829994,227.6259101249998,227.61640895799792,227.617187541,227.6259101249998,227.6259101249998,227.6259101249998,229.28451395799857,,,,,,,,,,,,,,,,,,,,,,,,,,,,,,,right,0.0,1.636683290998917,,,,,sub-121,1,random_dot,121.704656271785,
left,left,20.0,0.0,10.0,left,1.0,1.3933968330020434,,accuracy,space,2.53055970800051,,,,,,0.0,0.0,0.0,0.0,10.0,0.0,20.0,0.0,229.2989380830004,,,,,,,,,229.28510495799856,229.3823167909977,230.17512287499997,230.16584745799992,230.16631049999705,230.17512287499997,230.17512287499997,230.17512287499997,231.57467891600027,,,,,,,,,,,,,,,,,,,,,,,,,,,,,,,left,1.0,1.3933968330020434,,,,,sub-121,1,random_dot,121.704656271785,
right,right,21.0,1.0,10.0,left,0.0,0.8683813749994442,,accuracy,space,2.53055970800051,,,,,,0.0,0.0,0.0,0.0,10.0,1.0,21.0,1.0,231.58476491599868,,,,,,,,,231.5751506249981,232.3728870829982,233.1651967910002,233.1563690410003,233.15681937499903,233.1651967910002,233.1651967910002,233.1651967910002,234.0356956249998,,,,,,,,,,,,,,,,,,,,,,,,,,,,,,,left,0.0,0.8683813749994442,,,,,sub-121,1,random_dot,121.704656271785,
right,right,22.0,0.0,11.0,right,1.0,1.1987420419973205,,accuracy,space,2.53055970800051,,,,,,0.0,0.0,0.0,0.0,11.0,0.0,22.0,1.0,234.0437409579972,,,,,,,,,234.0360655000004,234.3755907079976,235.174551832999,235.16563399999723,235.16608037499827,235.174551832999,235.174551832999,235.174551832999,236.3910932910003,,,,,,,,,,,,,,,,,,,,,,,,,,,,,,,right,1.0,1.1987420419973205,,,,,sub-121,1,random_dot,121.704656271785,
left,left,23.0,1.0,11.0,left,1.0,0.6826908340008231,,accuracy,space,2.53055970800051,,,,,,0.0,0.0,0.0,0.0,11.0,1.0,23.0,0.0,236.4054102499977,,,,,,,,,236.391712749999,237.5898279579997,238.39245116599704,238.38318279099985,238.38378895799903,238.39245116599704,238.39245116599704,238.39245116599704,239.08354683300055,,,,,,,,,,,,,,,,,,,,,,,,,,,,,,,left,1.0,0.6826908340008231,,,,,sub-121,1,random_dot,121.704656271785,
right,right,24.0,0.0,12.0,right,1.0,1.2150827499972363,,accuracy,space,2.53055970800051,,,,,,0.0,0.0,0.0,0.0,12.0,0.0,24.0,1.0,239.0913643749991,,,,,,,,,239.0839151250002,239.4317167079971,240.22421262499847,240.2155465830001,240.21601233299955,240.22421262499847,240.22421262499847,240.22421262499847,241.44538749999992,,,,,,,,,,,,,,,,,,,,,,,,,,,,,,,right,1.0,1.2150827499972363,,,,,sub-121,1,random_dot,121.704656271785,
left,left,25.0,1.0,12.0,left,1.0,2.4931638749985723,,accuracy,space,2.53055970800051,,,,,,0.0,0.0,0.0,0.0,12.0,1.0,25.0,0.0,241.45336999999927,,,,,,,,,241.44574445800023,242.6405234999984,243.4412642079988,243.43284491599843,243.43329362499932,243.4412642079988,243.4412642079988,243.4412642079988,245.9512935829989,,,,,,,,,,,,,,,,,,,,,,,,,,,,,,,left,1.0,2.4931638749985723,,,,,sub-121,1,random_dot,121.704656271785,
left,left,26.0,0.0,13.0,right,0.0,1.4991709169989915,,accuracy,space,2.53055970800051,,,,,,0.0,0.0,0.0,0.0,13.0,0.0,26.0,0.0,245.9646876249972,,,,,,,,,245.95206191599937,247.1515865410001,247.94883662499703,247.93953037499887,247.93991295799788,247.94883662499703,247.94883662499703,247.94883662499703,249.45021320799788,,,,,,,,,,,,,,,,,,,,,,,,,,,,,,,right,0.0,1.4991709169989915,,,,,sub-121,1,random_dot,121.704656271785,
right,right,27.0,1.0,13.0,right,1.0,1.7585243329995135,,accuracy,space,2.53055970800051,,,,,,0.0,0.0,0.0,0.0,13.0,1.0,27.0,1.0,249.45877800000017,,,,,,,,,249.4507089159997,250.2486450409997,251.0426345829983,251.03346983299707,251.0339388329994,251.0426345829983,251.0426345829983,251.0426345829983,252.8156949999975,,,,,,,,,,,,,,,,,,,,,,,,,,,,,,,right,1.0,1.7585243329995135,,,,,sub-121,1,random_dot,121.704656271785,
left,left,28.0,0.0,14.0,right,0.0,2.484248209002544,,accuracy,space,2.53055970800051,,,,,,0.0,0.0,0.0,0.0,14.0,0.0,28.0,0.0,252.8202949999977,,,,,,,,,252.8161183329976,253.15623425000013,253.9483080829996,253.93972224999743,253.94016137499784,253.9483080829996,253.9483080829996,253.9483080829996,256.44035066599827,,,,,,,,,,,,,,,,,,,,,,,,,,,,,,,right,0.0,2.484248209002544,,,,,sub-121,1,random_dot,121.704656271785,
right,right,29.0,1.0,14.0,left,0.0,0.9413190419982128,,accuracy,space,2.53055970800051,,,,,,0.0,0.0,0.0,0.0,14.0,1.0,29.0,1.0,256.4484884159974,,,,,,,,,256.44070545799696,257.23993124999834,258.0317959999993,258.0232900409974,258.0237202499993,258.0317959999993,258.0317959999993,258.0317959999993,258.9842298330004,,,,,,,,,,,,,,,,,,,,,,,,,,,,,,,left,0.0,0.9413190419982128,,,,,sub-121,1,random_dot,121.704656271785,
left,left,30.0,0.0,15.0,right,0.0,1.501845750000939,,accuracy,space,2.53055970800051,,,,,,0.0,0.0,0.0,0.0,15.0,0.0,30.0,0.0,258.99249012499786,,,,,,,,,258.9847845000004,259.7822944159998,260.57484341599775,260.565792333,260.566254333,260.57484341599775,260.57484341599775,260.57484341599775,262.0797436659996,,,,,,,,,,,,,,,,,,,,,,,,,,,,,,,right,0.0,1.501845750000939,,,,,sub-121,1,random_dot,121.704656271785,
right,right,31.0,1.0,15.0,right,1.0,0.8538114160000987,,accuracy,space,2.53055970800051,,,,,,0.0,0.0,0.0,0.0,15.0,1.0,31.0,1.0,262.0872224159976,,,,,,,,,262.08029716599776,262.42275516600057,263.21482608299993,263.206250457999,263.2066992079999,263.21482608299993,263.21482608299993,263.21482608299993,264.0751760409985,,,,,,,,,,,,,,,,,,,,,,,,,,,,,,,right,1.0,0.8538114160000987,,,,,sub-121,1,random_dot,121.704656271785,
left,left,32.0,0.0,16.0,right,0.0,1.679540957997233,,accuracy,space,2.53055970800051,,,,,,0.0,0.0,0.0,0.0,16.0,0.0,32.0,0.0,264.08666874999835,,,,,,,,,264.0757107079989,264.4265685829996,265.2241943329973,265.2154210409972,265.2158915830005,265.2241943329973,265.2241943329973,265.2241943329973,266.90667808299986,,,,,,,,,,,,,,,,,,,,,,,,,,,,,,,right,0.0,1.679540957997233,,,,,sub-121,1,random_dot,121.704656271785,
right,right,33.0,1.0,16.0,left,0.0,2.0568202909998945,,accuracy,space,2.53055970800051,,,,,,0.0,0.0,0.0,0.0,16.0,1.0,33.0,1.0,266.92116458300006,,,,,,,,,266.90702933300054,268.10661104099927,268.9083515409984,268.89920170799815,268.8996714579989,268.9083515409984,268.9083515409984,268.9083515409984,270.971913333,,,,,,,,,,,,,,,,,,,,,,,,,,,,,,,left,0.0,2.0568202909998945,,,,,sub-121,1,random_dot,121.704656271785,
left,left,34.0,0.0,17.0,left,1.0,0.6128727499999513,,accuracy,space,2.53055970800051,,,,,,0.0,0.0,0.0,0.0,17.0,0.0,34.0,0.0,270.98633962500026,,,,,,,,,270.97253295799965,271.7653944999984,272.5587646249988,272.5495823329984,272.5500677079981,272.5587646249988,272.5587646249988,272.5587646249988,273.1747292500004,,,,,,,,,,,,,,,,,,,,,,,,,,,,,,,left,1.0,0.6128727499999513,,,,,sub-121,1,random_dot,121.704656271785,
right,right,35.0,1.0,17.0,right,1.0,1.77698275000148,,accuracy,space,2.53055970800051,,,,,,0.0,0.0,0.0,0.0,17.0,1.0,35.0,1.0,273.19817299999704,,,,,,,,,273.1750720409982,273.9730094160004,274.76488270799746,274.7563393329983,274.75679008299994,274.76488270799746,274.76488270799746,274.76488270799746,276.5508330409976,,,,,,,,,,,,,,,,,,,,,,,,,,,,,,,right,1.0,1.77698275000148,,,,,sub-121,1,random_dot,121.704656271785,
left,left,36.0,0.0,18.0,right,0.0,1.2457423750020098,,accuracy,space,2.53055970800051,,,,,,0.0,0.0,0.0,0.0,18.0,0.0,36.0,0.0,276.5588652499973,,,,,,,,,276.55130458299755,277.3490137079971,278.14186312499805,278.1329946659971,278.1334589580001,278.14186312499805,278.14186312499805,278.14186312499805,279.3938652500001,,,,,,,,,,,,,,,,,,,,,,,,,,,,,,,right,0.0,1.2457423750020098,,,,,sub-121,1,random_dot,121.704656271785,
right,right,37.0,1.0,18.0,right,1.0,0.3924562909996894,,accuracy,space,2.53055970800051,,,,,,0.0,0.0,0.0,0.0,18.0,1.0,37.0,1.0,279.40339895799843,,,,,,,,,279.3942028749989,280.5899185829985,281.39224133300013,281.3830602079979,281.3835566659982,281.39224133300013,281.39224133300013,281.39224133300013,281.7898514999979,,,,,,,,,,,,,,,,,,,,,,,,,,,,,,,right,1.0,0.3924562909996894,,,,,sub-121,1,random_dot,121.704656271785,
right,right,38.0,0.0,19.0,left,0.0,1.0741899169988756,,accuracy,space,2.53055970800051,,,,,,0.0,0.0,0.0,0.0,19.0,0.0,38.0,1.0,281.7979266250004,,,,,,,,,281.7902290409984,282.98123579099774,283.77552512499824,283.7662607499988,283.7667197499977,283.77552512499824,283.77552512499824,283.77552512499824,284.8556819999976,,,,,,,,,,,,,,,,,,,,,,,,,,,,,,,left,0.0,1.0741899169988756,,,,,sub-121,1,random_dot,121.704656271785,
left,left,39.0,1.0,19.0,right,0.0,1.3552392500023416,,accuracy,space,2.53055970800051,,,,,,0.0,0.0,0.0,0.0,19.0,1.0,39.0,0.0,284.8693677079973,,,,,,,,,284.8560517499973,285.64840429099786,286.4425257080002,286.43216579100044,286.4327830410002,286.4425257080002,286.4425257080002,286.4425257080002,287.8034433749999,,,,,,,,,,,,,,,,,,,,,,,,,,,,,,,right,0.0,1.3552392500023416,,,,,sub-121,1,random_dot,121.704656271785,
left,left,40.0,0.0,20.0,right,0.0,0.9640592910000124,,accuracy,space,2.53055970800051,,,,,,0.0,0.0,0.0,0.0,20.0,0.0,40.0,0.0,287.8115021249978,,,,,,,,,287.8038815,288.15074087500034,288.94871883299857,288.939764666,288.94024279099904,288.94871883299857,288.94871883299857,288.94871883299857,289.9192829579988,,,,,,,,,,,,,,,,,,,,,,,,,,,,,,,right,0.0,0.9640592910000124,,,,,sub-121,1,random_dot,121.704656271785,
right,right,41.0,1.0,20.0,left,0.0,1.2493174170012935,,accuracy,space,2.53055970800051,,,,,,0.0,0.0,0.0,0.0,20.0,1.0,41.0,1.0,289.9299362499987,,,,,,,,,289.91997462499785,290.2650587909993,291.0583666249986,291.04919383299784,291.0496541659995,291.0583666249986,291.0583666249986,291.0583666249986,292.3096881249985,,,,,,,,,,,,,,,,,,,,,,,,,,,,,,,left,0.0,1.2493174170012935,,,,,sub-121,1,random_dot,121.704656271785,
right,right,42.0,0.0,21.0,left,0.0,1.451893708002899,,accuracy,space,2.53055970800051,,,,,,0.0,0.0,0.0,0.0,21.0,0.0,42.0,1.0,292.31892766599776,,,,,,,,,292.3100401249976,292.406386374998,293.2090138749991,293.19992145799915,293.20049654099785,293.2090138749991,293.2090138749991,293.2090138749991,294.6684955829988,,,,,,,,,,,,,,,,,,,,,,,,,,,,,,,left,0.0,1.451893708002899,,,,,sub-121,1,random_dot,121.704656271785,
left,left,43.0,1.0,21.0,right,0.0,0.6942707090020122,,accuracy,space,2.53055970800051,,,,,,0.0,0.0,0.0,0.0,21.0,1.0,43.0,0.0,294.67645629099934,,,,,,,,,294.6688536660004,295.86576166599843,296.6578091249976,296.6491634999984,296.64961537499767,296.6578091249976,296.6578091249976,296.6578091249976,297.3588586249971,,,,,,,,,,,,,,,,,,,,,,,,,,,,,,,right,0.0,0.6942707090020122,,,,,sub-121,1,random_dot,121.704656271785,
left,left,44.0,0.0,22.0,left,1.0,0.810737000003428,,accuracy,space,2.53055970800051,,,,,,0.0,0.0,0.0,0.0,22.0,0.0,44.0,0.0,297.36726049999925,,,,,,,,,297.35921812499873,297.4555472079992,298.2479937909993,298.2395221249972,298.239973249998,298.2479937909993,298.2479937909993,298.2479937909993,299.0604804579998,,,,,,,,,,,,,,,,,,,,,,,,,,,,,,,left,1.0,0.810737000003428,,,,,sub-121,1,random_dot,121.704656271785,
right,right,45.0,1.0,22.0,right,1.0,0.7889379590014869,,accuracy,space,2.53055970800051,,,,,,0.0,0.0,0.0,0.0,22.0,1.0,45.0,1.0,299.0853369159995,,,,,,,,,299.0608375829979,299.8562598749995,300.64819158299724,300.6398277909975,300.6402771659996,300.64819158299724,300.64819158299724,300.64819158299724,301.44153458299843,,,,,,,,,,,,,,,,,,,,,,,,,,,,,,,right,1.0,0.7889379590014869,,,,,sub-121,1,random_dot,121.704656271785,
right,right,46.0,0.0,23.0,right,1.0,0.8037446670023201,,accuracy,space,2.53055970800051,,,,,,0.0,0.0,0.0,0.0,23.0,0.0,46.0,1.0,301.45527633299935,,,,,,,,,301.4420857080004,302.63942399999723,303.43163945799824,303.42335699999967,303.423774166,303.43163945799824,303.43163945799824,303.43163945799824,304.23927266600003,,,,,,,,,,,,,,,,,,,,,,,,,,,,,,,right,1.0,0.8037446670023201,,,,,sub-121,1,random_dot,121.704656271785,
left,left,47.0,1.0,23.0,right,0.0,1.0919758749987525,,accuracy,space,2.53055970800051,,,,,,0.0,0.0,0.0,0.0,23.0,1.0,47.0,0.0,304.24996162499883,,,,,,,,,304.2398819579976,305.03917341600027,305.83735312499994,305.82548587499696,305.8259535830002,305.83735312499994,305.83735312499994,305.83735312499994,306.93463945799886,,,,,,,,,,,,,,,,,,,,,,,,,,,,,,,right,0.0,1.0919758749987525,,,,,sub-121,1,random_dot,121.704656271785,
right,right,48.0,0.0,24.0,left,0.0,0.7775097500016273,,accuracy,space,2.53055970800051,,,,,,0.0,0.0,0.0,0.0,24.0,0.0,48.0,1.0,306.9451615830003,,,,,,,,,306.9351325409989,307.0324293749982,307.8262635409992,307.81747670799814,307.8179989579985,307.8262635409992,307.8262635409992,307.8262635409992,308.6077004580002,,,,,,,,,,,,,,,,,,,,,,,,,,,,,,,left,0.0,0.7775097500016273,,,,,sub-121,1,random_dot,121.704656271785,
left,left,49.0,1.0,24.0,right,0.0,1.469311500000913,,accuracy,space,2.53055970800051,,,,,,0.0,0.0,0.0,0.0,24.0,1.0,49.0,0.0,308.63536199999726,,,,,,,,,308.6080532079977,308.7005365829973,309.4983289999982,309.4899419159992,309.4903952079985,309.4983289999982,309.4983289999982,309.4983289999982,310.97366133299874,,,,,,,,,,,,,,,,,,,,,,,,,,,,,,,right,0.0,1.469311500000913,,,,,sub-121,1,random_dot,121.704656271785,
right,right,50.0,0.0,25.0,right,1.0,1.2450551250003628,,accuracy,space,2.53055970800051,,,,,,0.0,0.0,0.0,0.0,25.0,0.0,50.0,1.0,310.9828264579992,,,,,,,,,310.9740231659998,312.172893707997,312.9753816659977,312.966236207998,312.9667139999983,312.9753816659977,312.9753816659977,312.9753816659977,314.22662624999793,,,,,,,,,,,,,,,,,,,,,,,,,,,,,,,right,1.0,1.2450551250003628,,,,,sub-121,1,random_dot,121.704656271785,
left,left,51.0,1.0,25.0,right,0.0,0.9437343749996217,,accuracy,space,2.53055970800051,,,,,,0.0,0.0,0.0,0.0,25.0,1.0,51.0,0.0,314.24181879099706,,,,,,,,,314.2272347910002,314.3247774579977,315.1242348749984,315.11585470799764,315.1163412499991,315.1242348749984,315.1242348749984,315.1242348749984,316.07254245799777,,,,,,,,,,,,,,,,,,,,,,,,,,,,,,,right,0.0,0.9437343749996217,,,,,sub-121,1,random_dot,121.704656271785,
right,right,52.0,0.0,26.0,right,1.0,1.0133375830009754,,accuracy,space,2.53055970800051,,,,,,0.0,0.0,0.0,0.0,26.0,0.0,52.0,1.0,316.0842061660005,,,,,,,,,316.07326808299695,316.1733300829983,316.97619374999704,316.9662800410006,316.9667270829996,316.97619374999704,316.97619374999704,316.97619374999704,317.99227583299944,,,,,,,,,,,,,,,,,,,,,,,,,,,,,,,right,1.0,1.0133375830009754,,,,,sub-121,1,random_dot,121.704656271785,
left,left,53.0,1.0,26.0,right,0.0,1.275065000001632,,accuracy,space,2.53055970800051,,,,,,0.0,0.0,0.0,0.0,26.0,1.0,53.0,0.0,318.00338720799846,,,,,,,,,317.9928782909992,318.78939120799987,319.5814827079994,319.57280287499816,319.5732611659987,319.5814827079994,319.5814827079994,319.5814827079994,320.8731463330005,,,,,,,,,,,,,,,,,,,,,,,,,,,,,,,right,0.0,1.275065000001632,,,,,sub-121,1,random_dot,121.704656271785,
left,left,54.0,0.0,27.0,left,1.0,2.6548734580028395,,accuracy,space,2.53055970800051,,,,,,0.0,0.0,0.0,0.0,27.0,0.0,54.0,0.0,320.88652708299924,,,,,,,,,320.8735217909998,321.2232860410004,322.015251290999,322.0067161659972,322.0071814160001,322.015251290999,322.015251290999,322.015251290999,324.6739863749972,,,,,,,,,,,,,,,,,,,,,,,,,,,,,,,left,1.0,2.6548734580028395,,,,,sub-121,1,random_dot,121.704656271785,
right,right,55.0,1.0,27.0,left,0.0,0.7081420419999631,,accuracy,space,2.53055970800051,,,,,,0.0,0.0,0.0,0.0,27.0,1.0,55.0,1.0,324.6880761249995,,,,,,,,,324.67434112499905,325.87279733299874,326.67515779099995,326.6663415410003,326.6667980409984,326.67515779099995,326.67515779099995,326.67515779099995,327.39497199999823,,,,,,,,,,,,,,,,,,,,,,,,,,,,,,,left,0.0,0.7081420419999631,,,,,sub-121,1,random_dot,121.704656271785,
right,right,56.0,0.0,28.0,left,0.0,0.5267087920001359,,accuracy,space,2.53055970800051,,,,,,0.0,0.0,0.0,0.0,28.0,0.0,56.0,1.0,327.40005204099725,,,,,,,,,327.39531837499817,328.58956470799967,329.38137970800017,329.3729222080001,329.3733544159986,329.38137970800017,329.38137970800017,329.38137970800017,329.91278324999803,,,,,,,,,,,,,,,,,,,,,,,,,,,,,,,left,0.0,0.5267087920001359,,,,,sub-121,1,random_dot,121.704656271785,
left,left,57.0,1.0,28.0,left,1.0,0.9002594999983557,,accuracy,space,2.53055970800051,,,,,,0.0,0.0,0.0,0.0,28.0,1.0,57.0,0.0,329.9223663749981,,,,,,,,,329.9131517909991,330.2555710829984,331.04872829099986,331.03997120799977,331.04044954100027,331.04872829099986,331.04872829099986,331.04872829099986,331.95527008299905,,,,,,,,,,,,,,,,,,,,,,,,,,,,,,,left,1.0,0.9002594999983557,,,,,sub-121,1,random_dot,121.704656271785,
right,right,58.0,0.0,29.0,left,0.0,1.0191281669976888,,accuracy,space,2.53055970800051,,,,,,0.0,0.0,0.0,0.0,29.0,0.0,58.0,1.0,331.9638667500003,,,,,,,,,331.9555499579983,332.7485239999987,333.5412333329987,333.53281254099784,333.5332395000005,333.5412333329987,333.5412333329987,333.5412333329987,334.5714731659973,,,,,,,,,,,,,,,,,,,,,,,,,,,,,,,left,0.0,1.0191281669976888,,,,,sub-121,1,random_dot,121.704656271785,
left,left,59.0,1.0,29.0,left,1.0,0.5069688330004283,,accuracy,space,2.53055970800051,,,,,,0.0,0.0,0.0,0.0,29.0,1.0,59.0,0.0,334.59017533299993,,,,,,,,,334.5726559159993,335.3674229579992,336.1639977909981,336.15523279099943,336.1557108749985,336.1639977909981,336.1639977909981,336.1639977909981,336.6730750829993,,,,,,,,,,,,,,,,,,,,,,,,,,,,,,,left,1.0,0.5069688330004283,,,,,sub-121,1,random_dot,121.704656271785,
,,0.0,0.0,0.0,,,,,accuracy,space,2.53055970800051,,,,,,0.0,0.0,0.0,0.0,,,,,,,,,,,,,,,,,,,,,,,,,,,,,,,,,,,,,,,,,,,,,,,,,,,,,,,,,,,,sub-121,1,random_dot,121.704656271785,
right,right,0.0,0.0,0.0,left,0.0,2.3127607500027807,,speed,space,10.4944973749989,,,,,,0.0,1.0,1.0,1.0,0.0,0.0,0.0,1.0,347.2128784999986,,,,,,,,,347.20288937499936,347.53944733299795,348.3414116249987,348.33306133299993,348.3334912909995,348.3414116249987,348.3414116249987,348.3414116249987,350.6569067499986,,,,,,,,,,,,,,,,,,,,,,,,336.6866183329985,336.6943640829995,336.6943640829995,347.1921609159981,space,10.4944973749989,,left,0.0,2.3127607500027807,,,,,sub-121,1,random_dot,121.704656271785,
left,left,1.0,1.0,0.0,right,0.0,0.8298235830006888,,speed,space,10.4944973749989,,,,,,0.0,1.0,1.0,1.0,0.0,1.0,1.0,0.0,350.6648586659976,,,,,,,,,350.6572656249991,351.00554454099984,351.79747183299696,351.78912233299707,351.7895464579997,351.79747183299696,351.79747183299696,351.79747183299696,352.6344912079985,,,,,,,,,,,,,,,,,,,,,,,,,,,,,,,right,0.0,0.8298235830006888,,,,,sub-121,1,random_dot,121.704656271785,
left,left,2.0,0.0,1.0,left,1.0,0.4939251249998051,,speed,space,10.4944973749989,,,,,,0.0,1.0,1.0,1.0,1.0,0.0,2.0,0.0,352.64119054099865,,,,,,,,,352.63486895799724,352.97690195799805,353.7747095409977,353.76570549999815,353.76617016599994,353.7747095409977,353.7747095409977,353.7747095409977,354.27324620799845,,,,,,,,,,,,,,,,,,,,,,,,,,,,,,,left,1.0,0.4939251249998051,,,,,sub-121,1,random_dot,121.704656271785,
right,right,3.0,1.0,1.0,right,1.0,0.5766128750001371,,speed,space,10.4944973749989,,,,,,0.0,1.0,1.0,1.0,1.0,1.0,3.0,1.0,354.2811509579988,,,,,,,,,354.2736073749984,355.4647615829999,356.26050191600007,356.25023045799753,356.2507378329974,356.26050191600007,356.26050191600007,356.26050191600007,356.841375041,,,,,,,,,,,,,,,,,,,,,,,,,,,,,,,right,1.0,0.5766128750001371,,,,,sub-121,1,random_dot,121.704656271785,
right,right,4.0,0.0,2.0,left,0.0,0.8042346250003902,,speed,space,10.4944973749989,,,,,,0.0,1.0,1.0,1.0,2.0,0.0,4.0,1.0,356.85390829099924,,,,,,,,,356.84225658300056,357.6497637909997,358.44826191599714,358.43875391599795,358.43921845799923,358.44826191599714,358.44826191599714,358.44826191599714,359.260305541,,,,,,,,,,,,,,,,,,,,,,,,,,,,,,,left,0.0,0.8042346250003902,,,,,sub-121,1,random_dot,121.704656271785,
left,left,5.0,1.0,2.0,right,0.0,0.6104777920008928,,speed,space,10.4944973749989,,,,,,0.0,1.0,1.0,1.0,2.0,1.0,5.0,0.0,359.27524849999827,,,,,,,,,359.26153449999765,359.3554564160004,360.14939412499734,360.14045645799706,360.1409275829974,360.14939412499734,360.14939412499734,360.14939412499734,360.7674592080002,,,,,,,,,,,,,,,,,,,,,,,,,,,,,,,right,0.0,0.6104777920008928,,,,,sub-121,1,random_dot,121.704656271785,
left,left,6.0,0.0,3.0,left,1.0,0.5690649169991957,,speed,space,10.4944973749989,,,,,,0.0,1.0,1.0,1.0,3.0,0.0,6.0,0.0,360.7759750410005,,,,,,,,,360.7679702909991,361.1145149999975,361.92454758299937,361.9069597079979,361.9075020409982,361.92454758299937,361.92454758299937,361.92454758299937,362.5007673330001,,,,,,,,,,,,,,,,,,,,,,,,,,,,,,,left,1.0,0.5690649169991957,,,,,sub-121,1,random_dot,121.704656271785,
right,right,7.0,1.0,3.0,right,1.0,0.594531917002314,,speed,space,10.4944973749989,,,,,,0.0,1.0,1.0,1.0,3.0,1.0,7.0,1.0,362.5088381659989,,,,,,,,,362.5011264579989,363.29902529099854,364.09734670800026,364.0885324579976,364.089016957998,364.09734670800026,364.09734670800026,364.09734670800026,364.7007734159997,,,,,,,,,,,,,,,,,,,,,,,,,,,,,,,right,1.0,0.594531917002314,,,,,sub-121,1,random_dot,121.704656271785,
right,right,8.0,0.0,4.0,right,1.0,1.5051716249981837,,speed,space,10.4944973749989,,,,,,0.0,1.0,1.0,1.0,4.0,0.0,8.0,1.0,364.7150979159997,,,,,,,,,364.70149587500055,364.799043707997,365.5926800829984,365.58232579099786,365.5829310829977,365.5926800829984,365.5926800829984,365.5926800829984,367.10148904099697,,,,,,,,,,,,,,,,,,,,,,,,,,,,,,,right,1.0,1.5051716249981837,,,,,sub-121,1,random_dot,121.704656271785,
left,left,9.0,1.0,4.0,left,1.0,0.7385205419996055,,speed,space,10.4944973749989,,,,,,0.0,1.0,1.0,1.0,4.0,1.0,9.0,0.0,367.1122511249996,,,,,,,,,367.10196020799776,367.8989977079982,368.693008582999,368.6832794999973,368.6839096250005,368.693008582999,368.693008582999,368.693008582999,369.4374217499972,,,,,,,,,,,,,,,,,,,,,,,,,,,,,,,left,1.0,0.7385205419996055,,,,,sub-121,1,random_dot,121.704656271785,
right,right,10.0,0.0,5.0,right,1.0,0.9799800410000898,,speed,space,10.4944973749989,,,,,,0.0,1.0,1.0,1.0,5.0,0.0,10.0,1.0,369.4506158749973,,,,,,,,,369.4378491249991,369.7993051249978,370.5922892909985,370.58301008299895,370.58351583299736,370.5922892909985,370.5922892909985,370.5922892909985,371.5846500829976,,,,,,,,,,,,,,,,,,,,,,,,,,,,,,,right,1.0,0.9799800410000898,,,,,sub-121,1,random_dot,121.704656271785,
left,left,11.0,1.0,5.0,left,1.0,0.9692375409977104,,speed,space,10.4944973749989,,,,,,0.0,1.0,1.0,1.0,5.0,1.0,11.0,0.0,371.5932495829984,,,,,,,,,371.58522754099977,371.6829038329997,372.4755083329983,372.4662701249981,372.4667789999985,372.4755083329983,372.4755083329983,372.4755083329983,373.46859895799935,,,,,,,,,,,,,,,,,,,,,,,,,,,,,,,left,1.0,0.9692375409977104,,,,,sub-121,1,random_dot,121.704656271785,
right,right,12.0,0.0,6.0,left,0.0,0.6574072920011531,,speed,space,10.4944973749989,,,,,,0.0,1.0,1.0,1.0,6.0,0.0,12.0,1.0,373.482864374997,,,,,,,,,373.4692422499975,374.6655183749972,375.45869958299954,375.4492875409997,375.4498748749975,375.45869958299954,375.45869958299954,375.45869958299954,376.119801375,,,,,,,,,,,,,,,,,,,,,,,,,,,,,,,left,0.0,0.6574072920011531,,,,,sub-121,1,random_dot,121.704656271785,
left,left,13.0,1.0,6.0,left,1.0,0.6389636250023614,,speed,space,10.4944973749989,,,,,,0.0,1.0,1.0,1.0,6.0,1.0,13.0,0.0,376.1276226249975,,,,,,,,,376.1201552909988,376.4655370830005,377.2587249999997,377.2496227909978,377.25009424999735,377.2587249999997,377.2587249999997,377.2587249999997,377.9001743749977,,,,,,,,,,,,,,,,,,,,,,,,,,,,,,,left,1.0,0.6389636250023614,,,,,sub-121,1,random_dot,121.704656271785,
left,left,14.0,0.0,7.0,right,0.0,0.781720666000183,,speed,space,10.4944973749989,,,,,,0.0,1.0,1.0,1.0,7.0,0.0,14.0,0.0,377.9079641249991,,,,,,,,,377.90053483299926,377.99898699999903,378.7925738749982,378.7838934579995,378.7844187499977,378.7925738749982,378.7925738749982,378.7925738749982,379.5768994159989,,,,,,,,,,,,,,,,,,,,,,,,,,,,,,,right,0.0,0.781720666000183,,,,,sub-121,1,random_dot,121.704656271785,
right,right,15.0,1.0,7.0,left,0.0,0.7881909999996424,,speed,space,10.4944973749989,,,,,,0.0,1.0,1.0,1.0,7.0,1.0,15.0,1.0,379.58624170799885,,,,,,,,,379.5773986249988,380.372962999998,381.16555595799946,381.15643808299865,381.156915790998,381.16555595799946,381.16555595799946,381.16555595799946,381.9606784159987,,,,,,,,,,,,,,,,,,,,,,,,,,,,,,,left,0.0,0.7881909999996424,,,,,sub-121,1,random_dot,121.704656271785,
right,right,16.0,0.0,8.0,right,1.0,1.286068042001716,,speed,space,10.4944973749989,,,,,,0.0,1.0,1.0,1.0,8.0,0.0,16.0,1.0,381.9698536249998,,,,,,,,,381.9611186660004,383.1560110829996,383.9484292499983,383.9395017909992,383.9399612909983,383.9484292499983,383.9484292499983,383.9484292499983,385.23822016600025,,,,,,,,,,,,,,,,,,,,,,,,,,,,,,,right,1.0,1.286068042001716,,,,,sub-121,1,random_dot,121.704656271785,
left,left,17.0,1.0,8.0,left,1.0,0.9136712910003552,,speed,space,10.4944973749989,,,,,,0.0,1.0,1.0,1.0,8.0,1.0,17.0,0.0,385.2540140829988,,,,,,,,,385.2386194999999,386.031457457997,386.8265055829979,386.8162643750002,386.8168817080005,386.8265055829979,386.8265055829979,386.8265055829979,387.74521558299966,,,,,,,,,,,,,,,,,,,,,,,,,,,,,,,left,1.0,0.9136712910003552,,,,,sub-121,1,random_dot,121.704656271785,
left,left,18.0,0.0,9.0,left,1.0,0.6955127500004892,,speed,space,10.4944973749989,,,,,,0.0,1.0,1.0,1.0,9.0,0.0,18.0,0.0,387.7592471249991,,,,,,,,,387.74626299999727,388.08821441599866,388.8816943749989,388.873062374998,388.87351574999775,388.8816943749989,388.8816943749989,388.8816943749989,389.5905729160004,,,,,,,,,,,,,,,,,,,,,,,,,,,,,,,left,1.0,0.6955127500004892,,,,,sub-121,1,random_dot,121.704656271785,
right,right,19.0,1.0,9.0,left,0.0,0.9091913749980448,,speed,space,10.4944973749989,,,,,,0.0,1.0,1.0,1.0,9.0,1.0,19.0,1.0,389.6056913329994,,,,,,,,,389.5910223329993,389.9393996250001,390.7315066659976,390.7231195409986,390.7235569999975,390.7315066659976,390.7315066659976,390.7315066659976,391.6502094579992,,,,,,,,,,,,,,,,,,,,,,,,,,,,,,,left,0.0,0.9091913749980448,,,,,sub-121,1,random_dot,121.704656271785,
right,right,20.0,0.0,10.0,left,0.0,1.3299941669974942,,speed,space,10.4944973749989,,,,,,0.0,1.0,1.0,1.0,10.0,0.0,20.0,1.0,391.6581415410001,,,,,,,,,391.6505667909987,392.4484058329981,393.2414684579999,393.2325422499998,393.23300050000034,393.2414684579999,393.2414684579999,393.2414684579999,394.5845272499973,,,,,,,,,,,,,,,,,,,,,,,,,,,,,,,left,0.0,1.3299941669974942,,,,,sub-121,1,random_dot,121.704656271785,
left,left,21.0,1.0,10.0,right,0.0,0.8326061250008934,,speed,space,10.4944973749989,,,,,,0.0,1.0,1.0,1.0,10.0,1.0,21.0,0.0,394.5928405409977,,,,,,,,,394.5850445830001,395.3819714159981,396.1742948329993,396.1654751659989,396.1659420830001,396.1742948329993,396.1742948329993,396.1742948329993,397.011457665998,,,,,,,,,,,,,,,,,,,,,,,,,,,,,,,right,0.0,0.8326061250008934,,,,,sub-121,1,random_dot,121.704656271785,
right,right,22.0,0.0,11.0,right,1.0,3.68606791700222,,speed,space,10.4944973749989,,,,,,0.0,1.0,1.0,1.0,11.0,0.0,22.0,1.0,397.01957370799937,,,,,,,,,397.0120424159977,397.1061001659982,397.898469541,397.8899847909997,397.89044374999867,397.898469541,397.898469541,397.898469541,401.5868826249971,,,,,,,,,,,,,,,,,,,,,,,,,,,,,,,right,1.0,3.68606791700222,,,,,sub-121,1,random_dot,121.704656271785,
left,left,23.0,1.0,11.0,right,0.0,1.2274099589994876,,speed,space,10.4944973749989,,,,,,0.0,1.0,1.0,1.0,11.0,1.0,23.0,0.0,401.594720457997,,,,,,,,,401.58723720799753,402.3820793749983,403.1756653329976,403.1662416660001,403.166707458,403.1756653329976,403.1756653329976,403.1756653329976,404.40862237499823,,,,,,,,,,,,,,,,,,,,,,,,,,,,,,,right,0.0,1.2274099589994876,,,,,sub-121,1,random_dot,121.704656271785,
right,right,24.0,0.0,12.0,left,0.0,1.1800783750004484,,speed,space,10.4944973749989,,,,,,0.0,1.0,1.0,1.0,12.0,0.0,24.0,1.0,404.43353041599767,,,,,,,,,404.4089719999975,404.7564677909977,405.5593289579992,405.5498189579994,405.550377749998,405.5593289579992,405.5593289579992,405.5593289579992,406.7509867499976,,,,,,,,,,,,,,,,,,,,,,,,,,,,,,,left,0.0,1.1800783750004484,,,,,sub-121,1,random_dot,121.704656271785,
left,left,25.0,1.0,12.0,right,0.0,0.578929250001238,,speed,space,10.4944973749989,,,,,,0.0,1.0,1.0,1.0,12.0,1.0,25.0,0.0,406.7611546659973,,,,,,,,,406.7516302080003,407.5480144159992,408.3409205829994,408.3320366659973,408.3325200830004,408.3409205829994,408.3409205829994,408.3409205829994,408.9223777909974,,,,,,,,,,,,,,,,,,,,,,,,,,,,,,,right,0.0,0.578929250001238,,,,,sub-121,1,random_dot,121.704656271785,
right,right,26.0,0.0,13.0,left,0.0,1.071396833001927,,speed,space,10.4944973749989,,,,,,0.0,1.0,1.0,1.0,13.0,0.0,26.0,1.0,408.93029945799935,,,,,,,,,408.92272899999807,409.2644292909972,410.070759582999,410.0550177909972,410.0556008749991,410.070759582999,410.070759582999,410.070759582999,411.1475501659989,,,,,,,,,,,,,,,,,,,,,,,,,,,,,,,left,0.0,1.071396833001927,,,,,sub-121,1,random_dot,121.704656271785,
left,left,27.0,1.0,13.0,right,0.0,1.5148246669996297,,speed,space,10.4944973749989,,,,,,0.0,1.0,1.0,1.0,13.0,1.0,27.0,0.0,411.15953095799705,,,,,,,,,411.1482197499972,411.9402616249972,412.7418981659976,412.7328611249977,412.7332672499979,412.7418981659976,412.7418981659976,412.7418981659976,414.2661346249988,,,,,,,,,,,,,,,,,,,,,,,,,,,,,,,right,0.0,1.5148246669996297,,,,,sub-121,1,random_dot,121.704656271785,
left,left,28.0,0.0,14.0,right,0.0,0.6832775830007449,,speed,space,10.4944973749989,,,,,,0.0,1.0,1.0,1.0,14.0,0.0,28.0,0.0,414.2743486250001,,,,,,,,,414.2665138329976,415.45616408299975,416.2482133329977,416.2395408329976,416.2399996659988,416.2482133329977,416.2482133329977,416.2482133329977,416.9350290000002,,,,,,,,,,,,,,,,,,,,,,,,,,,,,,,right,0.0,0.6832775830007449,,,,,sub-121,1,random_dot,121.704656271785,
right,right,29.0,1.0,14.0,right,1.0,0.9531372909987113,,speed,space,10.4944973749989,,,,,,0.0,1.0,1.0,1.0,14.0,1.0,29.0,1.0,416.9430876659972,,,,,,,,,416.9353833749992,417.2821326659978,418.0746252079989,418.0663138329983,418.0667305409988,418.0746252079989,418.0746252079989,418.0746252079989,419.0413562499998,,,,,,,,,,,,,,,,,,,,,,,,,,,,,,,right,1.0,0.9531372909987113,,,,,sub-121,1,random_dot,121.704656271785,
left,left,30.0,0.0,15.0,left,1.0,0.9630841670004884,,speed,space,10.4944973749989,,,,,,0.0,1.0,1.0,1.0,15.0,0.0,30.0,0.0,419.0694497499972,,,,,,,,,419.0417027909971,419.38957520799886,420.19259308300025,420.1830112079988,420.18361004100007,420.19259308300025,420.19259308300025,420.19259308300025,421.1615399999973,,,,,,,,,,,,,,,,,,,,,,,,,,,,,,,left,1.0,0.9630841670004884,,,,,sub-121,1,random_dot,121.704656271785,
right,right,31.0,1.0,15.0,right,1.0,1.3422532500007949,,speed,space,10.4944973749989,,,,,,0.0,1.0,1.0,1.0,15.0,1.0,31.0,1.0,421.173247666,,,,,,,,,421.1623930409987,421.5054690409997,422.29925904099946,422.2895056249981,422.2900904579983,422.29925904099946,422.29925904099946,422.29925904099946,423.6529013750005,,,,,,,,,,,,,,,,,,,,,,,,,,,,,,,right,1.0,1.3422532500007949,,,,,sub-121,1,random_dot,121.704656271785,
right,right,32.0,0.0,16.0,left,0.0,0.4755430410004919,,speed,space,10.4944973749989,,,,,,0.0,1.0,1.0,1.0,16.0,0.0,32.0,1.0,423.66056733299774,,,,,,,,,423.6532805829993,423.99339841599794,424.7925848749983,424.7833894579999,424.7839460409996,424.7925848749983,424.7925848749983,424.7925848749983,425.2775344580005,,,,,,,,,,,,,,,,,,,,,,,,,,,,,,,left,0.0,0.4755430410004919,,,,,sub-121,1,random_dot,121.704656271785,
left,left,33.0,1.0,16.0,right,0.0,1.210403832999873,,speed,space,10.4944973749989,,,,,,0.0,1.0,1.0,1.0,16.0,1.0,33.0,0.0,425.2876741660002,,,,,,,,,425.2781146249981,426.0764242909973,426.8748673329974,426.8660858330004,426.8665418749988,426.8748673329974,426.8748673329974,426.8748673329974,428.0913109159992,,,,,,,,,,,,,,,,,,,,,,,,,,,,,,,right,0.0,1.210403832999873,,,,,sub-121,1,random_dot,121.704656271785,
left,left,34.0,0.0,17.0,left,1.0,1.786527832999127,,speed,space,10.4944973749989,,,,,,0.0,1.0,1.0,1.0,17.0,0.0,34.0,0.0,428.10302566599785,,,,,,,,,428.0917821660005,429.2895040829972,430.0816116249989,430.0729673329988,430.0734382499977,430.0816116249989,430.0816116249989,430.0816116249989,431.8724812910005,,,,,,,,,,,,,,,,,,,,,,,,,,,,,,,left,1.0,1.786527832999127,,,,,sub-121,1,random_dot,121.704656271785,
right,right,35.0,1.0,17.0,right,1.0,0.6724279999980354,,speed,space,10.4944973749989,,,,,,0.0,1.0,1.0,1.0,17.0,1.0,35.0,1.0,431.8805736659997,,,,,,,,,431.8728389579992,432.221579582998,433.01414004099934,433.0053584999987,433.0058282909995,433.01414004099934,433.01414004099934,433.01414004099934,433.6894043749999,,,,,,,,,,,,,,,,,,,,,,,,,,,,,,,right,1.0,0.6724279999980354,,,,,sub-121,1,random_dot,121.704656271785,
left,left,36.0,0.0,18.0,left,1.0,1.1185499169987452,,speed,space,10.4944973749989,,,,,,0.0,1.0,1.0,1.0,18.0,0.0,36.0,0.0,433.6976095409991,,,,,,,,,433.68977191599697,433.78868837499977,434.5927615410001,434.58316666599785,434.5837480409973,434.5927615410001,434.5927615410001,434.5927615410001,435.7183395409993,,,,,,,,,,,,,,,,,,,,,,,,,,,,,,,left,1.0,1.1185499169987452,,,,,sub-121,1,random_dot,121.704656271785,
right,right,37.0,1.0,18.0,right,1.0,1.3396537080006965,,speed,space,10.4944973749989,,,,,,0.0,1.0,1.0,1.0,18.0,1.0,37.0,1.0,435.7262344579976,,,,,,,,,435.7186940829997,436.06547541599866,436.8572869999989,436.8491650830001,436.8496439999981,436.8572869999989,436.8572869999989,436.8572869999989,438.226635832998,,,,,,,,,,,,,,,,,,,,,,,,,,,,,,,right,1.0,1.3396537080006965,,,,,sub-121,1,random_dot,121.704656271785,
left,left,38.0,0.0,19.0,left,1.0,0.6871461669979908,,speed,space,10.4944973749989,,,,,,0.0,1.0,1.0,1.0,19.0,0.0,38.0,0.0,438.2426562500005,,,,,,,,,438.2271996249983,438.3386522500005,439.13079195799946,439.122403333,439.1228976659986,439.13079195799946,439.13079195799946,439.13079195799946,439.8245977499973,,,,,,,,,,,,,,,,,,,,,,,,,,,,,,,left,1.0,0.6871461669979908,,,,,sub-121,1,random_dot,121.704656271785,
right,right,39.0,1.0,19.0,right,1.0,1.2176966670012916,,speed,space,10.4944973749989,,,,,,0.0,1.0,1.0,1.0,19.0,1.0,39.0,1.0,439.8480667499971,,,,,,,,,439.8249453329991,441.0227177499983,441.81511583300016,441.8060568330002,441.8065291249986,441.81511583300016,441.81511583300016,441.81511583300016,443.0405620409984,,,,,,,,,,,,,,,,,,,,,,,,,,,,,,,right,1.0,1.2176966670012916,,,,,sub-121,1,random_dot,121.704656271785,
right,right,40.0,0.0,20.0,left,0.0,0.9926895839998906,,speed,space,10.4944973749989,,,,,,0.0,1.0,1.0,1.0,20.0,0.0,40.0,1.0,443.04857487499976,,,,,,,,,443.0409319579994,443.83939387499777,444.6315195829993,444.62273354100034,444.6232159579995,444.6315195829993,444.6315195829993,444.6315195829993,445.62806879100026,,,,,,,,,,,,,,,,,,,,,,,,,,,,,,,left,0.0,0.9926895839998906,,,,,sub-121,1,random_dot,121.704656271785,
left,left,41.0,1.0,20.0,right,0.0,1.1786278750005297,,speed,space,10.4944973749989,,,,,,0.0,1.0,1.0,1.0,20.0,1.0,41.0,0.0,445.6419540829993,,,,,,,,,445.6285365829972,446.42277570799706,447.21428004100017,447.2058639159986,447.2063115829988,447.21428004100017,447.21428004100017,447.21428004100017,448.4041896249983,,,,,,,,,,,,,,,,,,,,,,,,,,,,,,,right,0.0,1.1786278750005297,,,,,sub-121,1,random_dot,121.704656271785,
right,right,42.0,0.0,21.0,right,1.0,1.453806458001054,,speed,space,10.4944973749989,,,,,,0.0,1.0,1.0,1.0,21.0,0.0,42.0,1.0,448.4186511659973,,,,,,,,,448.4050904159994,449.6004107909976,450.3979335000004,450.38939695799854,450.3898501250005,450.3979335000004,450.3979335000004,450.3979335000004,451.8538341249987,,,,,,,,,,,,,,,,,,,,,,,,,,,,,,,right,1.0,1.453806458001054,,,,,sub-121,1,random_dot,121.704656271785,
left,left,43.0,1.0,21.0,left,1.0,1.216215125001327,,speed,space,10.4944973749989,,,,,,0.0,1.0,1.0,1.0,21.0,1.0,43.0,0.0,451.8659197499983,,,,,,,,,451.8542001249989,453.0483072909992,453.84119704099794,453.83226533299967,453.83275316599975,453.84119704099794,453.84119704099794,453.84119704099794,455.06678766599725,,,,,,,,,,,,,,,,,,,,,,,,,,,,,,,left,1.0,1.216215125001327,,,,,sub-121,1,random_dot,121.704656271785,
left,left,44.0,0.0,22.0,left,1.0,0.9399384999996984,,speed,space,10.4944973749989,,,,,,0.0,1.0,1.0,1.0,22.0,0.0,44.0,0.0,455.0748706659979,,,,,,,,,455.06715179099774,455.1650119160004,455.958557957998,455.9495560409996,455.9500205410004,455.958557957998,455.958557957998,455.958557957998,456.903180082998,,,,,,,,,,,,,,,,,,,,,,,,,,,,,,,left,1.0,0.9399384999996984,,,,,sub-121,1,random_dot,121.704656271785,
right,right,45.0,1.0,22.0,right,1.0,1.2298107499991602,,speed,space,10.4944973749989,,,,,,0.0,1.0,1.0,1.0,22.0,1.0,45.0,1.0,456.91721966600016,,,,,,,,,456.9042912499972,458.09872754099706,458.8917236249981,458.8827409579972,458.8832007079982,458.8917236249981,458.8917236249981,458.8917236249981,460.1420372499997,,,,,,,,,,,,,,,,,,,,,,,,,,,,,,,right,1.0,1.2298107499991602,,,,,sub-121,1,random_dot,121.704656271785,
left,left,46.0,0.0,23.0,left,1.0,0.7472794169989356,,speed,space,10.4944973749989,,,,,,0.0,1.0,1.0,1.0,23.0,0.0,46.0,0.0,460.15679395799816,,,,,,,,,460.14281924999887,460.9392252910002,461.74253983299786,461.7330326659976,461.7336265829981,461.74253983299786,461.74253983299786,461.74253983299786,462.5004392499977,,,,,,,,,,,,,,,,,,,,,,,,,,,,,,,left,1.0,0.7472794169989356,,,,,sub-121,1,random_dot,121.704656271785,
right,right,47.0,1.0,23.0,left,0.0,0.8349717499986582,,speed,space,10.4944973749989,,,,,,0.0,1.0,1.0,1.0,23.0,1.0,47.0,1.0,462.5089179579991,,,,,,,,,462.5009235409998,462.8487688329988,463.641743082997,463.63250295800026,463.6329759159999,463.641743082997,463.641743082997,463.641743082997,464.4941273330005,,,,,,,,,,,,,,,,,,,,,,,,,,,,,,,left,0.0,0.8349717499986582,,,,,sub-121,1,random_dot,121.704656271785,
left,left,48.0,0.0,24.0,right,0.0,0.7056251249996421,,speed,space,10.4944973749989,,,,,,0.0,1.0,1.0,1.0,24.0,0.0,48.0,0.0,464.50772312499976,,,,,,,,,464.4947357079982,465.28875358299774,466.08132337499774,466.0724856249981,466.0729319999991,466.08132337499774,466.08132337499774,466.08132337499774,466.7899484579975,,,,,,,,,,,,,,,,,,,,,,,,,,,,,,,right,0.0,0.7056251249996421,,,,,sub-121,1,random_dot,121.704656271785,
right,right,49.0,1.0,24.0,left,0.0,0.3440673750010319,,speed,space,10.4944973749989,,,,,,0.0,1.0,1.0,1.0,24.0,1.0,49.0,1.0,466.79785062500014,,,,,,,,,466.7902957909973,467.9895324579993,468.7922966249971,468.7829587499982,468.7834493749979,468.7922966249971,468.7922966249971,468.7922966249971,469.13899924999714,,,,,,,,,,,,,,,,,,,,,,,,,,,,,,,left,0.0,0.3440673750010319,,,,,sub-121,1,random_dot,121.704656271785,
right,right,50.0,0.0,25.0,left,0.0,0.6444550839987642,,speed,space,10.4944973749989,,,,,,0.0,1.0,1.0,1.0,25.0,0.0,50.0,1.0,469.1470601660003,,,,,,,,,469.1393852910005,470.33197529099925,471.1253038329996,471.11578974999793,471.1162795409982,471.1253038329996,471.1253038329996,471.1253038329996,471.7858264579991,,,,,,,,,,,,,,,,,,,,,,,,,,,,,,,left,0.0,0.6444550839987642,,,,,sub-121,1,random_dot,121.704656271785,
left,left,51.0,1.0,25.0,left,1.0,0.7429651659986121,,speed,space,10.4944973749989,,,,,,0.0,1.0,1.0,1.0,25.0,1.0,51.0,0.0,471.8002659999984,,,,,,,,,471.7863509159979,472.1311739579978,472.92558783300046,472.9162501659994,472.9168385409976,472.92558783300046,472.92558783300046,472.92558783300046,473.676077832999,,,,,,,,,,,,,,,,,,,,,,,,,,,,,,,left,1.0,0.7429651659986121,,,,,sub-121,1,random_dot,121.704656271785,
left,left,52.0,0.0,26.0,right,0.0,1.5624802919992362,,speed,space,10.4944973749989,,,,,,0.0,1.0,1.0,1.0,26.0,0.0,52.0,0.0,473.68622333299936,,,,,,,,,473.6766328749982,474.020986790998,474.8140345829997,474.8055640829989,474.8060068329978,474.8140345829997,474.8140345829997,474.8140345829997,476.38433583299775,,,,,,,,,,,,,,,,,,,,,,,,,,,,,,,right,0.0,1.5624802919992362,,,,,sub-121,1,random_dot,121.704656271785,
right,right,53.0,1.0,26.0,right,1.0,1.2146762080010376,,speed,space,10.4944973749989,,,,,,0.0,1.0,1.0,1.0,26.0,1.0,53.0,1.0,476.3924582079999,,,,,,,,,476.38473441599854,476.7321767909998,477.5248435409994,477.515779333,477.5162333329972,477.5248435409994,477.5248435409994,477.5248435409994,478.7511893749979,,,,,,,,,,,,,,,,,,,,,,,,,,,,,,,right,1.0,1.2146762080010376,,,,,sub-121,1,random_dot,121.704656271785,
right,right,54.0,0.0,27.0,right,1.0,1.0514393340017705,,speed,space,10.4944973749989,,,,,,0.0,1.0,1.0,1.0,27.0,0.0,54.0,1.0,478.762208958,,,,,,,,,478.751923374999,478.8476587080004,479.6412164579997,479.6327782499975,479.6332111249976,479.6412164579997,479.6412164579997,479.6412164579997,480.700202582997,,,,,,,,,,,,,,,,,,,,,,,,,,,,,,,right,1.0,1.0514393340017705,,,,,sub-121,1,random_dot,121.704656271785,
left,left,55.0,1.0,27.0,left,1.0,0.8904793340007018,,speed,space,10.4944973749989,,,,,,0.0,1.0,1.0,1.0,27.0,1.0,55.0,0.0,480.70809583299706,,,,,,,,,480.70056904100056,480.79879049999727,481.5915549999991,481.5824684580002,481.582930540997,481.5915549999991,481.5915549999991,481.5915549999991,482.493419790997,,,,,,,,,,,,,,,,,,,,,,,,,,,,,,,left,1.0,0.8904793340007018,,,,,sub-121,1,random_dot,121.704656271785,
left,left,56.0,0.0,28.0,left,1.0,0.7440931669989368,,speed,space,10.4944973749989,,,,,,0.0,1.0,1.0,1.0,28.0,0.0,56.0,0.0,482.5081886659973,,,,,,,,,482.4939149579986,482.5947337910002,483.3894954999996,483.3819117499989,483.3824481249976,483.3894954999996,483.3894954999996,483.3894954999996,484.1370893329986,,,,,,,,,,,,,,,,,,,,,,,,,,,,,,,left,1.0,0.7440931669989368,,,,,sub-121,1,random_dot,121.704656271785,
right,right,57.0,1.0,28.0,right,1.0,0.8569147499983956,,speed,space,10.4944973749989,,,,,,0.0,1.0,1.0,1.0,28.0,1.0,57.0,1.0,484.1496487909972,,,,,,,,,484.1379514580003,484.9320384579987,485.7264927079996,485.7178447080005,485.7183847499982,485.7264927079996,485.7264927079996,485.7264927079996,486.6012317079985,,,,,,,,,,,,,,,,,,,,,,,,,,,,,,,right,1.0,0.8569147499983956,,,,,sub-121,1,random_dot,121.704656271785,
right,right,58.0,0.0,29.0,right,1.0,0.6522737499981304,,speed,space,10.4944973749989,,,,,,0.0,1.0,1.0,1.0,29.0,0.0,58.0,1.0,486.6123976249983,,,,,,,,,486.6019757079994,486.9491687499976,487.74321037499976,487.73305516599794,487.7336412909972,487.74321037499976,487.74321037499976,487.74321037499976,488.4191388750005,,,,,,,,,,,,,,,,,,,,,,,,,,,,,,,right,1.0,0.6522737499981304,,,,,sub-121,1,random_dot,121.704656271785,
left,left,59.0,1.0,29.0,right,0.0,0.6998310829985712,,speed,space,10.4944973749989,,,,,,0.0,1.0,1.0,1.0,29.0,1.0,59.0,0.0,488.43455424999775,,,,,,,,,488.4195165409983,488.7646435409988,489.5589512080005,489.549633249997,489.55022591599845,489.5589512080005,489.5589512080005,489.5589512080005,490.2650724159976,,,,,,,,,,,,,,,,,,,,,,,,,,,,,,,right,0.0,0.6998310829985712,,,,,sub-121,1,random_dot,121.704656271785,
,,1.0,1.0,0.0,,,,,speed,space,10.4944973749989,,,,,,0.0,1.0,1.0,1.0,,,,,,,,,,,,,,,,,,,,,,,,,,,,,,,,,,,,,,,,,,,,,,,,,,,,,,,,,,,,sub-121,1,random_dot,121.704656271785,
,,,,,,,,,,,,,,,,,,,,,,,,,,,,,,,,,,,,,,,,,,,,,,,,,,,,,,,,,,,,,,,,,,,,,,,,,,,,,490.27151529099865,490.2804495829987,495.2698312909997,sub-121,1,random_dot,121.704656271785,
