direction,corrAns,thisN,thisTrialN,thisRepN,respDots.keys,respDots.corr,respDots.rt,respDots.duration,randomInstr,respRandomInstr.keys,respRandomInstr.rt,respRandomInstr.duration,practice_trials.thisRepN,practice_trials.thisTrialN,practice_trials.thisN,practice_trials.thisIndex,instr_trials.thisRepN,instr_trials.thisTrialN,instr_trials.thisN,instr_trials.thisIndex,test_trials.thisRepN,test_trials.thisTrialN,test_trials.thisN,test_trials.thisIndex,thisRow.t,notes,general_instruction.started,textGeneralInstr.started,respGeneralInstr.started,general_instruction.stopped,respGeneralInstr.keys,respGeneralInstr.rt,respGeneralInstr.duration,ITI.started,fixcross.started,fixcross.stopped,ITI.stopped,dots.started,backgroundDots.started,stimulusDots.started,respDots.started,stimulusDots.stopped,dots.stopped,practice_trials.respDots.keys,practice_trials.respDots.corr,practice_trials.respDots.rt,practice_trials.respDots.duration,feedback.started,textFeedback.started,feedback.stopped,textFeedback.stopped,info.started,textInfo.started,keyRespInfo.started,info.stopped,keyRespInfo.keys,keyRespInfo.rt,keyRespInfo.duration,test_instruction.started,textTestInstr.started,respTestInstr.started,test_instruction.stopped,respTestInstr.keys,respTestInstr.rt,respTestInstr.duration,random_instruction.started,textRandomInstr.started,respRandomInstr.started,random_instruction.stopped,instr_trials.respRandomInstr.keys,instr_trials.respRandomInstr.rt,instr_trials.respRandomInstr.duration,test_trials.respDots.keys,test_trials.respDots.corr,test_trials.respDots.rt,test_trials.respDots.duration,goodbye.started,textGoodbye.started,goodbye.stopped,participant,session,expName,frameRate,Unnamed: 87
,,,,,,,,,,,,,,,,,,,,,,,,,,,0.0087894170137587,0.0159261250228155,0.0159261250228155,13.319686667004136,space,13.257416374981403,,,,,,,,,,,,,,,,,,,,,,,,,,,,,,,,,,,,,,,,,,,,,,,,sub-197,1,random_dot,119.899045003081,
left,left,0.0,0.0,0.0,right,0.0,16.522872250003275,,,,,,0.0,0.0,0.0,0.0,,,,,,,,,13.349390917021084,,,,,,,,,13.329807000001892,14.11482587500359,14.921583333023593,14.903009042027406,14.903515417012386,14.921583333023593,14.921583333023593,14.921583333023593,19.891560500022024,31.455235833011105,right,0.0,16.522872250003275,,31.464770542021142,31.51482691700221,31.958346542000072,,,,,,,,,,,,,,,,,,,,,,,,,,,,,,sub-197,1,random_dot,119.899045003081,
right,right,1.0,1.0,0.0,left,0.0,5.574057040998014,,,,,,0.0,1.0,1.0,1.0,,,,,,,,,31.96951750002336,,,,,,,,,31.958891292015323,32.75306687501143,33.5451908330142,33.53685195802245,33.537334750028094,33.5451908330142,33.5451908330142,33.5451908330142,38.53602645802312,39.12193545800983,left,0.0,5.574057040998014,,39.12209070802783,39.13119929202367,39.62016004201723,39.62627845801762,,,,,,,,,,,,,,,,,,,,,,,,,,,,,sub-197,1,random_dot,119.899045003081,
right,right,2.0,0.0,1.0,right,1.0,3.607519791985396,,,,,,1.0,0.0,2.0,1.0,,,,,,,,,39.62627845801762,,,,,,,,,39.62062004202744,40.419711667025695,41.21258516702801,41.20396654200158,41.20457716702367,41.21258516702801,41.21258516702801,41.21258516702801,,44.8313139580132,right,1.0,3.607519791985396,,44.83745875000022,44.843790708022425,45.32726895800442,45.3361111250124,,,,,,,,,,,,,,,,,,,,,,,,,,,,,sub-197,1,random_dot,119.899045003081,
left,left,3.0,1.0,1.0,left,1.0,4.7478393749916,,,,,,1.0,1.0,3.0,0.0,,,,,,,,,45.3361111250124,,,,,,,,,45.327669542020885,45.42611025000224,46.21860070800176,46.21043833301519,46.21095195802627,46.21860070800176,46.21860070800176,46.21860070800176,,50.97134695801651,left,1.0,4.7478393749916,,50.97148966701934,50.98046337501728,51.47047670802567,51.47632108302787,,,,,,,,,,,,,,,,,,,,,,,,,,,,,sub-197,1,random_dot,119.899045003081,
left,left,4.0,0.0,2.0,right,0.0,4.457264541997574,,,,,,2.0,0.0,4.0,0.0,,,,,,,,,51.47632108302787,,,,,,,,,51.47086212501745,51.819845917023486,52.61267408300773,52.60391258302843,52.60438345800503,52.61267408300773,52.61267408300773,52.61267408300773,,57.07210745802149,right,0.0,4.457264541997574,,57.0755767080118,57.08431575002032,57.57084366702475,57.57655987501494,,,,,,,,,,,,,,,,,,,,,,,,,,,,,sub-197,1,random_dot,119.899045003081,
right,right,5.0,1.0,2.0,right,1.0,5.213307458994677,,,,,,2.0,1.0,5.0,1.0,,,,,,,,,57.57655987501494,,,,,,,,,57.57123725002748,58.370077125000535,59.16167975001736,59.15402675000951,59.154493042005925,59.16167975001736,59.16167975001736,59.16167975001736,64.15324975000112,64.37858958300785,right,1.0,5.213307458994677,,64.38180508301593,64.39850433301763,64.88702487500268,,,,,,,,,,,,,,,,,,,,,,,,,,,,,,sub-197,1,random_dot,119.899045003081,
left,left,6.0,0.0,3.0,right,0.0,1.375019125000108,,,,,,3.0,0.0,6.0,0.0,,,,,,,,,64.89222266702564,,,,,,,,,64.88740912501817,65.22629008302465,66.01961116702296,66.01069633301813,66.01120545802405,66.01961116702296,66.01961116702296,66.01961116702296,,67.40495633301907,right,0.0,1.375019125000108,,67.40809979202459,67.41682800001581,67.90418820802006,67.9100600000238,,,,,,,,,,,,,,,,,,,,,,,,,,,,,sub-197,1,random_dot,119.899045003081,
right,right,7.0,1.0,3.0,right,1.0,2.752881291991798,,,,,,3.0,1.0,7.0,1.0,,,,,,,,,67.9100600000238,,,,,,,,,67.90464070800226,69.10341158302617,69.89570475000073,69.88746962501318,69.8879262500268,69.89570475000073,69.89570475000073,69.89570475000073,,72.65502295800252,right,1.0,2.752881291991798,,72.65818141700584,72.6672817080107,73.15476587502053,73.16083145802259,,,,,,,,,,,,,,,,,,,,,,,,,,,,,sub-197,1,random_dot,119.899045003081,
right,right,8.0,0.0,4.0,right,1.0,3.660806792002404,,,,,,4.0,0.0,8.0,1.0,,,,,,,,,73.16083145802259,,,,,,,,,73.15527225000551,74.35370666702511,75.14615833302378,75.13731620801263,75.13779200002318,75.14615833302378,75.14615833302378,75.14615833302378,,78.8118422080006,right,1.0,3.660806792002404,,78.81195358300465,78.82029895801679,79.304789833026,79.31101658300031,,,,,,,,,,,,,,,,,,,,,,,,,,,,,sub-197,1,random_dot,119.899045003081,
left,left,9.0,1.0,4.0,right,0.0,2.587539917003596,,,,,,4.0,1.0,9.0,0.0,,,,,,,,,79.31101658300031,,,,,,,,,79.30527375001111,80.11033083300572,80.91245454200543,80.90457150002476,80.90502950001974,80.91245454200543,80.91245454200543,80.91245454200543,,83.50503295802628,right,0.0,2.587539917003596,,83.50818720800453,83.51624612501473,84.00461233302485,84.0103375420149,,,,,,,,,,,,,,,,,,,,,,,,,,,,,sub-197,1,random_dot,119.899045003081,
left,left,10.0,0.0,5.0,right,0.0,3.224400875013089,,,,,,5.0,0.0,10.0,0.0,,,,,,,,,84.0103375420149,,,,,,,,,84.00499325001147,84.3538094170217,85.1464374170173,85.13787170802243,85.13851345801959,85.1464374170173,85.1464374170173,85.1464374170173,,88.38285008302773,right,0.0,3.224400875013089,,88.38296287500998,88.38845937501173,88.87626741701388,88.88734729200951,,,,,,,,,,,,,,,,,,,,,,,,,,,,,sub-197,1,random_dot,119.899045003081,
right,right,11.0,1.0,5.0,left,0.0,3.220174957998097,,,,,,5.0,1.0,11.0,1.0,,,,,,,,,88.88734729200951,,,,,,,,,88.87667625001632,89.2270205830282,90.01959770801477,90.01149983302457,90.01205312501406,90.01959770801477,90.01959770801477,90.01959770801477,,93.24546437500976,left,0.0,3.220174957998097,,93.24557412500144,93.25372383301146,93.73818783301977,93.74414275001618,,,,,,,,,,,,,,,,,,,,,,,,,,,,,sub-197,1,random_dot,119.899045003081,
right,right,12.0,0.0,6.0,left,0.0,3.0290005000133533,,,,,,6.0,0.0,12.0,1.0,,,,,,,,,93.74414275001618,,,,,,,,,93.7385716670251,94.543974292028,95.34632487501948,95.33797858300386,95.33841570801452,95.34632487501948,95.34632487501948,95.34632487501948,,98.37906883301912,left,0.0,3.0290005000133533,,98.37917925001238,98.38747066701762,98.87154700001702,98.87732200001484,,,,,,,,,,,,,,,,,,,,,,,,,,,,,sub-197,1,random_dot,119.899045003081,
left,left,13.0,1.0,6.0,right,0.0,5.445821375004016,,,,,,6.0,1.0,13.0,0.0,,,,,,,,,98.87732200001484,,,,,,,,,98.87192945802236,99.22754000002168,100.02969200001098,100.02153800000087,100.02200725002332,100.02969200001098,100.02969200001098,100.02969200001098,105.02067204201012,105.47893800001476,right,0.0,5.445821375004016,,105.47904983302578,105.4872897080204,105.97148804200695,105.9767719580268,,,,,,,,,,,,,,,,,,,,,,,,,,,,,sub-197,1,random_dot,119.899045003081,
left,left,14.0,0.0,7.0,right,0.0,4.595697916985955,,,,,,7.0,0.0,14.0,0.0,,,,,,,,,105.9767719580268,,,,,,,,,105.97186070802854,106.07757054202376,106.88063141700697,106.87186491701868,106.87249337500543,106.88063141700697,106.88063141700697,106.88063141700697,,111.47923650001758,right,0.0,4.595697916985955,,111.47934995801188,111.48755883300328,111.97182983302628,111.97757720801746,,,,,,,,,,,,,,,,,,,,,,,,,,,,,sub-197,1,random_dot,119.899045003081,
right,right,15.0,1.0,7.0,right,1.0,1.3053520829998888,,,,,,7.0,1.0,15.0,1.0,,,,,,,,,111.97757720801746,,,,,,,,,111.97221333300696,112.77756000001682,113.57057358301245,113.56121379201068,113.56168970800354,113.57057358301245,113.57057358301245,113.57057358301245,,114.8795969580242,right,1.0,1.3053520829998888,,114.88308612501714,114.89213825002662,115.3771262920054,115.38804545800669,,,,,,,,,,,,,,,,,,,,,,,,,,,,,sub-197,1,random_dot,119.899045003081,
left,left,16.0,0.0,8.0,right,0.0,2.5179135409998707,,,,,,8.0,0.0,16.0,0.0,,,,,,,,,115.38804545800669,,,,,,,,,115.37751191700228,116.57805033301702,117.38008412500494,117.37188612500904,117.37236483301967,117.38008412500494,117.38008412500494,117.38008412500494,,119.90575954201633,right,0.0,2.5179135409998707,,119.90888854200604,119.91792025000905,120.40518412500388,120.4118365830218,,,,,,,,,,,,,,,,,,,,,,,,,,,,,sub-197,1,random_dot,119.899045003081,
right,right,17.0,1.0,8.0,left,0.0,4.283240499993553,,,,,,8.0,1.0,17.0,1.0,,,,,,,,,120.4118365830218,,,,,,,,,120.40568475000327,120.75483604200416,121.54671337502076,121.53842395800166,121.53897825002788,121.54671337502076,121.54671337502076,121.54671337502076,,125.8395072920248,left,0.0,4.283240499993553,,125.83962308301123,125.8482654580148,126.33860295801423,126.34430470800726,,,,,,,,,,,,,,,,,,,,,,,,,,,,,sub-197,1,random_dot,119.899045003081,
right,right,18.0,0.0,9.0,right,1.0,5.423998874990502,,,,,,9.0,0.0,18.0,1.0,,,,,,,,,126.34430470800726,,,,,,,,,126.33899450002356,127.13820587500231,127.93109633302085,127.92240120802308,127.9230128750205,127.93109633302085,127.93109633302085,127.93109633302085,132.9211719170271,133.3669403330132,right,1.0,5.423998874990502,,133.37010620802175,133.37557020800887,133.86111137500848,133.8714729170024,,,,,,,,,,,,,,,,,,,,,,,,,,,,,sub-197,1,random_dot,119.899045003081,
left,left,19.0,1.0,9.0,left,1.0,5.376395208004396,,,,,,9.0,1.0,19.0,0.0,,,,,,,,,133.8714729170024,,,,,,,,,133.86151029201574,135.06120354201994,135.86339908302762,135.85545008300687,135.85593462502584,135.86339908302762,135.86339908302762,135.86339908302762,140.84371041701525,141.24668391700834,left,1.0,5.376395208004396,,141.2467970830039,141.2712444170029,141.7550492080045,,,,,,,,,,,,,,,,,,,,,,,,,,,,,,sub-197,1,random_dot,119.899045003081,
,,,,,,,,,,,,,,,,,,,,,,,,,,,,,,,,,,,,,,,,,,,,,,,,,,,,141.75519654201344,141.76290033300756,141.76290033300756,150.92399820801802,space,9.153008042019792,,,,,,,,,,,,,,,,,,,,,,,sub-197,1,random_dot,119.899045003081,
,,,,,,,,,,,,,,,,,,,,,,,,,,,,,,,,,,,,,,,,,,,,,,,,,,,,,,,,,,,150.924133292021,150.9359669580008,150.9359669580008,158.2964036250196,space,7.3553955419920385,,,,,,,,,,,,,,,,sub-197,1,random_dot,119.899045003081,
right,right,0.0,0.0,0.0,right,1.0,2.0005207079811957,,speed,space,3.1828995420073625,,,,,,0.0,0.0,0.0,1.0,0.0,0.0,0.0,1.0,161.531181792001,,,,,,,,,161.5226776250056,161.86180229202728,162.66472458300996,162.6561915000202,162.6567573750217,162.66472458300996,162.66472458300996,162.66472458300996,,164.67334308300633,,,,,,,,,,,,,,,,,,,,,,,158.3176425420097,158.32732187502552,158.32732187502552,161.51351516702562,space,3.1828995420073625,,right,1.0,2.0005207079811957,,,,,sub-197,1,random_dot,119.899045003081,
left,left,1.0,1.0,0.0,right,0.0,4.158079999993788,,speed,space,3.1828995420073625,,,,,,0.0,0.0,0.0,1.0,0.0,1.0,1.0,0.0,164.68201987500652,,,,,,,,,164.6737638330087,165.87203945801593,166.66388187502162,166.6561249580118,166.6565849170147,166.66388187502162,166.66388187502162,166.66388187502162,,170.82422633300305,,,,,,,,,,,,,,,,,,,,,,,,,,,,,,right,0.0,4.158079999993788,,,,,sub-197,1,random_dot,119.899045003081,
left,left,2.0,0.0,1.0,right,0.0,4.49809420798556,,speed,space,3.1828995420073625,,,,,,0.0,0.0,0.0,1.0,1.0,0.0,2.0,0.0,170.832961875014,,,,,,,,,170.82463666700642,171.17197716701776,171.96416025000508,171.95646712501184,171.95694041700335,171.96416025000508,171.96416025000508,171.96416025000508,,176.46450312502566,,,,,,,,,,,,,,,,,,,,,,,,,,,,,,right,0.0,4.49809420798556,,,,,sub-197,1,random_dot,119.899045003081,
right,right,3.0,1.0,1.0,left,0.0,5.082339999993565,,speed,space,3.1828995420073625,,,,,,0.0,0.0,0.0,1.0,1.0,1.0,3.0,1.0,176.48868179201963,,,,,,,,,176.46491766700638,177.26208379201125,178.0644320420106,178.0563494580274,178.05680537500302,178.0644320420106,178.0644320420106,178.0644320420106,183.05545350001196,183.157704000012,,,,,,,,,,,,,,,,,,,,,,,,,,,,,,left,0.0,5.082339999993565,,,,,sub-197,1,random_dot,119.899045003081,
right,right,4.0,0.0,2.0,right,1.0,3.950768207985675,,speed,space,3.1828995420073625,,,,,,0.0,0.0,0.0,1.0,2.0,0.0,4.0,1.0,183.1663769580191,,,,,,,,,183.15812325000297,183.9558171670069,184.74789116700413,184.73982087502367,184.74027920802476,184.74789116700413,184.74789116700413,184.74789116700413,,188.707237708004,,,,,,,,,,,,,,,,,,,,,,,,,,,,,,right,1.0,3.950768207985675,,,,,sub-197,1,random_dot,119.899045003081,
left,left,5.0,1.0,2.0,right,0.0,5.309503791999305,,speed,space,3.1828995420073625,,,,,,0.0,0.0,0.0,1.0,2.0,1.0,5.0,0.0,188.71602408302715,,,,,,,,,188.7076450000168,189.0557539580041,189.84817291700165,189.8398555420281,189.84038966702064,189.84817291700165,189.84817291700165,189.84817291700165,194.83899254200517,195.16423404202212,,,,,,,,,,,,,,,,,,,,,,,,,,,,,,right,0.0,5.309503791999305,,,,,sub-197,1,random_dot,119.899045003081,
right,right,6.0,0.0,3.0,left,0.0,2.392577749997145,,speed,space,3.1828995420073625,,,,,,0.0,0.0,0.0,1.0,3.0,0.0,6.0,1.0,195.17302058302448,,,,,,,,,195.1646939580096,195.5129262080009,196.31542066700055,196.30702195802587,196.30758612501089,196.31542066700055,196.31542066700055,196.31542066700055,,198.71400083301705,,,,,,,,,,,,,,,,,,,,,,,,,,,,,,left,0.0,2.392577749997145,,,,,sub-197,1,random_dot,119.899045003081,
left,left,7.0,1.0,3.0,left,1.0,2.943846375012072,,speed,space,3.1828995420073625,,,,,,0.0,0.0,0.0,1.0,3.0,1.0,7.0,0.0,198.72282550000816,,,,,,,,,198.71440325002183,199.91292470801272,200.7156187920191,200.70692804202557,200.70747250001293,200.7156187920191,200.7156187920191,200.7156187920191,,203.6641590000072,,,,,,,,,,,,,,,,,,,,,,,,,,,,,,left,1.0,2.943846375012072,,,,,sub-197,1,random_dot,119.899045003081,
left,left,8.0,0.0,4.0,left,1.0,5.379036875005113,,speed,space,3.1828995420073625,,,,,,0.0,0.0,0.0,1.0,4.0,0.0,8.0,0.0,203.6730186670029,,,,,,,,,203.66455670801224,204.46252658302544,205.2554370420112,205.24558604200135,205.2461260420096,205.2554370420112,205.2554370420112,205.2554370420112,210.2392856250226,210.6415817500092,,,,,,,,,,,,,,,,,,,,,,,,,,,,,,left,1.0,5.379036875005113,,,,,sub-197,1,random_dot,119.899045003081,
right,right,9.0,1.0,4.0,right,1.0,3.101672874996438,,speed,space,3.1828995420073625,,,,,,0.0,0.0,0.0,1.0,4.0,1.0,9.0,1.0,210.65029204200252,,,,,,,,,210.6420095830108,211.43955095802085,212.2314702500007,212.22358658301528,212.22403675000533,212.2314702500007,212.2314702500007,212.2314702500007,,215.3412249170069,,,,,,,,,,,,,,,,,,,,,,,,,,,,,,right,1.0,3.101672874996438,,,,,sub-197,1,random_dot,119.899045003081,
left,left,10.0,0.0,5.0,right,0.0,2.3473020420060493,,speed,space,3.1828995420073625,,,,,,0.0,0.0,0.0,1.0,5.0,0.0,10.0,0.0,215.34963012501248,,,,,,,,,215.34163020801495,215.68983529202524,216.48145816702163,216.4735460000229,216.4740228330193,216.48145816702163,216.48145816702163,216.48145816702163,,218.83135254200897,,,,,,,,,,,,,,,,,,,,,,,,,,,,,,right,0.0,2.3473020420060493,,,,,sub-197,1,random_dot,119.899045003081,
right,right,11.0,1.0,5.0,right,1.0,2.7254268749966286,,speed,space,3.1828995420073625,,,,,,0.0,0.0,0.0,1.0,5.0,1.0,11.0,1.0,218.83977466702345,,,,,,,,,218.83177237500783,218.9300602080184,219.7312206250208,219.723507333023,219.7239663330256,219.7312206250208,219.7312206250208,219.7312206250208,,222.46738391701365,,,,,,,,,,,,,,,,,,,,,,,,,,,,,,right,1.0,2.7254268749966286,,,,,sub-197,1,random_dot,119.899045003081,
right,right,12.0,0.0,6.0,left,0.0,2.5920400000177324,,speed,space,3.1828995420073625,,,,,,0.0,0.0,0.0,1.0,6.0,0.0,12.0,1.0,222.47278970800107,,,,,,,,,222.46778683300363,222.81302633302403,223.6058568750159,223.5966605420108,223.59712633301388,223.6058568750159,223.6058568750159,223.6058568750159,,226.2077886670013,,,,,,,,,,,,,,,,,,,,,,,,,,,,,,left,0.0,2.5920400000177324,,,,,sub-197,1,random_dot,119.899045003081,
left,left,13.0,1.0,6.0,left,1.0,3.115937833994394,,speed,space,3.1828995420073625,,,,,,0.0,0.0,0.0,1.0,6.0,1.0,13.0,0.0,226.21627187501872,,,,,,,,,226.208201750007,227.0065757080156,227.7986801250081,227.79060462501369,227.79105054200045,227.7986801250081,227.7986801250081,227.7986801250081,,230.92469204202644,,,,,,,,,,,,,,,,,,,,,,,,,,,,,,left,1.0,3.115937833994394,,,,,sub-197,1,random_dot,119.899045003081,
right,right,14.0,0.0,7.0,left,0.0,3.752533208986279,,speed,space,3.1828995420073625,,,,,,0.0,0.0,0.0,1.0,7.0,0.0,14.0,1.0,230.9332092920085,,,,,,,,,230.9250995000184,231.27306125001635,232.06519354201737,232.05725862502004,232.05770858301548,232.06519354201737,232.06519354201737,232.06519354201737,,235.82496666701627,,,,,,,,,,,,,,,,,,,,,,,,,,,,,,left,0.0,3.752533208986279,,,,,sub-197,1,random_dot,119.899045003081,
left,left,15.0,1.0,7.0,right,0.0,4.853917832981097,,speed,space,3.1828995420073625,,,,,,0.0,0.0,0.0,1.0,7.0,1.0,15.0,0.0,235.833529125026,,,,,,,,,235.8253943750169,236.17347341700224,236.965194917022,236.9570457500231,236.9575224580185,236.965194917022,236.965194917022,236.965194917022,,241.8249609580089,,,,,,,,,,,,,,,,,,,,,,,,,,,,,,right,0.0,4.853917832981097,,,,,sub-197,1,random_dot,119.899045003081,
right,right,16.0,0.0,8.0,left,0.0,5.337709957995685,,speed,space,3.1828995420073625,,,,,,0.0,0.0,0.0,1.0,8.0,0.0,16.0,1.0,241.8334411670221,,,,,,,,,241.82537800000864,241.92331850001935,242.7157021670137,242.7074472500244,242.7079599170247,242.7157021670137,242.7157021670137,242.7157021670137,247.7065666670096,248.05881541702547,,,,,,,,,,,,,,,,,,,,,,,,,,,,,,left,0.0,5.337709957995685,,,,,sub-197,1,random_dot,119.899045003081,
left,left,17.0,1.0,8.0,right,0.0,2.308512250019703,,speed,space,3.1828995420073625,,,,,,0.0,0.0,0.0,1.0,8.0,1.0,17.0,0.0,248.0677548330277,,,,,,,,,248.05934741700185,248.85701250002603,249.6483985000232,249.64078204202812,249.6412416250096,249.6483985000232,249.6483985000232,249.6483985000232,,251.95919883300667,,,,,,,,,,,,,,,,,,,,,,,,,,,,,,right,0.0,2.308512250019703,,,,,sub-197,1,random_dot,119.899045003081,
right,right,18.0,0.0,9.0,right,1.0,3.02938783398713,,speed,space,3.1828995420073625,,,,,,0.0,0.0,0.0,1.0,9.0,0.0,18.0,1.0,251.96772466701805,,,,,,,,,251.9596155420004,252.30702920802287,253.0994202500151,253.09075879200827,253.0912976670079,253.0994202500151,253.0994202500151,253.0994202500151,,256.1323041249998,,,,,,,,,,,,,,,,,,,,,,,,,,,,,,right,1.0,3.02938783398713,,,,,sub-197,1,random_dot,119.899045003081,
left,left,19.0,1.0,9.0,left,1.0,4.104372458998114,,speed,space,3.1828995420073625,,,,,,0.0,0.0,0.0,1.0,9.0,1.0,19.0,0.0,256.1567392500001,,,,,,,,,256.13270425001974,256.4806507080212,257.2836398750078,257.2743321250018,257.2748667500273,257.2836398750078,257.2836398750078,257.2836398750078,,261.39181737502804,,,,,,,,,,,,,,,,,,,,,,,,,,,,,,left,1.0,4.104372458998114,,,,,sub-197,1,random_dot,119.899045003081,
left,left,20.0,0.0,10.0,left,1.0,3.508904459013138,,speed,space,3.1828995420073625,,,,,,0.0,0.0,0.0,1.0,10.0,0.0,20.0,0.0,261.40024658301263,,,,,,,,,261.3922308750043,262.1905089170032,262.9826648750168,262.9744816670136,262.9749508330133,262.9826648750168,262.9826648750168,262.9826648750168,,266.4988019580196,,,,,,,,,,,,,,,,,,,,,,,,,,,,,,left,1.0,3.508904459013138,,,,,sub-197,1,random_dot,119.899045003081,
right,right,21.0,1.0,10.0,left,0.0,2.634340874996269,,speed,space,3.1828995420073625,,,,,,0.0,0.0,0.0,1.0,10.0,1.0,21.0,1.0,266.5074750830245,,,,,,,,,266.49920154202846,267.29671279201284,268.08990995801287,268.07988600002136,268.0804350830149,268.08990995801287,268.08990995801287,268.08990995801287,,270.7346158330038,,,,,,,,,,,,,,,,,,,,,,,,,,,,,,left,0.0,2.634340874996269,,,,,sub-197,1,random_dot,119.899045003081,
left,left,22.0,0.0,11.0,left,1.0,3.792346957983682,,speed,space,3.1828995420073625,,,,,,0.0,0.0,0.0,1.0,11.0,0.0,22.0,0.0,270.7400725420157,,,,,,,,,270.7350243750261,270.830455917021,271.63292075000936,271.6245073330065,271.62499750001007,271.63292075000936,271.63292075000936,271.63292075000936,,275.4322888330207,,,,,,,,,,,,,,,,,,,,,,,,,,,,,,left,1.0,3.792346957983682,,,,,sub-197,1,random_dot,119.899045003081,
right,right,23.0,1.0,11.0,right,1.0,3.791310125001474,,speed,space,3.1828995420073625,,,,,,0.0,0.0,0.0,1.0,11.0,1.0,23.0,1.0,275.4404572500207,,,,,,,,,275.4326863750175,275.78098941702046,276.5825999580265,276.5746001670195,276.57507070800057,276.5825999580265,276.5825999580265,276.5825999580265,,280.3761267080263,,,,,,,,,,,,,,,,,,,,,,,,,,,,,,right,1.0,3.791310125001474,,,,,sub-197,1,random_dot,119.899045003081,
left,left,24.0,0.0,12.0,left,1.0,4.480706917005591,,speed,space,3.1828995420073625,,,,,,0.0,0.0,0.0,1.0,12.0,0.0,24.0,0.0,280.3850193750113,,,,,,,,,280.3765325420245,280.7240830420051,281.5160197080113,281.50779441700433,281.508253167005,281.5160197080113,281.5160197080113,281.5160197080113,,285.99922841700027,,,,,,,,,,,,,,,,,,,,,,,,,,,,,,left,1.0,4.480706917005591,,,,,sub-197,1,random_dot,119.899045003081,
right,right,25.0,1.0,12.0,left,0.0,4.365688041987596,,speed,space,3.1828995420073625,,,,,,0.0,0.0,0.0,1.0,12.0,1.0,25.0,1.0,286.00798145800945,,,,,,,,,285.99964145800914,287.197947083012,287.9996834580088,287.99174354202114,287.9922174170206,287.9996834580088,287.9996834580088,287.9996834580088,,292.37566904202686,,,,,,,,,,,,,,,,,,,,,,,,,,,,,,left,0.0,4.365688041987596,,,,,sub-197,1,random_dot,119.899045003081,
left,left,26.0,0.0,13.0,right,0.0,2.3006383329920936,,speed,space,3.1828995420073625,,,,,,0.0,0.0,0.0,1.0,13.0,0.0,26.0,0.0,292.3842161670036,,,,,,,,,292.3760750000074,292.7243336670217,293.5161930420145,293.5082282500225,293.50871441702475,293.5161930420145,293.5161930420145,293.5161930420145,,295.8256380420062,,,,,,,,,,,,,,,,,,,,,,,,,,,,,,right,0.0,2.3006383329920936,,,,,sub-197,1,random_dot,119.899045003081,
right,right,27.0,1.0,13.0,right,1.0,4.793240125000011,,speed,space,3.1828995420073625,,,,,,0.0,0.0,0.0,1.0,13.0,1.0,27.0,1.0,295.83404208300635,,,,,,,,,295.8260582080111,297.02425383302034,297.8163755000278,297.80812491700635,297.80867750002653,297.8163755000278,297.8163755000278,297.8163755000278,,302.61562016702374,,,,,,,,,,,,,,,,,,,,,,,,,,,,,,right,1.0,4.793240125000011,,,,,sub-197,1,random_dot,119.899045003081,
right,right,28.0,0.0,14.0,right,1.0,4.46820974998991,,speed,space,3.1828995420073625,,,,,,0.0,0.0,0.0,1.0,14.0,0.0,28.0,1.0,302.6241999580234,,,,,,,,,302.6160143750021,302.71429216701654,303.50672095801565,303.49812850001035,303.49874641702627,303.50672095801565,303.50672095801565,303.50672095801565,,307.98546337502194,,,,,,,,,,,,,,,,,,,,,,,,,,,,,,right,1.0,4.46820974998991,,,,,sub-197,1,random_dot,119.899045003081,
left,left,29.0,1.0,14.0,right,0.0,5.262528666004073,,speed,space,3.1828995420073625,,,,,,0.0,0.0,0.0,1.0,14.0,1.0,29.0,0.0,307.9908911670209,,,,,,,,,307.985867875017,308.7801462500065,309.5739772920206,309.5638808750082,309.5643559580203,309.5739772920206,309.5739772920206,309.5739772920206,314.55776970801526,314.8430975830124,,,,,,,,,,,,,,,,,,,,,,,,,,,,,,right,0.0,5.262528666004073,,,,,sub-197,1,random_dot,119.899045003081,
right,right,30.0,0.0,15.0,right,1.0,5.030545708024874,,speed,space,3.1828995420073625,,,,,,0.0,0.0,0.0,1.0,15.0,0.0,30.0,1.0,314.8517225830001,,,,,,,,,314.8435170000012,315.1914809170121,315.98338841702207,315.97502037501545,315.9754954580276,315.98338841702207,315.98338841702207,315.98338841702207,320.9634992920037,321.01621466700453,,,,,,,,,,,,,,,,,,,,,,,,,,,,,,right,1.0,5.030545708024874,,,,,sub-197,1,random_dot,119.899045003081,
left,left,31.0,1.0,15.0,left,1.0,3.232450459006941,,speed,space,3.1828995420073625,,,,,,0.0,0.0,0.0,1.0,15.0,1.0,31.0,0.0,321.0249710830103,,,,,,,,,321.01662804200896,321.8151948330051,322.6168914580194,322.6086015420151,322.6090852500056,322.6168914580194,322.6168914580194,322.6168914580194,,325.8596987920173,,,,,,,,,,,,,,,,,,,,,,,,,,,,,,left,1.0,3.232450459006941,,,,,sub-197,1,random_dot,119.899045003081,
left,left,32.0,0.0,16.0,left,1.0,3.457682667009067,,speed,space,3.1828995420073625,,,,,,0.0,0.0,0.0,1.0,16.0,0.0,32.0,0.0,325.8679417080129,,,,,,,,,325.8601338750159,326.658321792027,327.4503757080238,327.4420768750133,327.44254570800695,327.4503757080238,327.4503757080238,327.4503757080238,,330.9102924170147,,,,,,,,,,,,,,,,,,,,,,,,,,,,,,left,1.0,3.457682667009067,,,,,sub-197,1,random_dot,119.899045003081,
right,right,33.0,1.0,16.0,right,1.0,4.274405709002167,,speed,space,3.1828995420073625,,,,,,0.0,0.0,0.0,1.0,16.0,1.0,33.0,1.0,330.9190213330148,,,,,,,,,330.9106957920012,331.708306000015,332.5016002920165,332.4924824170012,332.49294437500066,332.5016002920165,332.5016002920165,332.5016002920165,,336.7831731250044,,,,,,,,,,,,,,,,,,,,,,,,,,,,,,right,1.0,4.274405709002167,,,,,sub-197,1,random_dot,119.899045003081,
right,right,34.0,0.0,17.0,left,0.0,3.327318958006799,,speed,space,3.1828995420073625,,,,,,0.0,0.0,0.0,1.0,17.0,0.0,34.0,1.0,336.7913007500174,,,,,,,,,336.7835706670012,337.9820785000047,338.78484266702435,338.77592575000017,338.7765252920217,338.78484266702435,338.78484266702435,338.78484266702435,,342.1166905000282,,,,,,,,,,,,,,,,,,,,,,,,,,,,,,left,0.0,3.327318958006799,,,,,sub-197,1,random_dot,119.899045003081,
left,left,35.0,1.0,17.0,left,1.0,2.9459410419804044,,speed,space,3.1828995420073625,,,,,,0.0,0.0,0.0,1.0,17.0,1.0,35.0,0.0,342.1247194170137,,,,,,,,,342.11709616699954,342.2141406670271,343.00789412501035,342.9982175420155,342.9986218750128,343.00789412501035,343.00789412501035,343.00789412501035,,345.9597819580231,,,,,,,,,,,,,,,,,,,,,,,,,,,,,,left,1.0,2.9459410419804044,,,,,sub-197,1,random_dot,119.899045003081,
left,left,36.0,0.0,18.0,left,1.0,3.7814899160002815,,speed,space,3.1828995420073625,,,,,,0.0,0.0,0.0,1.0,18.0,0.0,36.0,0.0,345.9685012920236,,,,,,,,,345.96019300000626,346.3084380000073,347.101414417004,347.0926220830006,347.0932367920177,347.101414417004,347.101414417004,347.101414417004,,350.8933595000126,,,,,,,,,,,,,,,,,,,,,,,,,,,,,,left,1.0,3.7814899160002815,,,,,sub-197,1,random_dot,119.899045003081,
right,right,37.0,1.0,18.0,right,1.0,3.7961072080070153,,speed,space,3.1828995420073625,,,,,,0.0,0.0,0.0,1.0,18.0,1.0,37.0,1.0,350.9017855420243,,,,,,,,,350.89375891702366,350.9917089580267,351.78369570799987,351.77597166702617,351.7764524170197,351.78369570799987,351.78369570799987,351.78369570799987,,355.5835997920076,,,,,,,,,,,,,,,,,,,,,,,,,,,,,,right,1.0,3.7961072080070153,,,,,sub-197,1,random_dot,119.899045003081,
left,left,38.0,0.0,19.0,left,1.0,5.690476917021442,,speed,space,3.1828995420073625,,,,,,0.0,0.0,0.0,1.0,19.0,0.0,38.0,0.0,355.5917240830022,,,,,,,,,355.5840068750258,355.6822178750008,356.4747517500073,356.4659178330039,356.4664222499996,356.4747517500073,356.4747517500073,356.4747517500073,361.4584816250135,362.16791033302434,,,,,,,,,,,,,,,,,,,,,,,,,,,,,,left,1.0,5.690476917021442,,,,,sub-197,1,random_dot,119.899045003081,
right,right,39.0,1.0,19.0,left,0.0,5.076139709010022,,speed,space,3.1828995420073625,,,,,,0.0,0.0,0.0,1.0,19.0,1.0,39.0,1.0,362.1768027500075,,,,,,,,,362.1683465830283,363.3655185420066,364.1679117500025,364.1597305830219,364.1602784170245,364.1679117500025,364.1679117500025,364.1679117500025,369.1585693330271,369.250009750016,,,,,,,,,,,,,,,,,,,,,,,,,,,,,,left,0.0,5.076139709010022,,,,,sub-197,1,random_dot,119.899045003081,
right,right,40.0,0.0,20.0,right,1.0,4.383910333010135,,speed,space,3.1828995420073625,,,,,,0.0,0.0,0.0,1.0,20.0,0.0,40.0,1.0,369.2583487920056,,,,,,,,,369.2504333330144,369.5984801670129,370.3916165420087,370.3814253750024,370.3818987080013,370.3916165420087,370.3916165420087,370.3916165420087,,374.78756391702336,,,,,,,,,,,,,,,,,,,,,,,,,,,,,,right,1.0,4.383910333010135,,,,,sub-197,1,random_dot,119.899045003081,
left,left,41.0,1.0,20.0,left,1.0,2.843496541987406,,speed,space,3.1828995420073625,,,,,,0.0,0.0,0.0,1.0,20.0,1.0,41.0,0.0,374.7943001250096,,,,,,,,,374.787981417001,375.5830112080148,376.38437958300347,376.3764427080168,376.3769107080007,376.38437958300347,376.38437958300347,376.38437958300347,,379.23383533302695,,,,,,,,,,,,,,,,,,,,,,,,,,,,,,left,1.0,2.843496541987406,,,,,sub-197,1,random_dot,119.899045003081,
left,left,42.0,0.0,21.0,left,1.0,2.9668750000128057,,speed,space,3.1828995420073625,,,,,,0.0,0.0,0.0,1.0,21.0,0.0,42.0,0.0,379.24204958300106,,,,,,,,,379.23423141700914,380.0325045830105,380.8252573750215,380.8155150000239,380.8160241670266,380.8252573750215,380.8252573750215,380.8252573750215,,383.794347875024,,,,,,,,,,,,,,,,,,,,,,,,,,,,,,left,1.0,2.9668750000128057,,,,,sub-197,1,random_dot,119.899045003081,
right,right,43.0,1.0,21.0,left,0.0,4.419535624998389,,speed,space,3.1828995420073625,,,,,,0.0,0.0,0.0,1.0,21.0,1.0,43.0,1.0,383.8029735000164,,,,,,,,,383.7947545420029,384.99226766702486,385.7851917920052,385.77658958302345,385.7770926670055,385.7851917920052,385.7851917920052,385.7851917920052,,390.2104402080004,,,,,,,,,,,,,,,,,,,,,,,,,,,,,,left,0.0,4.419535624998389,,,,,sub-197,1,random_dot,119.899045003081,
right,right,44.0,0.0,22.0,right,1.0,4.74621929100249,,speed,space,3.1828995420073625,,,,,,0.0,0.0,0.0,1.0,22.0,0.0,44.0,1.0,390.2190220830089,,,,,,,,,390.2108567500254,391.4090307500155,392.20234762501786,392.1935742080095,392.1942050420039,392.20234762501786,392.20234762501786,392.20234762501786,,396.9509474170045,,,,,,,,,,,,,,,,,,,,,,,,,,,,,,right,1.0,4.74621929100249,,,,,sub-197,1,random_dot,119.899045003081,
left,left,45.0,1.0,22.0,left,1.0,5.457637749990681,,speed,space,3.1828995420073625,,,,,,0.0,0.0,0.0,1.0,22.0,1.0,45.0,0.0,396.95903041702695,,,,,,,,,396.9513430830266,398.14928862501984,398.9422536670172,398.9330111250165,398.93350100002135,398.9422536670172,398.9422536670172,398.9422536670172,403.92580195801565,404.4110689580266,,,,,,,,,,,,,,,,,,,,,,,,,,,,,,left,1.0,5.457637749990681,,,,,sub-197,1,random_dot,119.899045003081,
right,right,46.0,0.0,23.0,left,0.0,4.589003500004765,,speed,space,3.1828995420073625,,,,,,0.0,0.0,0.0,1.0,23.0,0.0,46.0,1.0,404.4199522500276,,,,,,,,,404.4116239170253,405.20930158300325,406.00139991700416,405.9934212920198,405.993893958017,406.00139991700416,406.00139991700416,406.00139991700416,,410.59450991702033,,,,,,,,,,,,,,,,,,,,,,,,,,,,,,left,0.0,4.589003500004765,,,,,sub-197,1,random_dot,119.899045003081,
left,left,47.0,1.0,23.0,right,0.0,2.7211772500013467,,speed,space,3.1828995420073625,,,,,,0.0,0.0,0.0,1.0,23.0,1.0,47.0,0.0,410.6032975000271,,,,,,,,,410.5950250000169,411.7930480830255,412.58510591700906,412.5768418330117,412.57731620801496,412.58510591700906,412.58510591700906,412.58510591700906,,415.3110866250063,,,,,,,,,,,,,,,,,,,,,,,,,,,,,,right,0.0,2.7211772500013467,,,,,sub-197,1,random_dot,119.899045003081,
left,left,48.0,0.0,24.0,left,1.0,4.563905832997989,,speed,space,3.1828995420073625,,,,,,0.0,0.0,0.0,1.0,24.0,0.0,48.0,0.0,415.31962454202585,,,,,,,,,415.3114921670058,416.5093884580128,417.30153254201286,417.29361433300073,417.2941236250044,417.30153254201286,417.30153254201286,417.30153254201286,,421.8681260830199,,,,,,,,,,,,,,,,,,,,,,,,,,,,,,left,1.0,4.563905832997989,,,,,sub-197,1,random_dot,119.899045003081,
right,right,49.0,1.0,24.0,right,1.0,5.678645582986064,,speed,space,3.1828995420073625,,,,,,0.0,0.0,0.0,1.0,24.0,1.0,49.0,1.0,421.8765317920188,,,,,,,,,421.8685292920272,422.2156865000143,423.0091510830098,422.9990542080195,422.9995154580101,423.0091510830098,423.0091510830098,423.0091510830098,427.9929422920104,428.69533395802137,,,,,,,,,,,,,,,,,,,,,,,,,,,,,,right,1.0,5.678645582986064,,,,,sub-197,1,random_dot,119.899045003081,
right,right,50.0,0.0,25.0,right,1.0,3.282447541016154,,speed,space,3.1828995420073625,,,,,,0.0,0.0,0.0,1.0,25.0,0.0,50.0,1.0,428.7046517920098,,,,,,,,,428.6960380420205,429.0432665000262,429.8353617500106,429.8271215830173,429.8275909170043,429.8353617500106,429.8353617500106,429.8353617500106,,433.12780212500365,,,,,,,,,,,,,,,,,,,,,,,,,,,,,,right,1.0,3.282447541016154,,,,,sub-197,1,random_dot,119.899045003081,
left,left,51.0,1.0,25.0,left,1.0,3.625023583997972,,speed,space,3.1828995420073625,,,,,,0.0,0.0,0.0,1.0,25.0,1.0,51.0,0.0,433.136326708016,,,,,,,,,433.1282285420166,433.9267528330092,434.71842579200165,434.7105177500053,434.7109978330264,434.71842579200165,434.71842579200165,434.71842579200165,,438.35527562501375,,,,,,,,,,,,,,,,,,,,,,,,,,,,,,left,1.0,3.625023583997972,,,,,sub-197,1,random_dot,119.899045003081,
right,right,52.0,0.0,26.0,left,0.0,5.4476858749985695,,speed,space,3.1828995420073625,,,,,,0.0,0.0,0.0,1.0,26.0,0.0,52.0,1.0,438.3761866670102,,,,,,,,,438.3556732080178,438.6998306250025,439.5026742500195,439.49421325,439.4947653750132,439.5026742500195,439.5026742500195,439.5026742500195,444.49315695802215,444.97741754201706,,,,,,,,,,,,,,,,,,,,,,,,,,,,,,left,0.0,5.4476858749985695,,,,,sub-197,1,random_dot,119.899045003081,
left,left,53.0,1.0,26.0,right,0.0,5.26540591698722,,speed,space,3.1828995420073625,,,,,,0.0,0.0,0.0,1.0,26.0,1.0,53.0,0.0,444.99360579202767,,,,,,,,,444.97796437502257,445.06723804201465,445.8690270420048,445.8608366250119,445.8612998330209,445.8690270420048,445.8690270420048,445.8690270420048,450.8595925000264,451.16108770802384,,,,,,,,,,,,,,,,,,,,,,,,,,,,,,right,0.0,5.26540591698722,,,,,sub-197,1,random_dot,119.899045003081,
left,left,54.0,0.0,27.0,right,0.0,5.320833790989127,,speed,space,3.1828995420073625,,,,,,0.0,0.0,0.0,1.0,27.0,0.0,54.0,0.0,451.1769904580142,,,,,,,,,451.1615952080174,451.9497437920072,452.7429426250165,452.7330028330034,452.7334755420161,452.7429426250165,452.7429426250165,452.7429426250165,457.7267122080084,458.0685373330198,,,,,,,,,,,,,,,,,,,,,,,,,,,,,,right,0.0,5.320833790989127,,,,,sub-197,1,random_dot,119.899045003081,
right,right,55.0,1.0,27.0,right,1.0,2.5566140419978183,,speed,space,3.1828995420073625,,,,,,0.0,0.0,0.0,1.0,27.0,1.0,55.0,1.0,458.0775192920119,,,,,,,,,458.06903979202616,458.8670029580244,459.6597542080272,459.6504223330121,459.6508908329997,459.6597542080272,459.6597542080272,459.6597542080272,,462.21875862500747,,,,,,,,,,,,,,,,,,,,,,,,,,,,,,right,1.0,2.5566140419978183,,,,,sub-197,1,random_dot,119.899045003081,
left,left,56.0,0.0,28.0,left,1.0,5.196430042007705,,speed,space,3.1828995420073625,,,,,,0.0,0.0,0.0,1.0,28.0,0.0,56.0,0.0,462.2272985420132,,,,,,,,,462.21914866700536,463.4167437920114,464.20980766700814,464.1995537920157,464.1999686670024,464.20980766700814,464.20980766700814,464.20980766700814,469.19353825002327,469.4122262500168,,,,,,,,,,,,,,,,,,,,,,,,,,,,,,left,1.0,5.196430042007705,,,,,sub-197,1,random_dot,119.899045003081,
right,right,57.0,1.0,28.0,right,1.0,5.127863583009457,,speed,space,3.1828995420073625,,,,,,0.0,0.0,0.0,1.0,28.0,1.0,57.0,1.0,469.4207539580239,,,,,,,,,469.41264079202665,470.6104987080034,471.40182054199977,471.3941595420183,471.3946338330279,471.40182054199977,471.40182054199977,471.40182054199977,476.38283920800313,476.5363685420016,,,,,,,,,,,,,,,,,,,,,,,,,,,,,,right,1.0,5.127863583009457,,,,,sub-197,1,random_dot,119.899045003081,
right,right,58.0,0.0,29.0,right,1.0,5.260568500001682,,speed,space,3.1828995420073625,,,,,,0.0,0.0,0.0,1.0,29.0,0.0,58.0,1.0,476.5459090830118,,,,,,,,,476.5369212500227,476.8839627080015,477.6859269580164,477.6777233330067,477.67818725001416,477.6859269580164,477.6859269580164,477.6859269580164,482.6770525830216,482.9521190000232,,,,,,,,,,,,,,,,,,,,,,,,,,,,,,right,1.0,5.260568500001682,,,,,sub-197,1,random_dot,119.899045003081,
left,left,59.0,1.0,29.0,left,1.0,2.333611957990797,,speed,space,3.1828995420073625,,,,,,0.0,0.0,0.0,1.0,29.0,1.0,59.0,0.0,482.960425917001,,,,,,,,,482.9525796670059,483.0532758330228,483.8526800000109,483.8445004580135,483.8449788750149,483.8526800000109,483.8526800000109,483.8526800000109,,486.1953903750109,,,,,,,,,,,,,,,,,,,,,,,,,,,,,,left,1.0,2.333611957990797,,,,,sub-197,1,random_dot,119.899045003081,
,,0.0,0.0,0.0,,,,,speed,space,3.1828995420073625,,,,,,0.0,0.0,0.0,1.0,,,,,,,,,,,,,,,,,,,,,,,,,,,,,,,,,,,,,,,,,,,,,,,,,,,,,,,,,,,,sub-197,1,random_dot,119.899045003081,
left,left,0.0,0.0,0.0,left,1.0,2.678691917011747,,accuracy,space,14.319185000000289,,,,,,0.0,1.0,1.0,0.0,0.0,0.0,0.0,0.0,500.56332212500274,,,,,,,,,500.5543037080206,500.8945114580274,501.68665416701697,501.6783704170084,501.6788535000233,501.68665416701697,501.68665416701697,501.68665416701697,,504.3694302920194,,,,,,,,,,,,,,,,,,,,,,,486.2112486250117,486.2194577920018,486.2194577920018,500.5468333750032,space,14.319185000000289,,left,1.0,2.678691917011747,,,,,sub-197,1,random_dot,119.899045003081,
right,right,1.0,1.0,0.0,left,0.0,3.734509874979267,,accuracy,space,14.319185000000289,,,,,,0.0,1.0,1.0,0.0,0.0,1.0,1.0,1.0,504.3775402920146,,,,,,,,,504.3698315830261,504.71755983302137,505.5104308330047,505.5009513750265,505.50149183301255,505.5104308330047,505.5104308330047,505.5104308330047,,509.2554437920044,,,,,,,,,,,,,,,,,,,,,,,,,,,,,,left,0.0,3.734509874979267,,,,,sub-197,1,random_dot,119.899045003081,
left,left,2.0,0.0,1.0,right,0.0,2.6939324160048272,,accuracy,space,14.319185000000289,,,,,,0.0,1.0,1.0,0.0,1.0,0.0,2.0,0.0,509.2611024170183,,,,,,,,,509.2558467920171,509.3536785420147,510.15364858301473,510.1452717920183,510.1457547500031,510.15364858301473,510.15364858301473,510.15364858301473,,512.852776292013,,,,,,,,,,,,,,,,,,,,,,,,,,,,,,right,0.0,2.6939324160048272,,,,,sub-197,1,random_dot,119.899045003081,
right,right,3.0,1.0,1.0,right,1.0,4.930172291991767,,accuracy,space,14.319185000000289,,,,,,0.0,1.0,1.0,0.0,1.0,1.0,3.0,1.0,512.8608565830218,,,,,,,,,512.8531717920268,513.6513607920206,514.4525996670127,514.444956625026,514.4454030830238,514.4525996670127,514.4525996670127,514.4525996670127,,519.3863964580232,,,,,,,,,,,,,,,,,,,,,,,,,,,,,,right,1.0,4.930172291991767,,,,,sub-197,1,random_dot,119.899045003081,
left,left,4.0,0.0,2.0,right,0.0,3.9010952499811538,,accuracy,space,14.319185000000289,,,,,,0.0,1.0,1.0,0.0,2.0,0.0,4.0,0.0,519.4109020830074,,,,,,,,,519.3867951249995,519.4851660830027,520.2867375830247,520.2785316670197,520.279001833027,520.2867375830247,520.2867375830247,520.2867375830247,,524.1962192500068,,,,,,,,,,,,,,,,,,,,,,,,,,,,,,right,0.0,3.9010952499811538,,,,,sub-197,1,random_dot,119.899045003081,
right,right,5.0,1.0,2.0,right,1.0,4.093512999999803,,accuracy,space,14.319185000000289,,,,,,0.0,1.0,1.0,0.0,2.0,1.0,5.0,1.0,524.2048299170274,,,,,,,,,524.196628250007,524.54475679202,525.3371290830255,525.3287740830274,525.3292367080285,525.3371290830255,525.3371290830255,525.3371290830255,,529.4363161670044,,,,,,,,,,,,,,,,,,,,,,,,,,,,,,right,1.0,4.093512999999803,,,,,sub-197,1,random_dot,119.899045003081,
right,right,6.0,0.0,3.0,left,0.0,7.092404708993854,,accuracy,space,14.319185000000289,,,,,,0.0,1.0,1.0,0.0,3.0,0.0,6.0,1.0,529.4449959580088,,,,,,,,,529.4367072500172,530.6345427080232,531.4275956250203,531.4175074170053,531.417999917001,531.4275956250203,531.4275956250203,531.4275956250203,536.4112222080003,538.5305842500238,,,,,,,,,,,,,,,,,,,,,,,,,,,,,,left,0.0,7.092404708993854,,,,,sub-197,1,random_dot,119.899045003081,
left,left,7.0,1.0,3.0,left,1.0,3.867954374989495,,accuracy,space,14.319185000000289,,,,,,0.0,1.0,1.0,0.0,3.0,1.0,7.0,0.0,538.5397765000234,,,,,,,,,538.5312694580061,539.728340792004,540.5211802920094,540.5124856670154,540.5131148330111,540.5211802920094,540.5211802920094,540.5211802920094,,544.3964278750063,,,,,,,,,,,,,,,,,,,,,,,,,,,,,,left,1.0,3.867954374989495,,,,,sub-197,1,random_dot,119.899045003081,
left,left,8.0,0.0,4.0,left,1.0,2.731534417020157,,accuracy,space,14.319185000000289,,,,,,0.0,1.0,1.0,0.0,4.0,0.0,8.0,0.0,544.405133000022,,,,,,,,,544.3968366250047,544.4947788749996,545.2878612500208,545.2792948750139,545.2799215000123,545.2878612500208,545.2878612500208,545.2878612500208,,548.0307569170254,,,,,,,,,,,,,,,,,,,,,,,,,,,,,,left,1.0,2.731534417020157,,,,,sub-197,1,random_dot,119.899045003081,
right,right,9.0,1.0,4.0,left,0.0,3.547224374982761,,accuracy,space,14.319185000000289,,,,,,0.0,1.0,1.0,0.0,4.0,1.0,9.0,1.0,548.0392798750254,,,,,,,,,548.0311682920146,549.2285488750204,550.0202137080196,550.0123023750202,550.0127632080112,550.0202137080196,550.0202137080196,550.0202137080196,,553.5711060000176,,,,,,,,,,,,,,,,,,,,,,,,,,,,,,left,0.0,3.547224374982761,,,,,sub-197,1,random_dot,119.899045003081,
right,right,10.0,0.0,5.0,left,0.0,2.5967030830215663,,accuracy,space,14.319185000000289,,,,,,0.0,1.0,1.0,0.0,5.0,0.0,10.0,1.0,553.5798515000206,,,,,,,,,553.5715058750066,553.6692577920039,554.4706867500208,554.4625872920151,554.463050750026,554.4706867500208,554.4706867500208,554.4706867500208,,557.0700817080215,,,,,,,,,,,,,,,,,,,,,,,,,,,,,,left,0.0,2.5967030830215663,,,,,sub-197,1,random_dot,119.899045003081,
left,left,11.0,1.0,5.0,right,0.0,3.742268749978393,,accuracy,space,14.319185000000289,,,,,,0.0,1.0,1.0,0.0,5.0,1.0,11.0,0.0,557.0787496250123,,,,,,,,,557.0704961670272,557.868295250024,558.661559167027,558.6520400000154,558.6526030420209,558.661559167027,558.661559167027,558.661559167027,,562.4133678330109,,,,,,,,,,,,,,,,,,,,,,,,,,,,,,right,0.0,3.742268749978393,,,,,sub-197,1,random_dot,119.899045003081,
right,right,12.0,0.0,6.0,right,1.0,1.3918955419794656,,accuracy,space,14.319185000000289,,,,,,0.0,1.0,1.0,0.0,6.0,0.0,12.0,1.0,562.4214888750284,,,,,,,,,562.4137750000227,562.5116157920274,563.3039102500188,563.2957896250009,563.2962500420108,563.3039102500188,563.3039102500188,563.3039102500188,,564.7067550420179,,,,,,,,,,,,,,,,,,,,,,,,,,,,,,right,1.0,1.3918955419794656,,,,,sub-197,1,random_dot,119.899045003081,
left,left,13.0,1.0,6.0,right,0.0,1.4773061249870807,,accuracy,space,14.319185000000289,,,,,,0.0,1.0,1.0,0.0,6.0,1.0,13.0,0.0,564.7282348330191,,,,,,,,,564.7071850830107,565.9019811250037,566.6947420420183,566.6850513750105,566.6855061250099,566.6947420420183,566.6947420420183,566.6947420420183,,568.1800214170071,,,,,,,,,,,,,,,,,,,,,,,,,,,,,,right,0.0,1.4773061249870807,,,,,sub-197,1,random_dot,119.899045003081,
left,left,14.0,0.0,7.0,right,0.0,1.891559541982133,,accuracy,space,14.319185000000289,,,,,,0.0,1.0,1.0,0.0,7.0,0.0,14.0,0.0,568.1883831670275,,,,,,,,,568.1804260420031,568.9785745000117,569.7709327500197,569.7626898750023,569.7631807500147,569.7709327500197,569.7709327500197,569.7709327500197,,571.6751840830257,,,,,,,,,,,,,,,,,,,,,,,,,,,,,,right,0.0,1.891559541982133,,,,,sub-197,1,random_dot,119.899045003081,
right,right,15.0,1.0,7.0,right,1.0,2.700144665985136,,accuracy,space,14.319185000000289,,,,,,0.0,1.0,1.0,0.0,7.0,1.0,15.0,1.0,571.6800191250222,,,,,,,,,571.67558512502,572.8688135420089,573.6704245000146,573.6625606670277,573.6630252920149,573.6704245000146,573.6704245000146,573.6704245000146,,576.3805315830105,,,,,,,,,,,,,,,,,,,,,,,,,,,,,,right,1.0,2.700144665985136,,,,,sub-197,1,random_dot,119.899045003081,
right,right,16.0,0.0,8.0,right,1.0,1.905434582993621,,accuracy,space,14.319185000000289,,,,,,0.0,1.0,1.0,0.0,8.0,0.0,16.0,1.0,576.3890790830192,,,,,,,,,576.3809621250257,576.4787837500044,577.2711922920134,577.2628023750149,577.2632530420087,577.2711922920134,577.2711922920134,577.2711922920134,,579.180188667,,,,,,,,,,,,,,,,,,,,,,,,,,,,,,right,1.0,1.905434582993621,,,,,sub-197,1,random_dot,119.899045003081,
left,left,17.0,1.0,8.0,left,1.0,4.536678584001493,,accuracy,space,14.319185000000289,,,,,,0.0,1.0,1.0,0.0,8.0,1.0,17.0,0.0,579.1889818330237,,,,,,,,,579.1805900000036,580.3788900830259,581.1707023330091,581.1627817500266,581.1632375000045,581.1707023330091,581.1707023330091,581.1707023330091,,585.7134147500037,,,,,,,,,,,,,,,,,,,,,,,,,,,,,,left,1.0,4.536678584001493,,,,,sub-197,1,random_dot,119.899045003081,
right,right,18.0,0.0,9.0,right,1.0,4.164369167003315,,accuracy,space,14.319185000000289,,,,,,0.0,1.0,1.0,0.0,9.0,0.0,18.0,1.0,585.7218821670103,,,,,,,,,585.7138266670227,586.9120695000165,587.7046935000108,587.6964003330213,587.6968720830046,587.7046935000108,587.7046935000108,587.7046935000108,,591.8713367920136,,,,,,,,,,,,,,,,,,,,,,,,,,,,,,right,1.0,4.164369167003315,,,,,sub-197,1,random_dot,119.899045003081,
left,left,19.0,1.0,9.0,left,1.0,5.204870582994772,,accuracy,space,14.319185000000289,,,,,,0.0,1.0,1.0,0.0,9.0,1.0,19.0,0.0,591.8954462500114,,,,,,,,,591.8717407080112,592.6691714580229,593.4716105830157,593.463144917012,593.4636759170098,593.4716105830157,593.4716105830157,593.4716105830157,598.4621977080242,598.6806109170138,,,,,,,,,,,,,,,,,,,,,,,,,,,,,,left,1.0,5.204870582994772,,,,,sub-197,1,random_dot,119.899045003081,
right,right,20.0,0.0,10.0,left,0.0,5.424425375007559,,accuracy,space,14.319185000000289,,,,,,0.0,1.0,1.0,0.0,10.0,0.0,20.0,1.0,598.6890498750145,,,,,,,,,598.6810252080031,598.779212375026,599.5712105420243,599.5630814580072,599.5635558750073,599.5712105420243,599.5712105420243,599.5712105420243,604.5620327920187,604.998289583018,,,,,,,,,,,,,,,,,,,,,,,,,,,,,,left,0.0,5.424425375007559,,,,,sub-197,1,random_dot,119.899045003081,
left,left,21.0,1.0,10.0,left,1.0,3.094797041005222,,accuracy,space,14.319185000000289,,,,,,0.0,1.0,1.0,0.0,10.0,1.0,21.0,0.0,605.0068005000066,,,,,,,,,604.9987534579996,605.0960218750115,605.8878507920017,605.8796279170201,605.8800905000244,605.8878507920017,605.8878507920017,605.8878507920017,,608.9874971670215,,,,,,,,,,,,,,,,,,,,,,,,,,,,,,left,1.0,3.094797041005222,,,,,sub-197,1,random_dot,119.899045003081,
right,right,22.0,0.0,11.0,left,0.0,3.923736291006208,,accuracy,space,14.319185000000289,,,,,,0.0,1.0,1.0,0.0,11.0,0.0,22.0,1.0,608.9962806670228,,,,,,,,,608.987888750009,609.3355314580258,610.128927792015,610.1183467920055,610.1187387920218,610.128927792015,610.128927792015,610.128927792015,,614.0549372080131,,,,,,,,,,,,,,,,,,,,,,,,,,,,,,left,0.0,3.923736291006208,,,,,sub-197,1,random_dot,119.899045003081,
left,left,23.0,1.0,11.0,left,1.0,3.23455974998069,,accuracy,space,14.319185000000289,,,,,,0.0,1.0,1.0,0.0,11.0,1.0,23.0,0.0,614.0789696250285,,,,,,,,,614.0553461670061,614.4022754580074,615.1954502080043,615.1851952500001,615.1856775420019,615.1954502080043,615.1954502080043,615.1954502080043,,618.4404285000055,,,,,,,,,,,,,,,,,,,,,,,,,,,,,,left,1.0,3.23455974998069,,,,,sub-197,1,random_dot,119.899045003081,
left,left,24.0,0.0,12.0,right,0.0,4.933801625011256,,accuracy,space,14.319185000000289,,,,,,0.0,1.0,1.0,0.0,12.0,0.0,24.0,0.0,618.4457705000241,,,,,,,,,618.4408297080081,618.535917167028,619.328825708013,619.3196538750199,619.3201521670271,619.328825708013,619.328825708013,619.328825708013,,624.2648308750067,,,,,,,,,,,,,,,,,,,,,,,,,,,,,,right,0.0,4.933801625011256,,,,,sub-197,1,random_dot,119.899045003081,
right,right,25.0,1.0,12.0,right,1.0,4.453995208983542,,accuracy,space,14.319185000000289,,,,,,0.0,1.0,1.0,0.0,12.0,1.0,25.0,1.0,624.2732917920221,,,,,,,,,624.2652340000204,624.6127883330046,625.4049831670127,625.3970115000266,625.3974740420235,625.4049831670127,625.4049831670127,625.4049831670127,,629.8642520830035,,,,,,,,,,,,,,,,,,,,,,,,,,,,,,right,1.0,4.453995208983542,,,,,sub-197,1,random_dot,119.899045003081,
right,right,26.0,0.0,13.0,right,1.0,3.94715612498112,,accuracy,space,14.319185000000289,,,,,,0.0,1.0,1.0,0.0,13.0,0.0,26.0,1.0,629.8728729170107,,,,,,,,,629.864648250019,629.9627454580041,630.7551753750013,630.7472222080105,630.7477710420208,630.7551753750013,630.7551753750013,630.7551753750013,,634.7047592920135,,,,,,,,,,,,,,,,,,,,,,,,,,,,,,right,1.0,3.94715612498112,,,,,sub-197,1,random_dot,119.899045003081,
left,left,27.0,1.0,13.0,right,0.0,5.533158417005325,,accuracy,space,14.319185000000289,,,,,,0.0,1.0,1.0,0.0,13.0,1.0,27.0,0.0,634.7135432080249,,,,,,,,,634.7051733330009,634.7958000000217,635.5881592080113,635.5802968330099,635.5807733330003,635.5881592080113,635.5881592080113,635.5881592080113,640.5795032080205,641.1317703750101,,,,,,,,,,,,,,,,,,,,,,,,,,,,,,right,0.0,5.533158417005325,,,,,sub-197,1,random_dot,119.899045003081,
left,left,28.0,0.0,14.0,left,1.0,5.33528795800521,,accuracy,space,14.319185000000289,,,,,,0.0,1.0,1.0,0.0,14.0,0.0,28.0,0.0,641.1405837920029,,,,,,,,,641.1322986250161,642.3296020000125,643.1211535000184,643.1135929170123,643.1140495420259,643.1211535000184,643.1211535000184,643.1211535000184,648.101969292009,648.4652117500082,,,,,,,,,,,,,,,,,,,,,,,,,,,,,,left,1.0,5.33528795800521,,,,,sub-197,1,random_dot,119.899045003081,
right,right,29.0,1.0,14.0,right,1.0,1.369551208015764,,accuracy,space,14.319185000000289,,,,,,0.0,1.0,1.0,0.0,14.0,1.0,29.0,1.0,648.4742760000227,,,,,,,,,648.4657390830107,649.2628863750142,650.0551008330076,650.04707375,650.047531875025,650.0551008330076,650.0551008330076,650.0551008330076,,651.4313493330264,,,,,,,,,,,,,,,,,,,,,,,,,,,,,,right,1.0,1.369551208015764,,,,,sub-197,1,random_dot,119.899045003081,
right,right,30.0,0.0,15.0,right,1.0,3.9199909169983584,,accuracy,space,14.319185000000289,,,,,,0.0,1.0,1.0,0.0,15.0,0.0,30.0,1.0,651.4397303750156,,,,,,,,,651.4317588750273,651.7797776670195,652.572617458005,652.5639964170114,652.564557833015,652.572617458005,652.572617458005,652.572617458005,,656.497768583009,,,,,,,,,,,,,,,,,,,,,,,,,,,,,,right,1.0,3.9199909169983584,,,,,sub-197,1,random_dot,119.899045003081,
left,left,31.0,1.0,15.0,left,1.0,4.221211833006237,,accuracy,space,14.319185000000289,,,,,,0.0,1.0,1.0,0.0,15.0,1.0,31.0,0.0,656.5062082080112,,,,,,,,,656.4981648329995,656.8368074170139,657.6386409580009,657.6305769170285,657.63104591702,657.6386409580009,657.6386409580009,657.6386409580009,,661.8645892920031,,,,,,,,,,,,,,,,,,,,,,,,,,,,,,left,1.0,4.221211833006237,,,,,sub-197,1,random_dot,119.899045003081,
left,left,32.0,0.0,16.0,left,1.0,5.371291792020202,,accuracy,space,14.319185000000289,,,,,,0.0,1.0,1.0,0.0,16.0,0.0,32.0,0.0,661.8730142080167,,,,,,,,,661.8650120420207,661.9634728750098,662.7566218750144,662.7475576249999,662.7480102500122,662.7566218750144,662.7566218750144,662.7566218750144,667.7465482080006,668.1323119580047,,,,,,,,,,,,,,,,,,,,,,,,,,,,,,left,1.0,5.371291792020202,,,,,sub-197,1,random_dot,119.899045003081,
right,right,33.0,1.0,16.0,right,1.0,5.279349666991038,,accuracy,space,14.319185000000289,,,,,,0.0,1.0,1.0,0.0,16.0,1.0,33.0,1.0,668.1408980830165,,,,,,,,,668.1328239580034,668.9302845000057,669.721883708,669.7140276670107,669.7145017500152,669.721883708,669.721883708,669.721883708,674.7023397920129,675.0052794580115,,,,,,,,,,,,,,,,,,,,,,,,,,,,,,right,1.0,5.279349666991038,,,,,sub-197,1,random_dot,119.899045003081,
right,right,34.0,0.0,17.0,right,1.0,2.4997545419901144,,accuracy,space,14.319185000000289,,,,,,0.0,1.0,1.0,0.0,17.0,0.0,34.0,1.0,675.0140560420114,,,,,,,,,675.0058002920123,676.2038915420126,677.0057986250031,676.9976337080006,676.9981062920124,677.0057986250031,677.0057986250031,677.0057986250031,,679.5148862500209,,,,,,,,,,,,,,,,,,,,,,,,,,,,,,right,1.0,2.4997545419901144,,,,,sub-197,1,random_dot,119.899045003081,
left,left,35.0,1.0,17.0,left,1.0,4.353174416988622,,accuracy,space,14.319185000000289,,,,,,0.0,1.0,1.0,0.0,17.0,1.0,35.0,0.0,679.523350708012,,,,,,,,,679.5152982920117,679.6140562500223,680.4061097080121,680.397654542001,680.398197167,680.4061097080121,680.4061097080121,680.4061097080121,,684.7651948750135,,,,,,,,,,,,,,,,,,,,,,,,,,,,,,left,1.0,4.353174416988622,,,,,sub-197,1,random_dot,119.899045003081,
right,right,36.0,0.0,18.0,left,0.0,4.2884492079901975,,accuracy,space,14.319185000000289,,,,,,0.0,1.0,1.0,0.0,18.0,0.0,36.0,1.0,684.7737748750078,,,,,,,,,684.7655928330205,685.963937417022,686.7557711670233,686.7479042500199,686.7483597080281,686.7557711670233,686.7557711670233,686.7557711670233,,691.0484969580139,,,,,,,,,,,,,,,,,,,,,,,,,,,,,,left,0.0,4.2884492079901975,,,,,sub-197,1,random_dot,119.899045003081,
left,left,37.0,1.0,18.0,left,1.0,1.611474999983329,,accuracy,space,14.319185000000289,,,,,,0.0,1.0,1.0,0.0,18.0,1.0,37.0,0.0,691.0570152080036,,,,,,,,,691.0489059580141,691.1472399580234,691.9401954170025,691.9314860000159,691.9321031250001,691.9401954170025,691.9401954170025,691.9401954170025,,693.5555079170153,,,,,,,,,,,,,,,,,,,,,,,,,,,,,,left,1.0,1.611474999983329,,,,,sub-197,1,random_dot,119.899045003081,
left,left,38.0,0.0,19.0,left,1.0,2.9791104159958195,,accuracy,space,14.319185000000289,,,,,,0.0,1.0,1.0,0.0,19.0,0.0,38.0,0.0,693.563486167026,,,,,,,,,693.5559058750223,694.3537260000012,695.1554070420098,695.1477604579995,695.1482330420113,695.1554070420098,695.1554070420098,695.1554070420098,,698.1389090000011,,,,,,,,,,,,,,,,,,,,,,,,,,,,,,left,1.0,2.9791104159958195,,,,,sub-197,1,random_dot,119.899045003081,
right,right,39.0,1.0,19.0,left,0.0,4.9507817499979865,,accuracy,space,14.319185000000289,,,,,,0.0,1.0,1.0,0.0,19.0,1.0,39.0,1.0,698.1470198330062,,,,,,,,,698.1393057500245,698.4874482080049,699.2896685420128,699.2813295000233,699.2817911670136,699.2896685420128,699.2896685420128,699.2896685420128,,704.2543606250256,,,,,,,,,,,,,,,,,,,,,,,,,,,,,,left,0.0,4.9507817499979865,,,,,sub-197,1,random_dot,119.899045003081,
left,left,40.0,0.0,20.0,right,0.0,4.788919665996218,,accuracy,space,14.319185000000289,,,,,,0.0,1.0,1.0,0.0,20.0,0.0,40.0,0.0,704.2638040000165,,,,,,,,,704.2547723750176,704.3467097920075,705.1388670000015,705.1312712920189,705.1317667920084,705.1388670000015,705.1388670000015,705.1388670000015,,709.9321624580189,,,,,,,,,,,,,,,,,,,,,,,,,,,,,,right,0.0,4.788919665996218,,,,,sub-197,1,random_dot,119.899045003081,
right,right,41.0,1.0,20.0,right,1.0,5.087271083990345,,accuracy,space,14.319185000000289,,,,,,0.0,1.0,1.0,0.0,20.0,1.0,41.0,1.0,709.9406267920276,,,,,,,,,709.9325640830211,711.130704500014,711.922985333018,711.914845042018,711.9153186670155,711.922985333018,711.922985333018,711.922985333018,716.9139463330212,717.0157179580128,,,,,,,,,,,,,,,,,,,,,,,,,,,,,,right,1.0,5.087271083990345,,,,,sub-197,1,random_dot,119.899045003081,
left,left,42.0,0.0,21.0,left,1.0,3.208286666980712,,accuracy,space,14.319185000000289,,,,,,0.0,1.0,1.0,0.0,21.0,0.0,42.0,0.0,717.0241994580138,,,,,,,,,717.0161335420271,718.2143615000241,719.0062350420048,718.9982793330273,718.9987480000127,719.0062350420048,719.0062350420048,719.0062350420048,,722.2266407500138,,,,,,,,,,,,,,,,,,,,,,,,,,,,,,left,1.0,3.208286666980712,,,,,sub-197,1,random_dot,119.899045003081,
right,right,43.0,1.0,21.0,right,1.0,2.230214042006992,,accuracy,space,14.319185000000289,,,,,,0.0,1.0,1.0,0.0,21.0,1.0,43.0,1.0,722.2327550830087,,,,,,,,,722.227051917027,723.0212523750088,723.8235551250109,723.8153030000103,723.8158346670098,723.8235551250109,723.8235551250109,723.8235551250109,,726.0561778750271,,,,,,,,,,,,,,,,,,,,,,,,,,,,,,right,1.0,2.230214042006992,,,,,sub-197,1,random_dot,119.899045003081,
right,right,44.0,0.0,22.0,right,1.0,3.058138708001934,,accuracy,space,14.319185000000289,,,,,,0.0,1.0,1.0,0.0,22.0,0.0,44.0,1.0,726.0647855000279,,,,,,,,,726.0565818750183,727.2543457920256,728.046616083011,728.0383610000135,728.0388627920183,728.046616083011,728.046616083011,728.046616083011,,731.1316500829998,,,,,,,,,,,,,,,,,,,,,,,,,,,,,,right,1.0,3.058138708001934,,,,,sub-197,1,random_dot,119.899045003081,
left,left,45.0,1.0,22.0,right,0.0,3.2407881669932976,,accuracy,space,14.319185000000289,,,,,,0.0,1.0,1.0,0.0,22.0,1.0,45.0,0.0,731.1477537500032,,,,,,,,,731.132037583011,732.3212663750164,733.1240753750026,733.1154710830015,733.1160887920123,733.1240753750026,733.1240753750026,733.1240753750026,,736.37577766701,,,,,,,,,,,,,,,,,,,,,,,,,,,,,,right,0.0,3.2407881669932976,,,,,sub-197,1,random_dot,119.899045003081,
right,right,46.0,0.0,23.0,right,1.0,3.8139020829985375,,accuracy,space,14.319185000000289,,,,,,0.0,1.0,1.0,0.0,23.0,0.0,46.0,1.0,736.3974267500162,,,,,,,,,736.3761819170031,736.7201427920081,737.5140124580066,737.5034962500213,737.5039538330166,737.5140124580066,737.5140124580066,737.5140124580066,,741.3325173750054,,,,,,,,,,,,,,,,,,,,,,,,,,,,,,right,1.0,3.8139020829985375,,,,,sub-197,1,random_dot,119.899045003081,
left,left,47.0,1.0,23.0,right,0.0,5.683682208007667,,accuracy,space,14.319185000000289,,,,,,0.0,1.0,1.0,0.0,23.0,1.0,47.0,0.0,741.3410925420176,,,,,,,,,741.332923583017,741.4313439580146,742.223175458028,742.2152868330013,742.2157445830235,742.223175458028,742.223175458028,742.223175458028,747.2144085830078,747.9164219580125,,,,,,,,,,,,,,,,,,,,,,,,,,,,,,right,0.0,5.683682208007667,,,,,sub-197,1,random_dot,119.899045003081,
left,left,48.0,0.0,24.0,left,1.0,3.875091291993158,,accuracy,space,14.319185000000289,,,,,,0.0,1.0,1.0,0.0,24.0,0.0,48.0,0.0,747.9249481670267,,,,,,,,,747.9168487920251,748.7147564580082,749.5066825000104,749.4985185420082,749.4989715000265,749.5066825000104,749.5066825000104,749.5066825000104,,753.3928210000158,,,,,,,,,,,,,,,,,,,,,,,,,,,,,,left,1.0,3.875091291993158,,,,,sub-197,1,random_dot,119.899045003081,
right,right,49.0,1.0,24.0,right,1.0,5.381623708992265,,accuracy,space,14.319185000000289,,,,,,0.0,1.0,1.0,0.0,24.0,1.0,49.0,1.0,753.4144879170053,,,,,,,,,753.393242250022,753.7380576670112,754.5308878750075,754.5215213750198,754.5220121670282,754.5308878750075,754.5308878750075,754.5308878750075,759.5145610830223,759.9165522920084,,,,,,,,,,,,,,,,,,,,,,,,,,,,,,right,1.0,5.381623708992265,,,,,sub-197,1,random_dot,119.899045003081,
left,left,50.0,0.0,25.0,left,1.0,2.141684250003891,,accuracy,space,14.319185000000289,,,,,,0.0,1.0,1.0,0.0,25.0,0.0,50.0,0.0,759.9252079170255,,,,,,,,,759.9170758330147,760.264711833006,761.0563826250145,761.0487210420251,761.0491955830075,761.0563826250145,761.0563826250145,761.0563826250145,,763.2017382500053,,,,,,,,,,,,,,,,,,,,,,,,,,,,,,left,1.0,2.141684250003891,,,,,sub-197,1,random_dot,119.899045003081,
right,right,51.0,1.0,25.0,right,1.0,1.4427592080028262,,accuracy,space,14.319185000000289,,,,,,0.0,1.0,1.0,0.0,25.0,1.0,51.0,1.0,763.2147803330154,,,,,,,,,763.2020970420272,764.3980159580242,765.1901845000102,765.1820403750171,765.1824977080105,765.1901845000102,765.1901845000102,765.1901845000102,,766.6398917500046,,,,,,,,,,,,,,,,,,,,,,,,,,,,,,right,1.0,1.4427592080028262,,,,,sub-197,1,random_dot,119.899045003081,
right,right,52.0,0.0,26.0,right,1.0,1.933833749993937,,accuracy,space,14.319185000000289,,,,,,0.0,1.0,1.0,0.0,26.0,0.0,52.0,1.0,766.6479394170165,,,,,,,,,766.6402870420134,767.8380756670085,768.6407943330123,768.6323707080155,768.6328766670194,768.6407943330123,768.6407943330123,768.6407943330123,,770.5830425420136,,,,,,,,,,,,,,,,,,,,,,,,,,,,,,right,1.0,1.933833749993937,,,,,sub-197,1,random_dot,119.899045003081,
left,left,53.0,1.0,26.0,right,0.0,3.355350124998949,,accuracy,space,14.319185000000289,,,,,,0.0,1.0,1.0,0.0,26.0,1.0,53.0,0.0,770.5917777080031,,,,,,,,,770.5834472080169,771.7817912920145,772.5742161250091,772.5655823330162,772.5660558330128,772.5742161250091,772.5742161250091,772.5742161250091,,775.933111875027,,,,,,,,,,,,,,,,,,,,,,,,,,,,,,right,0.0,3.355350124998949,,,,,sub-197,1,random_dot,119.899045003081,
left,left,54.0,0.0,27.0,right,0.0,2.9766684169881046,,accuracy,space,14.319185000000289,,,,,,0.0,1.0,1.0,0.0,27.0,0.0,54.0,0.0,775.941680708027,,,,,,,,,775.9335221670044,777.1315712080104,777.9244015000004,777.9158303750155,777.9163576250139,777.9244015000004,777.9244015000004,777.9244015000004,,780.9067453750176,,,,,,,,,,,,,,,,,,,,,,,,,,,,,,right,0.0,2.9766684169881046,,,,,sub-197,1,random_dot,119.899045003081,
right,right,55.0,1.0,27.0,right,1.0,3.5325190000003204,,accuracy,space,14.319185000000289,,,,,,0.0,1.0,1.0,0.0,27.0,1.0,55.0,1.0,780.9150155000098,,,,,,,,,780.9071329580038,781.0074990000285,781.8073747080052,781.7990540000028,781.7995913750201,781.8073747080052,781.8073747080052,781.8073747080052,,785.3498633750132,,,,,,,,,,,,,,,,,,,,,,,,,,,,,,right,1.0,3.5325190000003204,,,,,sub-197,1,random_dot,119.899045003081,
left,left,56.0,0.0,28.0,right,0.0,3.182704291975824,,accuracy,space,14.319185000000289,,,,,,0.0,1.0,1.0,0.0,28.0,0.0,56.0,0.0,785.358304333,,,,,,,,,785.3502843330207,786.1485732920119,786.9404423750238,786.9325962920266,786.9330705830071,786.9404423750238,786.9404423750238,786.9404423750238,,790.1334447080153,,,,,,,,,,,,,,,,,,,,,,,,,,,,,,right,0.0,3.182704291975824,,,,,sub-197,1,random_dot,119.899045003081,
right,right,57.0,1.0,28.0,right,1.0,5.307926792011131,,accuracy,space,14.319185000000289,,,,,,0.0,1.0,1.0,0.0,28.0,1.0,57.0,1.0,790.1422595420154,,,,,,,,,790.1338442500273,790.4820770420192,791.2738626250066,791.2658026670106,791.2662659170164,791.2738626250066,791.2738626250066,791.2738626250066,796.2541082500247,796.5845962920284,,,,,,,,,,,,,,,,,,,,,,,,,,,,,,right,1.0,5.307926792011131,,,,,sub-197,1,random_dot,119.899045003081,
left,left,58.0,0.0,29.0,left,1.0,4.3210750419821125,,accuracy,space,14.319185000000289,,,,,,0.0,1.0,1.0,0.0,29.0,0.0,58.0,0.0,796.5936291670077,,,,,,,,,796.5851777920034,796.6818037080229,797.4751759170031,797.4664352920081,797.4670674580266,797.4751759170031,797.4751759170031,797.4751759170031,,801.8001214580145,,,,,,,,,,,,,,,,,,,,,,,,,,,,,,left,1.0,4.3210750419821125,,,,,sub-197,1,random_dot,119.899045003081,
right,right,59.0,1.0,29.0,right,1.0,4.997276207985124,,accuracy,space,14.319185000000289,,,,,,0.0,1.0,1.0,0.0,29.0,1.0,59.0,1.0,801.8084890420141,,,,,,,,,801.800527458021,802.148646125017,802.9409313330252,802.9328131250222,802.9332812920038,802.9409313330252,802.9409313330252,802.9409313330252,807.9320063750201,807.9404892920284,,,,,,,,,,,,,,,,,,,,,,,,,,,,,,right,1.0,4.997276207985124,,,,,sub-197,1,random_dot,119.899045003081,
,,1.0,1.0,0.0,,,,,accuracy,space,14.319185000000289,,,,,,0.0,1.0,1.0,0.0,,,,,,,,,,,,,,,,,,,,,,,,,,,,,,,,,,,,,,,,,,,,,,,,,,,,,,,,,,,,sub-197,1,random_dot,119.899045003081,
,,,,,,,,,,,,,,,,,,,,,,,,,,,,,,,,,,,,,,,,,,,,,,,,,,,,,,,,,,,,,,,,,,,,,,,,,,,,,807.947074458003,807.9563376250153,812.9492945420207,sub-197,1,random_dot,119.899045003081,
