direction,corrAns,thisN,thisTrialN,thisRepN,respDots.keys,respDots.corr,respDots.rt,respDots.duration,randomInstr,respRandomInstr.keys,respRandomInstr.rt,respRandomInstr.duration,practice_trials.thisRepN,practice_trials.thisTrialN,practice_trials.thisN,practice_trials.thisIndex,instr_trials.thisRepN,instr_trials.thisTrialN,instr_trials.thisN,instr_trials.thisIndex,test_trials.thisRepN,test_trials.thisTrialN,test_trials.thisN,test_trials.thisIndex,thisRow.t,notes,general_instruction.started,textGeneralInstr.started,respGeneralInstr.started,general_instruction.stopped,respGeneralInstr.keys,respGeneralInstr.rt,respGeneralInstr.duration,ITI.started,fixcross.started,fixcross.stopped,ITI.stopped,dots.started,backgroundDots.started,stimulusDots.started,respDots.started,stimulusDots.stopped,dots.stopped,practice_trials.respDots.keys,practice_trials.respDots.corr,practice_trials.respDots.rt,practice_trials.respDots.duration,feedback.started,textFeedback.started,feedback.stopped,textFeedback.stopped,info.started,textInfo.started,keyRespInfo.started,info.stopped,keyRespInfo.keys,keyRespInfo.rt,keyRespInfo.duration,test_instruction.started,textTestInstr.started,respTestInstr.started,test_instruction.stopped,respTestInstr.keys,respTestInstr.rt,respTestInstr.duration,random_instruction.started,textRandomInstr.started,respRandomInstr.started,random_instruction.stopped,instr_trials.respRandomInstr.keys,instr_trials.respRandomInstr.rt,instr_trials.respRandomInstr.duration,test_trials.respDots.keys,test_trials.respDots.corr,test_trials.respDots.rt,test_trials.respDots.duration,goodbye.started,textGoodbye.started,goodbye.stopped,participant,session,expName,frameRate,Unnamed: 87
,,,,,,,,,,,,,,,,,,,,,,,,,,,0.0171758540000155,0.0508845540000493,0.0508845540000493,105.384430437,space,105.297904798,,,,,,,,,,,,,,,,,,,,,,,,,,,,,,,,,,,,,,,,,,,,,,,,sub-095,1,random_dot,,
right,right,0.0,0.0,0.0,left,0.0,10.264821538999968,,,,,,0.0,0.0,0.0,1.0,,,,,,,,,105.47918490100004,,,,,,,,,105.44371345100012,106.59320155399996,107.417223208,107.38458321500002,107.385485108,107.417223208,107.417223208,107.417223208,112.40222005200008,117.741833951,left,0.0,10.264821538999968,,117.7587385490001,117.78318959900002,118.25745928900004,,,,,,,,,,,,,,,,,,,,,,,,,,,,,,sub-095,1,random_dot,,
left,left,1.0,1.0,0.0,right,0.0,3.311519439999984,,,,,,0.0,1.0,1.0,0.0,,,,,,,,,118.27540103700017,,,,,,,,,118.25791752300006,118.59530613100014,119.41385378100016,119.39037496500008,119.39085066400004,119.41385378100016,119.41385378100016,119.41385378100016,,122.73297431500008,right,0.0,3.311519439999984,,122.733165654,122.74773759699995,123.24245649,,,,,,,,,,,,,,,,,,,,,,,,,,,,,,sub-095,1,random_dot,,
left,left,2.0,0.0,1.0,right,0.0,2.7485281019999093,,,,,,1.0,0.0,2.0,0.0,,,,,,,,,123.25908650200016,,,,,,,,,123.24274107500014,123.34332505200018,124.14485584900012,124.12705301300002,124.127361049,124.14485584900012,124.14485584900012,124.14485584900012,,126.90836173000002,right,0.0,2.7485281019999093,,126.90850763900016,126.93044616700011,127.41329742300012,,,,,,,,,,,,,,,,,,,,,,,,,,,,,,sub-095,1,random_dot,,
right,right,3.0,1.0,1.0,left,0.0,7.529028582000137,,,,,,1.0,1.0,3.0,1.0,,,,,,,,,127.429828113,,,,,,,,,127.41369180000017,127.51153033200012,128.31615012099996,128.29563656900018,128.29606710899998,128.31615012099996,128.31615012099996,128.31615012099996,133.31612161300018,135.84864438900013,left,0.0,7.529028582000137,,135.8487962040001,135.86503789800008,136.35170863100006,,,,,,,,,,,,,,,,,,,,,,,,,,,,,,sub-095,1,random_dot,,
right,right,4.0,0.0,2.0,right,1.0,3.635834571000032,,,,,,2.0,0.0,4.0,1.0,,,,,,,,,136.36783205200004,,,,,,,,,136.35208538899997,137.55075816300018,138.353422099,138.33442016699996,138.334723382,138.353422099,138.353422099,138.353422099,,142.00863316100003,right,1.0,3.635834571000032,,142.01769914700003,142.0322058700001,142.52202958400017,,,,,,,,,,,,,,,,,,,,,,,,,,,,,,sub-095,1,random_dot,,
left,left,5.0,1.0,2.0,right,0.0,2.920596921999959,,,,,,2.0,1.0,5.0,0.0,,,,,,,,,142.538860268,,,,,,,,,142.52237720300013,143.71962210300012,144.52502373100015,144.50422485800004,144.50466725900014,144.52502373100015,144.52502373100015,144.52502373100015,,147.4564203,right,0.0,2.920596921999959,,147.45876126000007,147.470344049,147.95490885200002,147.968952254,,,,,,,,,,,,,,,,,,,,,,,,,,,,,sub-095,1,random_dot,,
right,right,6.0,0.0,3.0,left,0.0,5.352707646999988,,,,,,3.0,0.0,6.0,1.0,,,,,,,,,147.968952254,,,,,,,,,147.955151592,148.77107039099997,149.57483790700007,149.55570665000005,149.55598143200018,149.57483790700007,149.57483790700007,149.57483790700007,154.56486803400003,154.93668280099996,left,0.0,5.352707646999988,,154.93678427700002,154.94922110800007,155.44129897200014,,,,,,,,,,,,,,,,,,,,,,,,,,,,,,sub-095,1,random_dot,,
left,left,7.0,1.0,3.0,right,0.0,1.502856612999949,,,,,,3.0,1.0,7.0,0.0,,,,,,,,,155.45796326699997,,,,,,,,,155.44156768800008,155.79138825200016,156.60873213500008,156.59221269400018,156.5924919260001,156.60873213500008,156.60873213500008,156.60873213500008,,158.115391218,right,0.0,1.502856612999949,,158.11548185800007,158.13050633500006,158.62578959999996,,,,,,,,,,,,,,,,,,,,,,,,,,,,,,sub-095,1,random_dot,,
left,left,8.0,0.0,4.0,left,1.0,4.913899033000007,,,,,,4.0,0.0,8.0,0.0,,,,,,,,,158.64270093100004,,,,,,,,,158.62605300200016,159.82634243899997,160.62907246100008,160.61080598600006,160.6110944950001,160.62907246100008,160.62907246100008,160.62907246100008,,165.54781887500008,left,1.0,4.913899033000007,,165.5506202460001,165.56368734600005,166.06319787100006,,,,,,,,,,,,,,,,,,,,,,,,,,,,,,sub-095,1,random_dot,,
right,right,9.0,1.0,4.0,right,1.0,1.1311178020000623,,,,,,4.0,1.0,9.0,1.0,,,,,,,,,166.07916329,,,,,,,,,166.06346067000004,166.16337609100017,166.96518380300017,166.94712765000008,166.94740450900008,166.96518380300017,166.96518380300017,166.96518380300017,,168.11666823200017,right,1.0,1.1311178020000623,,168.11676091599998,168.12964870600013,168.61501277800016,168.63035301700006,,,,,,,,,,,,,,,,,,,,,,,,,,,,,sub-095,1,random_dot,,
left,left,10.0,0.0,5.0,right,0.0,2.763468471999886,,,,,,5.0,0.0,10.0,0.0,,,,,,,,,168.63035301700006,,,,,,,,,168.61526326800004,169.83094683000013,170.63445592000016,170.61593996700003,170.616228741,170.63445592000016,170.63445592000016,170.63445592000016,,173.40509682100014,right,0.0,2.763468471999886,,173.40930302800007,173.422838834,173.916975397,,,,,,,,,,,,,,,,,,,,,,,,,,,,,,sub-095,1,random_dot,,
right,right,11.0,1.0,5.0,right,1.0,1.5798873139999614,,,,,,5.0,1.0,11.0,1.0,,,,,,,,,173.93331794300002,,,,,,,,,173.9172516210001,174.26698872700013,175.0688540420001,175.0508691130001,175.05115762700007,175.0688540420001,175.0688540420001,175.0688540420001,,176.66810547900013,right,1.0,1.5798873139999614,,176.67032296900015,176.68318683100006,177.16822660700018,177.18462656600013,,,,,,,,,,,,,,,,,,,,,,,,,,,,,sub-095,1,random_dot,,
right,right,12.0,0.0,6.0,right,1.0,1.7163969690000158,,,,,,6.0,0.0,12.0,1.0,,,,,,,,,177.18462656600013,,,,,,,,,177.16849143100012,177.96819661400014,178.76961705500003,178.75293785100007,178.7532332820001,178.76961705500003,178.76961705500003,178.76961705500003,,180.5072532260001,right,1.0,1.7163969690000158,,180.507336679,180.521674998,181.019727589,,,,,,,,,,,,,,,,,,,,,,,,,,,,,,sub-095,1,random_dot,,
left,left,13.0,1.0,6.0,right,0.0,2.650106171999824,,,,,,6.0,1.0,13.0,0.0,,,,,,,,,181.036469827,,,,,,,,,181.020000195,181.11978717300008,181.9227457300001,181.90420398900005,181.90449291900015,181.9227457300001,181.9227457300001,181.9227457300001,,184.58352684200008,right,0.0,2.650106171999824,,184.5858871190001,184.5989326660001,185.088628816,,,,,,,,,,,,,,,,,,,,,,,,,,,,,,sub-095,1,random_dot,,
right,right,14.0,0.0,7.0,left,0.0,1.5954472429998532,,,,,,7.0,0.0,14.0,1.0,,,,,,,,,185.10505549000004,,,,,,,,,185.0888912190001,185.1885624900001,185.9906172830001,185.97261659000011,185.97290673300017,185.9906172830001,185.9906172830001,185.9906172830001,,187.5917849940001,left,0.0,1.5954472429998532,,187.59187709000005,187.605608759,188.09038723800015,188.1067700390001,,,,,,,,,,,,,,,,,,,,,,,,,,,,,sub-095,1,random_dot,,
left,left,15.0,1.0,7.0,right,0.0,2.079235122,,,,,,7.0,1.0,15.0,0.0,,,,,,,,,188.1067700390001,,,,,,,,,188.090644229,189.30736126300008,190.1096926780001,190.09156053000012,190.09186923700008,190.1096926780001,190.1096926780001,190.1096926780001,,192.197860729,right,0.0,2.079235122,,192.197956428,192.21307120100005,192.70912932200008,,,,,,,,,,,,,,,,,,,,,,,,,,,,,,sub-095,1,random_dot,,
right,right,16.0,0.0,8.0,left,0.0,2.7509672470000623,,,,,,8.0,0.0,16.0,1.0,,,,,,,,,192.7252021050001,,,,,,,,,192.7093974060001,193.059255207,193.8614125460001,193.84316489900016,193.84345786200012,193.8614125460001,193.8614125460001,193.8614125460001,,196.623015656,left,0.0,2.7509672470000623,,196.623163341,196.63576477000012,197.127585601,,,,,,,,,,,,,,,,,,,,,,,,,,,,,,sub-095,1,random_dot,,
left,left,17.0,1.0,8.0,right,0.0,3.251379539000027,,,,,,8.0,1.0,17.0,0.0,,,,,,,,,197.14427312600012,,,,,,,,,197.1278429210001,197.4774027190001,198.28235561100016,198.262320671,198.2627644900001,198.28235561100016,198.28235561100016,198.28235561100016,,201.55368033600007,right,0.0,3.251379539000027,,201.55381954500007,201.5675949470001,202.0636862450001,,,,,,,,,,,,,,,,,,,,,,,,,,,,,,sub-095,1,random_dot,,
right,right,18.0,0.0,9.0,left,0.0,1.6987098639999658,,,,,,9.0,0.0,18.0,1.0,,,,,,,,,202.07815969700005,,,,,,,,,202.06396024900005,202.16357485700016,202.96538628000008,202.9472593380001,202.94755305000007,202.96538628000008,202.96538628000008,202.96538628000008,,204.67273858500016,left,0.0,1.6987098639999658,,204.67285108700003,204.68698482800005,205.18126909700004,,,,,,,,,,,,,,,,,,,,,,,,,,,,,,sub-095,1,random_dot,,
left,left,19.0,1.0,9.0,left,1.0,1.3328589230000034,,,,,,9.0,1.0,19.0,0.0,,,,,,,,,205.19798908200005,,,,,,,,,205.1815813590001,205.53126607000013,206.33285995100005,206.3160343500001,206.316328809,206.33285995100005,206.33285995100005,206.33285995100005,,207.686062711,left,1.0,1.3328589230000034,,207.68858179200012,207.700922044,208.1995288420001,,,,,,,,,,,,,,,,,,,,,,,,,,,,,,sub-095,1,random_dot,,
,,,,,,,,,,,,,,,,,,,,,,,,,,,,,,,,,,,,,,,,,,,,,,,,,,,,208.19964643700015,208.2153859970001,208.2153859970001,214.33781503800012,space,6.120452008000029,,,,,,,,,,,,,,,,,,,,,,,sub-095,1,random_dot,,
,,,,,,,,,,,,,,,,,,,,,,,,,,,,,,,,,,,,,,,,,,,,,,,,,,,,,,,,,,,214.337879918,214.35341708400009,214.35341708400009,231.37830278700017,space,17.01739785299992,,,,,,,,,,,,,,,,sub-095,1,random_dot,,
left,left,0.0,0.0,0.0,left,1.0,2.830310382000107,,speed,space,28.99990575600009,,,,,,0.0,0.0,0.0,1.0,0.0,0.0,0.0,0.0,260.4452995190002,,,,,,,,,260.43041132200005,261.62453997800003,262.427347498,262.409263004,262.40953857800014,262.427347498,262.427347498,262.427347498,,265.260845065,,,,,,,,,,,,,,,,,,,,,,,231.39932371100008,231.41590565600015,231.41590565600015,260.4257442550001,space,28.99990575600009,,left,1.0,2.830310382000107,,,,,sub-095,1,random_dot,,
right,right,1.0,1.0,0.0,right,1.0,2.757011759000079,,speed,space,28.99990575600009,,,,,,0.0,0.0,0.0,1.0,0.0,1.0,1.0,1.0,265.2744508780001,,,,,,,,,265.2611391810001,266.460705256,267.2624984610002,267.244552398,267.2448379990001,267.2624984610002,267.2624984610002,267.2624984610002,,270.02677081700017,,,,,,,,,,,,,,,,,,,,,,,,,,,,,,right,1.0,2.757011759000079,,,,,sub-095,1,random_dot,,
right,right,2.0,0.0,1.0,left,0.0,3.713531775000092,,speed,space,28.99990575600009,,,,,,0.0,0.0,0.0,1.0,1.0,0.0,2.0,1.0,270.04210080100006,,,,,,,,,270.027138014,270.127120419,270.93218576900017,270.91336770600014,270.91364998100016,270.93218576900017,270.93218576900017,270.93218576900017,,274.6500701750001,,,,,,,,,,,,,,,,,,,,,,,,,,,,,,left,0.0,3.713531775000092,,,,,sub-095,1,random_dot,,
left,left,3.0,1.0,1.0,left,1.0,2.317039392000197,,speed,space,28.99990575600009,,,,,,0.0,0.0,0.0,1.0,1.0,1.0,3.0,0.0,274.665827738,,,,,,,,,274.65036734600017,275.0148477090001,275.81708794500014,275.79879569000013,275.79907610300006,275.81708794500014,275.81708794500014,275.81708794500014,,278.14531236900007,,,,,,,,,,,,,,,,,,,,,,,,,,,,,,left,1.0,2.317039392000197,,,,,sub-095,1,random_dot,,
left,left,4.0,0.0,2.0,left,1.0,1.7600984700000026,,speed,space,28.99990575600009,,,,,,0.0,0.0,0.0,1.0,2.0,0.0,4.0,0.0,278.15781007400005,,,,,,,,,278.14562414400007,279.3497529210001,280.16391664800017,280.141864189,280.14299295600017,280.16391664800017,280.16391664800017,280.16391664800017,,281.93897357800006,,,,,,,,,,,,,,,,,,,,,,,,,,,,,,left,1.0,1.7600984700000026,,,,,sub-095,1,random_dot,,
right,right,5.0,1.0,2.0,right,1.0,1.0868115900000248,,speed,space,28.99990575600009,,,,,,0.0,0.0,0.0,1.0,2.0,1.0,5.0,1.0,281.95214004600007,,,,,,,,,281.9392819310001,282.0515912620001,282.85351857,282.83554089400013,282.83583291900004,282.85351857,282.85351857,282.85351857,,283.94857399500006,,,,,,,,,,,,,,,,,,,,,,,,,,,,,,right,1.0,1.0868115900000248,,,,,sub-095,1,random_dot,,
right,right,6.0,0.0,3.0,right,1.0,1.0775310349999927,,speed,space,28.99990575600009,,,,,,0.0,0.0,0.0,1.0,3.0,0.0,6.0,1.0,283.9611923040002,,,,,,,,,283.9488684590001,284.7523296040001,285.5551046810001,285.53716343,285.537443551,285.5551046810001,285.5551046810001,285.5551046810001,,286.65308539800003,,,,,,,,,,,,,,,,,,,,,,,,,,,,,,right,1.0,1.0775310349999927,,,,,sub-095,1,random_dot,,
left,left,7.0,1.0,3.0,left,1.0,0.8644582660001561,,speed,space,28.99990575600009,,,,,,0.0,0.0,0.0,1.0,3.0,1.0,7.0,0.0,286.6663368650002,,,,,,,,,286.6533980030001,287.453673173,288.25612683300005,288.23797752500013,288.2382817370001,288.25612683300005,288.25612683300005,288.25612683300005,,289.14098645600006,,,,,,,,,,,,,,,,,,,,,,,,,,,,,,left,1.0,0.8644582660001561,,,,,sub-095,1,random_dot,,
right,right,8.0,0.0,4.0,right,1.0,0.730154475000063,,speed,space,28.99990575600009,,,,,,0.0,0.0,0.0,1.0,4.0,0.0,8.0,1.0,289.1537361180001,,,,,,,,,289.1412884380002,289.9547448420001,290.75740439100014,290.7393572000001,290.739643981,290.75740439100014,290.75740439100014,290.75740439100014,,291.4993576060001,,,,,,,,,,,,,,,,,,,,,,,,,,,,,,right,1.0,0.730154475000063,,,,,sub-095,1,random_dot,,
left,left,9.0,1.0,4.0,left,1.0,1.4022761510000237,,speed,space,28.99990575600009,,,,,,0.0,0.0,0.0,1.0,4.0,1.0,9.0,0.0,291.512270103,,,,,,,,,291.500145469,291.60577421200014,292.4066026580001,292.38994866200005,292.39023933,292.4066026580001,292.4066026580001,292.4066026580001,,293.8126497830001,,,,,,,,,,,,,,,,,,,,,,,,,,,,,,left,1.0,1.4022761510000237,,,,,sub-095,1,random_dot,,
left,left,10.0,0.0,5.0,left,1.0,0.9104526440000882,,speed,space,28.99990575600009,,,,,,0.0,0.0,0.0,1.0,5.0,0.0,10.0,0.0,293.826212513,,,,,,,,,293.8129397490002,294.62357867800006,295.4269149710001,295.408041032,295.4086257890001,295.4269149710001,295.4269149710001,295.4269149710001,,296.3471464620002,,,,,,,,,,,,,,,,,,,,,,,,,,,,,,left,1.0,0.9104526440000882,,,,,sub-095,1,random_dot,,
right,right,11.0,1.0,5.0,right,1.0,0.7972803970001223,,speed,space,28.99990575600009,,,,,,0.0,0.0,0.0,1.0,5.0,1.0,11.0,1.0,296.360201016,,,,,,,,,296.347445503,296.70839258900014,297.5104848150001,297.492278061,297.492572378,297.5104848150001,297.5104848150001,297.5104848150001,,298.325750535,,,,,,,,,,,,,,,,,,,,,,,,,,,,,,right,1.0,0.7972803970001223,,,,,sub-095,1,random_dot,,
right,right,12.0,0.0,6.0,right,1.0,1.2931215710000288,,speed,space,28.99990575600009,,,,,,0.0,0.0,0.0,1.0,6.0,0.0,12.0,1.0,298.3375797860001,,,,,,,,,298.3260466830002,299.5257245570001,300.329342775,300.3107750070001,300.3110539680001,300.329342775,300.329342775,300.329342775,,301.629246558,,,,,,,,,,,,,,,,,,,,,,,,,,,,,,right,1.0,1.2931215710000288,,,,,sub-095,1,random_dot,,
left,left,13.0,1.0,6.0,left,1.0,0.6516386349999266,,speed,space,28.99990575600009,,,,,,0.0,0.0,0.0,1.0,6.0,1.0,13.0,0.0,301.644699426,,,,,,,,,301.6295422960002,301.993997781,302.79591407,302.7780077490001,302.7782855560001,302.79591407,302.79591407,302.79591407,,303.4584162880001,,,,,,,,,,,,,,,,,,,,,,,,,,,,,,left,1.0,0.6516386349999266,,,,,sub-095,1,random_dot,,
left,left,14.0,0.0,7.0,left,1.0,0.9822690080000028,,speed,space,28.99990575600009,,,,,,0.0,0.0,0.0,1.0,7.0,0.0,14.0,0.0,303.4716320050002,,,,,,,,,303.458720285,304.2618416310001,305.06424067700004,305.04604924900013,305.04634283400014,305.06424067700004,305.06424067700004,305.06424067700004,,306.0577613510002,,,,,,,,,,,,,,,,,,,,,,,,,,,,,,left,1.0,0.9822690080000028,,,,,sub-095,1,random_dot,,
right,right,15.0,1.0,7.0,right,1.0,1.3354383850000886,,speed,space,28.99990575600009,,,,,,0.0,0.0,0.0,1.0,7.0,1.0,15.0,1.0,306.07021788500015,,,,,,,,,306.058093158,306.412987723,307.21505727,307.1969621410001,307.19725377300006,307.21505727,307.21505727,307.21505727,,308.5690594150001,,,,,,,,,,,,,,,,,,,,,,,,,,,,,,right,1.0,1.3354383850000886,,,,,sub-095,1,random_dot,,
left,left,16.0,0.0,8.0,left,1.0,0.9537682820000556,,speed,space,28.99990575600009,,,,,,0.0,0.0,0.0,1.0,8.0,0.0,16.0,0.0,308.58197759300015,,,,,,,,,308.56936717200006,308.68015626500005,309.4812936140001,309.46454191700013,309.46483394000006,309.4812936140001,309.4812936140001,309.4812936140001,,310.4554119270001,,,,,,,,,,,,,,,,,,,,,,,,,,,,,,left,1.0,0.9537682820000556,,,,,sub-095,1,random_dot,,
right,right,17.0,1.0,8.0,right,1.0,0.7190404370001033,,speed,space,28.99990575600009,,,,,,0.0,0.0,0.0,1.0,8.0,1.0,17.0,1.0,310.46921976800013,,,,,,,,,310.45571338700006,311.2655415920001,312.06733980800004,312.04918191700017,312.04947056900005,312.06733980800004,312.06733980800004,312.06733980800004,,312.7902125800001,,,,,,,,,,,,,,,,,,,,,,,,,,,,,,right,1.0,0.7190404370001033,,,,,sub-095,1,random_dot,,
left,left,18.0,0.0,9.0,left,1.0,0.7455309580000176,,speed,space,28.99990575600009,,,,,,0.0,0.0,0.0,1.0,9.0,0.0,18.0,0.0,312.80468800200015,,,,,,,,,312.790576182,313.1494650900001,313.95136528600005,313.9333673200001,313.9336482460001,313.95136528600005,313.95136528600005,313.95136528600005,,314.7022885210001,,,,,,,,,,,,,,,,,,,,,,,,,,,,,,left,1.0,0.7455309580000176,,,,,sub-095,1,random_dot,,
right,right,19.0,1.0,9.0,right,1.0,3.198526296000182,,speed,space,28.99990575600009,,,,,,0.0,0.0,0.0,1.0,9.0,1.0,19.0,1.0,314.71623150100004,,,,,,,,,314.702578832,315.0670894750001,315.86794891600016,315.851171627,315.851483313,315.86794891600016,315.86794891600016,315.86794891600016,,319.071294225,,,,,,,,,,,,,,,,,,,,,,,,,,,,,,right,1.0,3.198526296000182,,,,,sub-095,1,random_dot,,
left,left,20.0,0.0,10.0,left,1.0,0.72095887699993,,speed,space,28.99990575600009,,,,,,0.0,0.0,0.0,1.0,10.0,0.0,20.0,0.0,319.0867638540001,,,,,,,,,319.07158815800017,319.167111728,319.9712693050001,319.95292289300005,319.95323675500003,319.9712693050001,319.9712693050001,319.9712693050001,,320.710548155,,,,,,,,,,,,,,,,,,,,,,,,,,,,,,left,1.0,0.72095887699993,,,,,sub-095,1,random_dot,,
right,right,21.0,1.0,10.0,right,1.0,0.7704427119999764,,speed,space,28.99990575600009,,,,,,0.0,0.0,0.0,1.0,10.0,1.0,21.0,1.0,320.7251435770001,,,,,,,,,320.7110745710001,320.81748822300005,321.620573486,321.6038348270001,321.60412402400016,321.620573486,321.620573486,321.620573486,,322.395044591,,,,,,,,,,,,,,,,,,,,,,,,,,,,,,right,1.0,0.7704427119999764,,,,,sub-095,1,random_dot,,
left,left,22.0,0.0,11.0,left,1.0,0.5955303030000323,,speed,space,28.99990575600009,,,,,,0.0,0.0,0.0,1.0,11.0,0.0,22.0,0.0,322.40950624000016,,,,,,,,,322.39545141200006,322.50380657000005,323.30620338100016,323.2879449740001,323.28823999600013,323.30620338100016,323.30620338100016,323.30620338100016,,323.9043370920001,,,,,,,,,,,,,,,,,,,,,,,,,,,,,,left,1.0,0.5955303030000323,,,,,sub-095,1,random_dot,,
right,right,23.0,1.0,11.0,left,0.0,0.7398448409999219,,speed,space,28.99990575600009,,,,,,0.0,0.0,0.0,1.0,11.0,1.0,23.0,1.0,323.9182391420002,,,,,,,,,323.9046420300001,324.2545410590001,325.056709623,325.03877096500014,325.039062734,325.056709623,325.056709623,325.056709623,,325.8063399790001,,,,,,,,,,,,,,,,,,,,,,,,,,,,,,left,0.0,0.7398448409999219,,,,,sub-095,1,random_dot,,
right,right,24.0,0.0,12.0,right,1.0,1.9772922499998915,,speed,space,28.99990575600009,,,,,,0.0,0.0,0.0,1.0,12.0,0.0,24.0,1.0,325.8201773160001,,,,,,,,,325.806629253,326.1717978180002,326.97490243900006,326.95649224500016,326.9567910390001,326.97490243900006,326.97490243900006,326.97490243900006,,328.96237931500013,,,,,,,,,,,,,,,,,,,,,,,,,,,,,,right,1.0,1.9772922499998915,,,,,sub-095,1,random_dot,,
left,left,25.0,1.0,12.0,left,1.0,0.7503828900000826,,speed,space,28.99990575600009,,,,,,0.0,0.0,0.0,1.0,12.0,1.0,25.0,0.0,328.975503034,,,,,,,,,328.9626938000001,329.773506775,330.5748950330001,330.55805069300004,330.55833810900003,330.5748950330001,330.5748950330001,330.5748950330001,,331.3329603080001,,,,,,,,,,,,,,,,,,,,,,,,,,,,,,left,1.0,0.7503828900000826,,,,,sub-095,1,random_dot,,
right,right,26.0,0.0,13.0,right,1.0,0.7079970990000675,,speed,space,28.99990575600009,,,,,,0.0,0.0,0.0,1.0,13.0,0.0,26.0,1.0,331.3470146720001,,,,,,,,,331.3337390050001,332.54179071,333.344086993,333.325675475,333.32597367200015,333.344086993,333.344086993,333.344086993,,334.0875783040001,,,,,,,,,,,,,,,,,,,,,,,,,,,,,,right,1.0,0.7079970990000675,,,,,sub-095,1,random_dot,,
left,left,27.0,1.0,13.0,left,1.0,0.6323222339999575,,speed,space,28.99990575600009,,,,,,0.0,0.0,0.0,1.0,13.0,1.0,27.0,0.0,334.1618645010001,,,,,,,,,334.08822169200016,334.90002571900004,335.7201769600001,335.697267902,335.69770402400013,335.7201769600001,335.7201769600001,335.7201769600001,,336.35980411700007,,,,,,,,,,,,,,,,,,,,,,,,,,,,,,left,1.0,0.6323222339999575,,,,,sub-095,1,random_dot,,
left,left,28.0,0.0,14.0,left,1.0,0.6658779229999254,,speed,space,28.99990575600009,,,,,,0.0,0.0,0.0,1.0,14.0,0.0,28.0,0.0,336.37703984400014,,,,,,,,,336.36030437600016,337.1610095430001,337.9655916190002,337.945048263,337.945394974,337.9655916190002,337.9655916190002,337.9655916190002,,338.65254232200004,,,,,,,,,,,,,,,,,,,,,,,,,,,,,,left,1.0,0.6658779229999254,,,,,sub-095,1,random_dot,,
right,right,29.0,1.0,14.0,right,1.0,1.569623601000103,,speed,space,28.99990575600009,,,,,,0.0,0.0,0.0,1.0,14.0,1.0,29.0,1.0,338.6671013550001,,,,,,,,,338.65291424600014,339.0120724770002,339.81404373500004,339.79578764200005,339.7960786360002,339.81404373500004,339.81404373500004,339.81404373500004,,341.39020900000014,,,,,,,,,,,,,,,,,,,,,,,,,,,,,,right,1.0,1.569623601000103,,,,,sub-095,1,random_dot,,
right,right,30.0,0.0,15.0,left,0.0,6.325544522999962,,speed,space,28.99990575600009,,,,,,0.0,0.0,0.0,1.0,15.0,0.0,30.0,1.0,341.40252311100016,,,,,,,,,341.3905601380002,341.4959839800001,342.31399106900017,342.297056223,342.2973459700001,342.31399106900017,342.31399106900017,342.31399106900017,347.302845723,348.6502885060001,,,,,,,,,,,,,,,,,,,,,,,,,,,,,,left,0.0,6.325544522999962,,,,,sub-095,1,random_dot,,
left,left,31.0,1.0,15.0,left,1.0,0.8699993519999225,,speed,space,28.99990575600009,,,,,,0.0,0.0,0.0,1.0,15.0,1.0,31.0,0.0,348.66484326,,,,,,,,,348.6505813230001,348.99940239800003,349.80190164400005,349.78389929000014,349.784167174,349.80190164400005,349.80190164400005,349.80190164400005,,350.674887295,,,,,,,,,,,,,,,,,,,,,,,,,,,,,,left,1.0,0.8699993519999225,,,,,sub-095,1,random_dot,,
left,left,32.0,0.0,16.0,left,1.0,0.7541014509999968,,speed,space,28.99990575600009,,,,,,0.0,0.0,0.0,1.0,16.0,0.0,32.0,0.0,350.6893984400001,,,,,,,,,350.6752487010001,351.8842080420002,352.70122376400013,352.68499077,352.6852672330001,352.70122376400013,352.70122376400013,352.70122376400013,,353.47464179100007,,,,,,,,,,,,,,,,,,,,,,,,,,,,,,left,1.0,0.7541014509999968,,,,,sub-095,1,random_dot,,
right,right,33.0,1.0,16.0,right,1.0,1.2660747620000166,,speed,space,28.99990575600009,,,,,,0.0,0.0,0.0,1.0,16.0,1.0,33.0,1.0,353.4889964390002,,,,,,,,,353.474949233,354.6854375750001,355.48642780900013,355.46965753300015,355.4699567270002,355.48642780900013,355.48642780900013,355.48642780900013,,356.76317038,,,,,,,,,,,,,,,,,,,,,,,,,,,,,,right,1.0,1.2660747620000166,,,,,sub-095,1,random_dot,,
right,right,34.0,0.0,17.0,left,0.0,0.7300682770001004,,speed,space,28.99990575600009,,,,,,0.0,0.0,0.0,1.0,17.0,0.0,34.0,1.0,356.776434893,,,,,,,,,356.76432772600015,357.57001748200014,358.3718123210001,358.3546800920001,358.35496606100014,358.3718123210001,358.3718123210001,358.3718123210001,,359.1113783640001,,,,,,,,,,,,,,,,,,,,,,,,,,,,,,left,0.0,0.7300682770001004,,,,,sub-095,1,random_dot,,
left,left,35.0,1.0,17.0,left,1.0,1.3110736809999253,,speed,space,28.99990575600009,,,,,,0.0,0.0,0.0,1.0,17.0,1.0,35.0,0.0,359.12382312600016,,,,,,,,,359.111903991,359.46958504300005,360.273929707,360.255408517,360.2557003050001,360.273929707,360.273929707,360.273929707,,361.59343022100006,,,,,,,,,,,,,,,,,,,,,,,,,,,,,,left,1.0,1.3110736809999253,,,,,sub-095,1,random_dot,,
right,right,36.0,0.0,18.0,right,1.0,0.8050723379999454,,speed,space,28.99990575600009,,,,,,0.0,0.0,0.0,1.0,18.0,0.0,36.0,1.0,361.605055669,,,,,,,,,361.5937388150001,362.8060706490001,363.6084819760001,363.5904401120001,363.5907294420001,363.6084819760001,363.6084819760001,363.6084819760001,,364.42213161400014,,,,,,,,,,,,,,,,,,,,,,,,,,,,,,right,1.0,0.8050723379999454,,,,,sub-095,1,random_dot,,
left,left,37.0,1.0,18.0,left,1.0,0.6128099269999439,,speed,space,28.99990575600009,,,,,,0.0,0.0,0.0,1.0,18.0,1.0,37.0,0.0,364.435479816,,,,,,,,,364.42242902,364.7734239380002,365.576439274,365.5582199210001,365.55850850900015,365.576439274,365.576439274,365.576439274,,366.210511299,,,,,,,,,,,,,,,,,,,,,,,,,,,,,,left,1.0,0.6128099269999439,,,,,sub-095,1,random_dot,,
right,right,38.0,0.0,19.0,right,1.0,0.6525511009999718,,speed,space,28.99990575600009,,,,,,0.0,0.0,0.0,1.0,19.0,0.0,38.0,1.0,366.223156819,,,,,,,,,366.210808158,367.423107006,368.2266423350002,368.2093653900001,368.2096528700001,368.2266423350002,368.2266423350002,368.2266423350002,,368.896001114,,,,,,,,,,,,,,,,,,,,,,,,,,,,,,right,1.0,0.6525511009999718,,,,,sub-095,1,random_dot,,
left,left,39.0,1.0,19.0,left,1.0,0.8360800589998689,,speed,space,28.99990575600009,,,,,,0.0,0.0,0.0,1.0,19.0,1.0,39.0,0.0,368.91156091100015,,,,,,,,,368.89629357600006,369.0093378440001,369.81135817200015,369.79315973100006,369.7934529660001,369.81135817200015,369.81135817200015,369.81135817200015,,370.6629477020001,,,,,,,,,,,,,,,,,,,,,,,,,,,,,,left,1.0,0.8360800589998689,,,,,sub-095,1,random_dot,,
right,right,40.0,0.0,20.0,right,1.0,1.016108984999846,,speed,space,28.99990575600009,,,,,,0.0,0.0,0.0,1.0,20.0,0.0,40.0,1.0,370.678373659,,,,,,,,,370.66324629500014,370.77472909100015,371.57954014100005,371.56114234000006,371.56145126,371.57954014100005,371.57954014100005,371.57954014100005,,372.6168196880001,,,,,,,,,,,,,,,,,,,,,,,,,,,,,,right,1.0,1.016108984999846,,,,,sub-095,1,random_dot,,
left,left,41.0,1.0,20.0,left,1.0,2.242980667999973,,speed,space,28.99990575600009,,,,,,0.0,0.0,0.0,1.0,20.0,1.0,41.0,0.0,372.63306421900006,,,,,,,,,372.6172766090001,372.72821004900015,373.5303805610001,373.5118758450001,373.5122436450001,373.5303805610001,373.5303805610001,373.5303805610001,,375.79296308000016,,,,,,,,,,,,,,,,,,,,,,,,,,,,,,left,1.0,2.242980667999973,,,,,sub-095,1,random_dot,,
left,left,42.0,0.0,21.0,left,1.0,0.931989122999994,,speed,space,28.99990575600009,,,,,,0.0,0.0,0.0,1.0,21.0,0.0,42.0,0.0,375.80509061600014,,,,,,,,,375.7932704110001,376.14581695100014,376.94779226700007,376.92986277800014,376.9301467570001,376.94779226700007,376.94779226700007,376.94779226700007,,377.900287831,,,,,,,,,,,,,,,,,,,,,,,,,,,,,,left,1.0,0.931989122999994,,,,,sub-095,1,random_dot,,
right,right,43.0,1.0,21.0,right,1.0,0.7025980270000218,,speed,space,28.99990575600009,,,,,,0.0,0.0,0.0,1.0,21.0,1.0,43.0,1.0,377.9116384810002,,,,,,,,,377.9005967170001,378.2637010630001,379.0659590560001,379.0478685350001,379.0481550050001,379.0659590560001,379.0659590560001,379.0659590560001,,379.7723162790001,,,,,,,,,,,,,,,,,,,,,,,,,,,,,,right,1.0,0.7025980270000218,,,,,sub-095,1,random_dot,,
left,left,44.0,0.0,22.0,left,1.0,0.8395197039999402,,speed,space,28.99990575600009,,,,,,0.0,0.0,0.0,1.0,22.0,0.0,44.0,0.0,379.78649121600006,,,,,,,,,379.772793807,379.880329655,380.68392577200007,380.665485538,380.665779033,380.68392577200007,380.68392577200007,380.68392577200007,,381.5319981340001,,,,,,,,,,,,,,,,,,,,,,,,,,,,,,left,1.0,0.8395197039999402,,,,,sub-095,1,random_dot,,
right,right,45.0,1.0,22.0,right,1.0,0.6533179010000367,,speed,space,28.99990575600009,,,,,,0.0,0.0,0.0,1.0,22.0,1.0,45.0,1.0,381.54550192500005,,,,,,,,,381.5323006860001,382.3317796680001,383.1348740460001,383.1163870930002,383.1166649270001,383.1348740460001,383.1348740460001,383.1348740460001,,383.8010386840001,,,,,,,,,,,,,,,,,,,,,,,,,,,,,,right,1.0,0.6533179010000367,,,,,sub-095,1,random_dot,,
right,right,46.0,0.0,23.0,right,1.0,0.8677179049998358,,speed,space,28.99990575600009,,,,,,0.0,0.0,0.0,1.0,23.0,0.0,46.0,1.0,383.8147695780001,,,,,,,,,383.801347198,385.016795751,385.81934889700005,385.80113052900015,385.80142918800016,385.81934889700005,385.81934889700005,385.81934889700005,,386.70727565900006,,,,,,,,,,,,,,,,,,,,,,,,,,,,,,right,1.0,0.8677179049998358,,,,,sub-095,1,random_dot,,
left,left,47.0,1.0,23.0,left,1.0,0.625184087999969,,speed,space,28.99990575600009,,,,,,0.0,0.0,0.0,1.0,23.0,1.0,47.0,0.0,386.719505325,,,,,,,,,386.7076071260001,387.067427793,387.870033569,387.85186244500005,387.8521382240001,387.870033569,387.870033569,387.870033569,,388.513778452,,,,,,,,,,,,,,,,,,,,,,,,,,,,,,left,1.0,0.625184087999969,,,,,sub-095,1,random_dot,,
left,left,48.0,0.0,24.0,left,1.0,1.3535254650000752,,speed,space,28.99990575600009,,,,,,0.0,0.0,0.0,1.0,24.0,0.0,48.0,0.0,388.526868484,,,,,,,,,388.514254211,388.868234263,389.6714651880002,389.653160971,389.653472665,389.6714651880002,389.6714651880002,389.6714651880002,,391.04306771000006,,,,,,,,,,,,,,,,,,,,,,,,,,,,,,left,1.0,1.3535254650000752,,,,,sub-095,1,random_dot,,
right,right,49.0,1.0,24.0,right,1.0,0.712045155999931,,speed,space,28.99990575600009,,,,,,0.0,0.0,0.0,1.0,24.0,1.0,49.0,1.0,391.05775309900014,,,,,,,,,391.0433722370001,391.1530342410001,391.95511618,391.93715443500014,391.937426813,391.95511618,391.95511618,391.95511618,,392.675402566,,,,,,,,,,,,,,,,,,,,,,,,,,,,,,right,1.0,0.712045155999931,,,,,sub-095,1,random_dot,,
left,left,50.0,0.0,25.0,left,1.0,0.8450343819999944,,speed,space,28.99990575600009,,,,,,0.0,0.0,0.0,1.0,25.0,0.0,50.0,0.0,392.68831998,,,,,,,,,392.67569160100015,393.03718661100015,393.839056665,393.82094799000015,393.82124877800015,393.839056665,393.839056665,393.839056665,,394.686565921,,,,,,,,,,,,,,,,,,,,,,,,,,,,,,left,1.0,0.8450343819999944,,,,,sub-095,1,random_dot,,
right,right,51.0,1.0,25.0,right,1.0,0.6786241779998363,,speed,space,28.99990575600009,,,,,,0.0,0.0,0.0,1.0,25.0,1.0,51.0,1.0,394.69812930600006,,,,,,,,,394.68687100400007,395.888377538,396.690437773,396.672481604,396.67276541900014,396.690437773,396.690437773,396.690437773,,397.3745092660001,,,,,,,,,,,,,,,,,,,,,,,,,,,,,,right,1.0,0.6786241779998363,,,,,sub-095,1,random_dot,,
right,right,52.0,0.0,26.0,right,1.0,0.8960837920001268,,speed,space,28.99990575600009,,,,,,0.0,0.0,0.0,1.0,26.0,0.0,52.0,1.0,397.388072815,,,,,,,,,397.37479124900005,397.48921003300006,398.29143605700006,398.273210587,398.273501164,398.29143605700006,398.29143605700006,398.29143605700006,,399.205023623,,,,,,,,,,,,,,,,,,,,,,,,,,,,,,right,1.0,0.8960837920001268,,,,,sub-095,1,random_dot,,
left,left,53.0,1.0,26.0,left,1.0,1.128925979999849,,speed,space,28.99990575600009,,,,,,0.0,0.0,0.0,1.0,26.0,1.0,53.0,0.0,399.218379316,,,,,,,,,399.2053415350001,399.30674483000007,400.1095177940001,400.0911660080001,400.0914584220002,400.1095177940001,400.1095177940001,400.1095177940001,,401.2470915850001,,,,,,,,,,,,,,,,,,,,,,,,,,,,,,left,1.0,1.128925979999849,,,,,sub-095,1,random_dot,,
left,left,54.0,0.0,27.0,left,1.0,0.7976715770000737,,speed,space,28.99990575600009,,,,,,0.0,0.0,0.0,1.0,27.0,0.0,54.0,0.0,401.2600764370002,,,,,,,,,401.2473836310001,401.60827944000016,402.410145109,402.39195073200017,402.3922432110001,402.410145109,402.410145109,402.410145109,,403.2152196910001,,,,,,,,,,,,,,,,,,,,,,,,,,,,,,left,1.0,0.7976715770000737,,,,,sub-095,1,random_dot,,
right,right,55.0,1.0,27.0,right,1.0,0.6979510310000023,,speed,space,28.99990575600009,,,,,,0.0,0.0,0.0,1.0,27.0,1.0,55.0,1.0,403.226534012,,,,,,,,,403.2155098620001,404.4255676110001,405.228184735,405.20992618800005,405.21018644800006,405.228184735,405.228184735,405.228184735,,405.93135348400006,,,,,,,,,,,,,,,,,,,,,,,,,,,,,,right,1.0,0.6979510310000023,,,,,sub-095,1,random_dot,,
left,left,56.0,0.0,28.0,left,1.0,0.7208983559999069,,speed,space,28.99990575600009,,,,,,0.0,0.0,0.0,1.0,28.0,0.0,56.0,0.0,405.946510067,,,,,,,,,405.93163920000006,407.1434021110001,407.945434899,407.92759375800006,407.927870663,407.945434899,407.945434899,407.945434899,,408.6734116550001,,,,,,,,,,,,,,,,,,,,,,,,,,,,,,left,1.0,0.7208983559999069,,,,,sub-095,1,random_dot,,
right,right,57.0,1.0,28.0,right,1.0,1.000528764999899,,speed,space,28.99990575600009,,,,,,0.0,0.0,0.0,1.0,28.0,1.0,57.0,1.0,408.6841528960001,,,,,,,,,408.673711058,409.476372589,410.28109520400017,410.26275346500006,410.263037185,410.28109520400017,410.28109520400017,410.28109520400017,,411.2987598880002,,,,,,,,,,,,,,,,,,,,,,,,,,,,,,right,1.0,1.000528764999899,,,,,sub-095,1,random_dot,,
left,left,58.0,0.0,29.0,left,1.0,1.085583994999979,,speed,space,28.99990575600009,,,,,,0.0,0.0,0.0,1.0,29.0,0.0,58.0,0.0,411.314276201,,,,,,,,,411.29906667700016,411.4128649280001,412.2147449710001,412.19656169200016,412.1968595620001,412.2147449710001,412.2147449710001,412.2147449710001,,413.31193915200015,,,,,,,,,,,,,,,,,,,,,,,,,,,,,,left,1.0,1.085583994999979,,,,,sub-095,1,random_dot,,
right,right,59.0,1.0,29.0,right,1.0,0.7031555720000142,,speed,space,28.99990575600009,,,,,,0.0,0.0,0.0,1.0,29.0,1.0,59.0,1.0,413.323058597,,,,,,,,,413.312221722,413.413661093,414.2157671730001,414.197729898,414.19802689000016,414.2157671730001,414.2157671730001,414.2157671730001,,414.92092718,,,,,,,,,,,,,,,,,,,,,,,,,,,,,,right,1.0,0.7031555720000142,,,,,sub-095,1,random_dot,,
,,0.0,0.0,0.0,,,,,speed,space,28.99990575600009,,,,,,0.0,0.0,0.0,1.0,,,,,,,,,,,,,,,,,,,,,,,,,,,,,,,,,,,,,,,,,,,,,,,,,,,,,,,,,,,,sub-095,1,random_dot,,
right,right,0.0,0.0,0.0,right,1.0,0.9028947870001502,,accuracy,space,6.02489810599991,,,,,,0.0,1.0,1.0,0.0,0.0,0.0,0.0,1.0,421.0046559760001,,,,,,,,,420.9898856550001,421.0835010210001,421.88590751900006,421.8677246510001,421.8679951280001,421.88590751900006,421.88590751900006,421.88590751900006,,422.7909856230001,,,,,,,,,,,,,,,,,,,,,,,414.93367270500016,414.94939139100006,414.94939139100006,420.984705781,space,6.02489810599991,,right,1.0,0.9028947870001502,,,,,sub-095,1,random_dot,,
left,left,1.0,1.0,0.0,left,1.0,0.7316406799998276,,accuracy,space,6.02489810599991,,,,,,0.0,1.0,1.0,0.0,0.0,1.0,1.0,0.0,422.80547989,,,,,,,,,422.7912801470002,423.602154551,424.403588357,424.3857572690001,424.3860537400001,424.403588357,424.403588357,424.403588357,,425.14211578,,,,,,,,,,,,,,,,,,,,,,,,,,,,,,left,1.0,0.7316406799998276,,,,,sub-095,1,random_dot,,
left,left,2.0,0.0,1.0,left,1.0,1.677245616999926,,accuracy,space,6.02489810599991,,,,,,0.0,1.0,1.0,0.0,1.0,0.0,2.0,0.0,425.15679459500006,,,,,,,,,425.142405395,426.35305262,427.1551254860001,427.1370548370001,427.137344969,427.1551254860001,427.1551254860001,427.1551254860001,,428.841219871,,,,,,,,,,,,,,,,,,,,,,,,,,,,,,left,1.0,1.677245616999926,,,,,sub-095,1,random_dot,,
right,right,3.0,1.0,1.0,right,1.0,0.8198269289998734,,accuracy,space,6.02489810599991,,,,,,0.0,1.0,1.0,0.0,1.0,1.0,3.0,1.0,428.8544280260001,,,,,,,,,428.8415263080001,429.2044127910001,430.006674554,429.988413689,429.9887521530002,430.006674554,430.006674554,430.006674554,,430.8381879650001,,,,,,,,,,,,,,,,,,,,,,,,,,,,,,right,1.0,0.8198269289998734,,,,,sub-095,1,random_dot,,
right,right,4.0,0.0,2.0,left,0.0,0.7916684480001095,,accuracy,space,6.02489810599991,,,,,,0.0,1.0,1.0,0.0,2.0,0.0,4.0,1.0,430.8518601320002,,,,,,,,,430.8384831160001,430.9384645360001,431.74522475,431.7266958760001,431.726974233,431.74522475,431.74522475,431.74522475,,432.540988445,,,,,,,,,,,,,,,,,,,,,,,,,,,,,,left,0.0,0.7916684480001095,,,,,sub-095,1,random_dot,,
left,left,5.0,1.0,2.0,right,0.0,5.825630492000073,,accuracy,space,6.02489810599991,,,,,,0.0,1.0,1.0,0.0,2.0,1.0,5.0,0.0,432.5544503260001,,,,,,,,,432.541284505,432.655965464,433.4581696,433.44008845100007,433.4403881590001,433.4581696,433.4581696,433.4581696,438.459511643,439.287624782,,,,,,,,,,,,,,,,,,,,,,,,,,,,,,right,0.0,5.825630492000073,,,,,sub-095,1,random_dot,,
right,right,6.0,0.0,3.0,right,1.0,2.4971172079999637,,accuracy,space,6.02489810599991,,,,,,0.0,1.0,1.0,0.0,3.0,0.0,6.0,1.0,439.2999750020001,,,,,,,,,439.2879349320001,439.392374539,440.19435792600007,440.176385689,440.1766622110001,440.19435792600007,440.19435792600007,440.19435792600007,,442.6945740450001,,,,,,,,,,,,,,,,,,,,,,,,,,,,,,right,1.0,2.4971172079999637,,,,,sub-095,1,random_dot,,
left,left,7.0,1.0,3.0,left,1.0,0.8494882039999538,,accuracy,space,6.02489810599991,,,,,,0.0,1.0,1.0,0.0,3.0,1.0,7.0,0.0,442.7083444780001,,,,,,,,,442.69488880300014,443.494486926,444.29642779000005,444.2783631530001,444.278643677,444.29642779000005,444.29642779000005,444.29642779000005,,445.15149952900015,,,,,,,,,,,,,,,,,,,,,,,,,,,,,,left,1.0,0.8494882039999538,,,,,sub-095,1,random_dot,,
right,right,8.0,0.0,4.0,right,1.0,1.0091931850001856,,accuracy,space,6.02489810599991,,,,,,0.0,1.0,1.0,0.0,4.0,0.0,8.0,1.0,445.1646106590001,,,,,,,,,445.1517983410001,445.9625053240002,446.764659722,446.74645829400015,446.7467441850001,446.764659722,446.764659722,446.764659722,,447.7946092230002,,,,,,,,,,,,,,,,,,,,,,,,,,,,,,right,1.0,1.0091931850001856,,,,,sub-095,1,random_dot,,
left,left,9.0,1.0,4.0,left,1.0,0.6138742600001024,,accuracy,space,6.02489810599991,,,,,,0.0,1.0,1.0,0.0,4.0,1.0,9.0,0.0,447.8043855890001,,,,,,,,,447.7949315400001,448.146387258,448.963983614,448.947367408,448.9476546380001,448.963983614,448.963983614,448.963983614,,449.598521353,,,,,,,,,,,,,,,,,,,,,,,,,,,,,,left,1.0,0.6138742600001024,,,,,sub-095,1,random_dot,,
right,right,10.0,0.0,5.0,right,1.0,1.5397967729998072,,accuracy,space,6.02489810599991,,,,,,0.0,1.0,1.0,0.0,5.0,0.0,10.0,1.0,449.611387612,,,,,,,,,449.5988308340002,450.414536841,451.21674687400014,451.19858240200006,451.198873392,451.21674687400014,451.21674687400014,451.21674687400014,,452.7768570110002,,,,,,,,,,,,,,,,,,,,,,,,,,,,,,right,1.0,1.5397967729998072,,,,,sub-095,1,random_dot,,
left,left,11.0,1.0,5.0,left,1.0,0.7456582380000327,,accuracy,space,6.02489810599991,,,,,,0.0,1.0,1.0,0.0,5.0,1.0,11.0,0.0,452.78907871800016,,,,,,,,,452.777153127,453.982386139,454.79397923400006,454.774654603,454.7754382220001,454.79397923400006,454.79397923400006,454.79397923400006,,455.5417395700001,,,,,,,,,,,,,,,,,,,,,,,,,,,,,,left,1.0,0.7456582380000327,,,,,sub-095,1,random_dot,,
left,left,12.0,0.0,6.0,left,1.0,0.8537056969998957,,accuracy,space,6.02489810599991,,,,,,0.0,1.0,1.0,0.0,6.0,0.0,12.0,0.0,455.55592411400016,,,,,,,,,455.54248817000007,455.9002107370002,456.702425445,456.68441376400006,456.684692521,456.702425445,456.702425445,456.702425445,,457.60226477800006,,,,,,,,,,,,,,,,,,,,,,,,,,,,,,left,1.0,0.8537056969998957,,,,,sub-095,1,random_dot,,
right,right,13.0,1.0,6.0,right,1.0,0.667291478999914,,accuracy,space,6.02489810599991,,,,,,0.0,1.0,1.0,0.0,6.0,1.0,13.0,1.0,457.6137225540001,,,,,,,,,457.6025625,458.80173175,459.60382798700016,459.58583088900014,459.5861366610002,459.60382798700016,459.60382798700016,459.60382798700016,,460.289402161,,,,,,,,,,,,,,,,,,,,,,,,,,,,,,right,1.0,0.667291478999914,,,,,sub-095,1,random_dot,,
right,right,14.0,0.0,7.0,right,1.0,0.9184074379998036,,accuracy,space,6.02489810599991,,,,,,0.0,1.0,1.0,0.0,7.0,0.0,14.0,1.0,460.3047750230001,,,,,,,,,460.28970001200014,460.402979207,461.20450696600005,461.186455904,461.186753424,461.20450696600005,461.20450696600005,461.20450696600005,,462.1249175940002,,,,,,,,,,,,,,,,,,,,,,,,,,,,,,right,1.0,0.9184074379998036,,,,,sub-095,1,random_dot,,
left,left,15.0,1.0,7.0,left,1.0,0.5805430800000977,,accuracy,space,6.02489810599991,,,,,,0.0,1.0,1.0,0.0,7.0,1.0,15.0,0.0,462.1401483740001,,,,,,,,,462.125220463,463.337219042,464.13902015100007,464.12108268600014,464.12135982400014,464.13902015100007,464.13902015100007,464.13902015100007,,464.7391303080001,,,,,,,,,,,,,,,,,,,,,,,,,,,,,,left,1.0,0.5805430800000977,,,,,sub-095,1,random_dot,,
right,right,16.0,0.0,8.0,right,1.0,0.6305798670000513,,accuracy,space,6.02489810599991,,,,,,0.0,1.0,1.0,0.0,8.0,0.0,16.0,1.0,464.7518160720001,,,,,,,,,464.7394197630001,465.955159893,466.757330313,466.73928936900006,466.73958892300016,466.757330313,466.757330313,466.757330313,,467.407339507,,,,,,,,,,,,,,,,,,,,,,,,,,,,,,right,1.0,0.6305798670000513,,,,,sub-095,1,random_dot,,
left,left,17.0,1.0,8.0,left,1.0,0.9858630000001084,,accuracy,space,6.02489810599991,,,,,,0.0,1.0,1.0,0.0,8.0,1.0,17.0,0.0,467.4203914120001,,,,,,,,,467.407978385,467.7705970210002,468.5757947870002,468.55694814,468.5572865830002,468.5757947870002,468.5757947870002,468.5757947870002,,469.57219018800015,,,,,,,,,,,,,,,,,,,,,,,,,,,,,,left,1.0,0.9858630000001084,,,,,sub-095,1,random_dot,,
right,right,18.0,0.0,9.0,right,1.0,0.748557873999971,,accuracy,space,6.02489810599991,,,,,,0.0,1.0,1.0,0.0,9.0,0.0,18.0,1.0,469.5856963000001,,,,,,,,,469.5725122850001,469.92191390200014,470.7246438950001,470.70789096700014,470.708182868,470.7246438950001,470.7246438950001,470.7246438950001,,471.492882796,,,,,,,,,,,,,,,,,,,,,,,,,,,,,,right,1.0,0.748557873999971,,,,,sub-095,1,random_dot,,
left,left,19.0,1.0,9.0,left,1.0,1.1569294309999805,,accuracy,space,6.02489810599991,,,,,,0.0,1.0,1.0,0.0,9.0,1.0,19.0,0.0,471.50548,,,,,,,,,471.4931950320001,472.3082394090002,473.11052148,473.0922787700001,473.092568346,473.11052148,473.11052148,473.11052148,,474.279794539,,,,,,,,,,,,,,,,,,,,,,,,,,,,,,left,1.0,1.1569294309999805,,,,,sub-095,1,random_dot,,
right,right,20.0,0.0,10.0,right,1.0,0.8806390170000213,,accuracy,space,6.02489810599991,,,,,,0.0,1.0,1.0,0.0,10.0,0.0,20.0,1.0,474.2928973400001,,,,,,,,,474.280083421,475.492752616,476.311865035,476.2937710890001,476.29406734200006,476.311865035,476.311865035,476.311865035,,477.19892762300015,,,,,,,,,,,,,,,,,,,,,,,,,,,,,,right,1.0,0.8806390170000213,,,,,sub-095,1,random_dot,,
left,left,21.0,1.0,10.0,left,1.0,0.7631709309998769,,accuracy,space,6.02489810599991,,,,,,0.0,1.0,1.0,0.0,10.0,1.0,21.0,0.0,477.21199791900017,,,,,,,,,477.1992215580001,477.310773125,478.1123495470001,478.094357318,478.0946498970002,478.1123495470001,478.1123495470001,478.1123495470001,,478.89268836400015,,,,,,,,,,,,,,,,,,,,,,,,,,,,,,left,1.0,0.7631709309998769,,,,,sub-095,1,random_dot,,
right,right,22.0,0.0,11.0,right,1.0,0.8185683649999191,,accuracy,space,6.02489810599991,,,,,,0.0,1.0,1.0,0.0,11.0,0.0,22.0,1.0,478.9061652360001,,,,,,,,,478.892993358,480.093309011,480.8970256390001,480.8789135490001,480.87918742500005,480.8970256390001,480.8970256390001,480.8970256390001,,481.72647027900007,,,,,,,,,,,,,,,,,,,,,,,,,,,,,,right,1.0,0.8185683649999191,,,,,sub-095,1,random_dot,,
left,left,23.0,1.0,11.0,left,1.0,0.9373083339999084,,accuracy,space,6.02489810599991,,,,,,0.0,1.0,1.0,0.0,11.0,1.0,23.0,0.0,481.73936908400015,,,,,,,,,481.726767487,482.07737085100007,482.88187140700006,482.86359977000006,482.86388029,482.88187140700006,482.88187140700006,482.88187140700006,,483.84096432,,,,,,,,,,,,,,,,,,,,,,,,,,,,,,left,1.0,0.9373083339999084,,,,,sub-095,1,random_dot,,
left,left,24.0,0.0,12.0,left,1.0,0.7472317420001673,,accuracy,space,6.02489810599991,,,,,,0.0,1.0,1.0,0.0,12.0,0.0,24.0,0.0,483.851163907,,,,,,,,,483.84138663700014,485.0474424050001,485.849474694,485.831342744,485.8316321,485.849474694,485.849474694,485.849474694,,486.616692755,,,,,,,,,,,,,,,,,,,,,,,,,,,,,,left,1.0,0.7472317420001673,,,,,sub-095,1,random_dot,,
right,right,25.0,1.0,12.0,right,1.0,1.886870689000034,,accuracy,space,6.02489810599991,,,,,,0.0,1.0,1.0,0.0,12.0,1.0,25.0,1.0,486.629398285,,,,,,,,,486.616984642,486.981260966,487.783049419,487.76633529800006,487.766619239,487.783049419,487.783049419,487.783049419,,489.690987428,,,,,,,,,,,,,,,,,,,,,,,,,,,,,,right,1.0,1.886870689000034,,,,,sub-095,1,random_dot,,
right,right,26.0,0.0,13.0,right,1.0,1.4330081850000624,,accuracy,space,6.02489810599991,,,,,,0.0,1.0,1.0,0.0,13.0,0.0,26.0,1.0,489.704525246,,,,,,,,,489.691343344,490.04982565800015,490.851912224,490.833703773,490.8339908940002,490.851912224,490.851912224,490.851912224,,492.30502034000006,,,,,,,,,,,,,,,,,,,,,,,,,,,,,,right,1.0,1.4330081850000624,,,,,sub-095,1,random_dot,,
left,left,27.0,1.0,13.0,left,1.0,0.6681649649999599,,accuracy,space,6.02489810599991,,,,,,0.0,1.0,1.0,0.0,13.0,1.0,27.0,0.0,492.31952901500017,,,,,,,,,492.30531672000006,492.66750559800016,493.4701300400002,493.4518954970001,493.45219791800014,493.4701300400002,493.4701300400002,493.4701300400002,,494.14007840500017,,,,,,,,,,,,,,,,,,,,,,,,,,,,,,left,1.0,0.6681649649999599,,,,,sub-095,1,random_dot,,
right,right,28.0,0.0,14.0,right,1.0,0.8280738290000045,,accuracy,space,6.02489810599991,,,,,,0.0,1.0,1.0,0.0,14.0,0.0,28.0,1.0,494.15314455600014,,,,,,,,,494.140375747,494.95233661300017,495.75598055,495.73646145,495.7368035480001,495.75598055,495.75598055,495.75598055,,496.6054985450001,,,,,,,,,,,,,,,,,,,,,,,,,,,,,,right,1.0,0.8280738290000045,,,,,sub-095,1,random_dot,,
left,left,29.0,1.0,14.0,left,1.0,0.8226708310000959,,accuracy,space,6.02489810599991,,,,,,0.0,1.0,1.0,0.0,14.0,1.0,29.0,0.0,496.61860546900016,,,,,,,,,496.60582556300005,496.9677167370001,497.7724452300001,497.7541055890001,497.754396006,497.7724452300001,497.7724452300001,497.7724452300001,,498.60412925000014,,,,,,,,,,,,,,,,,,,,,,,,,,,,,,left,1.0,0.8226708310000959,,,,,sub-095,1,random_dot,,
right,right,30.0,0.0,15.0,right,1.0,0.8639804110000568,,accuracy,space,6.02489810599991,,,,,,0.0,1.0,1.0,0.0,15.0,0.0,30.0,1.0,498.617862196,,,,,,,,,498.6044234190001,499.4043097200001,500.2066220900001,500.18847465,500.18877693600007,500.2066220900001,500.2066220900001,500.2066220900001,,501.0878077940001,,,,,,,,,,,,,,,,,,,,,,,,,,,,,,right,1.0,0.8639804110000568,,,,,sub-095,1,random_dot,,
left,left,31.0,1.0,15.0,left,1.0,0.8113083079999797,,accuracy,space,6.02489810599991,,,,,,0.0,1.0,1.0,0.0,15.0,1.0,31.0,0.0,501.1047998010001,,,,,,,,,501.0881241720001,501.88857855000015,502.6906507850001,502.6728483900001,502.67313451400014,502.6906507850001,502.6906507850001,502.6906507850001,,503.5228673180002,,,,,,,,,,,,,,,,,,,,,,,,,,,,,,left,1.0,0.8113083079999797,,,,,sub-095,1,random_dot,,
left,left,32.0,0.0,16.0,left,1.0,1.845338488000152,,accuracy,space,6.02489810599991,,,,,,0.0,1.0,1.0,0.0,16.0,0.0,32.0,0.0,503.533242517,,,,,,,,,503.52314242400007,504.322989735,505.1259218350001,505.107560271,505.1078535030001,505.1259218350001,505.1259218350001,505.1259218350001,,506.978335086,,,,,,,,,,,,,,,,,,,,,,,,,,,,,,left,1.0,1.845338488000152,,,,,sub-095,1,random_dot,,
right,right,33.0,1.0,16.0,right,1.0,1.281614582999964,,accuracy,space,6.02489810599991,,,,,,0.0,1.0,1.0,0.0,16.0,1.0,33.0,1.0,506.9914101710001,,,,,,,,,506.9786383620001,507.3412512320001,508.1417487240001,508.1253193600001,508.1255989800002,508.1417487240001,508.1417487240001,508.1417487240001,,509.4443154590001,,,,,,,,,,,,,,,,,,,,,,,,,,,,,,right,1.0,1.281614582999964,,,,,sub-095,1,random_dot,,
left,left,34.0,0.0,17.0,left,1.0,1.0952451910000036,,accuracy,space,6.02489810599991,,,,,,0.0,1.0,1.0,0.0,17.0,0.0,34.0,0.0,509.4551347270001,,,,,,,,,509.44461166400015,509.8093129590002,510.611529215,510.5934896460001,510.59378012,510.611529215,510.611529215,510.611529215,,511.7226865700002,,,,,,,,,,,,,,,,,,,,,,,,,,,,,,left,1.0,1.0952451910000036,,,,,sub-095,1,random_dot,,
right,right,35.0,1.0,17.0,right,1.0,0.6770293910001328,,accuracy,space,6.02489810599991,,,,,,0.0,1.0,1.0,0.0,17.0,1.0,35.0,1.0,511.7350925160001,,,,,,,,,511.722993736,512.925421805,513.730159514,513.711809118,513.712102896,513.730159514,513.730159514,513.730159514,,514.4107137430001,,,,,,,,,,,,,,,,,,,,,,,,,,,,,,right,1.0,0.6770293910001328,,,,,sub-095,1,random_dot,,
right,right,36.0,0.0,18.0,right,1.0,1.946957280000106,,accuracy,space,6.02489810599991,,,,,,0.0,1.0,1.0,0.0,18.0,0.0,36.0,1.0,514.4242196360001,,,,,,,,,514.4110053060001,514.7616219280001,515.5638968430001,515.5457814180002,515.54607263,515.5638968430001,515.5638968430001,515.5638968430001,,517.5196106020001,,,,,,,,,,,,,,,,,,,,,,,,,,,,,,right,1.0,1.946957280000106,,,,,sub-095,1,random_dot,,
left,left,37.0,1.0,18.0,left,1.0,0.8492152209998949,,accuracy,space,6.02489810599991,,,,,,0.0,1.0,1.0,0.0,18.0,1.0,37.0,0.0,517.532528919,,,,,,,,,517.5199044860001,518.327970239,519.1326276770001,519.1143240830002,519.1146123660001,519.1326276770001,519.1326276770001,519.1326276770001,,519.9844018830001,,,,,,,,,,,,,,,,,,,,,,,,,,,,,,left,1.0,0.8492152209998949,,,,,sub-095,1,random_dot,,
right,right,38.0,0.0,19.0,right,1.0,0.6469563939999716,,accuracy,space,6.02489810599991,,,,,,0.0,1.0,1.0,0.0,19.0,0.0,38.0,1.0,519.9998278330002,,,,,,,,,519.9847034860002,520.797722324,521.5995441750001,521.5816897720001,521.5819810370001,521.5995441750001,521.5995441750001,521.5995441750001,,522.2676890930002,,,,,,,,,,,,,,,,,,,,,,,,,,,,,,right,1.0,0.6469563939999716,,,,,sub-095,1,random_dot,,
left,left,39.0,1.0,19.0,left,1.0,0.6635700059998726,,accuracy,space,6.02489810599991,,,,,,0.0,1.0,1.0,0.0,19.0,1.0,39.0,0.0,522.2786191720002,,,,,,,,,522.2679916280001,523.4820491180001,524.285378278,524.2667960590002,524.26708276,524.285378278,524.285378278,524.285378278,,524.953145423,,,,,,,,,,,,,,,,,,,,,,,,,,,,,,left,1.0,0.6635700059998726,,,,,sub-095,1,random_dot,,
right,right,40.0,0.0,20.0,right,1.0,0.6794704599999477,,accuracy,space,6.02489810599991,,,,,,0.0,1.0,1.0,0.0,20.0,0.0,40.0,1.0,524.9684954660001,,,,,,,,,524.9534475720002,525.066478622,525.8689174020001,525.8507620390001,525.8510394470002,525.8689174020001,525.8689174020001,525.8689174020001,,526.5556278430001,,,,,,,,,,,,,,,,,,,,,,,,,,,,,,right,1.0,0.6794704599999477,,,,,sub-095,1,random_dot,,
left,left,41.0,1.0,20.0,left,1.0,1.420296202999907,,accuracy,space,6.02489810599991,,,,,,0.0,1.0,1.0,0.0,20.0,1.0,41.0,0.0,526.567258365,,,,,,,,,526.55592701,527.3672540540001,528.1699431290001,528.1518122290001,528.1520993460001,528.1699431290001,528.1699431290001,528.1699431290001,,529.6104101620001,,,,,,,,,,,,,,,,,,,,,,,,,,,,,,left,1.0,1.420296202999907,,,,,sub-095,1,random_dot,,
left,left,42.0,0.0,21.0,right,0.0,0.6169381770000655,,accuracy,space,6.02489810599991,,,,,,0.0,1.0,1.0,0.0,21.0,0.0,42.0,0.0,529.623530647,,,,,,,,,529.611402319,530.8188810700001,531.619947117,531.603272697,531.6035553510001,531.619947117,531.619947117,531.619947117,,532.254194524,,,,,,,,,,,,,,,,,,,,,,,,,,,,,,right,0.0,0.6169381770000655,,,,,sub-095,1,random_dot,,
right,right,43.0,1.0,21.0,left,0.0,0.9035309959999722,,accuracy,space,6.02489810599991,,,,,,0.0,1.0,1.0,0.0,21.0,1.0,43.0,1.0,532.268064224,,,,,,,,,532.254488817,533.453760462,534.2555515910001,534.237721236,534.238000353,534.2555515910001,534.2555515910001,534.2555515910001,,535.1743096330001,,,,,,,,,,,,,,,,,,,,,,,,,,,,,,left,0.0,0.9035309959999722,,,,,sub-095,1,random_dot,,
left,left,44.0,0.0,22.0,left,1.0,0.779829515000074,,accuracy,space,6.02489810599991,,,,,,0.0,1.0,1.0,0.0,22.0,0.0,44.0,0.0,535.1898939820001,,,,,,,,,535.17461333,535.9880751400001,536.7902086710001,536.772181367,536.7724716320001,536.7902086710001,536.7902086710001,536.7902086710001,,537.577542366,,,,,,,,,,,,,,,,,,,,,,,,,,,,,,left,1.0,0.779829515000074,,,,,sub-095,1,random_dot,,
right,right,45.0,1.0,22.0,right,1.0,0.6308354909999707,,accuracy,space,6.02489810599991,,,,,,0.0,1.0,1.0,0.0,22.0,1.0,45.0,1.0,537.5890538250001,,,,,,,,,537.5778546830002,537.9391980360001,538.7413204060001,538.723265283,538.723566462,538.7413204060001,538.7413204060001,538.7413204060001,,539.391320767,,,,,,,,,,,,,,,,,,,,,,,,,,,,,,right,1.0,0.6308354909999707,,,,,sub-095,1,random_dot,,
right,right,46.0,0.0,23.0,right,1.0,1.140261252999835,,accuracy,space,6.02489810599991,,,,,,0.0,1.0,1.0,0.0,23.0,0.0,46.0,1.0,539.404167915,,,,,,,,,539.3916236690002,539.506585586,540.3074091880001,540.2907581100001,540.2910582690001,540.3074091880001,540.3074091880001,540.3074091880001,,541.4595304010002,,,,,,,,,,,,,,,,,,,,,,,,,,,,,,right,1.0,1.140261252999835,,,,,sub-095,1,random_dot,,
left,left,47.0,1.0,23.0,left,1.0,0.7327195579998715,,accuracy,space,6.02489810599991,,,,,,0.0,1.0,1.0,0.0,23.0,1.0,47.0,0.0,541.473193608,,,,,,,,,541.4598395110002,542.6744038520001,543.477358636,543.45903778,543.459324963,543.477358636,543.477358636,543.477358636,,544.216470846,,,,,,,,,,,,,,,,,,,,,,,,,,,,,,left,1.0,0.7327195579998715,,,,,sub-095,1,random_dot,,
left,left,48.0,0.0,24.0,left,1.0,2.102694786000029,,accuracy,space,6.02489810599991,,,,,,0.0,1.0,1.0,0.0,24.0,0.0,48.0,0.0,544.231254583,,,,,,,,,544.216932974,545.025597696,545.8286592900001,545.810189758,545.8104800360002,545.8286592900001,545.8286592900001,545.8286592900001,,547.9518495500001,,,,,,,,,,,,,,,,,,,,,,,,,,,,,,left,1.0,2.102694786000029,,,,,sub-095,1,random_dot,,
right,right,49.0,1.0,24.0,right,1.0,0.9528203530001064,,accuracy,space,6.02489810599991,,,,,,0.0,1.0,1.0,0.0,24.0,1.0,49.0,1.0,547.965674901,,,,,,,,,547.9522227500001,548.3108739270001,549.1131594880001,549.0949698900001,549.0952588310001,549.1131594880001,549.1131594880001,549.1131594880001,,550.087046246,,,,,,,,,,,,,,,,,,,,,,,,,,,,,,right,1.0,0.9528203530001064,,,,,sub-095,1,random_dot,,
left,left,50.0,0.0,25.0,left,1.0,1.8693040089999613,,accuracy,space,6.02489810599991,,,,,,0.0,1.0,1.0,0.0,25.0,0.0,50.0,0.0,550.0999313550001,,,,,,,,,550.088035432,550.194955076,550.997039822,550.9789129330002,550.97920241,550.997039822,550.997039822,550.997039822,,552.8852612380001,,,,,,,,,,,,,,,,,,,,,,,,,,,,,,left,1.0,1.8693040089999613,,,,,sub-095,1,random_dot,,
right,right,51.0,1.0,25.0,right,1.0,0.8269536640000297,,accuracy,space,6.02489810599991,,,,,,0.0,1.0,1.0,0.0,25.0,1.0,51.0,1.0,552.9001993480001,,,,,,,,,552.885731435,553.696434988,554.4986275380002,554.480691146,554.480968069,554.4986275380002,554.4986275380002,554.4986275380002,,555.3362380370002,,,,,,,,,,,,,,,,,,,,,,,,,,,,,,right,1.0,0.8269536640000297,,,,,sub-095,1,random_dot,,
right,right,52.0,0.0,26.0,right,1.0,0.9564351230001192,,accuracy,space,6.02489810599991,,,,,,0.0,1.0,1.0,0.0,26.0,0.0,52.0,1.0,555.3517368320001,,,,,,,,,555.336559719,556.1477239200001,556.9497227530001,556.9318568210001,556.932129625,556.9497227530001,556.9497227530001,556.9497227530001,,557.929278889,,,,,,,,,,,,,,,,,,,,,,,,,,,,,,right,1.0,0.9564351230001192,,,,,sub-095,1,random_dot,,
left,left,53.0,1.0,26.0,left,1.0,0.7478627160000997,,accuracy,space,6.02489810599991,,,,,,0.0,1.0,1.0,0.0,26.0,1.0,53.0,0.0,557.9410681480001,,,,,,,,,557.929601107,559.130652409,559.9357955120001,559.9170482430002,559.9173380460002,559.9357955120001,559.9357955120001,559.9357955120001,,560.699429793,,,,,,,,,,,,,,,,,,,,,,,,,,,,,,left,1.0,0.7478627160000997,,,,,sub-095,1,random_dot,,
right,right,54.0,0.0,27.0,right,1.0,0.7665907549999247,,accuracy,space,6.02489810599991,,,,,,0.0,1.0,1.0,0.0,27.0,0.0,54.0,1.0,560.716764061,,,,,,,,,560.6997316320001,561.5005132190001,562.302273727,562.2842949190001,562.284582776,562.302273727,562.302273727,562.302273727,,563.0796622800001,,,,,,,,,,,,,,,,,,,,,,,,,,,,,,right,1.0,0.7665907549999247,,,,,sub-095,1,random_dot,,
left,left,55.0,1.0,27.0,left,1.0,0.8387869549999323,,accuracy,space,6.02489810599991,,,,,,0.0,1.0,1.0,0.0,27.0,1.0,55.0,0.0,563.0918569350001,,,,,,,,,563.079970534,563.8847497080001,564.6869060190002,564.6687692140001,564.669037442,564.6869060190002,564.6869060190002,564.6869060190002,,565.5468202720001,,,,,,,,,,,,,,,,,,,,,,,,,,,,,,left,1.0,0.8387869549999323,,,,,sub-095,1,random_dot,,
right,right,56.0,0.0,28.0,right,1.0,0.7367601290000039,,accuracy,space,6.02489810599991,,,,,,0.0,1.0,1.0,0.0,28.0,0.0,56.0,1.0,565.558257017,,,,,,,,,565.5471089310001,565.6526532520002,566.454593421,566.4364499980002,566.4367399770001,566.454593421,566.454593421,566.454593421,,567.1942499190002,,,,,,,,,,,,,,,,,,,,,,,,,,,,,,right,1.0,0.7367601290000039,,,,,sub-095,1,random_dot,,
left,left,57.0,1.0,28.0,left,1.0,0.6729312129998561,,accuracy,space,6.02489810599991,,,,,,0.0,1.0,1.0,0.0,28.0,1.0,57.0,0.0,567.2087917690001,,,,,,,,,567.1946130010001,568.002773679,568.8043765770001,568.7877643730001,568.788056849,568.8043765770001,568.8043765770001,568.8043765770001,,569.489551458,,,,,,,,,,,,,,,,,,,,,,,,,,,,,,left,1.0,0.6729312129998561,,,,,sub-095,1,random_dot,,
right,right,58.0,0.0,29.0,right,1.0,0.8553314399998726,,accuracy,space,6.02489810599991,,,,,,0.0,1.0,1.0,0.0,29.0,0.0,58.0,1.0,569.5050091140001,,,,,,,,,569.489872465,569.8542185160002,570.6571641410001,570.63873253,570.639005367,570.6571641410001,570.6571641410001,570.6571641410001,,571.5231306120002,,,,,,,,,,,,,,,,,,,,,,,,,,,,,,right,1.0,0.8553314399998726,,,,,sub-095,1,random_dot,,
left,left,59.0,1.0,29.0,left,1.0,0.9177115749998848,,accuracy,space,6.02489810599991,,,,,,0.0,1.0,1.0,0.0,29.0,1.0,59.0,0.0,571.5367856150001,,,,,,,,,571.5234387560001,572.7220238690002,573.524883366,573.506606618,573.5068838980001,573.524883366,573.524883366,573.524883366,,574.4462285490001,,,,,,,,,,,,,,,,,,,,,,,,,,,,,,left,1.0,0.9177115749998848,,,,,sub-095,1,random_dot,,
,,1.0,1.0,0.0,,,,,accuracy,space,6.02489810599991,,,,,,0.0,1.0,1.0,0.0,,,,,,,,,,,,,,,,,,,,,,,,,,,,,,,,,,,,,,,,,,,,,,,,,,,,,,,,,,,,sub-095,1,random_dot,,
,,,,,,,,,,,,,,,,,,,,,,,,,,,,,,,,,,,,,,,,,,,,,,,,,,,,,,,,,,,,,,,,,,,,,,,,,,,,,574.4502201790001,574.463770974,579.4589157880002,sub-095,1,random_dot,,
