direction,corrAns,thisN,thisTrialN,thisRepN,respDots.keys,respDots.corr,respDots.rt,respDots.duration,randomInstr,respRandomInstr.keys,respRandomInstr.rt,respRandomInstr.duration,practice_trials.thisRepN,practice_trials.thisTrialN,practice_trials.thisN,practice_trials.thisIndex,instr_trials.thisRepN,instr_trials.thisTrialN,instr_trials.thisN,instr_trials.thisIndex,test_trials.thisRepN,test_trials.thisTrialN,test_trials.thisN,test_trials.thisIndex,thisRow.t,notes,general_instruction.started,textGeneralInstr.started,respGeneralInstr.started,general_instruction.stopped,respGeneralInstr.keys,respGeneralInstr.rt,respGeneralInstr.duration,ITI.started,fixcross.started,fixcross.stopped,ITI.stopped,dots.started,backgroundDots.started,stimulusDots.started,respDots.started,stimulusDots.stopped,dots.stopped,practice_trials.respDots.keys,practice_trials.respDots.corr,practice_trials.respDots.rt,practice_trials.respDots.duration,feedback.started,textFeedback.started,feedback.stopped,textFeedback.stopped,info.started,textInfo.started,keyRespInfo.started,info.stopped,keyRespInfo.keys,keyRespInfo.rt,keyRespInfo.duration,test_instruction.started,textTestInstr.started,respTestInstr.started,test_instruction.stopped,respTestInstr.keys,respTestInstr.rt,respTestInstr.duration,random_instruction.started,textRandomInstr.started,respRandomInstr.started,random_instruction.stopped,instr_trials.respRandomInstr.keys,instr_trials.respRandomInstr.rt,instr_trials.respRandomInstr.duration,test_trials.respDots.keys,test_trials.respDots.corr,test_trials.respDots.rt,test_trials.respDots.duration,goodbye.started,textGoodbye.started,textGoodbye.stopped,goodbye.stopped,participant,session,expName,frameRate,Unnamed: 88
,,,,,,,,,,,,,,,,,,,,,,,,,,,0.0072850569995353,0.0199914990007528,0.0199914990007528,17.41014525799983,space,17.16934467700048,,,,,,,,,,,,,,,,,,,,,,,,,,,,,,,,,,,,,,,,,,,,,,,,,sub-025,1,random_dot,60.11669034308197,
left,left,0.0,0.0,0.0,left,1.0,13.100626637999085,,,,,,0.0,0.0,0.0,0.0,,,,,,,,,17.462483060000523,,,,,,,,,17.452024623999023,18.61259099900053,19.41211014399596,19.3963260169985,19.396675101001165,19.41211014399596,19.41211014399596,19.41211014399596,24.39667372599797,32.513905362000514,left,1.0,13.100626637999085,,32.520257789001334,32.53035389100114,33.014051928999834,,,,,,,,,,,,,,,,,,,,,,,,,,,,,,,sub-025,1,random_dot,60.11669034308197,
right,right,1.0,1.0,0.0,left,0.0,6.709436058998108,,,,,,0.0,1.0,1.0,1.0,,,,,,,,,33.03058886800136,,,,,,,,,33.01433229100076,34.213381312998536,35.01406802299607,34.99804329100152,34.99836814599985,35.01406802299607,35.01406802299607,35.01406802299607,39.99758538099559,41.73154920399975,left,0.0,6.709436058998108,,41.73869102399476,41.74747387300158,42.23152254399611,42.2480106649964,,,,,,,,,,,,,,,,,,,,,,,,,,,,,,sub-025,1,random_dot,60.11669034308197,
left,left,2.0,0.0,1.0,right,0.0,6.018418761996145,,,,,,1.0,0.0,2.0,0.0,,,,,,,,,42.2480106649964,,,,,,,,,42.23183071099629,42.596928386999934,43.39786765100144,43.381451222994656,43.38170923500002,43.39786765100144,43.39786765100144,43.39786765100144,48.385766977997264,49.43236007900123,right,0.0,6.018418761996145,,49.43244122999749,49.44837713099696,49.93156807700143,49.947742414995446,,,,,,,,,,,,,,,,,,,,,,,,,,,,,,sub-025,1,random_dot,60.11669034308197,
right,right,3.0,1.0,1.0,left,0.0,20.079668272999697,,,,,,1.0,1.0,3.0,1.0,,,,,,,,,49.947742414995446,,,,,,,,,49.93180911499803,50.29855597199639,51.09819143599452,51.08221989899903,51.08248340099817,51.09819143599452,51.09819143599452,51.09819143599452,56.08223389100021,71.18362505899859,left,0.0,20.079668272999697,,71.18375593100063,71.19974173900118,71.68309192399465,71.69953968399932,,,,,,,,,,,,,,,,,,,,,,,,,,,,,,sub-025,1,random_dot,60.11669034308197,
right,right,4.0,0.0,2.0,left,0.0,6.259319634998974,,,,,,2.0,0.0,4.0,1.0,,,,,,,,,71.69953968399932,,,,,,,,,71.68331967799895,72.4828965380002,73.28339497999696,73.26703985600034,73.26735599200038,73.28339497999696,73.28339497999696,73.28339497999696,78.26694386600138,79.55128934399545,left,0.0,6.259319634998974,,79.55136939400109,79.56726161799452,80.05081146199518,80.06714715199632,,,,,,,,,,,,,,,,,,,,,,,,,,,,,,sub-025,1,random_dot,60.11669034308197,
left,left,5.0,1.0,2.0,right,0.0,5.867990099002782,,,,,,2.0,1.0,5.0,0.0,,,,,,,,,80.06714715199632,,,,,,,,,80.05107897699781,80.41750755300018,81.21685886499472,81.2003283899976,81.20075088199519,81.21685886499472,81.21685886499472,81.21685886499472,86.20083557700127,87.10148475999449,right,0.0,5.867990099002782,,87.10162737200153,87.11694612899737,87.60153725800046,87.61756348299969,,,,,,,,,,,,,,,,,,,,,,,,,,,,,,sub-025,1,random_dot,60.11669034308197,
right,right,6.0,0.0,3.0,left,0.0,8.271988939995936,,,,,,3.0,0.0,6.0,1.0,,,,,,,,,87.61756348299969,,,,,,,,,87.60175478699966,88.41748057899531,89.21801549499651,89.20106029899762,89.20132850200025,89.21801549499651,89.21801549499651,89.21801549499651,94.20141470499948,97.50234037599876,left,0.0,8.271988939995936,,97.50242109700048,97.5185393119973,98.00167594099912,98.01837709699612,,,,,,,,,,,,,,,,,,,,,,,,,,,,,,sub-025,1,random_dot,60.11669034308197,
left,left,7.0,1.0,3.0,right,0.0,8.12294416599616,,,,,,3.0,1.0,7.0,0.0,,,,,,,,,98.01837709699612,,,,,,,,,98.00190342099812,99.20161636799456,100.00140389800072,99.98502237899812,99.98526923699684,100.00140389800072,100.00140389800072,100.00140389800072,104.98543511099706,108.13667371399788,right,0.0,8.12294416599616,,108.13675397599582,108.15212737699768,108.63597061899782,108.65249643899732,,,,,,,,,,,,,,,,,,,,,,,,,,,,,,sub-025,1,random_dot,60.11669034308197,
left,left,8.0,0.0,4.0,left,1.0,6.995239449999644,,,,,,4.0,0.0,8.0,0.0,,,,,,,,,108.65249643899732,,,,,,,,,108.6361965899996,109.43512884200028,110.23584749699512,110.21918192899466,110.21950467900024,110.23584749699512,110.23584749699512,110.23584749699512,115.21958684299898,117.23698505199718,left,1.0,6.995239449999644,,117.23946864799656,117.2521688630004,117.7365911320012,117.75307447499654,,,,,,,,,,,,,,,,,,,,,,,,,,,,,,sub-025,1,random_dot,60.11669034308197,
right,right,9.0,1.0,4.0,right,1.0,6.337721207004506,,,,,,4.0,1.0,9.0,1.0,,,,,,,,,117.75307447499654,,,,,,,,,117.73686063499918,118.08649175599568,118.88598026699763,118.87010523099887,118.87043541100138,118.88598026699763,118.88598026699763,118.88598026699763,123.87027603000024,125.23661866600014,right,1.0,6.337721207004506,,125.2367292630006,125.25323199099512,125.73727152599896,,,,,,,,,,,,,,,,,,,,,,,,,,,,,,,sub-025,1,random_dot,60.11669034308197,
right,right,10.0,0.0,5.0,right,1.0,5.418001584002923,,,,,,5.0,0.0,10.0,1.0,,,,,,,,,125.75350265499584,,,,,,,,,125.7375158529976,126.08714652199706,126.88708677199612,126.87000960899604,126.87044970599528,126.88708677199612,126.88708677199612,126.88708677199612,131.8702006819949,132.3213248280008,right,1.0,5.418001584002923,,132.32141213100113,132.3375028549999,132.8200978169989,132.83601946099952,,,,,,,,,,,,,,,,,,,,,,,,,,,,,,sub-025,1,random_dot,60.11669034308197,
left,left,11.0,1.0,5.0,left,1.0,5.630368276004447,,,,,,5.0,1.0,11.0,0.0,,,,,,,,,132.83601946099952,,,,,,,,,132.82042712099792,132.93628313299996,133.73703925299924,133.720348816998,133.720701430997,133.73703925299924,133.73703925299924,133.73703925299924,138.72144110099907,139.3718754329966,left,1.0,5.630368276004447,,139.37200715099607,139.3879290279947,139.870925393996,139.88772549099667,,,,,,,,,,,,,,,,,,,,,,,,,,,,,,sub-025,1,random_dot,60.11669034308197,
left,left,12.0,0.0,6.0,left,1.0,3.9247562490054406,,,,,,6.0,0.0,12.0,0.0,,,,,,,,,139.88772549099667,,,,,,,,,139.87113173699618,140.2212166909958,141.02126507299545,141.00479862900102,141.005118932997,141.02126507299545,141.02126507299545,141.02126507299545,,144.95582373799698,left,1.0,3.9247562490054406,,144.95594934999826,144.97138406500017,145.45484588099498,145.47161961099482,,,,,,,,,,,,,,,,,,,,,,,,,,,,,,sub-025,1,random_dot,60.11669034308197,
right,right,13.0,1.0,6.0,right,1.0,2.213148988004832,,,,,,6.0,1.0,13.0,1.0,,,,,,,,,145.47161961099482,,,,,,,,,145.45506235899666,146.65539151900157,147.47176183799456,147.45437644699996,147.45466922500054,147.47176183799456,147.47176183799456,147.47176183799456,,149.6890373099959,right,1.0,2.213148988004832,,149.68914804599626,149.70497661699483,150.18794121500105,150.20538187299826,,,,,,,,,,,,,,,,,,,,,,,,,,,,,,sub-025,1,random_dot,60.11669034308197,
left,left,14.0,0.0,7.0,left,1.0,1.34040834899497,,,,,,7.0,0.0,14.0,0.0,,,,,,,,,150.20538187299826,,,,,,,,,150.1881859749992,150.53896487799648,151.33828429999994,151.321772573996,151.32211906199518,151.33828429999994,151.33828429999994,151.33828429999994,,152.68934743199495,left,1.0,1.34040834899497,,152.68942614099797,152.70529941999848,153.18924748800055,153.205159197998,,,,,,,,,,,,,,,,,,,,,,,,,,,,,,sub-025,1,random_dot,60.11669034308197,
right,right,15.0,1.0,7.0,right,1.0,3.5266326739947544,,,,,,7.0,1.0,15.0,1.0,,,,,,,,,153.205159197998,,,,,,,,,153.1894772480009,153.28870150799776,154.08892560000095,154.0724439149999,154.0727133069959,154.08892560000095,154.08892560000095,154.08892560000095,,157.6226645409988,right,1.0,3.5266326739947544,,157.62281536899536,157.63927754899487,158.12220050399628,158.13881371799653,,,,,,,,,,,,,,,,,,,,,,,,,,,,,,sub-025,1,random_dot,60.11669034308197,
right,right,16.0,0.0,8.0,right,1.0,3.900791202002438,,,,,,8.0,0.0,16.0,1.0,,,,,,,,,158.13881371799653,,,,,,,,,158.1224092459961,158.9225428879945,159.72272478899686,159.70630476599763,159.70657606700115,159.72272478899686,159.72272478899686,159.72272478899686,,163.6393813629984,right,1.0,3.900791202002438,,163.63948104700103,163.6560824449989,164.14009704899945,,,,,,,,,,,,,,,,,,,,,,,,,,,,,,,sub-025,1,random_dot,60.11669034308197,
left,left,17.0,1.0,8.0,left,1.0,1.061478909003199,,,,,,8.0,1.0,17.0,0.0,,,,,,,,,164.156033184001,,,,,,,,,164.1403874059979,164.9393768250011,165.73946635299944,165.72295309399487,165.72321162699518,165.73946635299944,165.73946635299944,165.73946635299944,,166.8067806809995,left,1.0,1.061478909003199,,166.80689957799768,166.82251638000162,167.30679781000072,167.32326981799997,,,,,,,,,,,,,,,,,,,,,,,,,,,,,,sub-025,1,random_dot,60.11669034308197,
left,left,18.0,0.0,9.0,left,1.0,2.2073235439966084,,,,,,9.0,0.0,18.0,0.0,,,,,,,,,167.32326981799997,,,,,,,,,167.3070245619965,168.1064637449963,168.90645520600083,168.89017474799766,168.8905248730007,168.90645520600083,168.90645520600083,168.90645520600083,,171.12419291999686,left,1.0,2.2073235439966084,,171.12427551199653,171.13939274199947,171.6238012169997,171.6402682150001,,,,,,,,,,,,,,,,,,,,,,,,,,,,,,sub-025,1,random_dot,60.11669034308197,
right,right,19.0,1.0,9.0,right,1.0,1.7058810259986783,,,,,,9.0,1.0,19.0,1.0,,,,,,,,,171.6402682150001,,,,,,,,,171.62406689499767,172.8235305729977,173.62355503499566,173.6073056069945,173.607657044995,173.62355503499566,173.62355503499566,173.62355503499566,,175.34140443700016,right,1.0,1.7058810259986783,,175.34148626300157,175.35690878499736,175.84054925799865,175.8573419569948,,,,,,,,,,,,,,,,,,,,,,,,,,,,,,sub-025,1,random_dot,60.11669034308197,
,,,,,,,,,,,,,,,,,,,,,,,,,,,,,,,,,,,,,,,,,,,,,,,,,,,,175.84074757599592,175.8573419569948,175.8573419569948,181.09151207199463,space,5.2167091150040505,,,,,,,,,,,,,,,,,,,,,,,,sub-025,1,random_dot,60.11669034308197,
,,,,,,,,,,,,,,,,,,,,,,,,,,,,,,,,,,,,,,,,,,,,,,,,,,,,,,,,,,,181.0915680359976,181.1073750919968,181.1073750919968,193.5751224889973,space,12.452411984006176,,,,,,,,,,,,,,,,,sub-025,1,random_dot,60.11669034308197,
left,left,0.0,0.0,0.0,left,1.0,1.1148211969994009,,speed,space,3.0316352250010823,,,,,,0.0,0.0,0.0,1.0,0.0,0.0,0.0,0.0,196.65777759099728,,,,,,,,,196.64807164800004,196.99169930399512,197.7918314829949,197.77555544699865,197.7758888960016,197.7918314829949,197.7918314829949,197.7918314829949,,198.9086501119964,,,,,,,,,,,,,,,,,,,,,,,193.59737715400115,193.60589428099772,193.60589428099772,196.6421024340016,space,3.0316352250010823,,left,1.0,1.1148211969994009,,,,,,sub-025,1,random_dot,60.11669034308197,
right,right,1.0,1.0,0.0,right,1.0,0.7366651230040588,,speed,space,3.0316352250010823,,,,,,0.0,0.0,0.0,1.0,0.0,1.0,1.0,1.0,198.92461266499595,,,,,,,,,198.9090110819961,199.25840851399695,200.0587900190003,200.041897694995,200.04216896899743,200.0587900190003,200.0587900190003,200.0587900190003,,200.80936730599933,,,,,,,,,,,,,,,,,,,,,,,,,,,,,,right,1.0,0.7366651230040588,,,,,,sub-025,1,random_dot,60.11669034308197,
right,right,2.0,0.0,1.0,right,1.0,1.4958319760044103,,speed,space,3.0316352250010823,,,,,,0.0,0.0,0.0,1.0,1.0,0.0,2.0,1.0,200.82522655499636,,,,,,,,,200.80975094199675,201.60888668299597,202.40933664600016,202.39240134599825,202.39266900999792,202.40933664600016,202.40933664600016,202.40933664600016,,203.90959968199604,,,,,,,,,,,,,,,,,,,,,,,,,,,,,,right,1.0,1.4958319760044103,,,,,,sub-025,1,random_dot,60.11669034308197,
left,left,3.0,1.0,1.0,left,1.0,2.2355998280036147,,speed,space,3.0316352250010823,,,,,,0.0,0.0,0.0,1.0,1.0,1.0,3.0,0.0,203.9257711139944,,,,,,,,,203.909908814996,205.1092347899976,205.90941017099976,205.89278435400047,205.8930511619983,205.90941017099976,205.90941017099976,205.90941017099976,,208.15912691799892,,,,,,,,,,,,,,,,,,,,,,,,,,,,,,left,1.0,2.2355998280036147,,,,,,sub-025,1,random_dot,60.11669034308197,
right,right,4.0,0.0,2.0,left,0.0,1.1082356599945342,,speed,space,3.0316352250010823,,,,,,0.0,0.0,0.0,1.0,2.0,0.0,4.0,1.0,208.17468377800105,,,,,,,,,208.15944414000117,208.5091466320009,209.3093828649944,209.29248620699943,209.2927331719984,209.3093828649944,209.3093828649944,209.3093828649944,,210.4272087649952,,,,,,,,,,,,,,,,,,,,,,,,,,,,,,left,0.0,1.1082356599945342,,,,,,sub-025,1,random_dot,60.11669034308197,
left,left,5.0,1.0,2.0,right,0.0,2.5271261029993184,,speed,space,3.0316352250010823,,,,,,0.0,0.0,0.0,1.0,2.0,1.0,5.0,0.0,210.44256429799864,,,,,,,,,210.4275554209962,211.22610735600028,212.02623659600067,212.00972667399765,212.0100450089958,212.02623659600067,212.02623659600067,212.02623659600067,,214.5600564779961,,,,,,,,,,,,,,,,,,,,,,,,,,,,,,right,0.0,2.5271261029993184,,,,,,sub-025,1,random_dot,60.11669034308197,
left,left,6.0,0.0,3.0,left,1.0,2.0632888420004747,,speed,space,3.0316352250010823,,,,,,0.0,0.0,0.0,1.0,3.0,0.0,6.0,0.0,214.57667900399971,,,,,,,,,214.56036859699816,214.90940767600117,215.70989542399911,215.69327960499504,215.69363927700036,215.70989542399911,215.70989542399911,215.70989542399911,,217.7770626939964,,,,,,,,,,,,,,,,,,,,,,,,,,,,,,left,1.0,2.0632888420004747,,,,,,sub-025,1,random_dot,60.11669034308197,
right,right,7.0,1.0,3.0,right,1.0,4.038401293997595,,speed,space,3.0316352250010823,,,,,,0.0,0.0,0.0,1.0,3.0,1.0,7.0,1.0,217.7932691519964,,,,,,,,,217.7774381619965,217.87659124399943,218.6767478519978,218.66054632500163,218.6608143639969,218.6767478519978,218.6767478519978,218.6767478519978,,222.7271433299975,,,,,,,,,,,,,,,,,,,,,,,,,,,,,,right,1.0,4.038401293997595,,,,,,sub-025,1,random_dot,60.11669034308197,
right,right,8.0,0.0,4.0,right,1.0,0.9530710899998668,,speed,space,3.0316352250010823,,,,,,0.0,0.0,0.0,1.0,4.0,0.0,8.0,1.0,222.74261152099643,,,,,,,,,222.72759093299828,222.84281692699733,223.6438900159992,223.62714825899457,223.6274335240014,223.6438900159992,223.6438900159992,223.6438900159992,,224.61042971300049,,,,,,,,,,,,,,,,,,,,,,,,,,,,,,right,1.0,0.9530710899998668,,,,,,sub-025,1,random_dot,60.11669034308197,
left,left,9.0,1.0,4.0,left,1.0,1.6883068489987636,,speed,space,3.0316352250010823,,,,,,0.0,0.0,0.0,1.0,4.0,1.0,9.0,0.0,224.6258136569959,,,,,,,,,224.610725515995,224.96003056300103,225.76067345799677,225.74379906000104,225.7441050329944,225.76067345799677,225.76067345799677,225.76067345799677,,227.46143538199976,,,,,,,,,,,,,,,,,,,,,,,,,,,,,,left,1.0,1.6883068489987636,,,,,,sub-025,1,random_dot,60.11669034308197,
right,right,10.0,0.0,5.0,right,1.0,0.8217456249985844,,speed,space,3.0316352250010823,,,,,,0.0,0.0,0.0,1.0,5.0,0.0,10.0,1.0,227.4777074980011,,,,,,,,,227.461723927001,228.66057916000136,229.46089108899469,229.44440676299564,229.44465573399796,229.46089108899469,229.46089108899469,229.46089108899469,,230.29475699699836,,,,,,,,,,,,,,,,,,,,,,,,,,,,,,right,1.0,0.8217456249985844,,,,,,sub-025,1,random_dot,60.11669034308197,
left,left,11.0,1.0,5.0,left,1.0,0.8512106060006772,,speed,space,3.0316352250010823,,,,,,0.0,0.0,0.0,1.0,5.0,1.0,11.0,0.0,230.31116382999608,,,,,,,,,230.29502924199917,231.49409496099543,232.2941587749956,232.27773114999584,232.2779906729993,232.2941587749956,232.2941587749956,232.2941587749956,,233.16207336200023,,,,,,,,,,,,,,,,,,,,,,,,,,,,,,left,1.0,0.8512106060006772,,,,,,sub-025,1,random_dot,60.11669034308197,
right,right,12.0,0.0,6.0,right,1.0,0.9383309469994856,,speed,space,3.0316352250010823,,,,,,0.0,0.0,0.0,1.0,6.0,0.0,12.0,1.0,233.1773185939965,,,,,,,,,233.1623540209985,233.5274924719997,234.3280051059992,234.3112477869945,234.31151300999773,234.3280051059992,234.3280051059992,234.3280051059992,,235.2785831770016,,,,,,,,,,,,,,,,,,,,,,,,,,,,,,right,1.0,0.9383309469994856,,,,,,sub-025,1,random_dot,60.11669034308197,
left,left,13.0,1.0,6.0,left,1.0,0.8105051100064884,,speed,space,3.0316352250010823,,,,,,0.0,0.0,0.0,1.0,6.0,1.0,13.0,0.0,235.2946187240013,,,,,,,,,235.27886040700105,235.62771156899544,236.4278127809957,236.41187165599692,236.4121216459971,236.4278127809957,236.4278127809957,236.4278127809957,,237.24464382699807,,,,,,,,,,,,,,,,,,,,,,,,,,,,,,left,1.0,0.8105051100064884,,,,,,sub-025,1,random_dot,60.11669034308197,
left,left,14.0,0.0,7.0,right,0.0,0.9353786900028354,,speed,space,3.0316352250010823,,,,,,0.0,0.0,0.0,1.0,7.0,0.0,14.0,0.0,237.2613334189955,,,,,,,,,237.2450363579992,238.04468787699443,238.8448060199953,238.8281629999983,238.8284464739991,238.8448060199953,238.8448060199953,238.8448060199953,,239.7952906299979,,,,,,,,,,,,,,,,,,,,,,,,,,,,,,right,0.0,0.9353786900028354,,,,,,sub-025,1,random_dot,60.11669034308197,
right,right,15.0,1.0,7.0,right,1.0,0.7895366990051116,,speed,space,3.0316352250010823,,,,,,0.0,0.0,0.0,1.0,7.0,1.0,15.0,1.0,239.81131902899503,,,,,,,,,239.7955621489964,240.1449304729977,240.94436151699483,240.92858441299904,240.9288649579976,240.94436151699483,240.94436151699483,240.94436151699483,,241.74522906299532,,,,,,,,,,,,,,,,,,,,,,,,,,,,,,right,1.0,0.7895366990051116,,,,,,sub-025,1,random_dot,60.11669034308197,
left,left,16.0,0.0,8.0,left,1.0,0.6479678059986327,,speed,space,3.0316352250010823,,,,,,0.0,0.0,0.0,1.0,8.0,0.0,16.0,0.0,241.76163337299656,,,,,,,,,241.7455051169964,242.0949190019965,242.89497336199565,242.878023983998,242.8783628039964,242.89497336199565,242.89497336199565,242.89497336199565,,243.54510965399825,,,,,,,,,,,,,,,,,,,,,,,,,,,,,,left,1.0,0.6479678059986327,,,,,,sub-025,1,random_dot,60.11669034308197,
right,right,17.0,1.0,8.0,right,1.0,2.071606438003073,,speed,space,3.0316352250010823,,,,,,0.0,0.0,0.0,1.0,8.0,1.0,17.0,1.0,243.5617060730001,,,,,,,,,243.54543721899967,243.64536575599777,244.44508753099944,244.42849230399588,244.42874930999824,244.44508753099944,244.44508753099944,244.44508753099944,,246.52882830699676,,,,,,,,,,,,,,,,,,,,,,,,,,,,,,right,1.0,2.071606438003073,,,,,,sub-025,1,random_dot,60.11669034308197,
right,right,18.0,0.0,9.0,right,1.0,0.7833681629999774,,speed,space,3.0316352250010823,,,,,,0.0,0.0,0.0,1.0,9.0,0.0,18.0,1.0,246.5451010100005,,,,,,,,,246.52910526999767,246.8786823539995,247.678275252998,247.66237897099927,247.66269528599517,247.678275252998,247.678275252998,247.678275252998,,248.46296040599557,,,,,,,,,,,,,,,,,,,,,,,,,,,,,,right,1.0,0.7833681629999774,,,,,,sub-025,1,random_dot,60.11669034308197,
left,left,19.0,1.0,9.0,left,1.0,0.7326958880003076,,speed,space,3.0316352250010823,,,,,,0.0,0.0,0.0,1.0,9.0,1.0,19.0,0.0,248.4784401979996,,,,,,,,,248.46336401699955,248.82908456199948,249.6288701059966,249.61284494099527,249.6131128729976,249.6288701059966,249.6288701059966,249.6288701059966,,250.36306104799587,,,,,,,,,,,,,,,,,,,,,,,,,,,,,,left,1.0,0.7326958880003076,,,,,,sub-025,1,random_dot,60.11669034308197,
left,left,20.0,0.0,10.0,left,1.0,0.8150087689937209,,speed,space,3.0316352250010823,,,,,,0.0,0.0,0.0,1.0,10.0,0.0,20.0,0.0,250.37777532499604,,,,,,,,,250.36338827099823,250.4783472630006,251.27831126399545,251.2621510589961,251.26244749200123,251.27831126399545,251.27831126399545,251.27831126399545,,252.0961007169972,,,,,,,,,,,,,,,,,,,,,,,,,,,,,,left,1.0,0.8150087689937209,,,,,,sub-025,1,random_dot,60.11669034308197,
right,right,21.0,1.0,10.0,right,1.0,1.3331813730037538,,speed,space,3.0316352250010823,,,,,,0.0,0.0,0.0,1.0,10.0,1.0,21.0,1.0,252.11203994500104,,,,,,,,,252.0964446719954,252.44578354999976,253.2459481900005,253.22947515099804,253.22973205900053,253.2459481900005,253.2459481900005,253.2459481900005,,254.58031368799857,,,,,,,,,,,,,,,,,,,,,,,,,,,,,,right,1.0,1.3331813730037538,,,,,,sub-025,1,random_dot,60.11669034308197,
left,left,22.0,0.0,11.0,left,1.0,0.822037783000269,,speed,space,3.0316352250010823,,,,,,0.0,0.0,0.0,1.0,11.0,0.0,22.0,0.0,254.59571279399825,,,,,,,,,254.5806883529949,254.94566501499503,255.74599677800143,255.72933408500103,255.72961715799465,255.74599677800143,255.74599677800143,255.74599677800143,,256.5799424479992,,,,,,,,,,,,,,,,,,,,,,,,,,,,,,left,1.0,0.822037783000269,,,,,,sub-025,1,random_dot,60.11669034308197,
right,right,23.0,1.0,11.0,left,0.0,1.3505477529979544,,speed,space,3.0316352250010823,,,,,,0.0,0.0,0.0,1.0,11.0,1.0,23.0,1.0,256.59612078899954,,,,,,,,,256.5802168800001,257.3797365739956,258.1792006760006,258.1623692469948,258.1626150449956,258.1792006760006,258.1792006760006,258.1792006760006,,259.5464852129953,,,,,,,,,,,,,,,,,,,,,,,,,,,,,,left,0.0,1.3505477529979544,,,,,,sub-025,1,random_dot,60.11669034308197,
left,left,24.0,0.0,12.0,right,0.0,0.8406241990014678,,speed,space,3.0316352250010823,,,,,,0.0,0.0,0.0,1.0,12.0,0.0,24.0,0.0,259.56240075399546,,,,,,,,,259.5468453789945,259.89629245299875,260.69619658999727,260.6800833519956,260.68035353799496,260.69619658999727,260.69619658999727,260.69619658999727,,261.5468879170003,,,,,,,,,,,,,,,,,,,,,,,,,,,,,,right,0.0,0.8406241990014678,,,,,,sub-025,1,random_dot,60.11669034308197,
right,right,25.0,1.0,12.0,right,1.0,0.8673270419967594,,speed,space,3.0316352250010823,,,,,,0.0,0.0,0.0,1.0,12.0,1.0,25.0,1.0,261.56280475699896,,,,,,,,,261.54726782500074,262.3633634989965,263.1631052579978,263.1467995119965,263.1470559809968,263.1631052579978,263.1631052579978,263.1631052579978,,264.0474800619995,,,,,,,,,,,,,,,,,,,,,,,,,,,,,,right,1.0,0.8673270419967594,,,,,,sub-025,1,random_dot,60.11669034308197,
left,left,26.0,0.0,13.0,left,1.0,0.7409793179976987,,speed,space,3.0316352250010823,,,,,,0.0,0.0,0.0,1.0,13.0,0.0,26.0,0.0,264.06310452600155,,,,,,,,,264.0477541509972,264.1631178319949,264.9633358259962,264.9468659119957,264.9471366090001,264.9633358259962,264.9633358259962,264.9633358259962,,265.71368020899536,,,,,,,,,,,,,,,,,,,,,,,,,,,,,,left,1.0,0.7409793179976987,,,,,,sub-025,1,random_dot,60.11669034308197,
right,right,27.0,1.0,13.0,left,0.0,2.0594977410000865,,speed,space,3.0316352250010823,,,,,,0.0,0.0,0.0,1.0,13.0,1.0,27.0,1.0,265.7302241259968,,,,,,,,,265.7139515210001,265.81333185399853,266.61287636099587,266.5966960680016,266.5969545409971,266.61287636099587,266.61287636099587,266.61287636099587,,268.6807178839954,,,,,,,,,,,,,,,,,,,,,,,,,,,,,,left,0.0,2.0594977410000865,,,,,,sub-025,1,random_dot,60.11669034308197,
left,left,28.0,0.0,14.0,left,1.0,0.8494307079963619,,speed,space,3.0316352250010823,,,,,,0.0,0.0,0.0,1.0,14.0,0.0,28.0,0.0,268.6955072099954,,,,,,,,,268.68108889299765,269.0302344429947,269.82993764899584,269.8140941640013,269.8143808239984,269.82993764899584,269.82993764899584,269.82993764899584,,270.68069596200075,,,,,,,,,,,,,,,,,,,,,,,,,,,,,,left,1.0,0.8494307079963619,,,,,,sub-025,1,random_dot,60.11669034308197,
right,right,29.0,1.0,14.0,right,1.0,0.8565386279951781,,speed,space,3.0316352250010823,,,,,,0.0,0.0,0.0,1.0,14.0,1.0,29.0,1.0,270.69672566199733,,,,,,,,,270.6810778759973,271.48021852500096,272.2804214220014,272.26396316899627,272.26423170999624,272.2804214220014,272.2804214220014,272.2804214220014,,273.1477992139989,,,,,,,,,,,,,,,,,,,,,,,,,,,,,,right,1.0,0.8565386279951781,,,,,,sub-025,1,random_dot,60.11669034308197,
right,right,30.0,0.0,15.0,right,1.0,1.2505762210057585,,speed,space,3.0316352250010823,,,,,,0.0,0.0,0.0,1.0,15.0,0.0,30.0,1.0,273.1637583720003,,,,,,,,,273.14806249699905,273.94733950899536,274.74714349999704,274.73104454400163,274.73132958399947,274.74714349999704,274.74714349999704,274.74714349999704,,276.0147762080014,,,,,,,,,,,,,,,,,,,,,,,,,,,,,,right,1.0,1.2505762210057585,,,,,,sub-025,1,random_dot,60.11669034308197,
left,left,31.0,1.0,15.0,left,1.0,0.7004374600001029,,speed,space,3.0316352250010823,,,,,,0.0,0.0,0.0,1.0,15.0,1.0,31.0,0.0,276.0310609829976,,,,,,,,,276.0150501269964,276.81428000699816,277.6141062949973,277.5975450039987,277.5977920489968,277.6141062949973,277.6141062949973,277.6141062949973,,278.33066293299635,,,,,,,,,,,,,,,,,,,,,,,,,,,,,,left,1.0,0.7004374600001029,,,,,,sub-025,1,random_dot,60.11669034308197,
right,right,32.0,0.0,16.0,right,1.0,1.404912301004515,,speed,space,3.0316352250010823,,,,,,0.0,0.0,0.0,1.0,16.0,0.0,32.0,1.0,278.347156101001,,,,,,,,,278.3309789099949,278.6808770200005,279.4804735949947,279.4644893649965,279.4647444759976,279.4804735949947,279.4804735949947,279.4804735949947,,280.8971050889959,,,,,,,,,,,,,,,,,,,,,,,,,,,,,,right,1.0,1.404912301004515,,,,,,sub-025,1,random_dot,60.11669034308197,
left,left,33.0,1.0,16.0,left,1.0,0.8073192430019844,,speed,space,3.0316352250010823,,,,,,0.0,0.0,0.0,1.0,16.0,1.0,33.0,0.0,280.9131308969954,,,,,,,,,280.8973966490012,281.24768824399507,282.0479487970006,282.0312846000015,282.03155409699684,282.0479487970006,282.0479487970006,282.0479487970006,,282.8648740360004,,,,,,,,,,,,,,,,,,,,,,,,,,,,,,left,1.0,0.8073192430019844,,,,,,sub-025,1,random_dot,60.11669034308197,
left,left,34.0,0.0,17.0,left,1.0,0.6940779880023911,,speed,space,3.0316352250010823,,,,,,0.0,0.0,0.0,1.0,17.0,0.0,34.0,0.0,282.8802534119968,,,,,,,,,282.8653281299994,283.2148319789994,284.0142955949996,283.9982321209973,283.998491114995,284.0142955949996,284.0142955949996,284.0142955949996,,284.71486981599446,,,,,,,,,,,,,,,,,,,,,,,,,,,,,,left,1.0,0.6940779880023911,,,,,,sub-025,1,random_dot,60.11669034308197,
right,right,35.0,1.0,17.0,right,1.0,0.9374452539996128,,speed,space,3.0316352250010823,,,,,,0.0,0.0,0.0,1.0,17.0,1.0,35.0,1.0,284.7311256530011,,,,,,,,,284.7153558029968,285.5141727739974,286.3147365959958,286.30315114599944,286.30344536999473,286.3147365959958,286.3147365959958,286.3147365959958,,287.26535909399536,,,,,,,,,,,,,,,,,,,,,,,,,,,,,,right,1.0,0.9374452539996128,,,,,,sub-025,1,random_dot,60.11669034308197,
right,right,36.0,0.0,18.0,right,1.0,3.284738598005788,,speed,space,3.0316352250010823,,,,,,0.0,0.0,0.0,1.0,18.0,0.0,36.0,1.0,287.281270847001,,,,,,,,,287.2657050839989,287.36448062199634,288.16441358899465,288.1482000469987,288.14862674199685,288.16441358899465,288.16441358899465,288.16441358899465,,291.46445526599564,,,,,,,,,,,,,,,,,,,,,,,,,,,,,,right,1.0,3.284738598005788,,,,,,sub-025,1,random_dot,60.11669034308197,
left,left,37.0,1.0,18.0,left,1.0,0.7325248409979395,,speed,space,3.0316352250010823,,,,,,0.0,0.0,0.0,1.0,18.0,1.0,37.0,0.0,291.4803680420009,,,,,,,,,291.4647336189955,292.66541419599525,293.4656461209961,293.4486963359959,293.44894718199794,293.4656461209961,293.4656461209961,293.4656461209961,,294.19956203499896,,,,,,,,,,,,,,,,,,,,,,,,,,,,,,left,1.0,0.7325248409979395,,,,,,sub-025,1,random_dot,60.11669034308197,
left,left,38.0,0.0,19.0,left,1.0,1.6906756610042066,,speed,space,3.0316352250010823,,,,,,0.0,0.0,0.0,1.0,19.0,0.0,38.0,0.0,294.2151554029988,,,,,,,,,294.1999531499969,294.5650155869953,295.3652240829979,295.34872626799915,295.3489874229999,295.3652240829979,295.3652240829979,295.3652240829979,,297.06634397200105,,,,,,,,,,,,,,,,,,,,,,,,,,,,,,left,1.0,1.6906756610042066,,,,,,sub-025,1,random_dot,60.11669034308197,
right,right,39.0,1.0,19.0,right,1.0,2.755885232996661,,speed,space,3.0316352250010823,,,,,,0.0,0.0,0.0,1.0,19.0,1.0,39.0,1.0,297.08216292799625,,,,,,,,,297.0666174259968,297.86567187399487,298.6654058459972,298.6490408009995,298.6493599059977,298.6654058459972,298.6654058459972,298.6654058459972,,301.4327903730009,,,,,,,,,,,,,,,,,,,,,,,,,,,,,,right,1.0,2.755885232996661,,,,,,sub-025,1,random_dot,60.11669034308197,
right,right,40.0,0.0,20.0,left,0.0,0.8892203150026035,,speed,space,3.0316352250010823,,,,,,0.0,0.0,0.0,1.0,20.0,0.0,40.0,1.0,301.4492628980006,,,,,,,,,301.43324335099896,302.23265724299563,303.03216429999884,303.0154557249989,303.0157256579987,303.03216429999884,303.03216429999884,303.03216429999884,,303.933713462,,,,,,,,,,,,,,,,,,,,,,,,,,,,,,left,0.0,0.8892203150026035,,,,,,sub-025,1,random_dot,60.11669034308197,
left,left,41.0,1.0,20.0,left,1.0,0.9199065630018596,,speed,space,3.0316352250010823,,,,,,0.0,0.0,0.0,1.0,20.0,1.0,41.0,0.0,303.94865380999545,,,,,,,,,303.9340675429994,304.2992910979956,305.09962599400023,305.0827512350006,305.08301895699697,305.09962599400023,305.09962599400023,305.09962599400023,,306.0328955229997,,,,,,,,,,,,,,,,,,,,,,,,,,,,,,left,1.0,0.9199065630018596,,,,,,sub-025,1,random_dot,60.11669034308197,
right,right,42.0,0.0,21.0,right,1.0,0.715812767004536,,speed,space,3.0316352250010823,,,,,,0.0,0.0,0.0,1.0,21.0,0.0,42.0,1.0,306.04931232099625,,,,,,,,,306.0331845260007,307.2329249289978,308.03244865699526,308.0166001339967,308.01685878699936,308.03244865699526,308.03244865699526,308.03244865699526,,308.74998308499926,,,,,,,,,,,,,,,,,,,,,,,,,,,,,,right,1.0,0.715812767004536,,,,,,sub-025,1,random_dot,60.11669034308197,
left,left,43.0,1.0,21.0,left,1.0,0.7136409220038331,,speed,space,3.0316352250010823,,,,,,0.0,0.0,0.0,1.0,21.0,1.0,43.0,0.0,308.7662331370011,,,,,,,,,308.7505721579946,309.54954016400006,310.3493471670008,310.33316640599514,310.3334334760002,310.3493471670008,310.3493471670008,310.3493471670008,,311.0667509039995,,,,,,,,,,,,,,,,,,,,,,,,,,,,,,left,1.0,0.7136409220038331,,,,,,sub-025,1,random_dot,60.11669034308197,
left,left,44.0,0.0,22.0,left,1.0,0.7239169499953277,,speed,space,3.0316352250010823,,,,,,0.0,0.0,0.0,1.0,22.0,0.0,44.0,0.0,311.0829558849946,,,,,,,,,311.0670853699994,311.1661662839979,311.966787475998,311.9500411109984,311.9503110789956,311.966787475998,311.966787475998,311.966787475998,,312.69997998100007,,,,,,,,,,,,,,,,,,,,,,,,,,,,,,left,1.0,0.7239169499953277,,,,,,sub-025,1,random_dot,60.11669034308197,
right,right,45.0,1.0,22.0,right,1.0,0.5869045639992692,,speed,space,3.0316352250010823,,,,,,0.0,0.0,0.0,1.0,22.0,1.0,45.0,1.0,312.71560629199666,,,,,,,,,312.70043124199583,313.9001555979994,314.700019029995,314.68382972799736,314.6840981109999,314.700019029995,314.700019029995,314.700019029995,,315.3008106279958,,,,,,,,,,,,,,,,,,,,,,,,,,,,,,right,1.0,0.5869045639992692,,,,,,sub-025,1,random_dot,60.11669034308197,
left,left,46.0,0.0,23.0,left,1.0,0.5827715470004478,,speed,space,3.0316352250010823,,,,,,0.0,0.0,0.0,1.0,23.0,0.0,46.0,0.0,315.3167921450004,,,,,,,,,315.30110997500014,316.5001853789945,317.2998487399964,317.28339745500125,317.2837027399946,317.2998487399964,317.2998487399964,317.2998487399964,,317.88392623599793,,,,,,,,,,,,,,,,,,,,,,,,,,,,,,left,1.0,0.5827715470004478,,,,,,sub-025,1,random_dot,60.11669034308197,
right,right,47.0,1.0,23.0,right,1.0,0.7920578909979668,,speed,space,3.0316352250010823,,,,,,0.0,0.0,0.0,1.0,23.0,1.0,47.0,1.0,317.8999930469945,,,,,,,,,317.8843201950003,318.6835441930016,319.48343605199625,319.467284847,319.46755274300085,319.48343605199625,319.48343605199625,319.48343605199625,,320.2840429380012,,,,,,,,,,,,,,,,,,,,,,,,,,,,,,right,1.0,0.7920578909979668,,,,,,sub-025,1,random_dot,60.11669034308197,
left,left,48.0,0.0,24.0,left,1.0,0.791040587995667,,speed,space,3.0316352250010823,,,,,,0.0,0.0,0.0,1.0,24.0,0.0,48.0,0.0,320.3001750119947,,,,,,,,,320.2843624219968,320.3840442619985,321.18334254100046,321.1668845909953,321.1671335029969,321.18334254100046,321.18334254100046,321.18334254100046,,321.98454983799456,,,,,,,,,,,,,,,,,,,,,,,,,,,,,,left,1.0,0.791040587995667,,,,,,sub-025,1,random_dot,60.11669034308197,
right,right,49.0,1.0,24.0,right,1.0,3.352951667002344,,speed,space,3.0316352250010823,,,,,,0.0,0.0,0.0,1.0,24.0,1.0,49.0,1.0,322.0007350129963,,,,,,,,,321.9848370799955,322.0838932439947,322.8837397639945,322.8669639509972,322.86722186899715,322.8837397639945,322.8837397639945,322.8837397639945,,326.2514168630005,,,,,,,,,,,,,,,,,,,,,,,,,,,,,,right,1.0,3.352951667002344,,,,,,sub-025,1,random_dot,60.11669034308197,
right,right,50.0,0.0,25.0,right,1.0,0.6472826360040926,,speed,space,3.0316352250010823,,,,,,0.0,0.0,0.0,1.0,25.0,0.0,50.0,1.0,326.267624838998,,,,,,,,,326.25169011099933,327.4505582329948,328.25061964400084,328.2346267999965,328.2350378359988,328.25061964400084,328.25061964400084,328.25061964400084,,328.9011710529958,,,,,,,,,,,,,,,,,,,,,,,,,,,,,,right,1.0,0.6472826360040926,,,,,,sub-025,1,random_dot,60.11669034308197,
left,left,51.0,1.0,25.0,right,0.0,0.9680376329997672,,speed,space,3.0316352250010823,,,,,,0.0,0.0,0.0,1.0,25.0,1.0,51.0,0.0,328.9176087169981,,,,,,,,,328.90151807599614,329.2513426639998,330.0506119749989,330.0341039039995,330.0344209510004,330.0506119749989,330.0506119749989,330.0506119749989,,331.03514399599953,,,,,,,,,,,,,,,,,,,,,,,,,,,,,,right,0.0,0.9680376329997672,,,,,,sub-025,1,random_dot,60.11669034308197,
left,left,52.0,0.0,26.0,left,1.0,2.087747509998735,,speed,space,3.0316352250010823,,,,,,0.0,0.0,0.0,1.0,26.0,0.0,52.0,0.0,331.0510963689958,,,,,,,,,331.0354238430009,331.8346790869982,332.6344962399962,332.61829937499715,332.6186221550015,332.6344962399962,332.6344962399962,332.6344962399962,,334.73523652999575,,,,,,,,,,,,,,,,,,,,,,,,,,,,,,left,1.0,2.087747509998735,,,,,,sub-025,1,random_dot,60.11669034308197,
right,right,53.0,1.0,26.0,right,1.0,0.8700088750047144,,speed,space,3.0316352250010823,,,,,,0.0,0.0,0.0,1.0,26.0,1.0,53.0,1.0,334.751560880999,,,,,,,,,334.73550958099804,335.53514708799776,336.33481469099934,336.3183531149989,336.3186269949947,336.33481469099934,336.33481469099934,336.33481469099934,,337.2190899089983,,,,,,,,,,,,,,,,,,,,,,,,,,,,,,right,1.0,0.8700088750047144,,,,,,sub-025,1,random_dot,60.11669034308197,
right,right,54.0,0.0,27.0,right,1.0,2.012762634003593,,speed,space,3.0316352250010823,,,,,,0.0,0.0,0.0,1.0,27.0,0.0,54.0,1.0,337.23447197399946,,,,,,,,,337.2193625180007,337.33498770799633,338.13474954499543,338.1184773540008,338.11873306099733,338.13474954499543,338.13474954499543,338.13474954499543,,340.1519369739981,,,,,,,,,,,,,,,,,,,,,,,,,,,,,,right,1.0,2.012762634003593,,,,,,sub-025,1,random_dot,60.11669034308197,
left,left,55.0,1.0,27.0,left,1.0,1.1415446129976772,,speed,space,3.0316352250010823,,,,,,0.0,0.0,0.0,1.0,27.0,1.0,55.0,0.0,340.1680235379972,,,,,,,,,340.15224447799847,340.5020084169955,341.301700461001,341.2854676089992,341.2857295099966,341.301700461001,341.301700461001,341.301700461001,,342.4527295469961,,,,,,,,,,,,,,,,,,,,,,,,,,,,,,left,1.0,1.1415446129976772,,,,,,sub-025,1,random_dot,60.11669034308197,
left,left,56.0,0.0,28.0,left,1.0,0.7844956930057378,,speed,space,3.0316352250010823,,,,,,0.0,0.0,0.0,1.0,28.0,0.0,56.0,0.0,342.46787701299763,,,,,,,,,342.4532222900016,342.8176821839952,343.6188270929997,343.60199690299487,343.6022669689992,343.6188270929997,343.6188270929997,343.6188270929997,,344.4183916089969,,,,,,,,,,,,,,,,,,,,,,,,,,,,,,left,1.0,0.7844956930057378,,,,,,sub-025,1,random_dot,60.11669034308197,
right,right,57.0,1.0,28.0,right,1.0,0.6103920730020036,,speed,space,3.0316352250010823,,,,,,0.0,0.0,0.0,1.0,28.0,1.0,57.0,1.0,344.4341575899962,,,,,,,,,344.41868246599915,345.6187375609952,346.4186693070005,346.4024993419953,346.4027557609952,346.4186693070005,346.4186693070005,346.4186693070005,,347.03605368900025,,,,,,,,,,,,,,,,,,,,,,,,,,,,,,right,1.0,0.6103920730020036,,,,,,sub-025,1,random_dot,60.11669034308197,
left,left,58.0,0.0,29.0,left,1.0,0.6884367270031362,,speed,space,3.0316352250010823,,,,,,0.0,0.0,0.0,1.0,29.0,0.0,58.0,0.0,347.0524104110009,,,,,,,,,347.0364751899979,347.3857006179969,348.18565123499866,348.1694956759966,348.16976623200026,348.18565123499866,348.18565123499866,348.18565123499866,,348.8863106439967,,,,,,,,,,,,,,,,,,,,,,,,,,,,,,left,1.0,0.6884367270031362,,,,,,sub-025,1,random_dot,60.11669034308197,
right,right,59.0,1.0,29.0,right,1.0,0.6047028449975187,,speed,space,3.0316352250010823,,,,,,0.0,0.0,0.0,1.0,29.0,1.0,59.0,1.0,348.902355653001,,,,,,,,,348.88658960299654,349.7024058229945,350.5023085149951,350.4861971739956,350.4864802000011,350.5023085149951,350.5023085149951,350.5023085149951,,351.11985574499704,,,,,,,,,,,,,,,,,,,,,,,,,,,,,,right,1.0,0.6047028449975187,,,,,,sub-025,1,random_dot,60.11669034308197,
,,0.0,0.0,0.0,,,,,speed,space,3.0316352250010823,,,,,,0.0,0.0,0.0,1.0,,,,,,,,,,,,,,,,,,,,,,,,,,,,,,,,,,,,,,,,,,,,,,,,,,,,,,,,,,,,,sub-025,1,random_dot,60.11669034308197,
right,right,0.0,0.0,0.0,right,1.0,2.969069110993587,,accuracy,space,4.310794232995249,,,,,,0.0,1.0,1.0,0.0,0.0,0.0,0.0,1.0,355.48644021699874,,,,,,,,,355.4768403009948,355.8195245909956,356.61933832900104,356.6026292089955,356.6028915239949,356.61933832900104,356.61933832900104,356.61933832900104,,359.6037000119977,,,,,,,,,,,,,,,,,,,,,,,351.13552218599943,351.1438239709969,351.1438239709969,355.4703392779993,space,4.310794232995249,,right,1.0,2.969069110993587,,,,,,sub-025,1,random_dot,60.11669034308197,
left,left,1.0,1.0,0.0,left,1.0,1.131575427003554,,accuracy,space,4.310794232995249,,,,,,0.0,1.0,1.0,0.0,0.0,1.0,1.0,0.0,359.6199876199971,,,,,,,,,359.603974327998,359.70298967899726,360.5029606850003,360.48607889199775,360.4863371879983,360.5029606850003,360.5029606850003,360.5029606850003,,361.6365372319997,,,,,,,,,,,,,,,,,,,,,,,,,,,,,,left,1.0,1.131575427003554,,,,,,sub-025,1,random_dot,60.11669034308197,
right,right,2.0,0.0,1.0,right,1.0,0.9022488330010674,,accuracy,space,4.310794232995249,,,,,,0.0,1.0,1.0,0.0,1.0,0.0,2.0,1.0,361.6532400709984,,,,,,,,,361.6369757680004,362.83649872800015,363.63713533499686,363.6202033989976,363.6204707659999,363.63713533499686,363.63713533499686,363.63713533499686,,364.553986891995,,,,,,,,,,,,,,,,,,,,,,,,,,,,,,right,1.0,0.9022488330010674,,,,,,sub-025,1,random_dot,60.11669034308197,
left,left,3.0,1.0,1.0,left,1.0,2.446348980003677,,accuracy,space,4.310794232995249,,,,,,0.0,1.0,1.0,0.0,1.0,1.0,3.0,0.0,364.56955339999695,,,,,,,,,364.5542472859961,365.75351413599856,366.5537831010006,366.5371419919975,366.5374101720008,366.5537831010006,366.5537831010006,366.5537831010006,,369.0044198579999,,,,,,,,,,,,,,,,,,,,,,,,,,,,,,left,1.0,2.446348980003677,,,,,,sub-025,1,random_dot,60.11669034308197,
right,right,4.0,0.0,2.0,right,1.0,4.96410514699528,,accuracy,space,4.310794232995249,,,,,,0.0,1.0,1.0,0.0,2.0,0.0,4.0,1.0,369.0202720379966,,,,,,,,,369.00472303399874,370.2038013359997,371.0040268550001,370.9870801139987,370.9873393119997,371.0040268550001,371.0040268550001,371.0040268550001,375.98730126900045,375.9711662139962,,,,,,,,,,,,,,,,,,,,,,,,,,,,,,right,1.0,4.96410514699528,,,,,,sub-025,1,random_dot,60.11669034308197,
left,left,5.0,1.0,2.0,left,1.0,1.1493439429978023,,accuracy,space,4.310794232995249,,,,,,0.0,1.0,1.0,0.0,2.0,1.0,5.0,0.0,375.98730126900045,,,,,,,,,375.9715006139959,376.7708776989966,377.57140790699486,377.5548297339992,377.5550971859993,377.57140790699486,377.57140790699486,377.57140790699486,,378.7222184979983,,,,,,,,,,,,,,,,,,,,,,,,,,,,,,left,1.0,1.1493439429978023,,,,,,sub-025,1,random_dot,60.11669034308197,
left,left,6.0,0.0,3.0,left,1.0,0.7834601119975559,,accuracy,space,4.310794232995249,,,,,,0.0,1.0,1.0,0.0,3.0,0.0,6.0,0.0,378.7379764860016,,,,,,,,,378.72261576399615,379.5374808159977,380.3380983989992,380.321174343997,380.32144384899584,380.3380983989992,380.3380983989992,380.3380983989992,,381.1386530079981,,,,,,,,,,,,,,,,,,,,,,,,,,,,,,left,1.0,0.7834601119975559,,,,,,sub-025,1,random_dot,60.11669034308197,
right,right,7.0,1.0,3.0,left,0.0,1.5558519159967543,,accuracy,space,4.310794232995249,,,,,,0.0,1.0,1.0,0.0,3.0,1.0,7.0,1.0,381.154776176998,,,,,,,,,381.138935555995,381.4877981280006,382.28748942699895,382.27151856099954,382.2717844289946,382.28748942699895,382.28748942699895,382.28748942699895,,383.8554469919982,,,,,,,,,,,,,,,,,,,,,,,,,,,,,,left,0.0,1.5558519159967543,,,,,,sub-025,1,random_dot,60.11669034308197,
left,left,8.0,0.0,4.0,left,1.0,1.264610767000704,,accuracy,space,4.310794232995249,,,,,,0.0,1.0,1.0,0.0,4.0,0.0,8.0,0.0,383.8712042170009,,,,,,,,,383.8557325059956,383.95468220600014,384.7545856409997,384.7385474580005,384.7388180880007,384.7545856409997,384.7545856409997,384.7545856409997,,386.02188240499527,,,,,,,,,,,,,,,,,,,,,,,,,,,,,,left,1.0,1.264610767000704,,,,,,sub-025,1,random_dot,60.11669034308197,
right,right,9.0,1.0,4.0,right,1.0,0.8983802990042022,,accuracy,space,4.310794232995249,,,,,,0.0,1.0,1.0,0.0,4.0,1.0,9.0,1.0,386.03842517299927,,,,,,,,,386.02219739800057,386.3718038769948,387.17186866299744,387.1547831259959,387.1551016879967,387.17186866299744,387.17186866299744,387.17186866299744,,388.0722368130009,,,,,,,,,,,,,,,,,,,,,,,,,,,,,,right,1.0,0.8983802990042022,,,,,,sub-025,1,random_dot,60.11669034308197,
left,left,10.0,0.0,5.0,left,1.0,1.208423023999785,,accuracy,space,4.310794232995249,,,,,,0.0,1.0,1.0,0.0,5.0,0.0,10.0,0.0,388.0884482859983,,,,,,,,,388.07260742200015,388.4217584329963,389.2214703849968,389.2054598620016,389.20572090999485,389.2214703849968,389.2214703849968,389.2214703849968,,390.4395066910001,,,,,,,,,,,,,,,,,,,,,,,,,,,,,,left,1.0,1.208423023999785,,,,,,sub-025,1,random_dot,60.11669034308197,
right,right,11.0,1.0,5.0,left,0.0,1.766863167998963,,accuracy,space,4.310794232995249,,,,,,0.0,1.0,1.0,0.0,5.0,1.0,11.0,1.0,390.4548792679998,,,,,,,,,390.4397862990008,391.238455136001,392.0388412139946,392.0215363129973,392.02179319299466,392.0388412139946,392.0388412139946,392.0388412139946,,393.80676422800025,,,,,,,,,,,,,,,,,,,,,,,,,,,,,,left,0.0,1.766863167998963,,,,,,sub-025,1,random_dot,60.11669034308197,
left,left,12.0,0.0,6.0,left,1.0,2.4144670110035804,,accuracy,space,4.310794232995249,,,,,,0.0,1.0,1.0,0.0,6.0,0.0,12.0,0.0,393.8222186739949,,,,,,,,,393.8071669899946,395.02212642000086,395.8216142589954,395.8058608599968,395.8061304549992,395.8216142589954,395.8216142589954,395.8216142589954,,398.2394878339983,,,,,,,,,,,,,,,,,,,,,,,,,,,,,,left,1.0,2.4144670110035804,,,,,,sub-025,1,random_dot,60.11669034308197,
right,right,13.0,1.0,6.0,left,0.0,2.219236122000438,,accuracy,space,4.310794232995249,,,,,,0.0,1.0,1.0,0.0,6.0,1.0,13.0,1.0,398.2556316089977,,,,,,,,,398.23984216900135,398.5891399769971,399.3894185379977,399.372663053,399.37294382500113,399.3894185379977,399.3894185379977,399.3894185379977,,401.6224252329994,,,,,,,,,,,,,,,,,,,,,,,,,,,,,,left,0.0,2.219236122000438,,,,,,sub-025,1,random_dot,60.11669034308197,
right,right,14.0,0.0,7.0,left,0.0,1.521533517996431,,accuracy,space,4.310794232995249,,,,,,0.0,1.0,1.0,0.0,7.0,0.0,14.0,1.0,401.6382524829969,,,,,,,,,401.6227883159954,401.7224638269981,402.5218686419976,402.5064479569992,402.50688818399794,402.5218686419976,402.5218686419976,402.5218686419976,,404.05623470000137,,,,,,,,,,,,,,,,,,,,,,,,,,,,,,left,0.0,1.521533517996431,,,,,,sub-025,1,random_dot,60.11669034308197,
left,left,15.0,1.0,7.0,left,1.0,4.012191121000797,,accuracy,space,4.310794232995249,,,,,,0.0,1.0,1.0,0.0,7.0,1.0,15.0,0.0,404.0727824419955,,,,,,,,,404.0565123269989,405.2562575609991,406.0558248609959,406.0399849809983,406.0402708879992,406.0558248609959,406.0558248609959,406.0558248609959,,410.07368581899937,,,,,,,,,,,,,,,,,,,,,,,,,,,,,,left,1.0,4.012191121000797,,,,,,sub-025,1,random_dot,60.11669034308197,
right,right,16.0,0.0,8.0,left,0.0,2.119939453994448,,accuracy,space,4.310794232995249,,,,,,0.0,1.0,1.0,0.0,8.0,0.0,16.0,1.0,410.08898580399546,,,,,,,,,410.074191615,410.8735760109994,411.6735442459976,411.6569025040008,411.6571704739981,411.6735442459976,411.6735442459976,411.6735442459976,,413.80759840099927,,,,,,,,,,,,,,,,,,,,,,,,,,,,,,left,0.0,2.119939453994448,,,,,,sub-025,1,random_dot,60.11669034308197,
left,left,17.0,1.0,8.0,left,1.0,5.770971297999495,,accuracy,space,4.310794232995249,,,,,,0.0,1.0,1.0,0.0,8.0,1.0,17.0,0.0,413.823796081997,,,,,,,,,413.8078878460001,415.0234898470008,415.823876167,415.8071653849984,415.807434712995,415.823876167,415.823876167,415.823876167,420.8074744359983,421.60794099800114,,,,,,,,,,,,,,,,,,,,,,,,,,,,,,left,1.0,5.770971297999495,,,,,,sub-025,1,random_dot,60.11669034308197,
right,right,18.0,0.0,9.0,right,1.0,4.556195459001174,,accuracy,space,4.310794232995249,,,,,,0.0,1.0,1.0,0.0,9.0,0.0,18.0,1.0,421.62365030899673,,,,,,,,,421.6083082490004,421.9573927620004,422.7574580590008,422.7409441849959,422.7412289579952,422.7574580590008,422.7574580590008,422.7574580590008,,427.3249617869951,,,,,,,,,,,,,,,,,,,,,,,,,,,,,,right,1.0,4.556195459001174,,,,,,sub-025,1,random_dot,60.11669034308197,
left,left,19.0,1.0,9.0,left,1.0,1.0168947009951808,,accuracy,space,4.310794232995249,,,,,,0.0,1.0,1.0,0.0,9.0,1.0,19.0,0.0,427.3413665699991,,,,,,,,,427.3252337059967,427.6744643130005,428.4744388909967,428.4582019180016,428.4584649329991,428.4744388909967,428.4744388909967,428.4744388909967,,429.5086078050008,,,,,,,,,,,,,,,,,,,,,,,,,,,,,,left,1.0,1.0168947009951808,,,,,,sub-025,1,random_dot,60.11669034308197,
left,left,20.0,0.0,10.0,left,1.0,5.68932901500375,,accuracy,space,4.310794232995249,,,,,,0.0,1.0,1.0,0.0,10.0,0.0,20.0,0.0,429.5247321839997,,,,,,,,,429.5089446759957,429.6241557100002,430.42497456099954,430.4078199419964,430.4080697850004,430.42497456099954,430.42497456099954,430.42497456099954,435.4082750029993,436.1252822109964,,,,,,,,,,,,,,,,,,,,,,,,,,,,,,left,1.0,5.68932901500375,,,,,,sub-025,1,random_dot,60.11669034308197,
right,right,21.0,1.0,10.0,right,1.0,4.7364885860006325,,accuracy,space,4.310794232995249,,,,,,0.0,1.0,1.0,0.0,10.0,1.0,21.0,1.0,436.1411241390015,,,,,,,,,436.1257165060015,436.9253054360015,437.7250033599994,437.7089687569969,437.70923610799946,437.7250033599994,437.7250033599994,437.7250033599994,,442.4758984309956,,,,,,,,,,,,,,,,,,,,,,,,,,,,,,right,1.0,4.7364885860006325,,,,,,sub-025,1,random_dot,60.11669034308197,
right,right,22.0,0.0,11.0,right,1.0,2.0171013440049137,,accuracy,space,4.310794232995249,,,,,,0.0,1.0,1.0,0.0,11.0,0.0,22.0,1.0,442.4923863859949,,,,,,,,,442.4761715259956,442.82576049999625,443.6256150049958,443.6095320460008,443.6098013730007,443.6256150049958,443.6256150049958,443.6256150049958,,445.6599264530014,,,,,,,,,,,,,,,,,,,,,,,,,,,,,,right,1.0,2.0171013440049137,,,,,,sub-025,1,random_dot,60.11669034308197,
left,left,23.0,1.0,11.0,left,1.0,2.757731243997114,,accuracy,space,4.310794232995249,,,,,,0.0,1.0,1.0,0.0,11.0,1.0,23.0,0.0,445.6759047099986,,,,,,,,,445.66019671200047,445.759004487998,446.55885227999534,446.5422386559949,446.5424973990012,446.55885227999534,446.55885227999534,446.55885227999534,,449.3264047240009,,,,,,,,,,,,,,,,,,,,,,,,,,,,,,left,1.0,2.757731243997114,,,,,,sub-025,1,random_dot,60.11669034308197,
right,right,24.0,0.0,12.0,left,0.0,4.259628915002395,,accuracy,space,4.310794232995249,,,,,,0.0,1.0,1.0,0.0,12.0,0.0,24.0,1.0,449.3425603619981,,,,,,,,,449.3266748800015,449.4261185309952,450.2257096839967,450.2088098289969,450.209057551001,450.2257096839967,450.2257096839967,450.2257096839967,,454.4944323390009,,,,,,,,,,,,,,,,,,,,,,,,,,,,,,left,0.0,4.259628915002395,,,,,,sub-025,1,random_dot,60.11669034308197,
left,left,25.0,1.0,12.0,left,1.0,5.521515679000004,,accuracy,space,4.310794232995249,,,,,,0.0,1.0,1.0,0.0,12.0,1.0,25.0,0.0,454.5092398249981,,,,,,,,,454.4947148110005,455.7092200420011,456.509408427999,456.4928779399997,456.4932118500001,456.509408427999,456.509408427999,456.509408427999,461.4928773029969,462.0440111880016,,,,,,,,,,,,,,,,,,,,,,,,,,,,,,left,1.0,5.521515679000004,,,,,,sub-025,1,random_dot,60.11669034308197,
right,right,26.0,0.0,13.0,left,0.0,6.359594217996346,,accuracy,space,4.310794232995249,,,,,,0.0,1.0,1.0,0.0,13.0,0.0,26.0,1.0,462.0605129959949,,,,,,,,,462.0443038509984,463.2426249729979,464.04240086999926,464.0267139079952,464.0270342110016,464.04240086999926,464.04240086999926,464.04240086999926,469.0272621920012,470.41181842499645,,,,,,,,,,,,,,,,,,,,,,,,,,,,,,left,0.0,6.359594217996346,,,,,,sub-025,1,random_dot,60.11669034308197,
left,left,27.0,1.0,13.0,left,1.0,1.8750615640019528,,accuracy,space,4.310794232995249,,,,,,0.0,1.0,1.0,0.0,13.0,1.0,27.0,0.0,470.42680555900006,,,,,,,,,470.4122947579963,470.5268192270014,471.3275460759978,471.3107978299959,471.3110465439968,471.3275460759978,471.3275460759978,471.3275460759978,,473.21037755299767,,,,,,,,,,,,,,,,,,,,,,,,,,,,,,left,1.0,1.8750615640019528,,,,,,sub-025,1,random_dot,60.11669034308197,
left,left,28.0,0.0,14.0,left,1.0,4.291171139993821,,accuracy,space,4.310794232995249,,,,,,0.0,1.0,1.0,0.0,14.0,0.0,28.0,0.0,473.2262681610009,,,,,,,,,473.21065156999975,474.4109972899969,475.2108305219954,475.19477971499873,475.1950495869969,475.2108305219954,475.2108305219954,475.2108305219954,,479.5118216599949,,,,,,,,,,,,,,,,,,,,,,,,,,,,,,left,1.0,4.291171139993821,,,,,,sub-025,1,random_dot,60.11669034308197,
right,right,29.0,1.0,14.0,right,1.0,1.071138589999464,,accuracy,space,4.310794232995249,,,,,,0.0,1.0,1.0,0.0,14.0,1.0,29.0,1.0,479.5273830849983,,,,,,,,,479.5121242749956,480.31166080899857,481.1113929310013,481.0951761449978,481.09543182500056,481.1113929310013,481.1113929310013,481.1113929310013,,482.1957064519957,,,,,,,,,,,,,,,,,,,,,,,,,,,,,,right,1.0,1.071138589999464,,,,,,sub-025,1,random_dot,60.11669034308197,
right,right,30.0,0.0,15.0,right,1.0,3.72186786000384,,accuracy,space,4.310794232995249,,,,,,0.0,1.0,1.0,0.0,15.0,0.0,30.0,1.0,482.2112839609981,,,,,,,,,482.1959759909951,482.3116355239981,483.11168283099687,483.09533120099513,483.0955991699957,483.11168283099687,483.11168283099687,483.11168283099687,,486.846000507001,,,,,,,,,,,,,,,,,,,,,,,,,,,,,,right,1.0,3.72186786000384,,,,,,sub-025,1,random_dot,60.11669034308197,
left,left,31.0,1.0,15.0,left,1.0,2.421651356999064,,accuracy,space,4.310794232995249,,,,,,0.0,1.0,1.0,0.0,15.0,1.0,31.0,0.0,486.861027025996,,,,,,,,,486.8462835669998,486.9448186289956,487.7453129559945,487.727821911998,487.7282345679996,487.7453129559945,487.7453129559945,487.7453129559945,,490.17909688800137,,,,,,,,,,,,,,,,,,,,,,,,,,,,,,left,1.0,2.421651356999064,,,,,,sub-025,1,random_dot,60.11669034308197,
right,right,32.0,0.0,16.0,right,1.0,0.8978998919992591,,accuracy,space,4.310794232995249,,,,,,0.0,1.0,1.0,0.0,16.0,0.0,32.0,1.0,490.19526824700006,,,,,,,,,490.1793541039952,490.9787009290012,491.778801030996,491.7624241349986,491.762743524996,491.778801030996,491.778801030996,491.778801030996,,492.6791330080014,,,,,,,,,,,,,,,,,,,,,,,,,,,,,,right,1.0,0.8978998919992591,,,,,,sub-025,1,random_dot,60.11669034308197,
left,left,33.0,1.0,16.0,left,1.0,4.621502160996897,,accuracy,space,4.310794232995249,,,,,,0.0,1.0,1.0,0.0,16.0,1.0,33.0,0.0,492.6945828159951,,,,,,,,,492.67960653099726,492.7948245180014,493.5959079390013,493.5792581189962,493.5795258610015,493.5959079390013,493.5959079390013,493.5959079390013,,498.2299806379961,,,,,,,,,,,,,,,,,,,,,,,,,,,,,,left,1.0,4.621502160996897,,,,,,sub-025,1,random_dot,60.11669034308197,
right,right,34.0,0.0,17.0,right,1.0,5.521532543003559,,accuracy,space,4.310794232995249,,,,,,0.0,1.0,1.0,0.0,17.0,0.0,34.0,1.0,498.2462257980005,,,,,,,,,498.2302525589985,498.5789248250003,499.3791591089976,499.36327738899854,499.3635436149998,499.3791591089976,499.3791591089976,499.3791591089976,504.3629653289972,504.9129817939975,,,,,,,,,,,,,,,,,,,,,,,,,,,,,,right,1.0,5.521532543003559,,,,,,sub-025,1,random_dot,60.11669034308197,
left,left,35.0,1.0,17.0,left,1.0,2.57790997599659,,accuracy,space,4.310794232995249,,,,,,0.0,1.0,1.0,0.0,17.0,1.0,35.0,0.0,504.92905375699775,,,,,,,,,504.9132687179954,505.0123222129987,505.8131683199972,505.7965913989974,505.7968701009959,505.8131683199972,505.8131683199972,505.8131683199972,,508.3971822159947,,,,,,,,,,,,,,,,,,,,,,,,,,,,,,left,1.0,2.57790997599659,,,,,,sub-025,1,random_dot,60.11669034308197,
left,left,36.0,0.0,18.0,left,1.0,3.342241498001385,,accuracy,space,4.310794232995249,,,,,,0.0,1.0,1.0,0.0,18.0,0.0,36.0,0.0,508.4137086310002,,,,,,,,,508.3976111800002,509.5969249369955,510.396951707,510.3803330399969,510.3806819339952,510.396951707,510.396951707,510.396951707,,513.7483686490013,,,,,,,,,,,,,,,,,,,,,,,,,,,,,,left,1.0,3.342241498001385,,,,,,sub-025,1,random_dot,60.11669034308197,
right,right,37.0,1.0,18.0,left,0.0,5.776905386002909,,accuracy,space,4.310794232995249,,,,,,0.0,1.0,1.0,0.0,18.0,1.0,37.0,1.0,513.763668874999,,,,,,,,,513.748625608001,513.8638680669974,514.6632616450006,514.6472628990014,514.6476212999987,514.6632616450006,514.6632616450006,514.6632616450006,519.6471664169949,520.4481121249992,,,,,,,,,,,,,,,,,,,,,,,,,,,,,,left,0.0,5.776905386002909,,,,,,sub-025,1,random_dot,60.11669034308197,
left,left,38.0,0.0,19.0,right,0.0,4.234384164999938,,accuracy,space,4.310794232995249,,,,,,0.0,1.0,1.0,0.0,19.0,0.0,38.0,0.0,520.4642820199952,,,,,,,,,520.4485674899988,520.797033502,521.5973071039989,521.5812105259974,521.5815464109983,521.5973071039989,521.5973071039989,521.5973071039989,,525.8488531619951,,,,,,,,,,,,,,,,,,,,,,,,,,,,,,right,0.0,4.234384164999938,,,,,,sub-025,1,random_dot,60.11669034308197,
right,right,39.0,1.0,19.0,left,0.0,5.49558416599757,,accuracy,space,4.310794232995249,,,,,,0.0,1.0,1.0,0.0,19.0,1.0,39.0,1.0,525.8643753219949,,,,,,,,,525.8491264549957,526.2147357159993,527.0147868529966,526.9985041129985,526.9987733679955,527.0147868529966,527.0147868529966,527.0147868529966,531.9982763799999,532.5154223099962,,,,,,,,,,,,,,,,,,,,,,,,,,,,,,left,0.0,5.49558416599757,,,,,,sub-025,1,random_dot,60.11669034308197,
left,left,40.0,0.0,20.0,left,1.0,2.2064152950042626,,accuracy,space,4.310794232995249,,,,,,0.0,1.0,1.0,0.0,20.0,0.0,40.0,0.0,532.5311699829981,,,,,,,,,532.5157465859957,533.7150641490007,534.5149689460013,534.4986829170011,534.4989432430011,534.5149689460013,534.5149689460013,534.5149689460013,,536.7324706349973,,,,,,,,,,,,,,,,,,,,,,,,,,,,,,left,1.0,2.2064152950042626,,,,,,sub-025,1,random_dot,60.11669034308197,
right,right,41.0,1.0,20.0,right,1.0,2.8820665790044586,,accuracy,space,4.310794232995249,,,,,,0.0,1.0,1.0,0.0,20.0,1.0,41.0,1.0,536.7483715889975,,,,,,,,,536.7328407069945,537.9320143570003,538.7318527649986,538.7158837249954,538.7161525150004,538.7318527649986,538.7318527649986,538.7318527649986,,541.6163084680011,,,,,,,,,,,,,,,,,,,,,,,,,,,,,,right,1.0,2.8820665790044586,,,,,,sub-025,1,random_dot,60.11669034308197,
right,right,42.0,0.0,21.0,left,0.0,3.839735290996032,,accuracy,space,4.310794232995249,,,,,,0.0,1.0,1.0,0.0,21.0,0.0,42.0,1.0,541.6314505689952,,,,,,,,,541.6166240499952,542.8154275839988,543.615535762001,543.5991217990013,543.5993917219967,543.615535762001,543.615535762001,543.615535762001,,547.466858421998,,,,,,,,,,,,,,,,,,,,,,,,,,,,,,left,0.0,3.839735290996032,,,,,,sub-025,1,random_dot,60.11669034308197,
left,left,43.0,1.0,21.0,left,1.0,4.230131550997612,,accuracy,space,4.310794232995249,,,,,,0.0,1.0,1.0,0.0,21.0,1.0,43.0,0.0,547.4824236679997,,,,,,,,,547.467118034001,547.8327358879978,548.6325355759982,548.6163582759982,548.6166270589965,548.6325355759982,548.6325355759982,548.6325355759982,,552.8668561689992,,,,,,,,,,,,,,,,,,,,,,,,,,,,,,left,1.0,4.230131550997612,,,,,,sub-025,1,random_dot,60.11669034308197,
right,right,44.0,0.0,22.0,left,0.0,5.721192548000545,,accuracy,space,4.310794232995249,,,,,,0.0,1.0,1.0,0.0,22.0,0.0,44.0,1.0,552.8823323499964,,,,,,,,,552.8673081109955,553.666571982998,554.482059932001,554.465403754999,554.465660281996,554.482059932001,554.482059932001,554.482059932001,559.4667126970016,560.2165350799987,,,,,,,,,,,,,,,,,,,,,,,,,,,,,,left,0.0,5.721192548000545,,,,,,sub-025,1,random_dot,60.11669034308197,
left,left,45.0,1.0,22.0,left,1.0,2.2958407670012093,,accuracy,space,4.310794232995249,,,,,,0.0,1.0,1.0,0.0,22.0,1.0,45.0,0.0,560.2328884769959,,,,,,,,,560.2170074640017,561.0168987799989,561.8167802440003,561.8004448540014,561.8006983509986,561.8167802440003,561.8167802440003,561.8167802440003,,564.1176733739994,,,,,,,,,,,,,,,,,,,,,,,,,,,,,,left,1.0,2.2958407670012093,,,,,,sub-025,1,random_dot,60.11669034308197,
left,left,46.0,0.0,23.0,left,1.0,5.463048618999892,,accuracy,space,4.310794232995249,,,,,,0.0,1.0,1.0,0.0,23.0,0.0,46.0,0.0,564.1336940209949,,,,,,,,,564.1180582980014,565.3173347569973,566.1174968509949,566.1009941529992,566.1013791609948,566.1174968509949,566.1174968509949,566.1174968509949,571.1009927199993,571.5846497929961,,,,,,,,,,,,,,,,,,,,,,,,,,,,,,left,1.0,5.463048618999892,,,,,,sub-025,1,random_dot,60.11669034308197,
right,right,47.0,1.0,23.0,right,1.0,4.175916610998684,,accuracy,space,4.310794232995249,,,,,,0.0,1.0,1.0,0.0,23.0,1.0,47.0,1.0,571.601132292999,,,,,,,,,571.5849556219982,571.9346692839972,572.733844892995,572.7180251280006,572.7182710159977,572.733844892995,572.733844892995,572.733844892995,,576.9187577819976,,,,,,,,,,,,,,,,,,,,,,,,,,,,,,right,1.0,4.175916610998684,,,,,,sub-025,1,random_dot,60.11669034308197,
right,right,48.0,0.0,24.0,right,1.0,4.226098551000177,,accuracy,space,4.310794232995249,,,,,,0.0,1.0,1.0,0.0,24.0,0.0,48.0,1.0,576.9345087900001,,,,,,,,,576.9190663599948,577.017741343996,577.818174854001,577.8015325899978,577.8018141889988,577.818174854001,577.818174854001,577.818174854001,,582.0525205710001,,,,,,,,,,,,,,,,,,,,,,,,,,,,,,right,1.0,4.226098551000177,,,,,,sub-025,1,random_dot,60.11669034308197,
left,left,49.0,1.0,24.0,left,1.0,5.442693479002628,,accuracy,space,4.310794232995249,,,,,,0.0,1.0,1.0,0.0,24.0,1.0,49.0,0.0,582.0683879049975,,,,,,,,,582.0528008179972,582.8671914799997,583.6685904209953,583.6523634299956,583.6526367170009,583.6685904209953,583.6685904209953,583.6685904209953,588.6519578109946,589.1193361909973,,,,,,,,,,,,,,,,,,,,,,,,,,,,,,left,1.0,5.442693479002628,,,,,,sub-025,1,random_dot,60.11669034308197,
left,left,50.0,0.0,25.0,left,1.0,5.614810684004624,,accuracy,space,4.310794232995249,,,,,,0.0,1.0,1.0,0.0,25.0,0.0,50.0,0.0,589.1353356459949,,,,,,,,,589.1198955910004,589.4680813250015,590.2684269689998,590.2526517399965,590.2529232149973,590.2684269689998,590.2684269689998,590.2684269689998,595.2520462269968,595.8864578459979,,,,,,,,,,,,,,,,,,,,,,,,,,,,,,left,1.0,5.614810684004624,,,,,,sub-025,1,random_dot,60.11669034308197,
right,right,51.0,1.0,25.0,right,1.0,3.2273986209984287,,accuracy,space,4.310794232995249,,,,,,0.0,1.0,1.0,0.0,25.0,1.0,51.0,1.0,595.902865076001,,,,,,,,,595.8868177569966,596.2361992090009,597.0358415739975,597.0195879289968,597.0199054240002,597.0358415739975,597.0358415739975,597.0358415739975,,600.2698255819996,,,,,,,,,,,,,,,,,,,,,,,,,,,,,,right,1.0,3.2273986209984287,,,,,,sub-025,1,random_dot,60.11669034308197,
left,left,52.0,0.0,26.0,left,1.0,1.4870605999967663,,accuracy,space,4.310794232995249,,,,,,0.0,1.0,1.0,0.0,26.0,0.0,52.0,0.0,600.2864073819946,,,,,,,,,600.2703621399996,600.3698354129956,601.1696034579945,601.1529824530007,601.1533041369985,601.1696034579945,601.1696034579945,601.1696034579945,,602.6703300609952,,,,,,,,,,,,,,,,,,,,,,,,,,,,,,left,1.0,1.4870605999967663,,,,,,sub-025,1,random_dot,60.11669034308197,
right,right,53.0,1.0,26.0,right,1.0,2.817476146003173,,accuracy,space,4.310794232995249,,,,,,0.0,1.0,1.0,0.0,26.0,1.0,53.0,1.0,602.6867098739967,,,,,,,,,602.6706006140012,603.0200756009945,603.8197721949982,603.8032088519976,603.8035461219988,603.8197721949982,603.8197721949982,603.8197721949982,,606.6541457700005,,,,,,,,,,,,,,,,,,,,,,,,,,,,,,right,1.0,2.817476146003173,,,,,,sub-025,1,random_dot,60.11669034308197,
right,right,54.0,0.0,27.0,right,1.0,1.96883970899944,,accuracy,space,4.310794232995249,,,,,,0.0,1.0,1.0,0.0,27.0,0.0,54.0,1.0,606.6700700180008,,,,,,,,,606.6544161019992,607.4531758550002,608.2536537989945,608.2369020810002,608.2371721550007,608.2536537989945,608.2536537989945,608.2536537989945,,610.2368797879972,,,,,,,,,,,,,,,,,,,,,,,,,,,,,,right,1.0,1.96883970899944,,,,,,sub-025,1,random_dot,60.11669034308197,
left,left,55.0,1.0,27.0,left,1.0,2.652272780003841,,accuracy,space,4.310794232995249,,,,,,0.0,1.0,1.0,0.0,27.0,1.0,55.0,0.0,610.2526282289982,,,,,,,,,610.2371626629974,611.0372167859969,611.8371190209946,611.8207137209974,611.8209728879956,611.8371190209946,611.8371190209946,611.8371190209946,,614.5036258819964,,,,,,,,,,,,,,,,,,,,,,,,,,,,,,left,1.0,2.652272780003841,,,,,,sub-025,1,random_dot,60.11669034308197,
left,left,56.0,0.0,28.0,right,0.0,1.930922252999153,,accuracy,space,4.310794232995249,,,,,,0.0,1.0,1.0,0.0,28.0,0.0,56.0,0.0,614.5194505629988,,,,,,,,,614.5039092459992,615.3040527369958,616.104343686995,616.087711729997,616.0879798269962,616.104343686995,616.104343686995,616.104343686995,,618.0378996020008,,,,,,,,,,,,,,,,,,,,,,,,,,,,,,right,0.0,1.930922252999153,,,,,,sub-025,1,random_dot,60.11669034308197,
right,right,57.0,1.0,28.0,left,0.0,1.6994501930021215,,accuracy,space,4.310794232995249,,,,,,0.0,1.0,1.0,0.0,28.0,1.0,57.0,1.0,618.0541466469949,,,,,,,,,618.0382123279996,618.403793544996,619.2046286190016,619.1876417259991,619.1880259140016,619.2046286190016,619.2046286190016,619.2046286190016,,620.9052681219982,,,,,,,,,,,,,,,,,,,,,,,,,,,,,,left,0.0,1.6994501930021215,,,,,,sub-025,1,random_dot,60.11669034308197,
right,right,58.0,0.0,29.0,right,1.0,1.1841643279985874,,accuracy,space,4.310794232995249,,,,,,0.0,1.0,1.0,0.0,29.0,0.0,58.0,1.0,620.9210759650014,,,,,,,,,620.9056969289959,621.004490678999,621.8037333809989,621.788108916,621.7883758809985,621.8037333809989,621.8037333809989,621.8037333809989,,623.0051637399956,,,,,,,,,,,,,,,,,,,,,,,,,,,,,,right,1.0,1.1841643279985874,,,,,,sub-025,1,random_dot,60.11669034308197,
left,left,59.0,1.0,29.0,left,1.0,5.79211835499882,,accuracy,space,4.310794232995249,,,,,,0.0,1.0,1.0,0.0,29.0,1.0,59.0,0.0,623.0215126289986,,,,,,,,,623.0054416970015,623.3543992529958,624.1546454759955,624.1386235579994,624.138882954001,624.1546454759955,624.1546454759955,624.1546454759955,629.1384265839952,629.9557797169982,,,,,,,,,,,,,,,,,,,,,,,,,,,,,,left,1.0,5.79211835499882,,,,,,sub-025,1,random_dot,60.11669034308197,
,,1.0,1.0,0.0,,,,,accuracy,space,4.310794232995249,,,,,,0.0,1.0,1.0,0.0,,,,,,,,,,,,,,,,,,,,,,,,,,,,,,,,,,,,,,,,,,,,,,,,,,,,,,,,,,,,,sub-025,1,random_dot,60.11669034308197,
,,,,,,,,,,,,,,,,,,,,,,,,,,,,,,,,,,,,,,,,,,,,,,,,,,,,,,,,,,,,,,,,,,,,,,,,,,,,,629.9605697869993,629.971000902995,634.971791291995,634.9551446749974,sub-025,1,random_dot,60.11669034308197,
