wordCTK,colorCTK,corrAnsCTK,congruentCTK,thisN,thisTrialN,thisRepN,keyResp_CTK.keys,keyResp_CTK.corr,keyResp_CTK.rt,keyResp_CTK.duration,wordPractice,colorPractice,corrAnsPractice,congruentPractice,respPractice.keys,respPractice.corr,respPractice.rt,respPractice.duration,word,color,corrAns,congruent,keyResp_test_run.keys,keyResp_test_run.corr,keyResp_test_run.rt,keyResp_test_run.duration,trials_CTK.thisRepN,trials_CTK.thisTrialN,trials_CTK.thisN,trials_CTK.thisIndex,trials_practice.thisRepN,trials_practice.thisTrialN,trials_practice.thisN,trials_practice.thisIndex,trials_test.thisRepN,trials_test.thisTrialN,trials_test.thisN,trials_test.thisIndex,thisRow.t,notes,instruction.started,instr_text.started,instr_image.started,instr_resp.started,instruction.stopped,instr_resp.keys,instr_resp.rt,instr_resp.duration,instr_color_to_key.started,instr_ctk.started,resp_ctk.started,instr_color_to_key.stopped,resp_ctk.keys,resp_ctk.rt,resp_ctk.duration,ITI.started,fixcross.started,fixcross.stopped,ITI.stopped,color_to_key_run.started,stimulus_CTK.started,keyResp_CTK.started,color_to_key_run.stopped,trials_CTK.keyResp_CTK.keys,trials_CTK.keyResp_CTK.corr,trials_CTK.keyResp_CTK.rt,trials_CTK.keyResp_CTK.duration,instr_practice.started,instr_practice_text.started,instr_practice_resp.started,instr_practice.stopped,instr_practice_resp.keys,instr_practice_resp.rt,instr_practice_resp.duration,practice_run.started,stimulus_practice.started,respPractice.started,practice_run.stopped,trials_practice.respPractice.keys,trials_practice.respPractice.corr,trials_practice.respPractice.rt,trials_practice.respPractice.duration,feedback.started,textFeedback.started,feedback.stopped,textFeedback.stopped,instr_test.started,instr_test_text.started,instr_test_resp.started,instr_test.stopped,instr_test_resp.keys,instr_test_resp.rt,instr_test_resp.duration,test_run.started,stimulus_test_run.started,keyResp_test_run.started,test_run.stopped,trials_test.keyResp_test_run.keys,trials_test.keyResp_test_run.corr,trials_test.keyResp_test_run.rt,trials_test.keyResp_test_run.duration,goodbye.started,textGoodbye.started,textGoodbye.stopped,goodbye.stopped,participant,session,expName,frameRate,Unnamed: 113
,,,,,,,,,,,,,,,,,,,,,,,,,,,,,,,,,,,,,,,,,0.0367856249940814,0.0538680419995216,0.0538680419995216,0.0538680419995216,28.997122666994983,space,28.940551541003515,,,,,,,,,,,,,,,,,,,,,,,,,,,,,,,,,,,,,,,,,,,,,,,,,,,,,,,,,,,sub-067,1,stroop_test,59.94142248269266,
,,,,,,,,,,,,,,,,,,,,,,,,,,,,,,,,,,,,,,,,,,,,,,,,,28.997239332995377,29.01191624999774,29.01191624999774,34.298186082996835,space,5.27916125000047,,,,,,,,,,,,,,,,,,,,,,,,,,,,,,,,,,,,,,,,,,,,,,,,,,,,sub-067,1,stroop_test,59.94142248269266,
test,blue,b,1.0,0.0,0.0,0.0,b,1.0,3.2502385420011706,,,,,,,,,,,,,,,,,,0.0,0.0,0.0,2.0,,,,,,,,,34.314438374996826,,,,,,,,,,,,,,,,,34.31010383299872,35.5114316669933,36.31138283299515,36.29673295799876,36.30041195800004,36.31138283299515,36.31138283299515,39.56428133299778,b,1.0,3.2502385420011706,,,,,,,,,,,,,,,,,,,,,,,,,,,,,,,,,,,,,,,,sub-067,1,stroop_test,59.94142248269266,
test,yellow,g,1.0,1.0,1.0,0.0,g,1.0,1.6210590000046068,,,,,,,,,,,,,,,,,,0.0,1.0,1.0,1.0,,,,,,,,,39.57888749999984,,,,,,,,,,,,,,,,,39.56446474999393,40.779213957997854,41.578392249997705,41.56328320799366,41.56346845799999,41.578392249997705,41.578392249997705,43.214506874996005,g,1.0,1.6210590000046068,,,,,,,,,,,,,,,,,,,,,,,,,,,,,,,,,,,,,,,,sub-067,1,stroop_test,59.94142248269266,
test,red,r,1.0,2.0,2.0,0.0,r,1.0,1.5601504169972031,,,,,,,,,,,,,,,,,,0.0,2.0,2.0,0.0,,,,,,,,,43.228342457994586,,,,,,,,,,,,,,,,,43.21471316699899,43.5787361249968,44.37810591699963,44.36394166699756,44.36411683299957,44.37810591699963,44.37810591699963,45.94708437499503,r,1.0,1.5601504169972031,,,,,,,,,,,,,,,,,,,,,,,,,,,,,,,,,,,,,,,,sub-067,1,stroop_test,59.94142248269266,
test,red,r,1.0,3.0,0.0,1.0,r,1.0,0.9521170840016566,,,,,,,,,,,,,,,,,,1.0,0.0,3.0,0.0,,,,,,,,,45.96190087499417,,,,,,,,,,,,,,,,,45.947264249996806,46.3130312919966,47.11201449999498,47.0971908749998,47.09737562499504,47.11201449999498,47.11201449999498,48.08180499999435,r,1.0,0.9521170840016566,,,,,,,,,,,,,,,,,,,,,,,,,,,,,,,,,,,,,,,,sub-067,1,stroop_test,59.94142248269266,
test,yellow,g,1.0,4.0,1.0,1.0,g,1.0,0.9387980419996892,,,,,,,,,,,,,,,,,,1.0,1.0,4.0,1.0,,,,,,,,,48.09576266699878,,,,,,,,,,,,,,,,,48.082012541999575,48.44497404199501,49.24531545799982,49.23042312499456,49.23060487499606,49.24531545799982,49.24531545799982,50.19878566699481,g,1.0,0.9387980419996892,,,,,,,,,,,,,,,,,,,,,,,,,,,,,,,,,,,,,,,,sub-067,1,stroop_test,59.94142248269266,
test,blue,b,1.0,5.0,2.0,1.0,g,0.0,1.175839624993387,,,,,,,,,,,,,,,,,,1.0,2.0,5.0,2.0,,,,,,,,,50.211853749999136,,,,,,,,,,,,,,,,,50.19900229199993,50.56189941699995,51.36232079199544,51.34714066699962,51.34734070799459,51.36232079199544,51.36232079199544,52.54812612499518,g,0.0,1.175839624993387,,,,,,,,,,,,,,,,,,,,,,,,,,,,,,,,,,,,,,,,sub-067,1,stroop_test,59.94142248269266,
test,red,r,1.0,6.0,0.0,2.0,r,1.0,1.178072249997058,,,,,,,,,,,,,,,,,,2.0,0.0,6.0,0.0,,,,,,,,,52.56135483300022,,,,,,,,,,,,,,,,,52.54836074999912,52.6624855419941,53.461622749993694,53.44750591699994,53.44768470800045,53.461622749993694,53.461622749993694,54.64915016699524,r,1.0,1.178072249997058,,,,,,,,,,,,,,,,,,,,,,,,,,,,,,,,,,,,,,,,sub-067,1,stroop_test,59.94142248269266,
test,blue,b,1.0,7.0,1.0,2.0,b,1.0,1.3236185839996324,,,,,,,,,,,,,,,,,,2.0,1.0,7.0,2.0,,,,,,,,,54.66262062500027,,,,,,,,,,,,,,,,,54.64937241699954,55.46228966699709,56.26298195799609,56.24824408299901,56.24840720799693,56.26298195799609,56.26298195799609,57.59840708299453,b,1.0,1.3236185839996324,,,,,,,,,,,,,,,,,,,,,,,,,,,,,,,,,,,,,,,,sub-067,1,stroop_test,59.94142248269266,
test,yellow,g,1.0,8.0,2.0,2.0,r,0.0,0.9259029169988936,,,,,,,,,,,,,,,,,,2.0,2.0,8.0,1.0,,,,,,,,,57.61271466699691,,,,,,,,,,,,,,,,,57.59858933299984,58.41266295799869,59.213346874996205,59.19730737499776,59.19753870799468,59.213346874996205,59.213346874996205,60.14876599999843,r,0.0,0.9259029169988936,,,,,,,,,,,,,,,,,,,,,,,,,,,,,,,,,,,,,,,,sub-067,1,stroop_test,59.94142248269266,
test,yellow,g,1.0,9.0,0.0,3.0,r,0.0,1.7083111250030925,,,,,,,,,,,,,,,,,,3.0,0.0,9.0,1.0,,,,,,,,,60.1630505419962,,,,,,,,,,,,,,,,,60.14902966699447,61.36286024999572,62.16283533299429,62.14837320799416,62.1485354999968,62.16283533299429,62.16283533299429,63.8825144999937,r,0.0,1.7083111250030925,,,,,,,,,,,,,,,,,,,,,,,,,,,,,,,,,,,,,,,,sub-067,1,stroop_test,59.94142248269266,
test,red,r,1.0,10.0,1.0,3.0,r,1.0,1.0091267499956302,,,,,,,,,,,,,,,,,,3.0,1.0,10.0,0.0,,,,,,,,,63.89847087499948,,,,,,,,,,,,,,,,,63.8827328749976,64.69625299999461,65.49619216699648,65.48130837499775,65.48150083299697,65.49619216699648,65.49619216699648,66.51531520799472,r,1.0,1.0091267499956302,,,,,,,,,,,,,,,,,,,,,,,,,,,,,,,,,,,,,,,,sub-067,1,stroop_test,59.94142248269266,
test,blue,b,1.0,11.0,2.0,3.0,b,1.0,0.8039328329978161,,,,,,,,,,,,,,,,,,3.0,2.0,11.0,2.0,,,,,,,,,66.52956079199794,,,,,,,,,,,,,,,,,66.51550233299349,66.62966187499842,67.42860629200004,67.41538087499794,67.4155484169969,67.42860629200004,67.42860629200004,68.24882974999491,b,1.0,0.8039328329978161,,,,,,,,,,,,,,,,,,,,,,,,,,,,,,,,,,,,,,,,sub-067,1,stroop_test,59.94142248269266,
,,,,,,,,,,,,,,,,,,,,,,,,,,,,,,,,,,,,,,,,,,,,,,,,,,,,,,,,,,,,,,,,,,,,68.2489494170004,68.26292549999926,68.26292549999926,76.86693154199747,space,8.587123041004816,,,,,,,,,,,,,,,,,,,,,,,,,,,,,,,,,sub-067,1,stroop_test,59.94142248269266,
,,,,0.0,0.0,0.0,,,,,blau,red,r,0.0,b,0.0,2.285339832997124,,,,,,,,,,,,,,0.0,0.0,0.0,4.0,,,,,76.87923812499503,,,,,,,,,,,,,,,,,76.87417508299404,76.97964112499903,77.77940224999475,77.76487287499913,,,,,,,,,,,,,,,,77.76844929199433,77.77940224999475,77.77940224999475,80.06576195799425,b,0.0,2.285339832997124,,80.06839466699603,80.08050920799724,81.06790729199565,,,,,,,,,,,,,,,,,,,,,sub-067,1,stroop_test,59.94142248269266,
,,,,1.0,1.0,0.0,,,,,rot,red,r,1.0,r,1.0,1.1164478749997215,,,,,,,,,,,,,,0.0,1.0,1.0,1.0,,,,,81.07898349999596,,,,,,,,,,,,,,,,,81.06808695799555,81.1793633749985,81.980366374999,81.96479145799822,,,,,,,,,,,,,,,,81.96714266699564,81.980366374999,81.980366374999,83.0988771669945,r,1.0,1.1164478749997215,,83.10143483299908,83.11368854199827,84.11403624999366,,,,,,,,,,,,,,,,,,,,,sub-067,1,stroop_test,59.94142248269266,
,,,,2.0,2.0,0.0,,,,,blau,blue,b,1.0,b,1.0,1.1033453339987318,,,,,,,,,,,,,,0.0,2.0,2.0,6.0,,,,,84.12954729199555,,,,,,,,,,,,,,,,,84.11420824999368,84.21394791700004,85.01311587499367,84.99876966699958,,,,,,,,,,,,,,,,85.00028229199961,85.01311587499367,85.01311587499367,86.13298391699936,b,1.0,1.1033453339987318,,86.13319745799527,86.1468382499952,87.13136799999484,87.14667645799636,,,,,,,,,,,,,,,,,,,,sub-067,1,stroop_test,59.94142248269266,
,,,,3.0,3.0,0.0,,,,,gelb,blue,b,0.0,b,1.0,2.235439166004653,,,,,,,,,,,,,,0.0,3.0,3.0,9.0,,,,,87.14667645799636,,,,,,,,,,,,,,,,,87.13155949999782,88.34641629199905,89.14648949999537,89.13310333299887,,,,,,,,,,,,,,,,89.13462449999497,89.14648949999537,89.14648949999537,91.40028295799856,b,1.0,2.235439166004653,,91.40048329199637,91.4141161669977,92.39839491699968,92.41464508299396,,,,,,,,,,,,,,,,,,,,sub-067,1,stroop_test,59.94142248269266,
,,,,4.0,4.0,0.0,,,,,rot,yellow,g,0.0,g,1.0,1.5872048329983954,,,,,,,,,,,,,,0.0,4.0,4.0,3.0,,,,,92.41464508299396,,,,,,,,,,,,,,,,,92.39858549999916,92.513173542,93.31346583299457,93.2986518329999,,,,,,,,,,,,,,,,93.30039812500036,93.31346583299457,93.31346583299457,94.90363841699582,g,1.0,1.5872048329983954,,94.90384208299656,94.91325524999412,95.898974249998,95.91787245799787,,,,,,,,,,,,,,,,,,,,sub-067,1,stroop_test,59.94142248269266,
,,,,5.0,5.0,0.0,,,,,rot,red,r,1.0,r,1.0,0.8648449160027667,,,,,,,,,,,,,,0.0,5.0,5.0,0.0,,,,,95.91787245799787,,,,,,,,,,,,,,,,,95.89915195799404,96.01352587499424,96.81495633299346,96.79894166699523,,,,,,,,,,,,,,,,96.7991162919934,96.81495633299346,96.81495633299346,97.68278633299632,r,1.0,0.8648449160027667,,97.68301224999595,97.69699558299908,98.68213108299824,98.69721883299644,,,,,,,,,,,,,,,,,,,,sub-067,1,stroop_test,59.94142248269266,
,,,,6.0,6.0,0.0,,,,,gelb,yellow,g,1.0,g,1.0,1.1266028329991968,,,,,,,,,,,,,,0.0,6.0,6.0,10.0,,,,,98.69721883299644,,,,,,,,,,,,,,,,,98.68230949999996,99.0472402499945,99.84705420799582,99.8316798329979,,,,,,,,,,,,,,,,99.83309962499334,99.84705420799582,99.84705420799582,100.983854332997,g,1.0,1.1266028329991968,,100.98408374999416,100.9970867919983,101.98419808299514,,,,,,,,,,,,,,,,,,,,,sub-067,1,stroop_test,59.94142248269266,
,,,,7.0,7.0,0.0,,,,,blau,yellow,g,0.0,g,1.0,1.823968208002043,,,,,,,,,,,,,,0.0,7.0,7.0,7.0,,,,,101.99741104199347,,,,,,,,,,,,,,,,,101.98436941699764,103.19740449999516,103.9970465419974,103.98280949999751,,,,,,,,,,,,,,,,103.98417170799804,103.9970465419974,103.9970465419974,105.834341416994,g,1.0,1.823968208002043,,105.83455554199465,105.84733254199818,106.8328040829947,106.84765179199894,,,,,,,,,,,,,,,,,,,,sub-067,1,stroop_test,59.94142248269266,
,,,,8.0,8.0,0.0,,,,,rot,blue,b,0.0,g,0.0,1.8748630000045523,,,,,,,,,,,,,,0.0,8.0,8.0,2.0,,,,,106.84765179199894,,,,,,,,,,,,,,,,,106.83306049999372,107.19732987499448,107.99809829199512,107.98333829199692,,,,,,,,,,,,,,,,107.9849617919972,107.99809829199512,107.99809829199512,109.88434249999408,g,0.0,1.8748630000045523,,109.88598004199594,109.89817583299735,110.88323954199586,110.90100895799696,,,,,,,,,,,,,,,,,,,,sub-067,1,stroop_test,59.94142248269266,
,,,,9.0,9.0,0.0,,,,,gelb,red,r,0.0,r,1.0,1.829943832999561,,,,,,,,,,,,,,0.0,9.0,9.0,8.0,,,,,110.90100895799696,,,,,,,,,,,,,,,,,110.88345337499776,111.24783874999412,112.04751208299422,112.03241529200022,,,,,,,,,,,,,,,,112.0338595419962,112.04751208299422,112.04751208299422,113.88446004199795,r,1.0,1.829943832999561,,113.88623520799592,113.89736066699696,114.88247108299402,114.8980653749968,,,,,,,,,,,,,,,,,,,,sub-067,1,stroop_test,59.94142248269266,
,,,,10.0,10.0,0.0,,,,,gelb,yellow,g,1.0,g,1.0,2.137332749996858,,,,,,,,,,,,,,0.0,10.0,10.0,11.0,,,,,114.8980653749968,,,,,,,,,,,,,,,,,114.8826487079932,115.24773504199402,116.04787808299444,116.03311629199744,,,,,,,,,,,,,,,,116.03329070799371,116.04787808299444,116.04787808299444,118.20060349999405,g,1.0,2.137332749996858,,118.20082516699767,118.21485754199966,119.19955245799792,119.21402291699631,,,,,,,,,,,,,,,,,,,,sub-067,1,stroop_test,59.94142248269266,
,,,,11.0,11.0,0.0,,,,,blau,blue,b,1.0,b,1.0,1.122931666999648,,,,,,,,,,,,,,0.0,11.0,11.0,5.0,,,,,119.21402291699631,,,,,,,,,,,,,,,,,119.19975429199984,120.41528624999772,121.21476445799637,121.20004354199772,,,,,,,,,,,,,,,,121.20159770799364,121.21476445799637,121.21476445799637,122.35044254199602,b,1.0,1.122931666999648,,122.35065670799668,122.36417983299908,123.34983012500015,123.36436837499788,,,,,,,,,,,,,,,,,,,,sub-067,1,stroop_test,59.94142248269266,
,,,,12.0,0.0,1.0,,,,,blau,blue,b,1.0,b,1.0,1.5271266660056426,,,,,,,,,,,,,,1.0,0.0,12.0,5.0,,,,,123.36436837499788,,,,,,,,,,,,,,,,,123.35004341699825,124.56455174999428,125.36421541699384,125.35071879199675,,,,,,,,,,,,,,,,125.35089233299368,125.36421541699384,125.36421541699384,126.90377816699764,b,1.0,1.5271266660056426,,126.90398849999474,126.91527220799615,127.9001367919991,127.9163686249958,,,,,,,,,,,,,,,,,,,,sub-067,1,stroop_test,59.94142248269266,
,,,,13.0,1.0,1.0,,,,,gelb,yellow,g,1.0,g,1.0,1.7397372089981218,,,,,,,,,,,,,,1.0,1.0,13.0,10.0,,,,,127.9163686249958,,,,,,,,,,,,,,,,,127.9003146670002,128.01459579199582,128.81438841699855,128.7995773329967,,,,,,,,,,,,,,,,128.8010937079962,128.81438841699855,128.81438841699855,130.5676135419999,g,1.0,1.7397372089981218,,130.56783662499947,130.58151404199452,131.5668981669951,131.58148529199389,,,,,,,,,,,,,,,,,,,,sub-067,1,stroop_test,59.94142248269266,
,,,,14.0,2.0,1.0,,,,,rot,blue,b,0.0,b,1.0,1.4301387080049608,,,,,,,,,,,,,,1.0,2.0,14.0,2.0,,,,,131.58148529199389,,,,,,,,,,,,,,,,,131.56710916699376,132.78151583299768,133.5812601669968,133.5663686669941,,,,,,,,,,,,,,,,133.56780266699934,133.5812601669968,133.5812601669968,135.01754908299336,b,1.0,1.4301387080049608,,135.01774604199454,135.03143404199363,136.01673549999396,136.03138024999498,,,,,,,,,,,,,,,,,,,,sub-067,1,stroop_test,59.94142248269266,
,,,,15.0,3.0,1.0,,,,,rot,yellow,g,0.0,g,1.0,2.0548139169986825,,,,,,,,,,,,,,1.0,3.0,15.0,3.0,,,,,136.03138024999498,,,,,,,,,,,,,,,,,136.0169455419964,137.23173120799763,138.0320758329981,138.01629987499473,,,,,,,,,,,,,,,,138.0164722079935,138.0320758329981,138.0320758329981,140.1014437079939,g,1.0,2.0548139169986825,,140.1016812079979,140.11481804199866,141.10008724999352,141.115326207997,,,,,,,,,,,,,,,,,,,,sub-067,1,stroop_test,59.94142248269266,
,,,,16.0,4.0,1.0,,,,,rot,red,r,1.0,r,1.0,0.6718192080006702,,,,,,,,,,,,,,1.0,4.0,16.0,0.0,,,,,141.115326207997,,,,,,,,,,,,,,,,,141.10032324999338,141.91611741700035,142.7319634999949,142.71678466699814,,,,,,,,,,,,,,,,142.71697508299985,142.7319634999949,142.7319634999949,143.41798924999603,r,1.0,0.6718192080006702,,143.41818245799368,143.43203962499683,144.4171901669979,144.4319224169958,,,,,,,,,,,,,,,,,,,,sub-067,1,stroop_test,59.94142248269266,
,,,,17.0,5.0,1.0,,,,,blau,red,r,0.0,b,0.0,0.8724816250032745,,,,,,,,,,,,,,1.0,5.0,17.0,4.0,,,,,144.4319224169958,,,,,,,,,,,,,,,,,144.41740879199642,145.63177879199793,146.43192174999422,146.41712270799326,,,,,,,,,,,,,,,,146.4190413749966,146.43192174999422,146.43192174999422,147.31805666699802,b,0.0,0.8724816250032745,,147.3195304999972,147.3319113749967,148.31703520799783,148.33187458299653,,,,,,,,,,,,,,,,,,,,sub-067,1,stroop_test,59.94142248269266,
,,,,18.0,6.0,1.0,,,,,gelb,red,r,0.0,g,0.0,1.0343190419953316,,,,,,,,,,,,,,1.0,6.0,18.0,8.0,,,,,148.33187458299653,,,,,,,,,,,,,,,,,148.3172487079937,149.53257333299553,150.33198208300018,150.3174153749933,,,,,,,,,,,,,,,,150.31895449999865,150.33198208300018,150.33198208300018,151.368023832998,g,0.0,1.0343190419953316,,151.3682390419999,151.38218612499622,152.36724129199865,152.38220895799896,,,,,,,,,,,,,,,,,,,,sub-067,1,stroop_test,59.94142248269266,
,,,,19.0,7.0,1.0,,,,,rot,red,r,1.0,r,1.0,0.8952866249965155,,,,,,,,,,,,,,1.0,7.0,19.0,1.0,,,,,152.38220895799896,,,,,,,,,,,,,,,,,152.3674651669935,153.58226645799732,154.3826273329978,154.36801529199874,,,,,,,,,,,,,,,,154.36965816699376,154.3826273329978,154.3826273329978,155.28489999999874,r,1.0,0.8952866249965155,,155.2865803329987,155.29929745799743,156.28390870799922,156.29905820799468,,,,,,,,,,,,,,,,,,,,sub-067,1,stroop_test,59.94142248269266,
,,,,20.0,8.0,1.0,,,,,gelb,blue,b,0.0,b,1.0,1.1100781250061118,,,,,,,,,,,,,,1.0,8.0,20.0,9.0,,,,,156.29905820799468,,,,,,,,,,,,,,,,,156.28410204199463,156.64911108299566,157.44862949999515,157.43436599999404,,,,,,,,,,,,,,,,157.43576379199658,157.44862949999515,157.44862949999515,158.56912624999677,b,1.0,1.1100781250061118,,158.5693458329988,158.58293324999977,159.5680247499986,159.58252854199964,,,,,,,,,,,,,,,,,,,,sub-067,1,stroop_test,59.94142248269266,
,,,,21.0,9.0,1.0,,,,,blau,blue,b,1.0,b,1.0,1.0262062920010069,,,,,,,,,,,,,,1.0,9.0,21.0,6.0,,,,,159.58252854199964,,,,,,,,,,,,,,,,,159.56828758299525,160.3822938749945,161.18254104199875,161.16821533299662,,,,,,,,,,,,,,,,161.16999612499785,161.18254104199875,161.18254104199875,162.21879312499368,b,1.0,1.0262062920010069,,162.21900445799838,162.23281341699476,163.2183269169982,163.23242987499543,,,,,,,,,,,,,,,,,,,,sub-067,1,stroop_test,59.94142248269266,
,,,,22.0,10.0,1.0,,,,,gelb,yellow,g,1.0,g,1.0,0.7719243749961606,,,,,,,,,,,,,,1.0,10.0,22.0,11.0,,,,,163.23242987499543,,,,,,,,,,,,,,,,,163.218517082998,163.3331441249975,164.1327253749987,164.1174829169977,,,,,,,,,,,,,,,,164.11909774999367,164.1327253749987,164.1327253749987,164.92133116699551,g,1.0,0.7719243749961606,,164.92155391699634,164.93258991699986,165.9178192919935,165.93252258299617,,,,,,,,,,,,,,,,,,,,sub-067,1,stroop_test,59.94142248269266,
,,,,23.0,11.0,1.0,,,,,blau,yellow,g,0.0,g,1.0,0.9850866669949028,,,,,,,,,,,,,,1.0,11.0,23.0,7.0,,,,,165.93252258299617,,,,,,,,,,,,,,,,,165.91800337499444,166.7326800419978,167.53192970799864,167.51766687499912,,,,,,,,,,,,,,,,167.5191086249979,167.53192970799864,167.53192970799864,168.51864337499865,g,1.0,0.9850866669949028,,168.51884758300002,168.5330304579984,169.5182501249947,169.53253833299823,,,,,,,,,,,,,,,,,,,,sub-067,1,stroop_test,59.94142248269266,
,,,,,,,,,,,,,,,,,,,,,,,,,,,,,,,,,,,,,,,,,,,,,,,,,,,,,,,,,,,,,,,,,,,,,,,,,,,,,,,,,,,,,,,169.5183434999999,169.53253833299823,169.53253833299823,174.21867541699612,space,4.684196708003583,,,,,,,,,,,,,,sub-067,1,stroop_test,59.94142248269266,
,,,,0.0,0.0,0.0,,,,,,,,,,,,,gelb,blue,b,0.0,b,1.0,0.8407900000020163,,,,,,,,,,0.0,0.0,0.0,9.0,174.23321924999618,,,,,,,,,,,,,,,,,174.22769716699986,174.3330491669985,175.13273116699563,175.11807779199444,,,,,,,,,,,,,,,,,,,,,,,,,,,,,,,,,,,175.11967112499406,175.13273116699563,175.13273116699563,175.9868671669974,b,1.0,0.8407900000020163,,,,,,sub-067,1,stroop_test,59.94142248269266,
,,,,1.0,1.0,0.0,,,,,,,,,,,,,rot,red,r,1.0,r,1.0,0.6385837499983609,,,,,,,,,,0.0,1.0,1.0,0.0,175.99976995799807,,,,,,,,,,,,,,,,,175.98706158300047,176.7992213749967,177.59908124999492,177.58417499999632,,,,,,,,,,,,,,,,,,,,,,,,,,,,,,,,,,,177.5855824169994,177.59908124999492,177.59908124999492,178.25280866699904,r,1.0,0.6385837499983609,,,,,,sub-067,1,stroop_test,59.94142248269266,
,,,,2.0,2.0,0.0,,,,,,,,,,,,,blau,blue,b,1.0,b,1.0,0.7056631250015926,,,,,,,,,,0.0,2.0,2.0,6.0,178.26573520799866,,,,,,,,,,,,,,,,,178.25304754199897,179.06675645799987,179.8660907079975,179.851327999997,,,,,,,,,,,,,,,,,,,,,,,,,,,,,,,,,,,179.85303945799387,179.8660907079975,179.8660907079975,180.58667091700045,b,1.0,0.7056631250015926,,,,,,sub-067,1,stroop_test,59.94142248269266,
,,,,3.0,3.0,0.0,,,,,,,,,,,,,gelb,red,r,0.0,b,0.0,0.9605065409996314,,,,,,,,,,0.0,3.0,3.0,8.0,180.60007233299984,,,,,,,,,,,,,,,,,180.5869077499956,180.6996720419993,181.4995390419936,181.4849857079971,,,,,,,,,,,,,,,,,,,,,,,,,,,,,,,,,,,181.4863551669987,181.4995390419936,181.4995390419936,182.46946004199708,b,0.0,0.9605065409996314,,,,,,sub-067,1,stroop_test,59.94142248269266,
,,,,4.0,4.0,0.0,,,,,,,,,,,,,gelb,yellow,g,1.0,g,1.0,1.143957042004331,,,,,,,,,,0.0,4.0,4.0,10.0,182.4832252079941,,,,,,,,,,,,,,,,,182.46967112499988,182.833735041997,183.63277362499505,183.61826391700012,,,,,,,,,,,,,,,,,,,,,,,,,,,,,,,,,,,183.61846774999867,183.63277362499505,183.63277362499505,184.78660854199552,g,1.0,1.143957042004331,,,,,,sub-067,1,stroop_test,59.94142248269266,
,,,,5.0,5.0,0.0,,,,,,,,,,,,,rot,red,r,1.0,r,1.0,0.8179890829997021,,,,,,,,,,0.0,5.0,5.0,1.0,184.80051320799976,,,,,,,,,,,,,,,,,184.78685287499684,184.90457033299757,185.71627649999573,185.7013653749964,,,,,,,,,,,,,,,,,,,,,,,,,,,,,,,,,,,185.7028851249997,185.71627649999573,185.71627649999573,186.5356665419968,r,1.0,0.8179890829997021,,,,,,sub-067,1,stroop_test,59.94142248269266,
,,,,6.0,6.0,0.0,,,,,,,,,,,,,blau,blue,b,1.0,b,1.0,0.6907707499995013,,,,,,,,,,0.0,6.0,6.0,5.0,186.5502149169988,,,,,,,,,,,,,,,,,186.53588920799663,187.350125332996,188.14981350000016,188.135140624996,,,,,,,,,,,,,,,,,,,,,,,,,,,,,,,,,,,188.13665454199509,188.14981350000016,188.14981350000016,188.85304424999777,b,1.0,0.6907707499995013,,,,,,sub-067,1,stroop_test,59.94142248269266,
,,,,7.0,7.0,0.0,,,,,,,,,,,,,rot,blue,b,0.0,b,1.0,1.18128316700313,,,,,,,,,,0.0,7.0,7.0,2.0,188.8663715829971,,,,,,,,,,,,,,,,,188.8532872919968,189.66694341699625,190.46635383299872,190.45164658299475,,,,,,,,,,,,,,,,,,,,,,,,,,,,,,,,,,,190.4532177919973,190.46635383299872,190.46635383299872,191.6533158329985,b,1.0,1.18128316700313,,,,,,sub-067,1,stroop_test,59.94142248269266,
,,,,8.0,8.0,0.0,,,,,,,,,,,,,gelb,yellow,g,1.0,g,1.0,0.90834137499769,,,,,,,,,,0.0,8.0,8.0,11.0,191.6667715829972,,,,,,,,,,,,,,,,,191.6535600419957,191.76671449999407,192.5668047079962,192.5519100829988,,,,,,,,,,,,,,,,,,,,,,,,,,,,,,,,,,,192.5532689169995,192.5668047079962,192.5668047079962,193.48644141699333,g,1.0,0.90834137499769,,,,,,sub-067,1,stroop_test,59.94142248269266,
,,,,9.0,9.0,0.0,,,,,,,,,,,,,rot,yellow,g,0.0,g,1.0,0.8159069169996656,,,,,,,,,,0.0,9.0,9.0,3.0,193.50074208299336,,,,,,,,,,,,,,,,,193.48669241699827,193.6004914169971,194.4003861669989,194.3849241249991,,,,,,,,,,,,,,,,,,,,,,,,,,,,,,,,,,,194.3866099999941,194.4003861669989,194.4003861669989,195.2201000419955,g,1.0,0.8159069169996656,,,,,,sub-067,1,stroop_test,59.94142248269266,
,,,,10.0,10.0,0.0,,,,,,,,,,,,,blau,red,r,0.0,r,1.0,1.4597157499956666,,,,,,,,,,0.0,10.0,10.0,4.0,195.23348729199645,,,,,,,,,,,,,,,,,195.22031841699936,195.33328658299436,196.1337299999941,196.11914658299796,,,,,,,,,,,,,,,,,,,,,,,,,,,,,,,,,,,196.12063962499812,196.1337299999941,196.1337299999941,197.60295633299395,r,1.0,1.4597157499956666,,,,,,sub-067,1,stroop_test,59.94142248269266,
,,,,11.0,11.0,0.0,,,,,,,,,,,,,blau,yellow,g,0.0,g,1.0,1.041522540996084,,,,,,,,,,0.0,11.0,11.0,7.0,197.6169234169938,,,,,,,,,,,,,,,,,197.60317779199977,198.8172411669948,199.616838957998,199.60176874999888,,,,,,,,,,,,,,,,,,,,,,,,,,,,,,,,,,,199.60196079199525,199.616838957998,199.616838957998,200.66984766699895,g,1.0,1.041522540996084,,,,,,sub-067,1,stroop_test,59.94142248269266,
,,,,12.0,0.0,1.0,,,,,,,,,,,,,blau,blue,b,1.0,b,1.0,0.544045583003026,,,,,,,,,,1.0,0.0,12.0,5.0,200.6840364169984,,,,,,,,,,,,,,,,,200.67003554199616,201.88437933299429,202.68335570799536,202.66887074999977,,,,,,,,,,,,,,,,,,,,,,,,,,,,,,,,,,,202.669036542,202.68335570799536,202.68335570799536,203.23662116699413,b,1.0,0.544045583003026,,,,,,sub-067,1,stroop_test,59.94142248269266,
,,,,13.0,1.0,1.0,,,,,,,,,,,,,rot,red,r,1.0,r,1.0,0.7174870420058141,,,,,,,,,,1.0,1.0,13.0,0.0,203.25027662499636,,,,,,,,,,,,,,,,,203.23684295799467,204.4505128749952,205.25015879199785,205.23563812499924,,,,,,,,,,,,,,,,,,,,,,,,,,,,,,,,,,,205.2370739170001,205.25015879199785,205.25015879199785,205.97021416699863,r,1.0,0.7174870420058141,,,,,,sub-067,1,stroop_test,59.94142248269266,
,,,,14.0,2.0,1.0,,,,,,,,,,,,,blau,red,r,0.0,r,1.0,1.250214749998122,,,,,,,,,,1.0,2.0,14.0,4.0,205.98391174999412,,,,,,,,,,,,,,,,,205.9704619579934,206.78436741699988,207.58409495799424,207.56928999999943,,,,,,,,,,,,,,,,,,,,,,,,,,,,,,,,,,,207.57100445799733,207.58409495799424,207.58409495799424,208.8370392500001,r,1.0,1.250214749998122,,,,,,sub-067,1,stroop_test,59.94142248269266,
,,,,15.0,3.0,1.0,,,,,,,,,,,,,rot,blue,b,0.0,g,0.0,0.9874883749944274,,,,,,,,,,1.0,3.0,15.0,2.0,208.85118454199983,,,,,,,,,,,,,,,,,208.83728520799923,208.95044895799947,209.7505042079938,209.73574291699333,,,,,,,,,,,,,,,,,,,,,,,,,,,,,,,,,,,209.73727345799853,209.7505042079938,209.7505042079938,210.7534695419963,g,0.0,0.9874883749944274,,,,,,sub-067,1,stroop_test,59.94142248269266,
,,,,16.0,4.0,1.0,,,,,,,,,,,,,gelb,yellow,g,1.0,g,1.0,0.8837136250003823,,,,,,,,,,1.0,4.0,16.0,11.0,210.7681437919964,,,,,,,,,,,,,,,,,210.7537314999936,211.9675849169944,212.76748858299837,212.75239408299967,,,,,,,,,,,,,,,,,,,,,,,,,,,,,,,,,,,212.7538135829964,212.76748858299837,212.76748858299837,213.65348087500024,g,1.0,0.8837136250003823,,,,,,sub-067,1,stroop_test,59.94142248269266,
,,,,17.0,5.0,1.0,,,,,,,,,,,,,rot,red,r,1.0,r,1.0,0.7223659170049359,,,,,,,,,,1.0,5.0,17.0,1.0,213.6680491669977,,,,,,,,,,,,,,,,,213.6536993749978,214.0019808329962,214.8175749169968,214.8030004999964,,,,,,,,,,,,,,,,,,,,,,,,,,,,,,,,,,,214.80452454199985,214.8175749169968,214.8175749169968,215.5537915829991,r,1.0,0.7223659170049359,,,,,,sub-067,1,stroop_test,59.94142248269266,
,,,,18.0,6.0,1.0,,,,,,,,,,,,,gelb,yellow,g,1.0,g,1.0,0.7775487499966403,,,,,,,,,,1.0,6.0,18.0,10.0,215.5677269999942,,,,,,,,,,,,,,,,,215.5540379999948,215.66838833299695,216.4677032499967,216.4527662499968,,,,,,,,,,,,,,,,,,,,,,,,,,,,,,,,,,,216.45407895799872,216.4677032499967,216.4677032499967,217.25405124999816,g,1.0,0.7775487499966403,,,,,,sub-067,1,stroop_test,59.94142248269266,
,,,,19.0,7.0,1.0,,,,,,,,,,,,,gelb,red,r,0.0,r,1.0,1.280506583992974,,,,,,,,,,1.0,7.0,19.0,8.0,217.2673977499944,,,,,,,,,,,,,,,,,217.2542625419956,218.0675649999976,218.8675577499962,218.85301233299836,,,,,,,,,,,,,,,,,,,,,,,,,,,,,,,,,,,218.8531917500004,218.8675577499962,218.8675577499962,220.15394166699843,r,1.0,1.280506583992974,,,,,,sub-067,1,stroop_test,59.94142248269266,
,,,,20.0,8.0,1.0,,,,,,,,,,,,,rot,yellow,g,0.0,g,1.0,1.6164789590038708,,,,,,,,,,1.0,8.0,20.0,3.0,220.16733649999517,,,,,,,,,,,,,,,,,220.15415929199665,220.26790458299365,221.06790737499975,221.0526343329984,,,,,,,,,,,,,,,,,,,,,,,,,,,,,,,,,,,221.0540802079995,221.06790737499975,221.06790737499975,222.68732366699987,g,1.0,1.6164789590038708,,,,,,sub-067,1,stroop_test,59.94142248269266,
,,,,21.0,9.0,1.0,,,,,,,,,,,,,gelb,blue,b,0.0,b,1.0,1.2464475829983712,,,,,,,,,,1.0,9.0,21.0,9.0,222.70138187499836,,,,,,,,,,,,,,,,,222.68752441699328,223.50166687499583,224.30065824999477,224.2859800829974,,,,,,,,,,,,,,,,,,,,,,,,,,,,,,,,,,,224.2873817919972,224.30065824999477,224.30065824999477,225.55398562499613,b,1.0,1.2464475829983712,,,,,,sub-067,1,stroop_test,59.94142248269266,
,,,,22.0,10.0,1.0,,,,,,,,,,,,,blau,blue,b,1.0,b,1.0,0.6165494580054656,,,,,,,,,,1.0,10.0,22.0,6.0,225.56858024999383,,,,,,,,,,,,,,,,,225.55417920799664,225.66812941699757,226.46773474999645,226.45336420799867,,,,,,,,,,,,,,,,,,,,,,,,,,,,,,,,,,,226.45498533299545,226.46773474999645,226.46773474999645,227.087707916995,b,1.0,0.6165494580054656,,,,,,sub-067,1,stroop_test,59.94142248269266,
,,,,23.0,11.0,1.0,,,,,,,,,,,,,blau,yellow,g,0.0,g,1.0,1.4898872499979916,,,,,,,,,,1.0,11.0,23.0,7.0,227.1016954999941,,,,,,,,,,,,,,,,,227.0879954579941,227.45140949999768,228.25114237499656,228.23671374999685,,,,,,,,,,,,,,,,,,,,,,,,,,,,,,,,,,,228.23691304199747,228.25114237499656,228.25114237499656,229.7543950830004,g,1.0,1.4898872499979916,,,,,,sub-067,1,stroop_test,59.94142248269266,
,,,,24.0,0.0,2.0,,,,,,,,,,,,,rot,blue,b,0.0,b,1.0,1.078039332998742,,,,,,,,,,2.0,0.0,24.0,2.0,229.7681842499951,,,,,,,,,,,,,,,,,229.754608999996,230.118238791998,230.91772641699936,230.90416866699525,,,,,,,,,,,,,,,,,,,,,,,,,,,,,,,,,,,230.9060261669947,230.91772641699936,230.91772641699936,232.00437808299463,b,1.0,1.078039332998742,,,,,,sub-067,1,stroop_test,59.94142248269266,
,,,,25.0,1.0,2.0,,,,,,,,,,,,,rot,red,r,1.0,r,1.0,0.8714335410040803,,,,,,,,,,2.0,1.0,25.0,0.0,232.01844545799395,,,,,,,,,,,,,,,,,232.00460733299408,232.1185694999949,232.91917387499416,232.90435387499747,,,,,,,,,,,,,,,,,,,,,,,,,,,,,,,,,,,232.90452512499903,232.91917387499416,232.91917387499416,233.8053304579953,r,1.0,0.8714335410040803,,,,,,sub-067,1,stroop_test,59.94142248269266,
,,,,26.0,2.0,2.0,,,,,,,,,,,,,blau,red,r,0.0,r,1.0,1.39520595799695,,,,,,,,,,2.0,2.0,26.0,4.0,233.81832358300016,,,,,,,,,,,,,,,,,233.80557854200012,233.9181009999957,234.71813162499893,234.7032141249947,,,,,,,,,,,,,,,,,,,,,,,,,,,,,,,,,,,234.70449095799995,234.71813162499893,234.71813162499893,236.1207166249951,r,1.0,1.39520595799695,,,,,,sub-067,1,stroop_test,59.94142248269266,
,,,,27.0,3.0,2.0,,,,,,,,,,,,,gelb,red,r,0.0,r,1.0,1.26202741599991,,,,,,,,,,2.0,3.0,27.0,8.0,236.13432966699477,,,,,,,,,,,,,,,,,236.1209224999984,236.2388011250005,237.05168129199592,237.0363544579959,,,,,,,,,,,,,,,,,,,,,,,,,,,,,,,,,,,237.03763400000025,237.05168129199592,237.05168129199592,238.3212175419976,r,1.0,1.26202741599991,,,,,,sub-067,1,stroop_test,59.94142248269266,
,,,,28.0,4.0,2.0,,,,,,,,,,,,,gelb,yellow,g,1.0,g,1.0,0.7769880830019247,,,,,,,,,,2.0,4.0,28.0,10.0,238.33536720799748,,,,,,,,,,,,,,,,,238.32142599999497,239.5350327499982,240.33531141699493,240.32026183299604,,,,,,,,,,,,,,,,,,,,,,,,,,,,,,,,,,,240.32044541699725,240.33531141699493,240.33531141699493,241.1213147499948,g,1.0,0.7769880830019247,,,,,,sub-067,1,stroop_test,59.94142248269266,
,,,,29.0,5.0,2.0,,,,,,,,,,,,,gelb,blue,b,0.0,b,1.0,1.070468375000928,,,,,,,,,,2.0,5.0,29.0,9.0,241.1353162499945,,,,,,,,,,,,,,,,,241.12153549999493,241.93510429199523,242.73524416699365,242.72004291699704,,,,,,,,,,,,,,,,,,,,,,,,,,,,,,,,,,,242.72040045799804,242.73524416699365,242.73524416699365,243.8207523749952,b,1.0,1.070468375000928,,,,,,sub-067,1,stroop_test,59.94142248269266,
,,,,30.0,6.0,2.0,,,,,,,,,,,,,rot,red,r,1.0,r,1.0,0.8263780829947791,,,,,,,,,,2.0,6.0,30.0,1.0,243.83475320799332,,,,,,,,,,,,,,,,,243.8209416249956,243.935393791995,244.7351273749955,244.7202027079984,,,,,,,,,,,,,,,,,,,,,,,,,,,,,,,,,,,244.72170712499792,244.7351273749955,244.7351273749955,245.57170370799577,r,1.0,0.8263780829947791,,,,,,sub-067,1,stroop_test,59.94142248269266,
,,,,31.0,7.0,2.0,,,,,,,,,,,,,blau,yellow,g,0.0,g,1.0,1.17535312500695,,,,,,,,,,2.0,7.0,31.0,7.0,245.5864389999988,,,,,,,,,,,,,,,,,245.57196141699387,246.38547016699889,247.18554129199765,247.1704277079989,,,,,,,,,,,,,,,,,,,,,,,,,,,,,,,,,,,247.17179770799703,247.18554129199765,247.18554129199765,248.3715309170002,g,1.0,1.17535312500695,,,,,,sub-067,1,stroop_test,59.94142248269266,
,,,,32.0,8.0,2.0,,,,,,,,,,,,,blau,blue,b,1.0,b,1.0,0.9438845839977148,,,,,,,,,,2.0,8.0,32.0,6.0,248.38534891699965,,,,,,,,,,,,,,,,,248.3717428749951,248.48481454199649,249.28619933299345,249.2712022079941,,,,,,,,,,,,,,,,,,,,,,,,,,,,,,,,,,,249.27137862499512,249.28619933299345,249.28619933299345,250.2385737079967,b,1.0,0.9438845839977148,,,,,,sub-067,1,stroop_test,59.94142248269266,
,,,,33.0,9.0,2.0,,,,,,,,,,,,,gelb,yellow,g,1.0,g,1.0,1.316050166999048,,,,,,,,,,2.0,9.0,33.0,11.0,250.25241679199823,,,,,,,,,,,,,,,,,250.238779583,250.60174391699547,251.402398582999,251.387363541995,,,,,,,,,,,,,,,,,,,,,,,,,,,,,,,,,,,251.3891143329965,251.402398582999,251.402398582999,252.7217875829956,g,1.0,1.316050166999048,,,,,,sub-067,1,stroop_test,59.94142248269266,
,,,,34.0,10.0,2.0,,,,,,,,,,,,,rot,yellow,g,0.0,g,1.0,1.887913833001221,,,,,,,,,,2.0,10.0,34.0,3.0,252.7360231249986,,,,,,,,,,,,,,,,,252.7220354999954,253.5355974999984,254.3349571669969,254.32033008299916,,,,,,,,,,,,,,,,,,,,,,,,,,,,,,,,,,,254.3220479999945,254.3349571669969,254.3349571669969,256.23867008299567,g,1.0,1.887913833001221,,,,,,sub-067,1,stroop_test,59.94142248269266,
,,,,35.0,11.0,2.0,,,,,,,,,,,,,blau,blue,b,1.0,b,1.0,0.9595907499970052,,,,,,,,,,2.0,11.0,35.0,5.0,256.2521726249979,,,,,,,,,,,,,,,,,256.2388887079942,256.6022984999945,257.4020445829956,257.3875553329999,,,,,,,,,,,,,,,,,,,,,,,,,,,,,,,,,,,257.3890871249969,257.4020445829956,257.4020445829956,258.37197979199846,b,1.0,0.9595907499970052,,,,,,sub-067,1,stroop_test,59.94142248269266,
,,,,36.0,0.0,3.0,,,,,,,,,,,,,blau,blue,b,1.0,b,1.0,0.6341648329980671,,,,,,,,,,3.0,0.0,36.0,5.0,258.3855339169968,,,,,,,,,,,,,,,,,258.37222629199823,258.73672966699814,259.5520378749934,259.53738220800005,,,,,,,,,,,,,,,,,,,,,,,,,,,,,,,,,,,259.5375577079976,259.5520378749934,259.5520378749934,260.1878315829963,b,1.0,0.6341648329980671,,,,,,sub-067,1,stroop_test,59.94142248269266,
,,,,37.0,1.0,3.0,,,,,,,,,,,,,rot,red,r,1.0,r,1.0,0.8136965000012424,,,,,,,,,,3.0,1.0,37.0,1.0,260.20258620799723,,,,,,,,,,,,,,,,,260.1880202079992,261.0027871249986,261.80230883299373,261.7882181249952,,,,,,,,,,,,,,,,,,,,,,,,,,,,,,,,,,,261.78958433299704,261.80230883299373,261.80230883299373,262.62174658299773,r,1.0,0.8136965000012424,,,,,,sub-067,1,stroop_test,59.94142248269266,
,,,,38.0,2.0,3.0,,,,,,,,,,,,,rot,red,r,1.0,r,1.0,0.6069419580016984,,,,,,,,,,3.0,2.0,38.0,0.0,262.6363440829955,,,,,,,,,,,,,,,,,262.62196429199685,262.9861292919959,263.7861105829943,263.7710082079939,,,,,,,,,,,,,,,,,,,,,,,,,,,,,,,,,,,263.7711869579944,263.7861105829943,263.7861105829943,264.40570166699763,r,1.0,0.6069419580016984,,,,,,sub-067,1,stroop_test,59.94142248269266,
,,,,39.0,3.0,3.0,,,,,,,,,,,,,gelb,yellow,g,1.0,g,1.0,0.6554610829989542,,,,,,,,,,3.0,3.0,39.0,10.0,264.419350791999,,,,,,,,,,,,,,,,,264.4059183329955,265.2199473329965,266.0195676669973,266.0044500000004,,,,,,,,,,,,,,,,,,,,,,,,,,,,,,,,,,,266.00601987499977,266.0195676669973,266.0195676669973,266.6884595829979,g,1.0,0.6554610829989542,,,,,,sub-067,1,stroop_test,59.94142248269266,
,,,,40.0,4.0,3.0,,,,,,,,,,,,,gelb,blue,b,0.0,b,1.0,0.6050963329980732,,,,,,,,,,3.0,4.0,40.0,9.0,266.7021512079955,,,,,,,,,,,,,,,,,266.6886574579985,267.50287033299537,268.30278362499666,268.2877220829978,,,,,,,,,,,,,,,,,,,,,,,,,,,,,,,,,,,268.2878842919963,268.30278362499666,268.30278362499666,268.9237084579945,b,1.0,0.6050963329980732,,,,,,sub-067,1,stroop_test,59.94142248269266,
,,,,41.0,5.0,3.0,,,,,,,,,,,,,blau,red,r,0.0,g,0.0,0.868303792005463,,,,,,,,,,3.0,5.0,41.0,4.0,268.9353398329986,,,,,,,,,,,,,,,,,268.9239263329946,270.1363879579949,270.9362459579934,270.9215062499934,,,,,,,,,,,,,,,,,,,,,,,,,,,,,,,,,,,270.9228846249971,270.9362459579934,270.9362459579934,271.80666708299395,g,0.0,0.868303792005463,,,,,,sub-067,1,stroop_test,59.94142248269266,
,,,,42.0,6.0,3.0,,,,,,,,,,,,,gelb,yellow,g,1.0,g,1.0,0.8892390830005752,,,,,,,,,,3.0,6.0,42.0,11.0,271.8197507079967,,,,,,,,,,,,,,,,,271.8068789579993,273.02000033299555,273.819521874997,273.80459004199656,,,,,,,,,,,,,,,,,,,,,,,,,,,,,,,,,,,273.8061281249975,273.819521874997,273.819521874997,274.7228946670002,g,1.0,0.8892390830005752,,,,,,sub-067,1,stroop_test,59.94142248269266,
,,,,43.0,7.0,3.0,,,,,,,,,,,,,blau,blue,b,1.0,b,1.0,1.153459749999456,,,,,,,,,,3.0,7.0,43.0,6.0,274.73616395799763,,,,,,,,,,,,,,,,,274.7231347079942,275.935767666997,276.73561150000023,276.7211208749941,,,,,,,,,,,,,,,,,,,,,,,,,,,,,,,,,,,276.7224862499934,276.73561150000023,276.73561150000023,277.90650258299866,b,1.0,1.153459749999456,,,,,,sub-067,1,stroop_test,59.94142248269266,
,,,,44.0,8.0,3.0,,,,,,,,,,,,,gelb,red,r,0.0,r,1.0,0.8243280419992516,,,,,,,,,,3.0,8.0,44.0,8.0,277.9207772079972,,,,,,,,,,,,,,,,,277.9067505829953,278.01939462500013,278.81971670799976,278.80503899999894,,,,,,,,,,,,,,,,,,,,,,,,,,,,,,,,,,,278.8065722079991,278.81971670799976,278.81971670799976,279.6556143749985,r,1.0,0.8243280419992516,,,,,,sub-067,1,stroop_test,59.94142248269266,
,,,,45.0,9.0,3.0,,,,,,,,,,,,,rot,yellow,g,0.0,g,1.0,1.2446480830039943,,,,,,,,,,3.0,9.0,45.0,3.0,279.6700041669974,,,,,,,,,,,,,,,,,279.6558467079958,280.8699819579997,281.66933787499875,281.6552225829946,,,,,,,,,,,,,,,,,,,,,,,,,,,,,,,,,,,281.6567714579942,281.66933787499875,281.66933787499875,282.923734416996,g,1.0,1.2446480830039943,,,,,,sub-067,1,stroop_test,59.94142248269266,
,,,,46.0,10.0,3.0,,,,,,,,,,,,,blau,yellow,g,0.0,g,1.0,1.5943949580032497,,,,,,,,,,3.0,10.0,46.0,7.0,282.93643991699355,,,,,,,,,,,,,,,,,282.9239543749936,283.2862361249936,284.0872324169977,284.07164041699434,,,,,,,,,,,,,,,,,,,,,,,,,,,,,,,,,,,284.07300399999804,284.0872324169977,284.0872324169977,285.6900788329949,g,1.0,1.5943949580032497,,,,,,sub-067,1,stroop_test,59.94142248269266,
,,,,47.0,11.0,3.0,,,,,,,,,,,,,rot,blue,b,0.0,b,1.0,0.5184141659992747,,,,,,,,,,3.0,11.0,47.0,2.0,285.7035108749988,,,,,,,,,,,,,,,,,285.6903419579976,286.9058148330005,287.7197002920002,287.70519787499506,,,,,,,,,,,,,,,,,,,,,,,,,,,,,,,,,,,287.7067126249967,287.7197002920002,287.7197002920002,288.2393468329974,b,1.0,0.5184141659992747,,,,,,sub-067,1,stroop_test,59.94142248269266,
,,,,48.0,0.0,4.0,,,,,,,,,,,,,rot,red,r,1.0,r,1.0,0.678230125005939,,,,,,,,,,4.0,0.0,48.0,0.0,288.2541532499963,,,,,,,,,,,,,,,,,288.2395487499962,288.60376362499665,289.4034997919953,289.3880087500001,,,,,,,,,,,,,,,,,,,,,,,,,,,,,,,,,,,289.38818229199387,289.4034997919953,289.4034997919953,290.0893967499942,r,1.0,0.678230125005939,,,,,,sub-067,1,stroop_test,59.94142248269266,
,,,,49.0,1.0,4.0,,,,,,,,,,,,,blau,yellow,g,0.0,g,1.0,1.166142582995235,,,,,,,,,,4.0,1.0,49.0,7.0,290.1038392079936,,,,,,,,,,,,,,,,,290.089604832996,290.2035047919999,291.00361154199345,290.9893452079996,,,,,,,,,,,,,,,,,,,,,,,,,,,,,,,,,,,290.99107466699934,291.00361154199345,291.00361154199345,292.17275549999613,g,1.0,1.166142582995235,,,,,,sub-067,1,stroop_test,59.94142248269266,
,,,,50.0,2.0,4.0,,,,,,,,,,,,,rot,blue,b,0.0,b,1.0,1.0907259579980746,,,,,,,,,,4.0,2.0,50.0,2.0,292.1868847079968,,,,,,,,,,,,,,,,,292.17297462499846,292.2865894169954,293.0866798329953,293.071983582995,,,,,,,,,,,,,,,,,,,,,,,,,,,,,,,,,,,293.0735058749997,293.0866798329953,293.0866798329953,294.18929883300007,b,1.0,1.0907259579980746,,,,,,sub-067,1,stroop_test,59.94142248269266,
,,,,51.0,3.0,4.0,,,,,,,,,,,,,gelb,yellow,g,1.0,g,1.0,1.0378759159939364,,,,,,,,,,4.0,3.0,51.0,11.0,294.2036815829997,,,,,,,,,,,,,,,,,294.1895149999982,295.40341220799746,296.2035149999938,296.1886302079947,,,,,,,,,,,,,,,,,,,,,,,,,,,,,,,,,,,296.1901468750002,296.2035149999938,296.2035149999938,297.2571187079957,g,1.0,1.0378759159939364,,,,,,sub-067,1,stroop_test,59.94142248269266,
,,,,52.0,4.0,4.0,,,,,,,,,,,,,rot,yellow,g,0.0,g,1.0,1.7382402919974993,,,,,,,,,,4.0,4.0,52.0,3.0,297.2700245829983,,,,,,,,,,,,,,,,,297.2573180420004,298.07046954199905,298.8702487919945,298.8556069169936,,,,,,,,,,,,,,,,,,,,,,,,,,,,,,,,,,,298.85698024999874,298.8702487919945,298.8702487919945,300.62431862499943,g,1.0,1.7382402919974993,,,,,,sub-067,1,stroop_test,59.94142248269266,
,,,,53.0,5.0,4.0,,,,,,,,,,,,,rot,red,r,1.0,r,1.0,0.7066887499968288,,,,,,,,,,4.0,5.0,53.0,1.0,300.6383445829997,,,,,,,,,,,,,,,,,300.6245575829962,300.9869297080004,301.7870379169981,301.77221320799435,,,,,,,,,,,,,,,,,,,,,,,,,,,,,,,,,,,301.7723907499967,301.7870379169981,301.7870379169981,302.507099041999,r,1.0,0.7066887499968288,,,,,,sub-067,1,stroop_test,59.94142248269266,
,,,,54.0,6.0,4.0,,,,,,,,,,,,,blau,blue,b,1.0,b,1.0,0.5899680420043296,,,,,,,,,,4.0,6.0,54.0,6.0,302.5208147499943,,,,,,,,,,,,,,,,,302.50733654199576,303.7208299579943,304.5203418749952,304.50559945799614,,,,,,,,,,,,,,,,,,,,,,,,,,,,,,,,,,,304.50712224999734,304.5203418749952,304.5203418749952,305.12363874999573,b,1.0,0.5899680420043296,,,,,,sub-067,1,stroop_test,59.94142248269266,
,,,,55.0,7.0,4.0,,,,,,,,,,,,,gelb,yellow,g,1.0,b,0.0,0.9644524580071449,,,,,,,,,,4.0,7.0,55.0,10.0,305.13767962499696,,,,,,,,,,,,,,,,,305.12386254199373,305.2373332079951,306.0367634169961,306.0222769579996,,,,,,,,,,,,,,,,,,,,,,,,,,,,,,,,,,,306.023615332997,306.0367634169961,306.0367634169961,307.0067689999996,b,0.0,0.9644524580071449,,,,,,sub-067,1,stroop_test,59.94142248269266,
,,,,56.0,8.0,4.0,,,,,,,,,,,,,blau,red,r,0.0,r,1.0,1.3829836250006338,,,,,,,,,,4.0,8.0,56.0,4.0,307.021169666994,,,,,,,,,,,,,,,,,307.0070104579936,307.12017354199634,307.92134149999765,307.90601941699424,,,,,,,,,,,,,,,,,,,,,,,,,,,,,,,,,,,307.9072931249975,307.92134149999765,307.92134149999765,309.30776279199927,r,1.0,1.3829836250006338,,,,,,sub-067,1,stroop_test,59.94142248269266,
,,,,57.0,9.0,4.0,,,,,,,,,,,,,gelb,blue,b,0.0,b,1.0,1.3290184579964262,,,,,,,,,,4.0,9.0,57.0,9.0,309.32128770800045,,,,,,,,,,,,,,,,,309.30823949999467,310.1205758329961,310.9205559999973,310.90655370799504,,,,,,,,,,,,,,,,,,,,,,,,,,,,,,,,,,,310.9089166669946,310.9205559999973,310.9205559999973,312.25687325000035,b,1.0,1.3290184579964262,,,,,,sub-067,1,stroop_test,59.94142248269266,
,,,,58.0,10.0,4.0,,,,,,,,,,,,,blau,blue,b,1.0,b,1.0,0.7503572080022423,,,,,,,,,,4.0,10.0,58.0,5.0,312.27142595799523,,,,,,,,,,,,,,,,,312.25708587499685,313.47025924999616,314.27035645799333,314.2559430829933,,,,,,,,,,,,,,,,,,,,,,,,,,,,,,,,,,,314.25746299999446,314.27035645799333,314.27035645799333,315.0242994579967,b,1.0,0.7503572080022423,,,,,,sub-067,1,stroop_test,59.94142248269266,
,,,,59.0,11.0,4.0,,,,,,,,,,,,,gelb,red,r,0.0,r,1.0,1.1354485000047134,,,,,,,,,,4.0,11.0,59.0,8.0,315.03802562499914,,,,,,,,,,,,,,,,,315.0245060829984,315.8686990829956,316.6712675829985,316.65680962499755,,,,,,,,,,,,,,,,,,,,,,,,,,,,,,,,,,,316.6581550419942,316.6712675829985,316.6712675829985,317.8241242919976,r,1.0,1.1354485000047134,,,,,,sub-067,1,stroop_test,59.94142248269266,
,,,,60.0,0.0,5.0,,,,,,,,,,,,,blau,red,r,0.0,g,0.0,1.2552802080026595,,,,,,,,,,5.0,0.0,60.0,4.0,317.83753970799444,,,,,,,,,,,,,,,,,317.8243302079936,319.0373144999976,319.8380302499936,319.82378799999424,,,,,,,,,,,,,,,,,,,,,,,,,,,,,,,,,,,319.825241999999,319.8380302499936,319.8380302499936,321.106407416999,g,0.0,1.2552802080026595,,,,,,sub-067,1,stroop_test,59.94142248269266,
,,,,61.0,1.0,5.0,,,,,,,,,,,,,gelb,red,r,0.0,r,1.0,1.6574377080032718,,,,,,,,,,5.0,1.0,61.0,8.0,321.1212901669933,,,,,,,,,,,,,,,,,321.106607624999,321.4720621249944,322.2876932919972,322.2727576249963,,,,,,,,,,,,,,,,,,,,,,,,,,,,,,,,,,,322.2742719999951,322.2876932919972,322.2876932919972,323.9579913329944,r,1.0,1.6574377080032718,,,,,,sub-067,1,stroop_test,59.94142248269266,
,,,,62.0,2.0,5.0,,,,,,,,,,,,,gelb,yellow,g,1.0,g,1.0,0.9037256250012432,,,,,,,,,,5.0,2.0,62.0,10.0,323.9714429999949,,,,,,,,,,,,,,,,,323.95818679199874,325.171066582996,325.9716287919946,325.9571010829968,,,,,,,,,,,,,,,,,,,,,,,,,,,,,,,,,,,325.9573219169979,325.9716287919946,325.9716287919946,326.8913567079944,g,1.0,0.9037256250012432,,,,,,sub-067,1,stroop_test,59.94142248269266,
,,,,63.0,3.0,5.0,,,,,,,,,,,,,gelb,yellow,g,1.0,g,1.0,0.799099625000963,,,,,,,,,,5.0,3.0,63.0,11.0,326.90473749999364,,,,,,,,,,,,,,,,,326.89156349999394,328.1043608330001,328.90474162499595,328.8901614999995,,,,,,,,,,,,,,,,,,,,,,,,,,,,,,,,,,,328.8903281669991,328.90474162499595,328.90474162499595,329.7076537920002,g,1.0,0.799099625000963,,,,,,sub-067,1,stroop_test,59.94142248269266,
,,,,64.0,4.0,5.0,,,,,,,,,,,,,rot,blue,b,0.0,b,1.0,1.1994622920028633,,,,,,,,,,5.0,4.0,64.0,2.0,329.72200512499694,,,,,,,,,,,,,,,,,329.7078875419975,330.52251595800044,331.321784957996,331.3066476669992,,,,,,,,,,,,,,,,,,,,,,,,,,,,,,,,,,,331.3082088749943,331.321784957996,331.321784957996,332.5240313749964,b,1.0,1.1994622920028633,,,,,,sub-067,1,stroop_test,59.94142248269266,
,,,,65.0,5.0,5.0,,,,,,,,,,,,,rot,yellow,g,0.0,g,1.0,1.96798687500268,,,,,,,,,,5.0,5.0,65.0,3.0,332.53839933299605,,,,,,,,,,,,,,,,,332.52423070799705,332.63805079199665,333.438218999996,333.4228459579972,,,,,,,,,,,,,,,,,,,,,,,,,,,,,,,,,,,333.42302716699487,333.438218999996,333.438218999996,335.4074563329996,g,1.0,1.96798687500268,,,,,,sub-067,1,stroop_test,59.94142248269266,
,,,,66.0,6.0,5.0,,,,,,,,,,,,,blau,blue,b,1.0,b,1.0,1.080741207995743,,,,,,,,,,5.0,6.0,66.0,5.0,335.42205524999736,,,,,,,,,,,,,,,,,335.40767054199387,335.77221958299924,336.5711594999957,336.5565041249938,,,,,,,,,,,,,,,,,,,,,,,,,,,,,,,,,,,336.55805229199905,336.5711594999957,336.5711594999957,337.6578394169992,b,1.0,1.080741207995743,,,,,,sub-067,1,stroop_test,59.94142248269266,
,,,,67.0,7.0,5.0,,,,,,,,,,,,,rot,red,r,1.0,r,1.0,0.8464000840031076,,,,,,,,,,5.0,7.0,67.0,0.0,337.6726765419953,,,,,,,,,,,,,,,,,337.6580782919991,338.47212891699746,339.2716587920004,339.25745345799805,,,,,,,,,,,,,,,,,,,,,,,,,,,,,,,,,,,339.2593332499964,339.2716587920004,339.2716587920004,340.1245612079947,r,1.0,0.8464000840031076,,,,,,sub-067,1,stroop_test,59.94142248269266,
,,,,68.0,8.0,5.0,,,,,,,,,,,,,gelb,blue,b,0.0,b,1.0,1.4019638339959783,,,,,,,,,,5.0,8.0,68.0,9.0,340.1386947499996,,,,,,,,,,,,,,,,,340.12483674999385,340.48812145799457,341.2890534999969,341.27315824999823,,,,,,,,,,,,,,,,,,,,,,,,,,,,,,,,,,,341.27485274999344,341.2890534999969,341.2890534999969,342.7081823749977,b,1.0,1.4019638339959783,,,,,,sub-067,1,stroop_test,59.94142248269266,
,,,,69.0,9.0,5.0,,,,,,,,,,,,,blau,blue,b,1.0,b,1.0,0.7524517080018995,,,,,,,,,,5.0,9.0,69.0,6.0,342.7216454579975,,,,,,,,,,,,,,,,,342.7083799579996,343.5219738749947,344.3216210419996,344.3066147079953,,,,,,,,,,,,,,,,,,,,,,,,,,,,,,,,,,,344.3078847500001,344.3216210419996,344.3216210419996,345.0915638749939,b,1.0,0.7524517080018995,,,,,,sub-067,1,stroop_test,59.94142248269266,
,,,,70.0,10.0,5.0,,,,,,,,,,,,,rot,red,r,1.0,r,1.0,1.2833212919940706,,,,,,,,,,5.0,10.0,70.0,1.0,345.10516254200047,,,,,,,,,,,,,,,,,345.09178516699467,345.90896129199973,346.72153912499925,346.70664237500023,,,,,,,,,,,,,,,,,,,,,,,,,,,,,,,,,,,346.70800162499654,346.72153912499925,346.72153912499925,348.0080197499992,r,1.0,1.2833212919940706,,,,,,sub-067,1,stroop_test,59.94142248269266,
,,,,71.0,11.0,5.0,,,,,,,,,,,,,blau,yellow,g,0.0,b,0.0,1.2013500000030035,,,,,,,,,,5.0,11.0,71.0,7.0,348.02184904199385,,,,,,,,,,,,,,,,,348.00825999999506,348.3730586249949,349.1885712079966,349.1735942499945,,,,,,,,,,,,,,,,,,,,,,,,,,,,,,,,,,,349.1750977499978,349.1885712079966,349.1885712079966,350.3911440419979,b,0.0,1.2013500000030035,,,,,,sub-067,1,stroop_test,59.94142248269266,
,,,,72.0,0.0,6.0,,,,,,,,,,,,,gelb,red,r,0.0,r,1.0,1.031157332996372,,,,,,,,,,6.0,0.0,72.0,8.0,350.4056013749941,,,,,,,,,,,,,,,,,350.391381333,351.2050903749987,352.00491512499866,351.99162120799883,,,,,,,,,,,,,,,,,,,,,,,,,,,,,,,,,,,351.99300187499466,352.00491512499866,352.00491512499866,353.0419510829961,r,1.0,1.031157332996372,,,,,,sub-067,1,stroop_test,59.94142248269266,
,,,,73.0,1.0,6.0,,,,,,,,,,,,,blau,blue,b,1.0,b,1.0,1.086062166999909,,,,,,,,,,6.0,1.0,73.0,5.0,353.0555299169937,,,,,,,,,,,,,,,,,353.04217366699595,353.8556343329983,354.6555850829973,354.6406181249986,,,,,,,,,,,,,,,,,,,,,,,,,,,,,,,,,,,354.64211583299766,354.6555850829973,354.6555850829973,355.75836783299746,b,1.0,1.086062166999909,,,,,,sub-067,1,stroop_test,59.94142248269266,
,,,,74.0,2.0,6.0,,,,,,,,,,,,,gelb,yellow,g,1.0,g,1.0,1.2191889579989947,,,,,,,,,,6.0,2.0,74.0,10.0,355.77153770799487,,,,,,,,,,,,,,,,,355.758581874994,355.8727180829956,356.6720007499971,356.65721837499586,,,,,,,,,,,,,,,,,,,,,,,,,,,,,,,,,,,356.65861079199385,356.6720007499971,356.6720007499971,357.8924975419941,g,1.0,1.2191889579989947,,,,,,sub-067,1,stroop_test,59.94142248269266,
,,,,75.0,3.0,6.0,,,,,,,,,,,,,rot,red,r,1.0,r,1.0,0.816598959005205,,,,,,,,,,6.0,3.0,75.0,1.0,357.906472374998,,,,,,,,,,,,,,,,,357.8927639579997,358.2557899169988,359.055575624996,359.04083804199763,,,,,,,,,,,,,,,,,,,,,,,,,,,,,,,,,,,359.042222707998,359.055575624996,359.055575624996,359.87535462499363,r,1.0,0.816598959005205,,,,,,sub-067,1,stroop_test,59.94142248269266,
,,,,76.0,4.0,6.0,,,,,,,,,,,,,blau,yellow,g,0.0,g,1.0,1.4267451659979995,,,,,,,,,,6.0,4.0,76.0,7.0,359.8898204999932,,,,,,,,,,,,,,,,,359.8755957079993,360.6892131249988,361.4890504579962,361.4738177499967,,,,,,,,,,,,,,,,,,,,,,,,,,,,,,,,,,,361.4752555419982,361.4890504579962,361.4890504579962,362.9262406249982,g,1.0,1.4267451659979995,,,,,,sub-067,1,stroop_test,59.94142248269266,
,,,,77.0,5.0,6.0,,,,,,,,,,,,,gelb,blue,b,0.0,b,1.0,1.0751589579958818,,,,,,,,,,6.0,5.0,77.0,9.0,362.9392117919997,,,,,,,,,,,,,,,,,362.9264676669991,363.0387583329939,363.83841537499393,363.8239876249936,,,,,,,,,,,,,,,,,,,,,,,,,,,,,,,,,,,363.8253828749948,363.83841537499393,363.83841537499393,364.9253129169956,b,1.0,1.0751589579958818,,,,,,sub-067,1,stroop_test,59.94142248269266,
,,,,78.0,6.0,6.0,,,,,,,,,,,,,rot,yellow,g,0.0,g,1.0,1.0174709589991835,,,,,,,,,,6.0,6.0,78.0,3.0,364.939203832997,,,,,,,,,,,,,,,,,364.9255619169999,366.1392671249996,366.939518207997,366.9243510419983,,,,,,,,,,,,,,,,,,,,,,,,,,,,,,,,,,,366.9257877919954,366.939518207997,366.939518207997,367.95826095799566,g,1.0,1.0174709589991835,,,,,,sub-067,1,stroop_test,59.94142248269266,
,,,,79.0,7.0,6.0,,,,,,,,,,,,,rot,red,r,1.0,r,1.0,1.109813082999608,,,,,,,,,,6.0,7.0,79.0,0.0,367.972945249996,,,,,,,,,,,,,,,,,367.9584755830001,368.77264495800046,369.5724234579975,369.5580609999961,,,,,,,,,,,,,,,,,,,,,,,,,,,,,,,,,,,369.5582273749969,369.5724234579975,369.5724234579975,370.6919973749973,r,1.0,1.109813082999608,,,,,,sub-067,1,stroop_test,59.94142248269266,
,,,,80.0,8.0,6.0,,,,,,,,,,,,,rot,blue,b,0.0,b,1.0,1.1970246249984484,,,,,,,,,,6.0,8.0,80.0,2.0,370.70599529199535,,,,,,,,,,,,,,,,,370.6922121249954,371.0563174999989,371.8558835829972,371.8415590000004,,,,,,,,,,,,,,,,,,,,,,,,,,,,,,,,,,,371.8417212919958,371.8558835829972,371.8558835829972,373.05819824999344,b,1.0,1.1970246249984484,,,,,,sub-067,1,stroop_test,59.94142248269266,
,,,,81.0,9.0,6.0,,,,,,,,,,,,,blau,blue,b,1.0,b,1.0,0.6360090829984983,,,,,,,,,,6.0,9.0,81.0,6.0,373.0730710829957,,,,,,,,,,,,,,,,,373.05838316699374,373.422367207997,374.2227758749941,374.2087507919932,,,,,,,,,,,,,,,,,,,,,,,,,,,,,,,,,,,374.2102994579982,374.2227758749941,374.2227758749941,374.8766476249948,b,1.0,0.6360090829984983,,,,,,sub-067,1,stroop_test,59.94142248269266,
,,,,82.0,10.0,6.0,,,,,,,,,,,,,blau,red,r,0.0,g,0.0,0.766074416002084,,,,,,,,,,6.0,10.0,82.0,4.0,374.8896415419949,,,,,,,,,,,,,,,,,374.8768596669979,375.23947504199896,376.0401268329952,376.0251317919974,,,,,,,,,,,,,,,,,,,,,,,,,,,,,,,,,,,376.0252995419942,376.0401268329952,376.0401268329952,376.8087014999983,g,0.0,0.766074416002084,,,,,,sub-067,1,stroop_test,59.94142248269266,
,,,,83.0,11.0,6.0,,,,,,,,,,,,,gelb,yellow,g,1.0,g,1.0,0.9217755420031608,,,,,,,,,,6.0,11.0,83.0,11.0,376.823141832996,,,,,,,,,,,,,,,,,376.8089404579951,377.6226631669997,378.42348749999655,378.4084446669949,,,,,,,,,,,,,,,,,,,,,,,,,,,,,,,,,,,378.40993120799976,378.42348749999655,378.42348749999655,379.3592954169944,g,1.0,0.9217755420031608,,,,,,sub-067,1,stroop_test,59.94142248269266,
,,,,84.0,0.0,7.0,,,,,,,,,,,,,gelb,red,r,0.0,r,1.0,0.6268323749973206,,,,,,,,,,7.0,0.0,84.0,8.0,379.3730472079988,,,,,,,,,,,,,,,,,379.3595019579952,380.1732062079973,380.9734562919985,380.9589966249987,,,,,,,,,,,,,,,,,,,,,,,,,,,,,,,,,,,380.95917966699926,380.9734562919985,380.9734562919985,381.6090976669948,r,1.0,0.6268323749973206,,,,,,sub-067,1,stroop_test,59.94142248269266,
,,,,85.0,1.0,7.0,,,,,,,,,,,,,rot,red,r,1.0,r,1.0,0.5675932500016643,,,,,,,,,,7.0,1.0,85.0,1.0,381.6229980419957,,,,,,,,,,,,,,,,,381.60930212499807,381.9726122079956,382.77325129199744,382.7578993329953,,,,,,,,,,,,,,,,,,,,,,,,,,,,,,,,,,,382.7593885829992,382.77325129199744,382.77325129199744,383.34199208299833,r,1.0,0.5675932500016643,,,,,,sub-067,1,stroop_test,59.94142248269266,
,,,,86.0,2.0,7.0,,,,,,,,,,,,,blau,red,r,0.0,r,1.0,0.5498021250023157,,,,,,,,,,7.0,2.0,86.0,4.0,383.3559744169979,,,,,,,,,,,,,,,,,383.342185124995,383.706405041994,384.5063907079966,384.4917556250002,,,,,,,,,,,,,,,,,,,,,,,,,,,,,,,,,,,384.4931434999962,384.5063907079966,384.5063907079966,385.0589586249989,r,1.0,0.5498021250023157,,,,,,sub-067,1,stroop_test,59.94142248269266,
,,,,87.0,3.0,7.0,,,,,,,,,,,,,rot,blue,b,0.0,b,1.0,1.2685359999959471,,,,,,,,,,7.0,3.0,87.0,2.0,385.073472707998,,,,,,,,,,,,,,,,,385.0591820829941,385.4231118749958,386.222473541995,386.2079502919951,,,,,,,,,,,,,,,,,,,,,,,,,,,,,,,,,,,386.2092914999957,386.222473541995,386.222473541995,387.492259791994,b,1.0,1.2685359999959471,,,,,,sub-067,1,stroop_test,59.94142248269266,
,,,,88.0,4.0,7.0,,,,,,,,,,,,,gelb,yellow,g,1.0,g,1.0,0.7881348750015604,,,,,,,,,,7.0,4.0,88.0,11.0,387.5064972499968,,,,,,,,,,,,,,,,,387.4924701669952,387.85594741699606,388.6562457079999,388.64160020800045,,,,,,,,,,,,,,,,,,,,,,,,,,,,,,,,,,,388.6431309999971,388.6562457079999,388.6562457079999,389.459865375,g,1.0,0.7881348750015604,,,,,,sub-067,1,stroop_test,59.94142248269266,
,,,,89.0,5.0,7.0,,,,,,,,,,,,,gelb,blue,b,0.0,b,1.0,0.8102072089968715,,,,,,,,,,7.0,5.0,89.0,9.0,389.4736262499937,,,,,,,,,,,,,,,,,389.4601091249933,390.6732152499972,391.4728174999982,391.4585608749985,,,,,,,,,,,,,,,,,,,,,,,,,,,,,,,,,,,391.4587244169961,391.4728174999982,391.4728174999982,392.2926635829936,b,1.0,0.8102072089968715,,,,,,sub-067,1,stroop_test,59.94142248269266,
,,,,90.0,6.0,7.0,,,,,,,,,,,,,blau,blue,b,1.0,b,1.0,0.7417797919988516,,,,,,,,,,7.0,6.0,90.0,6.0,392.30654674999823,,,,,,,,,,,,,,,,,392.2928684169965,392.656452874995,393.4560850419948,393.441704375,,,,,,,,,,,,,,,,,,,,,,,,,,,,,,,,,,,393.44323079199967,393.4560850419948,393.4560850419948,394.2102415419941,b,1.0,0.7417797919988516,,,,,,sub-067,1,stroop_test,59.94142248269266,
,,,,91.0,7.0,7.0,,,,,,,,,,,,,gelb,yellow,g,1.0,g,1.0,0.5142407910025213,,,,,,,,,,7.0,7.0,91.0,10.0,394.224035291998,,,,,,,,,,,,,,,,,394.210492582999,395.4236966249955,396.2233321249951,396.2086859999981,,,,,,,,,,,,,,,,,,,,,,,,,,,,,,,,,,,396.21006549999584,396.2233321249951,396.2233321249951,396.7431578329997,g,1.0,0.5142407910025213,,,,,,sub-067,1,stroop_test,59.94142248269266,
,,,,92.0,8.0,7.0,,,,,,,,,,,,,blau,blue,b,1.0,b,1.0,0.6299591669958318,,,,,,,,,,7.0,8.0,92.0,5.0,396.7577369579958,,,,,,,,,,,,,,,,,396.74339716699615,397.10721974999615,397.9076140830002,397.89276087499456,,,,,,,,,,,,,,,,,,,,,,,,,,,,,,,,,,,397.8941237499967,397.9076140830002,397.9076140830002,398.5428140829972,b,1.0,0.6299591669958318,,,,,,sub-067,1,stroop_test,59.94142248269266,
,,,,93.0,9.0,7.0,,,,,,,,,,,,,rot,red,r,1.0,r,1.0,0.5611064580007223,,,,,,,,,,7.0,9.0,93.0,0.0,398.557531749997,,,,,,,,,,,,,,,,,398.5430354169948,399.3566718749935,400.15720945799694,400.1420362919962,,,,,,,,,,,,,,,,,,,,,,,,,,,,,,,,,,,400.1433885419974,400.15720945799694,400.15720945799694,400.7265737079943,r,1.0,0.5611064580007223,,,,,,sub-067,1,stroop_test,59.94142248269266,
,,,,94.0,10.0,7.0,,,,,,,,,,,,,rot,yellow,g,0.0,g,1.0,0.8339917500052252,,,,,,,,,,7.0,10.0,94.0,3.0,400.74037508299807,,,,,,,,,,,,,,,,,400.7267874169993,401.9401610829955,402.7404925829978,402.72563370799617,,,,,,,,,,,,,,,,,,,,,,,,,,,,,,,,,,,402.7258157079996,402.7404925829978,402.7404925829978,403.57655408299615,g,1.0,0.8339917500052252,,,,,,sub-067,1,stroop_test,59.94142248269266,
,,,,95.0,11.0,7.0,,,,,,,,,,,,,blau,yellow,g,0.0,g,1.0,0.5671300840040203,,,,,,,,,,7.0,11.0,95.0,7.0,403.5914451249992,,,,,,,,,,,,,,,,,403.5768058749964,404.39050408299954,405.18996020799386,405.1751912079999,,,,,,,,,,,,,,,,,,,,,,,,,,,,,,,,,,,405.1766646670003,405.18996020799386,405.18996020799386,405.7592913329936,g,1.0,0.5671300840040203,,,,,,sub-067,1,stroop_test,59.94142248269266,
,,,,96.0,0.0,8.0,,,,,,,,,,,,,rot,yellow,g,0.0,g,1.0,0.5215705000009621,,,,,,,,,,8.0,0.0,96.0,3.0,405.7744403329998,,,,,,,,,,,,,,,,,405.75949233299616,406.1240493749938,406.92505166699993,406.91021158299554,,,,,,,,,,,,,,,,,,,,,,,,,,,,,,,,,,,406.9116920419983,406.92505166699993,406.92505166699993,407.4602814999962,g,1.0,0.5215705000009621,,,,,,sub-067,1,stroop_test,59.94142248269266,
,,,,97.0,1.0,8.0,,,,,,,,,,,,,gelb,red,r,0.0,r,1.0,1.200353250002081,,,,,,,,,,8.0,1.0,97.0,8.0,407.47393937499874,,,,,,,,,,,,,,,,,407.46047887500026,408.2748706249986,409.0906380419983,409.0756018749962,,,,,,,,,,,,,,,,,,,,,,,,,,,,,,,,,,,409.0771201249954,409.0906380419983,409.0906380419983,410.294169791996,r,1.0,1.200353250002081,,,,,,sub-067,1,stroop_test,59.94142248269266,
,,,,98.0,2.0,8.0,,,,,,,,,,,,,blau,red,r,0.0,r,1.0,0.685258249999606,,,,,,,,,,8.0,2.0,98.0,4.0,410.3076636249971,,,,,,,,,,,,,,,,,410.2944112919941,410.657719457995,411.4571345000004,411.4430042499953,,,,,,,,,,,,,,,,,,,,,,,,,,,,,,,,,,,411.4445046669935,411.4571345000004,411.4571345000004,412.1435347079969,r,1.0,0.685258249999606,,,,,,sub-067,1,stroop_test,59.94142248269266,
,,,,99.0,3.0,8.0,,,,,,,,,,,,,blau,blue,b,1.0,g,0.0,0.947061290993588,,,,,,,,,,8.0,3.0,99.0,6.0,412.1576829999976,,,,,,,,,,,,,,,,,412.14374574999965,412.25705354199454,413.0569739579951,413.0427443749941,,,,,,,,,,,,,,,,,,,,,,,,,,,,,,,,,,,413.0429035419948,413.0569739579951,413.0569739579951,414.0100447079967,g,0.0,0.947061290993588,,,,,,sub-067,1,stroop_test,59.94142248269266,
,,,,100.0,4.0,8.0,,,,,,,,,,,,,gelb,yellow,g,1.0,g,1.0,1.010420291997434,,,,,,,,,,8.0,4.0,100.0,11.0,414.02428558300016,,,,,,,,,,,,,,,,,414.0102523329988,414.3741551669955,415.1740974169952,415.1596199579944,,,,,,,,,,,,,,,,,,,,,,,,,,,,,,,,,,,415.1611408749959,415.1740974169952,415.1740974169952,416.1937109999999,g,1.0,1.010420291997434,,,,,,sub-067,1,stroop_test,59.94142248269266,
,,,,101.0,5.0,8.0,,,,,,,,,,,,,gelb,yellow,g,1.0,g,1.0,0.5678184999997029,,,,,,,,,,8.0,5.0,101.0,10.0,416.20704199999454,,,,,,,,,,,,,,,,,416.1939218749976,417.0078947919974,417.8075534169984,417.7927572919944,,,,,,,,,,,,,,,,,,,,,,,,,,,,,,,,,,,417.7929238750002,417.8075534169984,417.8075534169984,418.3769655829965,g,1.0,0.5678184999997029,,,,,,sub-067,1,stroop_test,59.94142248269266,
,,,,102.0,6.0,8.0,,,,,,,,,,,,,gelb,blue,b,0.0,b,1.0,1.2393005000049016,,,,,,,,,,8.0,6.0,102.0,9.0,418.3911611249932,,,,,,,,,,,,,,,,,418.3771796250003,419.5908845829981,420.39121399999567,420.37591679199977,,,,,,,,,,,,,,,,,,,,,,,,,,,,,,,,,,,420.37608087499393,420.39121399999567,420.39121399999567,421.6439207079966,b,1.0,1.2393005000049016,,,,,,sub-067,1,stroop_test,59.94142248269266,
,,,,103.0,7.0,8.0,,,,,,,,,,,,,rot,red,r,1.0,r,1.0,1.0281277079993745,,,,,,,,,,8.0,7.0,103.0,0.0,421.6583264169967,,,,,,,,,,,,,,,,,421.6441284579996,422.85760320799454,423.6576815829976,423.6436880829933,,,,,,,,,,,,,,,,,,,,,,,,,,,,,,,,,,,423.6456170829988,423.6576815829976,423.6576815829976,424.6942047079938,r,1.0,1.0281277079993745,,,,,,sub-067,1,stroop_test,59.94142248269266,
,,,,104.0,8.0,8.0,,,,,,,,,,,,,rot,red,r,1.0,r,1.0,0.6936261250011739,,,,,,,,,,8.0,8.0,104.0,1.0,424.7078500829957,,,,,,,,,,,,,,,,,424.6944064169948,424.80788666699664,425.6080783329962,425.5928970419991,,,,,,,,,,,,,,,,,,,,,,,,,,,,,,,,,,,425.593073666998,425.6080783329962,425.6080783329962,426.3112077919941,r,1.0,0.6936261250011739,,,,,,sub-067,1,stroop_test,59.94142248269266,
,,,,105.0,9.0,8.0,,,,,,,,,,,,,blau,yellow,g,0.0,g,1.0,2.0328617919949465,,,,,,,,,,8.0,9.0,105.0,7.0,426.3245312919971,,,,,,,,,,,,,,,,,426.3114436249962,426.6747247499952,427.4740816249978,427.4592893749941,,,,,,,,,,,,,,,,,,,,,,,,,,,,,,,,,,,427.4606574999998,427.4740816249978,427.4740816249978,429.5104451249936,g,1.0,2.0328617919949465,,,,,,sub-067,1,stroop_test,59.94142248269266,
,,,,106.0,10.0,8.0,,,,,,,,,,,,,rot,blue,b,0.0,r,0.0,0.9536085840009036,,,,,,,,,,8.0,10.0,106.0,2.0,429.5251445419999,,,,,,,,,,,,,,,,,429.5106499579997,429.6245601669944,430.4245432919997,430.4098894169947,,,,,,,,,,,,,,,,,,,,,,,,,,,,,,,,,,,430.4113916249989,430.4245432919997,430.4245432919997,431.3937689999948,r,0.0,0.9536085840009036,,,,,,sub-067,1,stroop_test,59.94142248269266,
,,,,107.0,11.0,8.0,,,,,,,,,,,,,blau,blue,b,1.0,b,1.0,1.6299974159992416,,,,,,,,,,8.0,11.0,107.0,5.0,431.4075128329932,,,,,,,,,,,,,,,,,431.39395766699454,431.7586424170004,432.558323833,432.5435997079985,,,,,,,,,,,,,,,,,,,,,,,,,,,,,,,,,,,432.5450869169945,432.558323833,432.558323833,434.19460183299816,b,1.0,1.6299974159992416,,,,,,sub-067,1,stroop_test,59.94142248269266,
,,,,108.0,0.0,9.0,,,,,,,,,,,,,blau,blue,b,1.0,b,1.0,0.5121472500031814,,,,,,,,,,9.0,0.0,108.0,6.0,434.2092776249992,,,,,,,,,,,,,,,,,434.194839374999,435.4087548749958,436.2081830829993,436.1930184579978,,,,,,,,,,,,,,,,,,,,,,,,,,,,,,,,,,,436.1931832919945,436.2081830829993,436.2081830829993,436.72772645799705,b,1.0,0.5121472500031814,,,,,,sub-067,1,stroop_test,59.94142248269266,
,,,,109.0,1.0,9.0,,,,,,,,,,,,,rot,red,r,1.0,r,1.0,1.1341767920021084,,,,,,,,,,9.0,1.0,109.0,1.0,436.7417942079992,,,,,,,,,,,,,,,,,436.72794758300006,437.09153633299866,437.89124195799377,437.8765551249962,,,,,,,,,,,,,,,,,,,,,,,,,,,,,,,,,,,437.8780647499953,437.89124195799377,437.89124195799377,439.026984958,r,1.0,1.1341767920021084,,,,,,sub-067,1,stroop_test,59.94142248269266,
,,,,110.0,2.0,9.0,,,,,,,,,,,,,blau,red,r,0.0,r,1.0,0.7221612499997718,,,,,,,,,,9.0,2.0,110.0,4.0,439.0420159579953,,,,,,,,,,,,,,,,,439.0271960419996,439.8416201250002,440.6412051669977,440.6263356249983,,,,,,,,,,,,,,,,,,,,,,,,,,,,,,,,,,,440.6277740419973,440.6412051669977,440.6412051669977,441.37804491699353,r,1.0,0.7221612499997718,,,,,,sub-067,1,stroop_test,59.94142248269266,
,,,,111.0,3.0,9.0,,,,,,,,,,,,,rot,red,r,1.0,r,1.0,1.272409791003156,,,,,,,,,,9.0,3.0,111.0,0.0,441.3918331249952,,,,,,,,,,,,,,,,,441.37824904199806,441.4919317919994,442.2915534579952,442.2768788749963,,,,,,,,,,,,,,,,,,,,,,,,,,,,,,,,,,,442.2783558329975,442.2915534579952,442.2915534579952,443.577666666999,r,1.0,1.272409791003156,,,,,,sub-067,1,stroop_test,59.94142248269266,
,,,,112.0,4.0,9.0,,,,,,,,,,,,,gelb,yellow,g,1.0,g,1.0,1.54023416700511,,,,,,,,,,9.0,4.0,112.0,11.0,443.591952625,,,,,,,,,,,,,,,,,443.5778732079998,443.6916127919976,444.4913200419978,444.4767814579973,,,,,,,,,,,,,,,,,,,,,,,,,,,,,,,,,,,444.4782858749968,444.4913200419978,444.4913200419978,446.0454070829946,g,1.0,1.54023416700511,,,,,,sub-067,1,stroop_test,59.94142248269266,
,,,,113.0,5.0,9.0,,,,,,,,,,,,,blau,yellow,g,0.0,g,1.0,0.7575867920022574,,,,,,,,,,9.0,5.0,113.0,7.0,446.0583635829971,,,,,,,,,,,,,,,,,446.04564841699903,446.4091898749976,447.2088333329957,447.19339791699895,,,,,,,,,,,,,,,,,,,,,,,,,,,,,,,,,,,447.19489087499824,447.2088333329957,447.2088333329957,447.97790916699887,g,1.0,0.7575867920022574,,,,,,sub-067,1,stroop_test,59.94142248269266,
,,,,114.0,6.0,9.0,,,,,,,,,,,,,rot,blue,b,0.0,b,1.0,1.8095066249952647,,,,,,,,,,9.0,6.0,114.0,2.0,447.9920755829953,,,,,,,,,,,,,,,,,447.978147707996,449.1919412919961,449.9926807919983,449.9767108329979,,,,,,,,,,,,,,,,,,,,,,,,,,,,,,,,,,,449.9782419169933,449.9926807919983,449.9926807919983,451.81237933299417,b,1.0,1.8095066249952647,,,,,,sub-067,1,stroop_test,59.94142248269266,
,,,,115.0,7.0,9.0,,,,,,,,,,,,,gelb,red,r,0.0,r,1.0,1.072413374997268,,,,,,,,,,9.0,7.0,115.0,8.0,451.8252934169941,,,,,,,,,,,,,,,,,451.8126182499982,451.9252046669935,452.725548082999,452.7099292079947,,,,,,,,,,,,,,,,,,,,,,,,,,,,,,,,,,,452.7113320419958,452.725548082999,452.725548082999,453.8117446670003,r,1.0,1.072413374997268,,,,,,sub-067,1,stroop_test,59.94142248269266,
,,,,116.0,8.0,9.0,,,,,,,,,,,,,gelb,yellow,g,1.0,g,1.0,0.7117839169950457,,,,,,,,,,9.0,8.0,116.0,10.0,453.8254514999935,,,,,,,,,,,,,,,,,453.81197941699793,453.925954374994,454.7255216669946,454.7105314169967,,,,,,,,,,,,,,,,,,,,,,,,,,,,,,,,,,,454.7107127919953,454.7255216669946,454.7255216669946,455.4460609169983,g,1.0,0.7117839169950457,,,,,,sub-067,1,stroop_test,59.94142248269266,
,,,,117.0,9.0,9.0,,,,,,,,,,,,,rot,yellow,g,0.0,g,1.0,0.9668080839983304,,,,,,,,,,9.0,9.0,117.0,3.0,455.4588467079957,,,,,,,,,,,,,,,,,455.4462947079956,455.5587042079933,456.35832908299926,456.3446151249954,,,,,,,,,,,,,,,,,,,,,,,,,,,,,,,,,,,456.3461115829996,456.35832908299926,456.35832908299926,457.32838458299375,g,1.0,0.9668080839983304,,,,,,sub-067,1,stroop_test,59.94142248269266,
,,,,118.0,10.0,9.0,,,,,,,,,,,,,blau,blue,b,1.0,b,1.0,0.6426934999981313,,,,,,,,,,9.0,10.0,118.0,5.0,457.342726582996,,,,,,,,,,,,,,,,,457.32859954199375,458.1426073749972,458.9425941249938,458.929980957997,,,,,,,,,,,,,,,,,,,,,,,,,,,,,,,,,,,458.9313540000003,458.9425941249938,458.9425941249938,459.5954082919998,b,1.0,0.6426934999981313,,,,,,sub-067,1,stroop_test,59.94142248269266,
,,,,119.0,11.0,9.0,,,,,,,,,,,,,gelb,blue,b,0.0,b,1.0,0.4661293340031989,,,,,,,,,,9.0,11.0,119.0,9.0,459.6092321670003,,,,,,,,,,,,,,,,,459.5956365419988,459.7094285829953,460.50872904199787,460.4944278330004,,,,,,,,,,,,,,,,,,,,,,,,,,,,,,,,,,,460.495807542,460.50872904199787,460.50872904199787,460.9785989999946,b,1.0,0.4661293340031989,,,,,,sub-067,1,stroop_test,59.94142248269266,
,,,,,,,,,,,,,,,,,,,,,,,,,,,,,,,,,,,,,,,,,,,,,,,,,,,,,,,,,,,,,,,,,,,,,,,,,,,,,,,,,,,,,,,,,,,,,,,,,,,,,,460.9787515419957,460.9926067079941,465.9926068749992,465.977739791997,sub-067,1,stroop_test,59.94142248269266,
