direction,corrAns,randomInstr,practice_trials.thisRepN,practice_trials.thisTrialN,practice_trials.thisN,practice_trials.thisIndex,instr_trials.thisRepN,instr_trials.thisTrialN,instr_trials.thisN,instr_trials.thisIndex,test_trials.thisRepN,test_trials.thisTrialN,test_trials.thisN,test_trials.thisIndex,thisRow.t,notes,general_instruction.started,textGeneralInstr.started,respGeneralInstr.started,general_instruction.stopped,respGeneralInstr.keys,respGeneralInstr.rt,respGeneralInstr.duration,ITI.started,fixcross.started,fixcross.stopped,ITI.stopped,dots.started,backgroundDots.started,stimulusDots.started,respDots.started,stimulusDots.stopped,dots.stopped,respDots.keys,respDots.corr,respDots.rt,respDots.duration,feedback.started,textFeedback.started,feedback.stopped,textFeedback.stopped,info.started,textInfo.started,keyRespInfo.started,info.stopped,keyRespInfo.keys,keyRespInfo.rt,keyRespInfo.duration,test_instruction.started,textTestInstr.started,respTestInstr.started,test_instruction.stopped,respTestInstr.keys,respTestInstr.rt,respTestInstr.duration,random_instruction.started,textRandomInstr.started,respRandomInstr.started,random_instruction.stopped,respRandomInstr.keys,respRandomInstr.rt,respRandomInstr.duration,goodbye.started,textGoodbye.started,participant,session,expName,frameRate,Unnamed: 72
,,,,,,,,,,,,,,,,,0.0032572999989497,0.0068163999967509,0.0068163999967509,15.93416199999774,space,15.915357900004892,,,,,,,,,,,,,,,,,,,,,,,,,,,,,,,,,,,,,,,,,,,sub-080,1.0,random_dot,59.985483514185546,
right,right,,0.0,0.0,0.0,1.0,,,,,,,,,15.9493169999987,,,,,,,,,15.945092499998282,16.2991875000007,17.099587099997734,17.0830982999978,17.083126599995012,17.099587099997734,17.099587099997734,17.099587099997734,22.09857699999702,27.99922030000016,right,1.0,10.897160499996971,,28.000217499997238,28.01549779999914,28.51401110000006,,,,,,,,,,,,,,,,,,,,,,,,,sub-080,1.0,random_dot,59.985483514185546,
left,left,,0.0,1.0,1.0,0.0,,,,,,,,,28.530413000000408,,,,,,,,,28.514534099995217,28.61369269999705,29.41417139999976,29.39768529999856,29.39771219999966,29.41417139999976,29.41417139999976,29.41417139999976,,30.66500429999724,left,1.0,1.2345174000001862,,30.66568539999571,30.680273999998462,31.16404179999517,31.180164999997945,,,,,,,,,,,,,,,,,,,,,,,,sub-080,1.0,random_dot,59.985483514185546,
left,left,,1.0,0.0,2.0,0.0,,,,,,,,,31.180164999997945,,,,,,,,,31.16454579999845,31.530023999999685,32.330355099999,32.31399089999468,32.31401719999849,32.330355099999,32.330355099999,32.330355099999,37.32953979999729,38.11393959999987,right,0.0,5.770679599998402,,38.11460629999783,38.12919229999534,38.61304859999655,38.62881419999758,,,,,,,,,,,,,,,,,,,,,,,,sub-080,1.0,random_dot,59.985483514185546,
right,right,,1.0,1.0,3.0,1.0,,,,,,,,,38.62881419999758,,,,,,,,,38.61353689999669,39.8287388999961,40.6289711999998,40.61268069999642,40.612707899999805,40.6289711999998,40.6289711999998,40.6289711999998,,42.146687000000384,right,1.0,1.5031243999983417,,42.14735579999979,42.16169479999371,42.64594070000021,42.66148489999614,,,,,,,,,,,,,,,,,,,,,,,,sub-080,1.0,random_dot,59.985483514185546,
left,left,,2.0,0.0,4.0,0.0,,,,,,,,,42.66148489999614,,,,,,,,,42.64643849999993,43.861362600000575,44.66170129999955,44.645135399994615,44.64516200000071,44.66170129999955,44.66170129999955,44.66170129999955,,47.67909149999468,right,0.0,3.005397599998105,,47.67976279999857,47.69421879999573,48.17797309999878,48.19397339999705,,,,,,,,,,,,,,,,,,,,,,,,sub-080,1.0,random_dot,59.985483514185546,
right,right,,2.0,1.0,5.0,1.0,,,,,,,,,48.19397339999705,,,,,,,,,48.17846509999799,48.54399899999407,49.34415359999548,49.32778889999463,49.32781579999573,49.34415359999548,49.34415359999548,49.34415359999548,54.32662029999483,54.44400689999748,right,1.0,5.089633000003232,,54.44438579999405,54.45956450000085,54.94308099999762,54.95945379999466,,,,,,,,,,,,,,,,,,,,,,,,sub-080,1.0,random_dot,59.985483514185546,
left,left,,3.0,0.0,6.0,0.0,,,,,,,,,54.95945379999466,,,,,,,,,54.94336099999782,55.75945169999613,56.55962079999881,56.543222699998296,56.54324919999635,56.55962079999881,56.55962079999881,56.55962079999881,,57.52746629999456,left,1.0,0.9621485000025132,,57.52812939999421,57.542378799997095,58.02647050000087,58.042451499997696,,,,,,,,,,,,,,,,,,,,,,,,sub-080,1.0,random_dot,59.985483514185546,
right,right,,3.0,1.0,7.0,1.0,,,,,,,,,58.042451499997696,,,,,,,,,58.02696009999636,59.24232029999985,60.0423781999998,60.0261035999938,60.0261301999999,60.0423781999998,60.0423781999998,60.0423781999998,,61.49334850000014,right,1.0,1.4453768000021228,,61.49402359999658,61.50844499999948,61.99245579999842,62.00830699999642,,,,,,,,,,,,,,,,,,,,,,,,sub-080,1.0,random_dot,59.985483514185546,
left,left,,4.0,0.0,8.0,0.0,,,,,,,,,62.00830699999642,,,,,,,,,61.99295339999662,62.808368499994685,63.60875149999629,63.59217859999626,63.59220529999584,63.60875149999629,63.60875149999629,63.60875149999629,,64.55993569999555,left,1.0,0.9499087000003784,,64.56060089999664,64.57464639999671,65.05857169999945,65.0746094999995,,,,,,,,,,,,,,,,,,,,,,,,sub-080,1.0,random_dot,59.985483514185546,
right,right,,4.0,1.0,9.0,1.0,,,,,,,,,65.0746094999995,,,,,,,,,65.0590630000006,65.87443530000019,66.67472329999873,66.6583049999972,66.65833169999678,66.67472329999873,66.67472329999873,66.67472329999873,,68.09242509999603,right,1.0,1.415837200001988,,68.09309249999933,68.10746129999461,68.59140489999845,68.60739029999968,,,,,,,,,,,,,,,,,,,,,,,,sub-080,1.0,random_dot,59.985483514185546,
right,right,,5.0,0.0,10.0,1.0,,,,,,,,,68.60739029999968,,,,,,,,,68.59189589999733,69.40713239999604,70.20753599999443,70.19110329999967,70.19113039999502,70.20753599999443,70.20753599999443,70.20753599999443,,73.42490539999562,right,1.0,3.207544400000188,,73.42557639999723,73.43991229999665,73.92388049999863,73.93985419999808,,,,,,,,,,,,,,,,,,,,,,,,sub-080,1.0,random_dot,59.985483514185546,
left,left,,5.0,1.0,11.0,0.0,,,,,,,,,73.93985419999808,,,,,,,,,73.92436919999454,75.13957239999581,75.9399265999964,75.92360389999521,75.92363009999826,75.9399265999964,75.9399265999964,75.9399265999964,,76.82429309999861,left,1.0,0.8677743000007467,,76.82495989999734,76.83938009999838,77.32326159999502,77.3392778999987,,,,,,,,,,,,,,,,,,,,,,,,sub-080,1.0,random_dot,59.985483514185546,
left,left,,6.0,0.0,12.0,0.0,,,,,,,,,77.3392778999987,,,,,,,,,77.3237375999961,77.68922409999504,78.48958219999622,78.47325869999622,78.47328669999843,78.48958219999622,78.48958219999622,78.48958219999622,,79.72399880000012,left,1.0,1.2257107999976142,,79.7246684999991,79.7390349999987,80.22286650000024,80.23879089999537,,,,,,,,,,,,,,,,,,,,,,,,sub-080,1.0,random_dot,59.985483514185546,
right,right,,6.0,1.0,13.0,1.0,,,,,,,,,80.23879089999537,,,,,,,,,80.22335639999801,81.43863919999421,82.23882239999512,82.2226026999997,82.2226284999997,82.23882239999512,82.23882239999512,82.23882239999512,,82.92330070000025,right,1.0,0.6768972999998368,,82.92398129999492,82.93844479999825,83.42234959999769,83.43838849999884,,,,,,,,,,,,,,,,,,,,,,,,sub-080,1.0,random_dot,59.985483514185546,
right,right,,7.0,0.0,14.0,1.0,,,,,,,,,83.43838849999884,,,,,,,,,83.42284129999462,83.53841370000009,84.33859020000091,84.3218654999946,84.32188479999604,84.33859020000091,84.33859020000091,84.33859020000091,,85.52321989999473,left,0.0,1.1833580000020447,,85.52388349999819,85.53793659999792,86.02191329999914,86.03777119999722,,,,,,,,,,,,,,,,,,,,,,,,sub-080,1.0,random_dot,59.985483514185546,
left,left,,7.0,1.0,15.0,0.0,,,,,,,,,86.03777119999722,,,,,,,,,86.0224104999943,86.38788509999722,87.18827059999603,87.17178779999813,87.17181459999847,87.18827059999603,87.18827059999603,87.18827059999603,,88.17236059999414,left,1.0,0.9669072999968192,,88.17302979999658,88.18779229999927,88.67145270000037,88.68731879999541,,,,,,,,,,,,,,,,,,,,,,,,sub-080,1.0,random_dot,59.985483514185546,
left,left,,8.0,0.0,16.0,0.0,,,,,,,,,88.68731879999541,,,,,,,,,88.67194749999908,89.03738850000082,89.83790449999651,89.82117540000036,89.82120209999994,89.83790449999651,89.83790449999651,89.83790449999651,,91.1221149999983,right,0.0,1.2760640999986208,,91.1227804999944,91.13700439999955,91.62112839999465,91.63695229999576,,,,,,,,,,,,,,,,,,,,,,,,sub-080,1.0,random_dot,59.985483514185546,
right,right,,8.0,1.0,17.0,1.0,,,,,,,,,91.63695229999576,,,,,,,,,91.62163339999825,92.83677909999824,93.63703859999804,93.62059030000091,93.62061719999474,93.63703859999804,93.63703859999804,93.63703859999804,,94.67143439999928,right,1.0,1.0254841999994824,,94.67209000000004,94.68653619999532,95.1705282999974,95.18643669999436,,,,,,,,,,,,,,,,,,,,,,,,sub-080,1.0,random_dot,59.985483514185546,
right,right,,9.0,0.0,18.0,1.0,,,,,,,,,95.18643669999436,,,,,,,,,95.17103339999449,95.28649310000036,96.08650239999406,96.07024299999466,96.0702702999988,96.08650239999406,96.08650239999406,96.08650239999406,,100.98689509999532,left,0.0,4.886930400003621,,100.98755990000063,101.00211789999594,101.48596719999478,101.50205809999898,,,,,,,,,,,,,,,,,,,,,,,,sub-080,1.0,random_dot,59.985483514185546,
left,left,,9.0,1.0,19.0,0.0,,,,,,,,,101.50205809999898,,,,,,,,,101.48646759999974,102.70191469999554,103.50229959999706,103.48603239999647,103.48605939999834,103.50229959999706,103.50229959999706,103.50229959999706,,104.33658209999705,left,1.0,0.8190915000013774,,104.3372534999944,104.3514498999939,104.8354518999986,104.85155929999746,,,,,,,,,,,,,,,,,,,,,,,,sub-080,1.0,random_dot,59.985483514185546,
,,,,,,,,,,,,,,,,,,,,,,,,,,,,,,,,,,,,,,,,,,104.83553530000064,104.85155929999746,104.85155929999746,108.06907739999588,space,3.21604930000467,,,,,,,,,,,,,,,,,,sub-080,1.0,random_dot,59.985483514185546,
,,,,,,,,,,,,,,,,,,,,,,,,,,,,,,,,,,,,,,,,,,,,,,,,,108.0691261999964,108.08446019999974,108.08446019999974,114.80133479999496,space,6.707704299995385,,,,,,,,,,,sub-080,1.0,random_dot,59.985483514185546,
left,left,speed,,,,,0.0,0.0,0.0,1.0,0.0,0.0,0.0,0.0,116.73307029999704,,,,,,,,,116.7265269999989,117.5326350999967,118.33311729999696,118.3167717999968,118.31680079999931,118.33311729999696,118.33311729999696,118.33311729999696,123.3323223999978,124.2163922999971,right,0.0,5.875337899997248,,,,,,,,,,,,,,,,,,,,114.8068534999984,114.83479190000072,114.83479190000072,116.7175799999968,space,1.877482899995812,,,,sub-080,1.0,random_dot,59.985483514185546,
right,right,speed,,,,,0.0,0.0,0.0,1.0,0.0,1.0,1.0,1.0,124.2316234999962,,,,,,,,,124.21731429999636,124.33159149999848,125.13192770000023,125.11551869999676,125.11554529999556,125.13192770000023,125.13192770000023,125.13192770000023,,125.96631089999572,right,1.0,0.8221687999975984,,,,,,,,,,,,,,,,,,,,,,,,,,,,,sub-080,1.0,random_dot,59.985483514185546,
left,left,speed,,,,,0.0,0.0,0.0,1.0,1.0,0.0,2.0,0.0,125.98140339999372,,,,,,,,,125.96762849999504,126.08142779999616,126.88199489999532,126.86524129999452,126.8652682999964,126.88199489999532,126.88199489999532,126.88199489999532,,127.83270079999784,left,1.0,0.9351370000003952,,,,,,,,,,,,,,,,,,,,,,,,,,,,,sub-080,1.0,random_dot,59.985483514185546,
right,right,speed,,,,,0.0,0.0,0.0,1.0,1.0,1.0,3.0,1.0,127.84775159999845,,,,,,,,,127.83399999999529,128.64751499999693,129.44792790000065,129.43145519999962,129.43148239999573,129.44792790000065,129.44792790000065,129.44792790000065,,130.19898239999748,right,1.0,0.7454416000036872,,,,,,,,,,,,,,,,,,,,,,,,,,,,,sub-080,1.0,random_dot,59.985483514185546,
right,right,speed,,,,,0.0,0.0,0.0,1.0,2.0,0.0,4.0,1.0,130.21409069999936,,,,,,,,,130.20027479999408,131.41399929999898,132.2140242999958,132.19775829999708,132.19778469999437,132.2140242999958,132.2140242999958,132.2140242999958,,133.73158970000077,right,1.0,1.5085055000017746,,,,,,,,,,,,,,,,,,,,,,,,,,,,,sub-080,1.0,random_dot,59.985483514185546,
left,left,speed,,,,,0.0,0.0,0.0,1.0,2.0,1.0,5.0,0.0,133.74666719999368,,,,,,,,,133.73289769999974,134.09671919999528,134.8970085999972,134.8806425999937,134.88066879999678,134.8970085999972,134.8970085999972,134.8970085999972,,135.84808849999536,left,1.0,0.9399922000011428,,,,,,,,,,,,,,,,,,,,,,,,,,,,,sub-080,1.0,random_dot,59.985483514185546,
right,right,speed,,,,,0.0,0.0,0.0,1.0,3.0,0.0,6.0,1.0,135.86312109999562,,,,,,,,,135.8493868000005,137.06280709999555,137.8630892000001,137.84680169999774,137.84682939999766,137.8630892000001,137.8630892000001,137.8630892000001,,139.5141266999999,right,1.0,1.6424961000011535,,,,,,,,,,,,,,,,,,,,,,,,,,,,,sub-080,1.0,random_dot,59.985483514185546,
left,left,speed,,,,,0.0,0.0,0.0,1.0,3.0,1.0,7.0,0.0,139.52928679999604,,,,,,,,,139.51540810000006,140.72889790000045,141.52943099999538,141.51295099999697,141.51297799999884,141.52943099999538,141.52943099999538,141.52943099999538,,143.71354699999938,left,1.0,2.174241199994867,,,,,,,,,,,,,,,,,,,,,,,,,,,,,sub-080,1.0,random_dot,59.985483514185546,
right,right,speed,,,,,0.0,0.0,0.0,1.0,4.0,0.0,8.0,1.0,143.72850079999623,,,,,,,,,143.71484439999767,144.07831659999647,144.87875099999656,144.86238559999765,144.86241219999647,144.87875099999656,144.87875099999656,144.87875099999656,,146.26312150000012,right,1.0,1.3799714000051608,,,,,,,,,,,,,,,,,,,,,,,,,,,,,sub-080,1.0,random_dot,59.985483514185546,
left,left,speed,,,,,0.0,0.0,0.0,1.0,4.0,1.0,9.0,0.0,146.27798099999927,,,,,,,,,146.2644780999981,147.47804289999476,148.27817900000082,148.26164759999665,148.26167419999547,148.27817900000082,148.27817900000082,148.27817900000082,,149.82926819999557,left,1.0,1.5463893999985885,,,,,,,,,,,,,,,,,,,,,,,,,,,,,sub-080,1.0,random_dot,59.985483514185546,
right,right,speed,,,,,0.0,0.0,0.0,1.0,5.0,0.0,10.0,1.0,149.84418949999963,,,,,,,,,149.8305981999947,151.0439516999977,151.84416999999667,151.82786019999912,151.8278871999937,151.84416999999667,151.84416999999667,151.84416999999667,,152.5618125999972,right,1.0,0.7160192000010284,,,,,,,,,,,,,,,,,,,,,,,,,,,,,sub-080,1.0,random_dot,59.985483514185546,
left,left,speed,,,,,0.0,0.0,0.0,1.0,5.0,1.0,11.0,0.0,152.57695909999893,,,,,,,,,152.56302429999778,152.92701059999672,153.72731439999916,153.71077559999685,153.71080219999567,153.72731439999916,153.72731439999916,153.72731439999916,,156.06131629999436,right,0.0,2.320094299997436,,,,,,,,,,,,,,,,,,,,,,,,,,,,,sub-080,1.0,random_dot,59.985483514185546,
left,left,speed,,,,,0.0,0.0,0.0,1.0,6.0,0.0,12.0,0.0,156.07651919999626,,,,,,,,,156.06261529999756,156.87647260000085,157.67666979999922,157.6601503999991,157.6601770999987,157.67666979999922,157.67666979999922,157.67666979999922,,160.17777039999785,left,1.0,2.49988250000024,,,,,,,,,,,,,,,,,,,,,,,,,,,,,sub-080,1.0,random_dot,59.985483514185546,
right,right,speed,,,,,0.0,0.0,0.0,1.0,6.0,1.0,13.0,1.0,160.19248669999797,,,,,,,,,160.17907739999646,161.39218219999748,162.19260599999689,162.17647869999928,162.1765052999981,162.19260599999689,162.19260599999689,162.19260599999689,,162.94384709999576,right,1.0,0.7493038000029628,,,,,,,,,,,,,,,,,,,,,,,,,,,,,sub-080,1.0,random_dot,59.985483514185546,
right,right,speed,,,,,0.0,0.0,0.0,1.0,7.0,0.0,14.0,1.0,162.95867010000077,,,,,,,,,162.9451912000004,163.05869909999456,163.85892929999682,163.84256469999673,163.8425916999986,163.85892929999682,163.85892929999682,163.85892929999682,,166.72651529999712,right,1.0,2.865237600002729,,,,,,,,,,,,,,,,,,,,,,,,,,,,,sub-080,1.0,random_dot,59.985483514185546,
left,left,speed,,,,,0.0,0.0,0.0,1.0,7.0,1.0,15.0,0.0,166.74154749999434,,,,,,,,,166.72782059999736,167.09136049999506,167.8916723000002,167.875266199997,167.87529359999462,167.8916723000002,167.8916723000002,167.8916723000002,,171.69216849999793,left,1.0,3.7902397999932873,,,,,,,,,,,,,,,,,,,,,,,,,,,,,sub-080,1.0,random_dot,59.985483514185546,
right,right,speed,,,,,0.0,0.0,0.0,1.0,8.0,0.0,16.0,1.0,171.70716819999507,,,,,,,,,171.6934914999947,172.50718249999773,173.30745249999745,173.2910358999943,173.29106279999542,173.30745249999745,173.30745249999745,173.30745249999745,,174.07507020000048,right,1.0,0.7643774000025587,,,,,,,,,,,,,,,,,,,,,,,,,,,,,sub-080,1.0,random_dot,59.985483514185546,
left,left,speed,,,,,0.0,0.0,0.0,1.0,8.0,1.0,17.0,0.0,174.09027259999857,,,,,,,,,174.07636739999725,175.29004580000037,176.09033210000052,176.07380199999898,176.0738285999978,176.09033210000052,176.09033210000052,176.09033210000052,,176.99121249999737,left,1.0,0.8996020999984466,,,,,,,,,,,,,,,,,,,,,,,,,,,,,sub-080,1.0,random_dot,59.985483514185546,
right,right,speed,,,,,0.0,0.0,0.0,1.0,9.0,0.0,18.0,1.0,177.0064201999994,,,,,,,,,176.9924219999957,178.2062805999958,179.00661019999825,178.99008329999924,178.9901097999973,179.00661019999825,179.00661019999825,179.00661019999825,,179.85742339999706,right,1.0,0.8434312000026694,,,,,,,,,,,,,,,,,,,,,,,,,,,,,sub-080,1.0,random_dot,59.985483514185546,
left,left,speed,,,,,0.0,0.0,0.0,1.0,9.0,1.0,19.0,0.0,179.87262779999585,,,,,,,,,179.8587355999989,180.22247299999435,181.0228893999956,181.0064505999981,181.0064777000007,181.0228893999956,181.0228893999956,181.0228893999956,,181.92391329999373,left,1.0,0.8914390999998432,,,,,,,,,,,,,,,,,,,,,,,,,,,,,sub-080,1.0,random_dot,59.985483514185546,
right,right,speed,,,,,0.0,0.0,0.0,1.0,10.0,0.0,20.0,1.0,181.9389863999968,,,,,,,,,181.9252520000009,182.73890749999555,183.5393380999958,183.5227391000008,183.52276609999532,183.5393380999958,183.5393380999958,183.5393380999958,,184.2068109999964,right,1.0,0.657955700000457,,,,,,,,,,,,,,,,,,,,,,,,,,,,,sub-080,1.0,random_dot,59.985483514185546,
left,left,speed,,,,,0.0,0.0,0.0,1.0,10.0,1.0,21.0,0.0,184.2218132999988,,,,,,,,,184.2081208999953,184.57175709999865,185.37202109999637,185.3556485999943,185.35567479999736,185.37202109999637,185.37202109999637,185.37202109999637,,186.12321939999677,left,1.0,0.7447410999957356,,,,,,,,,,,,,,,,,,,,,,,,,,,,,sub-080,1.0,random_dot,59.985483514185546,
right,right,speed,,,,,0.0,0.0,0.0,1.0,11.0,0.0,22.0,1.0,186.1381971999945,,,,,,,,,186.12453439999808,187.3382156000007,188.13827689999744,188.12197439999727,188.12200139999916,188.13827689999744,188.13827689999744,188.13827689999744,,188.8895252999937,right,1.0,0.749381399997219,,,,,,,,,,,,,,,,,,,,,,,,,,,,,sub-080,1.0,random_dot,59.985483514185546,
left,left,speed,,,,,0.0,0.0,0.0,1.0,11.0,1.0,23.0,0.0,188.90436979999504,,,,,,,,,188.89082860000053,189.70425239999892,190.5046155999953,190.4881438999946,190.4881705999942,190.5046155999953,190.5046155999953,190.5046155999953,,191.2224208999978,left,1.0,0.714297099999385,,,,,,,,,,,,,,,,,,,,,,,,,,,,,sub-080,1.0,random_dot,59.985483514185546,
left,left,speed,,,,,0.0,0.0,0.0,1.0,12.0,0.0,24.0,0.0,191.237584399998,,,,,,,,,191.22375059999467,192.4373340999955,193.2375758999988,193.22113569999783,193.2211619999944,193.2375758999988,193.2375758999988,193.2375758999988,,194.0886404999983,right,0.0,0.8369158999994397,,,,,,,,,,,,,,,,,,,,,,,,,,,,,sub-080,1.0,random_dot,59.985483514185546,
right,right,speed,,,,,0.0,0.0,0.0,1.0,12.0,1.0,25.0,1.0,194.1036817999993,,,,,,,,,194.08995739999955,195.30362579999928,196.10393399999884,196.08722549999948,196.08725229999985,196.10393399999884,196.10393399999884,196.10393399999884,,196.97129049999785,left,0.0,0.8514524999991409,,,,,,,,,,,,,,,,,,,,,,,,,,,,,sub-080,1.0,random_dot,59.985483514185546,
left,left,speed,,,,,0.0,0.0,0.0,1.0,13.0,0.0,26.0,0.0,196.98652500000023,,,,,,,,,196.97259459999623,197.78629219999857,198.5866143999956,198.57018129999776,198.5702084999939,198.5866143999956,198.5866143999956,198.5866143999956,,201.03741589999845,left,1.0,2.4441271999967285,,,,,,,,,,,,,,,,,,,,,,,,,,,,,sub-080,1.0,random_dot,59.985483514185546,
right,right,speed,,,,,0.0,0.0,0.0,1.0,13.0,1.0,27.0,1.0,201.05240149999736,,,,,,,,,201.03871599999547,201.8522851999951,202.65286289999491,202.63618999999744,202.63621569999668,202.65286289999491,202.65286289999491,202.65286289999491,,203.30380859999423,right,1.0,0.6464142999975593,,,,,,,,,,,,,,,,,,,,,,,,,,,,,sub-080,1.0,random_dot,59.985483514185546,
left,left,speed,,,,,0.0,0.0,0.0,1.0,14.0,0.0,28.0,0.0,203.31895950000035,,,,,,,,,203.3051129999949,204.1185744999966,204.91886639999572,204.9025068999981,204.9025339,204.91886639999572,204.91886639999572,204.91886639999572,209.9180957999997,210.65256509999745,right,0.0,5.721761000000697,,,,,,,,,,,,,,,,,,,,,,,,,,,,,sub-080,1.0,random_dot,59.985483514185546,
right,right,speed,,,,,0.0,0.0,0.0,1.0,14.0,1.0,29.0,1.0,210.66769759999443,,,,,,,,,210.65385689999675,211.01753639999515,211.81776519999403,211.8014512999944,211.80147829999623,211.81776519999403,211.81776519999403,211.81776519999403,,212.53570039999613,right,1.0,0.716569399999571,,,,,,,,,,,,,,,,,,,,,,,,,,,,,sub-080,1.0,random_dot,59.985483514185546,
left,left,speed,,,,,0.0,0.0,0.0,1.0,15.0,0.0,30.0,0.0,212.5505143999981,,,,,,,,,212.53700019999812,212.65062299999408,213.450766199996,213.43452740000063,213.43455399999948,213.450766199996,213.450766199996,213.450766199996,,215.05195579999415,left,1.0,1.589178100002755,,,,,,,,,,,,,,,,,,,,,,,,,,,,,sub-080,1.0,random_dot,59.985483514185546,
right,right,speed,,,,,0.0,0.0,0.0,1.0,15.0,1.0,31.0,1.0,215.06688739999663,,,,,,,,,215.05330590000085,215.416999999994,216.21716529999685,216.200625999998,216.20065329999488,216.21716529999685,216.21716529999685,216.21716529999685,,217.08497999999963,right,1.0,0.8634881999969366,,,,,,,,,,,,,,,,,,,,,,,,,,,,,sub-080,1.0,random_dot,59.985483514185546,
left,left,speed,,,,,0.0,0.0,0.0,1.0,16.0,0.0,32.0,0.0,217.0999229999943,,,,,,,,,217.08628529999987,217.89983299999585,218.70000710000025,218.6837207999997,218.6837480999966,218.70000710000025,218.70000710000025,218.70000710000025,,220.13420580000093,left,1.0,1.4277453000031528,,,,,,,,,,,,,,,,,,,,,,,,,,,,,sub-080,1.0,random_dot,59.985483514185546,
right,right,speed,,,,,0.0,0.0,0.0,1.0,16.0,1.0,33.0,1.0,220.1494406999991,,,,,,,,,220.13550889999897,221.34913529999903,222.1495633999948,222.1331604999941,222.1331871999937,222.1495633999948,222.1495633999948,222.1495633999948,,222.7673288000005,right,1.0,0.6131063999928301,,,,,,,,,,,,,,,,,,,,,,,,,,,,,sub-080,1.0,random_dot,59.985483514185546,
right,right,speed,,,,,0.0,0.0,0.0,1.0,17.0,0.0,34.0,1.0,222.782415499998,,,,,,,,,222.7686242999989,223.13227149999875,223.93243860000075,223.9160161999971,223.9160425000009,223.93243860000075,223.93243860000075,223.93243860000075,,224.8167218999952,right,1.0,0.877931200004241,,,,,,,,,,,,,,,,,,,,,,,,,,,,,sub-080,1.0,random_dot,59.985483514185546,
left,left,speed,,,,,0.0,0.0,0.0,1.0,17.0,1.0,35.0,0.0,224.83201479999843,,,,,,,,,224.8180407999971,224.9318610999981,225.73220859999856,225.71590819999983,225.71593479999865,225.73220859999856,225.73220859999856,225.73220859999856,,226.6500928999958,left,1.0,0.9050066000054358,,,,,,,,,,,,,,,,,,,,,,,,,,,,,sub-080,1.0,random_dot,59.985483514185546,
left,left,speed,,,,,0.0,0.0,0.0,1.0,18.0,0.0,36.0,0.0,226.66500860000087,,,,,,,,,226.65140839999367,227.46494049999453,228.26519329999428,228.2488314000002,228.24885799999905,228.26519329999428,228.26519329999428,228.26519329999428,,230.69930549999845,right,0.0,2.428635900003428,,,,,,,,,,,,,,,,,,,,,,,,,,,,,sub-080,1.0,random_dot,59.985483514185546,
right,right,speed,,,,,0.0,0.0,0.0,1.0,18.0,1.0,37.0,1.0,230.714438899995,,,,,,,,,230.7006029999975,230.81450849999965,231.61456709999769,231.59820139999647,231.5982284999991,231.61456709999769,231.61456709999769,231.61456709999769,,232.8490318999975,right,1.0,1.2328163999991375,,,,,,,,,,,,,,,,,,,,,,,,,,,,,sub-080,1.0,random_dot,59.985483514185546,
right,right,speed,,,,,0.0,0.0,0.0,1.0,19.0,0.0,38.0,1.0,232.86399549999624,,,,,,,,,232.8503529999944,233.6639728000009,234.46416889999816,234.4478471999973,234.4478741999992,234.46416889999816,234.46416889999816,234.46416889999816,,235.81502499999624,right,1.0,1.3453987999964738,,,,,,,,,,,,,,,,,,,,,,,,,,,,,sub-080,1.0,random_dot,59.985483514185546,
left,left,speed,,,,,0.0,0.0,0.0,1.0,19.0,1.0,39.0,0.0,235.83023279999907,,,,,,,,,235.81633119999609,236.63009519999468,237.43037969999568,237.41401209999455,237.41403879999416,237.43037969999568,237.43037969999568,237.43037969999568,,238.41468460000036,left,1.0,0.9797761000008904,,,,,,,,,,,,,,,,,,,,,,,,,,,,,sub-080,1.0,random_dot,59.985483514185546,
left,left,speed,,,,,0.0,0.0,0.0,1.0,20.0,0.0,40.0,0.0,238.4298509,,,,,,,,,238.41598669999803,238.77986269999383,239.580046199997,239.5636395999973,239.56372149999515,239.580046199997,239.580046199997,239.580046199997,,241.76431319999392,left,1.0,2.1740105999997468,,,,,,,,,,,,,,,,,,,,,,,,,,,,,sub-080,1.0,random_dot,59.985483514185546,
right,right,speed,,,,,0.0,0.0,0.0,1.0,20.0,1.0,41.0,1.0,241.7791586999956,,,,,,,,,241.76560739999692,242.97903199999564,243.7793391999949,243.76296439999717,243.76299189999557,243.7793391999949,243.7793391999949,243.7793391999949,,244.4484280999968,right,1.0,0.6592365999968024,,,,,,,,,,,,,,,,,,,,,,,,,,,,,sub-080,1.0,random_dot,59.985483514185546,
left,left,speed,,,,,0.0,0.0,0.0,1.0,21.0,0.0,42.0,0.0,244.46213809999608,,,,,,,,,244.4497229999979,245.2620198000004,246.06233059999795,246.04593719999684,246.04596409999797,246.06233059999795,246.06233059999795,246.06233059999795,,247.3801983999947,left,1.0,1.3126611999978195,,,,,,,,,,,,,,,,,,,,,,,,,,,,,sub-080,1.0,random_dot,59.985483514185546,
right,right,speed,,,,,0.0,0.0,0.0,1.0,21.0,1.0,43.0,1.0,247.3950330000007,,,,,,,,,247.38149399999384,247.49502719999876,248.29528589999973,248.27891399999496,248.2789405999938,248.29528589999973,248.29528589999973,248.29528589999973,,248.9630810999952,right,1.0,0.6627621000006911,,,,,,,,,,,,,,,,,,,,,,,,,,,,,sub-080,1.0,random_dot,59.985483514185546,
left,left,speed,,,,,0.0,0.0,0.0,1.0,22.0,0.0,44.0,0.0,248.9779435999953,,,,,,,,,248.96437989999689,249.77800419999403,250.5783229000008,250.56175779999467,250.56178419999924,250.5783229000008,250.5783229000008,250.5783229000008,,251.71274609999816,left,1.0,1.1266681999986758,,,,,,,,,,,,,,,,,,,,,,,,,,,,,sub-080,1.0,random_dot,59.985483514185546,
right,right,speed,,,,,0.0,0.0,0.0,1.0,22.0,1.0,45.0,1.0,251.7275967999958,,,,,,,,,251.7140918000005,252.9275307999997,253.7276499,253.7113613999973,253.71138860000065,253.7276499,253.7276499,253.7276499,,254.3788726999992,right,1.0,0.6379528999968898,,,,,,,,,,,,,,,,,,,,,,,,,,,,,sub-080,1.0,random_dot,59.985483514185546,
left,left,speed,,,,,0.0,0.0,0.0,1.0,23.0,0.0,46.0,0.0,254.39373449999405,,,,,,,,,254.3801622999963,254.7439030999958,255.5441433999949,255.5278524999958,255.52787859999808,255.5441433999949,255.5441433999949,255.5441433999949,,256.4283256999988,right,0.0,0.8707424000022002,,,,,,,,,,,,,,,,,,,,,,,,,,,,,sub-080,1.0,random_dot,59.985483514185546,
right,right,speed,,,,,0.0,0.0,0.0,1.0,23.0,1.0,47.0,1.0,256.4435483999987,,,,,,,,,256.42961799999466,256.543551499999,257.3438438999947,257.3273619999964,257.3273887999967,257.3438438999947,257.3438438999947,257.3438438999947,,258.8779901999951,right,1.0,1.5216252000027453,,,,,,,,,,,,,,,,,,,,,,,,,,,,,sub-080,1.0,random_dot,59.985483514185546,
right,right,speed,,,,,0.0,0.0,0.0,1.0,24.0,0.0,48.0,1.0,258.8932041999942,,,,,,,,,258.8792933999939,259.24312559999817,260.04337719999603,260.0269648999965,260.0269913999946,260.04337719999603,260.04337719999603,260.04337719999603,,260.9445645999949,right,1.0,0.897028200000932,,,,,,,,,,,,,,,,,,,,,,,,,,,,,sub-080,1.0,random_dot,59.985483514185546,
left,left,speed,,,,,0.0,0.0,0.0,1.0,24.0,1.0,49.0,0.0,260.9594639999996,,,,,,,,,260.9458773000006,261.3094366000005,262.10976089999895,262.09335859999555,262.0933862999955,262.10976089999895,262.10976089999895,262.10976089999895,,262.8941696999973,left,1.0,0.7770807999986573,,,,,,,,,,,,,,,,,,,,,,,,,,,,,sub-080,1.0,random_dot,59.985483514185546,
right,right,speed,,,,,0.0,0.0,0.0,1.0,25.0,0.0,50.0,1.0,262.909201399998,,,,,,,,,262.8954739999972,263.0092450999946,263.80949499999406,263.7929814999952,263.7930081999948,263.80949499999406,263.80949499999406,263.80949499999406,,264.3437989999948,right,1.0,0.5247602999952505,,,,,,,,,,,,,,,,,,,,,,,,,,,,,sub-080,1.0,random_dot,59.985483514185546,
left,left,speed,,,,,0.0,0.0,0.0,1.0,25.0,1.0,51.0,0.0,264.3589120999968,,,,,,,,,264.3451031999939,265.15872300000046,265.9591178999981,265.9426395999981,265.94266609999613,265.9591178999981,265.9591178999981,265.9591178999981,,267.01005549999536,left,1.0,1.034888900001533,,,,,,,,,,,,,,,,,,,,,,,,,,,,,sub-080,1.0,random_dot,59.985483514185546,
right,right,speed,,,,,0.0,0.0,0.0,1.0,26.0,0.0,52.0,1.0,267.0252518999987,,,,,,,,,267.0113577999946,267.37511749999976,268.1753600999946,268.1589326999965,268.1589596999984,268.1753600999946,268.1753600999946,268.1753600999946,,268.7597072999997,right,1.0,0.5698044999953709,,,,,,,,,,,,,,,,,,,,,,,,,,,,,sub-080,1.0,random_dot,59.985483514185546,
left,left,speed,,,,,0.0,0.0,0.0,1.0,26.0,1.0,53.0,0.0,268.77472669999406,,,,,,,,,268.7610077999998,269.5748425999991,270.37497269999585,270.3587167000005,270.3587427999955,270.37497269999585,270.37497269999585,270.37497269999585,,270.8763187999939,right,0.0,0.4999915000007604,,,,,,,,,,,,,,,,,,,,,,,,,,,,,sub-080,1.0,random_dot,59.985483514185546,
right,right,speed,,,,,0.0,0.0,0.0,1.0,27.0,0.0,54.0,1.0,270.89129839999805,,,,,,,,,270.87763730000006,271.6910467999988,272.4918177,272.4749750999981,272.47500169999694,272.4918177,272.4918177,272.4918177,,273.4591689000008,right,1.0,0.960228099997039,,,,,,,,,,,,,,,,,,,,,,,,,,,,,sub-080,1.0,random_dot,59.985483514185546,
left,left,speed,,,,,0.0,0.0,0.0,1.0,27.0,1.0,55.0,0.0,273.47407589999784,,,,,,,,,273.4604748999991,274.67388469999423,275.47419079999963,275.45775349999894,275.457779999997,275.47419079999963,275.47419079999963,275.47419079999963,,276.8083528999996,left,1.0,1.31785200000013,,,,,,,,,,,,,,,,,,,,,,,,,,,,,sub-080,1.0,random_dot,59.985483514185546,
right,right,speed,,,,,0.0,0.0,0.0,1.0,28.0,0.0,56.0,1.0,276.82359259999794,,,,,,,,,276.80965759999526,278.0234268999993,278.8237841000009,278.80727189999743,278.807298599997,278.8237841000009,278.8237841000009,278.8237841000009,,279.5578330999997,right,1.0,0.7207614999933867,,,,,,,,,,,,,,,,,,,,,,,,,,,,,sub-080,1.0,random_dot,59.985483514185546,
left,left,speed,,,,,0.0,0.0,0.0,1.0,28.0,1.0,57.0,0.0,279.57313379999687,,,,,,,,,279.5591314999984,280.37286389999645,281.17328959999577,281.1567547999948,281.1567814000009,281.17328959999577,281.17328959999577,281.17328959999577,,281.9077053000001,left,1.0,0.7216575999991619,,,,,,,,,,,,,,,,,,,,,,,,,,,,,sub-080,1.0,random_dot,59.985483514185546,
right,right,speed,,,,,0.0,0.0,0.0,1.0,29.0,0.0,58.0,1.0,281.9226548999941,,,,,,,,,281.909044299995,282.2727363999948,283.07294600000023,283.05662350000057,283.0566510999997,283.07294600000023,283.07294600000023,283.07294600000023,,283.67423589999817,right,1.0,0.5960087999992538,,,,,,,,,,,,,,,,,,,,,,,,,,,,,sub-080,1.0,random_dot,59.985483514185546,
left,left,speed,,,,,0.0,0.0,0.0,1.0,29.0,1.0,59.0,0.0,283.68912049999926,,,,,,,,,283.67554019999807,283.7890272000004,284.5893905999983,284.572903399996,284.5729302999971,284.5893905999983,284.5893905999983,284.5893905999983,,285.5237402999992,left,1.0,0.9289509000009276,,,,,,,,,,,,,,,,,,,,,,,,,,,,,sub-080,1.0,random_dot,59.985483514185546,
,,speed,,,,,0.0,0.0,0.0,1.0,,,,,,,,,,,,,,,,,,,,,,,,,,,,,,,,,,,,,,,,,,,,,,,,,,,,,,,sub-080,1.0,random_dot,59.985483514185546,
left,left,accuracy,,,,,0.0,1.0,1.0,0.0,0.0,0.0,0.0,0.0,290.2047278999962,,,,,,,,,290.1969654999993,290.3047011999952,291.10508399999526,291.0886679999967,291.08869729999424,291.10508399999526,291.10508399999526,291.10508399999526,,291.9061172000001,left,1.0,0.792209899998852,,,,,,,,,,,,,,,,,,,,285.5250021999964,285.5395911999949,285.5395911999949,290.18917409999995,space,4.635852399995201,,,,sub-080,1.0,random_dot,59.985483514185546,
right,right,accuracy,,,,,0.0,1.0,1.0,0.0,0.0,1.0,1.0,1.0,291.9210834999976,,,,,,,,,291.90782469999976,292.0209753999952,292.82152259999566,292.8049753999949,292.8050021999952,292.82152259999566,292.82152259999566,292.82152259999566,,293.3890750999999,right,1.0,0.5589954999959446,,,,,,,,,,,,,,,,,,,,,,,,,,,,,sub-080,1.0,random_dot,59.985483514185546,
left,left,accuracy,,,,,0.0,1.0,1.0,0.0,1.0,0.0,2.0,0.0,293.4042378999948,,,,,,,,,293.39040119999845,294.20414699999674,295.0044678999984,294.9880594999995,294.9880864999941,295.0044678999984,295.0044678999984,295.0044678999984,,296.1718460999982,left,1.0,1.155936600000132,,,,,,,,,,,,,,,,,,,,,,,,,,,,,sub-080,1.0,random_dot,59.985483514185546,
right,right,accuracy,,,,,0.0,1.0,1.0,0.0,1.0,1.0,3.0,1.0,296.18705419999606,,,,,,,,,296.1731507000004,297.3867683999997,298.1872860999938,298.17071649999707,298.17074460000003,298.1872860999938,298.1872860999938,298.1872860999938,,299.3382016999967,right,1.0,1.138179699999455,,,,,,,,,,,,,,,,,,,,,,,,,,,,,sub-080,1.0,random_dot,59.985483514185546,
right,right,accuracy,,,,,0.0,1.0,1.0,0.0,2.0,0.0,4.0,1.0,299.3532631999988,,,,,,,,,299.33950339999865,299.7031857999973,300.5033412999983,300.4869644999999,300.48699099999794,300.5033412999983,300.5033412999983,300.5033412999983,,301.5878123999937,right,1.0,1.0815866999982973,,,,,,,,,,,,,,,,,,,,,,,,,,,,,sub-080,1.0,random_dot,59.985483514185546,
left,left,accuracy,,,,,0.0,1.0,1.0,0.0,2.0,1.0,5.0,0.0,301.60281530000066,,,,,,,,,301.58912069999496,301.9528618999975,302.7531932999991,302.7367490999968,302.73677619999944,302.7531932999991,302.7531932999991,302.7531932999991,,304.70402539999486,left,1.0,1.934289799995895,,,,,,,,,,,,,,,,,,,,,,,,,,,,,sub-080,1.0,random_dot,59.985483514185546,
right,right,accuracy,,,,,0.0,1.0,1.0,0.0,3.0,0.0,6.0,1.0,304.7190521999946,,,,,,,,,304.7053244999988,304.8188951999982,305.61922760000016,305.602833799996,305.6028609999994,305.61922760000016,305.61922760000016,305.61922760000016,,306.22031889999926,right,1.0,0.5877483000003849,,,,,,,,,,,,,,,,,,,,,,,,,,,,,sub-080,1.0,random_dot,59.985483514185546,
left,left,accuracy,,,,,0.0,1.0,1.0,0.0,3.0,1.0,7.0,0.0,306.2355341000002,,,,,,,,,306.22162489999755,306.3353414999947,307.13578699999925,307.11938050000026,307.1194075999956,307.13578699999925,307.13578699999925,307.13578699999925,,309.16991119999875,right,0.0,2.022153199999593,,,,,,,,,,,,,,,,,,,,,,,,,,,,,sub-080,1.0,random_dot,59.985483514185546,
right,right,accuracy,,,,,0.0,1.0,1.0,0.0,4.0,0.0,8.0,1.0,309.18485549999605,,,,,,,,,309.1712101999947,309.2849334999992,310.0852661999961,310.0687160999951,310.0687422999981,310.0852661999961,310.0852661999961,310.0852661999961,,310.88628219999373,right,1.0,0.7964484999974957,,,,,,,,,,,,,,,,,,,,,,,,,,,,,sub-080,1.0,random_dot,59.985483514185546,
left,left,accuracy,,,,,0.0,1.0,1.0,0.0,4.0,1.0,9.0,0.0,310.90142729999934,,,,,,,,,310.8875659999976,311.7016239000004,312.50222740000027,312.48623369999405,312.4862942999971,312.50222740000027,312.50222740000027,312.50222740000027,,313.6710399000003,left,1.0,1.1526550999988103,,,,,,,,,,,,,,,,,,,,,,,,,,,,,sub-080,1.0,random_dot,59.985483514185546,
right,right,accuracy,,,,,0.0,1.0,1.0,0.0,5.0,0.0,10.0,1.0,313.68482629999926,,,,,,,,,313.67403089999425,314.4847445999985,315.2895434999955,315.2754073999968,315.2754786000005,315.2895434999955,315.2895434999955,315.2895434999955,,316.00774799999635,right,1.0,0.7121952999950736,,,,,,,,,,,,,,,,,,,,,,,,,,,,,sub-080,1.0,random_dot,59.985483514185546,
left,left,accuracy,,,,,0.0,1.0,1.0,0.0,5.0,1.0,11.0,0.0,316.0219627999977,,,,,,,,,316.0107330999963,316.122775799995,316.9231182999938,316.90718679999554,316.90724619999673,316.9231182999938,316.9231182999938,316.9231182999938,,318.7871933999995,left,1.0,1.849072500001057,,,,,,,,,,,,,,,,,,,,,,,,,,,,,sub-080,1.0,random_dot,59.985483514185546,
left,left,accuracy,,,,,0.0,1.0,1.0,0.0,6.0,0.0,12.0,0.0,318.8004679000005,,,,,,,,,318.79016859999683,319.1508524999954,319.95117429999664,319.9354267999952,319.9354966999963,319.95117429999664,319.95117429999664,319.95117429999664,,320.9366568999976,left,1.0,0.9701686999978848,,,,,,,,,,,,,,,,,,,,,,,,,,,,,sub-080,1.0,random_dot,59.985483514185546,
right,right,accuracy,,,,,0.0,1.0,1.0,0.0,6.0,1.0,13.0,1.0,320.9501747999966,,,,,,,,,320.9397179000007,321.0502950000009,321.8509262000007,321.8353100999957,321.8353902999952,321.8509262000007,321.8509262000007,321.8509262000007,,322.4535113999955,right,1.0,0.5975411999970675,,,,,,,,,,,,,,,,,,,,,,,,,,,,,sub-080,1.0,random_dot,59.985483514185546,
right,right,accuracy,,,,,0.0,1.0,1.0,0.0,7.0,0.0,14.0,1.0,322.4666931999964,,,,,,,,,322.4568975000002,323.6666144999981,324.4669139999969,324.4515437000009,324.4516469999944,324.4669139999969,324.4669139999969,324.4669139999969,,325.1699331999989,right,1.0,0.6982385000010254,,,,,,,,,,,,,,,,,,,,,,,,,,,,,sub-080,1.0,random_dot,59.985483514185546,
left,left,accuracy,,,,,0.0,1.0,1.0,0.0,7.0,1.0,15.0,0.0,325.18308550000074,,,,,,,,,325.17336019999493,325.5332066999981,326.33328329999495,326.31794129999616,326.3180107999942,326.33328329999495,326.33328329999495,326.33328329999495,,327.13625959999627,left,1.0,0.7859674999999697,,,,,,,,,,,,,,,,,,,,,,,,,,,,,sub-080,1.0,random_dot,59.985483514185546,
left,left,accuracy,,,,,0.0,1.0,1.0,0.0,8.0,0.0,16.0,0.0,327.1495421,,,,,,,,,327.13968580000073,328.3492502999943,329.1495897999994,329.1341478999966,329.1342205999972,329.1495897999994,329.1495897999994,329.1495897999994,,329.7693871999945,right,0.0,0.6158699000006891,,,,,,,,,,,,,,,,,,,,,,,,,,,,,sub-080,1.0,random_dot,59.985483514185546,
right,right,accuracy,,,,,0.0,1.0,1.0,0.0,8.0,1.0,17.0,1.0,329.78221889999986,,,,,,,,,329.772676099994,330.58236359999864,331.38241389999894,331.3673662000001,331.3674348999993,331.38241389999894,331.38241389999894,331.38241389999894,,331.95160329999635,right,1.0,0.5603667000032146,,,,,,,,,,,,,,,,,,,,,,,,,,,,,sub-080,1.0,random_dot,59.985483514185546,
right,right,accuracy,,,,,0.0,1.0,1.0,0.0,9.0,0.0,18.0,1.0,331.965343799995,,,,,,,,,331.95474280000053,332.3150991000002,333.1154106999966,333.10017709999374,333.10025719999976,333.1154106999966,333.1154106999966,333.1154106999966,,333.86859689999983,left,0.0,0.7382696999993641,,,,,,,,,,,,,,,,,,,,,,,,,,,,,sub-080,1.0,random_dot,59.985483514185546,
left,left,accuracy,,,,,0.0,1.0,1.0,0.0,9.0,1.0,19.0,0.0,333.88148869999713,,,,,,,,,333.87185789999785,334.68148949999886,335.481801899994,335.4666691999955,335.46674159999384,335.481801899994,335.481801899994,335.481801899994,,336.28449649999675,right,0.0,0.7856231999976444,,,,,,,,,,,,,,,,,,,,,,,,,,,,,sub-080,1.0,random_dot,59.985483514185546,
right,right,accuracy,,,,,0.0,1.0,1.0,0.0,10.0,0.0,20.0,1.0,336.297475899999,,,,,,,,,336.2875753999979,336.3979627999943,337.19802920000075,337.1828189000007,337.1829001000005,337.19802920000075,337.19802920000075,337.19802920000075,,338.0176041999948,right,1.0,0.8155035000017961,,,,,,,,,,,,,,,,,,,,,,,,,,,,,sub-080,1.0,random_dot,59.985483514185546,
left,left,accuracy,,,,,0.0,1.0,1.0,0.0,10.0,1.0,21.0,0.0,338.0312199999971,,,,,,,,,338.0210147999969,339.2310556999946,340.031135499994,340.01597489999403,340.01605339999514,340.031135499994,340.031135499994,340.031135499994,,340.75081019999925,left,1.0,0.7158139000021038,,,,,,,,,,,,,,,,,,,,,,,,,,,,,sub-080,1.0,random_dot,59.985483514185546,
right,right,accuracy,,,,,0.0,1.0,1.0,0.0,11.0,0.0,22.0,1.0,340.7638005999979,,,,,,,,,340.7545011999973,341.9636584999971,342.7641081999973,342.7490322999947,342.7491130999988,342.7641081999973,342.7641081999973,342.7641081999973,,343.4167110999988,right,1.0,0.6381859999964945,,,,,,,,,,,,,,,,,,,,,,,,,,,,,sub-080,1.0,random_dot,59.985483514185546,
left,left,accuracy,,,,,0.0,1.0,1.0,0.0,11.0,1.0,23.0,0.0,343.4298557999937,,,,,,,,,343.42007659999945,344.6296233999965,345.4301237999971,345.4152503000005,345.4153315000003,345.4301237999971,345.4301237999971,345.4301237999971,,346.29989829999977,left,1.0,0.8578593999991426,,,,,,,,,,,,,,,,,,,,,,,,,,,,,sub-080,1.0,random_dot,59.985483514185546,
right,right,accuracy,,,,,0.0,1.0,1.0,0.0,12.0,0.0,24.0,1.0,346.3129573999977,,,,,,,,,346.30326879999484,346.6631513999964,347.4630356999987,347.4477506999974,347.4478297999958,347.4630356999987,347.4630356999987,347.4630356999987,,348.065743799998,right,1.0,0.5963377000007313,,,,,,,,,,,,,,,,,,,,,,,,,,,,,sub-080,1.0,random_dot,59.985483514185546,
left,left,accuracy,,,,,0.0,1.0,1.0,0.0,12.0,1.0,25.0,0.0,348.07917389999784,,,,,,,,,348.06927979999455,349.2790223999982,350.0793521999949,350.0636835999976,350.06374839999626,350.0793521999949,350.0793521999949,350.0793521999949,,351.91535499999736,right,0.0,1.827536599994346,,,,,,,,,,,,,,,,,,,,,,,,,,,,,sub-080,1.0,random_dot,59.985483514185546,
left,left,accuracy,,,,,0.0,1.0,1.0,0.0,13.0,0.0,26.0,0.0,351.92871159999777,,,,,,,,,351.9187871999966,352.7286415999988,353.5289565999992,353.5137609999947,353.51383939999505,353.5289565999992,353.5289565999992,353.5289565999992,,354.8814172999992,left,1.0,1.3373964999991586,,,,,,,,,,,,,,,,,,,,,,,,,,,,,sub-080,1.0,random_dot,59.985483514185546,
right,right,accuracy,,,,,0.0,1.0,1.0,0.0,13.0,1.0,27.0,1.0,354.8948737999963,,,,,,,,,354.88482219999423,356.0945797999957,356.89505259999714,356.87982719999854,356.8799074999988,356.89505259999714,356.89505259999714,356.89505259999714,,358.2644405999963,right,1.0,1.3596020999975735,,,,,,,,,,,,,,,,,,,,,,,,,,,,,sub-080,1.0,random_dot,59.985483514185546,
right,right,accuracy,,,,,0.0,1.0,1.0,0.0,14.0,0.0,28.0,1.0,358.27769799999805,,,,,,,,,358.2678470999963,358.3779231000008,359.1782932999995,359.16241509999963,359.16248559999804,359.1782932999995,359.1782932999995,359.1782932999995,,363.0800585999969,left,0.0,3.883594999999332,,,,,,,,,,,,,,,,,,,,,,,,,,,,,sub-080,1.0,random_dot,59.985483514185546,
left,left,accuracy,,,,,0.0,1.0,1.0,0.0,14.0,1.0,29.0,0.0,363.0934679999991,,,,,,,,,363.0833805000002,363.44348299999547,364.24382299999706,364.22814199999993,364.2282123999976,364.24382299999706,364.24382299999706,364.24382299999706,,364.963613699998,left,1.0,0.7129096999997273,,,,,,,,,,,,,,,,,,,,,,,,,,,,,sub-080,1.0,random_dot,59.985483514185546,
left,left,accuracy,,,,,0.0,1.0,1.0,0.0,15.0,0.0,30.0,0.0,364.9764894999971,,,,,,,,,364.9669811999993,365.0764940000008,365.8763168000005,365.8596340000004,365.85965129999386,365.8763168000005,365.8763168000005,365.8763168000005,,366.6796396999998,right,0.0,0.7903423999960069,,,,,,,,,,,,,,,,,,,,,,,,,,,,,sub-080,1.0,random_dot,59.985483514185546,
right,right,accuracy,,,,,0.0,1.0,1.0,0.0,15.0,1.0,31.0,1.0,366.6927441999942,,,,,,,,,366.68297479999455,366.7928577999992,367.5930886999995,367.5778030000001,367.5778743999981,367.5930886999995,367.5930886999995,367.5930886999995,,368.6631181999983,right,1.0,1.0584784999955446,,,,,,,,,,,,,,,,,,,,,,,,,,,,,sub-080,1.0,random_dot,59.985483514185546,
right,right,accuracy,,,,,0.0,1.0,1.0,0.0,16.0,0.0,32.0,1.0,368.6761041999998,,,,,,,,,368.66664599999785,368.775819399998,369.576198799994,369.5609574999981,369.5610446999999,369.576198799994,369.576198799994,369.576198799994,,371.7955832999942,right,1.0,2.212284599998384,,,,,,,,,,,,,,,,,,,,,,,,,,,,,sub-080,1.0,random_dot,59.985483514185546,
left,left,accuracy,,,,,0.0,1.0,1.0,0.0,16.0,1.0,33.0,0.0,371.8087400999939,,,,,,,,,371.79902479999873,372.15866169999936,372.9589424000005,372.9437065999955,372.9437872999988,372.9589424000005,372.9589424000005,372.9589424000005,,375.0786675999989,left,1.0,2.1131724000006216,,,,,,,,,,,,,,,,,,,,,,,,,,,,,sub-080,1.0,random_dot,59.985483514185546,
right,right,accuracy,,,,,0.0,1.0,1.0,0.0,17.0,0.0,34.0,1.0,375.0917505999969,,,,,,,,,375.0821135999941,375.8913201999967,376.6918149999983,376.6764642999988,376.67654209999455,376.6918149999983,376.6918149999983,376.6918149999983,,377.328683199994,right,1.0,0.6312116000044625,,,,,,,,,,,,,,,,,,,,,,,,,,,,,sub-080,1.0,random_dot,59.985483514185546,
left,left,accuracy,,,,,0.0,1.0,1.0,0.0,17.0,1.0,35.0,0.0,377.3410580999989,,,,,,,,,377.3321071999962,377.4411284999951,378.2415166999999,378.2266844999977,378.2267556000006,378.2415166999999,378.2415166999999,378.2415166999999,,382.17728440000064,right,0.0,3.919689000002109,,,,,,,,,,,,,,,,,,,,,,,,,,,,,sub-080,1.0,random_dot,59.985483514185546,
left,left,accuracy,,,,,0.0,1.0,1.0,0.0,18.0,0.0,36.0,0.0,382.1904164000007,,,,,,,,,382.18071749999945,382.2904689999996,383.0911358999947,383.0753764999972,383.07544469999993,383.0911358999947,383.0911358999947,383.0911358999947,,384.14418730000034,left,1.0,1.0469876999995904,,,,,,,,,,,,,,,,,,,,,,,,,,,,,sub-080,1.0,random_dot,59.985483514185546,
right,right,accuracy,,,,,0.0,1.0,1.0,0.0,18.0,1.0,37.0,1.0,384.1567269999941,,,,,,,,,384.14748159999726,384.256867899996,385.05694329999824,385.0419022999995,385.04198069999984,385.05694329999824,385.05694329999824,385.05694329999824,,387.01005129999976,right,1.0,1.9368937999970512,,,,,,,,,,,,,,,,,,,,,,,,,,,,,sub-080,1.0,random_dot,59.985483514185546,
left,left,accuracy,,,,,0.0,1.0,1.0,0.0,19.0,0.0,38.0,0.0,387.023039199994,,,,,,,,,387.0135872999963,387.1229505999945,387.9233421999961,387.907936399999,387.90801479999936,387.9233421999961,387.9233421999961,387.9233421999961,,388.6262451999937,right,0.0,0.6988646999961929,,,,,,,,,,,,,,,,,,,,,,,,,,,,,sub-080,1.0,random_dot,59.985483514185546,
right,right,accuracy,,,,,0.0,1.0,1.0,0.0,19.0,1.0,39.0,1.0,388.6394516,,,,,,,,,388.6298156999983,388.73942689999967,389.5396107999986,389.5243074999962,389.5243862999996,389.5396107999986,389.5396107999986,389.5396107999986,,390.409736499998,right,1.0,0.8660204999978305,,,,,,,,,,,,,,,,,,,,,,,,,,,,,sub-080,1.0,random_dot,59.985483514185546,
right,right,accuracy,,,,,0.0,1.0,1.0,0.0,20.0,0.0,40.0,1.0,390.4223654999951,,,,,,,,,390.4133216999981,391.62230499999714,392.4226028999983,392.4075340999989,392.40761360000033,392.4226028999983,392.4226028999983,392.4226028999983,,393.05897410000034,right,1.0,0.6219775999998092,,,,,,,,,,,,,,,,,,,,,,,,,,,,,sub-080,1.0,random_dot,59.985483514185546,
left,left,accuracy,,,,,0.0,1.0,1.0,0.0,20.0,1.0,41.0,0.0,393.07206009999936,,,,,,,,,393.0624045999939,394.27201259999856,395.0724696999969,395.0567089999968,395.05677959999593,395.0724696999969,395.0724696999969,395.0724696999969,,395.8424362000005,right,0.0,0.7666506000023219,,,,,,,,,,,,,,,,,,,,,,,,,,,,,sub-080,1.0,random_dot,59.985483514185546,
left,left,accuracy,,,,,0.0,1.0,1.0,0.0,21.0,0.0,42.0,0.0,395.8546294999978,,,,,,,,,395.8460281999942,397.0547828999988,397.8549396999952,397.8397776999991,397.83986580000055,397.8549396999952,397.8549396999952,397.8549396999952,,399.4073102999973,left,1.0,1.546750699999393,,,,,,,,,,,,,,,,,,,,,,,,,,,,,sub-080,1.0,random_dot,59.985483514185546,
right,right,accuracy,,,,,0.0,1.0,1.0,0.0,21.0,1.0,43.0,1.0,399.4206506999981,,,,,,,,,399.4103580999945,399.7709557999988,400.57106940000085,400.5557833999992,400.5558621999953,400.57106940000085,400.57106940000085,400.57106940000085,,401.2904228999978,right,1.0,0.7141352000035113,,,,,,,,,,,,,,,,,,,,,,,,,,,,,sub-080,1.0,random_dot,59.985483514185546,
left,left,accuracy,,,,,0.0,1.0,1.0,0.0,22.0,0.0,44.0,0.0,401.3040361999956,,,,,,,,,401.29410110000026,401.6539810999966,402.45447689999855,402.43918409999606,402.4392646999986,402.45447689999855,402.45447689999855,402.45447689999855,,405.85667999999714,right,0.0,3.393048699996143,,,,,,,,,,,,,,,,,,,,,,,,,,,,,sub-080,1.0,random_dot,59.985483514185546,
right,right,accuracy,,,,,0.0,1.0,1.0,0.0,22.0,1.0,45.0,1.0,405.8700122999944,,,,,,,,,405.86015829999815,406.6699426999985,407.46998309999617,407.4543707999983,407.4544409999944,407.46998309999617,407.46998309999617,407.46998309999617,,408.2396025999988,right,1.0,0.7524992000035127,,,,,,,,,,,,,,,,,,,,,,,,,,,,,sub-080,1.0,random_dot,59.985483514185546,
right,right,accuracy,,,,,0.0,1.0,1.0,0.0,23.0,0.0,46.0,1.0,408.253065799996,,,,,,,,,408.2431686999989,408.602847999995,409.403321699996,409.38768100000016,409.3877513999978,409.403321699996,409.403321699996,409.403321699996,,410.0563244000005,right,1.0,0.6361178000006475,,,,,,,,,,,,,,,,,,,,,,,,,,,,,sub-080,1.0,random_dot,59.985483514185546,
left,left,accuracy,,,,,0.0,1.0,1.0,0.0,23.0,1.0,47.0,0.0,410.069536899995,,,,,,,,,410.0597370999967,410.4195837999941,411.219322099998,411.2038850999961,411.2039541999984,411.219322099998,411.219322099998,411.219322099998,,412.3222361000008,left,1.0,1.0884613000016543,,,,,,,,,,,,,,,,,,,,,,,,,,,,,sub-080,1.0,random_dot,59.985483514185546,
right,right,accuracy,,,,,0.0,1.0,1.0,0.0,24.0,0.0,48.0,1.0,412.33559819999937,,,,,,,,,412.3256102999949,412.68562799999927,413.4859145999944,413.4707449999987,413.4708238999956,413.4859145999944,413.4859145999944,413.4859145999944,,415.9215589999949,right,1.0,2.4316880999977,,,,,,,,,,,,,,,,,,,,,,,,,,,,,sub-080,1.0,random_dot,59.985483514185546,
left,left,accuracy,,,,,0.0,1.0,1.0,0.0,24.0,1.0,49.0,0.0,415.9347168999957,,,,,,,,,415.9249243999948,417.1350553999946,417.9352555000005,417.9198805999986,417.91998469999817,417.9352555000005,417.9352555000005,417.9352555000005,,420.4713158999948,left,1.0,2.52607519999583,,,,,,,,,,,,,,,,,,,,,,,,,,,,,sub-080,1.0,random_dot,59.985483514185546,
right,right,accuracy,,,,,0.0,1.0,1.0,0.0,25.0,0.0,50.0,1.0,420.4842361999981,,,,,,,,,420.4747239999997,420.584122799999,421.3846609999964,421.3690064999973,421.3690761999969,421.3846609999964,421.3846609999964,421.3846609999964,,423.9033894999957,right,1.0,2.500850399999763,,,,,,,,,,,,,,,,,,,,,,,,,,,,,sub-080,1.0,random_dot,59.985483514185546,
left,left,accuracy,,,,,0.0,1.0,1.0,0.0,25.0,1.0,51.0,0.0,423.9167684999993,,,,,,,,,423.9067722999971,424.0169393999968,424.81730329999846,424.80187089999527,424.8019414999944,424.81730329999846,424.81730329999846,424.81730329999846,,425.5536148999963,left,1.0,0.7265186000004178,,,,,,,,,,,,,,,,,,,,,,,,,,,,,sub-080,1.0,random_dot,59.985483514185546,
left,left,accuracy,,,,,0.0,1.0,1.0,0.0,26.0,0.0,52.0,0.0,425.5665688999943,,,,,,,,,425.5570520999973,425.91667159999633,426.7165963000007,426.7002575000006,426.7002979999961,426.7165963000007,426.7165963000007,426.7165963000007,,430.2858333999975,right,0.0,3.551236700004665,,,,,,,,,,,,,,,,,,,,,,,,,,,,,sub-080,1.0,random_dot,59.985483514185546,
right,right,accuracy,,,,,0.0,1.0,1.0,0.0,26.0,1.0,53.0,1.0,430.2991088999988,,,,,,,,,430.2891855999988,431.0993825999976,431.8994959999982,431.8843058999992,431.88440109999647,431.8994959999982,431.8994959999982,431.8994959999982,,432.88510989999486,right,1.0,0.9773008000047412,,,,,,,,,,,,,,,,,,,,,,,,,,,,,sub-080,1.0,random_dot,59.985483514185546,
right,right,accuracy,,,,,0.0,1.0,1.0,0.0,27.0,0.0,54.0,1.0,432.89861630000087,,,,,,,,,432.88807399999496,432.998737599999,433.7993675999969,433.783712299999,433.7837815999956,433.7993675999969,433.7993675999969,433.7993675999969,,435.2353417999984,right,1.0,1.4189316999982111,,,,,,,,,,,,,,,,,,,,,,,,,,,,,sub-080,1.0,random_dot,59.985483514185546,
left,left,accuracy,,,,,0.0,1.0,1.0,0.0,27.0,1.0,55.0,0.0,435.2485247000004,,,,,,,,,435.2385240000003,435.3483860999986,436.1485971000002,436.13334549999854,436.13341429999855,436.1485971000002,436.1485971000002,436.1485971000002,,436.8514692999961,left,1.0,0.6928788000004715,,,,,,,,,,,,,,,,,,,,,,,,,,,,,sub-080,1.0,random_dot,59.985483514185546,
left,left,accuracy,,,,,0.0,1.0,1.0,0.0,28.0,0.0,56.0,0.0,436.8649036999996,,,,,,,,,436.85484919999726,436.9649322999976,437.7650910999946,437.750272199999,437.7503530999966,437.7650910999946,437.7650910999946,437.7650910999946,,441.1008053999976,right,0.0,3.3223471000019345,,,,,,,,,,,,,,,,,,,,,,,,,,,,,sub-080,1.0,random_dot,59.985483514185546,
right,right,accuracy,,,,,0.0,1.0,1.0,0.0,28.0,1.0,57.0,1.0,441.11420779999753,,,,,,,,,441.10450989999663,441.9142087,442.7144124999977,442.69909289999487,442.6991715999975,442.7144124999977,442.7144124999977,442.7144124999977,,443.4674621999948,right,1.0,0.7452393999992637,,,,,,,,,,,,,,,,,,,,,,,,,,,,,sub-080,1.0,random_dot,59.985483514185546,
left,left,accuracy,,,,,0.0,1.0,1.0,0.0,29.0,0.0,58.0,0.0,443.4802285999976,,,,,,,,,443.4708323999948,444.28042399999686,445.0806936999943,445.0655176,445.0655962999954,445.0806936999943,445.0806936999943,445.0806936999943,,447.64980529999593,right,0.0,2.561597100000654,,,,,,,,,,,,,,,,,,,,,,,,,,,,,sub-080,1.0,random_dot,59.985483514185546,
right,right,accuracy,,,,,0.0,1.0,1.0,0.0,29.0,1.0,59.0,1.0,447.6629389000009,,,,,,,,,447.6531654999999,447.7631927999973,448.5632633999994,448.5483917999954,448.5484708000004,448.5632633999994,448.5632633999994,448.5632633999994,,450.416373,right,1.0,1.8348053000008804,,,,,,,,,,,,,,,,,,,,,,,,,,,,,sub-080,1.0,random_dot,59.985483514185546,
,,accuracy,,,,,0.0,1.0,1.0,0.0,,,,,,,,,,,,,,,,,,,,,,,,,,,,,,,,,,,,,,,,,,,,,,,,,,,,,,,sub-080,1.0,random_dot,59.985483514185546,
,,,,,,,,,,,,,,,,,,,,,,,,,,,,,,,,,,,,,,,,,,,,,,,,,,,,,,,,,,,,,,,450.418863699997,450.4292568999954,sub-080,,,,
