direction,corrAns,thisN,thisTrialN,thisRepN,respDots.keys,respDots.corr,respDots.rt,respDots.duration,randomInstr,respRandomInstr.keys,respRandomInstr.rt,respRandomInstr.duration,practice_trials.thisRepN,practice_trials.thisTrialN,practice_trials.thisN,practice_trials.thisIndex,instr_trials.thisRepN,instr_trials.thisTrialN,instr_trials.thisN,instr_trials.thisIndex,test_trials.thisRepN,test_trials.thisTrialN,test_trials.thisN,test_trials.thisIndex,thisRow.t,notes,general_instruction.started,textGeneralInstr.started,respGeneralInstr.started,general_instruction.stopped,respGeneralInstr.keys,respGeneralInstr.rt,respGeneralInstr.duration,ITI.started,fixcross.started,fixcross.stopped,ITI.stopped,dots.started,backgroundDots.started,stimulusDots.started,respDots.started,stimulusDots.stopped,dots.stopped,practice_trials.respDots.keys,practice_trials.respDots.corr,practice_trials.respDots.rt,practice_trials.respDots.duration,feedback.started,textFeedback.started,feedback.stopped,textFeedback.stopped,info.started,textInfo.started,keyRespInfo.started,info.stopped,keyRespInfo.keys,keyRespInfo.rt,keyRespInfo.duration,test_instruction.started,textTestInstr.started,respTestInstr.started,test_instruction.stopped,respTestInstr.keys,respTestInstr.rt,respTestInstr.duration,random_instruction.started,textRandomInstr.started,respRandomInstr.started,random_instruction.stopped,instr_trials.respRandomInstr.keys,instr_trials.respRandomInstr.rt,instr_trials.respRandomInstr.duration,test_trials.respDots.keys,test_trials.respDots.corr,test_trials.respDots.rt,test_trials.respDots.duration,goodbye.started,textGoodbye.started,goodbye.stopped,participant,session,expName,frameRate,Unnamed: 87
,,,,,,,,,,,,,,,,,,,,,,,,,,,0.0139186340002197,0.0439470339997569,0.0439470339997569,22.178278503,space,22.091640274000383,,,,,,,,,,,,,,,,,,,,,,,,,,,,,,,,,,,,,,,,,,,,,,,,sub-150,1,random_dot,56.99354480290222,
right,right,0.0,0.0,0.0,right,1.0,9.090941710999688,,,,,,0.0,0.0,0.0,1.0,,,,,,,,,22.20283163299973,,,,,,,,,22.18735989200013,22.280681372999425,23.097448988,23.071047559999897,23.071601492999434,23.097448988,23.097448988,23.097448988,28.078767084999527,32.19690629900015,right,1.0,9.090941710999688,,32.20359334600016,32.25015359000008,32.70846686099958,,,,,,,,,,,,,,,,,,,,,,,,,,,,,,sub-150,1,random_dot,56.99354480290222,
left,left,1.0,1.0,0.0,right,0.0,1.4119610550005746,,,,,,0.0,1.0,1.0,0.0,,,,,,,,,32.72147610999946,,,,,,,,,32.709477119999974,32.7990335479999,33.59845936500005,33.58516865299953,33.5855422730001,33.59845936500005,33.59845936500005,33.59845936500005,,35.018983250999554,right,0.0,1.4119610550005746,,35.02690670299944,35.04446786999961,35.52719412599981,,,,,,,,,,,,,,,,,,,,,,,,,,,,,,sub-150,1,random_dot,56.99354480290222,
right,right,2.0,0.0,1.0,left,0.0,3.451145625999743,,,,,,1.0,0.0,2.0,1.0,,,,,,,,,35.545227701999465,,,,,,,,,35.52751334699951,35.875211534999835,36.68547592799951,36.67064318399935,36.67100021599981,36.68547592799951,36.68547592799951,36.68547592799951,,40.14760274799937,left,0.0,3.451145625999743,,40.14772113799973,40.16025097599959,40.65632410999933,,,,,,,,,,,,,,,,,,,,,,,,,,,,,,sub-150,1,random_dot,56.99354480290222,
left,left,3.0,1.0,1.0,left,1.0,5.020647774999816,,,,,,1.0,1.0,3.0,0.0,,,,,,,,,40.67099932499968,,,,,,,,,40.65778402599972,41.11702319899996,41.92309273899991,41.90393850700002,41.904505556,41.92309273899991,41.92309273899991,41.92309273899991,46.913197981999474,46.9509793569996,left,1.0,5.020647774999816,,46.95428637900022,46.96896027099956,47.45597423900017,,,,,,,,,,,,,,,,,,,,,,,,,,,,,,sub-150,1,random_dot,56.99354480290222,
right,right,4.0,0.0,2.0,right,1.0,0.7238028209994809,,,,,,2.0,0.0,4.0,1.0,,,,,,,,,47.469935729999634,,,,,,,,,47.45734707500014,47.553027385999485,48.35576098299953,48.33883774399965,48.33929286399962,48.35576098299953,48.35576098299953,48.35576098299953,,49.0864646279997,right,1.0,0.7238028209994809,,49.08658139799991,49.09891102399979,49.59512244799953,,,,,,,,,,,,,,,,,,,,,,,,,,,,,,sub-150,1,random_dot,56.99354480290222,
left,left,5.0,1.0,2.0,right,0.0,2.040787325000565,,,,,,2.0,1.0,5.0,0.0,,,,,,,,,49.6050215690002,,,,,,,,,49.595443980999335,49.934060204999696,50.73871654399954,50.724218690999805,50.72495142699972,50.73871654399954,50.73871654399954,50.73871654399954,,52.790294822999385,right,0.0,2.040787325000565,,52.79396613100016,52.80607940499976,53.29206458599947,53.30276421399958,,,,,,,,,,,,,,,,,,,,,,,,,,,,,sub-150,1,random_dot,56.99354480290222,
left,left,6.0,0.0,3.0,left,1.0,1.5570553309999011,,,,,,3.0,0.0,6.0,0.0,,,,,,,,,53.30276421399958,,,,,,,,,53.29290560699974,54.48460800999965,55.29306768300012,55.27917396700013,55.28005973099971,55.29306768300012,55.29306768300012,55.29306768300012,,56.855867047000174,left,1.0,1.5570553309999011,,56.86115549799979,56.87572434199956,57.35714876600014,,,,,,,,,,,,,,,,,,,,,,,,,,,,,,sub-150,1,random_dot,56.99354480290222,
right,right,7.0,1.0,3.0,right,1.0,1.1252698469997997,,,,,,3.0,1.0,7.0,1.0,,,,,,,,,57.36810148099994,,,,,,,,,57.35830018900015,57.70642128100008,58.51077909600008,58.49631242599935,58.49739776200022,58.51077909600008,58.51077909600008,58.51077909600008,,59.6454708579995,right,1.0,1.1252698469997997,,59.645587949999936,59.66158175599958,60.15149852000013,,,,,,,,,,,,,,,,,,,,,,,,,,,,,,sub-150,1,random_dot,56.99354480290222,
left,left,8.0,0.0,4.0,right,0.0,1.647663011000077,,,,,,4.0,0.0,8.0,0.0,,,,,,,,,60.16253842799961,,,,,,,,,60.15183667200017,61.3420115709996,62.16153403199951,62.14409003099991,62.14446682499965,62.16153403199951,62.16153403199951,62.16153403199951,,63.827470182999605,right,0.0,1.647663011000077,,63.8305214739994,63.84312484899965,64.33575348500017,,,,,,,,,,,,,,,,,,,,,,,,,,,,,,sub-150,1,random_dot,56.99354480290222,
right,right,9.0,1.0,4.0,right,1.0,1.6186601949993928,,,,,,4.0,1.0,9.0,1.0,,,,,,,,,64.34910239700002,,,,,,,,,64.33690638600001,64.4288065969995,65.22956341099962,65.21337386399955,65.21389423799974,65.22956341099962,65.22956341099962,65.22956341099962,,66.86875699899974,right,1.0,1.6186601949993928,,66.87226851600008,66.8842803839998,67.37457782099955,,,,,,,,,,,,,,,,,,,,,,,,,,,,,,sub-150,1,random_dot,56.99354480290222,
left,left,10.0,0.0,5.0,left,1.0,0.8671667400003571,,,,,,5.0,0.0,10.0,0.0,,,,,,,,,67.38586961100009,,,,,,,,,67.37595028599935,68.57249062600022,69.37995380399934,69.3661356699995,69.36688709899954,69.37995380399934,69.37995380399934,69.37995380399934,,70.25621556299939,left,1.0,0.8671667400003571,,70.2566328619996,70.26965770900006,70.7589247599999,,,,,,,,,,,,,,,,,,,,,,,,,,,,,,sub-150,1,random_dot,56.99354480290222,
right,right,11.0,1.0,5.0,right,1.0,0.7112409669998669,,,,,,5.0,1.0,11.0,1.0,,,,,,,,,70.77145820699934,,,,,,,,,70.75987379199978,71.95320508299938,72.75666830599948,72.73967042899949,72.7402086789998,72.75666830599948,72.75666830599948,72.75666830599948,,73.47631810999974,right,1.0,0.7112409669998669,,73.47644478499933,73.48850677500013,73.98373882299984,,,,,,,,,,,,,,,,,,,,,,,,,,,,,,sub-150,1,random_dot,56.99354480290222,
right,right,12.0,0.0,6.0,left,0.0,0.6306911080000646,,,,,,6.0,0.0,12.0,1.0,,,,,,,,,73.99528239099982,,,,,,,,,73.98467563099985,74.77627605099951,75.58547625600022,75.57038179699975,75.57093183899997,75.58547625600022,75.58547625600022,75.58547625600022,,76.22579558300004,left,0.0,0.6306911080000646,,76.2303330650002,76.24444145199959,76.7275597050002,,,,,,,,,,,,,,,,,,,,,,,,,,,,,,sub-150,1,random_dot,56.99354480290222,
left,left,13.0,1.0,6.0,left,1.0,3.648463850999178,,,,,,6.0,1.0,13.0,0.0,,,,,,,,,76.74015732899989,,,,,,,,,76.72848186899955,76.83010127699981,77.63603664199945,77.62023375799981,77.6207404910001,77.63603664199945,77.63603664199945,77.63603664199945,,81.29184679799982,left,1.0,3.648463850999178,,81.29482173999986,81.30738698999994,81.79318997199971,,,,,,,,,,,,,,,,,,,,,,,,,,,,,,sub-150,1,random_dot,56.99354480290222,
left,left,14.0,0.0,7.0,right,0.0,1.0335163299996566,,,,,,7.0,0.0,14.0,0.0,,,,,,,,,81.80582194899944,,,,,,,,,81.7941134269995,82.59483285499937,83.39442400999997,83.38016680300007,83.3811760059998,83.39442400999997,83.39442400999997,83.39442400999997,,84.43445971500023,right,0.0,1.0335163299996566,,84.43770739699994,84.44985268500022,84.93480203099989,84.94592225499946,,,,,,,,,,,,,,,,,,,,,,,,,,,,,sub-150,1,random_dot,56.99354480290222,
right,right,15.0,1.0,7.0,right,1.0,0.8309614200006763,,,,,,7.0,1.0,15.0,1.0,,,,,,,,,84.94592225499946,,,,,,,,,84.93514384299942,86.14480721000018,86.95521276799991,86.94213060099992,86.94284140299987,86.95521276799991,86.95521276799991,86.95521276799991,,87.80240849399979,right,1.0,0.8309614200006763,,87.80721575999996,87.82091615699937,88.30505206199996,,,,,,,,,,,,,,,,,,,,,,,,,,,,,,sub-150,1,random_dot,56.99354480290222,
left,left,16.0,0.0,8.0,left,1.0,1.6612309039992397,,,,,,8.0,0.0,16.0,0.0,,,,,,,,,88.31773266500022,,,,,,,,,88.30646582000008,89.09959862599953,89.90578377899965,89.89041071300016,89.89170821100015,89.90578377899965,89.90578377899965,89.90578377899965,,91.58355896000012,left,1.0,1.6612309039992397,,91.58367284699943,91.5962076400001,92.08713802300008,,,,,,,,,,,,,,,,,,,,,,,,,,,,,,sub-150,1,random_dot,56.99354480290222,
right,right,17.0,1.0,8.0,right,1.0,2.3127954900000987,,,,,,8.0,1.0,17.0,1.0,,,,,,,,,92.10164009500022,,,,,,,,,92.08847394999977,92.44457135199993,93.2519070469998,93.23703193500025,93.23761508400004,93.2519070469998,93.2519070469998,93.2519070469998,,95.57232311400004,right,1.0,2.3127954900000987,,95.57250014199964,95.58585362399936,96.0788187930002,,,,,,,,,,,,,,,,,,,,,,,,,,,,,,sub-150,1,random_dot,56.99354480290222,
right,right,18.0,0.0,9.0,right,1.0,1.0238708409997344,,,,,,9.0,0.0,18.0,1.0,,,,,,,,,96.09118429599948,,,,,,,,,96.07974506399933,97.26903745900016,98.06905085800008,98.05458599299982,98.05507746399962,98.06905085800008,98.06905085800008,98.06905085800008,,99.09694649299944,right,1.0,1.0238708409997344,,99.09706316699976,99.10911870600012,99.60083056999974,,,,,,,,,,,,,,,,,,,,,,,,,,,,,,sub-150,1,random_dot,56.99354480290222,
left,left,19.0,1.0,9.0,right,0.0,1.1929731949994675,,,,,,9.0,1.0,19.0,0.0,,,,,,,,,99.6148368590002,,,,,,,,,99.60116156999992,100.40081949999968,101.20201491599984,101.18738532599946,101.18779857899972,101.20201491599984,101.20201491599984,101.20201491599984,,102.40088524800012,right,0.0,1.1929731949994675,,102.40426946299976,102.41685219200008,102.9032716699994,,,,,,,,,,,,,,,,,,,,,,,,,,,,,,sub-150,1,random_dot,56.99354480290222,
,,,,,,,,,,,,,,,,,,,,,,,,,,,,,,,,,,,,,,,,,,,,,,,,,,,,102.9037037600001,102.9190410709998,102.9190410709998,104.31808873299995,space,1.391778408999926,,,,,,,,,,,,,,,,,,,,,,,sub-150,1,random_dot,56.99354480290222,
,,,,,,,,,,,,,,,,,,,,,,,,,,,,,,,,,,,,,,,,,,,,,,,,,,,,,,,,,,,104.31818025199937,104.33326397899964,104.33326397899964,105.1381536379995,space,0.7930898020003951,,,,,,,,,,,,,,,,sub-150,1,random_dot,56.99354480290222,
left,left,0.0,0.0,0.0,right,0.0,0.7437522359996365,,speed,space,1.974536652000097,,,,,,0.0,0.0,0.0,1.0,0.0,0.0,0.0,0.0,107.18329379899932,,,,,,,,,107.1681407750002,107.50747627500004,108.31096379100018,108.2940120889998,108.2945542409998,108.31096379100018,108.31096379100018,108.31096379100018,,109.06128646700016,,,,,,,,,,,,,,,,,,,,,,,105.16050668800015,105.1753112639999,105.1753112639999,107.1612962600002,space,1.974536652000097,,right,0.0,0.7437522359996365,,,,,sub-150,1,random_dot,56.99354480290222,
right,right,1.0,1.0,0.0,right,1.0,0.7527546290002647,,speed,space,1.974536652000097,,,,,,0.0,0.0,0.0,1.0,0.0,1.0,1.0,1.0,109.07372151799972,,,,,,,,,109.06186996199996,110.26805277099992,111.06896825199964,111.05445583999972,111.05488270299976,111.06896825199964,111.06896825199964,111.06896825199964,,111.8276379709996,,,,,,,,,,,,,,,,,,,,,,,,,,,,,,right,1.0,0.7527546290002647,,,,,sub-150,1,random_dot,56.99354480290222,
left,left,2.0,0.0,1.0,left,1.0,0.5840472649997537,,speed,space,1.974536652000097,,,,,,0.0,0.0,0.0,1.0,1.0,0.0,2.0,0.0,111.83996311600004,,,,,,,,,111.82815254599971,112.6215377259996,113.4283088989996,113.41328123599942,113.41435574200024,113.4283088989996,113.4283088989996,113.4283088989996,,114.02889609900012,,,,,,,,,,,,,,,,,,,,,,,,,,,,,,left,1.0,0.5840472649997537,,,,,sub-150,1,random_dot,56.99354480290222,
right,right,3.0,1.0,1.0,right,1.0,1.0604188389997944,,speed,space,1.974536652000097,,,,,,0.0,0.0,0.0,1.0,1.0,1.0,3.0,1.0,114.0408440659994,,,,,,,,,114.02929840599973,114.8266727780001,115.63506111900006,115.61806448199968,115.61843561800016,115.63506111900006,115.63506111900006,115.63506111900006,,116.7072949329995,,,,,,,,,,,,,,,,,,,,,,,,,,,,,,right,1.0,1.0604188389997944,,,,,sub-150,1,random_dot,56.99354480290222,
left,left,4.0,0.0,2.0,left,1.0,1.585485884999798,,speed,space,1.974536652000097,,,,,,0.0,0.0,0.0,1.0,2.0,0.0,4.0,0.0,116.72078429199972,,,,,,,,,116.7077310249997,117.9090202870002,118.71854248399995,118.7032542959996,118.7037389799998,118.71854248399995,118.71854248399995,118.71854248399995,,120.3135011329996,,,,,,,,,,,,,,,,,,,,,,,,,,,,,,left,1.0,1.585485884999798,,,,,sub-150,1,random_dot,56.99354480290222,
right,right,5.0,1.0,2.0,left,0.0,4.078205811000771,,speed,space,1.974536652000097,,,,,,0.0,0.0,0.0,1.0,2.0,1.0,5.0,1.0,120.32665152199934,,,,,,,,,120.31404637800006,121.11726609299969,121.9180458969995,121.90338161499947,121.90391204499974,121.9180458969995,121.9180458969995,121.9180458969995,,126.01441856800012,,,,,,,,,,,,,,,,,,,,,,,,,,,,,,left,0.0,4.078205811000771,,,,,sub-150,1,random_dot,56.99354480290222,
left,left,6.0,0.0,3.0,right,0.0,3.5523507719999543,,speed,space,1.974536652000097,,,,,,0.0,0.0,0.0,1.0,3.0,0.0,6.0,0.0,126.02736725500016,,,,,,,,,126.0148271779999,126.81450752299952,127.6245477779994,127.61004186599985,127.61102704399946,127.6245477779994,127.6245477779994,127.6245477779994,,131.1877773870001,,,,,,,,,,,,,,,,,,,,,,,,,,,,,,right,0.0,3.5523507719999543,,,,,sub-150,1,random_dot,56.99354480290222,
right,right,7.0,1.0,3.0,left,0.0,1.5766399739995904,,speed,space,1.974536652000097,,,,,,0.0,0.0,0.0,1.0,3.0,1.0,7.0,1.0,131.20115623699985,,,,,,,,,131.18823272200007,131.9879046549995,132.79162635800003,132.77858976300013,132.77892954300023,132.79162635800003,132.79162635800003,132.79162635800003,,134.37557269599984,,,,,,,,,,,,,,,,,,,,,,,,,,,,,,left,0.0,1.5766399739995904,,,,,sub-150,1,random_dot,56.99354480290222,
right,right,8.0,0.0,4.0,right,1.0,0.702561804000652,,speed,space,1.974536652000097,,,,,,0.0,0.0,0.0,1.0,4.0,0.0,8.0,1.0,134.38745153799937,,,,,,,,,134.3760848100001,135.1741292279994,135.99227994600005,135.96745032999934,135.96782719400017,135.99227994600005,135.99227994600005,135.99227994600005,,136.7125616889998,,,,,,,,,,,,,,,,,,,,,,,,,,,,,,right,1.0,0.702561804000652,,,,,sub-150,1,random_dot,56.99354480290222,
left,left,9.0,1.0,4.0,right,0.0,1.562525051999728,,speed,space,1.974536652000097,,,,,,0.0,0.0,0.0,1.0,4.0,1.0,9.0,0.0,136.72632479099957,,,,,,,,,136.71310070799973,136.8157651040001,137.6205860609998,137.6063790829994,137.60755152299953,137.6205860609998,137.6205860609998,137.6205860609998,,139.18848718800018,,,,,,,,,,,,,,,,,,,,,,,,,,,,,,right,0.0,1.562525051999728,,,,,sub-150,1,random_dot,56.99354480290222,
left,left,10.0,0.0,5.0,right,0.0,2.1529315799998585,,speed,space,1.974536652000097,,,,,,0.0,0.0,0.0,1.0,5.0,0.0,10.0,0.0,139.20147549099966,,,,,,,,,139.18963715799964,139.98805785999957,140.7911178280001,140.77821105699968,140.77855528500004,140.7911178280001,140.7911178280001,140.7911178280001,,142.96237252299943,,,,,,,,,,,,,,,,,,,,,,,,,,,,,,right,0.0,2.1529315799998585,,,,,sub-150,1,random_dot,56.99354480290222,
right,right,11.0,1.0,5.0,right,1.0,1.082151624999824,,speed,space,1.974536652000097,,,,,,0.0,0.0,0.0,1.0,5.0,1.0,11.0,1.0,142.97452405199965,,,,,,,,,142.9627672709994,143.31890718399973,144.12475893600003,144.1103135839994,144.11131454599945,144.12475893600003,144.12475893600003,144.12475893600003,,145.22387883299962,,,,,,,,,,,,,,,,,,,,,,,,,,,,,,right,1.0,1.082151624999824,,,,,sub-150,1,random_dot,56.99354480290222,
left,left,12.0,0.0,6.0,left,1.0,3.66265763499996,,speed,space,1.974536652000097,,,,,,0.0,0.0,0.0,1.0,6.0,0.0,12.0,0.0,145.2354752860001,,,,,,,,,145.22426980199998,146.42103873499946,147.22070810900004,147.20663879699987,147.20794664000005,147.22070810900004,147.22070810900004,147.22070810900004,,150.90053835300023,,,,,,,,,,,,,,,,,,,,,,,,,,,,,,left,1.0,3.66265763499996,,,,,sub-150,1,random_dot,56.99354480290222,
right,right,13.0,1.0,6.0,right,1.0,2.1913707879994035,,speed,space,1.974536652000097,,,,,,0.0,0.0,0.0,1.0,6.0,1.0,13.0,1.0,150.9129447919995,,,,,,,,,150.90096968999933,151.7000741189995,152.50175440800012,152.48675197400007,152.48722406999968,152.50175440800012,152.50175440800012,152.50175440800012,,154.70979379799974,,,,,,,,,,,,,,,,,,,,,,,,,,,,,,right,1.0,2.1913707879994035,,,,,sub-150,1,random_dot,56.99354480290222,
left,left,14.0,0.0,7.0,left,1.0,2.851667264999378,,speed,space,1.974536652000097,,,,,,0.0,0.0,0.0,1.0,7.0,0.0,14.0,0.0,154.721907999,,,,,,,,,154.71018531699974,155.9117163439996,156.71837772399977,156.70226998899943,156.7026546219995,156.71837772399977,156.71837772399977,156.71837772399977,,159.5754358889999,,,,,,,,,,,,,,,,,,,,,,,,,,,,,,left,1.0,2.851667264999378,,,,,sub-150,1,random_dot,56.99354480290222,
right,right,15.0,1.0,7.0,right,1.0,1.3879942490002577,,speed,space,1.974536652000097,,,,,,0.0,0.0,0.0,1.0,7.0,1.0,15.0,1.0,159.58768495299955,,,,,,,,,159.57595573900016,160.78054465399964,161.5881295879999,161.5747748469994,161.5754983879997,161.5881295879999,161.5881295879999,161.5881295879999,,162.98390080099944,,,,,,,,,,,,,,,,,,,,,,,,,,,,,,right,1.0,1.3879942490002577,,,,,sub-150,1,random_dot,56.99354480290222,
left,left,16.0,0.0,8.0,left,1.0,2.5472572750004474,,speed,space,1.974536652000097,,,,,,0.0,0.0,0.0,1.0,8.0,0.0,16.0,0.0,162.9961719539997,,,,,,,,,162.98442910299946,164.18704072199944,164.99911773699932,164.98152485399987,164.98214420400018,164.99911773699932,164.99911773699932,164.99911773699932,,167.55596895999952,,,,,,,,,,,,,,,,,,,,,,,,,,,,,,left,1.0,2.5472572750004474,,,,,sub-150,1,random_dot,56.99354480290222,
right,right,17.0,1.0,8.0,right,1.0,0.6911022200001753,,speed,space,1.974536652000097,,,,,,0.0,0.0,0.0,1.0,8.0,1.0,17.0,1.0,167.56804250699952,,,,,,,,,167.55657680100012,168.36467792799976,169.16994383699966,169.15597741799957,169.15699351199964,169.16994383699966,169.16994383699966,169.16994383699966,,169.878047444,,,,,,,,,,,,,,,,,,,,,,,,,,,,,,right,1.0,0.6911022200001753,,,,,sub-150,1,random_dot,56.99354480290222,
right,right,18.0,0.0,9.0,right,1.0,0.993013783000606,,speed,space,1.974536652000097,,,,,,0.0,0.0,0.0,1.0,9.0,0.0,18.0,1.0,169.89000934199976,,,,,,,,,169.87843987799988,171.08674525399965,171.91010066799936,171.8925102889998,171.89286490299946,171.91010066799936,171.91010066799936,171.91010066799936,,172.90796853399934,,,,,,,,,,,,,,,,,,,,,,,,,,,,,,right,1.0,0.993013783000606,,,,,sub-150,1,random_dot,56.99354480290222,
left,left,19.0,1.0,9.0,left,1.0,1.1434329079993404,,speed,space,1.974536652000097,,,,,,0.0,0.0,0.0,1.0,9.0,1.0,19.0,0.0,172.9210110570002,,,,,,,,,172.90858790899983,174.12525871900016,174.9303141399996,174.91691384299975,174.91726791200017,174.9303141399996,174.9303141399996,174.9303141399996,,176.09206547599933,,,,,,,,,,,,,,,,,,,,,,,,,,,,,,left,1.0,1.1434329079993404,,,,,sub-150,1,random_dot,56.99354480290222,
right,right,20.0,0.0,10.0,right,1.0,1.206349105999834,,speed,space,1.974536652000097,,,,,,0.0,0.0,0.0,1.0,10.0,0.0,20.0,1.0,176.10403323099945,,,,,,,,,176.09247273399978,176.45844078699974,177.27674648999982,177.25935909700002,177.25972915999955,177.27674648999982,177.27674648999982,177.27674648999982,,178.4902016269998,,,,,,,,,,,,,,,,,,,,,,,,,,,,,,right,1.0,1.206349105999834,,,,,sub-150,1,random_dot,56.99354480290222,
left,left,21.0,1.0,10.0,left,1.0,1.879209022000396,,speed,space,1.974536652000097,,,,,,0.0,0.0,0.0,1.0,10.0,1.0,21.0,0.0,178.50181829099984,,,,,,,,,178.4905915089994,178.59306788499998,179.4017498809999,179.3874363169998,179.38792556299995,179.4017498809999,179.4017498809999,179.4017498809999,,181.2873105439994,,,,,,,,,,,,,,,,,,,,,,,,,,,,,,left,1.0,1.879209022000396,,,,,sub-150,1,random_dot,56.99354480290222,
right,right,22.0,0.0,11.0,right,1.0,2.871421382000335,,speed,space,1.974536652000097,,,,,,0.0,0.0,0.0,1.0,11.0,0.0,22.0,1.0,181.300536879,,,,,,,,,181.28792356399936,182.4846539330001,183.2934512900001,183.27902009699935,183.28008469,183.2934512900001,183.2934512900001,183.2934512900001,,186.17245608199937,,,,,,,,,,,,,,,,,,,,,,,,,,,,,,right,1.0,2.871421382000335,,,,,sub-150,1,random_dot,56.99354480290222,
left,left,23.0,1.0,11.0,left,1.0,1.6160692610001206,,speed,space,1.974536652000097,,,,,,0.0,0.0,0.0,1.0,11.0,1.0,23.0,0.0,186.18455129099948,,,,,,,,,186.1730620039998,186.53030996599955,187.327077723,187.31364743099948,187.31411901799947,187.327077723,187.327077723,187.327077723,,188.95366682499932,,,,,,,,,,,,,,,,,,,,,,,,,,,,,,left,1.0,1.6160692610001206,,,,,sub-150,1,random_dot,56.99354480290222,
left,left,24.0,0.0,12.0,left,1.0,1.9129207859996316,,speed,space,1.974536652000097,,,,,,0.0,0.0,0.0,1.0,12.0,0.0,24.0,0.0,188.96683610199943,,,,,,,,,188.95418516300012,189.30030121099932,190.10955069200008,190.0956101900001,190.0964456390002,190.10955069200008,190.10955069200008,190.10955069200008,,192.0406865799996,,,,,,,,,,,,,,,,,,,,,,,,,,,,,,left,1.0,1.9129207859996316,,,,,sub-150,1,random_dot,56.99354480290222,
right,right,25.0,1.0,12.0,right,1.0,2.3069058449991644,,speed,space,1.974536652000097,,,,,,0.0,0.0,0.0,1.0,12.0,1.0,25.0,1.0,192.05266500800008,,,,,,,,,192.0411159360001,192.3870594049995,193.19480635699983,193.18089491699996,193.18166435500007,193.19480635699983,193.19480635699983,193.19480635699983,,195.5104493359995,,,,,,,,,,,,,,,,,,,,,,,,,,,,,,right,1.0,2.3069058449991644,,,,,sub-150,1,random_dot,56.99354480290222,
right,right,26.0,0.0,13.0,right,1.0,3.066262803000427,,speed,space,1.974536652000097,,,,,,0.0,0.0,0.0,1.0,13.0,0.0,26.0,1.0,195.52348328599965,,,,,,,,,195.5108352520001,196.31047947600015,197.11693320799984,197.1017238659997,197.10213854099948,197.11693320799984,197.11693320799984,197.11693320799984,,200.19165197599975,,,,,,,,,,,,,,,,,,,,,,,,,,,,,,right,1.0,3.066262803000427,,,,,sub-150,1,random_dot,56.99354480290222,
left,left,27.0,1.0,13.0,left,1.0,2.11623010600033,,speed,space,1.974536652000097,,,,,,0.0,0.0,0.0,1.0,13.0,1.0,27.0,0.0,200.2036216919996,,,,,,,,,200.1920418869995,200.9866493899999,201.79338466799985,201.7787364429996,201.77971144000003,201.79338466799985,201.79338466799985,201.79338466799985,,203.9317367989997,,,,,,,,,,,,,,,,,,,,,,,,,,,,,,left,1.0,2.11623010600033,,,,,sub-150,1,random_dot,56.99354480290222,
right,right,28.0,0.0,14.0,right,1.0,3.3627621619998536,,speed,space,1.974536652000097,,,,,,0.0,0.0,0.0,1.0,14.0,0.0,28.0,1.0,203.94230625,,,,,,,,,203.9321450529997,204.28927808199933,205.0961871139998,205.08263184299997,205.083009643,205.0961871139998,205.0961871139998,205.0961871139998,,208.47664509900005,,,,,,,,,,,,,,,,,,,,,,,,,,,,,,right,1.0,3.3627621619998536,,,,,sub-150,1,random_dot,56.99354480290222,
left,left,29.0,1.0,14.0,right,0.0,1.6450425720004205,,speed,space,1.974536652000097,,,,,,0.0,0.0,0.0,1.0,14.0,1.0,29.0,0.0,208.49313635599992,,,,,,,,,208.4770553799999,209.2744749149997,210.07716864299985,210.0606355559994,210.0610112329996,210.07716864299985,210.07716864299985,210.07716864299985,,211.73878451400012,,,,,,,,,,,,,,,,,,,,,,,,,,,,,,right,0.0,1.6450425720004205,,,,,sub-150,1,random_dot,56.99354480290222,
right,right,30.0,0.0,15.0,right,1.0,7.714302033000422,,speed,space,1.974536652000097,,,,,,0.0,0.0,0.0,1.0,15.0,0.0,30.0,1.0,211.75076612999965,,,,,,,,,211.73933331099943,211.84312976799995,212.645772074,212.6321454179997,212.632541252,212.645772074,212.645772074,212.645772074,217.6324757479997,220.3748197899995,,,,,,,,,,,,,,,,,,,,,,,,,,,,,,right,1.0,7.714302033000422,,,,,sub-150,1,random_dot,56.99354480290222,
left,left,31.0,1.0,15.0,left,1.0,1.7539380170001095,,speed,space,1.974536652000097,,,,,,0.0,0.0,0.0,1.0,15.0,1.0,31.0,0.0,220.386777363,,,,,,,,,220.37534939299985,221.57847267599936,222.388491359,222.3744775670002,222.37555993600017,222.388491359,222.388491359,222.388491359,,224.1631681099998,,,,,,,,,,,,,,,,,,,,,,,,,,,,,,left,1.0,1.7539380170001095,,,,,sub-150,1,random_dot,56.99354480290222,
left,left,32.0,0.0,16.0,left,1.0,1.9457547990004969,,speed,space,1.974536652000097,,,,,,0.0,0.0,0.0,1.0,16.0,0.0,32.0,0.0,224.173663394,,,,,,,,,224.1635687600001,225.3691903250001,226.1696630319993,226.1571047870002,226.15746574399964,226.1696630319993,226.1696630319993,226.1696630319993,,228.1198326220001,,,,,,,,,,,,,,,,,,,,,,,,,,,,,,left,1.0,1.9457547990004969,,,,,sub-150,1,random_dot,56.99354480290222,
right,right,33.0,1.0,16.0,right,1.0,4.373643171999902,,speed,space,1.974536652000097,,,,,,0.0,0.0,0.0,1.0,16.0,1.0,33.0,1.0,228.13307546899975,,,,,,,,,228.12025700999948,228.47338912899977,229.2930693569997,229.27500504,229.2753447670002,229.2930693569997,229.2930693569997,229.2930693569997,,233.678796958,,,,,,,,,,,,,,,,,,,,,,,,,,,,,,right,1.0,4.373643171999902,,,,,sub-150,1,random_dot,56.99354480290222,
left,left,34.0,0.0,17.0,right,0.0,1.9106800050003585,,speed,space,1.974536652000097,,,,,,0.0,0.0,0.0,1.0,17.0,0.0,34.0,0.0,233.69440861800007,,,,,,,,,233.67955833699943,234.0428071669994,234.84573729800013,234.8321725579999,234.83255500999985,234.84573729800013,234.84573729800013,234.84573729800013,,236.76900739399932,,,,,,,,,,,,,,,,,,,,,,,,,,,,,,right,0.0,1.9106800050003585,,,,,sub-150,1,random_dot,56.99354480290222,
right,right,35.0,1.0,17.0,right,1.0,0.760855612999876,,speed,space,1.974536652000097,,,,,,0.0,0.0,0.0,1.0,17.0,1.0,35.0,1.0,236.78247097799976,,,,,,,,,236.76943425099944,237.97867654199945,238.79127750399948,238.76586855000005,238.76626726799984,238.79127750399948,238.79127750399948,238.79127750399948,,239.5695900949995,,,,,,,,,,,,,,,,,,,,,,,,,,,,,,right,1.0,0.760855612999876,,,,,sub-150,1,random_dot,56.99354480290222,
left,left,36.0,0.0,18.0,left,1.0,2.8966287049997845,,speed,space,1.974536652000097,,,,,,0.0,0.0,0.0,1.0,18.0,0.0,36.0,0.0,239.58312938200012,,,,,,,,,239.5700045169997,240.36594010999943,241.17583837299932,241.15843199199932,241.15880248800025,241.17583837299932,241.17583837299932,241.17583837299932,,244.0897083,,,,,,,,,,,,,,,,,,,,,,,,,,,,,,left,1.0,2.8966287049997845,,,,,sub-150,1,random_dot,56.99354480290222,
right,right,37.0,1.0,18.0,right,1.0,0.8397322490000079,,speed,space,1.974536652000097,,,,,,0.0,0.0,0.0,1.0,18.0,1.0,37.0,1.0,244.1013318690002,,,,,,,,,244.09009708800025,245.29877033799949,246.100462163,246.08603321099963,246.08648309099956,246.100462163,246.100462163,246.100462163,,246.95620685699944,,,,,,,,,,,,,,,,,,,,,,,,,,,,,,right,1.0,0.8397322490000079,,,,,sub-150,1,random_dot,56.99354480290222,
left,left,38.0,0.0,19.0,right,0.0,1.3082895599991389,,speed,space,1.974536652000097,,,,,,0.0,0.0,0.0,1.0,19.0,0.0,38.0,0.0,246.96815958299976,,,,,,,,,246.95660622600008,247.05488088899983,247.85644447399957,247.8425126639995,247.8434786759999,247.85644447399957,247.85644447399957,247.85644447399957,,249.1754059739997,,,,,,,,,,,,,,,,,,,,,,,,,,,,,,right,0.0,1.3082895599991389,,,,,sub-150,1,random_dot,56.99354480290222,
right,right,39.0,1.0,19.0,left,0.0,0.7615196399992783,,speed,space,1.974536652000097,,,,,,0.0,0.0,0.0,1.0,19.0,1.0,39.0,1.0,249.18751299999985,,,,,,,,,249.1758073459996,249.2762422199994,250.0813372849998,250.0657384569995,250.06618418800008,250.0813372849998,250.0813372849998,250.0813372849998,,250.8516389389997,,,,,,,,,,,,,,,,,,,,,,,,,,,,,,left,0.0,0.7615196399992783,,,,,sub-150,1,random_dot,56.99354480290222,
right,right,40.0,0.0,20.0,right,1.0,0.7073319020000781,,speed,space,1.974536652000097,,,,,,0.0,0.0,0.0,1.0,20.0,0.0,40.0,1.0,250.8653110289997,,,,,,,,,250.85221398999963,251.6493285309998,252.44940035199943,252.4347960539999,252.43524018900007,252.44940035199943,252.44940035199943,252.44940035199943,,253.1612471899998,,,,,,,,,,,,,,,,,,,,,,,,,,,,,,right,1.0,0.7073319020000781,,,,,sub-150,1,random_dot,56.99354480290222,
left,left,41.0,1.0,20.0,right,0.0,1.5200700039995354,,speed,space,1.974536652000097,,,,,,0.0,0.0,0.0,1.0,20.0,1.0,41.0,0.0,253.173467437,,,,,,,,,253.16163357000005,253.9662106019996,254.77176809199955,254.75782235599945,254.75880891299948,254.77176809199955,254.77176809199955,254.77176809199955,,256.3110810799999,,,,,,,,,,,,,,,,,,,,,,,,,,,,,,right,0.0,1.5200700039995354,,,,,sub-150,1,random_dot,56.99354480290222,
left,left,42.0,0.0,21.0,right,0.0,2.9373190420001265,,speed,space,1.974536652000097,,,,,,0.0,0.0,0.0,1.0,21.0,0.0,42.0,0.0,256.32318154099994,,,,,,,,,256.3114795739993,257.1131722829996,257.92409145999954,257.90996044199983,257.9109165539994,257.92409145999954,257.92409145999954,257.92409145999954,,260.8786144759997,,,,,,,,,,,,,,,,,,,,,,,,,,,,,,right,0.0,2.9373190420001265,,,,,sub-150,1,random_dot,56.99354480290222,
right,right,43.0,1.0,21.0,right,1.0,2.438087860999985,,speed,space,1.974536652000097,,,,,,0.0,0.0,0.0,1.0,21.0,1.0,43.0,1.0,260.89090000299984,,,,,,,,,260.87900655999965,261.2272727849995,262.03408413299985,262.0197607829996,262.0202257379997,262.03408413299985,262.03408413299985,262.03408413299985,,264.4952612890001,,,,,,,,,,,,,,,,,,,,,,,,,,,,,,right,1.0,2.438087860999985,,,,,sub-150,1,random_dot,56.99354480290222,
left,left,44.0,0.0,22.0,right,0.0,1.7331313800004864,,speed,space,1.974536652000097,,,,,,0.0,0.0,0.0,1.0,22.0,0.0,44.0,0.0,264.5067325559994,,,,,,,,,264.4956920269997,265.30218148099993,266.11662283699934,266.099263479,266.0996452419995,266.11662283699934,266.11662283699934,266.11662283699934,,267.8569290179994,,,,,,,,,,,,,,,,,,,,,,,,,,,,,,right,0.0,1.7331313800004864,,,,,sub-150,1,random_dot,56.99354480290222,
right,right,45.0,1.0,22.0,right,1.0,0.8119950270001937,,speed,space,1.974536652000097,,,,,,0.0,0.0,0.0,1.0,22.0,1.0,45.0,1.0,267.86984239899994,,,,,,,,,267.8575514710001,268.6590361919998,269.4660629660002,269.45099071999994,269.4513704869996,269.4660629660002,269.4660629660002,269.4660629660002,,270.2864558709998,,,,,,,,,,,,,,,,,,,,,,,,,,,,,,right,1.0,0.8119950270001937,,,,,sub-150,1,random_dot,56.99354480290222,
right,right,46.0,0.0,23.0,right,1.0,2.1650873850003336,,speed,space,1.974536652000097,,,,,,0.0,0.0,0.0,1.0,23.0,0.0,46.0,1.0,270.2998757059995,,,,,,,,,270.28741135200016,270.3893488670001,271.1901464069997,271.1770421929996,271.17739651099964,271.1901464069997,271.1901464069997,271.1901464069997,,273.3608491019995,,,,,,,,,,,,,,,,,,,,,,,,,,,,,,right,1.0,2.1650873850003336,,,,,sub-150,1,random_dot,56.99354480290222,
left,left,47.0,1.0,23.0,left,1.0,0.7430631369998082,,speed,space,1.974536652000097,,,,,,0.0,0.0,0.0,1.0,23.0,1.0,47.0,0.0,273.37296682799933,,,,,,,,,273.3612500049994,273.7173573419996,274.5214075590002,274.507191959,274.5082364680002,274.5214075590002,274.5214075590002,274.5214075590002,,275.27218265099964,,,,,,,,,,,,,,,,,,,,,,,,,,,,,,left,1.0,0.7430631369998082,,,,,sub-150,1,random_dot,56.99354480290222,
right,right,48.0,0.0,24.0,right,1.0,1.6894240159999754,,speed,space,1.974536652000097,,,,,,0.0,0.0,0.0,1.0,24.0,0.0,48.0,1.0,275.2836822999998,,,,,,,,,275.27257008800007,276.0783451899997,276.88319983899964,276.86699646299985,276.86735717600004,276.88319983899964,276.88319983899964,276.88319983899964,,278.590419567,,,,,,,,,,,,,,,,,,,,,,,,,,,,,,right,1.0,1.6894240159999754,,,,,sub-150,1,random_dot,56.99354480290222,
left,left,49.0,1.0,24.0,left,1.0,1.6524512959995263,,speed,space,1.974536652000097,,,,,,0.0,0.0,0.0,1.0,24.0,1.0,49.0,0.0,278.6022101789995,,,,,,,,,278.5908024199998,278.6902908539996,279.49268145899987,279.4780215269993,279.4790659700002,279.49268145899987,279.49268145899987,279.49268145899987,,281.15865703799955,,,,,,,,,,,,,,,,,,,,,,,,,,,,,,left,1.0,1.6524512959995263,,,,,sub-150,1,random_dot,56.99354480290222,
left,left,50.0,0.0,25.0,right,0.0,2.4129111069996725,,speed,space,1.974536652000097,,,,,,0.0,0.0,0.0,1.0,25.0,0.0,50.0,0.0,281.1755013940001,,,,,,,,,281.1590604209996,281.5051406040002,282.3118553509994,282.2979330729995,282.2983117369995,282.3118553509994,282.3118553509994,282.3118553509994,,284.7423831810001,,,,,,,,,,,,,,,,,,,,,,,,,,,,,,right,0.0,2.4129111069996725,,,,,sub-150,1,random_dot,56.99354480290222,
right,right,51.0,1.0,25.0,left,0.0,1.8071855590005723,,speed,space,1.974536652000097,,,,,,0.0,0.0,0.0,1.0,25.0,1.0,51.0,1.0,284.7587800000001,,,,,,,,,284.742761345,285.09958525599995,285.9018916790001,285.8892406670002,285.8895915249996,285.9018916790001,285.9018916790001,285.9018916790001,,287.7238358349996,,,,,,,,,,,,,,,,,,,,,,,,,,,,,,left,0.0,1.8071855590005723,,,,,sub-150,1,random_dot,56.99354480290222,
right,right,52.0,0.0,26.0,left,0.0,1.835710059999656,,speed,space,1.974536652000097,,,,,,0.0,0.0,0.0,1.0,26.0,0.0,52.0,1.0,287.7354562539995,,,,,,,,,287.72424891099945,288.91885559799994,289.72773917299946,289.713448511,289.7143736179996,289.72773917299946,289.72773917299946,289.72773917299946,,291.571758303,,,,,,,,,,,,,,,,,,,,,,,,,,,,,,left,0.0,1.835710059999656,,,,,sub-150,1,random_dot,56.99354480290222,
left,left,53.0,1.0,26.0,left,1.0,3.138696990000426,,speed,space,1.974536652000097,,,,,,0.0,0.0,0.0,1.0,26.0,1.0,53.0,0.0,291.5834067939996,,,,,,,,,291.5721506459995,292.7760028729999,293.5831506839995,293.5668289999994,293.5672284069997,293.5831506839995,293.5831506839995,293.5831506839995,,296.7391652919996,,,,,,,,,,,,,,,,,,,,,,,,,,,,,,left,1.0,3.138696990000426,,,,,sub-150,1,random_dot,56.99354480290222,
left,left,54.0,0.0,27.0,right,0.0,0.74965495700053,,speed,space,1.974536652000097,,,,,,0.0,0.0,0.0,1.0,27.0,0.0,54.0,0.0,296.75095869300003,,,,,,,,,296.73955263399966,296.8377873869995,297.6586002919994,297.6409463989994,297.6413282610001,297.6586002919994,297.6586002919994,297.6586002919994,,298.4253246090002,,,,,,,,,,,,,,,,,,,,,,,,,,,,,,right,0.0,0.74965495700053,,,,,sub-150,1,random_dot,56.99354480290222,
right,right,55.0,1.0,27.0,right,1.0,1.6917124519995923,,speed,space,1.974536652000097,,,,,,0.0,0.0,0.0,1.0,27.0,1.0,55.0,1.0,298.441806371,,,,,,,,,298.4257127229994,298.52840100899994,299.3353047109995,299.32094275799955,299.3221504809999,299.3353047109995,299.3353047109995,299.3353047109995,,301.0355003679997,,,,,,,,,,,,,,,,,,,,,,,,,,,,,,right,1.0,1.6917124519995923,,,,,sub-150,1,random_dot,56.99354480290222,
left,left,56.0,0.0,28.0,right,0.0,1.2526974900001733,,speed,space,1.974536652000097,,,,,,0.0,0.0,0.0,1.0,28.0,0.0,56.0,0.0,301.048944444,,,,,,,,,301.03613586399933,301.38171255199995,302.1851159099997,302.17062675799934,302.1712669179997,302.1851159099997,302.1851159099997,302.1851159099997,,303.4554535480001,,,,,,,,,,,,,,,,,,,,,,,,,,,,,,right,0.0,1.2526974900001733,,,,,sub-150,1,random_dot,56.99354480290222,
right,right,57.0,1.0,28.0,right,1.0,2.0537741190000816,,speed,space,1.974536652000097,,,,,,0.0,0.0,0.0,1.0,28.0,1.0,57.0,1.0,303.4673403979996,,,,,,,,,303.45585970699995,303.81009733999963,304.6218452019993,304.6091355520002,304.60949523699946,304.6218452019993,304.6218452019993,304.6218452019993,,306.69199339899933,,,,,,,,,,,,,,,,,,,,,,,,,,,,,,right,1.0,2.0537741190000816,,,,,sub-150,1,random_dot,56.99354480290222,
left,left,58.0,0.0,29.0,left,1.0,2.0198172350001187,,speed,space,1.974536652000097,,,,,,0.0,0.0,0.0,1.0,29.0,0.0,58.0,0.0,306.703850463,,,,,,,,,306.69237702099963,307.04909849399974,307.8544013179999,307.8399590049994,307.8409797489994,307.8544013179999,307.8544013179999,307.8544013179999,,309.8863351029995,,,,,,,,,,,,,,,,,,,,,,,,,,,,,,left,1.0,2.0198172350001187,,,,,sub-150,1,random_dot,56.99354480290222,
right,right,59.0,1.0,29.0,right,1.0,0.3823751690006247,,speed,space,1.974536652000097,,,,,,0.0,0.0,0.0,1.0,29.0,1.0,59.0,1.0,309.89929871799995,,,,,,,,,309.88758234099987,311.08396749999974,311.8934344250001,311.87868252299995,311.8791502389995,311.8934344250001,311.8934344250001,311.8934344250001,,312.2851505849994,,,,,,,,,,,,,,,,,,,,,,,,,,,,,,right,1.0,0.3823751690006247,,,,,sub-150,1,random_dot,56.99354480290222,
,,0.0,0.0,0.0,,,,,speed,space,1.974536652000097,,,,,,0.0,0.0,0.0,1.0,,,,,,,,,,,,,,,,,,,,,,,,,,,,,,,,,,,,,,,,,,,,,,,,,,,,,,,,,,,,sub-150,1,random_dot,56.99354480290222,
right,right,0.0,0.0,0.0,right,1.0,2.143226219999633,,accuracy,space,3.578086357999382,,,,,,0.0,1.0,1.0,0.0,0.0,0.0,0.0,1.0,315.9294088830002,,,,,,,,,315.9160840679997,317.1093799579994,317.910847487,317.8974792749996,317.89783845199963,317.910847487,317.910847487,317.910847487,,320.0718709980001,,,,,,,,,,,,,,,,,,,,,,,312.3022833799996,312.315073064,312.315073064,315.9088998950001,space,3.578086357999382,,right,1.0,2.143226219999633,,,,,sub-150,1,random_dot,56.99354480290222,
left,left,1.0,1.0,0.0,left,1.0,1.2835391650005477,,accuracy,space,3.578086357999382,,,,,,0.0,1.0,1.0,0.0,0.0,1.0,1.0,0.0,320.0845533239999,,,,,,,,,320.0723435919999,320.1730008249997,320.982680737,320.96644649100017,320.9668528880002,320.982680737,320.982680737,320.982680737,,322.27701300899935,,,,,,,,,,,,,,,,,,,,,,,,,,,,,,left,1.0,1.2835391650005477,,,,,sub-150,1,random_dot,56.99354480290222,
right,right,2.0,0.0,1.0,right,1.0,0.7218569099995875,,accuracy,space,3.578086357999382,,,,,,0.0,1.0,1.0,0.0,1.0,0.0,2.0,1.0,322.2889932999997,,,,,,,,,322.27741996699933,322.63191751999966,323.4361214089995,323.4221529790002,323.4230091059999,323.4361214089995,323.4361214089995,323.4361214089995,,324.17155533499954,,,,,,,,,,,,,,,,,,,,,,,,,,,,,,right,1.0,0.7218569099995875,,,,,sub-150,1,random_dot,56.99354480290222,
left,left,3.0,1.0,1.0,right,0.0,0.646343096000237,,accuracy,space,3.578086357999382,,,,,,0.0,1.0,1.0,0.0,1.0,1.0,3.0,0.0,324.1832457119999,,,,,,,,,324.1719460819995,324.9672634919998,325.7686150219997,325.7552524349994,325.7561054379994,325.7686150219997,325.7686150219997,325.7686150219997,,326.43101446199944,,,,,,,,,,,,,,,,,,,,,,,,,,,,,,right,0.0,0.646343096000237,,,,,sub-150,1,random_dot,56.99354480290222,
right,right,4.0,0.0,2.0,right,1.0,2.3677199249996197,,accuracy,space,3.578086357999382,,,,,,0.0,1.0,1.0,0.0,2.0,0.0,4.0,1.0,326.44281141400006,,,,,,,,,326.4314957059996,327.6246435029998,328.42574106699976,328.4111595029999,328.41236588799984,328.42574106699976,328.42574106699976,328.42574106699976,,330.8017658299996,,,,,,,,,,,,,,,,,,,,,,,,,,,,,,right,1.0,2.3677199249996197,,,,,sub-150,1,random_dot,56.99354480290222,
left,left,5.0,1.0,2.0,right,0.0,0.8248928500006514,,accuracy,space,3.578086357999382,,,,,,0.0,1.0,1.0,0.0,2.0,1.0,5.0,0.0,330.81521596199946,,,,,,,,,330.802206544,332.00843454200003,332.81452240399994,332.7999751059997,332.8003386569999,332.81452240399994,332.81452240399994,332.81452240399994,,333.65600639700006,,,,,,,,,,,,,,,,,,,,,,,,,,,,,,right,0.0,0.8248928500006514,,,,,sub-150,1,random_dot,56.99354480290222,
left,left,6.0,0.0,3.0,left,1.0,0.3162737440006822,,accuracy,space,3.578086357999382,,,,,,0.0,1.0,1.0,0.0,3.0,0.0,6.0,0.0,333.6677248010001,,,,,,,,,333.65640912099934,334.8580034369997,335.6667079250001,335.6519574619997,335.65245535599934,335.6667079250001,335.6667079250001,335.6667079250001,,335.99249202099963,,,,,,,,,,,,,,,,,,,,,,,,,,,,,,left,1.0,0.3162737440006822,,,,,sub-150,1,random_dot,56.99354480290222,
right,right,7.0,1.0,3.0,right,1.0,1.0690954150004472,,accuracy,space,3.578086357999382,,,,,,0.0,1.0,1.0,0.0,3.0,1.0,7.0,1.0,336.00442570999985,,,,,,,,,335.99287271899993,336.0982394920002,336.9016507959996,336.888128648,336.88904474299943,336.9016507959996,336.9016507959996,336.9016507959996,,337.9878944339998,,,,,,,,,,,,,,,,,,,,,,,,,,,,,,right,1.0,1.0690954150004472,,,,,sub-150,1,random_dot,56.99354480290222,
left,left,8.0,0.0,4.0,right,0.0,0.7135749520002719,,accuracy,space,3.578086357999382,,,,,,0.0,1.0,1.0,0.0,4.0,0.0,8.0,0.0,337.9997176950001,,,,,,,,,337.9883044729995,338.09160499599966,338.9081806240001,338.8908158329996,338.89132926,338.9081806240001,338.9081806240001,338.9081806240001,,339.635174004,,,,,,,,,,,,,,,,,,,,,,,,,,,,,,right,0.0,0.7135749520002719,,,,,sub-150,1,random_dot,56.99354480290222,
right,right,9.0,1.0,4.0,left,0.0,0.6667035799991936,,accuracy,space,3.578086357999382,,,,,,0.0,1.0,1.0,0.0,4.0,1.0,9.0,1.0,339.648631866,,,,,,,,,339.6358752850001,340.43313556700014,341.2371551649994,341.218489504,341.2190793939999,341.2371551649994,341.2371551649994,341.2371551649994,,341.92194856399965,,,,,,,,,,,,,,,,,,,,,,,,,,,,,,left,0.0,0.6667035799991936,,,,,sub-150,1,random_dot,56.99354480290222,
left,left,10.0,0.0,5.0,right,0.0,0.7159441889998561,,accuracy,space,3.578086357999382,,,,,,0.0,1.0,1.0,0.0,5.0,0.0,10.0,0.0,341.93373790199985,,,,,,,,,341.92233286099963,342.2754356449996,343.0823071240002,343.06644341299943,343.0667993319994,343.0823071240002,343.0823071240002,343.0823071240002,,343.8016759299999,,,,,,,,,,,,,,,,,,,,,,,,,,,,,,right,0.0,0.7159441889998561,,,,,sub-150,1,random_dot,56.99354480290222,
right,right,11.0,1.0,5.0,right,1.0,3.1959460100006254,,accuracy,space,3.578086357999382,,,,,,0.0,1.0,1.0,0.0,5.0,1.0,11.0,1.0,343.81506138199984,,,,,,,,,343.80220421800004,344.15214838799966,344.9602104099995,344.9468291630001,344.9471760380002,344.9602104099995,344.9602104099995,344.9602104099995,,348.17277084299985,,,,,,,,,,,,,,,,,,,,,,,,,,,,,,right,1.0,3.1959460100006254,,,,,sub-150,1,random_dot,56.99354480290222,
left,left,12.0,0.0,6.0,right,0.0,1.7391148099995917,,accuracy,space,3.578086357999382,,,,,,0.0,1.0,1.0,0.0,6.0,0.0,12.0,0.0,348.1847104849994,,,,,,,,,348.1731680189996,348.27111366200006,349.07459605199983,349.05856918799964,349.05893955099964,349.07459605199983,349.07459605199983,349.07459605199983,,350.81803110500005,,,,,,,,,,,,,,,,,,,,,,,,,,,,,,right,0.0,1.7391148099995917,,,,,sub-150,1,random_dot,56.99354480290222,
right,right,13.0,1.0,6.0,left,0.0,0.6627029310002399,,accuracy,space,3.578086357999382,,,,,,0.0,1.0,1.0,0.0,6.0,1.0,13.0,1.0,350.83158506699965,,,,,,,,,350.8184779960002,350.9245008399994,351.7254145759998,351.7108080050002,351.711657502,351.7254145759998,351.7254145759998,351.7254145759998,,352.3938424809994,,,,,,,,,,,,,,,,,,,,,,,,,,,,,,left,0.0,0.6627029310002399,,,,,sub-150,1,random_dot,56.99354480290222,
left,left,14.0,0.0,7.0,left,1.0,2.0581622139998217,,accuracy,space,3.578086357999382,,,,,,0.0,1.0,1.0,0.0,7.0,0.0,14.0,0.0,352.4060816149995,,,,,,,,,352.3942308129999,352.7475972359998,353.5482163979996,353.5336864439996,353.53427130899945,353.5482163979996,353.5482163979996,353.5482163979996,,355.6236310439999,,,,,,,,,,,,,,,,,,,,,,,,,,,,,,left,1.0,2.0581622139998217,,,,,sub-150,1,random_dot,56.99354480290222,
right,right,15.0,1.0,7.0,right,1.0,1.927113931999884,,accuracy,space,3.578086357999382,,,,,,0.0,1.0,1.0,0.0,7.0,1.0,15.0,1.0,355.6353441299998,,,,,,,,,355.6240189649998,356.42583174299943,357.2323415209994,357.21580586299933,357.2162288190002,357.2323415209994,357.2323415209994,357.2323415209994,,359.1734483609998,,,,,,,,,,,,,,,,,,,,,,,,,,,,,,right,1.0,1.927113931999884,,,,,sub-150,1,random_dot,56.99354480290222,
left,left,16.0,0.0,8.0,right,0.0,1.8215950390003852,,accuracy,space,3.578086357999382,,,,,,0.0,1.0,1.0,0.0,8.0,0.0,16.0,0.0,359.1855469329994,,,,,,,,,359.1739453419996,360.3753787449996,361.1715347499994,361.1586419919995,361.15902001999984,361.1715347499994,361.1715347499994,361.1715347499994,,363.0077661309997,,,,,,,,,,,,,,,,,,,,,,,,,,,,,,right,0.0,1.8215950390003852,,,,,sub-150,1,random_dot,56.99354480290222,
right,right,17.0,1.0,8.0,right,1.0,1.492351251999935,,accuracy,space,3.578086357999382,,,,,,0.0,1.0,1.0,0.0,8.0,1.0,17.0,1.0,363.0242232499995,,,,,,,,,363.0081443049994,364.2029901030001,365.0006142819993,364.9880271149996,364.9883744029994,365.0006142819993,365.0006142819993,365.0006142819993,,366.515071201,,,,,,,,,,,,,,,,,,,,,,,,,,,,,,right,1.0,1.492351251999935,,,,,sub-150,1,random_dot,56.99354480290222,
right,right,18.0,0.0,9.0,right,1.0,1.2975646590002723,,accuracy,space,3.578086357999382,,,,,,0.0,1.0,1.0,0.0,9.0,0.0,18.0,1.0,366.5396123069995,,,,,,,,,366.51568150299954,366.86967337399983,367.6861168770001,367.6685911779996,367.6691851189999,367.6861168770001,367.6861168770001,367.6861168770001,,368.9934869179997,,,,,,,,,,,,,,,,,,,,,,,,,,,,,,right,1.0,1.2975646590002723,,,,,sub-150,1,random_dot,56.99354480290222,
left,left,19.0,1.0,9.0,right,0.0,2.534634081999684,,accuracy,space,3.578086357999382,,,,,,0.0,1.0,1.0,0.0,9.0,1.0,19.0,0.0,369.0056016190001,,,,,,,,,368.99387150799976,369.8007076929998,370.6052012579994,370.5917549710002,370.5921382309998,370.6052012579994,370.6052012579994,370.6052012579994,,373.154765706,,,,,,,,,,,,,,,,,,,,,,,,,,,,,,right,0.0,2.534634081999684,,,,,sub-150,1,random_dot,56.99354480290222,
left,left,20.0,0.0,10.0,right,0.0,2.751495987000453,,accuracy,space,3.578086357999382,,,,,,0.0,1.0,1.0,0.0,10.0,0.0,20.0,0.0,373.16666546599936,,,,,,,,,373.1551634950001,373.5115884079996,374.32430167799976,374.3067863269998,374.3072892989994,374.32430167799976,374.32430167799976,374.32430167799976,,377.0910653029996,,,,,,,,,,,,,,,,,,,,,,,,,,,,,,right,0.0,2.751495987000453,,,,,sub-150,1,random_dot,56.99354480290222,
right,right,21.0,1.0,10.0,right,1.0,1.585080533999644,,accuracy,space,3.578086357999382,,,,,,0.0,1.0,1.0,0.0,10.0,1.0,21.0,1.0,377.1073789439997,,,,,,,,,377.0914476349999,377.43812886199976,378.2486451509994,378.23199213599946,378.2323879309997,378.2486451509994,378.2486451509994,378.2486451509994,,379.8433375320001,,,,,,,,,,,,,,,,,,,,,,,,,,,,,,right,1.0,1.585080533999644,,,,,sub-150,1,random_dot,56.99354480290222,
left,left,22.0,0.0,11.0,right,0.0,1.673419658000057,,accuracy,space,3.578086357999382,,,,,,0.0,1.0,1.0,0.0,11.0,0.0,22.0,0.0,379.8594504140001,,,,,,,,,379.8437224449999,380.19097157599936,380.9925596379999,380.9753139839995,380.97566834200006,380.9925596379999,380.9925596379999,380.9925596379999,,382.6763505469999,,,,,,,,,,,,,,,,,,,,,,,,,,,,,,right,0.0,1.673419658000057,,,,,sub-150,1,random_dot,56.99354480290222,
right,right,23.0,1.0,11.0,right,1.0,3.158945471000152,,accuracy,space,3.578086357999382,,,,,,0.0,1.0,1.0,0.0,11.0,1.0,23.0,1.0,382.69118967399936,,,,,,,,,382.6767326899999,383.8750566849994,384.6777215949997,384.66370207,384.6640869980001,384.6777215949997,384.6777215949997,384.6777215949997,,387.8546143699996,,,,,,,,,,,,,,,,,,,,,,,,,,,,,,right,1.0,3.158945471000152,,,,,sub-150,1,random_dot,56.99354480290222,
left,left,24.0,0.0,12.0,right,0.0,0.9178671949994168,,accuracy,space,3.578086357999382,,,,,,0.0,1.0,1.0,0.0,12.0,0.0,24.0,0.0,387.8665059670002,,,,,,,,,387.85500272899935,389.0636681870001,389.873167918,389.8583277789994,389.8592935529996,389.873167918,389.873167918,389.873167918,,390.8076072009999,,,,,,,,,,,,,,,,,,,,,,,,,,,,,,right,0.0,0.9178671949994168,,,,,sub-150,1,random_dot,56.99354480290222,
right,right,25.0,1.0,12.0,right,1.0,1.644857821000187,,accuracy,space,3.578086357999382,,,,,,0.0,1.0,1.0,0.0,12.0,1.0,25.0,1.0,390.82428471,,,,,,,,,390.8079834,391.15808708499935,391.96844600999975,391.9552746439995,391.9559358739998,391.96844600999975,391.96844600999975,391.96844600999975,,393.6244053319997,,,,,,,,,,,,,,,,,,,,,,,,,,,,,,right,1.0,1.644857821000187,,,,,sub-150,1,random_dot,56.99354480290222,
right,right,26.0,0.0,13.0,right,1.0,1.1087260739996054,,accuracy,space,3.578086357999382,,,,,,0.0,1.0,1.0,0.0,13.0,0.0,26.0,1.0,393.6405322499995,,,,,,,,,393.6247885809999,394.4180308139994,395.3228328579999,395.2035739349994,395.2047553699995,395.3228328579999,395.3228328579999,395.3228328579999,,396.4348939949996,,,,,,,,,,,,,,,,,,,,,,,,,,,,,,right,1.0,1.1087260739996054,,,,,sub-150,1,random_dot,56.99354480290222,
left,left,27.0,1.0,13.0,right,0.0,0.9669667600001048,,accuracy,space,3.578086357999382,,,,,,0.0,1.0,1.0,0.0,13.0,1.0,27.0,0.0,396.4483201209996,,,,,,,,,396.4364385379995,397.6376275319999,398.447653964,398.4310782299999,398.43145324599936,398.447653964,398.447653964,398.447653964,,399.4216176079999,,,,,,,,,,,,,,,,,,,,,,,,,,,,,,right,0.0,0.9669667600001048,,,,,sub-150,1,random_dot,56.99354480290222,
right,right,28.0,0.0,14.0,right,1.0,0.8892408299998351,,accuracy,space,3.578086357999382,,,,,,0.0,1.0,1.0,0.0,14.0,0.0,28.0,1.0,399.4337485750002,,,,,,,,,399.4220073440001,400.2278095239999,401.0304492519999,401.01587618099984,401.0162664170002,401.0304492519999,401.0304492519999,401.0304492519999,,401.9351895489999,,,,,,,,,,,,,,,,,,,,,,,,,,,,,,right,1.0,0.8892408299998351,,,,,sub-150,1,random_dot,56.99354480290222,
left,left,29.0,1.0,14.0,left,1.0,1.3946510929999931,,accuracy,space,3.578086357999382,,,,,,0.0,1.0,1.0,0.0,14.0,1.0,29.0,0.0,401.9478031620001,,,,,,,,,401.9363620289996,402.2947941929997,403.1046255989995,403.0914295169996,403.09180545900017,403.1046255989995,403.1046255989995,403.1046255989995,,404.5170475349996,,,,,,,,,,,,,,,,,,,,,,,,,,,,,,left,1.0,1.3946510929999931,,,,,sub-150,1,random_dot,56.99354480290222,
right,right,30.0,0.0,15.0,right,1.0,0.308997215999625,,accuracy,space,3.578086357999382,,,,,,0.0,1.0,1.0,0.0,15.0,0.0,30.0,1.0,404.5301820529994,,,,,,,,,404.5175747479998,405.7198665169999,406.5239704429996,406.5087404039996,406.50977678599975,406.5239704429996,406.5239704429996,406.5239704429996,,406.8387135080002,,,,,,,,,,,,,,,,,,,,,,,,,,,,,,right,1.0,0.308997215999625,,,,,sub-150,1,random_dot,56.99354480290222,
left,left,31.0,1.0,15.0,left,1.0,0.2876637529998334,,accuracy,space,3.578086357999382,,,,,,0.0,1.0,1.0,0.0,15.0,1.0,31.0,0.0,406.8506040759994,,,,,,,,,406.8392094569999,406.9571551549998,407.7672115710002,407.7525248459997,407.7536784899994,407.7672115710002,407.7672115710002,407.7672115710002,,408.072263043,,,,,,,,,,,,,,,,,,,,,,,,,,,,,,left,1.0,0.2876637529998334,,,,,sub-150,1,random_dot,56.99354480290222,
left,left,32.0,0.0,16.0,right,0.0,0.9349278379995668,,accuracy,space,3.578086357999382,,,,,,0.0,1.0,1.0,0.0,16.0,0.0,32.0,0.0,408.0839362429997,,,,,,,,,408.0726439270002,408.42952432199945,409.2379861279997,409.2238982039999,409.224950156,409.2379861279997,409.2379861279997,409.2379861279997,,410.1890846870001,,,,,,,,,,,,,,,,,,,,,,,,,,,,,,right,0.0,0.9349278379995668,,,,,sub-150,1,random_dot,56.99354480290222,
right,right,33.0,1.0,16.0,right,1.0,2.513486140999703,,accuracy,space,3.578086357999382,,,,,,0.0,1.0,1.0,0.0,16.0,1.0,33.0,1.0,410.2008442489996,,,,,,,,,410.1894736280001,410.28767898299975,411.09329299099954,411.0797278119999,411.0801309239996,411.09329299099954,411.09329299099954,411.09329299099954,,413.6251180879999,,,,,,,,,,,,,,,,,,,,,,,,,,,,,,right,1.0,2.513486140999703,,,,,sub-150,1,random_dot,56.99354480290222,
right,right,34.0,0.0,17.0,right,1.0,1.6722821140001545,,accuracy,space,3.578086357999382,,,,,,0.0,1.0,1.0,0.0,17.0,0.0,34.0,1.0,413.6373074029998,,,,,,,,,413.62550735199966,414.42819738099934,415.2337329889997,415.221066862,415.2214524410001,415.2337329889997,415.2337329889997,415.2337329889997,,416.9266544849997,,,,,,,,,,,,,,,,,,,,,,,,,,,,,,right,1.0,1.6722821140001545,,,,,sub-150,1,random_dot,56.99354480290222,
left,left,35.0,1.0,17.0,right,0.0,1.9172474619999773,,accuracy,space,3.578086357999382,,,,,,0.0,1.0,1.0,0.0,17.0,1.0,35.0,0.0,416.9369061489997,,,,,,,,,416.9270375509996,417.7305712359994,418.53921343899947,418.5248391569994,418.5258688779995,418.53921343899947,418.53921343899947,418.53921343899947,,420.4684763129999,,,,,,,,,,,,,,,,,,,,,,,,,,,,,,right,0.0,1.9172474619999773,,,,,sub-150,1,random_dot,56.99354480290222,
right,right,36.0,0.0,18.0,right,1.0,1.580143526000029,,accuracy,space,3.578086357999382,,,,,,0.0,1.0,1.0,0.0,18.0,0.0,36.0,1.0,420.4821197239999,,,,,,,,,420.4699544269997,421.2690478839995,422.07385751999936,422.0577714479996,422.058143196,422.07385751999936,422.07385751999936,422.07385751999936,,423.65923817600014,,,,,,,,,,,,,,,,,,,,,,,,,,,,,,right,1.0,1.580143526000029,,,,,sub-150,1,random_dot,56.99354480290222,
left,left,37.0,1.0,18.0,right,0.0,1.892630119000387,,accuracy,space,3.578086357999382,,,,,,0.0,1.0,1.0,0.0,18.0,1.0,37.0,0.0,423.6715960679994,,,,,,,,,423.65962298199975,424.01601360399945,424.82345950999934,424.8057397269995,424.8060990489994,424.82345950999934,424.82345950999934,424.82345950999934,,426.72557704300016,,,,,,,,,,,,,,,,,,,,,,,,,,,,,,right,0.0,1.892630119000387,,,,,sub-150,1,random_dot,56.99354480290222,
left,left,38.0,0.0,19.0,right,0.0,0.9883076660007646,,accuracy,space,3.578086357999382,,,,,,0.0,1.0,1.0,0.0,19.0,0.0,38.0,0.0,426.7375791479999,,,,,,,,,426.7259631299994,426.84010978900005,427.6375206299999,427.6242593050001,427.62463620499966,427.6375206299999,427.6375206299999,427.6375206299999,,428.63409470499937,,,,,,,,,,,,,,,,,,,,,,,,,,,,,,right,0.0,0.9883076660007646,,,,,sub-150,1,random_dot,56.99354480290222,
right,right,39.0,1.0,19.0,right,1.0,2.233715465999921,,accuracy,space,3.578086357999382,,,,,,0.0,1.0,1.0,0.0,19.0,1.0,39.0,1.0,428.6470317429994,,,,,,,,,428.6345684759999,429.4404522699997,430.2416861259999,430.2276917019999,430.22857433599984,430.2416861259999,430.2416861259999,430.2416861259999,,432.4840279780001,,,,,,,,,,,,,,,,,,,,,,,,,,,,,,right,1.0,2.233715465999921,,,,,sub-150,1,random_dot,56.99354480290222,
right,right,40.0,0.0,20.0,left,0.0,1.3576217449999604,,accuracy,space,3.578086357999382,,,,,,0.0,1.0,1.0,0.0,20.0,0.0,40.0,1.0,432.49719111600007,,,,,,,,,432.484517375,432.8365166369995,433.6466103120001,433.63124496,433.6317562659997,433.6466103120001,433.6466103120001,433.6466103120001,,435.0169512969997,,,,,,,,,,,,,,,,,,,,,,,,,,,,,,left,0.0,1.3576217449999604,,,,,sub-150,1,random_dot,56.99354480290222,
left,left,41.0,1.0,20.0,right,0.0,1.579625866999777,,accuracy,space,3.578086357999382,,,,,,0.0,1.0,1.0,0.0,20.0,1.0,41.0,0.0,435.0302338430001,,,,,,,,,435.01746990099946,436.2238242819994,437.0236516139994,437.00755723899965,437.007935056,437.0236516139994,437.0236516139994,437.0236516139994,,438.6196731569999,,,,,,,,,,,,,,,,,,,,,,,,,,,,,,right,0.0,1.579625866999777,,,,,sub-150,1,random_dot,56.99354480290222,
left,left,42.0,0.0,21.0,right,0.0,2.25334459899932,,accuracy,space,3.578086357999382,,,,,,0.0,1.0,1.0,0.0,21.0,0.0,42.0,0.0,438.6315547049999,,,,,,,,,438.6200847459995,439.820454269,440.6383373009994,440.6135113680002,440.6138689849995,440.6383373009994,440.6383373009994,440.6383373009994,,442.9066043739994,,,,,,,,,,,,,,,,,,,,,,,,,,,,,,right,0.0,2.25334459899932,,,,,sub-150,1,random_dot,56.99354480290222,
right,right,43.0,1.0,21.0,right,1.0,1.3024486930007697,,accuracy,space,3.578086357999382,,,,,,0.0,1.0,1.0,0.0,21.0,1.0,43.0,1.0,442.9232883679997,,,,,,,,,442.906982552,443.7123730200001,444.513953783,444.49896285700015,444.49945038999977,444.513953783,444.513953783,444.513953783,,445.8221548699994,,,,,,,,,,,,,,,,,,,,,,,,,,,,,,right,1.0,1.3024486930007697,,,,,sub-150,1,random_dot,56.99354480290222,
right,right,44.0,0.0,22.0,left,0.0,4.548226674999569,,accuracy,space,3.578086357999382,,,,,,0.0,1.0,1.0,0.0,22.0,0.0,44.0,1.0,445.8359589649999,,,,,,,,,445.82270182199954,447.0222871639999,447.839931169,447.82366463499966,447.82400716199936,447.839931169,447.839931169,447.839931169,,452.409119555,,,,,,,,,,,,,,,,,,,,,,,,,,,,,,left,0.0,4.548226674999569,,,,,sub-150,1,random_dot,56.99354480290222,
left,left,45.0,1.0,22.0,right,0.0,3.098430625999754,,accuracy,space,3.578086357999382,,,,,,0.0,1.0,1.0,0.0,22.0,1.0,45.0,0.0,452.4204914129996,,,,,,,,,452.40955367100014,452.51064241399945,453.3141590989999,453.2997095769997,453.300192789,453.3141590989999,453.3141590989999,453.3141590989999,,456.41872614899967,,,,,,,,,,,,,,,,,,,,,,,,,,,,,,right,0.0,3.098430625999754,,,,,sub-150,1,random_dot,56.99354480290222,
right,right,46.0,0.0,23.0,right,1.0,1.2066577360001247,,accuracy,space,3.578086357999382,,,,,,0.0,1.0,1.0,0.0,23.0,0.0,46.0,1.0,456.4311150409994,,,,,,,,,456.4196530499994,456.7676851369997,457.5683691909999,457.5526514630001,457.55396480999934,457.5683691909999,457.5683691909999,457.5683691909999,,458.78544262299965,,,,,,,,,,,,,,,,,,,,,,,,,,,,,,right,1.0,1.2066577360001247,,,,,sub-150,1,random_dot,56.99354480290222,
left,left,47.0,1.0,23.0,left,1.0,2.4204087239995715,,accuracy,space,3.578086357999382,,,,,,0.0,1.0,1.0,0.0,23.0,1.0,47.0,0.0,458.79757968099966,,,,,,,,,458.7860880769995,459.1406882599995,459.9508396219999,459.93706619600016,459.9380903499996,459.9508396219999,459.9508396219999,459.9508396219999,,462.38771853399976,,,,,,,,,,,,,,,,,,,,,,,,,,,,,,left,1.0,2.4204087239995715,,,,,sub-150,1,random_dot,56.99354480290222,
left,left,48.0,0.0,24.0,right,0.0,1.5872588350002843,,accuracy,space,3.578086357999382,,,,,,0.0,1.0,1.0,0.0,24.0,0.0,48.0,0.0,462.3995092939995,,,,,,,,,462.3881040389997,462.48949352899945,463.2904030239997,463.2756340779997,463.27655522199984,463.2904030239997,463.2904030239997,463.2904030239997,,464.8871538200001,,,,,,,,,,,,,,,,,,,,,,,,,,,,,,right,0.0,1.5872588350002843,,,,,sub-150,1,random_dot,56.99354480290222,
right,right,49.0,1.0,24.0,right,1.0,2.101637173999734,,accuracy,space,3.578086357999382,,,,,,0.0,1.0,1.0,0.0,24.0,1.0,49.0,1.0,464.89884868899935,,,,,,,,,464.8875413759997,465.6866078539997,466.5063727389997,466.48858794699936,466.488963496,466.5063727389997,466.5063727389997,466.5063727389997,,468.6175386529994,,,,,,,,,,,,,,,,,,,,,,,,,,,,,,right,1.0,2.101637173999734,,,,,sub-150,1,random_dot,56.99354480290222,
right,right,50.0,0.0,25.0,right,1.0,1.9148743649993776,,accuracy,space,3.578086357999382,,,,,,0.0,1.0,1.0,0.0,25.0,0.0,50.0,1.0,468.63124620100007,,,,,,,,,468.6191830259995,468.7237828319994,469.53142753300017,469.5141013470002,469.514538765,469.53142753300017,469.53142753300017,469.53142753300017,,471.4562519860001,,,,,,,,,,,,,,,,,,,,,,,,,,,,,,right,1.0,1.9148743649993776,,,,,sub-150,1,random_dot,56.99354480290222,
left,left,51.0,1.0,25.0,right,0.0,1.9041521799999828,,accuracy,space,3.578086357999382,,,,,,0.0,1.0,1.0,0.0,25.0,1.0,51.0,0.0,471.4733061699999,,,,,,,,,471.4566354520002,471.5607945419997,472.36813202899975,472.35406556699945,472.3552065550002,472.36813202899975,472.36813202899975,472.36813202899975,,474.291531074,,,,,,,,,,,,,,,,,,,,,,,,,,,,,,right,0.0,1.9041521799999828,,,,,sub-150,1,random_dot,56.99354480290222,
right,right,52.0,0.0,26.0,right,1.0,1.0011172869999427,,accuracy,space,3.578086357999382,,,,,,0.0,1.0,1.0,0.0,26.0,0.0,52.0,1.0,474.3065941529994,,,,,,,,,474.29193165299966,475.08935030799967,475.8970460579994,475.8798871179997,475.8803982299996,475.8970460579994,475.8970460579994,475.8970460579994,,476.9183655119996,,,,,,,,,,,,,,,,,,,,,,,,,,,,,,right,1.0,1.0011172869999427,,,,,sub-150,1,random_dot,56.99354480290222,
left,left,53.0,1.0,26.0,right,0.0,2.112886738999805,,accuracy,space,3.578086357999382,,,,,,0.0,1.0,1.0,0.0,26.0,1.0,53.0,0.0,476.9293400050001,,,,,,,,,476.91970791099993,477.015212411,477.8170282789997,477.80274945200017,477.80385021099937,477.8170282789997,477.8170282789997,477.8170282789997,,479.9374604909999,,,,,,,,,,,,,,,,,,,,,,,,,,,,,,right,0.0,2.112886738999805,,,,,sub-150,1,random_dot,56.99354480290222,
left,left,54.0,0.0,27.0,right,0.0,0.9971908830002576,,accuracy,space,3.578086357999382,,,,,,0.0,1.0,1.0,0.0,27.0,0.0,54.0,0.0,479.9493564109998,,,,,,,,,479.93785168700015,481.13546232499993,481.9342571870002,481.9212471419996,481.9216596460001,481.9342571870002,481.9342571870002,481.9342571870002,,482.94047723099993,,,,,,,,,,,,,,,,,,,,,,,,,,,,,,right,0.0,0.9971908830002576,,,,,sub-150,1,random_dot,56.99354480290222,
right,right,55.0,1.0,27.0,right,1.0,1.1139714619994263,,accuracy,space,3.578086357999382,,,,,,0.0,1.0,1.0,0.0,27.0,1.0,55.0,1.0,482.9530067229998,,,,,,,,,482.94100181999966,483.2862714029998,484.0909756780002,484.0775719049998,484.0779570819996,484.0909756780002,484.0909756780002,484.0909756780002,,485.2211587169995,,,,,,,,,,,,,,,,,,,,,,,,,,,,,,right,1.0,1.1139714619994263,,,,,sub-150,1,random_dot,56.99354480290222,
left,left,56.0,0.0,28.0,right,0.0,1.8900945689993025,,accuracy,space,3.578086357999382,,,,,,0.0,1.0,1.0,0.0,28.0,0.0,56.0,0.0,485.23277375699945,,,,,,,,,485.2215565179995,486.0221005980002,486.8328445489997,486.81845275700016,486.8191799699998,486.8328445489997,486.8328445489997,486.8328445489997,,488.738250892,,,,,,,,,,,,,,,,,,,,,,,,,,,,,,right,0.0,1.8900945689993025,,,,,sub-150,1,random_dot,56.99354480290222,
right,right,57.0,1.0,28.0,left,0.0,1.431167017000007,,accuracy,space,3.578086357999382,,,,,,0.0,1.0,1.0,0.0,28.0,1.0,57.0,1.0,488.74990550299935,,,,,,,,,488.7386430669994,488.83801838599993,489.6470310169998,489.6307104569996,489.6310762109997,489.6470310169998,489.6470310169998,489.6470310169998,,491.098175864,,,,,,,,,,,,,,,,,,,,,,,,,,,,,,left,0.0,1.431167017000007,,,,,sub-150,1,random_dot,56.99354480290222,
left,left,58.0,0.0,29.0,left,1.0,2.695231609000075,,accuracy,space,3.578086357999382,,,,,,0.0,1.0,1.0,0.0,29.0,0.0,58.0,0.0,491.1105458189995,,,,,,,,,491.0985744319996,491.896516754,492.7081492219995,492.69461359700017,492.69498907900015,492.7081492219995,492.7081492219995,492.7081492219995,,495.41342305799935,,,,,,,,,,,,,,,,,,,,,,,,,,,,,,left,1.0,2.695231609000075,,,,,sub-150,1,random_dot,56.99354480290222,
right,right,59.0,1.0,29.0,right,1.0,0.843586547999621,,accuracy,space,3.578086357999382,,,,,,0.0,1.0,1.0,0.0,29.0,1.0,59.0,1.0,495.42554460500014,,,,,,,,,495.41383333500016,496.2202808309994,497.02139791899936,497.0070405209999,497.00802150099935,497.02139791899936,497.02139791899936,497.02139791899936,,497.8749123970001,,,,,,,,,,,,,,,,,,,,,,,,,,,,,,right,1.0,0.843586547999621,,,,,sub-150,1,random_dot,56.99354480290222,
,,1.0,1.0,0.0,,,,,accuracy,space,3.578086357999382,,,,,,0.0,1.0,1.0,0.0,,,,,,,,,,,,,,,,,,,,,,,,,,,,,,,,,,,,,,,,,,,,,,,,,,,,,,,,,,,,sub-150,1,random_dot,56.99354480290222,
,,,,,,,,,,,,,,,,,,,,,,,,,,,,,,,,,,,,,,,,,,,,,,,,,,,,,,,,,,,,,,,,,,,,,,,,,,,,,497.8802197320001,497.8950301569994,502.8838479629994,sub-150,1,random_dot,56.99354480290222,
