direction,corrAns,randomInstr,practice_trials.thisRepN,practice_trials.thisTrialN,practice_trials.thisN,practice_trials.thisIndex,instr_trials.thisRepN,instr_trials.thisTrialN,instr_trials.thisN,instr_trials.thisIndex,test_trials.thisRepN,test_trials.thisTrialN,test_trials.thisN,test_trials.thisIndex,thisRow.t,notes,general_instruction.started,textGeneralInstr.started,respGeneralInstr.started,general_instruction.stopped,respGeneralInstr.keys,respGeneralInstr.rt,respGeneralInstr.duration,ITI.started,fixcross.started,fixcross.stopped,ITI.stopped,dots.started,backgroundDots.started,stimulusDots.started,respDots.started,stimulusDots.stopped,dots.stopped,respDots.keys,respDots.corr,respDots.rt,respDots.duration,feedback.started,textFeedback.started,feedback.stopped,textFeedback.stopped,info.started,textInfo.started,keyRespInfo.started,info.stopped,keyRespInfo.keys,keyRespInfo.rt,keyRespInfo.duration,test_instruction.started,textTestInstr.started,respTestInstr.started,test_instruction.stopped,respTestInstr.keys,respTestInstr.rt,respTestInstr.duration,random_instruction.started,textRandomInstr.started,respRandomInstr.started,random_instruction.stopped,respRandomInstr.keys,respRandomInstr.rt,respRandomInstr.duration,goodbye.started,textGoodbye.started,textGoodbye.stopped,goodbye.stopped,participant,session,date,expName,psychopyVersion,frameRate,expStart
,,,,,,,,,,,,,,,,,0.0026808,0.005623,0.005623,26.967029,space,45.9670837,None,,,,,,,,,,,,,,,,,,,,,,,,,,,,,,,,,,,,,,,,,,,,sub-013,1,2025-03-13_13h47.04.955,random_dot,03.02.2023,60.028946,2025-03-13 13h47.16.909199 +0100
left,left,,0,0,0,0,,,,,,,,,26.9909201,,,,,,,,,26.9871577,28.1811223,28.9924907,28.96595,28.9660105,28.9924907,28.9924907,28.9924907,33.9811884,45.7489297,right,0,35.762524,None,45.7504174,45.7654862,46.263273,,,,,,,,,,,,,,,,,,,,,,,,,,,sub-013,1,2025-03-13_13h47.04.955,random_dot,03.02.2023,60.028946,2025-03-13 13h47.16.909199 +0100
right,right,,0,1,1,1,,,,,,,,,46.279878,,,,,,,,,46.264147,46.613564,47.4141384,47.3982407,47.3983131,47.4141384,47.4141384,47.4141384,52.413465,54.6986654,left,0,26.2920824,None,54.6997478,54.7128399,55.1979241,55.2131299,,,,,,,,,,,,,,,,,,,,,,,,,,sub-013,1,2025-03-13_13h47.04.955,random_dot,03.02.2023,60.028946,2025-03-13 13h47.16.909199 +0100
right,right,,1,0,2,1,,,,,,,,,55.2131299,,,,,,,,,55.1991995,55.3133595,56.1138128,56.0982436,56.0983,56.1138128,56.1138128,56.1138128,61.1133086,61.3823647,right,1,24.2806074,None,61.3838494,61.3987477,61.8962645,,,,,,,,,,,,,,,,,,,,,,,,,,,sub-013,1,2025-03-13_13h47.04.955,random_dot,03.02.2023,60.028946,2025-03-13 13h47.16.909199 +0100
left,left,,1,1,3,0,,,,,,,,,61.9124785,,,,,,,,,61.897169,63.0957157,63.896646,63.8807504,63.8807962,63.896646,63.896646,63.896646,68.8955937,69.3146696,right,0,24.4277861,None,69.3155077,69.3286965,69.813507,69.8287506,,,,,,,,,,,,,,,,,,,,,,,,,,sub-013,1,2025-03-13_13h47.04.955,random_dot,03.02.2023,60.028946,2025-03-13 13h47.16.909199 +0100
right,right,,2,0,4,1,,,,,,,,,69.8287506,,,,,,,,,69.8144077,70.1789602,70.97882,70.9628792,70.9629048,70.97882,70.97882,70.97882,75.9629569,76.548543,left,0,24.579564,None,76.5496588,76.5618442,77.0469905,77.0617028,,,,,,,,,,,,,,,,,,,,,,,,,,sub-013,1,2025-03-13_13h47.04.955,random_dot,03.02.2023,60.028946,2025-03-13 13h47.16.909199 +0100
left,left,,2,1,5,0,,,,,,,,,77.0617028,,,,,,,,,77.0480756,78.2617786,79.0622019,79.0466159,79.0466726,79.0622019,79.0622019,79.0622019,84.0623069,85.0659892,right,0,25.0223051,None,85.0672322,85.0778444,85.5629147,85.5780837,,,,,,,,,,,,,,,,,,,,,,,,,,sub-013,1,2025-03-13_13h47.04.955,random_dot,03.02.2023,60.028946,2025-03-13 13h47.16.909199 +0100
left,left,,3,0,6,0,,,,,,,,,85.5780837,,,,,,,,,85.5638128,85.678138,86.4785266,86.4630757,86.4632283,86.4785266,86.4785266,86.4785266,91.478705,92.0646538,left,1,24.5997482,None,92.065781,92.0775796,92.5629016,92.5776741,,,,,,,,,,,,,,,,,,,,,,,,,,sub-013,1,2025-03-13_13h47.04.955,random_dot,03.02.2023,60.028946,2025-03-13 13h47.16.909199 +0100
right,right,,3,1,7,1,,,,,,,,,92.5776741,,,,,,,,,92.5640122,93.7776959,94.5780839,94.5622394,94.5622941,94.5780839,94.5780839,94.5780839,99.5613182,100.4461227,right,1,24.8809125,None,100.4471034,100.4603275,100.9454539,100.9605748,,,,,,,,,,,,,,,,,,,,,,,,,,sub-013,1,2025-03-13_13h47.04.955,random_dot,03.02.2023,60.028946,2025-03-13 13h47.16.909199 +0100
right,right,,4,0,8,1,,,,,,,,,100.9605748,,,,,,,,,100.9463545,101.0607015,101.8610262,101.8452815,101.8453263,101.8610262,101.8610262,101.8610262,106.8609164,107.7283825,right,1,24.8760364,None,107.7293022,107.7431432,108.2276857,108.2432923,,,,,,,,,,,,,,,,,,,,,,,,,,sub-013,1,2025-03-13_13h47.04.955,random_dot,03.02.2023,60.028946,2025-03-13 13h47.16.909199 +0100
left,left,,4,1,9,0,,,,,,,,,108.2432923,,,,,,,,,108.2279983,108.5930539,109.3937605,109.37699,109.3770359,109.3937605,109.3937605,109.3937605,114.3771965,115.0479052,left,1,24.6733084,None,115.0485476,115.0596188,115.5443275,115.5600455,,,,,,,,,,,,,,,,,,,,,,,,,,sub-013,1,2025-03-13_13h47.04.955,random_dot,03.02.2023,60.028946,2025-03-13 13h47.16.909199 +0100
right,right,,5,0,10,1,,,,,,,,,115.5600455,,,,,,,,,115.5455711,116.3593492,117.1600855,117.1440694,117.1441318,117.1600855,117.1600855,117.1600855,122.1432267,123.078968,left,0,24.9329775,None,123.0803387,123.0926268,123.5782177,123.5930082,,,,,,,,,,,,,,,,,,,,,,,,,,sub-013,1,2025-03-13_13h47.04.955,random_dot,03.02.2023,60.028946,2025-03-13 13h47.16.909199 +0100
left,left,,5,1,11,0,,,,,,,,,123.5930082,,,,,,,,,123.5792393,124.3926084,125.1932289,125.1780482,125.1781053,125.1932289,125.1932289,125.1932289,130.1930109,131.2110125,left,1,25.0340834,None,131.2120725,131.2254712,131.7106053,131.7257725,,,,,,,,,,,,,,,,,,,,,,,,,,sub-013,1,2025-03-13_13h47.04.955,random_dot,03.02.2023,60.028946,2025-03-13 13h47.16.909199 +0100
right,right,,6,0,12,1,,,,,,,,,131.7257725,,,,,,,,,131.7115034,132.075987,132.8762908,132.8604954,132.8605604,132.8762908,132.8762908,132.8762908,137.8756634,139.0277253,right,1,25.1620979,None,139.0287997,139.0419195,139.5275408,139.5419001,,,,,,,,,,,,,,,,,,,,,,,,,,sub-013,1,2025-03-13_13h47.04.955,random_dot,03.02.2023,60.028946,2025-03-13 13h47.16.909199 +0100
left,left,,6,1,13,0,,,,,,,,,139.5419001,,,,,,,,,139.5289991,140.7420637,141.5424623,141.5267195,141.526765,141.5424623,141.5424623,141.5424623,146.542415,147.7939854,right,0,25.2610603,None,147.7950268,147.8082606,148.293364,148.3079886,,,,,,,,,,,,,,,,,,,,,,,,,,sub-013,1,2025-03-13_13h47.04.955,random_dot,03.02.2023,60.028946,2025-03-13 13h47.16.909199 +0100
right,right,,7,0,14,1,,,,,,,,,148.3079886,,,,,,,,,148.2945335,149.1080987,149.9084319,149.8927218,149.8927672,149.9084319,149.9084319,149.9084319,154.8920979,156.9111823,left,0,26.0231692,None,156.912221,156.9238932,157.4089517,157.4241683,,,,,,,,,,,,,,,,,,,,,,,,,,sub-013,1,2025-03-13_13h47.04.955,random_dot,03.02.2023,60.028946,2025-03-13 13h47.16.909199 +0100
left,left,,7,1,15,0,,,,,,,,,157.4241683,,,,,,,,,157.4099305,157.5243679,158.3246934,158.3086732,158.3087162,158.3246934,158.3246934,158.3246934,163.308033,164.5109468,right,0,25.1908979,None,164.5122749,164.523939,165.0089676,165.0238195,,,,,,,,,,,,,,,,,,,,,,,,,,sub-013,1,2025-03-13_13h47.04.955,random_dot,03.02.2023,60.028946,2025-03-13 13h47.16.909199 +0100
left,left,,8,0,16,0,,,,,,,,,165.0238195,,,,,,,,,165.0097995,165.82409,166.6246972,166.6089041,166.6089717,166.6246972,166.6246972,166.6246972,171.6244375,173.4596732,left,1,25.8526902,None,173.4614761,173.4730352,173.9584712,173.9733553,,,,,,,,,,,,,,,,,,,,,,,,,,sub-013,1,2025-03-13_13h47.04.955,random_dot,03.02.2023,60.028946,2025-03-13 13h47.16.909199 +0100
right,right,,8,1,17,1,,,,,,,,,173.9733553,,,,,,,,,173.9593277,174.7737389,175.5745489,175.5586235,175.5587045,175.5745489,175.5745489,175.5745489,180.573797,182.227163,right,1,25.6703318,None,182.2285886,182.2397052,182.7249616,182.7398412,,,,,,,,,,,,,,,,,,,,,,,,,,sub-013,1,2025-03-13_13h47.04.955,random_dot,03.02.2023,60.028946,2025-03-13 13h47.16.909199 +0100
right,right,,9,0,18,1,,,,,,,,,182.7398412,,,,,,,,,182.7260276,183.9400293,184.7401641,184.7242197,184.7242641,184.7401641,184.7401641,184.7401641,189.7397479,190.9758372,left,0,25.2466596,None,190.977111,190.9890999,191.4737164,191.4896391,,,,,,,,,,,,,,,,,,,,,,,,,,sub-013,1,2025-03-13_13h47.04.955,random_dot,03.02.2023,60.028946,2025-03-13 13h47.16.909199 +0100
left,left,,9,1,19,0,,,,,,,,,191.4896391,,,,,,,,,191.4744306,191.8394724,192.639719,192.6239083,192.6239875,192.639719,192.639719,192.639719,197.6394392,198.5766187,right,0,24.9569297,None,198.5778091,198.5888103,199.0740743,199.0891218,,,,,,,,,,,,,,,,,,,,,,,,,,sub-013,1,2025-03-13_13h47.04.955,random_dot,03.02.2023,60.028946,2025-03-13 13h47.16.909199 +0100
,,,,,,,,,,,,,,,,,,,,,,,,,,,,,,,,,,,,,,,,,,199.0742033,199.0891218,199.0891218,203.6918724,space,23.6197936,None,,,,,,,,,,,,,,,,,,,sub-013,1,2025-03-13_13h47.04.955,random_dot,03.02.2023,60.028946,2025-03-13 13h47.16.909199 +0100
,,,,,,,,,,,,,,,,,,,,,,,,,,,,,,,,,,,,,,,,,,,,,,,,,203.6920136,203.7055544,203.7055544,208.990838,space,24.2992346,None,,,,,,,,,,,,sub-013,1,2025-03-13_13h47.04.955,random_dot,03.02.2023,60.028946,2025-03-13 13h47.16.909199 +0100
right,right,accuracy,,,,,0,0,0,0,0,0,0,1,214.7428752,,,,,,,,,214.7396879,214.8379217,215.6389262,215.623674,215.6237406,215.6389262,215.6389262,215.6389262,220.6383043,222.0418322,right,1,25.4220589,None,,,,,,,,,,,,,,,,,,,208.9997829,209.0359587,209.0359587,214.7252394,space,24.7093805,None,,,,,sub-013,1,2025-03-13_13h47.04.955,random_dot,03.02.2023,60.028946,2025-03-13 13h47.16.909199 +0100
left,left,accuracy,,,,,0,0,0,0,0,1,1,0,222.0542373,,,,,,,,,222.0455046,223.2546123,224.0548605,224.0392136,224.0392717,224.0548605,224.0548605,224.0548605,229.0544403,230.4411663,left,1,25.3969967,None,,,,,,,,,,,,,,,,,,,,,,,,,,,,,,sub-013,1,2025-03-13_13h47.04.955,random_dot,03.02.2023,60.028946,2025-03-13 13h47.16.909199 +0100
left,left,accuracy,,,,,0,0,0,0,1,0,2,0,230.453741,,,,,,,,,230.4443305,231.2544915,232.0545435,232.0389529,232.0390193,232.0545435,232.0545435,232.0545435,237.0539837,237.8903325,right,0,24.8517393,None,,,,,,,,,,,,,,,,,,,,,,,,,,,,,,sub-013,1,2025-03-13_13h47.04.955,random_dot,03.02.2023,60.028946,2025-03-13 13h47.16.909199 +0100
right,right,accuracy,,,,,0,0,0,0,1,1,3,1,237.9034229,,,,,,,,,237.893105,238.2535903,239.0541471,239.0387374,239.0387861,239.0541471,239.0541471,239.0541471,244.054162,244.957386,left,0,24.9219567,None,,,,,,,,,,,,,,,,,,,,,,,,,,,,,,sub-013,1,2025-03-13_13h47.04.955,random_dot,03.02.2023,60.028946,2025-03-13 13h47.16.909199 +0100
right,right,accuracy,,,,,0,0,0,0,2,0,4,1,244.9697809,,,,,,,,,244.9599219,245.3198433,246.1203144,246.1050998,246.1051486,246.1203144,246.1203144,246.1203144,251.1201827,254.0896008,right,1,26.9889268,None,,,,,,,,,,,,,,,,,,,,,,,,,,,,,,sub-013,1,2025-03-13_13h47.04.955,random_dot,03.02.2023,60.028946,2025-03-13 13h47.16.909199 +0100
left,left,accuracy,,,,,0,0,0,0,2,1,5,0,254.102486,,,,,,,,,254.0917438,254.2027219,255.0035674,254.9876324,254.9876791,255.0035674,255.0035674,255.0035674,260.0032624,261.2882418,right,0,25.2923851,None,,,,,,,,,,,,,,,,,,,,,,,,,,,,,,sub-013,1,2025-03-13_13h47.04.955,random_dot,03.02.2023,60.028946,2025-03-13 13h47.16.909199 +0100
left,left,accuracy,,,,,0,0,0,0,3,0,6,0,261.3020662,,,,,,,,,261.2906569,261.6522308,262.4526736,262.4375257,262.437603,262.4526736,262.4526736,262.4526736,267.4527977,268.8376778,right,0,25.3924585,None,,,,,,,,,,,,,,,,,,,,,,,,,,,,,,sub-013,1,2025-03-13_13h47.04.955,random_dot,03.02.2023,60.028946,2025-03-13 13h47.16.909199 +0100
right,right,accuracy,,,,,0,0,0,0,3,1,7,1,268.8517953,,,,,,,,,268.8401459,270.0517977,270.8528895,270.8367952,270.836844,270.8528895,270.8528895,270.8528895,275.8522905,276.520804,left,0,24.6775704,None,,,,,,,,,,,,,,,,,,,,,,,,,,,,,,sub-013,1,2025-03-13_13h47.04.955,random_dot,03.02.2023,60.028946,2025-03-13 13h47.16.909199 +0100
right,right,accuracy,,,,,0,0,0,0,4,0,8,1,276.5352113,,,,,,,,,276.5229899,277.7347595,278.5353647,278.5194048,278.5194524,278.5353647,278.5353647,278.5353647,,281.6726412,right,1,22.1562143,None,,,,,,,,,,,,,,,,,,,,,,,,,,,,,,sub-013,1,2025-03-13_13h47.04.955,random_dot,03.02.2023,60.028946,2025-03-13 13h47.16.909199 +0100
left,left,accuracy,,,,,0,0,0,0,4,1,9,0,281.6842753,,,,,,,,,281.6766316,282.8847323,283.6854376,283.6696472,283.6696998,283.6854376,283.6854376,283.6854376,,287.6700524,left,1,22.9915888,None,,,,,,,,,,,,,,,,,,,,,,,,,,,,,,sub-013,1,2025-03-13_13h47.04.955,random_dot,03.02.2023,60.028946,2025-03-13 13h47.16.909199 +0100
right,right,accuracy,,,,,0,0,0,0,5,0,10,1,287.6845983,,,,,,,,,287.6719818,288.8842741,289.684939,289.6691846,289.6692524,289.684939,289.684939,289.684939,,293.4862696,right,1,22.8126377,None,,,,,,,,,,,,,,,,,,,,,,,,,,,,,,sub-013,1,2025-03-13_13h47.04.955,random_dot,03.02.2023,60.028946,2025-03-13 13h47.16.909199 +0100
left,left,accuracy,,,,,0,0,0,0,5,1,11,0,293.5005364,,,,,,,,,293.4882301,294.3006049,295.1013649,295.0856198,295.0856609,295.1013649,295.1013649,295.1013649,300.0845878,301.153896,left,1,25.0610318,None,,,,,,,,,,,,,,,,,,,,,,,,,,,,,,sub-013,1,2025-03-13_13h47.04.955,random_dot,03.02.2023,60.028946,2025-03-13 13h47.16.909199 +0100
left,left,accuracy,,,,,0,0,0,0,6,0,12,0,301.1666353,,,,,,,,,301.1572127,301.5169694,302.3171772,302.3015218,302.3015653,302.3171772,302.3171772,302.3171772,307.3175003,307.9707128,right,0,24.6734595,None,,,,,,,,,,,,,,,,,,,,,,,,,,,,,,sub-013,1,2025-03-13_13h47.04.955,random_dot,03.02.2023,60.028946,2025-03-13 13h47.16.909199 +0100
right,right,accuracy,,,,,0,0,0,0,6,1,13,1,307.9833391,,,,,,,,,307.9732034,308.7832366,309.5835079,309.5681701,309.568216,309.5835079,309.5835079,309.5835079,314.5833873,316.3373788,left,0,25.7731484,None,,,,,,,,,,,,,,,,,,,,,,,,,,,,,,sub-013,1,2025-03-13_13h47.04.955,random_dot,03.02.2023,60.028946,2025-03-13 13h47.16.909199 +0100
right,right,accuracy,,,,,0,0,0,0,7,0,14,1,316.3496018,,,,,,,,,316.3404209,316.4495805,317.2500719,317.234591,317.2346538,317.2500719,317.2500719,317.2500719,322.2498603,323.8357446,right,1,25.6017421,None,,,,,,,,,,,,,,,,,,,,,,,,,,,,,,sub-013,1,2025-03-13_13h47.04.955,random_dot,03.02.2023,60.028946,2025-03-13 13h47.16.909199 +0100
left,left,accuracy,,,,,0,0,0,0,7,1,15,0,323.8489863,,,,,,,,,323.8397961,325.0489131,325.849636,325.8342238,325.8342709,325.849636,325.849636,325.849636,330.8494195,331.8023957,left,1,24.9723551,None,,,,,,,,,,,,,,,,,,,,,,,,,,,,,,sub-013,1,2025-03-13_13h47.04.955,random_dot,03.02.2023,60.028946,2025-03-13 13h47.16.909199 +0100
left,left,accuracy,,,,,0,0,0,0,8,0,16,0,331.8152742,,,,,,,,,331.8044121,332.6156557,333.4158157,333.4000697,333.4001081,333.4158157,333.4158157,333.4158157,338.3987244,339.7677268,right,0,25.3654481,None,,,,,,,,,,,,,,,,,,,,,,,,,,,,,,sub-013,1,2025-03-13_13h47.04.955,random_dot,03.02.2023,60.028946,2025-03-13 13h47.16.909199 +0100
right,right,accuracy,,,,,0,0,0,0,8,1,17,1,339.7816039,,,,,,,,,339.770338,340.5819175,341.3823409,341.3667859,341.3668523,341.3823409,341.3823409,341.3823409,346.382038,346.9682915,right,1,24.6030687,None,,,,,,,,,,,,,,,,,,,,,,,,,,,,,,sub-013,1,2025-03-13_13h47.04.955,random_dot,03.02.2023,60.028946,2025-03-13 13h47.16.909199 +0100
left,left,accuracy,,,,,0,0,0,0,9,0,18,0,346.9812886,,,,,,,,,346.9708171,347.7814553,348.5820424,348.5664547,348.5665094,348.5820424,348.5820424,348.5820424,353.5815539,354.1845187,right,0,24.6224936,None,,,,,,,,,,,,,,,,,,,,,,,,,,,,,,sub-013,1,2025-03-13_13h47.04.955,random_dot,03.02.2023,60.028946,2025-03-13 13h47.16.909199 +0100
right,right,accuracy,,,,,0,0,0,0,9,1,19,1,354.197475,,,,,,,,,354.1873528,355.3978494,356.1980301,356.1821963,356.1822495,356.1980301,356.1980301,356.1980301,361.1811579,362.2832857,left,0,25.095921,None,,,,,,,,,,,,,,,,,,,,,,,,,,,,,,sub-013,1,2025-03-13_13h47.04.955,random_dot,03.02.2023,60.028946,2025-03-13 13h47.16.909199 +0100
right,right,accuracy,,,,,0,0,0,0,10,0,20,1,362.2972643,,,,,,,,,362.2852302,362.6471414,363.4486009,363.4325859,363.4326476,363.4486009,363.4486009,363.4486009,368.4474677,369.4488807,left,0,25.0148378,None,,,,,,,,,,,,,,,,,,,,,,,,,,,,,,sub-013,1,2025-03-13_13h47.04.955,random_dot,03.02.2023,60.028946,2025-03-13 13h47.16.909199 +0100
left,left,accuracy,,,,,0,0,0,0,10,1,21,0,369.4632574,,,,,,,,,369.4507134,369.5637753,370.3639079,370.348033,370.3480827,370.3639079,370.3639079,370.3639079,375.3469157,376.3013373,right,0,24.9570755,None,,,,,,,,,,,,,,,,,,,,,,,,,,,,,,sub-013,1,2025-03-13_13h47.04.955,random_dot,03.02.2023,60.028946,2025-03-13 13h47.16.909199 +0100
left,left,accuracy,,,,,0,0,0,0,11,0,22,0,376.3130325,,,,,,,,,376.3053583,376.4130086,377.2138111,377.1982281,377.1982792,377.2138111,377.2138111,377.2138111,382.2140447,383.0484298,left,1,24.8445864,None,,,,,,,,,,,,,,,,,,,,,,,,,,,,,,sub-013,1,2025-03-13_13h47.04.955,random_dot,03.02.2023,60.028946,2025-03-13 13h47.16.909199 +0100
right,right,accuracy,,,,,0,0,0,0,11,1,23,1,383.0623442,,,,,,,,,383.0507883,383.8629843,384.6640053,384.6483127,384.6483573,384.6640053,384.6640053,384.6640053,,388.1991391,right,1,22.5400155,None,,,,,,,,,,,,,,,,,,,,,,,,,,,,,,sub-013,1,2025-03-13_13h47.04.955,random_dot,03.02.2023,60.028946,2025-03-13 13h47.16.909199 +0100
right,right,accuracy,,,,,0,0,0,0,12,0,24,1,388.2128219,,,,,,,,,388.2014465,389.4123432,390.2133227,390.197325,390.1973756,390.2133227,390.2133227,390.2133227,395.2131092,396.5990029,right,1,25.4023856,None,,,,,,,,,,,,,,,,,,,,,,,,,,,,,,sub-013,1,2025-03-13_13h47.04.955,random_dot,03.02.2023,60.028946,2025-03-13 13h47.16.909199 +0100
left,left,accuracy,,,,,0,0,0,0,12,1,25,0,396.6120659,,,,,,,,,396.6014153,396.7119265,397.5125466,397.4972604,397.4973181,397.5125466,397.5125466,397.5125466,,399.2481793,left,1,20.7515017,None,,,,,,,,,,,,,,,,,,,,,,,,,,,,,,sub-013,1,2025-03-13_13h47.04.955,random_dot,03.02.2023,60.028946,2025-03-13 13h47.16.909199 +0100
left,left,accuracy,,,,,0,0,0,0,13,0,26,0,399.2617524,,,,,,,,,399.2500275,399.36236,400.162767,400.147194,400.1472381,400.162767,400.162767,400.162767,405.1619529,405.3810602,left,1,24.2293527,None,,,,,,,,,,,,,,,,,,,,,,,,,,,,,,sub-013,1,2025-03-13_13h47.04.955,random_dot,03.02.2023,60.028946,2025-03-13 13h47.16.909199 +0100
right,right,accuracy,,,,,0,0,0,0,13,1,27,1,405.3949496,,,,,,,,,405.3830494,405.7455867,406.5454571,406.5298787,406.5299441,406.5454571,406.5454571,406.5454571,,407.746655,right,1,20.220108,None,,,,,,,,,,,,,,,,,,,,,,,,,,,,,,sub-013,1,2025-03-13_13h47.04.955,random_dot,03.02.2023,60.028946,2025-03-13 13h47.16.909199 +0100
left,left,accuracy,,,,,0,0,0,0,14,0,28,0,407.7618891,,,,,,,,,407.7477321,408.5617776,409.3620766,409.3465457,409.3466364,409.3620766,409.3620766,409.3620766,,412.1798285,left,1,21.827075,None,,,,,,,,,,,,,,,,,,,,,,,,,,,,,,sub-013,1,2025-03-13_13h47.04.955,random_dot,03.02.2023,60.028946,2025-03-13 13h47.16.909199 +0100
right,right,accuracy,,,,,0,0,0,0,14,1,29,1,412.1944826,,,,,,,,,412.1819608,412.294688,413.0946493,413.0784086,413.0784314,413.0946493,413.0946493,413.0946493,,417.7303943,right,1,23.6451107,None,,,,,,,,,,,,,,,,,,,,,,,,,,,,,,sub-013,1,2025-03-13_13h47.04.955,random_dot,03.02.2023,60.028946,2025-03-13 13h47.16.909199 +0100
right,right,accuracy,,,,,0,0,0,0,15,0,30,1,417.7438627,,,,,,,,,417.7328979,418.5444292,419.344847,419.3292439,419.3293024,419.344847,419.344847,419.344847,,421.6301549,left,0,21.3044101,None,,,,,,,,,,,,,,,,,,,,,,,,,,,,,,sub-013,1,2025-03-13_13h47.04.955,random_dot,03.02.2023,60.028946,2025-03-13 13h47.16.909199 +0100
left,left,accuracy,,,,,0,0,0,0,15,1,31,0,421.6439442,,,,,,,,,421.6323003,422.444002,423.2446552,423.2291889,423.2292486,423.2446552,423.2446552,423.2446552,,425.4294388,right,0,21.1938975,None,,,,,,,,,,,,,,,,,,,,,,,,,,,,,,sub-013,1,2025-03-13_13h47.04.955,random_dot,03.02.2023,60.028946,2025-03-13 13h47.16.909199 +0100
right,right,accuracy,,,,,0,0,0,0,16,0,32,1,425.4438069,,,,,,,,,425.4310125,426.6437096,427.4445915,427.4292683,427.4293679,427.4445915,427.4445915,427.4445915,,428.5133515,right,1,20.0754499,None,,,,,,,,,,,,,,,,,,,,,,,,,,,,,,sub-013,1,2025-03-13_13h47.04.955,random_dot,03.02.2023,60.028946,2025-03-13 13h47.16.909199 +0100
left,left,accuracy,,,,,0,0,0,0,16,1,33,0,428.5269658,,,,,,,,,428.5164013,429.7271805,430.5280826,430.5120103,430.5120567,430.5280826,430.5280826,430.5280826,,431.86296,left,1,20.3482401,None,,,,,,,,,,,,,,,,,,,,,,,,,,,,,,sub-013,1,2025-03-13_13h47.04.955,random_dot,03.02.2023,60.028946,2025-03-13 13h47.16.909199 +0100
left,left,accuracy,,,,,0,0,0,0,17,0,34,0,431.8766608,,,,,,,,,431.8645945,431.9773554,432.7773316,432.7627901,432.7628553,432.7773316,432.7773316,432.7773316,,433.7791457,left,1,20.0131367,None,,,,,,,,,,,,,,,,,,,,,,,,,,,,,,sub-013,1,2025-03-13_13h47.04.955,random_dot,03.02.2023,60.028946,2025-03-13 13h47.16.909199 +0100
right,right,accuracy,,,,,0,0,0,0,17,1,35,1,433.7933589,,,,,,,,,433.780941,434.5934647,435.3947183,435.3781858,435.3783323,435.3947183,435.3947183,435.3947183,,436.2124394,right,1,19.8300308,None,,,,,,,,,,,,,,,,,,,,,,,,,,,,,,sub-013,1,2025-03-13_13h47.04.955,random_dot,03.02.2023,60.028946,2025-03-13 13h47.16.909199 +0100
left,left,accuracy,,,,,0,0,0,0,18,0,36,0,436.226755,,,,,,,,,436.2145793,436.3270854,437.1269409,437.1119122,437.11199,437.1269409,437.1269409,437.1269409,,437.7957822,left,1,19.6858675,None,,,,,,,,,,,,,,,,,,,,,,,,,,,,,,sub-013,1,2025-03-13_13h47.04.955,random_dot,03.02.2023,60.028946,2025-03-13 13h47.16.909199 +0100
right,right,accuracy,,,,,0,0,0,0,18,1,37,1,437.8098993,,,,,,,,,437.7973975,439.0103505,439.8107987,439.7948423,439.7949038,439.8107987,439.8107987,439.8107987,,440.5121758,right,1,19.7073092,None,,,,,,,,,,,,,,,,,,,,,,,,,,,,,,sub-013,1,2025-03-13_13h47.04.955,random_dot,03.02.2023,60.028946,2025-03-13 13h47.16.909199 +0100
left,left,accuracy,,,,,0,0,0,0,19,0,38,0,440.5266051,,,,,,,,,440.5139649,440.6264951,441.4268159,441.4111544,441.4112265,441.4268159,441.4268159,441.4268159,,442.0118882,left,1,19.5942977,None,,,,,,,,,,,,,,,,,,,,,,,,,,,,,,sub-013,1,2025-03-13_13h47.04.955,random_dot,03.02.2023,60.028946,2025-03-13 13h47.16.909199 +0100
right,right,accuracy,,,,,0,0,0,0,19,1,39,1,442.0262085,,,,,,,,,442.0132,442.8265203,443.6266163,443.6106057,443.610648,443.6266163,443.6266163,443.6266163,,444.4963216,right,1,19.8905667,None,,,,,,,,,,,,,,,,,,,,,,,,,,,,,,sub-013,1,2025-03-13_13h47.04.955,random_dot,03.02.2023,60.028946,2025-03-13 13h47.16.909199 +0100
right,right,accuracy,,,,,0,0,0,0,20,0,40,1,444.5095531,,,,,,,,,444.4983004,445.3096006,446.1098927,446.0950245,446.0950813,446.1098927,446.1098927,446.1098927,,446.7281431,right,1,19.6349786,None,,,,,,,,,,,,,,,,,,,,,,,,,,,,,,sub-013,1,2025-03-13_13h47.04.955,random_dot,03.02.2023,60.028946,2025-03-13 13h47.16.909199 +0100
left,left,accuracy,,,,,0,0,0,0,20,1,41,0,446.7424358,,,,,,,,,446.7295094,447.0928871,447.8937754,447.8780956,447.8781405,447.8937754,447.8937754,447.8937754,,449.1781763,left,1,20.290663,None,,,,,,,,,,,,,,,,,,,,,,,,,,,,,,sub-013,1,2025-03-13_13h47.04.955,random_dot,03.02.2023,60.028946,2025-03-13 13h47.16.909199 +0100
left,left,accuracy,,,,,0,0,0,0,21,0,42,0,449.1925846,,,,,,,,,449.1796577,449.2928298,450.0930092,450.0779792,450.0780349,450.0930092,450.0930092,450.0930092,,450.9297274,left,1,19.8563588,None,,,,,,,,,,,,,,,,,,,,,,,,,,,,,,sub-013,1,2025-03-13_13h47.04.955,random_dot,03.02.2023,60.028946,2025-03-13 13h47.16.909199 +0100
right,right,accuracy,,,,,0,0,0,0,21,1,43,1,450.9424405,,,,,,,,,450.9319931,451.0425882,451.8430278,451.8282368,451.8282821,451.8430278,451.8430278,451.8430278,,452.7280452,right,1,19.9032776,None,,,,,,,,,,,,,,,,,,,,,,,,,,,,,,sub-013,1,2025-03-13_13h47.04.955,random_dot,03.02.2023,60.028946,2025-03-13 13h47.16.909199 +0100
left,left,accuracy,,,,,0,0,0,0,22,0,44,0,452.7429043,,,,,,,,,452.7296803,452.8428767,453.6431399,453.6275369,453.6275816,453.6431399,453.6431399,453.6431399,,454.31104,left,1,19.6762005,None,,,,,,,,,,,,,,,,,,,,,,,,,,,,,,sub-013,1,2025-03-13_13h47.04.955,random_dot,03.02.2023,60.028946,2025-03-13 13h47.16.909199 +0100
right,right,accuracy,,,,,0,0,0,0,22,1,45,1,454.3255353,,,,,,,,,454.3121529,455.1257248,455.9263087,455.9108246,455.91086,455.9263087,455.9263087,455.9263087,,456.6943602,right,1,19.7769993,None,,,,,,,,,,,,,,,,,,,,,,,,,,,,,,sub-013,1,2025-03-13_13h47.04.955,random_dot,03.02.2023,60.028946,2025-03-13 13h47.16.909199 +0100
right,right,accuracy,,,,,0,0,0,0,23,0,46,1,456.7092225,,,,,,,,,456.6961349,457.0594504,457.8593421,457.8436501,457.8437023,457.8593421,457.8593421,457.8593421,,458.6280437,right,1,19.7894768,None,,,,,,,,,,,,,,,,,,,,,,,,,,,,,,sub-013,1,2025-03-13_13h47.04.955,random_dot,03.02.2023,60.028946,2025-03-13 13h47.16.909199 +0100
left,left,accuracy,,,,,0,0,0,0,23,1,47,0,458.6420598,,,,,,,,,458.6299422,459.8426436,460.6432933,460.6272329,460.6272912,460.6432933,460.6432933,460.6432933,,461.4943328,left,1,19.8593693,None,,,,,,,,,,,,,,,,,,,,,,,,,,,,,,sub-013,1,2025-03-13_13h47.04.955,random_dot,03.02.2023,60.028946,2025-03-13 13h47.16.909199 +0100
right,right,accuracy,,,,,0,0,0,0,24,0,48,1,461.5084785,,,,,,,,,461.4961779,461.8585222,462.6593158,462.643484,462.6435249,462.6593158,462.6593158,462.6593158,,463.2321019,right,1,19.5883799,None,,,,,,,,,,,,,,,,,,,,,,,,,,,,,,sub-013,1,2025-03-13_13h47.04.955,random_dot,03.02.2023,60.028946,2025-03-13 13h47.16.909199 +0100
left,left,accuracy,,,,,0,0,0,0,24,1,49,0,463.2423894,,,,,,,,,463.2347691,463.342305,464.1429511,464.1267574,464.1268052,464.1429511,464.1429511,464.1429511,,465.1105791,left,1,19.9820491,None,,,,,,,,,,,,,,,,,,,,,,,,,,,,,,sub-013,1,2025-03-13_13h47.04.955,random_dot,03.02.2023,60.028946,2025-03-13 13h47.16.909199 +0100
right,right,accuracy,,,,,0,0,0,0,25,0,50,1,465.125154,,,,,,,,,465.1125791,465.2249682,466.0257614,466.0099497,466.0100206,466.0257614,466.0257614,466.0257614,,466.6951401,right,1,19.690416,None,,,,,,,,,,,,,,,,,,,,,,,,,,,,,,sub-013,1,2025-03-13_13h47.04.955,random_dot,03.02.2023,60.028946,2025-03-13 13h47.16.909199 +0100
left,left,accuracy,,,,,0,0,0,0,25,1,51,0,466.7081589,,,,,,,,,466.6964184,467.9084443,468.7093365,468.6945303,468.6945816,468.7093365,468.7093365,468.7093365,,469.2768535,left,1,19.5857214,None,,,,,,,,,,,,,,,,,,,,,,,,,,,,,,sub-013,1,2025-03-13_13h47.04.955,random_dot,03.02.2023,60.028946,2025-03-13 13h47.16.909199 +0100
left,left,accuracy,,,,,0,0,0,0,26,0,52,0,469.2916933,,,,,,,,,469.2780175,470.0917284,470.892372,470.876551,470.876599,470.892372,470.892372,470.892372,,472.6937723,left,1,20.8097988,None,,,,,,,,,,,,,,,,,,,,,,,,,,,,,,sub-013,1,2025-03-13_13h47.04.955,random_dot,03.02.2023,60.028946,2025-03-13 13h47.16.909199 +0100
right,right,accuracy,,,,,0,0,0,0,26,1,53,1,472.7080336,,,,,,,,,472.6955131,473.9081544,474.708706,474.6930705,474.69312,474.708706,474.708706,474.708706,,475.5610157,right,1,19.8695482,None,,,,,,,,,,,,,,,,,,,,,,,,,,,,,,sub-013,1,2025-03-13_13h47.04.955,random_dot,03.02.2023,60.028946,2025-03-13 13h47.16.909199 +0100
right,right,accuracy,,,,,0,0,0,0,27,0,54,1,475.5747812,,,,,,,,,475.5623749,476.3749577,477.1751186,477.159741,477.1598002,477.1751186,477.1751186,477.1751186,,477.8947367,right,1,19.7372081,None,,,,,,,,,,,,,,,,,,,,,,,,,,,,,,sub-013,1,2025-03-13_13h47.04.955,random_dot,03.02.2023,60.028946,2025-03-13 13h47.16.909199 +0100
left,left,accuracy,,,,,0,0,0,0,27,1,55,0,477.9080278,,,,,,,,,477.8970458,478.0078227,478.8084275,478.7933855,478.7934384,478.8084275,478.8084275,478.8084275,,481.7931251,left,1,22.0005745,None,,,,,,,,,,,,,,,,,,,,,,,,,,,,,,sub-013,1,2025-03-13_13h47.04.955,random_dot,03.02.2023,60.028946,2025-03-13 13h47.16.909199 +0100
left,left,accuracy,,,,,0,0,0,0,28,0,56,0,481.8074109,,,,,,,,,481.7946946,482.6078251,483.4084534,483.3926257,483.3926712,483.4084534,483.4084534,483.4084534,,484.2768333,left,1,19.8810813,None,,,,,,,,,,,,,,,,,,,,,,,,,,,,,,sub-013,1,2025-03-13_13h47.04.955,random_dot,03.02.2023,60.028946,2025-03-13 13h47.16.909199 +0100
right,right,accuracy,,,,,0,0,0,0,28,1,57,1,484.2908497,,,,,,,,,484.2787327,484.3910992,485.1917242,485.1753426,485.1753831,485.1917242,485.1917242,485.1917242,,485.9769227,right,1,19.7906446,None,,,,,,,,,,,,,,,,,,,,,,,,,,,,,,sub-013,1,2025-03-13_13h47.04.955,random_dot,03.02.2023,60.028946,2025-03-13 13h47.16.909199 +0100
right,right,accuracy,,,,,0,0,0,0,29,0,58,1,485.9907943,,,,,,,,,485.9790931,486.0909211,486.8914686,486.8757315,486.8758085,486.8914686,486.8914686,486.8914686,,487.5782997,right,1,19.7058906,None,,,,,,,,,,,,,,,,,,,,,,,,,,,,,,sub-013,1,2025-03-13_13h47.04.955,random_dot,03.02.2023,60.028946,2025-03-13 13h47.16.909199 +0100
left,left,accuracy,,,,,0,0,0,0,29,1,59,0,487.5908373,,,,,,,,,487.5807166,487.6910089,488.4914906,488.4758235,488.4758872,488.4914906,488.4914906,488.4914906,,489.8781254,left,1,20.4057463,None,,,,,,,,,,,,,,,,,,,,,,,,,,,,,,sub-013,1,2025-03-13_13h47.04.955,random_dot,03.02.2023,60.028946,2025-03-13 13h47.16.909199 +0100
,,accuracy,,,,,0,0,0,0,,,,,,,,,,,,,,,,,,,,,,,,,,,,,,,,,,,,,,,,,,,,,,,,,,,,,,,,,sub-013,1,2025-03-13_13h47.04.955,random_dot,03.02.2023,60.028946,2025-03-13 13h47.16.909199 +0100
left,left,speed,,,,,0,1,1,1,0,0,0,0,491.5485044,,,,,,,,,491.5449474,492.3407732,493.1413466,493.1258666,493.1259283,493.1413466,493.1413466,493.1413466,,493.4276435,right,0,19.3061179,None,,,,,,,,,,,,,,,,,,,489.8811403,489.8958272,489.8958272,491.5295777,space,20.6518675,None,,,,,sub-013,1,2025-03-13_13h47.04.955,random_dot,03.02.2023,60.028946,2025-03-13 13h47.16.909199 +0100
right,right,speed,,,,,0,1,1,1,0,1,1,1,493.4403786,,,,,,,,,493.4305295,494.6403871,495.4412766,495.4248219,495.4248662,495.4412766,495.4412766,495.4412766,,496.6282741,right,1,20.206882,None,,,,,,,,,,,,,,,,,,,,,,,,,,,,,,sub-013,1,2025-03-13_13h47.04.955,random_dot,03.02.2023,60.028946,2025-03-13 13h47.16.909199 +0100
left,left,speed,,,,,0,1,1,1,1,0,2,0,496.6403271,,,,,,,,,496.6303536,496.7406535,497.5409876,497.5254233,497.5254882,497.5409876,497.5409876,497.5409876,,498.1918605,left,1,19.6596612,None,,,,,,,,,,,,,,,,,,,,,,,,,,,,,,sub-013,1,2025-03-13_13h47.04.955,random_dot,03.02.2023,60.028946,2025-03-13 13h47.16.909199 +0100
right,right,speed,,,,,0,1,1,1,1,1,3,1,498.2067002,,,,,,,,,498.1932786,498.3071613,499.1076295,499.0918531,499.0919058,499.1076295,499.1076295,499.1076295,,499.9261282,right,1,19.8317133,None,,,,,,,,,,,,,,,,,,,,,,,,,,,,,,sub-013,1,2025-03-13_13h47.04.955,random_dot,03.02.2023,60.028946,2025-03-13 13h47.16.909199 +0100
right,right,speed,,,,,0,1,1,1,2,0,4,1,499.9399904,,,,,,,,,499.9294134,501.1402815,501.940556,501.9248569,501.9249208,501.940556,501.940556,501.940556,,504.3763869,right,1,21.4534047,None,,,,,,,,,,,,,,,,,,,,,,,,,,,,,,sub-013,1,2025-03-13_13h47.04.955,random_dot,03.02.2023,60.028946,2025-03-13 13h47.16.909199 +0100
left,left,speed,,,,,0,1,1,1,2,1,5,0,504.3901202,,,,,,,,,504.3785554,504.7401959,505.5403344,505.5252539,505.5253216,505.5403344,505.5403344,505.5403344,,509.1423557,right,0,22.6080858,None,,,,,,,,,,,,,,,,,,,,,,,,,,,,,,sub-013,1,2025-03-13_13h47.04.955,random_dot,03.02.2023,60.028946,2025-03-13 13h47.16.909199 +0100
left,left,speed,,,,,0,1,1,1,3,0,6,0,509.1562018,,,,,,,,,509.1443039,510.3562869,511.1568164,511.1411876,511.1412457,511.1568164,511.1568164,511.1568164,,512.1087051,left,1,19.9568345,None,,,,,,,,,,,,,,,,,,,,,,,,,,,,,,sub-013,1,2025-03-13_13h47.04.955,random_dot,03.02.2023,60.028946,2025-03-13 13h47.16.909199 +0100
right,right,speed,,,,,0,1,1,1,3,1,7,1,512.1230126,,,,,,,,,512.1108246,512.4730977,513.2735393,513.2578223,513.2578804,513.2735393,513.2735393,513.2735393,,514.0755617,right,1,19.8132811,None,,,,,,,,,,,,,,,,,,,,,,,,,,,,,,sub-013,1,2025-03-13_13h47.04.955,random_dot,03.02.2023,60.028946,2025-03-13 13h47.16.909199 +0100
right,right,speed,,,,,0,1,1,1,4,0,8,1,514.0893047,,,,,,,,,514.0779711,514.1893613,514.9899416,514.9747667,514.9748252,514.9899416,514.9899416,514.9899416,,517.6100266,right,1,21.6385176,None,,,,,,,,,,,,,,,,,,,,,,,,,,,,,,sub-013,1,2025-03-13_13h47.04.955,random_dot,03.02.2023,60.028946,2025-03-13 13h47.16.909199 +0100
left,left,speed,,,,,0,1,1,1,4,1,9,0,517.6223856,,,,,,,,,517.6126935,517.9724702,518.7730285,518.757649,518.7576999,518.7730285,518.7730285,518.7730285,,519.6593916,left,1,19.9050808,None,,,,,,,,,,,,,,,,,,,,,,,,,,,,,,sub-013,1,2025-03-13_13h47.04.955,random_dot,03.02.2023,60.028946,2025-03-13 13h47.16.909199 +0100
left,left,speed,,,,,0,1,1,1,5,0,10,0,519.6723492,,,,,,,,,519.6617864,520.022728,520.8233688,520.8078441,520.8078896,520.8233688,520.8233688,520.8233688,,521.5423612,left,1,19.7279955,None,,,,,,,,,,,,,,,,,,,,,,,,,,,,,,sub-013,1,2025-03-13_13h47.04.955,random_dot,03.02.2023,60.028946,2025-03-13 13h47.16.909199 +0100
right,right,speed,,,,,0,1,1,1,5,1,11,1,521.5557939,,,,,,,,,521.5455686,522.7555437,523.5565583,523.5405459,523.5405952,523.5565583,523.5565583,523.5565583,,524.491395,right,1,19.9408391,None,,,,,,,,,,,,,,,,,,,,,,,,,,,,,,sub-013,1,2025-03-13_13h47.04.955,random_dot,03.02.2023,60.028946,2025-03-13 13h47.16.909199 +0100
right,right,speed,,,,,0,1,1,1,6,0,12,1,524.5057806,,,,,,,,,524.4938097,524.8557717,525.6560318,525.6402789,525.6403308,525.6560318,525.6560318,525.6560318,,528.1077346,right,1,21.4578218,None,,,,,,,,,,,,,,,,,,,,,,,,,,,,,,sub-013,1,2025-03-13_13h47.04.955,random_dot,03.02.2023,60.028946,2025-03-13 13h47.16.909199 +0100
left,left,speed,,,,,0,1,1,1,6,1,13,0,528.1224117,,,,,,,,,528.1099566,528.4722305,529.2728316,529.2575453,529.2575978,529.2728316,529.2728316,529.2728316,,533.1574675,left,1,22.9011562,None,,,,,,,,,,,,,,,,,,,,,,,,,,,,,,sub-013,1,2025-03-13_13h47.04.955,random_dot,03.02.2023,60.028946,2025-03-13 13h47.16.909199 +0100
left,left,speed,,,,,0,1,1,1,7,0,14,0,533.1718756,,,,,,,,,533.1592576,533.2717163,534.0722146,534.0562536,534.0562877,534.0722146,534.0722146,534.0722146,,537.3418102,right,0,22.2897681,None,,,,,,,,,,,,,,,,,,,,,,,,,,,,,,sub-013,1,2025-03-13_13h47.04.955,random_dot,03.02.2023,60.028946,2025-03-13 13h47.16.909199 +0100
right,right,speed,,,,,0,1,1,1,7,1,15,1,537.3548647,,,,,,,,,537.3442268,538.1548047,538.955231,538.9396624,538.9397006,538.955231,538.955231,538.955231,,540.9080943,right,1,20.969772,None,,,,,,,,,,,,,,,,,,,,,,,,,,,,,,sub-013,1,2025-03-13_13h47.04.955,random_dot,03.02.2023,60.028946,2025-03-13 13h47.16.909199 +0100
left,left,speed,,,,,0,1,1,1,8,0,16,0,540.9214956,,,,,,,,,540.9104734,541.2717903,542.0718798,542.0561868,542.0562657,542.0718798,542.0718798,542.0718798,,543.6402502,left,1,20.5739199,None,,,,,,,,,,,,,,,,,,,,,,,,,,,,,,sub-013,1,2025-03-13_13h47.04.955,random_dot,03.02.2023,60.028946,2025-03-13 13h47.16.909199 +0100
right,right,speed,,,,,0,1,1,1,8,1,17,1,543.6546842,,,,,,,,,543.6422134,544.8548871,545.6549777,545.639456,545.639514,545.6549777,545.6549777,545.6549777,,546.6235056,right,1,19.9767359,None,,,,,,,,,,,,,,,,,,,,,,,,,,,,,,sub-013,1,2025-03-13_13h47.04.955,random_dot,03.02.2023,60.028946,2025-03-13 13h47.16.909199 +0100
left,left,speed,,,,,0,1,1,1,9,0,18,0,546.6376564,,,,,,,,,546.6255014,546.9880087,547.7885897,547.7728322,547.7728774,547.7885897,547.7885897,547.7885897,,552.3410731,left,1,23.5595842,None,,,,,,,,,,,,,,,,,,,,,,,,,,,,,,sub-013,1,2025-03-13_13h47.04.955,random_dot,03.02.2023,60.028946,2025-03-13 13h47.16.909199 +0100
right,right,speed,,,,,0,1,1,1,9,1,19,1,552.3543743,,,,,,,,,552.3434837,553.1544713,553.9545518,553.9389966,553.9390825,553.9545518,553.9545518,553.9545518,,555.1237652,right,1,20.1857299,None,,,,,,,,,,,,,,,,,,,,,,,,,,,,,,sub-013,1,2025-03-13_13h47.04.955,random_dot,03.02.2023,60.028946,2025-03-13 13h47.16.909199 +0100
right,right,speed,,,,,0,1,1,1,10,0,20,1,555.1371092,,,,,,,,,555.1262937,555.237479,556.0380735,556.021642,556.0216709,556.0380735,556.0380735,556.0380735,561.020941,561.8561417,right,1,24.8342523,None,,,,,,,,,,,,,,,,,,,,,,,,,,,,,,sub-013,1,2025-03-13_13h47.04.955,random_dot,03.02.2023,60.028946,2025-03-13 13h47.16.909199 +0100
left,left,speed,,,,,0,1,1,1,10,1,21,0,561.8701626,,,,,,,,,561.8572767,563.0702948,563.8713827,563.8555137,563.855569,563.8713827,563.8713827,563.8713827,568.8708545,569.6559072,left,1,24.7900985,None,,,,,,,,,,,,,,,,,,,,,,,,,,,,,,sub-013,1,2025-03-13_13h47.04.955,random_dot,03.02.2023,60.028946,2025-03-13 13h47.16.909199 +0100
left,left,speed,,,,,0,1,1,1,11,0,22,0,569.6698825,,,,,,,,,569.6580482,569.7699415,570.5704504,570.555131,570.555199,570.5704504,570.5704504,570.5704504,575.5704953,576.2053128,right,0,24.6485638,None,,,,,,,,,,,,,,,,,,,,,,,,,,,,,,sub-013,1,2025-03-13_13h47.04.955,random_dot,03.02.2023,60.028946,2025-03-13 13h47.16.909199 +0100
right,right,speed,,,,,0,1,1,1,11,1,23,1,576.2195153,,,,,,,,,576.2070302,576.3198649,577.1204178,577.1047927,577.1048603,577.1204178,577.1204178,577.1204178,,578.2720685,right,1,20.1587793,None,,,,,,,,,,,,,,,,,,,,,,,,,,,,,,sub-013,1,2025-03-13_13h47.04.955,random_dot,03.02.2023,60.028946,2025-03-13 13h47.16.909199 +0100
right,right,speed,,,,,0,1,1,1,12,0,24,1,578.2860176,,,,,,,,,578.2737182,578.3863374,579.1867817,579.1709347,579.1709816,579.1867817,579.1867817,579.1867817,,579.9731007,right,1,19.7949539,None,,,,,,,,,,,,,,,,,,,,,,,,,,,,,,sub-013,1,2025-03-13_13h47.04.955,random_dot,03.02.2023,60.028946,2025-03-13 13h47.16.909199 +0100
left,left,speed,,,,,0,1,1,1,12,1,25,0,579.9862789,,,,,,,,,579.9764286,580.7866625,581.5867137,581.5711265,581.5711885,581.5867137,581.5867137,581.5867137,,586.1063214,left,1,23.5384776,None,,,,,,,,,,,,,,,,,,,,,,,,,,,,,,sub-013,1,2025-03-13_13h47.04.955,random_dot,03.02.2023,60.028946,2025-03-13 13h47.16.909199 +0100
right,right,speed,,,,,0,1,1,1,13,0,26,1,586.1189782,,,,,,,,,586.1085328,587.3191654,588.1197782,588.1043197,588.1043874,588.1197782,588.1197782,588.1197782,,590.5057949,right,1,21.4028428,None,,,,,,,,,,,,,,,,,,,,,,,,,,,,,,sub-013,1,2025-03-13_13h47.04.955,random_dot,03.02.2023,60.028946,2025-03-13 13h47.16.909199 +0100
left,left,speed,,,,,0,1,1,1,13,1,27,0,590.518724,,,,,,,,,590.5094965,590.6189651,591.4194617,591.4041061,591.404157,591.4194617,591.4194617,591.4194617,,593.8046148,left,1,21.4005949,None,,,,,,,,,,,,,,,,,,,,,,,,,,,,,,sub-013,1,2025-03-13_13h47.04.955,random_dot,03.02.2023,60.028946,2025-03-13 13h47.16.909199 +0100
left,left,speed,,,,,0,1,1,1,14,0,28,0,593.81884,,,,,,,,,593.8063497,593.9190322,594.7194787,594.7035774,594.7036272,594.7194787,594.7194787,594.7194787,599.7188096,600.055722,right,0,24.3564805,None,,,,,,,,,,,,,,,,,,,,,,,,,,,,,,sub-013,1,2025-03-13_13h47.04.955,random_dot,03.02.2023,60.028946,2025-03-13 13h47.16.909199 +0100
right,right,speed,,,,,0,1,1,1,14,1,29,1,600.0683341,,,,,,,,,600.0582723,600.8687737,601.6689988,601.6534515,601.6534967,601.6689988,601.6689988,601.6689988,,604.6374128,right,1,21.9817475,None,,,,,,,,,,,,,,,,,,,,,,,,,,,,,,sub-013,1,2025-03-13_13h47.04.955,random_dot,03.02.2023,60.028946,2025-03-13 13h47.16.909199 +0100
left,left,speed,,,,,0,1,1,1,15,0,30,0,604.6514799,,,,,,,,,604.6388084,605.4518003,606.2517724,606.2363553,606.236401,606.2517724,606.2517724,606.2517724,611.2514805,611.7372355,right,0,24.5027903,None,,,,,,,,,,,,,,,,,,,,,,,,,,,,,,sub-013,1,2025-03-13_13h47.04.955,random_dot,03.02.2023,60.028946,2025-03-13 13h47.16.909199 +0100
right,right,speed,,,,,0,1,1,1,15,1,31,1,611.7509587,,,,,,,,,611.7393513,612.9512411,613.7518637,613.7361012,613.736164,613.7518637,613.7518637,613.7518637,,614.9867532,right,1,20.2442148,None,,,,,,,,,,,,,,,,,,,,,,,,,,,,,,sub-013,1,2025-03-13_13h47.04.955,random_dot,03.02.2023,60.028946,2025-03-13 13h47.16.909199 +0100
right,right,speed,,,,,0,1,1,1,16,0,32,1,615.0008053,,,,,,,,,614.9894263,616.2014766,617.002045,616.9867237,616.9867899,617.002045,617.002045,617.002045,,617.6715467,right,1,19.6889012,None,,,,,,,,,,,,,,,,,,,,,,,,,,,,,,sub-013,1,2025-03-13_13h47.04.955,random_dot,03.02.2023,60.028946,2025-03-13 13h47.16.909199 +0100
left,left,speed,,,,,0,1,1,1,16,1,33,0,617.6838668,,,,,,,,,617.6739762,618.8841689,619.6846236,619.6695299,619.6696077,619.6846236,619.6846236,619.6846236,624.6848845,625.1868365,left,1,24.5177283,None,,,,,,,,,,,,,,,,,,,,,,,,,,,,,,sub-013,1,2025-03-13_13h47.04.955,random_dot,03.02.2023,60.028946,2025-03-13 13h47.16.909199 +0100
left,left,speed,,,,,0,1,1,1,17,0,34,0,625.2005757,,,,,,,,,625.1890728,626.000381,626.8009529,626.7853124,626.7853696,626.8009529,626.8009529,626.8009529,,628.2856678,left,1,20.4975411,None,,,,,,,,,,,,,,,,,,,,,,,,,,,,,,sub-013,1,2025-03-13_13h47.04.955,random_dot,03.02.2023,60.028946,2025-03-13 13h47.16.909199 +0100
right,right,speed,,,,,0,1,1,1,17,1,35,1,628.3003304,,,,,,,,,628.2874677,629.5001925,630.3006826,630.2839052,630.2839233,630.3006826,630.3006826,630.3006826,,632.8694469,right,1,21.5759668,None,,,,,,,,,,,,,,,,,,,,,,,,,,,,,,sub-013,1,2025-03-13_13h47.04.955,random_dot,03.02.2023,60.028946,2025-03-13 13h47.16.909199 +0100
right,right,speed,,,,,0,1,1,1,18,0,36,1,632.8833523,,,,,,,,,632.8716713,634.0832652,634.8838191,634.8678851,634.8679382,634.8838191,634.8838191,634.8838191,639.8669332,640.3688279,right,1,24.4956425,None,,,,,,,,,,,,,,,,,,,,,,,,,,,,,,sub-013,1,2025-03-13_13h47.04.955,random_dot,03.02.2023,60.028946,2025-03-13 13h47.16.909199 +0100
left,left,speed,,,,,0,1,1,1,18,1,37,0,640.3830894,,,,,,,,,640.371047,641.5833244,642.3834603,642.3680082,642.3680706,642.3834603,642.3834603,642.3834603,647.3831027,647.6687636,right,0,24.3020884,None,,,,,,,,,,,,,,,,,,,,,,,,,,,,,,sub-013,1,2025-03-13_13h47.04.955,random_dot,03.02.2023,60.028946,2025-03-13 13h47.16.909199 +0100
right,right,speed,,,,,0,1,1,1,19,0,38,1,647.6824808,,,,,,,,,647.6712599,648.883098,649.6829105,649.6674617,649.6675081,649.6829105,649.6829105,649.6829105,,650.9347473,right,1,20.2587075,None,,,,,,,,,,,,,,,,,,,,,,,,,,,,,,sub-013,1,2025-03-13_13h47.04.955,random_dot,03.02.2023,60.028946,2025-03-13 13h47.16.909199 +0100
left,left,speed,,,,,0,1,1,1,19,1,39,0,650.9491213,,,,,,,,,650.9366348,652.1494228,652.9504884,652.9344467,652.934503,652.9504884,652.9504884,652.9504884,657.9493832,658.3173816,right,0,24.3763338,None,,,,,,,,,,,,,,,,,,,,,,,,,,,,,,sub-013,1,2025-03-13_13h47.04.955,random_dot,03.02.2023,60.028946,2025-03-13 13h47.16.909199 +0100
left,left,speed,,,,,0,1,1,1,20,0,40,0,658.3321192,,,,,,,,,658.3189814,658.6820242,659.4828917,659.466849,659.466914,659.4828917,659.4828917,659.4828917,,661.1344479,left,1,20.6638575,None,,,,,,,,,,,,,,,,,,,,,,,,,,,,,,sub-013,1,2025-03-13_13h47.04.955,random_dot,03.02.2023,60.028946,2025-03-13 13h47.16.909199 +0100
right,right,speed,,,,,0,1,1,1,20,1,41,1,661.1486576,,,,,,,,,661.1369279,661.9484786,662.7489528,662.7336818,662.7337326,662.7489528,662.7489528,662.7489528,,665.4177375,right,1,21.6807319,None,,,,,,,,,,,,,,,,,,,,,,,,,,,,,,sub-013,1,2025-03-13_13h47.04.955,random_dot,03.02.2023,60.028946,2025-03-13 13h47.16.909199 +0100
left,left,speed,,,,,0,1,1,1,21,0,42,0,665.4317872,,,,,,,,,665.4204643,665.5315663,666.3321827,666.3173315,666.3173872,666.3321827,666.3321827,666.3321827,,667.3358396,left,1,20.0229297,None,,,,,,,,,,,,,,,,,,,,,,,,,,,,,,sub-013,1,2025-03-13_13h47.04.955,random_dot,03.02.2023,60.028946,2025-03-13 13h47.16.909199 +0100
right,right,speed,,,,,0,1,1,1,21,1,43,1,667.3479053,,,,,,,,,667.3379403,667.6983563,668.4992595,668.4834014,668.4834455,668.4992595,668.4992595,668.4992595,,672.4336763,right,1,22.9449168,None,,,,,,,,,,,,,,,,,,,,,,,,,,,,,,sub-013,1,2025-03-13_13h47.04.955,random_dot,03.02.2023,60.028946,2025-03-13 13h47.16.909199 +0100
right,right,speed,,,,,0,1,1,1,22,0,44,1,672.4480638,,,,,,,,,672.4355023,672.5482229,673.3484173,673.3333232,673.3333955,673.3484173,673.3484173,673.3484173,,676.9835806,right,1,22.6506185,None,,,,,,,,,,,,,,,,,,,,,,,,,,,,,,sub-013,1,2025-03-13_13h47.04.955,random_dot,03.02.2023,60.028946,2025-03-13 13h47.16.909199 +0100
left,left,speed,,,,,0,1,1,1,22,1,45,0,676.9978395,,,,,,,,,676.9855715,677.3479952,678.1482372,678.1325151,678.1325772,678.1482372,678.1482372,678.1482372,,679.2672284,right,0,20.1350978,None,,,,,,,,,,,,,,,,,,,,,,,,,,,,,,sub-013,1,2025-03-13_13h47.04.955,random_dot,03.02.2023,60.028946,2025-03-13 13h47.16.909199 +0100
left,left,speed,,,,,0,1,1,1,23,0,46,0,679.2810603,,,,,,,,,679.2700228,680.0810469,680.8814514,680.8653915,680.8654297,680.8814514,680.8814514,680.8814514,685.8647684,686.4019067,left,1,24.5401785,None,,,,,,,,,,,,,,,,,,,,,,,,,,,,,,sub-013,1,2025-03-13_13h47.04.955,random_dot,03.02.2023,60.028946,2025-03-13 13h47.16.909199 +0100
right,right,speed,,,,,0,1,1,1,23,1,47,1,686.4138617,,,,,,,,,686.4045068,686.5138883,687.3145152,687.2991648,687.299219,687.3145152,687.3145152,687.3145152,,688.2332359,right,1,19.9317909,None,,,,,,,,,,,,,,,,,,,,,,,,,,,,,,sub-013,1,2025-03-13_13h47.04.955,random_dot,03.02.2023,60.028946,2025-03-13 13h47.16.909199 +0100
left,left,speed,,,,,0,1,1,1,24,0,48,0,688.2470989,,,,,,,,,688.2355335,688.5971666,689.3980748,689.3822185,689.3822764,689.3980748,689.3980748,689.3980748,,692.7330795,right,0,22.3505384,None,,,,,,,,,,,,,,,,,,,,,,,,,,,,,,sub-013,1,2025-03-13_13h47.04.955,random_dot,03.02.2023,60.028946,2025-03-13 13h47.16.909199 +0100
right,right,speed,,,,,0,1,1,1,24,1,49,1,692.7470063,,,,,,,,,692.735938,693.0972932,693.8976998,693.8819176,693.8819645,693.8976998,693.8976998,693.8976998,,694.6152029,right,1,19.7284444,None,,,,,,,,,,,,,,,,,,,,,,,,,,,,,,sub-013,1,2025-03-13_13h47.04.955,random_dot,03.02.2023,60.028946,2025-03-13 13h47.16.909199 +0100
left,left,speed,,,,,0,1,1,1,25,0,50,0,694.6301375,,,,,,,,,694.6165226,694.7303081,695.530949,695.5152546,695.5152979,695.530949,695.530949,695.530949,700.5306496,701.2652679,left,1,24.7493236,None,,,,,,,,,,,,,,,,,,,,,,,,,,,,,,sub-013,1,2025-03-13_13h47.04.955,random_dot,03.02.2023,60.028946,2025-03-13 13h47.16.909199 +0100
right,right,speed,,,,,0,1,1,1,25,1,51,1,701.2799287,,,,,,,,,701.2672126,701.6297265,702.4304248,702.4147227,702.4147676,702.4304248,702.4304248,702.4304248,,703.4991987,right,1,20.0895672,None,,,,,,,,,,,,,,,,,,,,,,,,,,,,,,sub-013,1,2025-03-13_13h47.04.955,random_dot,03.02.2023,60.028946,2025-03-13 13h47.16.909199 +0100
right,right,speed,,,,,0,1,1,1,26,0,52,1,703.5131154,,,,,,,,,703.5010338,704.7130137,705.5133351,705.497371,705.4973979,705.5133351,705.5133351,705.5133351,,706.4166702,right,1,19.9232372,None,,,,,,,,,,,,,,,,,,,,,,,,,,,,,,sub-013,1,2025-03-13_13h47.04.955,random_dot,03.02.2023,60.028946,2025-03-13 13h47.16.909199 +0100
left,left,speed,,,,,0,1,1,1,26,1,53,0,706.4295558,,,,,,,,,706.4184242,706.7797921,707.5804294,707.5659569,707.5660096,707.5804294,707.5804294,707.5804294,712.5801561,713.6484882,right,0,25.0801415,None,,,,,,,,,,,,,,,,,,,,,,,,,,,,,,sub-013,1,2025-03-13_13h47.04.955,random_dot,03.02.2023,60.028946,2025-03-13 13h47.16.909199 +0100
right,right,speed,,,,,0,1,1,1,27,0,54,1,713.6624731,,,,,,,,,713.6506098,714.0127187,714.813269,714.7975659,714.7976126,714.813269,714.813269,714.813269,,715.9140907,right,1,20.1213036,None,,,,,,,,,,,,,,,,,,,,,,,,,,,,,,sub-013,1,2025-03-13_13h47.04.955,random_dot,03.02.2023,60.028946,2025-03-13 13h47.16.909199 +0100
left,left,speed,,,,,0,1,1,1,27,1,55,0,715.9287021,,,,,,,,,715.9153022,716.0288367,716.8299369,716.8135933,716.813631,716.8299369,716.8299369,716.8299369,,719.9817212,left,1,22.1617259,None,,,,,,,,,,,,,,,,,,,,,,,,,,,,,,sub-013,1,2025-03-13_13h47.04.955,random_dot,03.02.2023,60.028946,2025-03-13 13h47.16.909199 +0100
right,right,speed,,,,,0,1,1,1,28,0,56,1,719.9954828,,,,,,,,,719.9835052,720.3454564,721.1467048,721.1302099,721.1302482,721.1467048,721.1467048,721.1467048,,722.1664582,right,1,20.0398585,None,,,,,,,,,,,,,,,,,,,,,,,,,,,,,,sub-013,1,2025-03-13_13h47.04.955,random_dot,03.02.2023,60.028946,2025-03-13 13h47.16.909199 +0100
left,left,speed,,,,,0,1,1,1,28,1,57,0,722.1787822,,,,,,,,,722.1693873,722.2789249,723.0793728,723.0637264,723.0637748,723.0793728,723.0793728,723.0793728,,724.0479613,left,1,19.9815637,None,,,,,,,,,,,,,,,,,,,,,,,,,,,,,,sub-013,1,2025-03-13_13h47.04.955,random_dot,03.02.2023,60.028946,2025-03-13 13h47.16.909199 +0100
right,right,speed,,,,,0,1,1,1,29,0,58,1,724.0622492,,,,,,,,,724.0500555,725.2623743,726.0624622,726.0471056,726.0471611,726.0624622,726.0624622,726.0624622,,728.4155291,right,1,21.3712602,None,,,,,,,,,,,,,,,,,,,,,,,,,,,,,,sub-013,1,2025-03-13_13h47.04.955,random_dot,03.02.2023,60.028946,2025-03-13 13h47.16.909199 +0100
left,left,speed,,,,,0,1,1,1,29,1,59,0,728.4287259,,,,,,,,,728.4177333,728.5288259,729.3293928,729.3135897,729.3136372,729.3293928,729.3293928,729.3293928,,730.1644197,right,0,19.8494261,None,,,,,,,,,,,,,,,,,,,,,,,,,,,,,,sub-013,1,2025-03-13_13h47.04.955,random_dot,03.02.2023,60.028946,2025-03-13 13h47.16.909199 +0100
,,speed,,,,,0,1,1,1,,,,,,,,,,,,,,,,,,,,,,,,,,,,,,,,,,,,,,,,,,,,,,,,,,,,,,,,,sub-013,1,2025-03-13_13h47.04.955,random_dot,03.02.2023,60.028946,2025-03-13 13h47.16.909199 +0100
,,,,,,,,,,,,,,,,,,,,,,,,,,,,,,,,,,,,,,,,,,,,,,,,,,,,,,,,,,,,,,,730.1660951,730.1782561,735.1781795,735.1639421,,,,,,,
