wordCTK,colorCTK,corrAnsCTK,congruentCTK,thisN,thisTrialN,thisRepN,keyResp_CTK.keys,keyResp_CTK.corr,keyResp_CTK.rt,keyResp_CTK.duration,wordPractice,colorPractice,corrAnsPractice,congruentPractice,respPractice.keys,respPractice.corr,respPractice.rt,respPractice.duration,word,color,corrAns,congruent,keyResp_test_run.keys,keyResp_test_run.corr,keyResp_test_run.rt,keyResp_test_run.duration,trials_CTK.thisRepN,trials_CTK.thisTrialN,trials_CTK.thisN,trials_CTK.thisIndex,trials_practice.thisRepN,trials_practice.thisTrialN,trials_practice.thisN,trials_practice.thisIndex,trials_test.thisRepN,trials_test.thisTrialN,trials_test.thisN,trials_test.thisIndex,thisRow.t,notes,instruction.started,instr_text.started,instr_image.started,instr_resp.started,instruction.stopped,instr_resp.keys,instr_resp.rt,instr_resp.duration,instr_color_to_key.started,instr_ctk.started,resp_ctk.started,instr_color_to_key.stopped,resp_ctk.keys,resp_ctk.rt,resp_ctk.duration,ITI.started,fixcross.started,fixcross.stopped,ITI.stopped,color_to_key_run.started,stimulus_CTK.started,keyResp_CTK.started,color_to_key_run.stopped,trials_CTK.keyResp_CTK.keys,trials_CTK.keyResp_CTK.corr,trials_CTK.keyResp_CTK.rt,trials_CTK.keyResp_CTK.duration,instr_practice.started,instr_practice_text.started,instr_practice_resp.started,instr_practice.stopped,instr_practice_resp.keys,instr_practice_resp.rt,instr_practice_resp.duration,practice_run.started,stimulus_practice.started,respPractice.started,practice_run.stopped,trials_practice.respPractice.keys,trials_practice.respPractice.corr,trials_practice.respPractice.rt,trials_practice.respPractice.duration,feedback.started,textFeedback.started,textFeedback.stopped,feedback.stopped,instr_test.started,instr_test_text.started,instr_test_resp.started,instr_test.stopped,instr_test_resp.keys,instr_test_resp.rt,instr_test_resp.duration,test_run.started,stimulus_test_run.started,keyResp_test_run.started,test_run.stopped,trials_test.keyResp_test_run.keys,trials_test.keyResp_test_run.corr,trials_test.keyResp_test_run.rt,trials_test.keyResp_test_run.duration,goodbye.started,textGoodbye.started,textGoodbye.stopped,goodbye.stopped,participant,session,expName,frameRate,Unnamed: 113
,,,,,,,,,,,,,,,,,,,,,,,,,,,,,,,,,,,,,,,,,0.0163051999988965,0.0317091000033542,0.0317091000033542,0.0317091000033542,42.68231679999735,space,42.64356450003106,,,,,,,,,,,,,,,,,,,,,,,,,,,,,,,,,,,,,,,,,,,,,,,,,,,,,,,,,,,sub-050,1,stroop_test,59.7492562677301,
,,,,,,,,,,,,,,,,,,,,,,,,,,,,,,,,,,,,,,,,,,,,,,,,,42.68236619996605,42.699375099968165,42.699375099968165,47.599583000002895,space,4.89926320000086,,,,,,,,,,,,,,,,,,,,,,,,,,,,,,,,,,,,,,,,,,,,,,,,,,,,sub-050,1,stroop_test,59.7492562677301,
test,red,r,1.0,0.0,0.0,0.0,r,1.0,10.7709500999772,,,,,,,,,,,,,,,,,,0.0,0.0,0.0,0.0,,,,,,,,,47.63088839995908,,,,,,,,,,,,,,,,,47.61863899999298,47.94885589997284,48.74771219998365,48.73235549998935,48.7373285999638,48.74771219998365,48.74771219998365,59.53189179999754,r,1.0,10.7709500999772,,,,,,,,,,,,,,,,,,,,,,,,,,,,,,,,,,,,,,,,sub-050,1,stroop_test,59.7492562677301,
test,yellow,g,1.0,1.0,1.0,0.0,g,1.0,3.5880642000120133,,,,,,,,,,,,,,,,,,0.0,1.0,1.0,1.0,,,,,,,,,59.548232099972665,,,,,,,,,,,,,,,,,59.532096999988426,60.33131229999708,61.132096499961335,61.115630199958105,61.11599849996856,61.132096499961335,61.132096499961335,64.73173589998623,g,1.0,3.5880642000120133,,,,,,,,,,,,,,,,,,,,,,,,,,,,,,,,,,,,,,,,sub-050,1,stroop_test,59.7492562677301,
test,blue,b,1.0,2.0,2.0,0.0,b,1.0,3.0214804999995977,,,,,,,,,,,,,,,,,,0.0,2.0,2.0,2.0,,,,,,,,,64.74829889996909,,,,,,,,,,,,,,,,,64.73197029996663,65.93151079997187,66.73180760000832,66.71522749995347,66.71558389998972,66.73180760000832,66.73180760000832,69.76506219996372,b,1.0,3.0214804999995977,,,,,,,,,,,,,,,,,,,,,,,,,,,,,,,,,,,,,,,,sub-050,1,stroop_test,59.7492562677301,
test,yellow,g,1.0,3.0,0.0,1.0,g,1.0,0.8615509000374004,,,,,,,,,,,,,,,,,,1.0,0.0,3.0,1.0,,,,,,,,,69.78093229996739,,,,,,,,,,,,,,,,,69.76526409998769,69.8648925999878,70.66481879999628,70.64823629998136,70.64863650000188,70.66481879999628,70.66481879999628,71.53154469997389,g,1.0,0.8615509000374004,,,,,,,,,,,,,,,,,,,,,,,,,,,,,,,,,,,,,,,,sub-050,1,stroop_test,59.7492562677301,
test,blue,b,1.0,4.0,1.0,1.0,b,1.0,0.6256014000391588,,,,,,,,,,,,,,,,,,1.0,1.0,4.0,2.0,,,,,,,,,71.54822419997072,,,,,,,,,,,,,,,,,71.53179679997265,71.8812459000037,72.68122399999993,72.66471069998806,72.66508179996163,72.68122399999993,72.68122399999993,73.31503830000293,b,1.0,0.6256014000391588,,,,,,,,,,,,,,,,,,,,,,,,,,,,,,,,,,,,,,,,sub-050,1,stroop_test,59.7492562677301,
test,red,r,1.0,5.0,2.0,1.0,r,1.0,0.7274612999754027,,,,,,,,,,,,,,,,,,1.0,2.0,5.0,0.0,,,,,,,,,73.33090870000888,,,,,,,,,,,,,,,,,73.31523309997283,74.51483140001073,75.31379519996699,75.29857859999174,75.29897720000008,75.31379519996699,75.31379519996699,76.04821539996192,r,1.0,0.7274612999754027,,,,,,,,,,,,,,,,,,,,,,,,,,,,,,,,,,,,,,,,sub-050,1,stroop_test,59.7492562677301,
test,yellow,g,1.0,6.0,0.0,2.0,g,1.0,0.8438880000030622,,,,,,,,,,,,,,,,,,2.0,0.0,6.0,1.0,,,,,,,,,76.06495069997618,,,,,,,,,,,,,,,,,76.0484143999638,76.84815489995526,77.64828449999914,77.6311757999938,77.63149389997125,77.64828449999914,77.64828449999914,78.49820549995638,g,1.0,0.8438880000030622,,,,,,,,,,,,,,,,,,,,,,,,,,,,,,,,,,,,,,,,sub-050,1,stroop_test,59.7492562677301,
test,red,r,1.0,7.0,1.0,2.0,r,1.0,1.1084835999645293,,,,,,,,,,,,,,,,,,2.0,1.0,7.0,0.0,,,,,,,,,78.51494540000567,,,,,,,,,,,,,,,,,78.4984615999856,78.84766119997948,79.64781339996262,79.6311926000053,79.63159289996838,79.64781339996262,79.64781339996262,80.76494319998892,r,1.0,1.1084835999645293,,,,,,,,,,,,,,,,,,,,,,,,,,,,,,,,,,,,,,,,sub-050,1,stroop_test,59.7492562677301,
test,blue,b,1.0,8.0,2.0,2.0,b,1.0,0.5671337999519892,,,,,,,,,,,,,,,,,,2.0,2.0,8.0,2.0,,,,,,,,,80.78120059997309,,,,,,,,,,,,,,,,,80.7651435000007,81.96422319998965,82.76482019998366,82.74806720000925,82.74846189998789,82.76482019998366,82.76482019998366,83.3478458999889,b,1.0,0.5671337999519892,,,,,,,,,,,,,,,,,,,,,,,,,,,,,,,,,,,,,,,,sub-050,1,stroop_test,59.7492562677301,
test,blue,b,1.0,9.0,0.0,3.0,b,1.0,0.5013503999798559,,,,,,,,,,,,,,,,,,3.0,0.0,9.0,2.0,,,,,,,,,83.36375759996008,,,,,,,,,,,,,,,,,83.34813639998902,84.54761199996574,85.34804869996151,85.33133429998998,85.33165209996514,85.34804869996151,85.34804869996151,85.86513679998461,b,1.0,0.5013503999798559,,,,,,,,,,,,,,,,,,,,,,,,,,,,,,,,,,,,,,,,sub-050,1,stroop_test,59.7492562677301,
test,red,r,1.0,10.0,1.0,3.0,r,1.0,1.5781078999862077,,,,,,,,,,,,,,,,,,3.0,1.0,10.0,0.0,,,,,,,,,85.88072129996726,,,,,,,,,,,,,,,,,85.86536219995469,85.96391759999096,86.76312640000833,86.74803570000222,86.7483619999839,86.76312640000833,86.76312640000833,88.34794429998146,r,1.0,1.5781078999862077,,,,,,,,,,,,,,,,,,,,,,,,,,,,,,,,,,,,,,,,sub-050,1,stroop_test,59.7492562677301,
test,yellow,g,1.0,11.0,2.0,3.0,g,1.0,0.8069866999867372,,,,,,,,,,,,,,,,,,3.0,2.0,11.0,1.0,,,,,,,,,88.3643070999533,,,,,,,,,,,,,,,,,88.34814399998868,88.69745149998926,89.49796109995805,89.48076050000964,89.4810386999743,89.49796109995805,89.49796109995805,90.31442029995378,g,1.0,0.8069866999867372,,,,,,,,,,,,,,,,,,,,,,,,,,,,,,,,,,,,,,,,sub-050,1,stroop_test,59.7492562677301,
,,,,,,,,,,,,,,,,,,,,,,,,,,,,,,,,,,,,,,,,,,,,,,,,,,,,,,,,,,,,,,,,,,,,90.31454220000887,90.33059029997094,90.33059029997094,100.38080729998184,space,10.042187299986836,,,,,,,,,,,,,,,,,,,,,,,,,,,,,,,,,sub-050,1,stroop_test,59.7492562677301,
,,,,0.0,0.0,0.0,,,,,gelb,red,r,0.0,r,1.0,1.8650591000332497,,,,,,,,,,,,,,0.0,0.0,0.0,8.0,,,,,100.41394130000845,,,,,,,,,,,,,,,,,100.39625970000634,100.73035629995866,101.52940639998997,101.51438730000518,,,,,,,,,,,,,,,,101.51867530000165,101.52940639998997,101.52940639998997,103.39707020000787,r,1.0,1.8650591000332497,,103.40203619998648,103.41275949997362,104.41389159997924,104.39727439999116,,,,,,,,,,,,,,,,,,,,sub-050,1,stroop_test,59.7492562677301,
,,,,1.0,1.0,0.0,,,,,rot,red,r,1.0,r,1.0,0.9298745999694802,,,,,,,,,,,,,,0.0,1.0,1.0,0.0,,,,,104.41389159997924,,,,,,,,,,,,,,,,,104.39751919999252,105.59716800000751,106.39610710000852,106.38034819997849,,,,,,,,,,,,,,,,106.38386820000596,106.39610710000852,106.39610710000852,107.33073119999608,r,1.0,0.9298745999694802,,107.33116329996848,107.34753420000196,108.3472960999934,108.33033339999383,,,,,,,,,,,,,,,,,,,,sub-050,1,stroop_test,59.7492562677301,
,,,,2.0,2.0,0.0,,,,,blau,blue,b,1.0,b,1.0,0.4923717000056058,,,,,,,,,,,,,,0.0,2.0,2.0,6.0,,,,,108.3472960999934,,,,,,,,,,,,,,,,,108.33051780000096,109.53027439996367,110.3290590000106,110.3138745999895,,,,,,,,,,,,,,,,110.317685899965,110.3290590000106,110.3290590000106,110.83073240000522,b,1.0,0.4923717000056058,,110.8310843000072,110.84713349997764,111.84670850000111,111.83046169998124,,,,,,,,,,,,,,,,,,,,sub-050,1,stroop_test,59.7492562677301,
,,,,3.0,3.0,0.0,,,,,rot,yellow,g,0.0,g,1.0,1.0467066999990493,,,,,,,,,,,,,,0.0,3.0,3.0,3.0,,,,,111.84670850000111,,,,,,,,,,,,,,,,,111.83067439997104,112.63053859997308,113.42902809998486,113.41328909998992,,,,,,,,,,,,,,,,113.4150427999557,113.42902809998486,113.42902809998486,114.48045869998168,g,1.0,1.0467066999990493,,114.4807628999697,114.49718579999173,115.49678879999556,115.48064989998238,,,,,,,,,,,,,,,,,,,,sub-050,1,stroop_test,59.7492562677301,
,,,,4.0,4.0,0.0,,,,,gelb,yellow,g,1.0,g,1.0,0.439602600003127,,,,,,,,,,,,,,0.0,4.0,4.0,10.0,,,,,115.49678879999556,,,,,,,,,,,,,,,,,115.48087480000686,116.6798113999539,117.4794182999758,117.46367209998424,,,,,,,,,,,,,,,,117.4658511999878,117.4794182999758,117.4794182999758,117.93047119997208,g,1.0,0.439602600003127,,117.93093129998306,117.94576329999836,118.94663009996292,118.93054410000332,,,,,,,,,,,,,,,,,,,,sub-050,1,stroop_test,59.7492562677301,
,,,,5.0,5.0,0.0,,,,,blau,yellow,g,0.0,g,1.0,0.6568946000188589,,,,,,,,,,,,,,0.0,5.0,5.0,7.0,,,,,118.94663009996292,,,,,,,,,,,,,,,,,118.93075209995732,120.12966289999896,120.9290090999566,120.91343959997177,,,,,,,,,,,,,,,,120.91526939999312,120.9290090999566,120.9290090999566,121.59711390000302,g,1.0,0.6568946000188589,,121.59743049996904,121.61236829997506,122.61291419999908,122.59733580000466,,,,,,,,,,,,,,,,,,,,sub-050,1,stroop_test,59.7492562677301,
,,,,6.0,6.0,0.0,,,,,blau,blue,b,1.0,b,1.0,0.4786553000449203,,,,,,,,,,,,,,0.0,6.0,6.0,5.0,,,,,122.61291419999908,,,,,,,,,,,,,,,,,122.59761100000468,122.6968684999738,123.495625999989,123.48039340000832,,,,,,,,,,,,,,,,123.48076379997656,123.495625999989,123.495625999989,123.9802676999825,b,1.0,0.4786553000449203,,123.98056199995337,123.99581529997522,124.99616769998102,124.97988639998948,,,,,,,,,,,,,,,,,,,,sub-050,1,stroop_test,59.7492562677301,
,,,,7.0,7.0,0.0,,,,,gelb,blue,b,0.0,b,1.0,0.5365710000041872,,,,,,,,,,,,,,0.0,7.0,7.0,9.0,,,,,124.99616769998102,,,,,,,,,,,,,,,,,124.9801249000011,125.32978129998082,126.12884809996469,126.11368239996956,,,,,,,,,,,,,,,,126.1155072999536,126.12884809996469,126.12884809996469,126.68040559999643,b,1.0,0.5365710000041872,,126.6807153999689,126.6958428999642,127.69612789998064,127.67982419999316,,,,,,,,,,,,,,,,,,,,sub-050,1,stroop_test,59.7492562677301,
,,,,8.0,8.0,0.0,,,,,rot,red,r,1.0,r,1.0,0.6261688999948092,,,,,,,,,,,,,,0.0,8.0,8.0,1.0,,,,,127.69612789998064,,,,,,,,,,,,,,,,,127.68010219995632,128.47999999998137,129.27914929995313,129.26329809997696,,,,,,,,,,,,,,,,129.2650619999622,129.27914929995313,129.27914929995313,129.91305929998634,r,1.0,0.6261688999948092,,129.91346029995475,129.93024109996622,,130.9132557999692,,,,,,,,,,,,,,,,,,,,sub-050,1,stroop_test,59.7492562677301,
,,,,9.0,9.0,0.0,,,,,gelb,yellow,g,1.0,g,1.0,0.7545552999945357,,,,,,,,,,,,,,0.0,9.0,9.0,11.0,,,,,130.9298421999556,,,,,,,,,,,,,,,,,130.91351859999122,131.26247719995445,132.06203049997566,132.04684349999297,,,,,,,,,,,,,,,,132.049217999971,132.06203049997566,132.06203049997566,132.82993819995318,g,1.0,0.7545552999945357,,132.83023889997276,132.84583830001066,133.84647220000625,133.8302651999984,,,,,,,,,,,,,,,,,,,,sub-050,1,stroop_test,59.7492562677301,
,,,,10.0,10.0,0.0,,,,,rot,blue,b,0.0,b,1.0,0.5197480000206269,,,,,,,,,,,,,,0.0,10.0,10.0,2.0,,,,,133.84647220000625,,,,,,,,,,,,,,,,,133.83051239995984,133.9292659999919,134.7284299999592,134.71318339998834,,,,,,,,,,,,,,,,134.7150374999619,134.7284299999592,134.7284299999592,135.26396620000014,b,1.0,0.5197480000206269,,135.2642676999676,135.2784524000017,136.27849319996312,136.26308179995976,,,,,,,,,,,,,,,,,,,,sub-050,1,stroop_test,59.7492562677301,
,,,,11.0,11.0,0.0,,,,,blau,red,r,0.0,r,1.0,0.5776884999941103,,,,,,,,,,,,,,0.0,11.0,11.0,4.0,,,,,136.27849319996312,,,,,,,,,,,,,,,,,136.26336149999406,137.06277929997304,137.86227639997378,137.84678259998327,,,,,,,,,,,,,,,,137.8486741000088,137.86227639997378,137.86227639997378,138.44661899999485,r,1.0,0.5776884999941103,,138.44691389997024,138.46266739995917,139.46279809996486,139.44702639995376,,,,,,,,,,,,,,,,,,,,sub-050,1,stroop_test,59.7492562677301,
,,,,12.0,0.0,1.0,,,,,blau,red,r,0.0,r,1.0,0.5054369000135921,,,,,,,,,,,,,,1.0,0.0,12.0,4.0,,,,,139.46279809996486,,,,,,,,,,,,,,,,,139.4472655999707,140.2456797999912,141.0457114999881,141.0300766999717,,,,,,,,,,,,,,,,141.03042069997173,141.0457114999881,141.0457114999881,141.56307470001047,r,1.0,0.5054369000135921,,141.5633920999826,141.5795696999994,142.57957289996557,142.56313399999635,,,,,,,,,,,,,,,,,,,,sub-050,1,stroop_test,59.7492562677301,
,,,,13.0,1.0,1.0,,,,,blau,blue,b,1.0,b,1.0,0.637510500033386,,,,,,,,,,,,,,1.0,1.0,13.0,6.0,,,,,142.57957289996557,,,,,,,,,,,,,,,,,142.56336919998284,142.6626539999852,143.46229900000617,143.4464474999695,,,,,,,,,,,,,,,,143.4468228999758,143.46229900000617,143.46229900000617,144.11285909998696,b,1.0,0.637510500033386,,144.11320909997448,144.12938399997074,145.128748899966,145.11261680000462,,,,,,,,,,,,,,,,,,,,sub-050,1,stroop_test,59.7492562677301,
,,,,14.0,2.0,1.0,,,,,gelb,blue,b,0.0,b,1.0,0.7341751999920234,,,,,,,,,,,,,,1.0,2.0,14.0,9.0,,,,,145.128748899966,,,,,,,,,,,,,,,,,145.1128643999691,145.21221809997223,146.01299209997524,145.99582529999316,,,,,,,,,,,,,,,,145.9978310999577,146.01299209997524,146.01299209997524,146.7629120000056,b,1.0,0.7341751999920234,,146.76325779996114,146.77997509995475,,147.76309779996518,,,,,,,,,,,,,,,,,,,,sub-050,1,stroop_test,59.7492562677301,
,,,,15.0,3.0,1.0,,,,,blau,blue,b,1.0,b,1.0,0.4408340000081807,,,,,,,,,,,,,,1.0,3.0,15.0,5.0,,,,,147.77910529996734,,,,,,,,,,,,,,,,,147.76335069997003,147.86295959999552,148.66148279997287,148.64644669997506,,,,,,,,,,,,,,,,148.649262299994,148.66148279997287,148.66148279997287,149.11291500000516,b,1.0,0.4408340000081807,,149.11339660000522,149.1299771000049,150.1296110000112,150.1132097999798,,,,,,,,,,,,,,,,,,,,sub-050,1,stroop_test,59.7492562677301,
,,,,16.0,4.0,1.0,,,,,rot,red,r,1.0,r,1.0,0.550507599953562,,,,,,,,,,,,,,1.0,4.0,16.0,0.0,,,,,150.1296110000112,,,,,,,,,,,,,,,,,150.11345399997663,150.91198939998867,151.7113366999547,151.69558299996424,,,,,,,,,,,,,,,,151.69742949999636,151.7113366999547,151.7113366999547,152.26330089999828,r,1.0,0.550507599953562,,152.26361580000955,152.2783778999583,153.27884270000504,153.26264349999838,,,,,,,,,,,,,,,,,,,,sub-050,1,stroop_test,59.7492562677301,
,,,,17.0,5.0,1.0,,,,,gelb,yellow,g,1.0,g,1.0,0.5382808999856934,,,,,,,,,,,,,,1.0,5.0,17.0,10.0,,,,,153.27884270000504,,,,,,,,,,,,,,,,,153.26296979998006,153.61229919997277,154.41184059996158,154.39640480000526,,,,,,,,,,,,,,,,154.39826109999558,154.41184059996158,154.41184059996158,154.9634939999669,g,1.0,0.5382808999856934,,154.96378769999137,154.97822469996754,155.97861839999678,155.96241089998512,,,,,,,,,,,,,,,,,,,,sub-050,1,stroop_test,59.7492562677301,
,,,,18.0,6.0,1.0,,,,,rot,yellow,g,0.0,g,1.0,0.5612912999931723,,,,,,,,,,,,,,1.0,6.0,18.0,3.0,,,,,155.97861839999678,,,,,,,,,,,,,,,,,155.96264539996628,156.3292633999954,157.12863469996955,157.11288169998443,,,,,,,,,,,,,,,,157.1145714999875,157.12863469996955,157.12863469996955,157.696478799975,g,1.0,0.5612912999931723,,157.69681449997006,157.7113480999833,158.71204670000589,158.69577170000412,,,,,,,,,,,,,,,,,,,,sub-050,1,stroop_test,59.7492562677301,
,,,,19.0,7.0,1.0,,,,,blau,yellow,g,0.0,g,1.0,0.903052200039383,,,,,,,,,,,,,,1.0,7.0,19.0,7.0,,,,,158.71204670000589,,,,,,,,,,,,,,,,,158.69600809999974,159.04572819999885,159.8450614999747,159.82964329997776,,,,,,,,,,,,,,,,159.83192039997084,159.8450614999747,159.8450614999747,160.76263819995802,g,1.0,0.903052200039383,,160.76298359996872,160.77777190000052,,161.76274079998257,,,,,,,,,,,,,,,,,,,,sub-050,1,stroop_test,59.7492562677301,
,,,,20.0,8.0,1.0,,,,,gelb,yellow,g,1.0,g,1.0,0.3990630999905988,,,,,,,,,,,,,,1.0,8.0,20.0,11.0,,,,,161.77926589996787,,,,,,,,,,,,,,,,,161.76304669998353,162.11224419996142,162.91174630000023,162.89624019997427,,,,,,,,,,,,,,,,162.89829799998552,162.91174630000023,162.91174630000023,163.3129242999712,g,1.0,0.3990630999905988,,163.31323679996422,163.32955279998714,164.32858689996647,164.31242939998629,,,,,,,,,,,,,,,,,,,,sub-050,1,stroop_test,59.7492562677301,
,,,,21.0,9.0,1.0,,,,,rot,red,r,1.0,r,1.0,0.4765263000153936,,,,,,,,,,,,,,1.0,9.0,21.0,1.0,,,,,164.32858689996647,,,,,,,,,,,,,,,,,164.31268229999114,164.41182689997368,165.21132729999954,165.1959024000098,,,,,,,,,,,,,,,,165.1976694999612,165.21132729999954,165.21132729999954,165.69546739995712,r,1.0,0.4765263000153936,,165.69591939996462,165.71178680000594,,166.69579440000234,,,,,,,,,,,,,,,,,,,,sub-050,1,stroop_test,59.7492562677301,
,,,,22.0,10.0,1.0,,,,,rot,blue,b,0.0,b,1.0,0.4128346999641508,,,,,,,,,,,,,,1.0,10.0,22.0,2.0,,,,,166.7123195999884,,,,,,,,,,,,,,,,,166.69607269996777,167.04590819997247,167.84584369999357,167.82927129999734,,,,,,,,,,,,,,,,167.82962489995407,167.84584369999357,167.84584369999357,168.26238179998472,b,1.0,0.4128346999641508,,168.26267279998865,168.27857049996965,169.27853640000103,169.2626627999707,,,,,,,,,,,,,,,,,,,,sub-050,1,stroop_test,59.7492562677301,
,,,,23.0,11.0,1.0,,,,,gelb,red,r,0.0,r,1.0,0.5314888000139035,,,,,,,,,,,,,,1.0,11.0,23.0,8.0,,,,,169.27853640000103,,,,,,,,,,,,,,,,,169.2629388999776,169.6123627999914,170.41140889999224,170.39584879996255,,,,,,,,,,,,,,,,170.3978630999918,170.41140889999224,170.41140889999224,170.945547899988,r,1.0,0.5314888000139035,,170.94588600000134,170.96176199999172,171.96178409998538,171.9454420999973,,,,,,,,,,,,,,,,,,,,sub-050,1,stroop_test,59.7492562677301,
,,,,,,,,,,,,,,,,,,,,,,,,,,,,,,,,,,,,,,,,,,,,,,,,,,,,,,,,,,,,,,,,,,,,,,,,,,,,,,,,,,,,,,,171.9455505000078,171.96178409998538,171.96178409998538,177.02877340000123,space,5.065935800026637,,,,,,,,,,,,,,sub-050,1,stroop_test,59.7492562677301,
,,,,0.0,0.0,0.0,,,,,,,,,,,,,gelb,yellow,g,1.0,g,1.0,2.764465800020844,,,,,,,,,,0.0,0.0,0.0,10.0,177.06176059995778,,,,,,,,,,,,,,,,,177.04444369999692,178.2287406999967,179.02746389998356,179.0120669999742,,,,,,,,,,,,,,,,,,,,,,,,,,,,,,,,,,,179.01407440000912,179.02746389998356,179.02746389998356,181.7954089999548,g,1.0,2.764465800020844,,,,,,sub-050,1,stroop_test,59.7492562677301,
,,,,1.0,1.0,0.0,,,,,,,,,,,,,rot,blue,b,0.0,b,1.0,0.5662081000045873,,,,,,,,,,0.0,1.0,1.0,2.0,181.81169139995475,,,,,,,,,,,,,,,,,181.79565599997292,182.59506109997164,183.3944445999805,183.37922050000637,,,,,,,,,,,,,,,,,,,,,,,,,,,,,,,,,,,183.3810620000004,183.3944445999805,183.3944445999805,183.962563899986,b,1.0,0.5662081000045873,,,,,,sub-050,1,stroop_test,59.7492562677301,
,,,,2.0,2.0,0.0,,,,,,,,,,,,,blau,red,r,0.0,r,1.0,0.6094699999666773,,,,,,,,,,0.0,2.0,2.0,4.0,183.9786948999972,,,,,,,,,,,,,,,,,183.96282109996537,184.0781070999801,184.8778387999628,184.86214189999737,,,,,,,,,,,,,,,,,,,,,,,,,,,,,,,,,,,184.86417789995903,184.8778387999628,184.8778387999628,185.4955850999686,r,1.0,0.6094699999666773,,,,,,sub-050,1,stroop_test,59.7492562677301,
,,,,3.0,3.0,0.0,,,,,,,,,,,,,gelb,blue,b,0.0,b,1.0,0.5896131999907084,,,,,,,,,,0.0,3.0,3.0,9.0,185.51126900000963,,,,,,,,,,,,,,,,,185.4958252999932,186.69497650000267,187.49393639998743,187.4786518999608,,,,,,,,,,,,,,,,,,,,,,,,,,,,,,,,,,,187.48054859996773,187.49393639998743,187.49393639998743,188.0953625999973,b,1.0,0.5896131999907084,,,,,,sub-050,1,stroop_test,59.7492562677301,
,,,,4.0,4.0,0.0,,,,,,,,,,,,,blau,yellow,g,0.0,g,1.0,0.8338774000294507,,,,,,,,,,0.0,4.0,4.0,7.0,188.1117562999716,,,,,,,,,,,,,,,,,188.0955937000108,188.4445670999703,189.24388079997152,189.2288777999929,,,,,,,,,,,,,,,,,,,,,,,,,,,,,,,,,,,189.23113849997756,189.24388079997152,189.24388079997152,190.07915929995943,g,1.0,0.8338774000294507,,,,,,sub-050,1,stroop_test,59.7492562677301,
,,,,5.0,5.0,0.0,,,,,,,,,,,,,rot,red,r,1.0,r,1.0,0.5727377000148408,,,,,,,,,,0.0,5.0,5.0,1.0,190.0953734999639,,,,,,,,,,,,,,,,,190.07939500000796,190.17833889997564,190.97758129995785,190.96224419999635,,,,,,,,,,,,,,,,,,,,,,,,,,,,,,,,,,,190.9640985999722,190.97758129995785,190.97758129995785,191.5618774999748,r,1.0,0.5727377000148408,,,,,,sub-050,1,stroop_test,59.7492562677301,
,,,,6.0,6.0,0.0,,,,,,,,,,,,,rot,red,r,1.0,r,1.0,0.5366808999679051,,,,,,,,,,0.0,6.0,6.0,0.0,191.57799289998368,,,,,,,,,,,,,,,,,191.56210039998405,191.66136789997108,192.46120959997643,192.445462499978,,,,,,,,,,,,,,,,,,,,,,,,,,,,,,,,,,,192.4458456999855,192.46120959997643,192.46120959997643,193.0125274999882,r,1.0,0.5366808999679051,,,,,,sub-050,1,stroop_test,59.7492562677301,
,,,,7.0,7.0,0.0,,,,,,,,,,,,,gelb,red,r,0.0,r,1.0,0.562742399983108,,,,,,,,,,0.0,7.0,7.0,8.0,193.02801660000117,,,,,,,,,,,,,,,,,193.0127924999688,194.22790339996573,195.027434299991,195.0119600999751,,,,,,,,,,,,,,,,,,,,,,,,,,,,,,,,,,,195.013862599968,195.027434299991,195.027434299991,195.59510360000425,r,1.0,0.562742399983108,,,,,,sub-050,1,stroop_test,59.7492562677301,
,,,,8.0,8.0,0.0,,,,,,,,,,,,,blau,blue,b,1.0,b,1.0,0.4254720999742858,,,,,,,,,,0.0,8.0,8.0,6.0,195.6115392000065,,,,,,,,,,,,,,,,,195.59533849998843,195.9444722000044,196.74413299997104,196.7284916999633,,,,,,,,,,,,,,,,,,,,,,,,,,,,,,,,,,,196.7304522999912,196.74413299997104,196.74413299997104,197.1786597999744,b,1.0,0.4254720999742858,,,,,,sub-050,1,stroop_test,59.7492562677301,
,,,,9.0,9.0,0.0,,,,,,,,,,,,,rot,yellow,g,0.0,g,1.0,0.4496164000011049,,,,,,,,,,0.0,9.0,9.0,3.0,197.19489270000489,,,,,,,,,,,,,,,,,197.1789529999951,197.97850849997485,198.77748669998252,198.76207120000615,,,,,,,,,,,,,,,,,,,,,,,,,,,,,,,,,,,198.7641680999659,198.77748669998252,198.77748669998252,199.22885419998784,g,1.0,0.4496164000011049,,,,,,sub-050,1,stroop_test,59.7492562677301,
,,,,10.0,10.0,0.0,,,,,,,,,,,,,gelb,yellow,g,1.0,g,1.0,0.4493775999872014,,,,,,,,,,0.0,10.0,10.0,11.0,199.2448482000036,,,,,,,,,,,,,,,,,199.2290988999885,200.42813089996343,201.22680189996024,201.2115856999881,,,,,,,,,,,,,,,,,,,,,,,,,,,,,,,,,,,201.21371759998144,201.22680189996024,201.22680189996024,201.67837719997624,g,1.0,0.4493775999872014,,,,,,sub-050,1,stroop_test,59.7492562677301,
,,,,11.0,11.0,0.0,,,,,,,,,,,,,blau,blue,b,1.0,b,1.0,0.5066121999989264,,,,,,,,,,0.0,11.0,11.0,5.0,201.6944992999779,,,,,,,,,,,,,,,,,201.6786204999662,201.7781728999689,202.57691289996728,202.5615121999872,,,,,,,,,,,,,,,,,,,,,,,,,,,,,,,,,,,202.56351119995816,202.57691289996728,202.57691289996728,203.09599840000735,b,1.0,0.5066121999989264,,,,,,sub-050,1,stroop_test,59.7492562677301,
,,,,12.0,0.0,1.0,,,,,,,,,,,,,gelb,blue,b,0.0,b,1.0,0.6424806000432,,,,,,,,,,1.0,0.0,12.0,9.0,203.1116863999632,,,,,,,,,,,,,,,,,203.09623599995396,203.91110709996428,204.7109638999682,204.6953323999769,,,,,,,,,,,,,,,,,,,,,,,,,,,,,,,,,,,204.69715239998183,204.7109638999682,204.7109638999682,205.3612980999751,b,1.0,0.6424806000432,,,,,,sub-050,1,stroop_test,59.7492562677301,
,,,,13.0,1.0,1.0,,,,,,,,,,,,,blau,blue,b,1.0,b,1.0,0.395768400048837,,,,,,,,,,1.0,1.0,13.0,6.0,205.37839359999637,,,,,,,,,,,,,,,,,205.36151919997064,206.16108240000904,206.96058600000103,206.94507539999904,,,,,,,,,,,,,,,,,,,,,,,,,,,,,,,,,,,206.9475113999797,206.96058600000103,206.96058600000103,207.3614972999785,b,1.0,0.395768400048837,,,,,,sub-050,1,stroop_test,59.7492562677301,
,,,,14.0,2.0,1.0,,,,,,,,,,,,,rot,blue,b,0.0,b,1.0,0.3652724000276066,,,,,,,,,,1.0,2.0,14.0,2.0,207.37811679998413,,,,,,,,,,,,,,,,,207.3617295000004,207.7111658999929,208.50994019996145,208.4946181999985,,,,,,,,,,,,,,,,,,,,,,,,,,,,,,,,,,,208.49642219999805,208.50994019996145,208.50994019996145,208.87806209997507,b,1.0,0.3652724000276066,,,,,,sub-050,1,stroop_test,59.7492562677301,
,,,,15.0,3.0,1.0,,,,,,,,,,,,,blau,blue,b,1.0,b,1.0,0.4218498000409454,,,,,,,,,,1.0,3.0,15.0,5.0,208.89406129997224,,,,,,,,,,,,,,,,,208.8782823999645,209.677670999954,210.4767853000085,210.46108380000803,,,,,,,,,,,,,,,,,,,,,,,,,,,,,,,,,,,210.4631604999886,210.4767853000085,210.4767853000085,210.91157319996276,b,1.0,0.4218498000409454,,,,,,sub-050,1,stroop_test,59.7492562677301,
,,,,16.0,4.0,1.0,,,,,,,,,,,,,gelb,red,r,0.0,r,1.0,0.5517498999834061,,,,,,,,,,1.0,4.0,16.0,8.0,210.9281844999641,,,,,,,,,,,,,,,,,210.9118443999905,211.71142109995708,212.5099087999552,212.49495109997224,,,,,,,,,,,,,,,,,,,,,,,,,,,,,,,,,,,212.49691769998756,212.5099087999552,212.5099087999552,213.07886979996687,r,1.0,0.5517498999834061,,,,,,sub-050,1,stroop_test,59.7492562677301,
,,,,17.0,5.0,1.0,,,,,,,,,,,,,rot,yellow,g,0.0,g,1.0,0.5802197000011802,,,,,,,,,,1.0,5.0,17.0,3.0,213.0947201999952,,,,,,,,,,,,,,,,,213.0790968000074,213.19428319996223,213.9935692999861,213.9776084999903,,,,,,,,,,,,,,,,,,,,,,,,,,,,,,,,,,,213.979411599983,213.9935692999861,213.9935692999861,214.57808339997428,g,1.0,0.5802197000011802,,,,,,sub-050,1,stroop_test,59.7492562677301,
,,,,18.0,6.0,1.0,,,,,,,,,,,,,blau,red,r,0.0,b,0.0,0.484056600020267,,,,,,,,,,1.0,6.0,18.0,4.0,214.59442689997377,,,,,,,,,,,,,,,,,214.5783283999772,215.3772493999568,216.17640339996436,216.16092529997692,,,,,,,,,,,,,,,,,,,,,,,,,,,,,,,,,,,216.1632652999833,216.17640339996436,216.17640339996436,216.6620423999848,b,0.0,0.484056600020267,,,,,,sub-050,1,stroop_test,59.7492562677301,
,,,,19.0,7.0,1.0,,,,,,,,,,,,,gelb,yellow,g,1.0,g,1.0,1.3523785999859683,,,,,,,,,,1.0,7.0,19.0,10.0,216.6772603999707,,,,,,,,,,,,,,,,,216.66226159996583,217.0279745999724,217.82687220000665,217.81112569995457,,,,,,,,,,,,,,,,,,,,,,,,,,,,,,,,,,,217.8129590000026,217.82687220000665,217.82687220000665,219.19531849998748,g,1.0,1.3523785999859683,,,,,,sub-050,1,stroop_test,59.7492562677301,
,,,,20.0,8.0,1.0,,,,,,,,,,,,,rot,red,r,1.0,r,1.0,0.4892732999869622,,,,,,,,,,1.0,8.0,20.0,1.0,219.20970329997365,,,,,,,,,,,,,,,,,219.19563789997483,220.41111599997384,221.210391599976,221.1943750999635,,,,,,,,,,,,,,,,,,,,,,,,,,,,,,,,,,,221.1961910999962,221.210391599976,221.210391599976,221.7111863999744,r,1.0,0.4892732999869622,,,,,,sub-050,1,stroop_test,59.7492562677301,
,,,,21.0,9.0,1.0,,,,,,,,,,,,,blau,yellow,g,0.0,g,1.0,0.944026900047902,,,,,,,,,,1.0,9.0,21.0,7.0,221.72701669996604,,,,,,,,,,,,,,,,,221.7114315999788,222.061254500004,222.86003869998967,222.84460289997517,,,,,,,,,,,,,,,,,,,,,,,,,,,,,,,,,,,222.84651929995744,222.86003869998967,222.86003869998967,223.81115779996617,g,1.0,0.944026900047902,,,,,,sub-050,1,stroop_test,59.7492562677301,
,,,,22.0,10.0,1.0,,,,,,,,,,,,,gelb,yellow,g,1.0,g,1.0,0.5299522000132129,,,,,,,,,,1.0,10.0,22.0,11.0,223.82684779999545,,,,,,,,,,,,,,,,,223.81139659998007,224.61023439996643,225.4103906999808,225.39442989998497,,,,,,,,,,,,,,,,,,,,,,,,,,,,,,,,,,,225.396585999988,225.4103906999808,225.4103906999808,225.94445579999592,g,1.0,0.5299522000132129,,,,,,sub-050,1,stroop_test,59.7492562677301,
,,,,23.0,11.0,1.0,,,,,,,,,,,,,rot,red,r,1.0,r,1.0,0.6613469999865629,,,,,,,,,,1.0,11.0,23.0,0.0,225.96026829996845,,,,,,,,,,,,,,,,,225.94468849996335,226.2942827999941,227.0935937999748,227.07815739995567,,,,,,,,,,,,,,,,,,,,,,,,,,,,,,,,,,,227.08000949997225,227.0935937999748,227.0935937999748,227.7609480000101,r,1.0,0.6613469999865629,,,,,,sub-050,1,stroop_test,59.7492562677301,
,,,,24.0,0.0,2.0,,,,,,,,,,,,,blau,yellow,g,0.0,g,1.0,0.6319900999660604,,,,,,,,,,2.0,0.0,24.0,7.0,227.77708949998487,,,,,,,,,,,,,,,,,227.76119519997155,228.5602540000109,229.35963819996687,229.34454769996228,,,,,,,,,,,,,,,,,,,,,,,,,,,,,,,,,,,229.34647769998992,229.35963819996687,229.35963819996687,229.99455269996545,g,1.0,0.6319900999660604,,,,,,sub-050,1,stroop_test,59.7492562677301,
,,,,25.0,1.0,2.0,,,,,,,,,,,,,gelb,yellow,g,1.0,g,1.0,0.4532535999896936,,,,,,,,,,2.0,1.0,25.0,11.0,230.0107171999989,,,,,,,,,,,,,,,,,229.99483390001117,231.19396679999767,231.99275859998303,231.9771371000097,,,,,,,,,,,,,,,,,,,,,,,,,,,,,,,,,,,231.9790273999679,231.99275859998303,231.99275859998303,232.460895599972,g,1.0,0.4532535999896936,,,,,,sub-050,1,stroop_test,59.7492562677301,
,,,,26.0,2.0,2.0,,,,,,,,,,,,,gelb,yellow,g,1.0,g,1.0,0.4455829000216909,,,,,,,,,,2.0,2.0,26.0,10.0,232.4769792999723,,,,,,,,,,,,,,,,,232.461109899974,232.5605219999561,233.3611606999766,233.34419340000025,,,,,,,,,,,,,,,,,,,,,,,,,,,,,,,,,,,233.3445444999961,233.3611606999766,233.3611606999766,233.81099569995425,g,1.0,0.4455829000216909,,,,,,sub-050,1,stroop_test,59.7492562677301,
,,,,27.0,3.0,2.0,,,,,,,,,,,,,blau,blue,b,1.0,b,1.0,0.3757806000066921,,,,,,,,,,2.0,3.0,27.0,5.0,233.8272204999812,,,,,,,,,,,,,,,,,233.8112742999801,234.61029519996373,235.4093882999732,235.39358709997032,,,,,,,,,,,,,,,,,,,,,,,,,,,,,,,,,,,235.39589819998943,235.4093882999732,235.4093882999732,235.79493329999968,b,1.0,0.3757806000066921,,,,,,sub-050,1,stroop_test,59.7492562677301,
,,,,28.0,4.0,2.0,,,,,,,,,,,,,rot,red,r,1.0,r,1.0,0.4268475000280887,,,,,,,,,,2.0,4.0,28.0,1.0,235.81093719997443,,,,,,,,,,,,,,,,,235.79517419997137,236.16007779998472,236.95937950001095,236.9442105999915,,,,,,,,,,,,,,,,,,,,,,,,,,,,,,,,,,,236.94610349996947,236.95937950001095,236.95937950001095,237.3942796000047,r,1.0,0.4268475000280887,,,,,,sub-050,1,stroop_test,59.7492562677301,
,,,,29.0,5.0,2.0,,,,,,,,,,,,,rot,blue,b,0.0,b,1.0,0.3985336000332609,,,,,,,,,,2.0,5.0,29.0,2.0,237.41088139999192,,,,,,,,,,,,,,,,,237.39450369996484,238.5938501000055,239.3933776000049,239.37693849997595,,,,,,,,,,,,,,,,,,,,,,,,,,,,,,,,,,,239.3773435999756,239.3933776000049,239.3933776000049,239.79385499999623,b,1.0,0.3985336000332609,,,,,,sub-050,1,stroop_test,59.7492562677301,
,,,,30.0,6.0,2.0,,,,,,,,,,,,,rot,yellow,g,0.0,g,1.0,0.8414983000257052,,,,,,,,,,2.0,6.0,30.0,3.0,239.81018369999947,,,,,,,,,,,,,,,,,239.79409399995347,240.59395119996043,241.3932466999977,241.37709219998212,,,,,,,,,,,,,,,,,,,,,,,,,,,,,,,,,,,241.3774762999965,241.3932466999977,241.3932466999977,242.24420129996724,g,1.0,0.8414983000257052,,,,,,sub-050,1,stroop_test,59.7492562677301,
,,,,31.0,7.0,2.0,,,,,,,,,,,,,blau,red,r,0.0,r,1.0,0.7153686999808997,,,,,,,,,,2.0,7.0,31.0,4.0,242.26074249995872,,,,,,,,,,,,,,,,,242.2444398999796,242.3437050000066,243.14243649999844,243.1278146999539,,,,,,,,,,,,,,,,,,,,,,,,,,,,,,,,,,,243.129819099966,243.14243649999844,243.14243649999844,243.8608341999934,r,1.0,0.7153686999808997,,,,,,sub-050,1,stroop_test,59.7492562677301,
,,,,32.0,8.0,2.0,,,,,,,,,,,,,blau,blue,b,1.0,b,1.0,0.5506112999864854,,,,,,,,,,2.0,8.0,32.0,6.0,243.87728389998665,,,,,,,,,,,,,,,,,243.86107159999665,245.0599723999621,245.86097589996643,245.84420859999955,,,,,,,,,,,,,,,,,,,,,,,,,,,,,,,,,,,245.84461319999536,245.86097589996643,245.86097589996643,246.42706339998404,b,1.0,0.5506112999864854,,,,,,sub-050,1,stroop_test,59.7492562677301,
,,,,33.0,9.0,2.0,,,,,,,,,,,,,gelb,blue,b,0.0,b,1.0,0.4322682000347413,,,,,,,,,,2.0,9.0,33.0,9.0,246.4434638000093,,,,,,,,,,,,,,,,,246.4273434999632,247.6270997999818,248.42644680000376,248.41086559998803,,,,,,,,,,,,,,,,,,,,,,,,,,,,,,,,,,,248.41275249997847,248.42644680000376,248.42644680000376,248.8609234999749,b,1.0,0.4322682000347413,,,,,,sub-050,1,stroop_test,59.7492562677301,
,,,,34.0,10.0,2.0,,,,,,,,,,,,,gelb,red,r,0.0,r,1.0,0.5243868000106886,,,,,,,,,,2.0,10.0,34.0,8.0,248.87686640000905,,,,,,,,,,,,,,,,,248.86114409996665,248.97624250000808,249.7767104000086,249.76012569997687,,,,,,,,,,,,,,,,,,,,,,,,,,,,,,,,,,,249.76042269996836,249.7767104000086,249.7767104000086,250.3103804999846,r,1.0,0.5243868000106886,,,,,,sub-050,1,stroop_test,59.7492562677301,
,,,,35.0,11.0,2.0,,,,,,,,,,,,,rot,red,r,1.0,r,1.0,0.7382520000101067,,,,,,,,,,2.0,11.0,35.0,0.0,250.32578419998757,,,,,,,,,,,,,,,,,250.3106075999676,250.40977959998415,251.20974099996965,251.1938398999628,,,,,,,,,,,,,,,,,,,,,,,,,,,,,,,,,,,251.19600359996548,251.20974099996965,251.20974099996965,251.9608572999714,r,1.0,0.7382520000101067,,,,,,sub-050,1,stroop_test,59.7492562677301,
,,,,36.0,0.0,3.0,,,,,,,,,,,,,rot,red,r,1.0,r,1.0,0.4042927999980747,,,,,,,,,,3.0,0.0,36.0,0.0,251.9772155999672,,,,,,,,,,,,,,,,,251.96115619997727,252.31010840000815,253.10959509998796,253.09336999995867,,,,,,,,,,,,,,,,,,,,,,,,,,,,,,,,,,,253.09376069996503,253.10959509998796,253.10959509998796,253.5268867999548,r,1.0,0.4042927999980747,,,,,,sub-050,1,stroop_test,59.7492562677301,
,,,,37.0,1.0,3.0,,,,,,,,,,,,,blau,blue,b,1.0,b,1.0,0.4119484000257216,,,,,,,,,,3.0,1.0,37.0,6.0,253.5433761999593,,,,,,,,,,,,,,,,,253.5271012999583,253.87711229996057,254.67551619996084,254.6606416999712,,,,,,,,,,,,,,,,,,,,,,,,,,,,,,,,,,,254.6626141999732,254.67551619996084,254.67551619996084,255.09369059995515,b,1.0,0.4119484000257216,,,,,,sub-050,1,stroop_test,59.7492562677301,
,,,,38.0,2.0,3.0,,,,,,,,,,,,,gelb,yellow,g,1.0,g,1.0,0.5755711999954656,,,,,,,,,,3.0,2.0,38.0,11.0,255.11048299999675,,,,,,,,,,,,,,,,,255.09392839996144,255.44341969996455,256.24267479998525,256.22725809999974,,,,,,,,,,,,,,,,,,,,,,,,,,,,,,,,,,,256.2291069999919,256.24267479998525,256.24267479998525,256.82709099998465,g,1.0,0.5755711999954656,,,,,,sub-050,1,stroop_test,59.7492562677301,
,,,,39.0,3.0,3.0,,,,,,,,,,,,,rot,yellow,g,0.0,g,1.0,0.55943829996977,,,,,,,,,,3.0,3.0,39.0,3.0,256.84346209996147,,,,,,,,,,,,,,,,,256.82731480000075,256.92695059999824,257.7262275000103,257.71060079999734,,,,,,,,,,,,,,,,,,,,,,,,,,,,,,,,,,,257.7124901000061,257.7262275000103,257.7262275000103,258.29431450000266,g,1.0,0.55943829996977,,,,,,sub-050,1,stroop_test,59.7492562677301,
,,,,40.0,4.0,3.0,,,,,,,,,,,,,gelb,yellow,g,1.0,g,1.0,0.4098705999786034,,,,,,,,,,3.0,4.0,40.0,10.0,258.31033979996573,,,,,,,,,,,,,,,,,258.29459129995666,258.6601521999692,259.4596404999611,259.44384610001,,,,,,,,,,,,,,,,,,,,,,,,,,,,,,,,,,,259.4459440999781,259.4596404999611,259.4596404999611,259.8771946000052,g,1.0,0.4098705999786034,,,,,,sub-050,1,stroop_test,59.7492562677301,
,,,,41.0,5.0,3.0,,,,,,,,,,,,,blau,yellow,g,0.0,g,1.0,0.4665698999888263,,,,,,,,,,3.0,5.0,41.0,7.0,259.8939395999769,,,,,,,,,,,,,,,,,259.87745410000207,260.2266615999979,261.02543400001014,261.0098403999582,,,,,,,,,,,,,,,,,,,,,,,,,,,,,,,,,,,261.01199029997224,261.02543400001014,261.02543400001014,261.4937968999729,g,1.0,0.4665698999888263,,,,,,sub-050,1,stroop_test,59.7492562677301,
,,,,42.0,6.0,3.0,,,,,,,,,,,,,blau,red,r,0.0,r,1.0,0.4248834999743849,,,,,,,,,,3.0,6.0,42.0,4.0,261.5096569999587,,,,,,,,,,,,,,,,,261.4940722999745,261.843277500011,262.64363539998885,262.6272997999913,,,,,,,,,,,,,,,,,,,,,,,,,,,,,,,,,,,262.62764019996393,262.64363539998885,262.64363539998885,263.07681080000475,r,1.0,0.4248834999743849,,,,,,sub-050,1,stroop_test,59.7492562677301,
,,,,43.0,7.0,3.0,,,,,,,,,,,,,gelb,red,r,0.0,r,1.0,0.4176651000161655,,,,,,,,,,3.0,7.0,43.0,8.0,263.0930514999782,,,,,,,,,,,,,,,,,263.0770778000005,264.2764048000099,265.07576599996537,265.0602210999932,,,,,,,,,,,,,,,,,,,,,,,,,,,,,,,,,,,265.0620468999841,265.07576599996537,265.07576599996537,265.49454929999774,r,1.0,0.4176651000161655,,,,,,sub-050,1,stroop_test,59.7492562677301,
,,,,44.0,8.0,3.0,,,,,,,,,,,,,rot,blue,b,0.0,b,1.0,0.8356085999985225,,,,,,,,,,3.0,8.0,44.0,2.0,265.5101000999566,,,,,,,,,,,,,,,,,265.49478079995606,266.7092780999956,267.5090307999635,267.4936117999605,,,,,,,,,,,,,,,,,,,,,,,,,,,,,,,,,,,267.495459400001,267.5090307999635,267.5090307999635,268.36097689997405,b,1.0,0.8356085999985225,,,,,,sub-050,1,stroop_test,59.7492562677301,
,,,,45.0,9.0,3.0,,,,,,,,,,,,,rot,red,r,1.0,r,1.0,0.6353452000184916,,,,,,,,,,3.0,9.0,45.0,1.0,268.3764615000109,,,,,,,,,,,,,,,,,268.3612275999621,268.7097341999761,269.51033499999903,269.49348179996014,,,,,,,,,,,,,,,,,,,,,,,,,,,,,,,,,,,269.49381710001035,269.51033499999903,269.51033499999903,270.1600977999624,r,1.0,0.6353452000184916,,,,,,sub-050,1,stroop_test,59.7492562677301,
,,,,46.0,10.0,3.0,,,,,,,,,,,,,blau,blue,b,1.0,b,1.0,0.5604031000402756,,,,,,,,,,3.0,10.0,46.0,5.0,270.1766500999802,,,,,,,,,,,,,,,,,270.1603208999732,270.9595265999669,271.7590501999948,271.74306319997413,,,,,,,,,,,,,,,,,,,,,,,,,,,,,,,,,,,271.74584139999934,271.7590501999948,271.7590501999948,272.3267453999724,b,1.0,0.5604031000402756,,,,,,sub-050,1,stroop_test,59.7492562677301,
,,,,47.0,11.0,3.0,,,,,,,,,,,,,gelb,blue,b,0.0,b,1.0,0.4234163999790326,,,,,,,,,,3.0,11.0,47.0,9.0,272.3433942999691,,,,,,,,,,,,,,,,,272.3270088999998,273.5267871999531,274.3253920999705,274.3100163000054,,,,,,,,,,,,,,,,,,,,,,,,,,,,,,,,,,,274.31181479996303,274.3253920999705,274.3253920999705,274.759978499962,b,1.0,0.4234163999790326,,,,,,sub-050,1,stroop_test,59.7492562677301,
,,,,48.0,0.0,4.0,,,,,,,,,,,,,gelb,red,r,0.0,r,1.0,0.5626126000424847,,,,,,,,,,4.0,0.0,48.0,8.0,274.7757743999828,,,,,,,,,,,,,,,,,274.76021149999,275.1092585999868,275.90924309997354,275.8926254999824,,,,,,,,,,,,,,,,,,,,,,,,,,,,,,,,,,,275.8929733999539,275.90924309997354,275.90924309997354,276.4767107999651,r,1.0,0.5626126000424847,,,,,,sub-050,1,stroop_test,59.7492562677301,
,,,,49.0,1.0,4.0,,,,,,,,,,,,,blau,blue,b,1.0,b,1.0,0.6012260999996215,,,,,,,,,,4.0,1.0,49.0,6.0,276.49275629996555,,,,,,,,,,,,,,,,,276.47696749999886,276.5758598999819,277.3754587000003,277.3598008999834,,,,,,,,,,,,,,,,,,,,,,,,,,,,,,,,,,,277.3617264999775,277.3754587000003,277.3754587000003,277.994253199955,b,1.0,0.6012260999996215,,,,,,sub-050,1,stroop_test,59.7492562677301,
,,,,50.0,2.0,4.0,,,,,,,,,,,,,rot,red,r,1.0,r,1.0,0.4960288999718614,,,,,,,,,,4.0,2.0,50.0,0.0,278.01003840001067,,,,,,,,,,,,,,,,,277.9945064999629,278.1091754999943,278.9087601999636,278.89291689998936,,,,,,,,,,,,,,,,,,,,,,,,,,,,,,,,,,,278.8946168999537,278.9087601999636,278.9087601999636,279.4098468999728,r,1.0,0.4960288999718614,,,,,,sub-050,1,stroop_test,59.7492562677301,
,,,,51.0,3.0,4.0,,,,,,,,,,,,,gelb,blue,b,0.0,b,1.0,0.4345374999684281,,,,,,,,,,4.0,3.0,51.0,9.0,279.4259160999791,,,,,,,,,,,,,,,,,279.4100949999993,280.6092154000071,281.40871029999107,281.39302769996,,,,,,,,,,,,,,,,,,,,,,,,,,,,,,,,,,,281.39532539999345,281.40871029999107,281.40871029999107,281.8604896999896,b,1.0,0.4345374999684281,,,,,,sub-050,1,stroop_test,59.7492562677301,
,,,,52.0,4.0,4.0,,,,,,,,,,,,,gelb,yellow,g,1.0,r,0.0,0.463320700044278,,,,,,,,,,4.0,4.0,52.0,10.0,281.8764138999977,,,,,,,,,,,,,,,,,281.86074199998984,282.67620029998943,283.4760410999879,283.45974620000925,,,,,,,,,,,,,,,,,,,,,,,,,,,,,,,,,,,283.46012179995887,283.4760410999879,283.4760410999879,283.94254219997674,r,0.0,0.463320700044278,,,,,,sub-050,1,stroop_test,59.7492562677301,
,,,,53.0,5.0,4.0,,,,,,,,,,,,,blau,yellow,g,0.0,g,1.0,1.620907599979546,,,,,,,,,,4.0,5.0,53.0,7.0,283.95959039998706,,,,,,,,,,,,,,,,,283.9427713999757,284.04288659995655,284.8414665999589,284.8258351999684,,,,,,,,,,,,,,,,,,,,,,,,,,,,,,,,,,,284.82784619997256,284.8414665999589,284.8414665999589,286.4762545999838,g,1.0,1.620907599979546,,,,,,sub-050,1,stroop_test,59.7492562677301,
,,,,54.0,6.0,4.0,,,,,,,,,,,,,rot,blue,b,0.0,b,1.0,0.99467690003803,,,,,,,,,,4.0,6.0,54.0,2.0,286.4920642999932,,,,,,,,,,,,,,,,,286.4764951999532,286.8261117999791,287.6253916999558,287.6093027999741,,,,,,,,,,,,,,,,,,,,,,,,,,,,,,,,,,,287.61107359995367,287.6253916999558,287.6253916999558,288.62612969998736,b,1.0,0.99467690003803,,,,,,sub-050,1,stroop_test,59.7492562677301,
,,,,55.0,7.0,4.0,,,,,,,,,,,,,gelb,yellow,g,1.0,g,1.0,1.0171580000314862,,,,,,,,,,4.0,7.0,55.0,11.0,288.6422350999783,,,,,,,,,,,,,,,,,288.6263626999571,289.4260354999569,290.2253628000035,290.2092869000044,,,,,,,,,,,,,,,,,,,,,,,,,,,,,,,,,,,290.21114309999393,290.2253628000035,290.2253628000035,291.25952719995985,g,1.0,1.0171580000314862,,,,,,sub-050,1,stroop_test,59.7492562677301,
,,,,56.0,8.0,4.0,,,,,,,,,,,,,rot,red,r,1.0,r,1.0,0.6039501000195742,,,,,,,,,,4.0,8.0,56.0,1.0,291.2752502000076,,,,,,,,,,,,,,,,,291.2597714999574,292.45923699997365,293.2583360999706,293.2427091999561,,,,,,,,,,,,,,,,,,,,,,,,,,,,,,,,,,,293.2449771999964,293.2583360999706,293.2583360999706,293.8763590999879,r,1.0,0.6039501000195742,,,,,,sub-050,1,stroop_test,59.7492562677301,
,,,,57.0,9.0,4.0,,,,,,,,,,,,,blau,red,r,0.0,r,1.0,0.5716964000021107,,,,,,,,,,4.0,9.0,57.0,4.0,293.8929995999788,,,,,,,,,,,,,,,,,293.8765832000063,293.9757340999786,294.7750987999607,294.75958229997195,,,,,,,,,,,,,,,,,,,,,,,,,,,,,,,,,,,294.76151320000645,294.7750987999607,294.7750987999607,295.3592624999583,r,1.0,0.5716964000021107,,,,,,sub-050,1,stroop_test,59.7492562677301,
,,,,58.0,10.0,4.0,,,,,,,,,,,,,blau,blue,b,1.0,b,1.0,0.5023112000199035,,,,,,,,,,4.0,10.0,58.0,5.0,295.3751549999579,,,,,,,,,,,,,,,,,295.35950779996347,296.55877959996,297.35953919996973,297.3427380999783,,,,,,,,,,,,,,,,,,,,,,,,,,,,,,,,,,,297.34310870000627,297.35953919996973,297.35953919996973,297.8764822999947,b,1.0,0.5023112000199035,,,,,,sub-050,1,stroop_test,59.7492562677301,
,,,,59.0,11.0,4.0,,,,,,,,,,,,,rot,yellow,g,0.0,g,1.0,0.7694851999985985,,,,,,,,,,4.0,11.0,59.0,3.0,297.89264729997376,,,,,,,,,,,,,,,,,297.87674189999234,299.0755694999825,299.8744972999557,299.85935809998773,,,,,,,,,,,,,,,,,,,,,,,,,,,,,,,,,,,299.8612565000076,299.8744972999557,299.8744972999557,300.6597383999615,g,1.0,0.7694851999985985,,,,,,sub-050,1,stroop_test,59.7492562677301,
,,,,60.0,0.0,5.0,,,,,,,,,,,,,rot,yellow,g,0.0,g,1.0,0.4895194999990053,,,,,,,,,,5.0,0.0,60.0,3.0,300.6759798999992,,,,,,,,,,,,,,,,,300.6599931999808,301.0092033999972,301.8091160999611,301.7925036000088,,,,,,,,,,,,,,,,,,,,,,,,,,,,,,,,,,,301.7929021999589,301.8091160999611,301.8091160999611,302.30880709999474,g,1.0,0.4895194999990053,,,,,,sub-050,1,stroop_test,59.7492562677301,
,,,,61.0,1.0,5.0,,,,,,,,,,,,,rot,blue,b,0.0,b,1.0,0.3915894000092521,,,,,,,,,,5.0,1.0,61.0,2.0,302.32576169999084,,,,,,,,,,,,,,,,,302.30902079999214,303.1089524999843,303.9084314999636,303.89253559999634,,,,,,,,,,,,,,,,,,,,,,,,,,,,,,,,,,,303.8928691999754,303.9084314999636,303.9084314999636,304.30915509996703,b,1.0,0.3915894000092521,,,,,,sub-050,1,stroop_test,59.7492562677301,
,,,,62.0,2.0,5.0,,,,,,,,,,,,,blau,blue,b,1.0,b,1.0,0.421241000003647,,,,,,,,,,5.0,2.0,62.0,6.0,304.3242298999685,,,,,,,,,,,,,,,,,304.3094190999982,305.1092060999945,305.9083976999973,305.8929128999589,,,,,,,,,,,,,,,,,,,,,,,,,,,,,,,,,,,305.8948031999753,305.9083976999973,305.9083976999973,306.3428599999752,b,1.0,0.421241000003647,,,,,,sub-050,1,stroop_test,59.7492562677301,
,,,,63.0,3.0,5.0,,,,,,,,,,,,,gelb,yellow,g,1.0,g,1.0,0.5165115999989212,,,,,,,,,,5.0,3.0,63.0,11.0,306.35873869998613,,,,,,,,,,,,,,,,,306.34308799996506,307.1420376999886,307.941357099975,307.9254052999895,,,,,,,,,,,,,,,,,,,,,,,,,,,,,,,,,,,307.9275597999804,307.941357099975,307.941357099975,308.459349999961,g,1.0,0.5165115999989212,,,,,,sub-050,1,stroop_test,59.7492562677301,
,,,,64.0,4.0,5.0,,,,,,,,,,,,,blau,red,r,0.0,r,1.0,0.3904649000032805,,,,,,,,,,5.0,4.0,64.0,4.0,308.47502710000845,,,,,,,,,,,,,,,,,308.4595830999897,309.2750017999788,310.07426409999607,310.05937079997966,,,,,,,,,,,,,,,,,,,,,,,,,,,,,,,,,,,310.0613656999776,310.07426409999607,310.07426409999607,310.4756389000104,r,1.0,0.3904649000032805,,,,,,sub-050,1,stroop_test,59.7492562677301,
,,,,65.0,5.0,5.0,,,,,,,,,,,,,rot,red,r,1.0,r,1.0,0.4212343000108376,,,,,,,,,,5.0,5.0,65.0,0.0,310.4923635000014,,,,,,,,,,,,,,,,,310.4758693999611,310.8256924999878,311.62462889996823,311.6091804999742,,,,,,,,,,,,,,,,,,,,,,,,,,,,,,,,,,,311.611022099969,311.62462889996823,311.62462889996823,312.0590299000032,r,1.0,0.4212343000108376,,,,,,sub-050,1,stroop_test,59.7492562677301,
,,,,66.0,6.0,5.0,,,,,,,,,,,,,gelb,red,r,0.0,r,1.0,0.6141085000126623,,,,,,,,,,5.0,6.0,66.0,8.0,312.0757501999615,,,,,,,,,,,,,,,,,312.05928649997804,313.2746916000033,314.07452470000135,314.05892579996726,,,,,,,,,,,,,,,,,,,,,,,,,,,,,,,,,,,314.0607769999769,314.07452470000135,314.07452470000135,314.6922294999822,r,1.0,0.6141085000126623,,,,,,sub-050,1,stroop_test,59.7492562677301,
,,,,67.0,7.0,5.0,,,,,,,,,,,,,gelb,yellow,g,1.0,g,1.0,0.556698200001847,,,,,,,,,,5.0,7.0,67.0,10.0,314.70802669995464,,,,,,,,,,,,,,,,,314.692458799982,314.79131279996363,315.5916519999737,315.57567599997856,,,,,,,,,,,,,,,,,,,,,,,,,,,,,,,,,,,315.5760029999656,315.5916519999737,315.5916519999737,316.15905829996336,g,1.0,0.556698200001847,,,,,,sub-050,1,stroop_test,59.7492562677301,
,,,,68.0,8.0,5.0,,,,,,,,,,,,,gelb,blue,b,0.0,b,1.0,0.4866219999967143,,,,,,,,,,5.0,8.0,68.0,9.0,316.17537599999923,,,,,,,,,,,,,,,,,316.15937219996704,317.3581007999601,318.15885010000784,318.14234620000934,,,,,,,,,,,,,,,,,,,,,,,,,,,,,,,,,,,318.142726399994,318.15885010000784,318.15885010000784,318.65870490000816,b,1.0,0.4866219999967143,,,,,,sub-050,1,stroop_test,59.7492562677301,
,,,,69.0,9.0,5.0,,,,,,,,,,,,,blau,blue,b,1.0,b,1.0,0.4210125000099651,,,,,,,,,,5.0,9.0,69.0,5.0,318.67449419997865,,,,,,,,,,,,,,,,,318.6589709999971,319.8578623000067,320.65730779996375,320.6420958999661,,,,,,,,,,,,,,,,,,,,,,,,,,,,,,,,,,,320.64426669996465,320.65730779996375,320.65730779996375,321.09242749999976,b,1.0,0.4210125000099651,,,,,,sub-050,1,stroop_test,59.7492562677301,
,,,,70.0,10.0,5.0,,,,,,,,,,,,,rot,red,r,1.0,r,1.0,0.6467405000003055,,,,,,,,,,5.0,10.0,70.0,1.0,321.1080740999896,,,,,,,,,,,,,,,,,321.0927010999876,321.90795570000773,322.7072991000023,322.6922482000082,,,,,,,,,,,,,,,,,,,,,,,,,,,,,,,,,,,322.69404460000806,322.7072991000023,322.7072991000023,323.3589154999936,r,1.0,0.6467405000003055,,,,,,sub-050,1,stroop_test,59.7492562677301,
,,,,71.0,11.0,5.0,,,,,,,,,,,,,blau,yellow,g,0.0,g,1.0,0.5497227000305429,,,,,,,,,,5.0,11.0,71.0,7.0,323.3753106999793,,,,,,,,,,,,,,,,,323.359127099975,323.70801429997664,324.5075999999535,324.4919832999585,,,,,,,,,,,,,,,,,,,,,,,,,,,,,,,,,,,324.4939819999854,324.5075999999535,324.5075999999535,325.05867120000767,g,1.0,0.5497227000305429,,,,,,sub-050,1,stroop_test,59.7492562677301,
,,,,72.0,0.0,6.0,,,,,,,,,,,,,blau,red,r,0.0,r,1.0,0.561068500042893,,,,,,,,,,6.0,0.0,72.0,4.0,325.0746119999676,,,,,,,,,,,,,,,,,325.05888699996285,326.2577152999584,327.05810949997976,327.04201989999274,,,,,,,,,,,,,,,,,,,,,,,,,,,,,,,,,,,327.0423399999854,327.05810949997976,327.05810949997976,327.62523529998725,r,1.0,0.561068500042893,,,,,,sub-050,1,stroop_test,59.7492562677301,
,,,,73.0,1.0,6.0,,,,,,,,,,,,,blau,blue,b,1.0,b,1.0,0.4916832000017166,,,,,,,,,,6.0,1.0,73.0,6.0,327.6412226000102,,,,,,,,,,,,,,,,,327.6254915999598,328.82483880000655,329.62528989999555,329.60866550001083,,,,,,,,,,,,,,,,,,,,,,,,,,,,,,,,,,,329.6089451999869,329.62528989999555,329.62528989999555,330.1255544999731,b,1.0,0.4916832000017166,,,,,,sub-050,1,stroop_test,59.7492562677301,
,,,,74.0,2.0,6.0,,,,,,,,,,,,,gelb,blue,b,0.0,b,1.0,0.4910627999925054,,,,,,,,,,6.0,2.0,74.0,9.0,330.1422903999919,,,,,,,,,,,,,,,,,330.12582159996964,330.94114999996964,331.7408601999632,331.7253020000062,,,,,,,,,,,,,,,,,,,,,,,,,,,,,,,,,,,331.72712739999406,331.7408601999632,331.7408601999632,332.2418844999629,b,1.0,0.4910627999925054,,,,,,sub-050,1,stroop_test,59.7492562677301,
,,,,75.0,3.0,6.0,,,,,,,,,,,,,rot,red,r,1.0,r,1.0,0.5685009000007994,,,,,,,,,,6.0,3.0,75.0,1.0,332.2582162999897,,,,,,,,,,,,,,,,,332.2421235999791,333.04151089995867,333.8408830999979,333.8253560999874,,,,,,,,,,,,,,,,,,,,,,,,,,,,,,,,,,,333.827570799971,333.8408830999979,333.8408830999979,334.4256810999941,r,1.0,0.5685009000007994,,,,,,sub-050,1,stroop_test,59.7492562677301,
,,,,76.0,4.0,6.0,,,,,,,,,,,,,gelb,red,r,0.0,r,1.0,0.5016841000178829,,,,,,,,,,6.0,4.0,76.0,8.0,334.4410947999568,,,,,,,,,,,,,,,,,334.4259095999878,334.54140799999004,335.34028860001126,335.32518159999745,,,,,,,,,,,,,,,,,,,,,,,,,,,,,,,,,,,335.3269985999796,335.34028860001126,335.34028860001126,335.8589948999579,r,1.0,0.5016841000178829,,,,,,sub-050,1,stroop_test,59.7492562677301,
,,,,77.0,5.0,6.0,,,,,,,,,,,,,rot,yellow,g,0.0,g,1.0,0.6750183000112884,,,,,,,,,,6.0,5.0,77.0,3.0,335.8752540999558,,,,,,,,,,,,,,,,,335.85925280000083,335.9578974999604,336.7574631999596,336.74133459996665,,,,,,,,,,,,,,,,,,,,,,,,,,,,,,,,,,,336.7430960999918,336.7574631999596,336.7574631999596,337.44168659998104,g,1.0,0.6750183000112884,,,,,,sub-050,1,stroop_test,59.7492562677301,
,,,,78.0,6.0,6.0,,,,,,,,,,,,,gelb,yellow,g,1.0,g,1.0,0.5170714000123553,,,,,,,,,,6.0,6.0,78.0,11.0,337.4574761999538,,,,,,,,,,,,,,,,,337.4419071999728,338.2410902999691,339.0408644999843,339.02537569997367,,,,,,,,,,,,,,,,,,,,,,,,,,,,,,,,,,,339.0272787999711,339.0408644999843,339.0408644999843,339.5590865999693,g,1.0,0.5170714000123553,,,,,,sub-050,1,stroop_test,59.7492562677301,
,,,,79.0,7.0,6.0,,,,,,,,,,,,,blau,blue,b,1.0,b,1.0,0.4457801000098698,,,,,,,,,,6.0,7.0,79.0,5.0,339.5744618999888,,,,,,,,,,,,,,,,,339.5593263999908,339.9246279000072,340.72342319996096,340.7078016999876,,,,,,,,,,,,,,,,,,,,,,,,,,,,,,,,,,,340.7098066000035,340.72342319996096,340.72342319996096,341.1750958999619,b,1.0,0.4457801000098698,,,,,,sub-050,1,stroop_test,59.7492562677301,
,,,,80.0,8.0,6.0,,,,,,,,,,,,,gelb,yellow,g,1.0,g,1.0,0.6782853999757208,,,,,,,,,,6.0,8.0,80.0,10.0,341.1914938999689,,,,,,,,,,,,,,,,,341.1753141999943,341.9917173999711,342.7904758999939,342.77493849996245,,,,,,,,,,,,,,,,,,,,,,,,,,,,,,,,,,,342.7770966999815,342.7904758999939,342.7904758999939,343.4749081999762,g,1.0,0.6782853999757208,,,,,,sub-050,1,stroop_test,59.7492562677301,
,,,,81.0,9.0,6.0,,,,,,,,,,,,,rot,red,r,1.0,r,1.0,0.3488969000172801,,,,,,,,,,6.0,9.0,81.0,0.0,343.4915339999716,,,,,,,,,,,,,,,,,343.4751467999886,344.6749550999957,345.4740890999674,345.4582545000012,,,,,,,,,,,,,,,,,,,,,,,,,,,,,,,,,,,345.4600569999893,345.4740890999674,345.4740890999674,345.8250360999955,r,1.0,0.3488969000172801,,,,,,sub-050,1,stroop_test,59.7492562677301,
,,,,82.0,10.0,6.0,,,,,,,,,,,,,blau,yellow,g,0.0,g,1.0,0.7270060000009835,,,,,,,,,,6.0,10.0,82.0,7.0,345.8407846000045,,,,,,,,,,,,,,,,,345.8252390999696,345.92495630000485,346.72375569998985,346.70814929995686,,,,,,,,,,,,,,,,,,,,,,,,,,,,,,,,,,,346.7101002999698,346.72375569998985,346.72375569998985,347.45829889999004,g,1.0,0.7270060000009835,,,,,,sub-050,1,stroop_test,59.7492562677301,
,,,,83.0,11.0,6.0,,,,,,,,,,,,,rot,blue,b,0.0,b,1.0,0.3940338999964297,,,,,,,,,,6.0,11.0,83.0,2.0,347.4743396999547,,,,,,,,,,,,,,,,,347.45852759998525,348.6744134000037,349.4732737999875,349.458254600002,,,,,,,,,,,,,,,,,,,,,,,,,,,,,,,,,,,349.46008180000354,349.4732737999875,349.4732737999875,349.8746983999736,b,1.0,0.3940338999964297,,,,,,sub-050,1,stroop_test,59.7492562677301,
,,,,84.0,0.0,7.0,,,,,,,,,,,,,gelb,yellow,g,1.0,g,1.0,0.5491778000141494,,,,,,,,,,7.0,0.0,84.0,10.0,349.8910179999657,,,,,,,,,,,,,,,,,349.8749813999748,349.97433269995963,350.7730653999606,350.7574924000073,,,,,,,,,,,,,,,,,,,,,,,,,,,,,,,,,,,350.75937449996127,350.7730653999606,350.7730653999606,351.3244272999582,g,1.0,0.5491778000141494,,,,,,sub-050,1,stroop_test,59.7492562677301,
,,,,85.0,1.0,7.0,,,,,,,,,,,,,gelb,yellow,g,1.0,g,1.0,0.3706953999935649,,,,,,,,,,7.0,1.0,85.0,11.0,351.340967600001,,,,,,,,,,,,,,,,,351.3246412999579,351.6738546999986,352.47511579998536,352.4581111999578,,,,,,,,,,,,,,,,,,,,,,,,,,,,,,,,,,,352.4584497999749,352.47511579998536,352.47511579998536,352.8581866999739,g,1.0,0.3706953999935649,,,,,,sub-050,1,stroop_test,59.7492562677301,
,,,,86.0,2.0,7.0,,,,,,,,,,,,,blau,blue,b,1.0,b,1.0,0.4977080000098794,,,,,,,,,,7.0,2.0,86.0,6.0,352.8745275999536,,,,,,,,,,,,,,,,,352.85840540000936,352.9575585999992,353.7564676000038,353.7415949999704,,,,,,,,,,,,,,,,,,,,,,,,,,,,,,,,,,,353.7436458999873,353.7564676000038,353.7564676000038,354.2575607000035,b,1.0,0.4977080000098794,,,,,,sub-050,1,stroop_test,59.7492562677301,
,,,,87.0,3.0,7.0,,,,,,,,,,,,,rot,red,r,1.0,r,1.0,0.6248374999850057,,,,,,,,,,7.0,3.0,87.0,0.0,354.2741680999752,,,,,,,,,,,,,,,,,354.2577865999774,354.3577401000075,355.15633839997463,355.14073149999604,,,,,,,,,,,,,,,,,,,,,,,,,,,,,,,,,,,355.14249930001097,355.15633839997463,355.15633839997463,355.79123979998985,r,1.0,0.6248374999850057,,,,,,sub-050,1,stroop_test,59.7492562677301,
,,,,88.0,4.0,7.0,,,,,,,,,,,,,blau,yellow,g,0.0,g,1.0,0.5405135999899358,,,,,,,,,,7.0,4.0,88.0,7.0,355.80709199997364,,,,,,,,,,,,,,,,,355.7914735999657,356.1406448999769,356.9398140999838,356.92472650000127,,,,,,,,,,,,,,,,,,,,,,,,,,,,,,,,,,,356.9266808999819,356.9398140999838,356.9398140999838,357.4911990999826,g,1.0,0.5405135999899358,,,,,,sub-050,1,stroop_test,59.7492562677301,
,,,,89.0,5.0,7.0,,,,,,,,,,,,,rot,red,r,1.0,r,1.0,0.5503730999771506,,,,,,,,,,7.0,5.0,89.0,1.0,357.5077169999713,,,,,,,,,,,,,,,,,357.49141449999297,358.29114300000947,359.09016749996226,359.07481679995544,,,,,,,,,,,,,,,,,,,,,,,,,,,,,,,,,,,359.0765749999555,359.09016749996226,359.09016749996226,359.64147299999604,r,1.0,0.5503730999771506,,,,,,sub-050,1,stroop_test,59.7492562677301,
,,,,90.0,6.0,7.0,,,,,,,,,,,,,gelb,red,r,0.0,r,1.0,0.4219857999705709,,,,,,,,,,7.0,6.0,90.0,8.0,359.6570191999781,,,,,,,,,,,,,,,,,359.64173460000893,359.74036489997525,360.5400171999936,360.5244418999646,,,,,,,,,,,,,,,,,,,,,,,,,,,,,,,,,,,360.526636399969,360.5400171999936,360.5400171999936,360.9740809999639,r,1.0,0.4219857999705709,,,,,,sub-050,1,stroop_test,59.7492562677301,
,,,,91.0,7.0,7.0,,,,,,,,,,,,,rot,blue,b,0.0,b,1.0,0.4571381999994628,,,,,,,,,,7.0,7.0,91.0,2.0,360.99027169996407,,,,,,,,,,,,,,,,,360.97430239996174,361.0737325999653,361.8735777999973,361.857906899997,,,,,,,,,,,,,,,,,,,,,,,,,,,,,,,,,,,361.8596806999994,361.8735777999973,361.8735777999973,362.3408058999921,b,1.0,0.4571381999994628,,,,,,sub-050,1,stroop_test,59.7492562677301,
,,,,92.0,8.0,7.0,,,,,,,,,,,,,gelb,blue,b,0.0,b,1.0,0.4199510000180453,,,,,,,,,,7.0,8.0,92.0,9.0,362.3568355999887,,,,,,,,,,,,,,,,,362.341044700006,362.4404923999682,363.23999699996784,363.22432310000295,,,,,,,,,,,,,,,,,,,,,,,,,,,,,,,,,,,363.2261725999997,363.23999699996784,363.23999699996784,363.6743933999678,b,1.0,0.4199510000180453,,,,,,sub-050,1,stroop_test,59.7492562677301,
,,,,93.0,9.0,7.0,,,,,,,,,,,,,rot,yellow,g,0.0,g,1.0,1.2035419999738224,,,,,,,,,,7.0,9.0,93.0,3.0,363.6905793999904,,,,,,,,,,,,,,,,,363.6746083999751,364.0242014999967,364.8232410000055,364.8077649999759,,,,,,,,,,,,,,,,,,,,,,,,,,,,,,,,,,,364.8095541999792,364.8232410000055,364.8232410000055,366.04100689996267,g,1.0,1.2035419999738224,,,,,,sub-050,1,stroop_test,59.7492562677301,
,,,,94.0,10.0,7.0,,,,,,,,,,,,,blau,blue,b,1.0,b,1.0,0.4607252000132575,,,,,,,,,,7.0,10.0,94.0,5.0,366.0571021999931,,,,,,,,,,,,,,,,,366.0412422000081,366.3894131999696,367.1894825999625,367.1744110999862,,,,,,,,,,,,,,,,,,,,,,,,,,,,,,,,,,,367.17635729996255,367.1894825999625,367.1894825999625,367.65778929996304,b,1.0,0.4607252000132575,,,,,,sub-050,1,stroop_test,59.7492562677301,
,,,,95.0,11.0,7.0,,,,,,,,,,,,,blau,red,r,0.0,r,1.0,0.9802157999947668,,,,,,,,,,7.0,11.0,95.0,4.0,367.6740120999748,,,,,,,,,,,,,,,,,367.6580281999777,368.4733614999568,369.272696,369.2573553000111,,,,,,,,,,,,,,,,,,,,,,,,,,,,,,,,,,,369.257862199971,369.272696,369.272696,370.2574441999896,r,1.0,0.9802157999947668,,,,,,sub-050,1,stroop_test,59.7492562677301,
,,,,96.0,0.0,8.0,,,,,,,,,,,,,blau,yellow,g,0.0,g,1.0,0.5171446000458673,,,,,,,,,,8.0,0.0,96.0,7.0,370.274059999967,,,,,,,,,,,,,,,,,370.2576747999992,370.3572871999932,371.1577009999892,371.14079999999376,,,,,,,,,,,,,,,,,,,,,,,,,,,,,,,,,,,371.1411315999576,371.1577009999892,371.1577009999892,371.6906729000039,g,1.0,0.5171446000458673,,,,,,sub-050,1,stroop_test,59.7492562677301,
,,,,97.0,1.0,8.0,,,,,,,,,,,,,gelb,red,r,0.0,r,1.0,0.4674606000189669,,,,,,,,,,8.0,1.0,97.0,8.0,371.70666450000135,,,,,,,,,,,,,,,,,371.6909184999531,372.8904798000003,373.6900309000048,373.674032699957,,,,,,,,,,,,,,,,,,,,,,,,,,,,,,,,,,,373.6760426999536,373.6900309000048,373.6900309000048,374.1585984999547,r,1.0,0.4674606000189669,,,,,,sub-050,1,stroop_test,59.7492562677301,
,,,,98.0,2.0,8.0,,,,,,,,,,,,,blau,red,r,0.0,r,1.0,0.6928187999874353,,,,,,,,,,8.0,2.0,98.0,4.0,374.1741456000018,,,,,,,,,,,,,,,,,374.1588384999777,375.37359029997606,376.1725791000063,376.1570911000017,,,,,,,,,,,,,,,,,,,,,,,,,,,,,,,,,,,376.15896359999897,376.1725791000063,376.1725791000063,376.8739596999949,r,1.0,0.6928187999874353,,,,,,sub-050,1,stroop_test,59.7492562677301,
,,,,99.0,3.0,8.0,,,,,,,,,,,,,rot,blue,b,0.0,b,1.0,0.5079852000344545,,,,,,,,,,8.0,3.0,99.0,2.0,376.8898973999894,,,,,,,,,,,,,,,,,376.8741841999581,376.9732743999921,377.7729600999737,377.7574109999696,,,,,,,,,,,,,,,,,,,,,,,,,,,,,,,,,,,377.7591586000053,377.7729600999737,377.7729600999737,378.29055289999815,b,1.0,0.5079852000344545,,,,,,sub-050,1,stroop_test,59.7492562677301,
,,,,100.0,4.0,8.0,,,,,,,,,,,,,rot,red,r,1.0,r,1.0,0.6413319000275806,,,,,,,,,,8.0,4.0,100.0,1.0,378.3065309000085,,,,,,,,,,,,,,,,,378.2908201999962,379.0905751999817,379.890547499992,379.8739445999963,,,,,,,,,,,,,,,,,,,,,,,,,,,,,,,,,,,379.8742747000069,379.890547499992,379.890547499992,380.54077069996856,r,1.0,0.6413319000275806,,,,,,sub-050,1,stroop_test,59.7492562677301,
,,,,101.0,5.0,8.0,,,,,,,,,,,,,gelb,blue,b,0.0,b,1.0,0.4150830999715253,,,,,,,,,,8.0,5.0,101.0,9.0,380.556824099971,,,,,,,,,,,,,,,,,380.54099579999456,381.3400571999955,382.139480999962,382.1236261999584,,,,,,,,,,,,,,,,,,,,,,,,,,,,,,,,,,,382.12548809999134,382.139480999962,382.139480999962,382.5571507999557,b,1.0,0.4150830999715253,,,,,,sub-050,1,stroop_test,59.7492562677301,
,,,,102.0,6.0,8.0,,,,,,,,,,,,,blau,blue,b,1.0,b,1.0,0.4485581999761052,,,,,,,,,,8.0,6.0,102.0,6.0,382.5734913999913,,,,,,,,,,,,,,,,,382.5574495999608,382.6572041999898,383.4556675999775,383.4402648999821,,,,,,,,,,,,,,,,,,,,,,,,,,,,,,,,,,,383.44259910000255,383.4556675999775,383.4556675999775,383.9070378000033,b,1.0,0.4485581999761052,,,,,,sub-050,1,stroop_test,59.7492562677301,
,,,,103.0,7.0,8.0,,,,,,,,,,,,,blau,blue,b,1.0,b,1.0,0.4405868999892846,,,,,,,,,,8.0,7.0,103.0,5.0,383.92384689999744,,,,,,,,,,,,,,,,,383.9072511999984,384.0064667999977,384.8073262000107,384.7903954999638,,,,,,,,,,,,,,,,,,,,,,,,,,,,,,,,,,,384.7908835999551,384.8073262000107,384.8073262000107,385.2571578999632,b,1.0,0.4405868999892846,,,,,,sub-050,1,stroop_test,59.7492562677301,
,,,,104.0,8.0,8.0,,,,,,,,,,,,,rot,yellow,g,0.0,g,1.0,0.9837177000008523,,,,,,,,,,8.0,8.0,104.0,3.0,385.2737985999556,,,,,,,,,,,,,,,,,385.2574196999776,386.456676199974,387.2560533999931,387.24021919997176,,,,,,,,,,,,,,,,,,,,,,,,,,,,,,,,,,,387.24200309999287,387.2560533999931,387.2560533999931,388.2407845999696,g,1.0,0.9837177000008523,,,,,,sub-050,1,stroop_test,59.7492562677301,
,,,,105.0,9.0,8.0,,,,,,,,,,,,,gelb,yellow,g,1.0,g,1.0,0.5263860000413842,,,,,,,,,,8.0,9.0,105.0,10.0,388.25684799999,,,,,,,,,,,,,,,,,388.2410131999641,388.3401992999716,389.1395637000096,389.1234184000059,,,,,,,,,,,,,,,,,,,,,,,,,,,,,,,,,,,389.1253383999574,389.1395637000096,389.1395637000096,389.6735498000053,g,1.0,0.5263860000413842,,,,,,sub-050,1,stroop_test,59.7492562677301,
,,,,106.0,10.0,8.0,,,,,,,,,,,,,rot,red,r,1.0,r,1.0,0.3655438999994658,,,,,,,,,,8.0,10.0,106.0,0.0,389.690274499997,,,,,,,,,,,,,,,,,389.6738185999566,390.87335770000936,391.6725860000006,391.6570006999536,,,,,,,,,,,,,,,,,,,,,,,,,,,,,,,,,,,391.6587697999785,391.6725860000006,391.6725860000006,392.0400401999941,r,1.0,0.3655438999994658,,,,,,sub-050,1,stroop_test,59.7492562677301,
,,,,107.0,11.0,8.0,,,,,,,,,,,,,gelb,yellow,g,1.0,g,1.0,0.4693221000488847,,,,,,,,,,8.0,11.0,107.0,11.0,392.0560817999649,,,,,,,,,,,,,,,,,392.0402641999535,392.8395139999921,393.6388379999553,393.62356959999306,,,,,,,,,,,,,,,,,,,,,,,,,,,,,,,,,,,393.6259017999983,393.6388379999553,393.6388379999553,394.123700600001,g,1.0,0.4693221000488847,,,,,,sub-050,1,stroop_test,59.7492562677301,
,,,,108.0,0.0,9.0,,,,,,,,,,,,,blau,red,r,0.0,r,1.0,0.7466067000059411,,,,,,,,,,9.0,0.0,108.0,4.0,394.1397670999868,,,,,,,,,,,,,,,,,394.1239345999784,395.32366180000827,396.12245789996814,396.1065492999624,,,,,,,,,,,,,,,,,,,,,,,,,,,,,,,,,,,396.1085349000059,396.12245789996814,396.12245789996814,396.8736428999691,r,1.0,0.7466067000059411,,,,,,sub-050,1,stroop_test,59.7492562677301,
,,,,109.0,1.0,9.0,,,,,,,,,,,,,gelb,blue,b,0.0,b,1.0,0.4007080000010319,,,,,,,,,,9.0,1.0,109.0,9.0,396.8895790000097,,,,,,,,,,,,,,,,,396.8738744999864,397.6731665999978,398.4720264999778,398.45619539998006,,,,,,,,,,,,,,,,,,,,,,,,,,,,,,,,,,,398.4581748999772,398.4720264999778,398.4720264999778,398.87430490000406,b,1.0,0.4007080000010319,,,,,,sub-050,1,stroop_test,59.7492562677301,
,,,,110.0,2.0,9.0,,,,,,,,,,,,,blau,yellow,g,0.0,g,1.0,1.0041925000259653,,,,,,,,,,9.0,2.0,110.0,7.0,398.8902459999663,,,,,,,,,,,,,,,,,398.874512499955,399.2401695000008,400.0388556999969,400.023392300005,,,,,,,,,,,,,,,,,,,,,,,,,,,,,,,,,,,400.0256261999602,400.0388556999969,400.0388556999969,401.0574433999718,g,1.0,1.0041925000259653,,,,,,sub-050,1,stroop_test,59.7492562677301,
,,,,111.0,3.0,9.0,,,,,,,,,,,,,rot,yellow,g,0.0,g,1.0,0.9958098999923096,,,,,,,,,,9.0,3.0,111.0,3.0,401.0734518999816,,,,,,,,,,,,,,,,,401.05766579997726,401.4233127000043,402.2218844000017,402.2062850999646,,,,,,,,,,,,,,,,,,,,,,,,,,,,,,,,,,,402.208914799965,402.2218844000017,402.2218844000017,403.2230033999658,g,1.0,0.9958098999923096,,,,,,sub-050,1,stroop_test,59.7492562677301,
,,,,112.0,4.0,9.0,,,,,,,,,,,,,rot,red,r,1.0,r,1.0,0.5712309000082314,,,,,,,,,,9.0,4.0,112.0,0.0,403.239852699975,,,,,,,,,,,,,,,,,403.22328089998337,404.0232415999635,404.8233296999824,404.8067223999533,,,,,,,,,,,,,,,,,,,,,,,,,,,,,,,,,,,404.8070509000099,404.8233296999824,404.8233296999824,405.407255899976,r,1.0,0.5712309000082314,,,,,,sub-050,1,stroop_test,59.7492562677301,
,,,,113.0,5.0,9.0,,,,,,,,,,,,,rot,blue,b,0.0,b,1.0,0.6227529000025243,,,,,,,,,,9.0,5.0,113.0,2.0,405.42329760000575,,,,,,,,,,,,,,,,,405.4075106999953,405.50644969998393,406.3059714999981,406.2896441000048,,,,,,,,,,,,,,,,,,,,,,,,,,,,,,,,,,,406.2899442999624,406.3059714999981,406.3059714999981,406.9401391999563,b,1.0,0.6227529000025243,,,,,,sub-050,1,stroop_test,59.7492562677301,
,,,,114.0,6.0,9.0,,,,,,,,,,,,,rot,red,r,1.0,r,1.0,0.6046033999882638,,,,,,,,,,9.0,6.0,114.0,1.0,406.9561194999842,,,,,,,,,,,,,,,,,406.9403664999991,407.2896492999862,408.089534299972,408.07298529997934,,,,,,,,,,,,,,,,,,,,,,,,,,,,,,,,,,,408.0733474000008,408.089534299972,408.089534299972,408.70624869997846,r,1.0,0.6046033999882638,,,,,,sub-050,1,stroop_test,59.7492562677301,
,,,,115.0,7.0,9.0,,,,,,,,,,,,,gelb,yellow,g,1.0,g,1.0,0.6336743999854662,,,,,,,,,,9.0,7.0,115.0,10.0,408.7232461000094,,,,,,,,,,,,,,,,,408.7064587000059,408.8064257999649,409.605750799994,409.5902095999918,,,,,,,,,,,,,,,,,,,,,,,,,,,,,,,,,,,409.5920359999873,409.605750799994,409.605750799994,410.2407111999928,g,1.0,0.6336743999854662,,,,,,sub-050,1,stroop_test,59.7492562677301,
,,,,116.0,8.0,9.0,,,,,,,,,,,,,blau,blue,b,1.0,b,1.0,0.577163899957668,,,,,,,,,,9.0,8.0,116.0,5.0,410.25593529996695,,,,,,,,,,,,,,,,,410.2409512999584,410.6062300999765,411.4049342999933,411.3898877999745,,,,,,,,,,,,,,,,,,,,,,,,,,,,,,,,,,,411.3921094999532,411.4049342999933,411.4049342999933,411.9899899999728,b,1.0,0.577163899957668,,,,,,sub-050,1,stroop_test,59.7492562677301,
,,,,117.0,9.0,9.0,,,,,,,,,,,,,gelb,yellow,g,1.0,g,1.0,0.810920299962163,,,,,,,,,,9.0,9.0,117.0,11.0,412.00663079996593,,,,,,,,,,,,,,,,,411.990218699968,412.0891937999986,412.8884395000059,412.8735382999876,,,,,,,,,,,,,,,,,,,,,,,,,,,,,,,,,,,412.8753574999864,412.8884395000059,412.8884395000059,413.7065968000097,g,1.0,0.810920299962163,,,,,,sub-050,1,stroop_test,59.7492562677301,
,,,,118.0,10.0,9.0,,,,,,,,,,,,,gelb,red,r,0.0,r,1.0,0.5181878000148572,,,,,,,,,,9.0,10.0,118.0,8.0,413.72325759998057,,,,,,,,,,,,,,,,,413.70681589999,414.5064514999976,415.3056123999995,415.2897924999706,,,,,,,,,,,,,,,,,,,,,,,,,,,,,,,,,,,415.290149599954,415.3056123999995,415.3056123999995,415.8407697000075,r,1.0,0.5181878000148572,,,,,,sub-050,1,stroop_test,59.7492562677301,
,,,,119.0,11.0,9.0,,,,,,,,,,,,,blau,blue,b,1.0,b,1.0,0.3487429000088013,,,,,,,,,,9.0,11.0,119.0,6.0,415.85503839998273,,,,,,,,,,,,,,,,,415.8409975999966,416.6564665999613,417.4554045999539,417.4396030000062,,,,,,,,,,,,,,,,,,,,,,,,,,,,,,,,,,,417.4418763999711,417.4554045999539,417.4554045999539,417.806943100004,b,1.0,0.3487429000088013,,,,,,sub-050,1,stroop_test,59.7492562677301,
,,,,,,,,,,,,,,,,,,,,,,,,,,,,,,,,,,,,,,,,,,,,,,,,,,,,,,,,,,,,,,,,,,,,,,,,,,,,,,,,,,,,,,,,,,,,,,,,,,,,,,417.807055399986,417.8216146999621,422.82256479997886,422.8067197999917,sub-050,1,stroop_test,59.7492562677301,
