direction,corrAns,thisN,thisTrialN,thisRepN,respDots.keys,respDots.corr,respDots.rt,respDots.duration,randomInstr,respRandomInstr.keys,respRandomInstr.rt,respRandomInstr.duration,practice_trials.thisRepN,practice_trials.thisTrialN,practice_trials.thisN,practice_trials.thisIndex,instr_trials.thisRepN,instr_trials.thisTrialN,instr_trials.thisN,instr_trials.thisIndex,test_trials.thisRepN,test_trials.thisTrialN,test_trials.thisN,test_trials.thisIndex,thisRow.t,notes,general_instruction.started,textGeneralInstr.started,respGeneralInstr.started,general_instruction.stopped,respGeneralInstr.keys,respGeneralInstr.rt,respGeneralInstr.duration,ITI.started,fixcross.started,fixcross.stopped,ITI.stopped,dots.started,backgroundDots.started,stimulusDots.started,respDots.started,stimulusDots.stopped,dots.stopped,practice_trials.respDots.keys,practice_trials.respDots.corr,practice_trials.respDots.rt,practice_trials.respDots.duration,feedback.started,textFeedback.started,feedback.stopped,textFeedback.stopped,info.started,textInfo.started,keyRespInfo.started,info.stopped,keyRespInfo.keys,keyRespInfo.rt,keyRespInfo.duration,test_instruction.started,textTestInstr.started,respTestInstr.started,test_instruction.stopped,respTestInstr.keys,respTestInstr.rt,respTestInstr.duration,random_instruction.started,textRandomInstr.started,respRandomInstr.started,random_instruction.stopped,instr_trials.respRandomInstr.keys,instr_trials.respRandomInstr.rt,instr_trials.respRandomInstr.duration,test_trials.respDots.keys,test_trials.respDots.corr,test_trials.respDots.rt,test_trials.respDots.duration,goodbye.started,textGoodbye.started,goodbye.stopped,participant,session,expName,frameRate,Unnamed: 87
,,,,,,,,,,,,,,,,,,,,,,,,,,,0.011926459003007,0.024164667003788,0.024164667003788,8.026135374995647,space,7.952271874994039,,,,,,,,,,,,,,,,,,,,,,,,,,,,,,,,,,,,,,,,,,,,,,,,sub-178,1,random_dot,119.25205111818632,
right,right,0.0,0.0,0.0,left,0.0,12.080024666007375,,,,,,0.0,0.0,0.0,1.0,,,,,,,,,8.09670612498303,,,,,,,,,8.051139291987056,8.117859291989589,8.924933875008719,8.902595333987847,8.903244874993106,8.924933875008719,8.924933875008719,8.924933875008719,13.901332584006012,21.010108499991475,left,0.0,12.080024666007375,,21.019361666985787,21.12474908400327,21.5185123749834,,,,,,,,,,,,,,,,,,,,,,,,,,,,,,sub-178,1,random_dot,119.25205111818632,
left,left,1.0,1.0,0.0,left,1.0,1.4429830000153745,,,,,,0.0,1.0,1.0,0.0,,,,,,,,,21.52436029200908,,,,,,,,,21.518947042000946,22.307188125007087,23.10109499999089,23.09092537499964,23.09145000000717,23.10109499999089,23.10109499999089,23.10109499999089,,24.552939791989047,left,1.0,1.4429830000153745,,24.558925166988047,24.58575662499061,25.05696445898502,,,,,,,,,,,,,,,,,,,,,,,,,,,,,,sub-178,1,random_dot,119.25205111818632,
left,left,2.0,0.0,1.0,right,0.0,1.0068632920156233,,,,,,1.0,0.0,2.0,0.0,,,,,,,,,25.06843008400756,,,,,,,,,25.05737200001022,25.84209408398601,26.64543045900064,26.636025833984604,26.636729458987247,26.64543045900064,26.64543045900064,26.64543045900064,,27.66000370899565,right,0.0,1.0068632920156233,,27.66342816699762,27.672792249999475,28.15865133400075,28.16833087499253,,,,,,,,,,,,,,,,,,,,,,,,,,,,,sub-178,1,random_dot,119.25205111818632,
right,right,3.0,1.0,1.0,left,0.0,1.9001854590023868,,,,,,1.0,1.0,3.0,1.0,,,,,,,,,28.16833087499253,,,,,,,,,28.15908616699744,28.50820737500908,29.301211209007302,29.291233833995648,29.29171358398162,29.301211209007302,29.301211209007302,29.301211209007302,,31.20356512500439,left,0.0,1.9001854590023868,,31.203681541985134,31.21287124999799,31.70245279200026,31.708134291984607,,,,,,,,,,,,,,,,,,,,,,,,,,,,,sub-178,1,random_dot,119.25205111818632,
left,left,4.0,0.0,2.0,left,1.0,1.251651792001212,,,,,,2.0,0.0,4.0,0.0,,,,,,,,,31.708134291984607,,,,,,,,,31.70285420899745,32.50172112500877,33.30163091700524,33.28852737499983,33.288956292002695,33.30163091700524,33.30163091700524,33.30163091700524,,34.56004270899575,left,1.0,1.251651792001212,,34.56348983399221,34.572904417000245,35.05893970900797,35.068402874981984,,,,,,,,,,,,,,,,,,,,,,,,,,,,,sub-178,1,random_dot,119.25205111818632,
right,right,5.0,1.0,2.0,left,0.0,2.192462791019352,,,,,,2.0,1.0,5.0,1.0,,,,,,,,,35.068402874981984,,,,,,,,,35.05936791698332,35.85840312499204,36.65123695900547,36.64201229199534,36.642528750002384,36.65123695900547,36.65123695900547,36.65123695900547,,38.853376583982026,left,0.0,2.192462791019352,,38.85653470898978,38.86586891699699,39.35272070899373,39.35862774998532,,,,,,,,,,,,,,,,,,,,,,,,,,,,,sub-178,1,random_dot,119.25205111818632,
right,right,6.0,0.0,3.0,right,1.0,2.500178167014383,,,,,,3.0,0.0,6.0,1.0,,,,,,,,,39.35862774998532,,,,,,,,,39.35311525000725,40.15194666699972,40.94397833399125,40.93589229200734,40.93636074999813,40.94397833399125,40.94397833399125,40.94397833399125,,43.45324620898464,right,1.0,2.500178167014383,,43.45640691698645,43.46544454200193,43.95270537500619,43.95849045898649,,,,,,,,,,,,,,,,,,,,,,,,,,,,,sub-178,1,random_dot,119.25205111818632,
left,left,7.0,1.0,3.0,left,1.0,1.846548083005473,,,,,,3.0,1.0,7.0,0.0,,,,,,,,,43.95849045898649,,,,,,,,,43.95313916698797,44.7520527089946,45.54402658398613,45.53586870900472,45.53635937499348,45.54402658398613,45.54402658398613,45.54402658398613,,47.39350254199235,left,1.0,1.846548083005473,,47.39361504200497,47.40244187499047,47.8861310420034,47.89185954199638,,,,,,,,,,,,,,,,,,,,,,,,,,,,,sub-178,1,random_dot,119.25205111818632,
left,left,8.0,0.0,4.0,left,1.0,2.6637666660244577,,,,,,4.0,0.0,8.0,0.0,,,,,,,,,47.89185954199638,,,,,,,,,47.88652433399693,47.99149087499245,48.78397608399973,48.77597899999819,48.77646166700288,48.78397608399973,48.78397608399973,48.78397608399973,,51.45358195900917,left,1.0,2.6637666660244577,,51.453700209007366,51.46229933400173,51.95266812498448,51.95836170899565,,,,,,,,,,,,,,,,,,,,,,,,,,,,,sub-178,1,random_dot,119.25205111818632,
right,right,9.0,1.0,4.0,right,1.0,2.543925500009209,,,,,,4.0,1.0,9.0,1.0,,,,,,,,,51.95836170899565,,,,,,,,,51.95305233399267,52.05208770898753,52.84492687499733,52.83627845899901,52.83690287498757,52.84492687499733,52.84492687499733,52.84492687499733,,55.39273966700421,right,1.0,2.543925500009209,,55.39283004199388,55.40152499999385,55.88598875000025,55.89187512500212,,,,,,,,,,,,,,,,,,,,,,,,,,,,,sub-178,1,random_dot,119.25205111818632,
left,left,10.0,0.0,5.0,left,1.0,1.6843566659954377,,,,,,5.0,0.0,10.0,0.0,,,,,,,,,55.89187512500212,,,,,,,,,55.88646541698836,56.24160154198762,57.03478220899706,57.02479900000617,57.02529349998804,57.03478220899706,57.03478220899706,57.03478220899706,,58.729802749992814,left,1.0,1.6843566659954377,,58.72992133398657,58.75167587498436,59.23552962500253,,,,,,,,,,,,,,,,,,,,,,,,,,,,,,sub-178,1,random_dot,119.25205111818632,
right,right,11.0,1.0,5.0,left,0.0,1.5838801669888198,,,,,,5.0,1.0,11.0,1.0,,,,,,,,,59.24101012499887,,,,,,,,,59.23591275000945,59.32635133399162,60.12736962499912,60.11932912500925,60.11978624999756,60.12736962499912,60.12736962499912,60.12736962499912,,61.72032091699657,left,0.0,1.5838801669888198,,61.724150249996455,61.73360833400511,62.21943604198168,62.22511408399441,,,,,,,,,,,,,,,,,,,,,,,,,,,,,sub-178,1,random_dot,119.25205111818632,
right,right,12.0,0.0,6.0,right,1.0,1.020808291999856,,,,,,6.0,0.0,12.0,1.0,,,,,,,,,62.22511408399441,,,,,,,,,62.21981783400406,63.01851141700172,63.81105600000592,63.80292799999006,63.80340041700401,63.81105600000592,63.81105600000592,63.81105600000592,,64.83664191700518,right,1.0,1.020808291999856,,64.83983366700704,64.84896724999999,65.33606983398204,65.34195662499405,,,,,,,,,,,,,,,,,,,,,,,,,,,,,sub-178,1,random_dot,119.25205111818632,
left,left,13.0,1.0,6.0,left,1.0,3.4587261660199147,,,,,,6.0,1.0,13.0,0.0,,,,,,,,,65.34195662499405,,,,,,,,,65.33646920899628,65.43551312500495,66.22828083400964,66.21953341699555,66.22000149998348,66.22828083400964,66.22828083400964,66.22828083400964,,69.69363454199629,left,1.0,3.4587261660199147,,69.69374379198416,69.70199995898292,70.18612441699952,70.19191550000687,,,,,,,,,,,,,,,,,,,,,,,,,,,,,sub-178,1,random_dot,119.25205111818632,
left,left,14.0,0.0,7.0,left,1.0,1.826135291979881,,,,,,7.0,0.0,14.0,0.0,,,,,,,,,70.19191550000687,,,,,,,,,70.18654091699864,70.29200291700545,71.08493716700468,71.07516158398357,71.07561800000258,71.08493716700468,71.08493716700468,71.08493716700468,,72.92012125000474,left,1.0,1.826135291979881,,72.92023608399904,72.92898333398625,73.41944445899571,73.42532604199369,,,,,,,,,,,,,,,,,,,,,,,,,,,,,sub-178,1,random_dot,119.25205111818632,
right,right,15.0,1.0,7.0,left,0.0,1.8774256670149043,,,,,,7.0,1.0,15.0,1.0,,,,,,,,,73.42532604199369,,,,,,,,,73.41983883400098,74.2188885420037,75.01191500001005,75.00288408400957,75.00348545899033,75.01191500001005,75.01191500001005,75.01191500001005,,76.89403737499379,left,0.0,1.8774256670149043,,76.89752583400696,76.90683349999017,77.39193329200498,77.40231595898513,,,,,,,,,,,,,,,,,,,,,,,,,,,,,sub-178,1,random_dot,119.25205111818632,
right,right,16.0,0.0,8.0,left,0.0,0.9259149999998044,,,,,,8.0,0.0,16.0,1.0,,,,,,,,,77.40231595898513,,,,,,,,,77.39241112500895,78.5921148339985,79.39473883400206,79.38636091700755,79.38684270900558,79.39473883400206,79.39473883400206,79.39473883400206,,80.32648395898286,left,0.0,0.9259149999998044,,80.32660249999026,80.33514799998375,80.81956658398849,80.82518458398408,,,,,,,,,,,,,,,,,,,,,,,,,,,,,sub-178,1,random_dot,119.25205111818632,
left,left,17.0,1.0,8.0,right,0.0,6.354997625021497,,,,,,8.0,1.0,17.0,0.0,,,,,,,,,80.82518458398408,,,,,,,,,80.81994354201015,80.92532662500162,81.72834279199014,81.71990891700261,81.72043749998556,81.72834279199014,81.72834279199014,81.72834279199014,86.71883320898633,88.08757720899303,right,0.0,6.354997625021497,,88.0877295419923,88.09678304198314,88.58635087500443,88.59209737498895,,,,,,,,,,,,,,,,,,,,,,,,,,,,,sub-178,1,random_dot,119.25205111818632,
right,right,18.0,0.0,9.0,left,0.0,2.4334955410158727,,,,,,9.0,0.0,18.0,1.0,,,,,,,,,88.59209737498895,,,,,,,,,88.58673479198478,89.78578441700665,90.57841554199696,90.56978687498486,90.57035470899427,90.57841554199696,90.57841554199696,90.57841554199696,,93.02047849999508,left,0.0,2.4334955410158727,,93.02059395899414,93.02938887500204,93.51978354199672,93.52555629200651,,,,,,,,,,,,,,,,,,,,,,,,,,,,,sub-178,1,random_dot,119.25205111818632,
left,left,19.0,1.0,9.0,right,0.0,1.8409553749952463,,,,,,9.0,1.0,19.0,0.0,,,,,,,,,93.52555629200651,,,,,,,,,93.52020537498174,94.71908149999216,95.51113400000033,95.50297654198948,95.50347608400624,95.51113400000033,95.51113400000033,95.51113400000033,,97.35455499999809,right,0.0,1.8409553749952463,,97.35473379198812,97.3638043749961,97.8529801669938,97.86187100000096,,,,,,,,,,,,,,,,,,,,,,,,,,,,,sub-178,1,random_dot,119.25205111818632,
,,,,,,,,,,,,,,,,,,,,,,,,,,,,,,,,,,,,,,,,,,,,,,,,,,,,97.8531579170085,97.86187100000096,97.86187100000096,123.337897874997,space,25.46686962500098,,,,,,,,,,,,,,,,,,,,,,,sub-178,1,random_dot,119.25205111818632,
,,,,,,,,,,,,,,,,,,,,,,,,,,,,,,,,,,,,,,,,,,,,,,,,,,,,,,,,,,,123.33801333399606,123.37800495899864,123.37800495899864,124.55530866698246,space,1.1714625000022352,,,,,,,,,,,,,,,,sub-178,1,random_dot,119.25205111818632,
left,left,0.0,0.0,0.0,left,1.0,0.7274101250222884,,speed,space,5.841698165982962,,,,,,0.0,0.0,0.0,1.0,0.0,0.0,0.0,0.0,130.4730663340015,,,,,,,,,130.46385816700058,131.25305149998167,132.0464677920099,132.0371540839842,132.03782066699932,132.0464677920099,132.0464677920099,132.0464677920099,,132.7779270419851,,,,,,,,,,,,,,,,,,,,,,,124.5990671670006,124.60856295900884,124.60856295900884,130.45452729199314,space,5.841698165982962,,left,1.0,0.7274101250222884,,,,,sub-178,1,random_dot,119.25205111818632,
right,right,1.0,1.0,0.0,left,0.0,0.903960708004888,,speed,space,5.841698165982962,,,,,,0.0,0.0,0.0,1.0,0.0,1.0,1.0,1.0,132.78656949999277,,,,,,,,,132.77832683399902,132.87812270899303,133.67909349998808,133.67065408400958,133.67126683398965,133.67909349998808,133.67909349998808,133.67909349998808,,134.58762616699096,,,,,,,,,,,,,,,,,,,,,,,,,,,,,,left,0.0,0.903960708004888,,,,,sub-178,1,random_dot,119.25205111818632,
left,left,2.0,0.0,1.0,right,0.0,0.8781887909863144,,speed,space,5.841698165982962,,,,,,0.0,0.0,0.0,1.0,1.0,0.0,2.0,0.0,134.59602258400992,,,,,,,,,134.58802199998172,135.38629129200126,136.17860558399116,136.17040787500446,136.17095662499196,136.17860558399116,136.17860558399116,136.17860558399116,,137.06161858400446,,,,,,,,,,,,,,,,,,,,,,,,,,,,,,right,0.0,0.8781887909863144,,,,,sub-178,1,random_dot,119.25205111818632,
right,right,3.0,1.0,1.0,left,0.0,1.441444625001168,,speed,space,5.841698165982962,,,,,,0.0,0.0,0.0,1.0,1.0,1.0,3.0,1.0,137.0859166669834,,,,,,,,,137.06202533398755,137.85975433400017,138.66176129199448,138.65363583399449,138.65409570900374,138.66176129199448,138.66176129199448,138.66176129199448,,140.11396537499968,,,,,,,,,,,,,,,,,,,,,,,,,,,,,,left,0.0,1.441444625001168,,,,,sub-178,1,random_dot,119.25205111818632,
right,right,4.0,0.0,2.0,right,1.0,1.1633303750131745,,speed,space,5.841698165982962,,,,,,0.0,0.0,0.0,1.0,2.0,0.0,4.0,1.0,140.11994620898622,,,,,,,,,140.11437466699863,140.45907162499498,141.2523412919836,141.24205649999203,141.2425048339937,141.2523412919836,141.2523412919836,141.2523412919836,,142.4207786670013,,,,,,,,,,,,,,,,,,,,,,,,,,,,,,right,1.0,1.1633303750131745,,,,,sub-178,1,random_dot,119.25205111818632,
left,left,5.0,1.0,2.0,left,1.0,0.7763574160053395,,speed,space,5.841698165982962,,,,,,0.0,0.0,0.0,1.0,2.0,1.0,5.0,0.0,142.42962375000934,,,,,,,,,142.4212065419997,143.61076183398836,144.41212979200645,144.4038439169817,144.4043942919816,144.41212979200645,144.41212979200645,144.41212979200645,,145.19447216700064,,,,,,,,,,,,,,,,,,,,,,,,,,,,,,left,1.0,0.7763574160053395,,,,,sub-178,1,random_dot,119.25205111818632,
left,left,6.0,0.0,3.0,left,1.0,0.7463110830285586,,speed,space,5.841698165982962,,,,,,0.0,0.0,0.0,1.0,3.0,0.0,6.0,0.0,145.20279666699935,,,,,,,,,145.1948715839826,145.5431801250088,146.3348129169899,146.32675974999438,146.32725295898854,146.3348129169899,146.3348129169899,146.3348129169899,,147.0874857500021,,,,,,,,,,,,,,,,,,,,,,,,,,,,,,left,1.0,0.7463110830285586,,,,,sub-178,1,random_dot,119.25205111818632,
right,right,7.0,1.0,3.0,right,1.0,0.6835516249993816,,speed,space,5.841698165982962,,,,,,0.0,0.0,0.0,1.0,3.0,1.0,7.0,1.0,147.09599637499196,,,,,,,,,147.0879063750035,147.43635970898322,148.22849833400687,148.22034654198796,148.22084537500632,148.22849833400687,148.22849833400687,148.22849833400687,,148.9208475839987,,,,,,,,,,,,,,,,,,,,,,,,,,,,,,right,1.0,0.6835516249993816,,,,,sub-178,1,random_dot,119.25205111818632,
left,left,8.0,0.0,4.0,left,1.0,0.8941249579947907,,speed,space,5.841698165982962,,,,,,0.0,0.0,0.0,1.0,4.0,0.0,8.0,0.0,148.9293638340023,,,,,,,,,148.92126987499068,150.11988979199668,150.912048416998,150.9038971249829,150.90445616698707,150.912048416998,150.912048416998,150.912048416998,,151.81120241698227,,,,,,,,,,,,,,,,,,,,,,,,,,,,,,left,1.0,0.8941249579947907,,,,,sub-178,1,random_dot,119.25205111818632,
right,right,9.0,1.0,4.0,right,1.0,0.7847382499894593,,speed,space,5.841698165982962,,,,,,0.0,0.0,0.0,1.0,4.0,1.0,9.0,1.0,151.81947012498858,,,,,,,,,151.81160625000484,152.60952720898786,153.40538595899125,153.39331124999444,153.3937502919871,153.40538595899125,153.40538595899125,153.40538595899125,,154.19512541699805,,,,,,,,,,,,,,,,,,,,,,,,,,,,,,right,1.0,0.7847382499894593,,,,,sub-178,1,random_dot,119.25205111818632,
right,right,10.0,0.0,5.0,right,1.0,1.9008739580167455,,speed,space,5.841698165982962,,,,,,0.0,0.0,0.0,1.0,5.0,0.0,10.0,1.0,154.21939233399462,,,,,,,,,154.19554191699717,154.5425529589993,155.33581154199783,155.3258596250089,155.32642516700434,155.33581154199783,155.33581154199783,155.33581154199783,,157.2492400839983,,,,,,,,,,,,,,,,,,,,,,,,,,,,,,right,1.0,1.9008739580167455,,,,,sub-178,1,random_dot,119.25205111818632,
left,left,11.0,1.0,5.0,left,1.0,0.5416689580015372,,speed,space,5.841698165982962,,,,,,0.0,0.0,0.0,1.0,5.0,1.0,11.0,0.0,157.25438887500786,,,,,,,,,157.24966820899863,158.44341679199715,159.24461637498462,159.23702041700017,159.23747595900204,159.24461637498462,159.24461637498462,159.24461637498462,,159.78844899998512,,,,,,,,,,,,,,,,,,,,,,,,,,,,,,left,1.0,0.5416689580015372,,,,,sub-178,1,random_dot,119.25205111818632,
left,left,12.0,0.0,6.0,left,1.0,0.9151075419795234,,speed,space,5.841698165982962,,,,,,0.0,0.0,0.0,1.0,6.0,0.0,12.0,0.0,159.7967190000054,,,,,,,,,159.7888893749914,160.58656895899912,161.37898262499948,161.3706845419947,161.37121350000962,161.37898262499948,161.37898262499948,161.37898262499948,,162.3048947089992,,,,,,,,,,,,,,,,,,,,,,,,,,,,,,left,1.0,0.9151075419795234,,,,,sub-178,1,random_dot,119.25205111818632,
right,right,13.0,1.0,6.0,right,1.0,1.0064520000014454,,speed,space,5.841698165982962,,,,,,0.0,0.0,0.0,1.0,6.0,1.0,13.0,1.0,162.31381575000705,,,,,,,,,162.3054221670027,162.65329112499603,163.44479191699065,163.43707575000008,163.4375214589818,163.44479191699065,163.44479191699065,163.44479191699065,,164.45425591699313,,,,,,,,,,,,,,,,,,,,,,,,,,,,,,right,1.0,1.0064520000014454,,,,,sub-178,1,random_dot,119.25205111818632,
left,left,14.0,0.0,7.0,right,0.0,0.8960259589948691,,speed,space,5.841698165982962,,,,,,0.0,0.0,0.0,1.0,7.0,0.0,14.0,0.0,164.46273662499152,,,,,,,,,164.45465208400856,165.25342895899666,166.04524504198343,166.0371101250057,166.0375869999989,166.04524504198343,166.04524504198343,166.04524504198343,,166.94485574998544,,,,,,,,,,,,,,,,,,,,,,,,,,,,,,right,0.0,0.8960259589948691,,,,,sub-178,1,random_dot,119.25205111818632,
right,right,15.0,1.0,7.0,right,1.0,2.3834415409946814,,speed,space,5.841698165982962,,,,,,0.0,0.0,0.0,1.0,7.0,1.0,15.0,1.0,166.95361670898274,,,,,,,,,166.9452537499892,168.1438129169983,168.9451872500067,168.9371250839904,168.93758399999933,168.9451872500067,168.9451872500067,168.9451872500067,,171.33800854199217,,,,,,,,,,,,,,,,,,,,,,,,,,,,,,right,1.0,2.3834415409946814,,,,,sub-178,1,random_dot,119.25205111818632,
right,right,16.0,0.0,8.0,left,0.0,0.8766501249920111,,speed,space,5.841698165982962,,,,,,0.0,0.0,0.0,1.0,8.0,0.0,16.0,1.0,171.3464946669992,,,,,,,,,171.3384973339853,171.68637483398197,172.479557499988,172.4706077919982,172.4710702089942,172.479557499988,172.479557499988,172.479557499988,,173.36175250000088,,,,,,,,,,,,,,,,,,,,,,,,,,,,,,left,0.0,0.8766501249920111,,,,,sub-178,1,random_dot,119.25205111818632,
left,left,17.0,1.0,8.0,left,1.0,0.9418665000121108,,speed,space,5.841698165982962,,,,,,0.0,0.0,0.0,1.0,8.0,1.0,17.0,0.0,173.3701200420037,,,,,,,,,173.36216229200363,174.55887970898766,175.3526742089889,175.3430892089964,175.343558166991,175.3526742089889,175.3526742089889,175.3526742089889,,176.30477037499077,,,,,,,,,,,,,,,,,,,,,,,,,,,,,,left,1.0,0.9418665000121108,,,,,sub-178,1,random_dot,119.25205111818632,
left,left,18.0,0.0,9.0,right,0.0,1.2230452499934472,,speed,space,5.841698165982962,,,,,,0.0,0.0,0.0,1.0,9.0,0.0,18.0,0.0,176.31334879199858,,,,,,,,,176.30517425001017,176.40280533398618,177.19656079198467,177.1873882499931,177.1879311249941,177.19656079198467,177.19656079198467,177.19656079198467,,178.42166608400294,,,,,,,,,,,,,,,,,,,,,,,,,,,,,,right,0.0,1.2230452499934472,,,,,sub-178,1,random_dot,119.25205111818632,
right,right,19.0,1.0,9.0,right,1.0,1.4913555000093766,,speed,space,5.841698165982962,,,,,,0.0,0.0,0.0,1.0,9.0,1.0,19.0,1.0,178.43028945900733,,,,,,,,,178.42207345899078,178.76995966699906,179.56180166700506,179.55383316701045,179.55430524999974,179.56180166700506,179.56180166700506,179.56180166700506,,181.0554688340053,,,,,,,,,,,,,,,,,,,,,,,,,,,,,,right,1.0,1.4913555000093766,,,,,sub-178,1,random_dot,119.25205111818632,
left,left,20.0,0.0,10.0,right,0.0,0.9533379999920726,,speed,space,5.841698165982962,,,,,,0.0,0.0,0.0,1.0,10.0,0.0,20.0,0.0,181.0642395839968,,,,,,,,,181.05589029198745,181.1534782089875,181.9452952499851,181.93736083401015,181.93780745900585,181.9452952499851,181.9452952499851,181.9452952499851,,182.9046417089994,,,,,,,,,,,,,,,,,,,,,,,,,,,,,,right,0.0,0.9533379999920726,,,,,sub-178,1,random_dot,119.25205111818632,
right,right,21.0,1.0,10.0,left,0.0,0.9786885419744068,,speed,space,5.841698165982962,,,,,,0.0,0.0,0.0,1.0,10.0,1.0,21.0,1.0,182.91294287500205,,,,,,,,,182.90505220898197,184.10350295898388,184.89524412498577,184.88719000000856,184.88765570899704,184.89524412498577,184.89524412498577,184.89524412498577,,185.8781838750001,,,,,,,,,,,,,,,,,,,,,,,,,,,,,,left,0.0,0.9786885419744068,,,,,sub-178,1,random_dot,119.25205111818632,
right,right,22.0,0.0,11.0,right,1.0,1.8187085420067888,,speed,space,5.841698165982962,,,,,,0.0,0.0,0.0,1.0,11.0,0.0,22.0,1.0,185.8869412089989,,,,,,,,,185.87858429198968,187.0765406249848,187.8794864169904,187.87093733399524,187.87148770899512,187.8794864169904,187.8794864169904,187.8794864169904,,189.70461966699804,,,,,,,,,,,,,,,,,,,,,,,,,,,,,,right,1.0,1.8187085420067888,,,,,sub-178,1,random_dot,119.25205111818632,
left,left,23.0,1.0,11.0,left,1.0,1.1367244999855757,,speed,space,5.841698165982962,,,,,,0.0,0.0,0.0,1.0,11.0,1.0,23.0,0.0,189.7131045419956,,,,,,,,,189.70502812499765,189.80361091700613,190.59590304200535,190.5876269589935,190.5881619169959,190.59590304200535,190.59590304200535,190.59590304200535,,191.738503458997,,,,,,,,,,,,,,,,,,,,,,,,,,,,,,left,1.0,1.1367244999855757,,,,,sub-178,1,random_dot,119.25205111818632,
left,left,24.0,0.0,12.0,left,1.0,0.7025695419870317,,speed,space,5.841698165982962,,,,,,0.0,0.0,0.0,1.0,12.0,0.0,24.0,0.0,191.74682570900768,,,,,,,,,191.7389145839843,192.0867110840045,192.87871162500232,192.87076491699557,192.87120754198983,192.87871162500232,192.87871162500232,192.87871162500232,,193.5881697500008,,,,,,,,,,,,,,,,,,,,,,,,,,,,,,left,1.0,0.7025695419870317,,,,,sub-178,1,random_dot,119.25205111818632,
right,right,25.0,1.0,12.0,right,1.0,0.936102125007892,,speed,space,5.841698165982962,,,,,,0.0,0.0,0.0,1.0,12.0,1.0,25.0,1.0,193.59701274998952,,,,,,,,,193.5885900419962,193.6867988340091,194.47836504198492,194.47083308399303,194.4712924589985,194.47836504198492,194.47836504198492,194.47836504198492,,195.4213356669934,,,,,,,,,,,,,,,,,,,,,,,,,,,,,,right,1.0,0.936102125007892,,,,,sub-178,1,random_dot,119.25205111818632,
left,left,26.0,0.0,13.0,left,1.0,1.302165041997796,,speed,space,5.841698165982962,,,,,,0.0,0.0,0.0,1.0,13.0,0.0,26.0,0.0,195.43004912498876,,,,,,,,,195.42175062498427,195.52017412500567,196.3122966249939,196.30409991700435,196.30456749998848,196.3122966249939,196.3122966249939,196.3122966249939,,197.6213534589915,,,,,,,,,,,,,,,,,,,,,,,,,,,,,,left,1.0,1.302165041997796,,,,,sub-178,1,random_dot,119.25205111818632,
right,right,27.0,1.0,13.0,left,0.0,0.893228208005894,,speed,space,5.841698165982962,,,,,,0.0,0.0,0.0,1.0,13.0,1.0,27.0,1.0,197.6300965840055,,,,,,,,,197.62176158398503,197.72023641699343,198.5124316669826,198.50427395899897,198.5047928339918,198.5124316669826,198.5124316669826,198.5124316669826,,199.4117551250092,,,,,,,,,,,,,,,,,,,,,,,,,,,,,,left,0.0,0.893228208005894,,,,,sub-178,1,random_dot,119.25205111818632,
left,left,28.0,0.0,14.0,right,0.0,0.7875742079922929,,speed,space,5.841698165982962,,,,,,0.0,0.0,0.0,1.0,14.0,0.0,28.0,0.0,199.42001604198597,,,,,,,,,199.41215570899655,200.61007995900584,201.41237533401,201.40431383400573,201.4047647499829,201.41237533401,201.41237533401,201.41237533401,,202.2046064169845,,,,,,,,,,,,,,,,,,,,,,,,,,,,,,right,0.0,0.7875742079922929,,,,,sub-178,1,random_dot,119.25205111818632,
right,right,29.0,1.0,14.0,right,1.0,0.7251976249972358,,speed,space,5.841698165982962,,,,,,0.0,0.0,0.0,1.0,14.0,1.0,29.0,1.0,202.2131126250024,,,,,,,,,202.2050132919976,203.40358158398885,204.19553679198725,204.18762641699868,204.1880927500024,204.19553679198725,204.19553679198725,204.19553679198725,,204.93132062500808,,,,,,,,,,,,,,,,,,,,,,,,,,,,,,right,1.0,0.7251976249972358,,,,,sub-178,1,random_dot,119.25205111818632,
left,left,30.0,0.0,15.0,left,1.0,1.3773528749879915,,speed,space,5.841698165982962,,,,,,0.0,0.0,0.0,1.0,15.0,0.0,30.0,0.0,204.9367002089857,,,,,,,,,204.9317390419892,205.02742395899256,205.83023087499896,205.8211739999824,205.8217215839832,205.83023087499896,205.83023087499896,205.83023087499896,,207.21166004199767,,,,,,,,,,,,,,,,,,,,,,,,,,,,,,left,1.0,1.3773528749879915,,,,,sub-178,1,random_dot,119.25205111818632,
right,right,31.0,1.0,15.0,right,1.0,1.727483916998608,,speed,space,5.841698165982962,,,,,,0.0,0.0,0.0,1.0,15.0,1.0,31.0,1.0,207.2200833749957,,,,,,,,,207.21207883398165,208.4103433749988,209.20305837498745,209.19341508400976,209.19390654200103,209.20305837498745,209.20305837498745,209.20305837498745,,210.93820645898813,,,,,,,,,,,,,,,,,,,,,,,,,,,,,,right,1.0,1.727483916998608,,,,,sub-178,1,random_dot,119.25205111818632,
left,left,32.0,0.0,16.0,left,1.0,0.6172309170069639,,speed,space,5.841698165982962,,,,,,0.0,0.0,0.0,1.0,16.0,0.0,32.0,0.0,210.9470239169896,,,,,,,,,210.93860745898564,211.7366440839833,212.5286666250031,212.52084254199872,212.5213259169832,212.5286666250031,212.5286666250031,212.5286666250031,,213.1548664169968,,,,,,,,,,,,,,,,,,,,,,,,,,,,,,left,1.0,0.6172309170069639,,,,,sub-178,1,random_dot,119.25205111818632,
right,right,33.0,1.0,16.0,right,1.0,1.3924836669757497,,speed,space,5.841698165982962,,,,,,0.0,0.0,0.0,1.0,16.0,1.0,33.0,1.0,213.16323433400248,,,,,,,,,213.15527883399045,213.95367570899543,214.74587933399016,214.73759345899447,214.73807779198975,214.74587933399016,214.74587933399016,214.74587933399016,,216.14524283399803,,,,,,,,,,,,,,,,,,,,,,,,,,,,,,right,1.0,1.3924836669757497,,,,,sub-178,1,random_dot,119.25205111818632,
left,left,34.0,0.0,17.0,right,0.0,1.2050793339731172,,speed,space,5.841698165982962,,,,,,0.0,0.0,0.0,1.0,17.0,0.0,34.0,0.0,216.15381904199603,,,,,,,,,216.14564679199248,217.34355108399177,218.14632999998867,218.13800570898456,218.13854429198545,218.14632999998867,218.14632999998867,218.14632999998867,,219.3550824589911,,,,,,,,,,,,,,,,,,,,,,,,,,,,,,right,0.0,1.2050793339731172,,,,,sub-178,1,random_dot,119.25205111818632,
right,right,35.0,1.0,17.0,left,0.0,1.253809709014604,,speed,space,5.841698165982962,,,,,,0.0,0.0,0.0,1.0,17.0,1.0,35.0,1.0,219.36386499999207,,,,,,,,,219.35550733399575,219.45372220900023,220.2460557919985,220.2377636669844,220.2382925419952,220.2460557919985,220.2460557919985,220.2460557919985,,221.5049553340068,,,,,,,,,,,,,,,,,,,,,,,,,,,,,,left,0.0,1.253809709014604,,,,,sub-178,1,random_dot,119.25205111818632,
right,right,36.0,0.0,18.0,left,0.0,0.9702689579862636,,speed,space,5.841698165982962,,,,,,0.0,0.0,0.0,1.0,18.0,0.0,36.0,1.0,221.51363245898392,,,,,,,,,221.50536979199387,221.6037606250029,222.39546679198972,222.38753312500197,222.3879765419988,222.39546679198972,222.39546679198972,222.39546679198972,,223.37149116699584,,,,,,,,,,,,,,,,,,,,,,,,,,,,,,left,0.0,0.9702689579862636,,,,,sub-178,1,random_dot,119.25205111818632,
left,left,37.0,1.0,18.0,left,1.0,1.3399515000055544,,speed,space,5.841698165982962,,,,,,0.0,0.0,0.0,1.0,18.0,1.0,37.0,0.0,223.38025587500303,,,,,,,,,223.37190050000208,224.57050704199355,225.36339045900968,225.3552480840008,225.35590391699225,225.36339045900968,225.36339045900968,225.36339045900968,,226.70536841699504,,,,,,,,,,,,,,,,,,,,,,,,,,,,,,left,1.0,1.3399515000055544,,,,,sub-178,1,random_dot,119.25205111818632,
left,left,38.0,0.0,19.0,right,0.0,0.8266959580068942,,speed,space,5.841698165982962,,,,,,0.0,0.0,0.0,1.0,19.0,0.0,38.0,0.0,226.7138522499881,,,,,,,,,226.7057789590035,227.50377524999203,228.29674066699224,228.2876402499969,228.2881042920053,228.29674066699224,228.29674066699224,228.29674066699224,,229.1285828749824,,,,,,,,,,,,,,,,,,,,,,,,,,,,,,right,0.0,0.8266959580068942,,,,,sub-178,1,random_dot,119.25205111818632,
right,right,39.0,1.0,19.0,left,0.0,2.086910457990598,,speed,space,5.841698165982962,,,,,,0.0,0.0,0.0,1.0,19.0,1.0,39.0,1.0,229.13661554199643,,,,,,,,,229.12898541698812,229.47656958398875,230.2701648749935,230.2600205419876,230.2605359169829,230.2701648749935,230.2701648749935,230.2701648749935,,232.3622132919845,,,,,,,,,,,,,,,,,,,,,,,,,,,,,,left,0.0,2.086910457990598,,,,,sub-178,1,random_dot,119.25205111818632,
right,right,40.0,0.0,20.0,right,1.0,1.451337791979313,,speed,space,5.841698165982962,,,,,,0.0,0.0,0.0,1.0,20.0,0.0,40.0,1.0,232.3709079170076,,,,,,,,,232.36261983399163,233.16032999998424,233.95233749999895,233.9443729170016,233.94489325000905,233.95233749999895,233.95233749999895,233.95233749999895,,235.40580020900236,,,,,,,,,,,,,,,,,,,,,,,,,,,,,,right,1.0,1.451337791979313,,,,,sub-178,1,random_dot,119.25205111818632,
left,left,41.0,1.0,20.0,left,1.0,2.2021738330076914,,speed,space,5.841698165982962,,,,,,0.0,0.0,0.0,1.0,20.0,1.0,41.0,0.0,235.4145340000105,,,,,,,,,235.40620658398257,236.2039139999833,236.99604475000524,236.9878657500085,236.98832391700125,236.99604475000524,236.99604475000524,236.99604475000524,,239.2056676670036,,,,,,,,,,,,,,,,,,,,,,,,,,,,,,left,1.0,2.2021738330076914,,,,,sub-178,1,random_dot,119.25205111818632,
left,left,42.0,0.0,21.0,right,0.0,0.8243165420135483,,speed,space,5.841698165982962,,,,,,0.0,0.0,0.0,1.0,21.0,0.0,42.0,0.0,239.21441870898707,,,,,,,,,239.20609533399693,239.5539745420101,240.3460079999932,240.33782983399576,240.338295249996,240.3460079999932,240.3460079999932,240.3460079999932,,241.17249595900648,,,,,,,,,,,,,,,,,,,,,,,,,,,,,,right,0.0,0.8243165420135483,,,,,sub-178,1,random_dot,119.25205111818632,
right,right,43.0,1.0,21.0,right,1.0,0.6382318749965634,,speed,space,5.841698165982962,,,,,,0.0,0.0,0.0,1.0,21.0,1.0,43.0,1.0,241.18104441699688,,,,,,,,,241.17290491700987,242.37064283399377,243.1635197919968,243.1550518340082,243.15564437498688,243.1635197919968,243.1635197919968,243.1635197919968,,243.80537016698509,,,,,,,,,,,,,,,,,,,,,,,,,,,,,,right,1.0,0.6382318749965634,,,,,sub-178,1,random_dot,119.25205111818632,
left,left,44.0,0.0,22.0,left,1.0,1.49017916599405,,speed,space,5.841698165982962,,,,,,0.0,0.0,0.0,1.0,22.0,0.0,44.0,0.0,243.81474008399528,,,,,,,,,243.80590337500325,243.90400216699345,244.6970959589817,244.68828195901008,244.6888272920041,244.6970959589817,244.6970959589817,244.6970959589817,,246.1992148339923,,,,,,,,,,,,,,,,,,,,,,,,,,,,,,left,1.0,1.49017916599405,,,,,sub-178,1,random_dot,119.25205111818632,
right,right,45.0,1.0,22.0,right,1.0,0.6124187499808613,,speed,space,5.841698165982962,,,,,,0.0,0.0,0.0,1.0,22.0,1.0,45.0,1.0,246.22030124999583,,,,,,,,,246.19962137500988,247.3942484589934,248.19553433399412,248.1879604999849,248.18841570900983,248.19553433399412,248.19553433399412,248.19553433399412,,248.81226833400436,,,,,,,,,,,,,,,,,,,,,,,,,,,,,,right,1.0,0.6124187499808613,,,,,sub-178,1,random_dot,119.25205111818632,
right,right,46.0,0.0,23.0,right,1.0,1.036186124983942,,speed,space,5.841698165982962,,,,,,0.0,0.0,0.0,1.0,23.0,0.0,46.0,1.0,248.82029262499415,,,,,,,,,248.8126709999924,248.9107093339844,249.71286558400607,249.70474349998403,249.70518866699425,249.71286558400607,249.71286558400607,249.71286558400607,,250.7552790000045,,,,,,,,,,,,,,,,,,,,,,,,,,,,,,right,1.0,1.036186124983942,,,,,sub-178,1,random_dot,119.25205111818632,
left,left,47.0,1.0,23.0,left,1.0,1.482833790971199,,speed,space,5.841698165982962,,,,,,0.0,0.0,0.0,1.0,23.0,1.0,47.0,0.0,250.76400716698845,,,,,,,,,250.75569254200676,250.85403404198587,251.645972667,251.6379381250008,251.63839587499388,251.645972667,251.645972667,251.645972667,,253.1385876249988,,,,,,,,,,,,,,,,,,,,,,,,,,,,,,left,1.0,1.482833790971199,,,,,sub-178,1,random_dot,119.25205111818632,
left,left,48.0,0.0,24.0,left,1.0,0.9278731659869665,,speed,space,5.841698165982962,,,,,,0.0,0.0,0.0,1.0,24.0,0.0,48.0,0.0,253.14698308400693,,,,,,,,,253.13899341700017,253.23718991701023,254.0291516669968,254.02108833400416,254.0215482089843,254.0291516669968,254.0291516669968,254.0291516669968,,254.96232654200867,,,,,,,,,,,,,,,,,,,,,,,,,,,,,,left,1.0,0.9278731659869665,,,,,sub-178,1,random_dot,119.25205111818632,
right,right,49.0,1.0,24.0,right,1.0,0.7544473749876488,,speed,space,5.841698165982962,,,,,,0.0,0.0,0.0,1.0,24.0,1.0,49.0,1.0,254.9707822499913,,,,,,,,,254.9627251669881,255.3102961249824,256.10344874998555,256.09327579199453,256.0937684169912,256.10344874998555,256.10344874998555,256.10344874998555,,256.8621032089868,,,,,,,,,,,,,,,,,,,,,,,,,,,,,,right,1.0,0.7544473749876488,,,,,sub-178,1,random_dot,119.25205111818632,
right,right,50.0,0.0,25.0,right,1.0,1.2255920419993345,,speed,space,5.841698165982962,,,,,,0.0,0.0,0.0,1.0,25.0,0.0,50.0,1.0,256.8704494590056,,,,,,,,,256.8624975839921,258.0596282919869,258.85360037500504,258.84384541699546,258.8443261249922,258.85360037500504,258.85360037500504,258.85360037500504,,260.0887333749852,,,,,,,,,,,,,,,,,,,,,,,,,,,,,,right,1.0,1.2255920419993345,,,,,sub-178,1,random_dot,119.25205111818632,
left,left,51.0,1.0,25.0,left,1.0,0.7609730839903932,,speed,space,5.841698165982962,,,,,,0.0,0.0,0.0,1.0,25.0,1.0,51.0,0.0,260.0974090420059,,,,,,,,,260.0891445839952,260.18747470900416,260.97945966699626,260.9713518339849,260.9718214169843,260.97945966699626,260.97945966699626,260.97945966699626,,261.74546529198415,,,,,,,,,,,,,,,,,,,,,,,,,,,,,,left,1.0,0.7609730839903932,,,,,sub-178,1,random_dot,119.25205111818632,
right,right,52.0,0.0,26.0,right,1.0,1.2070998749986757,,speed,space,5.841698165982962,,,,,,0.0,0.0,0.0,1.0,26.0,0.0,52.0,1.0,261.75362241698895,,,,,,,,,261.7458649589971,262.09378058399307,262.88658950000536,262.8778277089877,262.8784198749927,262.88658950000536,262.88658950000536,262.88658950000536,,264.0960729169892,,,,,,,,,,,,,,,,,,,,,,,,,,,,,,right,1.0,1.2070998749986757,,,,,sub-178,1,random_dot,119.25205111818632,
left,left,53.0,1.0,26.0,right,0.0,1.87587720900774,,speed,space,5.841698165982962,,,,,,0.0,0.0,0.0,1.0,26.0,1.0,53.0,0.0,264.1204916670104,,,,,,,,,264.0964790839935,265.2938567500096,266.0868997919897,266.07676187498146,266.0772437090054,266.0868997919897,266.0868997919897,266.0868997919897,,267.97220533399377,,,,,,,,,,,,,,,,,,,,,,,,,,,,,,right,0.0,1.87587720900774,,,,,sub-178,1,random_dot,119.25205111818632,
right,right,54.0,0.0,27.0,left,0.0,1.2903020840021782,,speed,space,5.841698165982962,,,,,,0.0,0.0,0.0,1.0,27.0,0.0,54.0,1.0,267.9810287919827,,,,,,,,,267.9726134589873,268.77104966700426,269.5633951250056,269.5549147920101,269.55543633399066,269.5633951250056,269.5633951250056,269.5633951250056,,270.85579720899113,,,,,,,,,,,,,,,,,,,,,,,,,,,,,,left,0.0,1.2903020840021782,,,,,sub-178,1,random_dot,119.25205111818632,
left,left,55.0,1.0,27.0,left,1.0,0.9505515829951036,,speed,space,5.841698165982962,,,,,,0.0,0.0,0.0,1.0,27.0,1.0,55.0,0.0,270.86446637500194,,,,,,,,,270.85620354200364,272.0542161669873,272.8463401669869,272.8381609589851,272.8386308339832,272.8463401669869,272.8463401669869,272.8463401669869,,273.80610016698483,,,,,,,,,,,,,,,,,,,,,,,,,,,,,,left,1.0,0.9505515829951036,,,,,sub-178,1,random_dot,119.25205111818632,
right,right,56.0,0.0,28.0,left,0.0,2.542368583002826,,speed,space,5.841698165982962,,,,,,0.0,0.0,0.0,1.0,28.0,0.0,56.0,1.0,273.814944999991,,,,,,,,,273.8066243749927,275.0042592500104,275.79737591699813,275.7884314589901,275.78903304200503,275.79737591699813,275.79737591699813,275.79737591699813,,278.345865374984,,,,,,,,,,,,,,,,,,,,,,,,,,,,,,left,0.0,2.542368583002826,,,,,sub-178,1,random_dot,119.25205111818632,
left,left,57.0,1.0,28.0,right,0.0,1.0961686669907067,,speed,space,5.841698165982962,,,,,,0.0,0.0,0.0,1.0,28.0,1.0,57.0,0.0,278.35405308398185,,,,,,,,,278.3462827919866,279.1442619590089,279.937111584004,279.9281847089878,279.92868341700523,279.937111584004,279.937111584004,279.937111584004,,281.03905745898373,,,,,,,,,,,,,,,,,,,,,,,,,,,,,,right,0.0,1.0961686669907067,,,,,sub-178,1,random_dot,119.25205111818632,
left,left,58.0,0.0,29.0,right,0.0,0.7505301249912009,,speed,space,5.841698165982962,,,,,,0.0,0.0,0.0,1.0,29.0,0.0,58.0,0.0,281.04769133400987,,,,,,,,,281.0394809170102,281.8376111249964,282.6299169170088,282.62173045901,282.62218775000656,282.6299169170088,282.6299169170088,282.6299169170088,,283.388865749992,,,,,,,,,,,,,,,,,,,,,,,,,,,,,,right,0.0,0.7505301249912009,,,,,sub-178,1,random_dot,119.25205111818632,
right,right,59.0,1.0,29.0,right,1.0,1.1588451249990612,,speed,space,5.841698165982962,,,,,,0.0,0.0,0.0,1.0,29.0,1.0,59.0,1.0,283.3980062920018,,,,,,,,,283.3892686670006,283.7376827090048,284.52941304200795,284.5215440419852,284.5220059590065,284.52941304200795,284.52941304200795,284.52941304200795,,285.6985846250027,,,,,,,,,,,,,,,,,,,,,,,,,,,,,,right,1.0,1.1588451249990612,,,,,sub-178,1,random_dot,119.25205111818632,
,,0.0,0.0,0.0,,,,,speed,space,5.841698165982962,,,,,,0.0,0.0,0.0,1.0,,,,,,,,,,,,,,,,,,,,,,,,,,,,,,,,,,,,,,,,,,,,,,,,,,,,,,,,,,,,sub-178,1,random_dot,119.25205111818632,
left,left,0.0,0.0,0.0,right,0.0,8.521434791997308,,accuracy,space,2.5938386670022737,,,,,,0.0,1.0,1.0,0.0,0.0,0.0,0.0,0.0,288.340340166993,,,,,,,,,288.3308326670085,289.5210778749897,290.3134054999973,290.3050524999853,290.30555508399266,290.3134054999973,290.3134054999973,290.3134054999973,295.30409891699674,298.8397544589825,,,,,,,,,,,,,,,,,,,,,,,285.7166154590086,285.72223479198874,285.72223479198874,288.3227403750061,space,2.5938386670022737,,right,0.0,8.521434791997308,,,,,sub-178,1,random_dot,119.25205111818632,
right,right,1.0,1.0,0.0,right,1.0,0.8888655840128195,,accuracy,space,2.5938386670022737,,,,,,0.0,1.0,1.0,0.0,0.0,1.0,1.0,1.0,298.84855429199524,,,,,,,,,298.8401946249942,298.9380159589928,299.7300945839961,299.7218770420004,299.7224339589884,299.7300945839961,299.7300945839961,299.7300945839961,,300.6225411249907,,,,,,,,,,,,,,,,,,,,,,,,,,,,,,right,1.0,0.8888655840128195,,,,,sub-178,1,random_dot,119.25205111818632,
right,right,2.0,0.0,1.0,right,1.0,1.1071805839892477,,accuracy,space,2.5938386670022737,,,,,,0.0,1.0,1.0,0.0,1.0,0.0,2.0,1.0,300.63120387500385,,,,,,,,,300.62295120899216,300.7205613749975,301.5134036669915,301.5050340000016,301.5054997089901,301.5134036669915,301.5134036669915,301.5134036669915,,302.62272387498524,,,,,,,,,,,,,,,,,,,,,,,,,,,,,,right,1.0,1.1071805839892477,,,,,sub-178,1,random_dot,119.25205111818632,
left,left,3.0,1.0,1.0,left,1.0,1.5750396249932237,,accuracy,space,2.5938386670022737,,,,,,0.0,1.0,1.0,0.0,1.0,1.0,3.0,0.0,302.63130058400566,,,,,,,,,302.6231429170002,302.9711590420048,303.7629129999841,303.75510566699086,303.7555590420088,303.7629129999841,303.7629129999841,303.7629129999841,,305.3497563340061,,,,,,,,,,,,,,,,,,,,,,,,,,,,,,left,1.0,1.5750396249932237,,,,,sub-178,1,random_dot,119.25205111818632,
left,left,4.0,0.0,2.0,right,0.0,4.293882958008908,,accuracy,space,2.5938386670022737,,,,,,0.0,1.0,1.0,0.0,2.0,0.0,4.0,0.0,305.3708231250057,,,,,,,,,305.35015866698814,305.6947069169837,306.48639591698884,306.47836212499533,306.47885379201034,306.48639591698884,306.48639591698884,306.48639591698884,,310.7890934589959,,,,,,,,,,,,,,,,,,,,,,,,,,,,,,right,0.0,4.293882958008908,,,,,sub-178,1,random_dot,119.25205111818632,
right,right,5.0,1.0,2.0,right,1.0,0.8008658750040922,,accuracy,space,2.5938386670022737,,,,,,0.0,1.0,1.0,0.0,2.0,1.0,5.0,1.0,310.79771158398944,,,,,,,,,310.7895111249818,311.9878221669933,312.78012066698284,312.7719949169841,312.7724579999922,312.78012066698284,312.78012066698284,312.78012066698284,,313.5891921669827,,,,,,,,,,,,,,,,,,,,,,,,,,,,,,right,1.0,0.8008658750040922,,,,,sub-178,1,random_dot,119.25205111818632,
right,right,6.0,0.0,3.0,left,0.0,0.8194145410088822,,accuracy,space,2.5938386670022737,,,,,,0.0,1.0,1.0,0.0,3.0,0.0,6.0,1.0,313.5976663749898,,,,,,,,,313.58959283400327,314.3880188339972,315.18049383399193,315.1719724169816,315.17251549998764,315.18049383399193,315.18049383399193,315.18049383399193,,316.0064535420097,,,,,,,,,,,,,,,,,,,,,,,,,,,,,,left,0.0,0.8194145410088822,,,,,sub-178,1,random_dot,119.25205111818632,
left,left,7.0,1.0,3.0,left,1.0,2.883663417014759,,accuracy,space,2.5938386670022737,,,,,,0.0,1.0,1.0,0.0,3.0,1.0,7.0,0.0,316.01551870899857,,,,,,,,,316.0068794589897,316.3543363749923,317.14654854199034,317.1385150419956,317.1389743750042,317.14654854199034,317.14654854199034,317.14654854199034,,320.03945966699393,,,,,,,,,,,,,,,,,,,,,,,,,,,,,,left,1.0,2.883663417014759,,,,,sub-178,1,random_dot,119.25205111818632,
left,left,8.0,0.0,4.0,right,0.0,3.531080874992768,,accuracy,space,2.5938386670022737,,,,,,0.0,1.0,1.0,0.0,4.0,0.0,8.0,0.0,320.0481237919885,,,,,,,,,320.03986383398296,320.8380535419856,321.6300604999997,321.6219931670057,321.6224621250003,321.6300604999997,321.6300604999997,321.6300604999997,,325.16352058399934,,,,,,,,,,,,,,,,,,,,,,,,,,,,,,right,0.0,3.531080874992768,,,,,sub-178,1,random_dot,119.25205111818632,
right,right,9.0,1.0,4.0,left,0.0,2.33068824998918,,accuracy,space,2.5938386670022737,,,,,,0.0,1.0,1.0,0.0,4.0,1.0,9.0,1.0,325.172524499998,,,,,,,,,325.16395833398565,325.9611592089932,326.7540907500079,326.7447452089982,326.74519812499057,326.7540907500079,326.7540907500079,326.7540907500079,,329.0894771250023,,,,,,,,,,,,,,,,,,,,,,,,,,,,,,left,0.0,2.33068824998918,,,,,sub-178,1,random_dot,119.25205111818632,
right,right,10.0,0.0,5.0,right,1.0,1.0176652910013215,,accuracy,space,2.5938386670022737,,,,,,0.0,1.0,1.0,0.0,5.0,0.0,10.0,1.0,329.0980891250074,,,,,,,,,329.0898795420071,330.2881922500092,331.0803955839947,331.0721071669832,331.0725660419848,331.0803955839947,331.0803955839947,331.0803955839947,,332.1059163750033,,,,,,,,,,,,,,,,,,,,,,,,,,,,,,right,1.0,1.0176652910013215,,,,,sub-178,1,random_dot,119.25205111818632,
left,left,11.0,1.0,5.0,left,1.0,1.2832899169879963,,accuracy,space,2.5938386670022737,,,,,,0.0,1.0,1.0,0.0,5.0,1.0,11.0,0.0,332.1144722919853,,,,,,,,,332.1063108340022,332.9048087919946,333.6964156249888,333.68860745898564,333.6890682920057,333.6964156249888,333.6964156249888,333.6964156249888,,334.9893310839834,,,,,,,,,,,,,,,,,,,,,,,,,,,,,,left,1.0,1.2832899169879963,,,,,sub-178,1,random_dot,119.25205111818632,
left,left,12.0,0.0,6.0,right,0.0,2.529168958979426,,accuracy,space,2.5938386670022737,,,,,,0.0,1.0,1.0,0.0,6.0,0.0,12.0,0.0,334.99816474999534,,,,,,,,,334.9897303339967,335.0881680419843,335.8801812090096,335.8720893749851,335.87256520899246,335.8801812090096,335.8801812090096,335.8801812090096,,338.4134997089859,,,,,,,,,,,,,,,,,,,,,,,,,,,,,,right,0.0,2.529168958979426,,,,,sub-178,1,random_dot,119.25205111818632,
right,right,13.0,1.0,6.0,right,1.0,2.5952639580063988,,accuracy,space,2.5938386670022737,,,,,,0.0,1.0,1.0,0.0,6.0,1.0,13.0,1.0,338.4378128339886,,,,,,,,,338.4138932499918,339.2117217089981,340.0142868749972,340.00592308398336,340.00645266700303,340.0142868749972,340.0142868749972,340.0142868749972,,342.61320970900124,,,,,,,,,,,,,,,,,,,,,,,,,,,,,,right,1.0,2.5952639580063988,,,,,sub-178,1,random_dot,119.25205111818632,
right,right,14.0,0.0,7.0,left,0.0,0.8128187080146745,,accuracy,space,2.5938386670022737,,,,,,0.0,1.0,1.0,0.0,7.0,0.0,14.0,1.0,342.6218625000038,,,,,,,,,342.613608249987,343.41072970899404,344.2038384169864,344.19557700000587,344.1960457089881,344.2038384169864,344.2038384169864,344.2038384169864,,345.02274979199865,,,,,,,,,,,,,,,,,,,,,,,,,,,,,,left,0.0,0.8128187080146745,,,,,sub-178,1,random_dot,119.25205111818632,
left,left,15.0,1.0,7.0,left,1.0,1.7664737080049235,,accuracy,space,2.5938386670022737,,,,,,0.0,1.0,1.0,0.0,7.0,1.0,15.0,0.0,345.0313388750073,,,,,,,,,345.0231568340096,345.371325916989,346.1636767500022,346.1556277089985,346.1560927919927,346.1636767500022,346.1636767500022,346.1636767500022,,347.9396745839913,,,,,,,,,,,,,,,,,,,,,,,,,,,,,,left,1.0,1.7664737080049235,,,,,sub-178,1,random_dot,119.25205111818632,
left,left,16.0,0.0,8.0,right,0.0,1.3591153330053205,,accuracy,space,2.5938386670022737,,,,,,0.0,1.0,1.0,0.0,8.0,0.0,16.0,0.0,347.94830474999617,,,,,,,,,347.94008279198897,348.28802120900946,349.0809842089948,349.0721543749969,349.0726128749957,349.0809842089948,349.0809842089948,349.0809842089948,,350.4463410419994,,,,,,,,,,,,,,,,,,,,,,,,,,,,,,right,0.0,1.3591153330053205,,,,,sub-178,1,random_dot,119.25205111818632,
right,right,17.0,1.0,8.0,left,0.0,2.7380820419930387,,accuracy,space,2.5938386670022737,,,,,,0.0,1.0,1.0,0.0,8.0,1.0,17.0,1.0,350.4544301670103,,,,,,,,,350.4467338749964,351.24463770899456,352.04771308400086,352.03914775000885,352.0397749170079,352.04771308400086,352.04771308400086,352.04771308400086,,354.78951195901027,,,,,,,,,,,,,,,,,,,,,,,,,,,,,,left,0.0,2.7380820419930387,,,,,sub-178,1,random_dot,119.25205111818632,
right,right,18.0,0.0,9.0,right,1.0,0.90327479201369,,accuracy,space,2.5938386670022737,,,,,,0.0,1.0,1.0,0.0,9.0,0.0,18.0,1.0,354.7981689590088,,,,,,,,,354.78990475001046,355.1381510839856,355.93003541699727,355.92215316699003,355.9225910840032,355.93003541699727,355.93003541699727,355.93003541699727,,356.83934754200163,,,,,,,,,,,,,,,,,,,,,,,,,,,,,,right,1.0,0.90327479201369,,,,,sub-178,1,random_dot,119.25205111818632,
left,left,19.0,1.0,9.0,left,1.0,1.2715550419816282,,accuracy,space,2.5938386670022737,,,,,,0.0,1.0,1.0,0.0,9.0,1.0,19.0,0.0,356.8479449999868,,,,,,,,,356.8397609590029,357.1884837920079,357.98031116698985,357.9724642499932,357.9729304169887,357.98031116698985,357.98031116698985,357.98031116698985,,359.256270791986,,,,,,,,,,,,,,,,,,,,,,,,,,,,,,left,1.0,1.2715550419816282,,,,,sub-178,1,random_dot,119.25205111818632,
right,right,20.0,0.0,10.0,left,0.0,0.663136334012961,,accuracy,space,2.5938386670022737,,,,,,0.0,1.0,1.0,0.0,10.0,0.0,20.0,1.0,359.2647066669888,,,,,,,,,359.25667083400185,360.0550698750012,360.8476944589929,360.8392698749958,360.83980225000414,360.8476944589929,360.8476944589929,360.8476944589929,,361.5138684590056,,,,,,,,,,,,,,,,,,,,,,,,,,,,,,left,0.0,0.663136334012961,,,,,sub-178,1,random_dot,119.25205111818632,
left,left,21.0,1.0,10.0,right,0.0,0.7512162079801783,,accuracy,space,2.5938386670022737,,,,,,0.0,1.0,1.0,0.0,10.0,1.0,21.0,0.0,361.5380605419923,,,,,,,,,361.5142547090072,361.6115275000048,362.40361137498985,362.395512499992,362.396019250009,362.40361137498985,362.40361137498985,362.40361137498985,,363.1569644589909,,,,,,,,,,,,,,,,,,,,,,,,,,,,,,right,0.0,0.7512162079801783,,,,,sub-178,1,random_dot,119.25205111818632,
right,right,22.0,0.0,11.0,right,1.0,4.182184790988686,,accuracy,space,2.5938386670022737,,,,,,0.0,1.0,1.0,0.0,11.0,0.0,22.0,1.0,363.165128749999,,,,,,,,,363.1573693749961,363.255035292008,364.04708720900817,364.0390170839965,364.03947862499626,364.04708720900817,364.04708720900817,364.04708720900817,,368.239991459006,,,,,,,,,,,,,,,,,,,,,,,,,,,,,,right,1.0,4.182184790988686,,,,,sub-178,1,random_dot,119.25205111818632,
left,left,23.0,1.0,11.0,left,1.0,0.697753415995976,,accuracy,space,2.5938386670022737,,,,,,0.0,1.0,1.0,0.0,11.0,1.0,23.0,0.0,368.2457145419903,,,,,,,,,368.24039412499405,368.58870362499147,369.3803140420059,369.3723218340019,369.3727810840064,369.3803140420059,369.3803140420059,369.3803140420059,,370.08035879200906,,,,,,,,,,,,,,,,,,,,,,,,,,,,,,left,1.0,0.697753415995976,,,,,sub-178,1,random_dot,119.25205111818632,
right,right,24.0,0.0,12.0,right,1.0,1.224308667005971,,accuracy,space,2.5938386670022737,,,,,,0.0,1.0,1.0,0.0,12.0,0.0,24.0,1.0,370.10485000000335,,,,,,,,,370.0807531249884,370.8783774169861,371.6805487920065,371.67237108398695,371.6728445419867,371.6805487920065,371.6805487920065,371.6805487920065,,372.9070565839938,,,,,,,,,,,,,,,,,,,,,,,,,,,,,,right,1.0,1.224308667005971,,,,,sub-178,1,random_dot,119.25205111818632,
left,left,25.0,1.0,12.0,right,0.0,0.9447993339854291,,accuracy,space,2.5938386670022737,,,,,,0.0,1.0,1.0,0.0,12.0,1.0,25.0,0.0,372.9158227090084,,,,,,,,,372.9075377089903,373.0053147499857,373.7974121669831,373.7892029589857,373.78973587500514,373.7974121669831,373.7974121669831,373.7974121669831,,374.74695670898654,,,,,,,,,,,,,,,,,,,,,,,,,,,,,,right,0.0,0.9447993339854291,,,,,sub-178,1,random_dot,119.25205111818632,
left,left,26.0,0.0,13.0,right,0.0,1.0009750000026545,,accuracy,space,2.5938386670022737,,,,,,0.0,1.0,1.0,0.0,13.0,0.0,26.0,0.0,374.7714713749883,,,,,,,,,374.7473575839831,375.5449608339986,376.3471358339884,376.3390937089862,376.3395567089901,376.3471358339884,376.3471358339884,376.3471358339884,,377.356512458995,,,,,,,,,,,,,,,,,,,,,,,,,,,,,,right,0.0,1.0009750000026545,,,,,sub-178,1,random_dot,119.25205111818632,
right,right,27.0,1.0,13.0,right,1.0,2.6022834169853013,,accuracy,space,2.5938386670022737,,,,,,0.0,1.0,1.0,0.0,13.0,1.0,27.0,1.0,377.3648575420084,,,,,,,,,377.3569205839885,377.4551947499858,378.2472410000046,378.2391405839881,378.2396050840034,378.2472410000046,378.2472410000046,378.2472410000046,,380.85635041698697,,,,,,,,,,,,,,,,,,,,,,,,,,,,,,right,1.0,2.6022834169853013,,,,,sub-178,1,random_dot,119.25205111818632,
left,left,28.0,0.0,14.0,right,0.0,0.6621811249933671,,accuracy,space,2.5938386670022737,,,,,,0.0,1.0,1.0,0.0,14.0,0.0,28.0,0.0,380.8648309999844,,,,,,,,,380.85675112498575,382.0552556249895,382.84725483399234,382.8390944169951,382.8396280419838,382.84725483399234,382.84725483399234,382.84725483399234,,383.5134953339875,,,,,,,,,,,,,,,,,,,,,,,,,,,,,,right,0.0,0.6621811249933671,,,,,sub-178,1,random_dot,119.25205111818632,
right,right,29.0,1.0,14.0,right,1.0,1.0027464590093589,,accuracy,space,2.5938386670022737,,,,,,0.0,1.0,1.0,0.0,14.0,1.0,29.0,1.0,383.5215454589925,,,,,,,,,383.5138823339949,383.6116316249827,384.4046608339995,384.3945399590011,384.3949906250055,384.4046608339995,384.4046608339995,384.4046608339995,,385.4133894999977,,,,,,,,,,,,,,,,,,,,,,,,,,,,,,right,1.0,1.0027464590093589,,,,,sub-178,1,random_dot,119.25205111818632,
right,right,30.0,0.0,15.0,right,1.0,0.7570891249924898,,accuracy,space,2.5938386670022737,,,,,,0.0,1.0,1.0,0.0,15.0,0.0,30.0,1.0,385.4222796669928,,,,,,,,,385.4137807920051,386.6117805000104,387.4048121249944,387.39553962499485,387.3960063749983,387.4048121249944,387.4048121249944,387.4048121249944,,388.1641872919863,,,,,,,,,,,,,,,,,,,,,,,,,,,,,,right,1.0,0.7570891249924898,,,,,sub-178,1,random_dot,119.25205111818632,
left,left,31.0,1.0,15.0,left,1.0,0.6463246250059456,,accuracy,space,2.5938386670022737,,,,,,0.0,1.0,1.0,0.0,15.0,1.0,31.0,0.0,388.1882685419987,,,,,,,,,388.16458320899983,388.2615481250105,389.0547044999839,389.04520466699614,389.0456889169873,389.0547044999839,389.0547044999839,389.0547044999839,,389.7065717089863,,,,,,,,,,,,,,,,,,,,,,,,,,,,,,left,1.0,0.6463246250059456,,,,,sub-178,1,random_dot,119.25205111818632,
right,right,32.0,0.0,16.0,right,1.0,0.8512968329887372,,accuracy,space,2.5938386670022737,,,,,,0.0,1.0,1.0,0.0,16.0,0.0,32.0,1.0,389.7150228339888,,,,,,,,,389.7069815419964,390.90553499999805,391.6972985839821,391.68935937498463,391.68981166699086,391.6972985839821,391.6972985839821,391.6972985839821,,392.5566123749886,,,,,,,,,,,,,,,,,,,,,,,,,,,,,,right,1.0,0.8512968329887372,,,,,sub-178,1,random_dot,119.25205111818632,
left,left,33.0,1.0,16.0,left,1.0,0.5718694580136798,,accuracy,space,2.5938386670022737,,,,,,0.0,1.0,1.0,0.0,16.0,1.0,33.0,0.0,392.5650435840071,,,,,,,,,392.5570123750076,393.3551673750044,394.1467764170084,394.1390226249932,394.1394982920028,394.1467764170084,394.1467764170084,394.1467764170084,,394.7231785839831,,,,,,,,,,,,,,,,,,,,,,,,,,,,,,left,1.0,0.5718694580136798,,,,,sub-178,1,random_dot,119.25205111818632,
left,left,34.0,0.0,17.0,right,0.0,0.6653931670007296,,accuracy,space,2.5938386670022737,,,,,,0.0,1.0,1.0,0.0,17.0,0.0,34.0,0.0,394.7314966249978,,,,,,,,,394.7235950839822,395.92210308398353,396.71430116699776,396.7061392919859,396.7066880420025,396.71430116699776,396.71430116699776,396.71430116699776,,397.3899993750092,,,,,,,,,,,,,,,,,,,,,,,,,,,,,,right,0.0,0.6653931670007296,,,,,sub-178,1,random_dot,119.25205111818632,
right,right,35.0,1.0,17.0,left,0.0,0.6071340830239933,,accuracy,space,2.5938386670022737,,,,,,0.0,1.0,1.0,0.0,17.0,1.0,35.0,1.0,397.3952601249912,,,,,,,,,397.39042174999486,397.7386307090055,398.5319844589976,398.5227605419932,398.52322445900063,398.5319844589976,398.5319844589976,398.5319844589976,,399.1503045420104,,,,,,,,,,,,,,,,,,,,,,,,,,,,,,left,0.0,0.6071340830239933,,,,,sub-178,1,random_dot,119.25205111818632,
right,right,36.0,0.0,18.0,right,1.0,0.7479810419899877,,accuracy,space,2.5938386670022737,,,,,,0.0,1.0,1.0,0.0,18.0,0.0,36.0,1.0,399.1717307920044,,,,,,,,,399.1507030839857,399.945314209006,400.7472343749832,400.7392271249846,400.7396956250013,400.7472343749832,400.7472343749832,400.7472343749832,,401.4974563340074,,,,,,,,,,,,,,,,,,,,,,,,,,,,,,right,1.0,0.7479810419899877,,,,,sub-178,1,random_dot,119.25205111818632,
left,left,37.0,1.0,18.0,left,1.0,1.001169208000647,,accuracy,space,2.5938386670022737,,,,,,0.0,1.0,1.0,0.0,18.0,1.0,37.0,0.0,401.521772542008,,,,,,,,,401.4978565420024,402.69424862499,403.4881402089959,403.4777847499936,403.4782689999847,403.4881402089959,403.4881402089959,403.4881402089959,,404.4999456249934,,,,,,,,,,,,,,,,,,,,,,,,,,,,,,left,1.0,1.001169208000647,,,,,sub-178,1,random_dot,119.25205111818632,
left,left,38.0,0.0,19.0,right,0.0,0.8680514169973321,,accuracy,space,2.5938386670022737,,,,,,0.0,1.0,1.0,0.0,19.0,0.0,38.0,0.0,404.52181199999177,,,,,,,,,404.5003397499968,404.5935342919838,405.388361749996,405.3777846669837,405.37816637498327,405.388361749996,405.388361749996,405.388361749996,,406.2635021669848,,,,,,,,,,,,,,,,,,,,,,,,,,,,,,right,0.0,0.8680514169973321,,,,,sub-178,1,random_dot,119.25205111818632,
right,right,39.0,1.0,19.0,left,0.0,4.836730334005551,,accuracy,space,2.5938386670022737,,,,,,0.0,1.0,1.0,0.0,19.0,1.0,39.0,1.0,406.2718267090095,,,,,,,,,406.26389370899415,407.0615645420039,407.8548318340036,407.84611024998594,407.8465785839944,407.8548318340036,407.8548318340036,407.8548318340036,,412.6962123749836,,,,,,,,,,,,,,,,,,,,,,,,,,,,,,left,0.0,4.836730334005551,,,,,sub-178,1,random_dot,119.25205111818632,
right,right,40.0,0.0,20.0,right,1.0,0.993679000006523,,accuracy,space,2.5938386670022737,,,,,,0.0,1.0,1.0,0.0,20.0,0.0,40.0,1.0,412.7046965420013,,,,,,,,,412.69661920898943,413.89561291699647,414.6986996670021,414.6898806669924,414.6904183749866,414.6986996670021,414.6986996670021,414.6986996670021,,415.6971342499892,,,,,,,,,,,,,,,,,,,,,,,,,,,,,,right,1.0,0.993679000006523,,,,,sub-178,1,random_dot,119.25205111818632,
left,left,41.0,1.0,20.0,right,0.0,1.4615869169938378,,accuracy,space,2.5938386670022737,,,,,,0.0,1.0,1.0,0.0,20.0,1.0,41.0,0.0,415.705220333999,,,,,,,,,415.6975282919884,415.7961660840083,416.597556208988,416.5895231250033,416.5899909999862,416.597556208988,416.597556208988,416.597556208988,,418.0637843339937,,,,,,,,,,,,,,,,,,,,,,,,,,,,,,right,0.0,1.4615869169938378,,,,,sub-178,1,random_dot,119.25205111818632,
right,right,42.0,0.0,21.0,left,0.0,0.7438647499948274,,accuracy,space,2.5938386670022737,,,,,,0.0,1.0,1.0,0.0,21.0,0.0,42.0,1.0,418.0726074170088,,,,,,,,,418.0641769169888,418.4120372920006,419.20409029198345,419.1959496669879,419.1964214170002,419.20409029198345,419.20409029198345,419.20409029198345,,419.9566998750088,,,,,,,,,,,,,,,,,,,,,,,,,,,,,,left,0.0,0.7438647499948274,,,,,sub-178,1,random_dot,119.25205111818632,
left,left,43.0,1.0,21.0,left,1.0,1.6829438339918852,,accuracy,space,2.5938386670022737,,,,,,0.0,1.0,1.0,0.0,21.0,1.0,43.0,0.0,419.9651984999946,,,,,,,,,419.9571065419877,420.0555638750084,420.84843562499736,420.8398350839853,420.8403665419901,420.84843562499736,420.84843562499736,420.84843562499736,,422.5402484590013,,,,,,,,,,,,,,,,,,,,,,,,,,,,,,left,1.0,1.6829438339918852,,,,,sub-178,1,random_dot,119.25205111818632,
right,right,44.0,0.0,22.0,right,1.0,0.7471032080065925,,accuracy,space,2.5938386670022737,,,,,,0.0,1.0,1.0,0.0,22.0,0.0,44.0,1.0,422.5488354169938,,,,,,,,,422.54065512499074,423.73912904199096,424.5310369170038,424.52285329200095,424.5233374169911,424.5310369170038,424.5310369170038,424.5310369170038,,425.28143141701,,,,,,,,,,,,,,,,,,,,,,,,,,,,,,right,1.0,0.7471032080065925,,,,,sub-178,1,random_dot,119.25205111818632,
left,left,45.0,1.0,22.0,right,0.0,3.184096999990288,,accuracy,space,2.5938386670022737,,,,,,0.0,1.0,1.0,0.0,22.0,1.0,45.0,0.0,425.3052835839917,,,,,,,,,425.2818191249971,425.6277682500077,426.4217443339876,426.4115653339832,426.4120486669999,426.4217443339876,426.4217443339876,426.4217443339876,,429.6177415419952,,,,,,,,,,,,,,,,,,,,,,,,,,,,,,right,0.0,3.184096999990288,,,,,sub-178,1,random_dot,119.25205111818632,
left,left,46.0,0.0,23.0,left,1.0,2.485382790997392,,accuracy,space,2.5938386670022737,,,,,,0.0,1.0,1.0,0.0,23.0,0.0,46.0,0.0,429.623754041997,,,,,,,,,429.6181505419954,429.9620703749824,430.7645490840077,430.75645533399074,430.7568942089856,430.7645490840077,430.7645490840077,430.7645490840077,,433.25693812500685,,,,,,,,,,,,,,,,,,,,,,,,,,,,,,left,1.0,2.485382790997392,,,,,sub-178,1,random_dot,119.25205111818632,
right,right,47.0,1.0,23.0,left,0.0,2.12143324999488,,accuracy,space,2.5938386670022737,,,,,,0.0,1.0,1.0,0.0,23.0,1.0,47.0,1.0,433.2657020839979,,,,,,,,,433.2573418339889,434.0555897919985,434.8482253749971,434.8398517500027,434.84032945899526,434.8482253749971,434.8482253749971,434.8482253749971,,436.9736775839992,,,,,,,,,,,,,,,,,,,,,,,,,,,,,,left,0.0,2.12143324999488,,,,,sub-178,1,random_dot,119.25205111818632,
right,right,48.0,0.0,24.0,right,1.0,1.357585916004609,,accuracy,space,2.5938386670022737,,,,,,0.0,1.0,1.0,0.0,24.0,0.0,48.0,1.0,436.98253783400287,,,,,,,,,436.9740825839981,438.1724982919986,438.9643218340061,438.9563215840026,438.95678254199447,438.9643218340061,438.9643218340061,438.9643218340061,,440.323993041995,,,,,,,,,,,,,,,,,,,,,,,,,,,,,,right,1.0,1.357585916004609,,,,,sub-178,1,random_dot,119.25205111818632,
left,left,49.0,1.0,24.0,right,0.0,2.261488290998386,,accuracy,space,2.5938386670022737,,,,,,0.0,1.0,1.0,0.0,24.0,1.0,49.0,0.0,440.3325304999889,,,,,,,,,440.32439737499226,440.6721053340007,441.4643544169958,441.4563264169847,441.45677550000255,441.4643544169958,441.4643544169958,441.4643544169958,,443.730608791986,,,,,,,,,,,,,,,,,,,,,,,,,,,,,,right,0.0,2.261488290998386,,,,,sub-178,1,random_dot,119.25205111818632,
left,left,50.0,0.0,25.0,right,0.0,5.417548875004286,,accuracy,space,2.5938386670022737,,,,,,0.0,1.0,1.0,0.0,25.0,0.0,50.0,0.0,443.7394376249868,,,,,,,,,443.7310043339967,444.9283237500058,445.72198066700366,445.7125709590037,445.7130609169835,445.72198066700366,445.72198066700366,445.72198066700366,450.70563466698513,451.1517690839828,,,,,,,,,,,,,,,,,,,,,,,,,,,,,,right,0.0,5.417548875004286,,,,,sub-178,1,random_dot,119.25205111818632,
right,right,51.0,1.0,25.0,right,1.0,1.5374086250085384,,accuracy,space,2.5938386670022737,,,,,,0.0,1.0,1.0,0.0,25.0,1.0,51.0,1.0,451.1570453750028,,,,,,,,,451.1521809590049,451.49568737499067,452.2877240419912,452.2797908339999,452.2802576670074,452.2877240419912,452.2877240419912,452.2877240419912,,453.83072174998233,,,,,,,,,,,,,,,,,,,,,,,,,,,,,,right,1.0,1.5374086250085384,,,,,sub-178,1,random_dot,119.25205111818632,
right,right,52.0,0.0,26.0,left,0.0,4.158533749985509,,accuracy,space,2.5938386670022737,,,,,,0.0,1.0,1.0,0.0,26.0,0.0,52.0,1.0,453.83945908400347,,,,,,,,,453.8311102500011,454.1788376249897,454.9721357499948,454.9629554999992,454.9634637089912,454.9721357499948,454.9721357499948,454.9721357499948,,459.1405612090021,,,,,,,,,,,,,,,,,,,,,,,,,,,,,,left,0.0,4.158533749985509,,,,,sub-178,1,random_dot,119.25205111818632,
left,left,53.0,1.0,26.0,right,0.0,5.749850291991606,,accuracy,space,2.5938386670022737,,,,,,0.0,1.0,1.0,0.0,26.0,1.0,53.0,0.0,459.14917791698826,,,,,,,,,459.1409764169948,460.33920854199096,461.1315140000079,461.1233008749841,461.1238434999832,461.1315140000079,461.1315140000079,461.1315140000079,466.1226292499923,466.8910662499839,,,,,,,,,,,,,,,,,,,,,,,,,,,,,,right,0.0,5.749850291991606,,,,,sub-178,1,random_dot,119.25205111818632,
left,left,54.0,0.0,27.0,left,1.0,1.781572417006828,,accuracy,space,2.5938386670022737,,,,,,0.0,1.0,1.0,0.0,27.0,0.0,54.0,0.0,466.8999556670024,,,,,,,,,466.8915927920025,467.6894478339818,468.4810679999937,468.4731708749896,468.4736497919948,468.4810679999937,468.4810679999937,468.4810679999937,,470.2648477089824,,,,,,,,,,,,,,,,,,,,,,,,,,,,,,left,1.0,1.781572417006828,,,,,sub-178,1,random_dot,119.25205111818632,
right,right,55.0,1.0,27.0,right,1.0,1.3441972919972611,,accuracy,space,2.5938386670022737,,,,,,0.0,1.0,1.0,0.0,27.0,1.0,55.0,1.0,470.2890803749906,,,,,,,,,470.26525241698255,471.4624963339884,472.2644201249932,472.256595334009,472.25704379199306,472.2644201249932,472.2644201249932,472.2644201249932,,473.6142464999866,,,,,,,,,,,,,,,,,,,,,,,,,,,,,,right,1.0,1.3441972919972611,,,,,sub-178,1,random_dot,119.25205111818632,
left,left,56.0,0.0,28.0,left,1.0,3.498464792006416,,accuracy,space,2.5938386670022737,,,,,,0.0,1.0,1.0,0.0,28.0,0.0,56.0,0.0,473.62230262500816,,,,,,,,,473.6146385000029,474.41172837500926,475.2048334169958,475.1966042499989,475.19709595898166,475.2048334169958,475.2048334169958,475.2048334169958,,478.7076493339846,,,,,,,,,,,,,,,,,,,,,,,,,,,,,,left,1.0,3.498464792006416,,,,,sub-178,1,random_dot,119.25205111818632,
right,right,57.0,1.0,28.0,left,0.0,1.3847787079866976,,accuracy,space,2.5938386670022737,,,,,,0.0,1.0,1.0,0.0,28.0,1.0,57.0,1.0,478.7166251250019,,,,,,,,,478.708140792005,479.90615958400303,480.6984404999821,480.69022349998704,480.6906905419892,480.6984404999821,480.6984404999821,480.6984404999821,,482.0907777920074,,,,,,,,,,,,,,,,,,,,,,,,,,,,,,left,0.0,1.3847787079866976,,,,,sub-178,1,random_dot,119.25205111818632,
left,left,58.0,0.0,29.0,right,0.0,2.4740747500036377,,accuracy,space,2.5938386670022737,,,,,,0.0,1.0,1.0,0.0,29.0,0.0,58.0,0.0,482.0994157920068,,,,,,,,,482.0911814589927,482.4394562499947,483.23150712499046,483.2236147919903,483.2240602090024,483.23150712499046,483.23150712499046,483.23150712499046,,485.7077098340087,,,,,,,,,,,,,,,,,,,,,,,,,,,,,,right,0.0,2.4740747500036377,,,,,sub-178,1,random_dot,119.25205111818632,
right,right,59.0,1.0,29.0,right,1.0,5.932913708005799,,accuracy,space,2.5938386670022737,,,,,,0.0,1.0,1.0,0.0,29.0,1.0,59.0,1.0,485.7164368339873,,,,,,,,,485.7081308339839,486.90635266699246,487.6983962089871,487.6901016669872,487.6905604169879,487.6983962089871,487.6983962089871,487.6983962089871,492.68945474998327,493.6424042919825,,,,,,,,,,,,,,,,,,,,,,,,,,,,,,right,1.0,5.932913708005799,,,,,sub-178,1,random_dot,119.25205111818632,
,,1.0,1.0,0.0,,,,,accuracy,space,2.5938386670022737,,,,,,0.0,1.0,1.0,0.0,,,,,,,,,,,,,,,,,,,,,,,,,,,,,,,,,,,,,,,,,,,,,,,,,,,,,,,,,,,,sub-178,1,random_dot,119.25205111818632,
,,,,,,,,,,,,,,,,,,,,,,,,,,,,,,,,,,,,,,,,,,,,,,,,,,,,,,,,,,,,,,,,,,,,,,,,,,,,,493.6493600000104,493.6597425839864,498.6449663749954,sub-178,1,random_dot,119.25205111818632,
