direction,corrAns,thisN,thisTrialN,thisRepN,respDots.keys,respDots.corr,respDots.rt,respDots.duration,randomInstr,respRandomInstr.keys,respRandomInstr.rt,respRandomInstr.duration,practice_trials.thisRepN,practice_trials.thisTrialN,practice_trials.thisN,practice_trials.thisIndex,instr_trials.thisRepN,instr_trials.thisTrialN,instr_trials.thisN,instr_trials.thisIndex,test_trials.thisRepN,test_trials.thisTrialN,test_trials.thisN,test_trials.thisIndex,thisRow.t,notes,general_instruction.started,textGeneralInstr.started,respGeneralInstr.started,general_instruction.stopped,respGeneralInstr.keys,respGeneralInstr.rt,respGeneralInstr.duration,ITI.started,fixcross.started,fixcross.stopped,ITI.stopped,dots.started,backgroundDots.started,stimulusDots.started,respDots.started,stimulusDots.stopped,dots.stopped,practice_trials.respDots.keys,practice_trials.respDots.corr,practice_trials.respDots.rt,practice_trials.respDots.duration,feedback.started,textFeedback.started,feedback.stopped,textFeedback.stopped,info.started,textInfo.started,keyRespInfo.started,info.stopped,keyRespInfo.keys,keyRespInfo.rt,keyRespInfo.duration,test_instruction.started,textTestInstr.started,respTestInstr.started,test_instruction.stopped,respTestInstr.keys,respTestInstr.rt,respTestInstr.duration,random_instruction.started,textRandomInstr.started,respRandomInstr.started,random_instruction.stopped,instr_trials.respRandomInstr.keys,instr_trials.respRandomInstr.rt,instr_trials.respRandomInstr.duration,test_trials.respDots.keys,test_trials.respDots.corr,test_trials.respDots.rt,test_trials.respDots.duration,goodbye.started,textGoodbye.started,goodbye.stopped,participant,session,expName,frameRate,Unnamed: 87
,,,,,,,,,,,,,,,,,,,,,,,,,,,0.008724750005058,0.0165280420042108,0.0165280420042108,61.98638483400282,space,61.82386433301144,,,,,,,,,,,,,,,,,,,,,,,,,,,,,,,,,,,,,,,,,,,,,,,,sub-122,1,random_dot,,
left,left,0.0,0.0,0.0,left,1.0,40.06407637499797,,,,,,0.0,0.0,0.0,0.0,,,,,,,,,62.01357208400441,,,,,,,,,62.00387487500848,63.18215637499816,63.98567904200172,63.96966800000519,63.97033008400467,63.98567904200172,63.98567904200172,63.98567904200172,68.96313245900092,104.05478820900316,left,1.0,40.06407637499797,,104.06473441699929,104.1639712920005,104.5639177920093,,,,,,,,,,,,,,,,,,,,,,,,,,,,,,sub-122,1,random_dot,,
right,right,1.0,1.0,0.0,left,0.0,6.465035208006157,,,,,,0.0,1.0,1.0,1.0,,,,,,,,,104.56979583400243,,,,,,,,,104.56447970900626,105.3545582920051,106.15642120900156,106.1475536670041,106.1482512090006,106.15642120900156,106.15642120900156,106.15642120900156,111.13545445899943,112.63222854200284,left,0.0,6.465035208006157,,112.63984100001107,112.65948437500629,113.13682358400548,,,,,,,,,,,,,,,,,,,,,,,,,,,,,,sub-122,1,random_dot,,
right,right,2.0,0.0,1.0,left,0.0,5.70535370799189,,,,,,1.0,0.0,2.0,1.0,,,,,,,,,113.14717091700004,,,,,,,,,113.13739004200032,113.4801198750065,114.27326366699708,114.26432066700364,114.26502166700084,114.27326366699708,114.27326366699708,114.27326366699708,119.25265362500797,119.9822028750059,left,0.0,5.70535370799189,,119.9823839590099,119.99182316700173,120.4809750840068,120.48678195899991,,,,,,,,,,,,,,,,,,,,,,,,,,,,,sub-122,1,random_dot,,
left,left,3.0,1.0,1.0,right,0.0,5.79353737400379,,,,,,1.0,1.0,3.0,0.0,,,,,,,,,120.48678195899991,,,,,,,,,120.48156275000656,120.5802335000044,121.3733327920054,121.36437933400155,121.36504770899774,121.3733327920054,121.3733327920054,121.3733327920054,126.35275837501104,127.17303637501028,right,0.0,5.79353737400379,,127.17325754200284,127.18452095901011,127.66988420899725,127.68076687499706,,,,,,,,,,,,,,,,,,,,,,,,,,,,,sub-122,1,random_dot,,
left,left,4.0,0.0,2.0,right,0.0,5.643693624995649,,,,,,2.0,0.0,4.0,0.0,,,,,,,,,127.68076687499706,,,,,,,,,127.67036991700296,128.87152450000576,129.67332220899698,129.66461391700432,129.6652657090017,129.67332220899698,129.67332220899698,129.67332220899698,134.66438637500687,135.3214910000097,right,0.0,5.643693624995649,,135.32165079200058,135.33065558400995,135.81454775000748,135.82029520900687,,,,,,,,,,,,,,,,,,,,,,,,,,,,,sub-122,1,random_dot,,
right,right,5.0,1.0,2.0,right,1.0,5.7562716670072405,,,,,,2.0,1.0,5.0,1.0,,,,,,,,,135.82029520900687,,,,,,,,,135.815106250011,136.6216380840051,137.42326212499756,137.4144776250032,137.4150546669989,137.42326212499756,137.42326212499756,137.42326212499756,142.40238920900447,143.1824470420106,right,1.0,5.7562716670072405,,143.1873067090055,143.19638112500252,143.6813058340049,143.68745012499858,,,,,,,,,,,,,,,,,,,,,,,,,,,,,sub-122,1,random_dot,,
left,left,6.0,0.0,3.0,left,1.0,5.8988213739939965,,,,,,3.0,0.0,6.0,0.0,,,,,,,,,143.68745012499858,,,,,,,,,143.68186133400013,144.4811502090015,145.2728100420063,145.26456291700015,145.26512004200777,145.2728100420063,145.2728100420063,145.2728100420063,150.25255358401046,151.1829944170022,left,1.0,5.8988213739939965,,151.1832089170057,151.19302025000798,151.68141316701076,151.68696133400954,,,,,,,,,,,,,,,,,,,,,,,,,,,,,sub-122,1,random_dot,,
right,right,7.0,1.0,3.0,right,1.0,5.580701708007837,,,,,,3.0,1.0,7.0,1.0,,,,,,,,,151.68696133400954,,,,,,,,,151.68188850001025,152.48110762500437,153.27276895901014,153.26469237499987,153.26526116700552,153.27276895901014,153.27276895901014,153.27276895901014,158.25317875000474,158.85604316700483,right,1.0,5.580701708007837,,158.85633000000962,158.88096145899908,159.36468929200782,,,,,,,,,,,,,,,,,,,,,,,,,,,,,,sub-122,1,random_dot,,
left,left,8.0,0.0,4.0,right,0.0,3.828791874999297,,,,,,4.0,0.0,8.0,0.0,,,,,,,,,159.371004583998,,,,,,,,,159.3653087499988,159.70474179199664,160.49651020900637,160.4881394999975,160.48871470900485,160.49651020900637,160.49651020900637,160.49651020900637,,164.33195716699993,right,0.0,3.828791874999297,,164.3352717920061,164.34375250000448,164.83150387500064,164.83649691700705,,,,,,,,,,,,,,,,,,,,,,,,,,,,,sub-122,1,random_dot,,
right,right,9.0,1.0,4.0,left,0.0,5.6678717080067145,,,,,,4.0,1.0,9.0,1.0,,,,,,,,,164.83649691700705,,,,,,,,,164.8319123340043,166.02200087500387,166.823073749998,166.81485308399715,166.81540587500783,166.823073749998,166.823073749998,166.823073749998,171.80290950000926,172.499717084007,left,0.0,5.6678717080067145,,172.4999302500073,172.50999658400542,172.99830020900117,173.00377825000032,,,,,,,,,,,,,,,,,,,,,,,,,,,,,sub-122,1,random_dot,,
left,left,10.0,0.0,5.0,right,0.0,5.596239416001481,,,,,,5.0,0.0,10.0,0.0,,,,,,,,,173.00377825000032,,,,,,,,,172.99876516700897,174.19762191700283,174.9898938749975,174.98167579200526,174.98223112500273,174.9898938749975,174.9898938749975,174.9898938749975,179.9699049589981,180.5900499590061,right,0.0,5.596239416001481,,180.59022320900112,180.60036633400887,181.0886584590044,181.09791191700788,,,,,,,,,,,,,,,,,,,,,,,,,,,,,sub-122,1,random_dot,,
right,right,11.0,1.0,5.0,right,1.0,5.674309166992316,,,,,,5.0,1.0,11.0,1.0,,,,,,,,,181.09791191700788,,,,,,,,,181.08923358400352,182.2891302920034,183.08998241700465,183.08174133399731,183.0823449590098,183.08998241700465,183.08998241700465,183.08998241700465,188.0703450000001,188.76616179200937,right,1.0,5.674309166992316,,188.77147708401023,188.78021629199796,189.26516745900156,189.27098008400932,,,,,,,,,,,,,,,,,,,,,,,,,,,,,sub-122,1,random_dot,,
right,right,12.0,0.0,6.0,right,1.0,5.613307207997423,,,,,,6.0,0.0,12.0,1.0,,,,,,,,,189.27098008400932,,,,,,,,,189.2657120000076,190.4649242919986,191.25651008400015,191.24859629200364,191.2491780840064,191.25651008400015,191.25651008400015,191.25651008400015,196.2367292090057,196.87293554200733,right,1.0,5.613307207997423,,196.87312483400456,196.89807187500992,197.3817831670021,,,,,,,,,,,,,,,,,,,,,,,,,,,,,,sub-122,1,random_dot,,
left,left,13.0,1.0,6.0,right,0.0,5.667295623992686,,,,,,6.0,1.0,13.0,0.0,,,,,,,,,197.38712808401036,,,,,,,,,197.3823082500021,198.17230154199933,198.97367295900767,198.96536924999964,198.9659682920028,198.97367295900767,198.97367295900767,198.97367295900767,203.9534870839998,204.65013983400425,right,0.0,5.667295623992686,,204.6552465840068,204.6641055420041,205.14885949999731,205.15436862500792,,,,,,,,,,,,,,,,,,,,,,,,,,,,,sub-122,1,random_dot,,
left,left,14.0,0.0,7.0,left,1.0,5.7978743739950005,,,,,,7.0,0.0,14.0,0.0,,,,,,,,,205.15436862500792,,,,,,,,,205.14933949999977,205.94869020899927,206.74077991700324,206.73232487500357,206.7329557500052,206.74077991700324,206.74077991700324,206.74077991700324,211.7314752090024,212.5500997089985,left,1.0,5.7978743739950005,,212.5551790419995,212.56374541700643,213.04900712500967,213.05484062500184,,,,,,,,,,,,,,,,,,,,,,,,,,,,,sub-122,1,random_dot,,
right,right,15.0,1.0,7.0,right,1.0,5.540500125003746,,,,,,7.0,1.0,15.0,1.0,,,,,,,,,213.05484062500184,,,,,,,,,213.04956020900863,213.3983043339977,214.19106387499775,214.1823563340004,214.18304370901024,214.19106387499775,214.19106387499775,214.19106387499775,219.1703755000053,219.73358000000007,right,1.0,5.540500125003746,,219.73375875000784,219.74304237500476,220.2322992499976,220.2377767500002,,,,,,,,,,,,,,,,,,,,,,,,,,,,,sub-122,1,random_dot,,
right,right,16.0,0.0,8.0,left,0.0,5.270745750007336,,,,,,8.0,0.0,16.0,1.0,,,,,,,,,220.2377767500002,,,,,,,,,220.232762833999,221.03159491700356,221.82447145901097,221.81575383400195,221.81631858400945,221.82447145901097,221.82447145901097,221.82447145901097,226.80381162501,227.10019662500417,left,0.0,5.270745750007336,,227.10479445901,227.1134729170008,227.59950016700896,227.6055560420064,,,,,,,,,,,,,,,,,,,,,,,,,,,,,sub-122,1,random_dot,,
left,left,17.0,1.0,8.0,left,1.0,5.697422957993695,,,,,,8.0,1.0,17.0,0.0,,,,,,,,,227.6055560420064,,,,,,,,,227.60010829199743,228.39870195899857,229.1906580840005,229.18221895900209,229.1828279589972,229.1906580840005,229.1906580840005,229.1906580840005,234.17171962501016,234.89055312500568,left,1.0,5.697422957993695,,234.895130334,234.9025974999968,235.38890925000305,235.3989500419993,,,,,,,,,,,,,,,,,,,,,,,,,,,,,sub-122,1,random_dot,,
left,left,18.0,0.0,9.0,right,0.0,4.141673042002367,,,,,,9.0,0.0,18.0,0.0,,,,,,,,,235.3989500419993,,,,,,,,,235.3894176670001,235.48939883400453,236.29068795900093,236.2823740840104,236.28292879200308,236.29068795900093,236.29068795900093,236.29068795900093,,240.43955608400572,right,0.0,4.141673042002367,,240.4426533750084,240.4531051670056,240.938536792004,240.94876008400752,,,,,,,,,,,,,,,,,,,,,,,,,,,,,sub-122,1,random_dot,,
right,right,19.0,1.0,9.0,left,0.0,5.647450124000898,,,,,,9.0,1.0,19.0,1.0,,,,,,,,,240.94876008400752,,,,,,,,,240.93903929200317,241.7395500420098,242.5407312919997,242.53264291700907,242.53322741700688,242.5407312919997,242.5407312919997,242.5407312919997,247.52069337500143,248.19078925000213,left,0.0,5.647450124000898,,248.19098179200955,248.2007245840068,248.6887760840036,248.6983737499977,,,,,,,,,,,,,,,,,,,,,,,,,,,,,sub-122,1,random_dot,,
,,,,,,,,,,,,,,,,,,,,,,,,,,,,,,,,,,,,,,,,,,,,,,,,,,,,248.68897879200813,248.6983737499977,248.6983737499977,254.9903380839969,space,6.28837745799683,,,,,,,,,,,,,,,,,,,,,,,sub-122,1,random_dot,,
,,,,,,,,,,,,,,,,,,,,,,,,,,,,,,,,,,,,,,,,,,,,,,,,,,,,,,,,,,,254.9904627920041,255.00332770899692,255.00332770899692,263.00711800000863,space,8.002154417001293,,,,,,,,,,,,,,,,sub-122,1,random_dot,,
right,right,0.0,0.0,0.0,right,1.0,1.0617925410042517,,speed,space,2.5826125409948872,,,,,,0.0,0.0,0.0,1.0,0.0,0.0,0.0,1.0,265.6541127500095,,,,,,,,,265.6452055420086,266.83260620900546,267.6244559170009,267.61637995899946,267.61697950000234,267.6244559170009,267.6244559170009,267.6244559170009,,268.69075112500286,,,,,,,,,,,,,,,,,,,,,,,263.030824875008,263.0403180840076,263.0403180840076,265.6342974170111,space,2.5826125409948872,,right,1.0,1.0617925410042517,,,,,sub-122,1,random_dot,,
left,left,1.0,1.0,0.0,right,0.0,1.4775190000073053,,speed,space,2.5826125409948872,,,,,,0.0,0.0,0.0,1.0,0.0,1.0,1.0,0.0,268.6987170420034,,,,,,,,,268.69125562500267,269.88990612499765,270.691263834,270.682945624998,270.6835100419994,270.691263834,270.691263834,270.691263834,,272.17395995900733,,,,,,,,,,,,,,,,,,,,,,,,,,,,,,right,0.0,1.4775190000073053,,,,,sub-122,1,random_dot,,
left,left,2.0,0.0,1.0,left,1.0,1.2825188330025412,,speed,space,2.5826125409948872,,,,,,0.0,0.0,0.0,1.0,1.0,0.0,2.0,0.0,272.1818446670077,,,,,,,,,272.17443945900595,273.3734699589986,274.1746141250041,274.16633012500824,274.1668854169984,274.1746141250041,274.1746141250041,274.1746141250041,,275.46689683399745,,,,,,,,,,,,,,,,,,,,,,,,,,,,,,left,1.0,1.2825188330025412,,,,,sub-122,1,random_dot,,
right,right,3.0,1.0,1.0,right,1.0,2.499094957995112,,speed,space,2.5826125409948872,,,,,,0.0,0.0,0.0,1.0,1.0,1.0,3.0,1.0,275.4756508749997,,,,,,,,,275.4674460840033,275.80703054199694,276.6079475419974,276.59973416700086,276.60028091700224,276.6079475419974,276.6079475419974,276.6079475419974,,279.1168102500087,,,,,,,,,,,,,,,,,,,,,,,,,,,,,,right,1.0,2.499094957995112,,,,,sub-122,1,random_dot,,
right,right,4.0,0.0,2.0,left,0.0,1.2607452920055948,,speed,space,2.5826125409948872,,,,,,0.0,0.0,0.0,1.0,2.0,0.0,4.0,1.0,279.1250161250064,,,,,,,,,279.11730529200577,279.90616229199804,280.7078658340033,280.69976429200324,280.7003140000015,280.7078658340033,280.7078658340033,280.7078658340033,,281.97384825001063,,,,,,,,,,,,,,,,,,,,,,,,,,,,,,left,0.0,1.2607452920055948,,,,,sub-122,1,random_dot,,
left,left,5.0,1.0,2.0,right,0.0,1.648137707990827,,speed,space,2.5826125409948872,,,,,,0.0,0.0,0.0,1.0,2.0,1.0,5.0,0.0,281.9821349999984,,,,,,,,,281.9743853340042,283.17338675000065,283.965518625002,283.95630741700006,283.9568793750077,283.965518625002,283.965518625002,283.965518625002,,285.61701000000176,,,,,,,,,,,,,,,,,,,,,,,,,,,,,,right,0.0,1.648137707990827,,,,,sub-122,1,random_dot,,
left,left,6.0,0.0,3.0,right,0.0,3.1252257080050185,,speed,space,2.5826125409948872,,,,,,0.0,0.0,0.0,1.0,3.0,0.0,6.0,0.0,285.62467645900324,,,,,,,,,285.6175057090004,286.8071981250105,287.6082303340081,287.60004937500344,287.6006211670028,287.6082303340081,287.6082303340081,287.6082303340081,,290.7402266249992,,,,,,,,,,,,,,,,,,,,,,,,,,,,,,right,0.0,3.1252257080050185,,,,,sub-122,1,random_dot,,
right,right,7.0,1.0,3.0,left,0.0,2.1443260829983046,,speed,space,2.5826125409948872,,,,,,0.0,0.0,0.0,1.0,3.0,1.0,7.0,1.0,290.7490864170104,,,,,,,,,290.74061575000815,291.9392727920058,292.7322827919997,292.7230915000109,292.7236677089968,292.7322827919997,292.7322827919997,292.7322827919997,,294.88390129200707,,,,,,,,,,,,,,,,,,,,,,,,,,,,,,left,0.0,2.1443260829983046,,,,,sub-122,1,random_dot,,
right,right,8.0,0.0,4.0,right,1.0,2.2827679159963736,,speed,space,2.5826125409948872,,,,,,0.0,0.0,0.0,1.0,4.0,0.0,8.0,1.0,294.89218454199727,,,,,,,,,294.8843733750109,296.0736259999976,296.87465966700984,296.8666212090029,296.8671683749999,296.87465966700984,296.87465966700984,296.87465966700984,,299.16725654200127,,,,,,,,,,,,,,,,,,,,,,,,,,,,,,right,1.0,2.2827679159963736,,,,,sub-122,1,random_dot,,
left,left,9.0,1.0,4.0,left,1.0,2.924993082997389,,speed,space,2.5826125409948872,,,,,,0.0,0.0,0.0,1.0,4.0,1.0,9.0,0.0,299.1758272090083,,,,,,,,,299.16780287500296,300.35723483400943,301.1588040839997,301.15009412499785,301.1507592920097,301.1588040839997,301.1588040839997,301.1588040839997,,304.0953464589984,,,,,,,,,,,,,,,,,,,,,,,,,,,,,,left,1.0,2.924993082997389,,,,,sub-122,1,random_dot,,
left,left,10.0,0.0,5.0,right,0.0,2.8500711240048986,,speed,space,2.5826125409948872,,,,,,0.0,0.0,0.0,1.0,5.0,0.0,10.0,0.0,304.1003984590061,,,,,,,,,304.09574075001,305.29055512500054,306.0914002920035,306.08331829200324,306.08387695900456,306.0914002920035,306.0914002920035,306.0914002920035,,308.95040387500194,,,,,,,,,,,,,,,,,,,,,,,,,,,,,,right,0.0,2.8500711240048986,,,,,sub-122,1,random_dot,,
right,right,11.0,1.0,5.0,left,0.0,2.932182832999388,,speed,space,2.5826125409948872,,,,,,0.0,0.0,0.0,1.0,5.0,1.0,11.0,1.0,308.9583609590045,,,,,,,,,308.95088316701003,309.7396322920104,310.5325274170027,310.5231762500043,310.5237446670071,310.5325274170027,310.5325274170027,310.5325274170027,,313.4672955420101,,,,,,,,,,,,,,,,,,,,,,,,,,,,,,left,0.0,2.932182832999388,,,,,sub-122,1,random_dot,,
left,left,12.0,0.0,6.0,left,1.0,1.930590125004528,,speed,space,2.5826125409948872,,,,,,0.0,0.0,0.0,1.0,6.0,0.0,12.0,0.0,313.4749947500095,,,,,,,,,313.46777412500523,313.5560830839968,314.3486702090013,314.3400649170071,314.34073141700355,314.3486702090013,314.3486702090013,314.3486702090013,,316.28406958399864,,,,,,,,,,,,,,,,,,,,,,,,,,,,,,left,1.0,1.930590125004528,,,,,sub-122,1,random_dot,,
right,right,13.0,1.0,6.0,left,0.0,2.624771208007587,,speed,space,2.5826125409948872,,,,,,0.0,0.0,0.0,1.0,6.0,1.0,13.0,1.0,316.2931103340088,,,,,,,,,316.2846172499994,316.6241121250059,317.4256714170042,317.41696695900464,317.4176373750088,317.4256714170042,317.4256714170042,317.4256714170042,,320.0573131249985,,,,,,,,,,,,,,,,,,,,,,,,,,,,,,left,0.0,2.624771208007587,,,,,sub-122,1,random_dot,,
right,right,14.0,0.0,7.0,left,0.0,3.7126006670005154,,speed,space,2.5826125409948872,,,,,,0.0,0.0,0.0,1.0,7.0,0.0,14.0,1.0,320.06511537500774,,,,,,,,,320.05781312500767,320.4076339590101,321.20851208400563,321.20006825000746,321.20065174999763,321.20851208400563,321.20851208400563,321.20851208400563,,324.9240379999974,,,,,,,,,,,,,,,,,,,,,,,,,,,,,,left,0.0,3.7126006670005154,,,,,sub-122,1,random_dot,,
left,left,15.0,1.0,7.0,right,0.0,3.0668962909985567,,speed,space,2.5826125409948872,,,,,,0.0,0.0,0.0,1.0,7.0,1.0,15.0,0.0,324.93209183400904,,,,,,,,,324.9244816249993,325.0229050839989,325.81615150001016,325.8060367500002,325.80656258400995,325.81615150001016,325.81615150001016,325.81615150001016,,328.8935680420109,,,,,,,,,,,,,,,,,,,,,,,,,,,,,,right,0.0,3.0668962909985567,,,,,sub-122,1,random_dot,,
left,left,16.0,0.0,8.0,right,0.0,2.8973396660003345,,speed,space,2.5826125409948872,,,,,,0.0,0.0,0.0,1.0,8.0,0.0,16.0,0.0,328.8993536670023,,,,,,,,,328.8939609590016,329.6908106250048,330.4920545839996,330.48371558400686,330.4842802500061,330.4920545839996,330.4920545839996,330.4920545839996,,333.3911092500057,,,,,,,,,,,,,,,,,,,,,,,,,,,,,,right,0.0,2.8973396660003345,,,,,sub-122,1,random_dot,,
right,right,17.0,1.0,8.0,right,1.0,3.418714749001083,,speed,space,2.5826125409948872,,,,,,0.0,0.0,0.0,1.0,8.0,1.0,17.0,1.0,333.3989557090099,,,,,,,,,333.391579084011,334.1911618340091,334.992092667002,334.9837891670031,334.98434537500725,334.992092667002,334.992092667002,334.992092667002,,338.41809875000035,,,,,,,,,,,,,,,,,,,,,,,,,,,,,,right,1.0,3.418714749001083,,,,,sub-122,1,random_dot,,
left,left,18.0,0.0,9.0,right,0.0,3.4022936669935007,,speed,space,2.5826125409948872,,,,,,0.0,0.0,0.0,1.0,9.0,0.0,18.0,0.0,338.4267718750052,,,,,,,,,338.4187028340093,339.6162747500057,340.4092828749999,340.4005760840082,340.40125049999915,340.4092828749999,340.4092828749999,340.4092828749999,,343.8174594590091,,,,,,,,,,,,,,,,,,,,,,,,,,,,,,right,0.0,3.4022936669935007,,,,,sub-122,1,random_dot,,
right,right,19.0,1.0,9.0,right,1.0,3.23756358299579,,speed,space,2.5826125409948872,,,,,,0.0,0.0,0.0,1.0,9.0,1.0,19.0,1.0,343.8251161250082,,,,,,,,,343.8178458339971,345.00659962500504,345.79969104200427,345.7901402920106,345.79071845900035,345.79969104200427,345.79969104200427,345.79969104200427,,349.04160470901115,,,,,,,,,,,,,,,,,,,,,,,,,,,,,,right,1.0,3.23756358299579,,,,,sub-122,1,random_dot,,
right,right,20.0,0.0,10.0,left,0.0,1.7764220829994883,,speed,space,2.5826125409948872,,,,,,0.0,0.0,0.0,1.0,10.0,0.0,20.0,1.0,349.049747875004,,,,,,,,,349.04209329200967,349.8401032499969,350.63300708400493,350.62356337500387,350.6241417090059,350.63300708400493,350.63300708400493,350.63300708400493,,352.41762750000635,,,,,,,,,,,,,,,,,,,,,,,,,,,,,,left,0.0,1.7764220829994883,,,,,sub-122,1,random_dot,,
left,left,21.0,1.0,10.0,right,0.0,1.2085603330051526,,speed,space,2.5826125409948872,,,,,,0.0,0.0,0.0,1.0,10.0,1.0,21.0,0.0,352.4255287499982,,,,,,,,,352.41812554199714,352.7580447500077,353.55936704200576,353.55074837499706,353.5514266250102,353.55936704200576,353.55936704200576,353.55936704200576,,354.7746421250049,,,,,,,,,,,,,,,,,,,,,,,,,,,,,,right,0.0,1.2085603330051526,,,,,sub-122,1,random_dot,,
left,left,22.0,0.0,11.0,left,1.0,1.4014104990055785,,speed,space,2.5826125409948872,,,,,,0.0,0.0,0.0,1.0,11.0,0.0,22.0,0.0,354.7825690000027,,,,,,,,,354.77510645899747,355.9747663750022,356.7756288340024,356.7673760839971,356.76794166699983,356.7756288340024,356.7756288340024,356.7756288340024,,358.1844404169969,,,,,,,,,,,,,,,,,,,,,,,,,,,,,,left,1.0,1.4014104990055785,,,,,sub-122,1,random_dot,,
right,right,23.0,1.0,11.0,right,1.0,1.6368649579962948,,speed,space,2.5826125409948872,,,,,,0.0,0.0,0.0,1.0,11.0,1.0,23.0,1.0,358.1921556669986,,,,,,,,,358.18489837500965,358.52335145900724,359.31615479200264,359.3071029170096,359.3076652500022,359.31615479200264,359.31615479200264,359.31615479200264,,360.9578813340049,,,,,,,,,,,,,,,,,,,,,,,,,,,,,,right,1.0,1.6368649579962948,,,,,sub-122,1,random_dot,,
right,right,24.0,0.0,12.0,left,0.0,1.1132305829960387,,speed,space,2.5826125409948872,,,,,,0.0,0.0,0.0,1.0,12.0,0.0,24.0,1.0,360.96562812500633,,,,,,,,,360.9583506250056,361.0568538340012,361.8497734170087,361.8400232499989,361.8406165839988,361.8497734170087,361.8497734170087,361.8497734170087,,362.9678483750031,,,,,,,,,,,,,,,,,,,,,,,,,,,,,,left,0.0,1.1132305829960387,,,,,sub-122,1,random_dot,,
left,left,25.0,1.0,12.0,left,1.0,1.3875614989956375,,speed,space,2.5826125409948872,,,,,,0.0,0.0,0.0,1.0,12.0,1.0,25.0,0.0,362.97598133400606,,,,,,,,,362.9683147500036,364.1569153340097,364.9498750000057,364.940043834009,364.94059925001056,364.9498750000057,364.9498750000057,364.9498750000057,,366.34112945900415,,,,,,,,,,,,,,,,,,,,,,,,,,,,,,left,1.0,1.3875614989956375,,,,,sub-122,1,random_dot,,
left,left,26.0,0.0,13.0,right,0.0,1.0777262079936918,,speed,space,2.5826125409948872,,,,,,0.0,0.0,0.0,1.0,13.0,0.0,26.0,0.0,366.34992937500647,,,,,,,,,366.3414882090001,366.6916350840038,367.4920922090096,367.4840519170102,367.4846131250088,367.4920922090096,367.4920922090096,367.4920922090096,,368.5744806250004,,,,,,,,,,,,,,,,,,,,,,,,,,,,,,right,0.0,1.0777262079936918,,,,,sub-122,1,random_dot,,
right,right,27.0,1.0,13.0,left,0.0,2.5746128330065403,,speed,space,2.5826125409948872,,,,,,0.0,0.0,0.0,1.0,13.0,1.0,27.0,1.0,368.5831694170047,,,,,,,,,368.574838917004,369.3744780420093,370.1763290420058,370.16766254200775,370.1682968750101,370.1763290420058,370.1763290420058,370.1763290420058,,372.76194612499967,,,,,,,,,,,,,,,,,,,,,,,,,,,,,,left,0.0,2.5746128330065403,,,,,sub-122,1,random_dot,,
right,right,28.0,0.0,14.0,left,0.0,1.076361915998859,,speed,space,2.5826125409948872,,,,,,0.0,0.0,0.0,1.0,14.0,0.0,28.0,1.0,372.7665249999991,,,,,,,,,372.7623428340012,373.55784783400304,374.35895916700247,374.3507710840058,374.351314583997,374.35895916700247,374.35895916700247,374.35895916700247,,375.441285916997,,,,,,,,,,,,,,,,,,,,,,,,,,,,,,left,0.0,1.076361915998859,,,,,sub-122,1,random_dot,,
left,left,29.0,1.0,14.0,left,1.0,0.9330524160031928,,speed,space,2.5826125409948872,,,,,,0.0,0.0,0.0,1.0,14.0,1.0,29.0,0.0,375.4492117920017,,,,,,,,,375.4417416250071,376.6413281670102,377.43352204200346,377.4241317920096,377.4247748750058,377.43352204200346,377.43352204200346,377.43352204200346,,378.3678230420046,,,,,,,,,,,,,,,,,,,,,,,,,,,,,,left,1.0,0.9330524160031928,,,,,sub-122,1,random_dot,,
right,right,30.0,0.0,15.0,right,1.0,1.1045217080099974,,speed,space,2.5826125409948872,,,,,,0.0,0.0,0.0,1.0,15.0,0.0,30.0,1.0,378.3758503749996,,,,,,,,,378.3682960840088,378.7083642500074,379.5097784590034,379.5010811250104,379.5017481250106,379.5097784590034,379.5097784590034,379.5097784590034,,380.6182700000063,,,,,,,,,,,,,,,,,,,,,,,,,,,,,,right,1.0,1.1045217080099974,,,,,sub-122,1,random_dot,,
left,left,31.0,1.0,15.0,left,1.0,1.095663957996294,,speed,space,2.5826125409948872,,,,,,0.0,0.0,0.0,1.0,15.0,1.0,31.0,0.0,380.6264602919982,,,,,,,,,380.61873562500114,380.9583837090031,381.7597697090096,381.7510938750056,381.7517528750032,381.7597697090096,381.7597697090096,381.7597697090096,,382.8582073750004,,,,,,,,,,,,,,,,,,,,,,,,,,,,,,left,1.0,1.095663957996294,,,,,sub-122,1,random_dot,,
left,left,32.0,0.0,16.0,right,0.0,1.353890083002625,,speed,space,2.5826125409948872,,,,,,0.0,0.0,0.0,1.0,16.0,0.0,32.0,0.0,382.8660112090001,,,,,,,,,382.8586977090017,384.0573832090013,384.8501984169998,384.8408484170068,384.8414508749993,384.8501984169998,384.8501984169998,384.8501984169998,,386.2088298340095,,,,,,,,,,,,,,,,,,,,,,,,,,,,,,right,0.0,1.353890083002625,,,,,sub-122,1,random_dot,,
right,right,33.0,1.0,16.0,right,1.0,0.8264904170064256,,speed,space,2.5826125409948872,,,,,,0.0,0.0,0.0,1.0,16.0,1.0,33.0,1.0,386.216653334006,,,,,,,,,386.2092992500111,387.0074235840002,387.8835220000037,387.7905198340013,387.7912017089984,387.8835220000037,387.8835220000037,387.8835220000037,,388.7182352500095,,,,,,,,,,,,,,,,,,,,,,,,,,,,,,right,1.0,0.8264904170064256,,,,,sub-122,1,random_dot,,
right,right,34.0,0.0,17.0,left,0.0,1.6007166240015067,,speed,space,2.5826125409948872,,,,,,0.0,0.0,0.0,1.0,17.0,0.0,34.0,1.0,388.72627079200174,,,,,,,,,388.7187253340089,389.9083576249977,390.7100496250059,390.7011270000076,390.7017008749972,390.7100496250059,390.7100496250059,390.7100496250059,,392.3187434170104,,,,,,,,,,,,,,,,,,,,,,,,,,,,,,left,0.0,1.6007166240015067,,,,,sub-122,1,random_dot,,
left,left,35.0,1.0,17.0,right,0.0,0.9048420000035547,,speed,space,2.5826125409948872,,,,,,0.0,0.0,0.0,1.0,17.0,1.0,35.0,0.0,392.326800750001,,,,,,,,,392.3192222500074,392.4175533750095,393.2100596670061,393.2012529589993,393.20192166700144,393.2100596670061,393.2100596670061,393.2100596670061,,394.11829279200174,,,,,,,,,,,,,,,,,,,,,,,,,,,,,,right,0.0,0.9048420000035547,,,,,sub-122,1,random_dot,,
left,left,36.0,0.0,18.0,right,0.0,1.197149707993958,,speed,space,2.5826125409948872,,,,,,0.0,0.0,0.0,1.0,18.0,0.0,36.0,0.0,394.126077125009,,,,,,,,,394.11875316700025,394.90810758400767,395.7003882499994,395.6909774170053,395.69161483400967,395.7003882499994,395.7003882499994,395.7003882499994,,396.90144795899687,,,,,,,,,,,,,,,,,,,,,,,,,,,,,,right,0.0,1.197149707993958,,,,,sub-122,1,random_dot,,
right,right,37.0,1.0,18.0,right,1.0,0.9126867490122096,,speed,space,2.5826125409948872,,,,,,0.0,0.0,0.0,1.0,18.0,1.0,37.0,1.0,396.9092326250102,,,,,,,,,396.9019077090052,397.69154804199934,398.4930370420043,398.4847374170058,398.485260875008,398.4930370420043,398.4930370420043,398.4930370420043,,399.4091318749997,,,,,,,,,,,,,,,,,,,,,,,,,,,,,,right,1.0,0.9126867490122096,,,,,sub-122,1,random_dot,,
left,left,38.0,0.0,19.0,right,0.0,2.016590624989476,,speed,space,2.5826125409948872,,,,,,0.0,0.0,0.0,1.0,19.0,0.0,38.0,0.0,399.4166364999983,,,,,,,,,399.40949495900713,399.5106460000097,400.30900695901073,400.3011465000018,400.3016470840085,400.30900695901073,400.30900695901073,400.30900695901073,,402.3349418340076,,,,,,,,,,,,,,,,,,,,,,,,,,,,,,right,0.0,2.016590624989476,,,,,sub-122,1,random_dot,,
right,right,39.0,1.0,19.0,right,1.0,0.9423980830033544,,speed,space,2.5826125409948872,,,,,,0.0,0.0,0.0,1.0,19.0,1.0,39.0,1.0,402.3427849170112,,,,,,,,,402.3354140840093,403.5253360420029,404.3267750840023,404.3181029999978,404.3187622090045,404.3267750840023,404.3267750840023,404.3267750840023,,405.275681375002,,,,,,,,,,,,,,,,,,,,,,,,,,,,,,right,1.0,0.9423980830033544,,,,,sub-122,1,random_dot,,
left,left,40.0,0.0,20.0,right,0.0,1.0202141659974586,,speed,space,2.5826125409948872,,,,,,0.0,0.0,0.0,1.0,20.0,0.0,40.0,0.0,405.2837265840062,,,,,,,,,405.276148917008,405.3741402500018,406.16724108401104,406.1578362500004,406.1584242920071,406.16724108401104,406.16724108401104,406.16724108401104,,407.1923655420105,,,,,,,,,,,,,,,,,,,,,,,,,,,,,,right,0.0,1.0202141659974586,,,,,sub-122,1,random_dot,,
right,right,41.0,1.0,20.0,right,1.0,1.0257537080033217,,speed,space,2.5826125409948872,,,,,,0.0,0.0,0.0,1.0,20.0,1.0,41.0,1.0,407.2001454999991,,,,,,,,,407.1928455840098,407.2918543749984,408.0927625839977,408.08469162500114,408.0852507090021,408.0927625839977,408.0927625839977,408.0927625839977,,409.1260583340045,,,,,,,,,,,,,,,,,,,,,,,,,,,,,,right,1.0,1.0257537080033217,,,,,sub-122,1,random_dot,,
left,left,42.0,0.0,21.0,right,0.0,0.9458369990024948,,speed,space,2.5826125409948872,,,,,,0.0,0.0,0.0,1.0,21.0,0.0,42.0,0.0,409.13458408400766,,,,,,,,,409.1266100840003,409.4751460420084,410.267020875006,410.2578478340001,410.2584416250029,410.267020875006,410.267020875006,410.267020875006,,411.21859229200345,,,,,,,,,,,,,,,,,,,,,,,,,,,,,,right,0.0,0.9458369990024948,,,,,sub-122,1,random_dot,,
right,right,43.0,1.0,21.0,right,1.0,1.3603337490058038,,speed,space,2.5826125409948872,,,,,,0.0,0.0,0.0,1.0,21.0,1.0,43.0,1.0,411.2265615840006,,,,,,,,,411.2190569170052,411.308442834008,412.1101630839985,412.1013971250068,412.1019675840071,412.1101630839985,412.1101630839985,412.1101630839985,,413.4751932920044,,,,,,,,,,,,,,,,,,,,,,,,,,,,,,right,1.0,1.3603337490058038,,,,,sub-122,1,random_dot,,
left,left,44.0,0.0,22.0,right,0.0,1.3007464580005037,,speed,space,2.5826125409948872,,,,,,0.0,0.0,0.0,1.0,22.0,0.0,44.0,0.0,413.4832305000018,,,,,,,,,413.4756728750072,413.5757062089979,414.3768430000055,414.3681771249976,414.3688133750111,414.3768430000055,414.3768430000055,414.3768430000055,,415.6854912920098,,,,,,,,,,,,,,,,,,,,,,,,,,,,,,right,0.0,1.3007464580005037,,,,,sub-122,1,random_dot,,
right,right,45.0,1.0,22.0,right,1.0,1.0069104159920244,,speed,space,2.5826125409948872,,,,,,0.0,0.0,0.0,1.0,22.0,1.0,45.0,1.0,415.6934291250072,,,,,,,,,415.6859631670086,416.8841515000095,417.6763834590092,417.668106875004,417.6686611670011,417.6763834590092,417.6763834590092,417.6763834590092,,418.68497316700814,,,,,,,,,,,,,,,,,,,,,,,,,,,,,,right,1.0,1.0069104159920244,,,,,sub-122,1,random_dot,,
left,left,46.0,0.0,23.0,right,0.0,1.6110794999985956,,speed,space,2.5826125409948872,,,,,,0.0,0.0,0.0,1.0,23.0,0.0,46.0,0.0,418.6932459590025,,,,,,,,,418.6854290420015,419.02527199999895,419.8269466670026,419.818172875006,419.81884350000473,419.8269466670026,419.8269466670026,419.8269466670026,,421.4422474590101,,,,,,,,,,,,,,,,,,,,,,,,,,,,,,right,0.0,1.6110794999985956,,,,,sub-122,1,random_dot,,
right,right,47.0,1.0,23.0,right,1.0,1.996040165991872,,speed,space,2.5826125409948872,,,,,,0.0,0.0,0.0,1.0,23.0,1.0,47.0,1.0,421.45062070900167,,,,,,,,,421.4428337499994,422.2420408339967,423.03375329200935,423.0250629590009,423.0256812919979,423.03375329200935,423.03375329200935,423.03375329200935,,425.0350389590021,,,,,,,,,,,,,,,,,,,,,,,,,,,,,,right,1.0,1.996040165991872,,,,,sub-122,1,random_dot,,
left,left,48.0,0.0,24.0,left,1.0,0.980828208004823,,speed,space,2.5826125409948872,,,,,,0.0,0.0,0.0,1.0,24.0,0.0,48.0,0.0,425.0426826250041,,,,,,,,,425.0354281670007,426.22530704199744,427.0263212090067,427.0180542919989,427.0186326670082,427.0263212090067,427.0263212090067,427.0263212090067,,428.0091532500082,,,,,,,,,,,,,,,,,,,,,,,,,,,,,,left,1.0,0.980828208004823,,,,,sub-122,1,random_dot,,
right,right,49.0,1.0,24.0,right,1.0,0.7156672080018325,,speed,space,2.5826125409948872,,,,,,0.0,0.0,0.0,1.0,24.0,1.0,49.0,1.0,428.0168300840014,,,,,,,,,428.0096185840084,429.2089983750048,430.0096480840002,430.00139158401,430.0019664590072,430.0096480840002,430.0096480840002,430.0096480840002,,430.7355782090017,,,,,,,,,,,,,,,,,,,,,,,,,,,,,,right,1.0,0.7156672080018325,,,,,sub-122,1,random_dot,,
left,left,50.0,0.0,25.0,right,0.0,0.8534827080002287,,speed,space,2.5826125409948872,,,,,,0.0,0.0,0.0,1.0,25.0,0.0,50.0,0.0,430.7402965000074,,,,,,,,,430.7360521250084,431.5252362090105,432.3175123340043,432.30793133399857,432.308559875004,432.3175123340043,432.3175123340043,432.3175123340043,,433.17550850000407,,,,,,,,,,,,,,,,,,,,,,,,,,,,,,right,0.0,0.8534827080002287,,,,,sub-122,1,random_dot,,
right,right,51.0,1.0,25.0,right,1.0,1.1105757079931209,,speed,space,2.5826125409948872,,,,,,0.0,0.0,0.0,1.0,25.0,1.0,51.0,1.0,433.1842153339967,,,,,,,,,433.1758764999977,434.3754806250072,435.1774000840087,435.16854158400383,435.1692217500095,435.1774000840087,435.1774000840087,435.1774000840087,,436.29189325000334,,,,,,,,,,,,,,,,,,,,,,,,,,,,,,right,1.0,1.1105757079931209,,,,,sub-122,1,random_dot,,
left,left,52.0,0.0,26.0,right,0.0,0.866589416997158,,speed,space,2.5826125409948872,,,,,,0.0,0.0,0.0,1.0,26.0,0.0,52.0,0.0,436.3007221250009,,,,,,,,,436.2922691670101,436.3910003750061,437.1840670000093,437.1747603749973,437.1753634589986,437.1840670000093,437.1840670000093,437.1840670000093,,438.05188958400686,,,,,,,,,,,,,,,,,,,,,,,,,,,,,,right,0.0,0.866589416997158,,,,,sub-122,1,random_dot,,
right,right,53.0,1.0,26.0,right,1.0,0.9822089579975,,speed,space,2.5826125409948872,,,,,,0.0,0.0,0.0,1.0,26.0,1.0,53.0,1.0,438.05979512500926,,,,,,,,,438.05234329200175,439.2420665840036,440.0431633749977,440.0351037500077,440.03567737501,440.0431633749977,440.0431633749977,440.0431633749977,,441.0359727920004,,,,,,,,,,,,,,,,,,,,,,,,,,,,,,right,1.0,0.9822089579975,,,,,sub-122,1,random_dot,,
left,left,54.0,0.0,27.0,right,0.0,0.8358836669940501,,speed,space,2.5826125409948872,,,,,,0.0,0.0,0.0,1.0,27.0,0.0,54.0,0.0,441.0440003340045,,,,,,,,,441.0364350419986,442.23480366700096,443.02654350000375,443.0183554170071,443.0189094170055,443.02654350000375,443.02654350000375,443.02654350000375,,443.8692211669986,,,,,,,,,,,,,,,,,,,,,,,,,,,,,,right,0.0,0.8358836669940501,,,,,sub-122,1,random_dot,,
right,right,55.0,1.0,27.0,right,1.0,0.6822113329981221,,speed,space,2.5826125409948872,,,,,,0.0,0.0,0.0,1.0,27.0,1.0,55.0,1.0,443.8770924170094,,,,,,,,,443.8696847920073,445.0678439170006,445.8598865000095,445.85179416699975,445.85234683399904,445.8598865000095,445.8598865000095,445.8598865000095,,446.5525448749977,,,,,,,,,,,,,,,,,,,,,,,,,,,,,,right,1.0,0.6822113329981221,,,,,sub-122,1,random_dot,,
left,left,56.0,0.0,28.0,right,0.0,1.0376921250135638,,speed,space,2.5826125409948872,,,,,,0.0,0.0,0.0,1.0,28.0,0.0,56.0,0.0,446.5612775420013,,,,,,,,,446.5530785840092,446.6413899170002,447.4335448339989,447.4250059170008,447.4255979590089,447.4335448339989,447.4335448339989,447.4335448339989,,448.4759019170015,,,,,,,,,,,,,,,,,,,,,,,,,,,,,,right,0.0,1.0376921250135638,,,,,sub-122,1,random_dot,,
right,right,57.0,1.0,28.0,right,1.0,1.0472264159907354,,speed,space,2.5826125409948872,,,,,,0.0,0.0,0.0,1.0,28.0,1.0,57.0,1.0,448.4837013340002,,,,,,,,,448.4763545419992,448.5754914170102,449.3674450000108,449.358306042006,449.35889245900034,449.3674450000108,449.3674450000108,449.3674450000108,,450.4189588750014,,,,,,,,,,,,,,,,,,,,,,,,,,,,,,right,1.0,1.0472264159907354,,,,,sub-122,1,random_dot,,
left,left,58.0,0.0,29.0,right,0.0,1.132093292006175,,speed,space,2.5826125409948872,,,,,,0.0,0.0,0.0,1.0,29.0,0.0,58.0,0.0,450.4265814590035,,,,,,,,,450.4193910419999,450.7578300840105,451.55093016700994,451.5411559589993,451.541689042002,451.55093016700994,451.55093016700994,451.55093016700994,,452.6861598340038,,,,,,,,,,,,,,,,,,,,,,,,,,,,,,right,0.0,1.132093292006175,,,,,sub-122,1,random_dot,,
right,right,59.0,1.0,29.0,right,1.0,1.0164534579962492,,speed,space,2.5826125409948872,,,,,,0.0,0.0,0.0,1.0,29.0,1.0,59.0,1.0,452.69482683400565,,,,,,,,,452.6867831670097,453.03497237499687,453.8276102920063,453.8186562920018,453.8193218750093,453.8276102920063,453.8276102920063,453.8276102920063,,454.8522774169978,,,,,,,,,,,,,,,,,,,,,,,,,,,,,,right,1.0,1.0164534579962492,,,,,sub-122,1,random_dot,,
,,0.0,0.0,0.0,,,,,speed,space,2.5826125409948872,,,,,,0.0,0.0,0.0,1.0,,,,,,,,,,,,,,,,,,,,,,,,,,,,,,,,,,,,,,,,,,,,,,,,,,,,,,,,,,,,sub-122,1,random_dot,,
right,right,0.0,0.0,0.0,right,1.0,1.083077332994435,,accuracy,space,39.89190716700978,,,,,,0.0,1.0,1.0,0.0,0.0,0.0,0.0,1.0,494.7894542090071,,,,,,,,,494.7801713750087,495.1188690840063,495.9112350840005,495.9025826249999,495.9032814590028,495.9112350840005,495.9112350840005,495.9112350840005,,497.0027931670047,,,,,,,,,,,,,,,,,,,,,,,454.8692859169969,454.8768057499983,454.8768057499983,494.7700437500025,space,39.89190716700978,,right,1.0,1.083077332994435,,,,,sub-122,1,random_dot,,
left,left,1.0,1.0,0.0,right,0.0,1.0877877079910832,,accuracy,space,39.89190716700978,,,,,,0.0,1.0,1.0,0.0,0.0,1.0,1.0,0.0,497.0111856250005,,,,,,,,,497.003274667004,497.34316829200543,498.1445519170084,498.1358794590051,498.1365243750042,498.1445519170084,498.1445519170084,498.1445519170084,,499.236199292005,,,,,,,,,,,,,,,,,,,,,,,,,,,,,,right,0.0,1.0877877079910832,,,,,sub-122,1,random_dot,,
right,right,2.0,0.0,1.0,right,1.0,1.2372604999982286,,accuracy,space,39.89190716700978,,,,,,0.0,1.0,1.0,0.0,1.0,0.0,2.0,1.0,499.2444601669995,,,,,,,,,499.2366686250025,500.02632604200335,500.8274456670042,500.8191824590031,500.8197406670079,500.8274456670042,500.8274456670042,500.8274456670042,,502.06946495900047,,,,,,,,,,,,,,,,,,,,,,,,,,,,,,right,1.0,1.2372604999982286,,,,,sub-122,1,random_dot,,
left,left,3.0,1.0,1.0,right,0.0,0.7622452909999993,,accuracy,space,39.89190716700978,,,,,,0.0,1.0,1.0,0.0,1.0,1.0,3.0,0.0,502.07740275000106,,,,,,,,,502.06993120900006,502.159874459001,502.960569709001,502.9525127090019,502.95308258400473,502.960569709001,502.960569709001,502.960569709001,,503.7261843340093,,,,,,,,,,,,,,,,,,,,,,,,,,,,,,right,0.0,0.7622452909999993,,,,,sub-122,1,random_dot,,
left,left,4.0,0.0,2.0,left,1.0,0.957989083006396,,accuracy,space,39.89190716700978,,,,,,0.0,1.0,1.0,0.0,2.0,0.0,4.0,0.0,503.7340560000012,,,,,,,,,503.7265733750101,503.82518516700657,504.6181924170087,504.608222875002,504.6088146249968,504.6181924170087,504.6181924170087,504.6181924170087,,505.5862012090074,,,,,,,,,,,,,,,,,,,,,,,,,,,,,,left,1.0,0.957989083006396,,,,,sub-122,1,random_dot,,
right,right,5.0,1.0,2.0,right,1.0,0.6960379160009325,,accuracy,space,39.89190716700978,,,,,,0.0,1.0,1.0,0.0,2.0,1.0,5.0,1.0,505.590717250001,,,,,,,,,505.5866055420047,505.6763089590095,506.4773134999996,506.4691315840028,506.4697038340091,506.4773134999996,506.4773134999996,506.4773134999996,,507.1765666249994,,,,,,,,,,,,,,,,,,,,,,,,,,,,,,right,1.0,0.6960379160009325,,,,,sub-122,1,random_dot,,
left,left,6.0,0.0,3.0,left,1.0,0.7946768330002669,,accuracy,space,39.89190716700978,,,,,,0.0,1.0,1.0,0.0,3.0,0.0,6.0,0.0,507.1843799589988,,,,,,,,,507.17704350000713,507.52644050000526,508.32822095901065,508.31937508400006,508.32003991700185,508.32822095901065,508.32822095901065,508.32822095901065,,509.1271301670058,,,,,,,,,,,,,,,,,,,,,,,,,,,,,,left,1.0,0.7946768330002669,,,,,sub-122,1,random_dot,,
right,right,7.0,1.0,3.0,right,1.0,0.7764769159985008,,accuracy,space,39.89190716700978,,,,,,0.0,1.0,1.0,0.0,3.0,1.0,7.0,1.0,509.13494750000245,,,,,,,,,509.12760100000014,509.9253865000064,510.71855412500736,510.7090521670034,510.709663458998,510.71855412500736,510.71855412500736,510.71855412500736,,511.5028531249991,,,,,,,,,,,,,,,,,,,,,,,,,,,,,,right,1.0,0.7764769159985008,,,,,sub-122,1,random_dot,,
right,right,8.0,0.0,4.0,left,0.0,0.800930083001731,,accuracy,space,39.89190716700978,,,,,,0.0,1.0,1.0,0.0,4.0,0.0,8.0,1.0,511.5104825840099,,,,,,,,,511.5033300840005,512.2928527500044,513.0942550000036,513.0860027500021,513.0865692920052,513.0942550000036,513.0942550000036,513.0942550000036,,513.9030027090048,,,,,,,,,,,,,,,,,,,,,,,,,,,,,,left,0.0,0.800930083001731,,,,,sub-122,1,random_dot,,
left,left,9.0,1.0,4.0,right,0.0,1.0737550409976393,,accuracy,space,39.89190716700978,,,,,,0.0,1.0,1.0,0.0,4.0,1.0,9.0,0.0,513.911430084001,,,,,,,,,513.9035590420099,514.692158083999,515.4850346669991,515.4752088340028,515.4758183340018,515.4850346669991,515.4850346669991,515.4850346669991,,516.5603931670048,,,,,,,,,,,,,,,,,,,,,,,,,,,,,,right,0.0,1.0737550409976393,,,,,sub-122,1,random_dot,,
right,right,10.0,0.0,5.0,left,0.0,0.7503812909999397,,accuracy,space,39.89190716700978,,,,,,0.0,1.0,1.0,0.0,5.0,0.0,10.0,1.0,516.5682230000093,,,,,,,,,516.5608580840053,517.3600836249971,518.1609450000105,518.1527120000101,518.1532446670026,518.1609450000105,518.1609450000105,518.1609450000105,,518.9195935840107,,,,,,,,,,,,,,,,,,,,,,,,,,,,,,left,0.0,0.7503812909999397,,,,,sub-122,1,random_dot,,
left,left,11.0,1.0,5.0,left,1.0,0.7506359989929479,,accuracy,space,39.89190716700978,,,,,,0.0,1.0,1.0,0.0,5.0,1.0,11.0,0.0,518.9275473750022,,,,,,,,,518.9200643750082,519.7088110420009,520.5017749170074,520.4920251669973,520.4926362090046,520.5017749170074,520.5017749170074,520.5017749170074,,521.2627739169984,,,,,,,,,,,,,,,,,,,,,,,,,,,,,,left,1.0,0.7506359989929479,,,,,sub-122,1,random_dot,,
left,left,12.0,0.0,6.0,left,1.0,0.6754066249995958,,accuracy,space,39.89190716700978,,,,,,0.0,1.0,1.0,0.0,6.0,0.0,12.0,0.0,521.2685267089983,,,,,,,,,521.2631656250014,521.6101705420006,522.4110407090047,522.40276404201,522.403319917008,522.4110407090047,522.4110407090047,522.4110407090047,,523.0936646250047,,,,,,,,,,,,,,,,,,,,,,,,,,,,,,left,1.0,0.6754066249995958,,,,,sub-122,1,random_dot,,
right,right,13.0,1.0,6.0,left,0.0,0.4650060410058358,,accuracy,space,39.89190716700978,,,,,,0.0,1.0,1.0,0.0,6.0,1.0,13.0,1.0,523.1014744999993,,,,,,,,,523.0941246669972,524.2922470000049,525.0851634590072,525.0751109170087,525.0757193750032,525.0851634590072,525.0851634590072,525.0851634590072,,525.553571958997,,,,,,,,,,,,,,,,,,,,,,,,,,,,,,left,0.0,0.4650060410058358,,,,,sub-122,1,random_dot,,
left,left,14.0,0.0,7.0,right,0.0,0.8395267500018235,,accuracy,space,39.89190716700978,,,,,,0.0,1.0,1.0,0.0,7.0,0.0,14.0,0.0,525.5621705420053,,,,,,,,,525.5541901670076,525.9027030420111,526.6948260839999,526.686236374997,526.6867621249985,526.6948260839999,526.6948260839999,526.6948260839999,,527.536657042001,,,,,,,,,,,,,,,,,,,,,,,,,,,,,,right,0.0,0.8395267500018235,,,,,sub-122,1,random_dot,,
right,right,15.0,1.0,7.0,left,0.0,0.6686559579975437,,accuracy,space,39.89190716700978,,,,,,0.0,1.0,1.0,0.0,7.0,1.0,15.0,1.0,527.5442497920012,,,,,,,,,527.537107791999,528.7265500420035,529.5277615420055,529.5194883340009,529.5200364170014,529.5277615420055,529.5277615420055,529.5277615420055,,530.2032874590077,,,,,,,,,,,,,,,,,,,,,,,,,,,,,,left,0.0,0.6686559579975437,,,,,sub-122,1,random_dot,,
right,right,16.0,0.0,8.0,left,0.0,0.6875501659960719,,accuracy,space,39.89190716700978,,,,,,0.0,1.0,1.0,0.0,8.0,0.0,16.0,1.0,530.2111167920084,,,,,,,,,530.2037352500047,530.9936439169978,531.7949836670014,531.7861849170004,531.7867516670085,531.7949836670014,531.7949836670014,531.7949836670014,,532.4867512920027,,,,,,,,,,,,,,,,,,,,,,,,,,,,,,left,0.0,0.6875501659960719,,,,,sub-122,1,random_dot,,
left,left,17.0,1.0,8.0,left,1.0,0.5819777080032509,,accuracy,space,39.89190716700978,,,,,,0.0,1.0,1.0,0.0,8.0,1.0,17.0,0.0,532.4953710420086,,,,,,,,,532.4872956670006,532.5769571249984,533.3777912090009,533.3695297920058,533.3700784170069,533.3777912090009,533.3777912090009,533.3777912090009,,533.9702555840049,,,,,,,,,,,,,,,,,,,,,,,,,,,,,,left,1.0,0.5819777080032509,,,,,sub-122,1,random_dot,,
left,left,18.0,0.0,9.0,left,1.0,0.6149520830076654,,accuracy,space,39.89190716700978,,,,,,0.0,1.0,1.0,0.0,9.0,0.0,18.0,0.0,533.9750891669973,,,,,,,,,533.9707407920068,534.0692582500051,534.8616676670063,534.852936167008,534.8536275420047,534.8616676670063,534.8616676670063,534.8616676670063,,535.4867507919989,,,,,,,,,,,,,,,,,,,,,,,,,,,,,,left,1.0,0.6149520830076654,,,,,sub-122,1,random_dot,,
right,right,19.0,1.0,9.0,left,0.0,0.6650565000018105,,accuracy,space,39.89190716700978,,,,,,0.0,1.0,1.0,0.0,9.0,1.0,19.0,1.0,535.4946376669977,,,,,,,,,535.4872054169973,536.6759361250006,537.4687030839996,537.4590839169978,537.4597649589996,537.4687030839996,537.4687030839996,537.4687030839996,,538.1367195839994,,,,,,,,,,,,,,,,,,,,,,,,,,,,,,left,0.0,0.6650565000018105,,,,,sub-122,1,random_dot,,
left,left,20.0,0.0,10.0,left,1.0,0.62296658300329,,accuracy,space,39.89190716700978,,,,,,0.0,1.0,1.0,0.0,10.0,0.0,20.0,0.0,538.1450447500101,,,,,,,,,538.1373160000076,539.326992125003,540.1284747919999,540.119660958997,540.1203362090018,540.1284747919999,540.1284747919999,540.1284747919999,,540.7533812500042,,,,,,,,,,,,,,,,,,,,,,,,,,,,,,left,1.0,0.62296658300329,,,,,sub-122,1,random_dot,,
right,right,21.0,1.0,10.0,left,0.0,0.6548624160059262,,accuracy,space,39.89190716700978,,,,,,0.0,1.0,1.0,0.0,10.0,1.0,21.0,1.0,540.761546624999,,,,,,,,,540.7538628339971,541.9424605420063,542.7449170420005,542.7363433749997,542.7369332920061,542.7449170420005,542.7449170420005,542.7449170420005,,543.4035802919971,,,,,,,,,,,,,,,,,,,,,,,,,,,,,,left,0.0,0.6548624160059262,,,,,sub-122,1,random_dot,,
right,right,22.0,0.0,11.0,right,1.0,0.7792492910084547,,accuracy,space,39.89190716700978,,,,,,0.0,1.0,1.0,0.0,11.0,0.0,22.0,1.0,543.4120157090074,,,,,,,,,543.404239334006,544.5935342500015,545.3944192500057,545.3861648340098,545.3867135839973,545.3944192500057,545.3944192500057,545.3944192500057,,546.1775455419993,,,,,,,,,,,,,,,,,,,,,,,,,,,,,,right,1.0,0.7792492910084547,,,,,sub-122,1,random_dot,,
left,left,23.0,1.0,11.0,right,0.0,0.868622249996406,,accuracy,space,39.89190716700978,,,,,,0.0,1.0,1.0,0.0,11.0,1.0,23.0,0.0,546.1850903750019,,,,,,,,,546.1780128750106,546.9767795420048,547.7784145839978,547.7698199590086,547.7704907090083,547.7784145839978,547.7784145839978,547.7784145839978,,548.6534436250076,,,,,,,,,,,,,,,,,,,,,,,,,,,,,,right,0.0,0.868622249996406,,,,,sub-122,1,random_dot,,
right,right,24.0,0.0,12.0,left,0.0,0.7925308749981923,,accuracy,space,39.89190716700978,,,,,,0.0,1.0,1.0,0.0,12.0,0.0,24.0,1.0,548.6617220000044,,,,,,,,,548.6539798340091,549.4431818750018,550.2449277499982,550.236432375008,550.236986584001,550.2449277499982,550.2449277499982,550.2449277499982,,551.0434900840046,,,,,,,,,,,,,,,,,,,,,,,,,,,,,,left,0.0,0.7925308749981923,,,,,sub-122,1,random_dot,,
left,left,25.0,1.0,12.0,left,1.0,2.2738562080048723,,accuracy,space,39.89190716700978,,,,,,0.0,1.0,1.0,0.0,12.0,1.0,25.0,0.0,551.0522219170089,,,,,,,,,551.0438561250048,551.3934599589993,552.195454708999,552.186768708998,552.1874356250046,552.195454708999,552.195454708999,552.195454708999,,554.4772865420091,,,,,,,,,,,,,,,,,,,,,,,,,,,,,,left,1.0,2.2738562080048723,,,,,sub-122,1,random_dot,,
left,left,26.0,0.0,13.0,right,0.0,1.054766125002061,,accuracy,space,39.89190716700978,,,,,,0.0,1.0,1.0,0.0,13.0,0.0,26.0,0.0,554.4849972920056,,,,,,,,,554.4777096250036,555.6770321670047,556.4780891670089,556.4696052090003,556.4702105000033,556.4780891670089,556.4780891670089,556.4780891670089,,557.5368932920101,,,,,,,,,,,,,,,,,,,,,,,,,,,,,,right,0.0,1.054766125002061,,,,,sub-122,1,random_dot,,
right,right,27.0,1.0,13.0,left,0.0,1.814910040993709,,accuracy,space,39.89190716700978,,,,,,0.0,1.0,1.0,0.0,13.0,1.0,27.0,1.0,557.5447750000021,,,,,,,,,557.5374095000006,558.7268038339971,559.5278446250013,559.5197739170108,559.520354917011,559.5278446250013,559.5278446250013,559.5278446250013,,561.3443516249972,,,,,,,,,,,,,,,,,,,,,,,,,,,,,,left,0.0,1.814910040993709,,,,,sub-122,1,random_dot,,
left,left,28.0,0.0,14.0,right,0.0,2.416594583002734,,accuracy,space,39.89190716700978,,,,,,0.0,1.0,1.0,0.0,14.0,0.0,28.0,0.0,561.3521762090095,,,,,,,,,561.3448258340068,561.4435809999995,562.2446900420036,562.236543542007,562.2371402090066,562.2446900420036,562.2446900420036,562.2446900420036,,564.6704487920069,,,,,,,,,,,,,,,,,,,,,,,,,,,,,,right,0.0,2.416594583002734,,,,,sub-122,1,random_dot,,
right,right,29.0,1.0,14.0,left,0.0,2.0955997910059523,,accuracy,space,39.89190716700978,,,,,,0.0,1.0,1.0,0.0,14.0,1.0,29.0,1.0,564.6788954590011,,,,,,,,,564.6709354170016,564.7604974999995,565.5622676250059,565.5533473340038,565.5540015000006,565.5622676250059,565.5622676250059,565.5622676250059,,567.6604882920074,,,,,,,,,,,,,,,,,,,,,,,,,,,,,,left,0.0,2.0955997910059523,,,,,sub-122,1,random_dot,,
right,right,30.0,0.0,15.0,left,0.0,1.88229962499463,,accuracy,space,39.89190716700978,,,,,,0.0,1.0,1.0,0.0,15.0,0.0,30.0,1.0,567.668526584006,,,,,,,,,567.660957250002,568.0104234169994,568.8024074999994,568.7931862499972,568.7937902090052,568.8024074999994,568.8024074999994,568.8024074999994,,570.6872466250061,,,,,,,,,,,,,,,,,,,,,,,,,,,,,,left,0.0,1.88229962499463,,,,,sub-122,1,random_dot,,
left,left,31.0,1.0,15.0,right,0.0,0.7902679160033586,,accuracy,space,39.89190716700978,,,,,,0.0,1.0,1.0,0.0,15.0,1.0,31.0,0.0,570.6955033749982,,,,,,,,,570.6877366249973,571.8770544590079,572.6790871670091,572.6700194590085,572.6705813750013,572.6790871670091,572.6790871670091,572.6790871670091,,573.4805872919969,,,,,,,,,,,,,,,,,,,,,,,,,,,,,,right,0.0,0.7902679160033586,,,,,sub-122,1,random_dot,,
left,left,32.0,0.0,16.0,right,0.0,1.3615793749922886,,accuracy,space,39.89190716700978,,,,,,0.0,1.0,1.0,0.0,16.0,0.0,32.0,0.0,573.4851687920018,,,,,,,,,573.4810090840037,573.577422375005,574.3783655419975,574.3700340840005,574.3705840000039,574.3783655419975,574.3783655419975,574.3783655419975,,575.7441844170098,,,,,,,,,,,,,,,,,,,,,,,,,,,,,,right,0.0,1.3615793749922886,,,,,sub-122,1,random_dot,,
right,right,33.0,1.0,16.0,right,1.0,0.4283093749982072,,accuracy,space,39.89190716700978,,,,,,0.0,1.0,1.0,0.0,16.0,1.0,33.0,1.0,575.7518792920018,,,,,,,,,575.744676250004,576.9433730419987,577.7450204170018,577.7367485840077,577.7373024999979,577.7450204170018,577.7450204170018,577.7450204170018,,578.1774804590095,,,,,,,,,,,,,,,,,,,,,,,,,,,,,,right,1.0,0.4283093749982072,,,,,sub-122,1,random_dot,,
left,left,34.0,0.0,17.0,right,0.0,0.3196370830119122,,accuracy,space,39.89190716700978,,,,,,0.0,1.0,1.0,0.0,17.0,0.0,34.0,0.0,578.1852317090088,,,,,,,,,578.177944791998,578.9774824589986,579.7781385420094,579.7699590420088,579.7705032920057,579.7781385420094,579.7781385420094,579.7781385420094,,580.1038900840067,,,,,,,,,,,,,,,,,,,,,,,,,,,,,,right,0.0,0.3196370830119122,,,,,sub-122,1,random_dot,,
right,right,35.0,1.0,17.0,right,1.0,1.581959832998109,,accuracy,space,39.89190716700978,,,,,,0.0,1.0,1.0,0.0,17.0,1.0,35.0,1.0,580.1122349170037,,,,,,,,,580.1044275000022,581.29396000001,582.0956211669982,582.08681600001,582.087389709006,582.0956211669982,582.0956211669982,582.0956211669982,,583.6876457090111,,,,,,,,,,,,,,,,,,,,,,,,,,,,,,right,1.0,1.581959832998109,,,,,sub-122,1,random_dot,,
right,right,36.0,0.0,18.0,left,0.0,0.6122125830006553,,accuracy,space,39.89190716700978,,,,,,0.0,1.0,1.0,0.0,18.0,0.0,36.0,1.0,583.6963262089994,,,,,,,,,583.6882506249967,584.4859111670085,585.2782434170076,585.2700222090061,585.2705707090063,585.2782434170076,585.2782434170076,585.2782434170076,,585.894574209,,,,,,,,,,,,,,,,,,,,,,,,,,,,,,left,0.0,0.6122125830006553,,,,,sub-122,1,random_dot,,
left,left,37.0,1.0,18.0,right,0.0,0.5286347079963889,,accuracy,space,39.89190716700978,,,,,,0.0,1.0,1.0,0.0,18.0,1.0,37.0,0.0,585.9024832919968,,,,,,,,,585.8950543340034,586.6943912499992,587.495150667004,587.4868467089982,587.4873963749997,587.495150667004,587.495150667004,587.495150667004,,588.0275672920106,,,,,,,,,,,,,,,,,,,,,,,,,,,,,,right,0.0,0.5286347079963889,,,,,sub-122,1,random_dot,,
right,right,38.0,0.0,19.0,left,0.0,0.9773920830048156,,accuracy,space,39.89190716700978,,,,,,0.0,1.0,1.0,0.0,19.0,0.0,38.0,1.0,588.0353134589968,,,,,,,,,588.0280389590043,588.1279403340013,588.9290143749968,588.9203130420065,588.9209592090046,588.9290143749968,588.9290143749968,588.9290143749968,,589.9108617090096,,,,,,,,,,,,,,,,,,,,,,,,,,,,,,left,0.0,0.9773920830048156,,,,,sub-122,1,random_dot,,
left,left,39.0,1.0,19.0,left,1.0,0.8776842079969356,,accuracy,space,39.89190716700978,,,,,,0.0,1.0,1.0,0.0,19.0,1.0,39.0,0.0,589.9185231250012,,,,,,,,,589.9113282920007,590.0102237500105,590.811620834007,590.8034262500005,590.8039997919986,590.811620834007,590.811620834007,590.811620834007,,591.6938019170047,,,,,,,,,,,,,,,,,,,,,,,,,,,,,,left,1.0,0.8776842079969356,,,,,sub-122,1,random_dot,,
right,right,40.0,0.0,20.0,left,0.0,0.5369745829957537,,accuracy,space,39.89190716700978,,,,,,0.0,1.0,1.0,0.0,20.0,0.0,40.0,1.0,591.7025907500065,,,,,,,,,591.6941738340101,591.793165791998,592.586220792,592.576781959011,592.577375916997,592.586220792,592.586220792,592.586220792,,593.1279300840106,,,,,,,,,,,,,,,,,,,,,,,,,,,,,,left,0.0,0.5369745829957537,,,,,sub-122,1,random_dot,,
left,left,41.0,1.0,20.0,left,1.0,0.5628024990000995,,accuracy,space,39.89190716700978,,,,,,0.0,1.0,1.0,0.0,20.0,1.0,41.0,0.0,593.1355218340032,,,,,,,,,593.1284012500109,593.4777031670092,594.2783928749996,594.2703097920021,594.270857334006,594.2783928749996,594.2783928749996,594.2783928749996,,594.8442389590055,,,,,,,,,,,,,,,,,,,,,,,,,,,,,,left,1.0,0.5628024990000995,,,,,sub-122,1,random_dot,,
right,right,42.0,0.0,21.0,right,1.0,1.2956919580028623,,accuracy,space,39.89190716700978,,,,,,0.0,1.0,1.0,0.0,21.0,0.0,42.0,1.0,594.8518869590043,,,,,,,,,594.8446819590026,594.9441366250103,595.7450750420103,595.7369910420093,595.7375312920049,595.7450750420103,595.7450750420103,595.7450750420103,,597.044436917,,,,,,,,,,,,,,,,,,,,,,,,,,,,,,right,1.0,1.2956919580028623,,,,,sub-122,1,random_dot,,
left,left,43.0,1.0,21.0,right,0.0,0.5778075410053134,,accuracy,space,39.89190716700978,,,,,,0.0,1.0,1.0,0.0,21.0,1.0,43.0,0.0,597.0521985840023,,,,,,,,,597.0448960000067,597.394507917008,598.1950292090041,598.1868264590012,598.1874073750078,598.1950292090041,598.1950292090041,598.1950292090041,,598.7778547089983,,,,,,,,,,,,,,,,,,,,,,,,,,,,,,right,0.0,0.5778075410053134,,,,,sub-122,1,random_dot,,
right,right,44.0,0.0,22.0,right,1.0,0.5629283750022296,,accuracy,space,39.89190716700978,,,,,,0.0,1.0,1.0,0.0,22.0,0.0,44.0,1.0,598.7855953749968,,,,,,,,,598.7783219999983,599.9774252089992,600.769587584,600.7602598340018,600.7608488749975,600.769587584,600.769587584,600.769587584,,601.3376472920063,,,,,,,,,,,,,,,,,,,,,,,,,,,,,,right,1.0,0.5629283750022296,,,,,sub-122,1,random_dot,,
left,left,45.0,1.0,22.0,right,0.0,0.5865414580039214,,accuracy,space,39.89190716700978,,,,,,0.0,1.0,1.0,0.0,22.0,1.0,45.0,0.0,601.34514304201,,,,,,,,,601.3380303340091,602.5278160000016,603.328465958999,603.320242834001,603.3208037500008,603.328465958999,603.328465958999,603.328465958999,,603.9205122090061,,,,,,,,,,,,,,,,,,,,,,,,,,,,,,right,0.0,0.5865414580039214,,,,,sub-122,1,random_dot,,
left,left,46.0,0.0,23.0,right,0.0,0.7810454989958089,,accuracy,space,39.89190716700978,,,,,,0.0,1.0,1.0,0.0,23.0,0.0,46.0,0.0,603.9278417500027,,,,,,,,,603.9208686670027,604.009478292006,604.8028231670032,604.7929840840079,604.7935740420071,604.8028231670032,604.8028231670032,604.8028231670032,,605.5875152090011,,,,,,,,,,,,,,,,,,,,,,,,,,,,,,right,0.0,0.7810454989958089,,,,,sub-122,1,random_dot,,
right,right,47.0,1.0,23.0,left,0.0,1.2617993329913588,,accuracy,space,39.89190716700978,,,,,,0.0,1.0,1.0,0.0,23.0,1.0,47.0,1.0,605.5952509589988,,,,,,,,,605.5879761250108,606.3777210420085,607.1790837500012,607.1705063749978,607.1711631250073,607.1790837500012,607.1790837500012,607.1790837500012,,608.4448426669987,,,,,,,,,,,,,,,,,,,,,,,,,,,,,,left,0.0,1.2617993329913588,,,,,sub-122,1,random_dot,,
left,left,48.0,0.0,24.0,left,1.0,2.065628498996375,,accuracy,space,39.89190716700978,,,,,,0.0,1.0,1.0,0.0,24.0,0.0,48.0,0.0,608.4525045839982,,,,,,,,,608.4453151250054,609.2442816249968,610.0454596670024,610.0371435420093,610.0377103339997,610.0454596670024,610.0454596670024,610.0454596670024,,612.1209003749973,,,,,,,,,,,,,,,,,,,,,,,,,,,,,,left,1.0,2.065628498996375,,,,,sub-122,1,random_dot,,
right,right,49.0,1.0,24.0,right,1.0,2.439422208000906,,accuracy,space,39.89190716700978,,,,,,0.0,1.0,1.0,0.0,24.0,1.0,49.0,1.0,612.1289576670097,,,,,,,,,612.1213636250031,612.4609672920051,613.2621985000005,613.2538536670036,613.2544201249984,613.2621985000005,613.2621985000005,613.2621985000005,,615.7042753749993,,,,,,,,,,,,,,,,,,,,,,,,,,,,,,right,1.0,2.439422208000906,,,,,sub-122,1,random_dot,,
left,left,50.0,0.0,25.0,left,1.0,1.836889625003096,,accuracy,space,39.89190716700978,,,,,,0.0,1.0,1.0,0.0,25.0,0.0,50.0,0.0,615.7127001670015,,,,,,,,,615.7047570420109,616.0433531250019,616.8361877499992,616.8265119170101,616.8270930840081,616.8361877499992,616.8361877499992,616.8361877499992,,618.6789584590006,,,,,,,,,,,,,,,,,,,,,,,,,,,,,,left,1.0,1.836889625003096,,,,,sub-122,1,random_dot,,
right,right,51.0,1.0,25.0,left,0.0,2.237836750005954,,accuracy,space,39.89190716700978,,,,,,0.0,1.0,1.0,0.0,25.0,1.0,51.0,1.0,618.7032836669969,,,,,,,,,618.6795028339984,619.8778606670094,620.6789027500054,620.6706412500062,620.6711877089983,620.6789027500054,620.6789027500054,620.6789027500054,,622.9212851250049,,,,,,,,,,,,,,,,,,,,,,,,,,,,,,left,0.0,2.237836750005954,,,,,sub-122,1,random_dot,,
left,left,52.0,0.0,26.0,left,1.0,2.467585666003288,,accuracy,space,39.89190716700978,,,,,,0.0,1.0,1.0,0.0,26.0,0.0,52.0,0.0,622.9300126250018,,,,,,,,,622.9219145420066,623.2611826670036,624.064456084001,624.0540997089993,624.0547400840005,624.064456084001,624.064456084001,624.064456084001,,626.5376820840029,,,,,,,,,,,,,,,,,,,,,,,,,,,,,,left,1.0,2.467585666003288,,,,,sub-122,1,random_dot,,
right,right,53.0,1.0,26.0,left,0.0,0.8649717490043258,,accuracy,space,39.89190716700978,,,,,,0.0,1.0,1.0,0.0,26.0,1.0,53.0,1.0,626.5451243340067,,,,,,,,,626.5380536250013,627.32748037501,628.1197941249993,628.110290209006,628.1108717500028,628.1197941249993,628.1197941249993,628.1197941249993,,628.9878122920054,,,,,,,,,,,,,,,,,,,,,,,,,,,,,,left,0.0,0.8649717490043258,,,,,sub-122,1,random_dot,,
left,left,54.0,0.0,27.0,left,1.0,0.8345735829934711,,accuracy,space,39.89190716700978,,,,,,0.0,1.0,1.0,0.0,27.0,0.0,54.0,0.0,628.9955976250058,,,,,,,,,628.9882777500025,629.0766782499995,629.869834541998,629.8598210420023,629.8604217500106,629.869834541998,629.869834541998,629.869834541998,,630.7110897500097,,,,,,,,,,,,,,,,,,,,,,,,,,,,,,left,1.0,0.8345735829934711,,,,,sub-122,1,random_dot,,
right,right,55.0,1.0,27.0,left,0.0,0.66585699999996,,accuracy,space,39.89190716700978,,,,,,0.0,1.0,1.0,0.0,27.0,1.0,55.0,1.0,630.7200443339971,,,,,,,,,630.7115415419976,631.0612808340084,631.8624060000002,631.8541243340005,631.8546838750044,631.8624060000002,631.8624060000002,631.8624060000002,,632.5378543340048,,,,,,,,,,,,,,,,,,,,,,,,,,,,,,left,0.0,0.66585699999996,,,,,sub-122,1,random_dot,,
right,right,56.0,0.0,28.0,left,0.0,0.713531667002826,,accuracy,space,39.89190716700978,,,,,,0.0,1.0,1.0,0.0,28.0,0.0,56.0,1.0,632.5456424590084,,,,,,,,,632.5383133340074,632.877937917001,633.6795977500005,633.6708839170024,633.6715457090031,633.6795977500005,633.6795977500005,633.6795977500005,,634.4033165000001,,,,,,,,,,,,,,,,,,,,,,,,,,,,,,left,0.0,0.713531667002826,,,,,sub-122,1,random_dot,,
left,left,57.0,1.0,28.0,left,1.0,0.7808477079961449,,accuracy,space,39.89190716700978,,,,,,0.0,1.0,1.0,0.0,28.0,1.0,57.0,0.0,634.4077461249981,,,,,,,,,634.4037157090061,635.1945065000036,635.9957390000054,635.9874337920046,635.9880167500087,635.9957390000054,635.9957390000054,635.9957390000054,,636.7785416249972,,,,,,,,,,,,,,,,,,,,,,,,,,,,,,left,1.0,0.7808477079961449,,,,,sub-122,1,random_dot,,
left,left,58.0,0.0,29.0,left,1.0,1.160980875007226,,accuracy,space,39.89190716700978,,,,,,0.0,1.0,1.0,0.0,29.0,0.0,58.0,0.0,636.7865984590026,,,,,,,,,636.779012125,636.8781580000068,637.6788457920047,637.6707969590061,637.6713640840026,637.6788457920047,637.6788457920047,637.6788457920047,,638.8447288340103,,,,,,,,,,,,,,,,,,,,,,,,,,,,,,left,1.0,1.160980875007226,,,,,sub-122,1,random_dot,,
right,right,59.0,1.0,29.0,left,0.0,0.753573748996132,,accuracy,space,39.89190716700978,,,,,,0.0,1.0,1.0,0.0,29.0,1.0,59.0,1.0,638.8527295840031,,,,,,,,,638.8451898750063,638.9449012090045,639.7462859170046,639.7375358749996,639.7380896250106,639.7462859170046,639.7462859170046,639.7462859170046,,640.5050982090033,,,,,,,,,,,,,,,,,,,,,,,,,,,,,,left,0.0,0.753573748996132,,,,,sub-122,1,random_dot,,
,,1.0,1.0,0.0,,,,,accuracy,space,39.89190716700978,,,,,,0.0,1.0,1.0,0.0,,,,,,,,,,,,,,,,,,,,,,,,,,,,,,,,,,,,,,,,,,,,,,,,,,,,,,,,,,,,sub-122,1,random_dot,,
,,,,,,,,,,,,,,,,,,,,,,,,,,,,,,,,,,,,,,,,,,,,,,,,,,,,,,,,,,,,,,,,,,,,,,,,,,,,,640.5127986669977,640.522148834003,645.5100739170011,sub-122,1,random_dot,,
