direction,corrAns,randomInstr,practice_trials.thisRepN,practice_trials.thisTrialN,practice_trials.thisN,practice_trials.thisIndex,instr_trials.thisRepN,instr_trials.thisTrialN,instr_trials.thisN,instr_trials.thisIndex,test_trials.thisRepN,test_trials.thisTrialN,test_trials.thisN,test_trials.thisIndex,thisRow.t,notes,general_instruction.started,textGeneralInstr.started,respGeneralInstr.started,general_instruction.stopped,respGeneralInstr.keys,respGeneralInstr.rt,respGeneralInstr.duration,ITI.started,fixcross.started,fixcross.stopped,ITI.stopped,dots.started,backgroundDots.started,stimulusDots.started,respDots.started,stimulusDots.stopped,dots.stopped,respDots.keys,respDots.corr,respDots.rt,respDots.duration,feedback.started,textFeedback.started,feedback.stopped,textFeedback.stopped,info.started,textInfo.started,keyRespInfo.started,info.stopped,keyRespInfo.keys,keyRespInfo.rt,keyRespInfo.duration,test_instruction.started,textTestInstr.started,respTestInstr.started,test_instruction.stopped,respTestInstr.keys,respTestInstr.rt,respTestInstr.duration,random_instruction.started,textRandomInstr.started,respRandomInstr.started,random_instruction.stopped,respRandomInstr.keys,respRandomInstr.rt,respRandomInstr.duration,goodbye.started,textGoodbye.started,textGoodbye.stopped,goodbye.stopped,participant,session,expName,frameRate,Unnamed: 74
,,,,,,,,,,,,,,,,,0.0079484999878332,0.0174242000794038,0.0174242000794038,41.416251500020735,space,64.18054109998047,,,,,,,,,,,,,,,,,,,,,,,,,,,,,,,,,,,,,,,,,,,,,sub-175,1.0,random_dot,59.97681294116825,
left,left,,0.0,0.0,0.0,0.0,,,,,,,,,41.5180736000184,,,,,,,,,41.50821410003118,42.22883430006914,43.040821000002325,43.01357130007818,43.013615900068544,43.040821000002325,43.040821000002325,43.040821000002325,48.018786600092426,72.92179480008781,right,0.0,52.66949829994701,,72.95383610005956,72.99477620003745,73.46711540000979,,,,,,,,,,,,,,,,,,,,,,,,,,,sub-175,1.0,random_dot,59.97681294116825,
right,right,,0.0,1.0,1.0,1.0,,,,,,,,,73.48347940004896,,,,,,,,,73.46809370000847,73.56683750008233,74.37040510005318,74.35205910005607,74.35210920008831,74.37040510005318,74.37040510005318,74.37040510005318,79.3570333000971,80.87758140009828,right,1.0,29.29910770000424,,80.87912599998526,80.91215230000671,81.38926309999079,,,,,,,,,,,,,,,,,,,,,,,,,,,sub-175,1.0,random_dot,59.97681294116825,
left,left,,1.0,0.0,2.0,0.0,,,,,,,,,81.40560619998723,,,,,,,,,81.3903169000987,81.4891590999905,82.29267610004172,82.27405410003848,82.27410650008824,82.29267610004172,82.29267610004172,82.29267610004172,,83.47918110003229,left,1.0,23.9765774999978,,83.48056599998381,83.49083999998402,83.9753825000953,83.99062060005963,,,,,,,,,,,,,,,,,,,,,,,,,,sub-175,1.0,random_dot,59.97681294116825,
right,right,,1.0,1.0,3.0,1.0,,,,,,,,,83.99062060005963,,,,,,,,,83.9763858000515,84.09090010006912,84.89432090008631,84.87583200004883,84.8758776000468,84.89432090008631,84.89432090008631,84.89432090008631,,87.39812450006139,right,1.0,25.28454219992273,,87.39941770001315,87.40959550009575,87.89508300006855,87.91006860008929,,,,,,,,,,,,,,,,,,,,,,,,,,sub-175,1.0,random_dot,59.97681294116825,
right,right,,2.0,0.0,4.0,1.0,,,,,,,,,87.91006860008929,,,,,,,,,87.89616470003966,88.01014840009157,88.81376699998509,88.795169500052,88.7952179000713,88.81376699998509,88.81376699998509,88.81376699998509,,90.11645780003164,right,1.0,24.084906699950807,,90.11782630009112,90.12810120009816,90.61317280004732,90.62854280008467,,,,,,,,,,,,,,,,,,,,,,,,,,sub-175,1.0,random_dot,59.97681294116825,
left,left,,2.0,1.0,5.0,0.0,,,,,,,,,90.62854280008467,,,,,,,,,90.61417280009482,90.7286854000995,91.53207489999475,91.513765300042,91.51380950002932,91.53207489999475,91.53207489999475,91.53207489999475,,93.86927660007495,right,0.0,25.11721579998266,,93.87069470004644,93.89021169999614,94.38143080007283,,,,,,,,,,,,,,,,,,,,,,,,,,,sub-175,1.0,random_dot,59.97681294116825,
right,right,,3.0,0.0,6.0,1.0,,,,,,,,,94.39799080009108,,,,,,,,,94.38242280005944,94.48126790008972,95.28476499998942,95.26636560005136,95.2664157000836,95.28476499998942,95.28476499998942,95.28476499998942,,97.08810960000848,left,0.0,24.584327499964274,,97.08952280005906,97.09976430004464,97.58490240003448,97.60002970008644,,,,,,,,,,,,,,,,,,,,,,,,,,sub-175,1.0,random_dot,59.97681294116825,
left,left,,3.0,1.0,7.0,0.0,,,,,,,,,97.60002970008644,,,,,,,,,97.58587380009703,98.4007363000419,99.2040386000881,99.18569250009024,99.18573830008972,99.2040386000881,99.2040386000881,99.2040386000881,,100.29039900004864,right,0.0,23.876331500010565,,100.29174380004406,100.30169810005464,100.786921299994,100.8021114000585,,,,,,,,,,,,,,,,,,,,,,,,,,sub-175,1.0,random_dot,59.97681294116825,
left,left,,4.0,0.0,8.0,0.0,,,,,,,,,100.8021114000585,,,,,,,,,100.7878791000694,100.90236710000318,101.70578580000438,101.68742740002926,101.68747680005616,101.70578580000438,101.70578580000438,101.70578580000438,,103.85927870008165,left,1.0,24.934078399906863,,103.86056810000446,103.8772028000094,104.3715913000051,,,,,,,,,,,,,,,,,,,,,,,,,,,sub-175,1.0,random_dot,59.97681294116825,
right,right,,4.0,1.0,9.0,1.0,,,,,,,,,104.3878265999956,,,,,,,,,104.37250200007112,105.17203070002142,105.9754316000035,105.95712899998762,105.95718610007316,105.9754316000035,105.9754316000035,105.9754316000035,,107.71240469999611,right,1.0,24.52457859995775,,107.7140556999948,107.72510680009144,108.20868470007554,108.22403230005877,,,,,,,,,,,,,,,,,,,,,,,,,,sub-175,1.0,random_dot,59.97681294116825,
right,right,,5.0,0.0,10.0,1.0,,,,,,,,,108.22403230005877,,,,,,,,,108.20969110005537,109.42489160003606,110.22825939999892,110.21007660008036,110.21012519998476,110.22825939999892,110.22825939999892,110.22825939999892,,113.29963210003916,right,1.0,25.8620549000334,,113.30094830004964,113.31139600009192,113.79587640007958,113.81109970004763,,,,,,,,,,,,,,,,,,,,,,,,,,sub-175,1.0,random_dot,59.97681294116825,
left,left,,5.0,1.0,11.0,0.0,,,,,,,,,113.81109970004763,,,,,,,,,113.79688440007158,114.61178450006992,115.41516630002296,115.39691240002868,115.39696190005634,115.41516630002296,115.41516630002296,115.41516630002296,,117.65241650003009,left,1.0,25.014881600043736,,117.65401870000642,117.6638011999894,118.1487935000332,118.16420440003276,,,,,,,,,,,,,,,,,,,,,,,,,,sub-175,1.0,random_dot,59.97681294116825,
right,right,,6.0,0.0,12.0,1.0,,,,,,,,,118.16420440003276,,,,,,,,,118.14975840004628,118.26421920000575,119.0676254000282,119.04939180007204,119.04944090009668,119.0676254000282,119.0676254000282,119.0676254000282,,122.0220802000258,left,0.0,25.74299819988664,,122.02331339998636,122.04168310004752,122.5341943000676,,,,,,,,,,,,,,,,,,,,,,,,,,,sub-175,1.0,random_dot,59.97681294116825,
left,left,,6.0,1.0,13.0,0.0,,,,,,,,,122.55052940000314,,,,,,,,,122.53520070004744,123.33458200003952,124.1379644999979,124.11937810003292,124.11942520004231,124.1379644999979,124.1379644999979,124.1379644999979,,126.06141339999158,left,1.0,24.701914999983277,,126.06308069999795,126.0836120999884,126.57036860007791,,,,,,,,,,,,,,,,,,,,,,,,,,,sub-175,1.0,random_dot,59.97681294116825,
right,right,,7.0,0.0,14.0,1.0,,,,,,,,,126.58656229998452,,,,,,,,,126.57138730003498,126.92024600005244,127.72367570002098,127.70519760006572,127.70524879998992,127.72367570002098,127.72367570002098,127.72367570002098,,129.2766416000668,right,1.0,24.3375349000562,,129.27819300000556,129.28830620006192,129.77339270000812,129.7887727000052,,,,,,,,,,,,,,,,,,,,,,,,,,sub-175,1.0,random_dot,59.97681294116825,
left,left,,7.0,1.0,15.0,0.0,,,,,,,,,129.7887727000052,,,,,,,,,129.77436829998624,130.58941370004322,131.39289910008665,131.37457470002118,131.37462040001992,131.39289910008665,131.39289910008665,131.39289910008665,,135.0480002000695,left,1.0,26.447614899952896,,135.04937350004911,135.05997519998346,135.54414300003555,135.55935890006367,,,,,,,,,,,,,,,,,,,,,,,,,,sub-175,1.0,random_dot,59.97681294116825,
right,right,,8.0,0.0,16.0,1.0,,,,,,,,,135.55935890006367,,,,,,,,,135.54515960009303,136.36011870007496,137.16351650003344,137.14528769999745,137.1453429000685,137.16351650003344,137.16351650003344,137.16351650003344,,138.43265550001524,right,1.0,24.04671220004093,,138.43391470005736,138.44481560005806,138.9297742000781,138.94504280004185,,,,,,,,,,,,,,,,,,,,,,,,,,sub-175,1.0,random_dot,59.97681294116825,
left,left,,8.0,1.0,17.0,0.0,,,,,,,,,138.94504280004185,,,,,,,,,138.93075150006916,139.04514529998414,139.84858670004178,139.83027630008291,139.83032579999417,139.84858670004178,139.84858670004178,139.84858670004178,,141.08526210009586,left,1.0,24.02336059999652,,141.08675570006017,141.09738809999544,141.58140290004667,141.59703770000488,,,,,,,,,,,,,,,,,,,,,,,,,,sub-175,1.0,random_dot,59.97681294116825,
right,right,,9.0,0.0,18.0,1.0,,,,,,,,,141.59703770000488,,,,,,,,,141.58238760009408,141.94716920005158,142.75078740005847,142.73171100008767,142.73174419999123,142.75078740005847,142.75078740005847,142.75078740005847,,143.45339390006848,right,1.0,23.49013210006524,,143.454636999988,143.4647135999985,143.9495176000055,143.96512390009593,,,,,,,,,,,,,,,,,,,,,,,,,,sub-175,1.0,random_dot,59.97681294116825,
left,left,,9.0,1.0,19.0,0.0,,,,,,,,,143.96512390009593,,,,,,,,,143.95045280002523,144.76573009998538,145.56921770004556,145.55086730001494,145.5509197000647,145.56921770004556,145.56921770004556,145.56921770004556,,146.27159790007863,left,1.0,23.48271520005073,,146.27300380007364,146.28326900000684,146.7687256000936,146.78425840009004,,,,,,,,,,,,,,,,,,,,,,,,,,sub-175,1.0,random_dot,59.97681294116825,
,,,,,,,,,,,,,,,,,,,,,,,,,,,,,,,,,,,,,,,,,,146.76886860001832,146.78425840009004,146.78425840009004,155.70958480006084,space,31.71770490007475,,,,,,,,,,,,,,,,,,,,sub-175,1.0,random_dot,59.97681294116825,
,,,,,,,,,,,,,,,,,,,,,,,,,,,,,,,,,,,,,,,,,,,,,,,,,155.70966699998826,155.7244978999952,155.7244978999952,162.94840230001137,space,30.006474599940702,,,,,,,,,,,,,sub-175,1.0,random_dot,59.97681294116825,
left,left,accuracy,,,,,0.0,0.0,0.0,0.0,0.0,0.0,0.0,0.0,175.51586580008734,,,,,,,,,175.50819200009573,176.30405760009307,177.1076744000893,177.0890950000612,177.0891437000828,177.1076744000893,177.1076744000893,177.1076744000893,,178.3603506000945,left,1.0,24.03469949995633,,,,,,,,,,,,,,,,,,,,162.95897000003606,163.0171787000727,163.0171787000727,175.48940600000788,space,35.26387819997035,,,,,,sub-175,1.0,random_dot,59.97681294116825,
right,right,accuracy,,,,,0.0,0.0,0.0,0.0,0.0,1.0,1.0,1.0,178.3719434000086,,,,,,,,,178.36360809998587,179.17272630007938,179.97617110004649,179.95790790009778,179.95795970002655,179.97617110004649,179.97617110004649,179.97617110004649,,181.52944529999516,right,1.0,24.345086300047114,,,,,,,,,,,,,,,,,,,,,,,,,,,,,,,sub-175,1.0,random_dot,59.97681294116825,
left,left,accuracy,,,,,0.0,0.0,0.0,0.0,1.0,0.0,2.0,0.0,181.54079040000212,,,,,,,,,181.532266400056,182.741837700014,183.54523759998847,183.5267976000905,183.5268437000923,183.54523759998847,183.54523759998847,183.54523759998847,,184.16444060008507,left,1.0,23.39647889998741,,,,,,,,,,,,,,,,,,,,,,,,,,,,,,,sub-175,1.0,random_dot,59.97681294116825,
right,right,accuracy,,,,,0.0,0.0,0.0,0.0,1.0,1.0,3.0,1.0,184.1759787000483,,,,,,,,,184.1669358999934,184.52640229999088,185.32992660009768,185.31143660005185,185.3114865000825,185.32992660009768,185.32992660009768,185.32992660009768,,186.5327940999996,right,1.0,23.98236739996355,,,,,,,,,,,,,,,,,,,,,,,,,,,,,,,sub-175,1.0,random_dot,59.97681294116825,
left,left,accuracy,,,,,0.0,0.0,0.0,0.0,2.0,0.0,4.0,0.0,186.54427340009715,,,,,,,,,186.5353013999993,186.6444340000162,187.4479815000668,187.429612500011,187.4296576000052,187.4479815000668,187.4479815000668,187.4479815000668,,188.71786660002545,left,1.0,24.05383210000582,,,,,,,,,,,,,,,,,,,,,,,,,,,,,,,sub-175,1.0,random_dot,59.97681294116825,
right,right,accuracy,,,,,0.0,0.0,0.0,0.0,2.0,1.0,5.0,1.0,188.729081000085,,,,,,,,,188.72060080000665,189.0795237000566,189.88317130005453,189.8646086000372,189.86465660005345,189.88317130005453,189.88317130005453,189.88317130005453,,192.12048460007645,right,1.0,25.028588199988008,,,,,,,,,,,,,,,,,,,,,,,,,,,,,,,sub-175,1.0,random_dot,59.97681294116825,
right,right,accuracy,,,,,0.0,0.0,0.0,0.0,3.0,0.0,6.0,1.0,192.13136480003595,,,,,,,,,192.12334200006444,192.23170950007625,193.0351380000357,193.01685430004727,193.0169052000856,193.0351380000357,193.0351380000357,193.0351380000357,,196.7069860000629,right,1.0,26.457806199905463,,,,,,,,,,,,,,,,,,,,,,,,,,,,,,,sub-175,1.0,random_dot,59.97681294116825,
left,left,accuracy,,,,,0.0,0.0,0.0,0.0,3.0,1.0,7.0,0.0,196.71790430007968,,,,,,,,,196.71004380006343,197.9190365000395,198.72222710005008,198.7036510000471,198.7036939000245,198.72222710005008,198.72222710005008,198.72222710005008,,201.7763970000669,left,1.0,25.831300299963917,,,,,,,,,,,,,,,,,,,,,,,,,,,,,,,sub-175,1.0,random_dot,59.97681294116825,
left,left,accuracy,,,,,0.0,0.0,0.0,0.0,4.0,0.0,8.0,0.0,201.78807540005076,,,,,,,,,201.7792943000095,202.1384795000777,202.94195950008,202.92372680001424,202.92378250008915,202.94195950008,202.94195950008,202.94195950008,207.9286150999833,208.46449480007868,right,0.0,28.300071300007403,,,,,,,,,,,,,,,,,,,,,,,,,,,,,,,sub-175,1.0,random_dot,59.97681294116825,
right,right,accuracy,,,,,0.0,0.0,0.0,0.0,4.0,1.0,9.0,1.0,208.478756000055,,,,,,,,,208.46968750003725,208.82642100006345,209.6299875000259,209.6116125000408,209.61166709999088,209.6299875000259,209.6299875000259,209.6299875000259,,211.2831051000394,right,1.0,24.43222309986595,,,,,,,,,,,,,,,,,,,,,,,,,,,,,,,sub-175,1.0,random_dot,59.97681294116825,
left,left,accuracy,,,,,0.0,0.0,0.0,0.0,5.0,0.0,10.0,0.0,211.2946480000392,,,,,,,,,211.28593560005535,212.09544810000807,212.89877790003084,212.88036619999912,212.88041630003136,212.89877790003084,212.89877790003084,212.89877790003084,,214.4518782000523,left,1.0,24.34322270005941,,,,,,,,,,,,,,,,,,,,,,,,,,,,,,,sub-175,1.0,random_dot,59.97681294116825,
right,right,accuracy,,,,,0.0,0.0,0.0,0.0,5.0,1.0,11.0,1.0,214.4633458000608,,,,,,,,,214.45432400004935,214.5636755999876,215.36714550002944,215.3487603000831,215.34881210001183,215.36714550002944,215.36714550002944,215.36714550002944,,216.92080770002207,right,1.0,24.346165900002237,,,,,,,,,,,,,,,,,,,,,,,,,,,,,,,sub-175,1.0,random_dot,59.97681294116825,
right,right,accuracy,,,,,0.0,0.0,0.0,0.0,6.0,0.0,12.0,1.0,216.93185110006016,,,,,,,,,216.9235835000873,217.28220020001757,218.08575910003856,218.0674718000228,218.06752160005271,218.08575910003856,218.08575910003856,218.08575910003856,,219.5389544999925,right,1.0,24.235935400007293,,,,,,,,,,,,,,,,,,,,,,,,,,,,,,,sub-175,1.0,random_dot,59.97681294116825,
left,left,accuracy,,,,,0.0,0.0,0.0,0.0,6.0,1.0,13.0,0.0,219.5501880000811,,,,,,,,,219.54148930008523,219.6505250000628,220.4541642999975,220.4356082000304,220.4356832000194,220.4541642999975,220.4541642999975,220.4541642999975,,225.1598380000796,left,1.0,27.488022400066257,,,,,,,,,,,,,,,,,,,,,,,,,,,,,,,sub-175,1.0,random_dot,59.97681294116825,
right,right,accuracy,,,,,0.0,0.0,0.0,0.0,7.0,0.0,14.0,1.0,225.1707239000825,,,,,,,,,225.16280960000583,225.9715680000372,226.77490130008664,226.75667780009096,226.75672770000529,226.77490130008664,226.77490130008664,226.77490130008664,,227.89471970009615,right,1.0,23.907084599952213,,,,,,,,,,,,,,,,,,,,,,,,,,,,,,,sub-175,1.0,random_dot,59.97681294116825,
left,left,accuracy,,,,,0.0,0.0,0.0,0.0,7.0,1.0,15.0,0.0,227.90600700001232,,,,,,,,,227.89755360002164,228.00623360008467,228.80975380004384,228.791222400032,228.791275100084,228.80975380004384,228.80975380004384,228.80975380004384,,232.1812089000596,left,1.0,26.16312689997721,,,,,,,,,,,,,,,,,,,,,,,,,,,,,,,sub-175,1.0,random_dot,59.97681294116825,
left,left,accuracy,,,,,0.0,0.0,0.0,0.0,8.0,0.0,16.0,0.0,232.19222140009515,,,,,,,,,232.1839583000401,232.29267450002956,233.09617230005097,233.0777310000267,233.0777975000674,233.09617230005097,233.09617230005097,233.09617230005097,238.0826524000149,238.25166760000863,left,1.0,27.938422300037928,,,,,,,,,,,,,,,,,,,,,,,,,,,,,,,sub-175,1.0,random_dot,59.97681294116825,
right,right,accuracy,,,,,0.0,0.0,0.0,0.0,8.0,1.0,17.0,1.0,238.2631223000353,,,,,,,,,238.2543293000199,238.36335770005823,239.16701780003496,239.14863060007335,239.1487079000799,239.16701780003496,239.16701780003496,239.16701780003496,,241.40376660006584,right,1.0,25.01611069997307,,,,,,,,,,,,,,,,,,,,,,,,,,,,,,,sub-175,1.0,random_dot,59.97681294116825,
right,right,accuracy,,,,,0.0,0.0,0.0,0.0,9.0,0.0,18.0,1.0,241.415349900024,,,,,,,,,241.4067681999877,241.76579119998496,242.56928050005808,242.5509836000856,242.55103339999917,242.56928050005808,242.56928050005808,242.56928050005808,,244.6560627000872,right,1.0,24.863800899940543,,,,,,,,,,,,,,,,,,,,,,,,,,,,,,,sub-175,1.0,random_dot,59.97681294116825,
left,left,accuracy,,,,,0.0,0.0,0.0,0.0,9.0,1.0,19.0,0.0,244.66754310007676,,,,,,,,,244.65873989998363,245.4682509000413,246.2716607000912,246.2534514000872,246.25349939998705,246.2716607000912,246.2716607000912,246.2716607000912,,247.24095970008057,left,1.0,23.75122799992096,,,,,,,,,,,,,,,,,,,,,,,,,,,,,,,sub-175,1.0,random_dot,59.97681294116825,
right,right,accuracy,,,,,0.0,0.0,0.0,0.0,10.0,0.0,20.0,1.0,247.2526106000878,,,,,,,,,247.2437863000669,248.45370589999948,249.2570277000777,249.23865930002648,249.2387043000199,249.2570277000777,249.2570277000777,249.2570277000777,,251.02728470007423,right,1.0,24.55698329990264,,,,,,,,,,,,,,,,,,,,,,,,,,,,,,,sub-175,1.0,random_dot,59.97681294116825,
left,left,accuracy,,,,,0.0,0.0,0.0,0.0,10.0,1.0,21.0,0.0,251.0385182000464,,,,,,,,,251.03012330003548,252.2396727000596,253.0431059000548,253.0245011000661,253.0245506000938,253.0431059000548,253.0431059000548,253.0431059000548,,254.14560570009053,left,1.0,23.889983899891376,,,,,,,,,,,,,,,,,,,,,,,,,,,,,,,sub-175,1.0,random_dot,59.97681294116825,
right,right,accuracy,,,,,0.0,0.0,0.0,0.0,11.0,0.0,22.0,1.0,254.1574076000834,,,,,,,,,254.14819050009828,254.25761750002857,255.0611284000333,255.0425602000905,255.0426107000094,255.0611284000333,255.0611284000333,255.0611284000333,,257.21519710007124,right,1.0,24.942345099989325,,,,,,,,,,,,,,,,,,,,,,,,,,,,,,,sub-175,1.0,random_dot,59.97681294116825,
left,left,accuracy,,,,,0.0,0.0,0.0,0.0,11.0,1.0,23.0,0.0,257.22607420000713,,,,,,,,,257.218435900053,258.42715630005114,259.23056310007814,259.2121794000268,259.2122265000362,259.23056310007814,259.23056310007814,259.23056310007814,,261.1838831000496,left,1.0,24.73194079997484,,,,,,,,,,,,,,,,,,,,,,,,,,,,,,,sub-175,1.0,random_dot,59.97681294116825,
right,right,accuracy,,,,,0.0,0.0,0.0,0.0,12.0,0.0,24.0,1.0,261.1954805999994,,,,,,,,,261.1863778000697,261.5458417000482,262.3493128999835,262.3312570999842,262.33130750001874,262.3493128999835,262.3493128999835,262.3493128999835,,263.9357868999941,right,1.0,24.373534499900416,,,,,,,,,,,,,,,,,,,,,,,,,,,,,,,sub-175,1.0,random_dot,59.97681294116825,
left,left,accuracy,,,,,0.0,0.0,0.0,0.0,12.0,1.0,25.0,0.0,263.94731519999914,,,,,,,,,263.9383888000157,265.148324900074,265.9517956000054,265.93344570009504,265.93349379999563,265.9517956000054,265.9517956000054,265.9517956000054,270.9385980000952,271.9921498000622,left,1.0,28.831927499966696,,,,,,,,,,,,,,,,,,,,,,,,,,,,,,,sub-175,1.0,random_dot,59.97681294116825,
right,right,accuracy,,,,,0.0,0.0,0.0,0.0,13.0,0.0,26.0,1.0,272.0028725999873,,,,,,,,,271.9951895000413,272.35337810008787,273.1567634000676,273.1385311000049,273.138582100044,273.1567634000676,273.1567634000676,273.1567634000676,,274.7102179999929,right,1.0,24.33810649998486,,,,,,,,,,,,,,,,,,,,,,,,,,,,,,,sub-175,1.0,random_dot,59.97681294116825,
left,left,accuracy,,,,,0.0,0.0,0.0,0.0,13.0,1.0,27.0,0.0,274.7215655000182,,,,,,,,,274.71297720004804,275.5222225000616,276.3257512000855,276.30754400009755,276.30760840000585,276.3257512000855,276.3257512000855,276.3257512000855,,277.59516720008105,left,1.0,24.04797689989209,,,,,,,,,,,,,,,,,,,,,,,,,,,,,,,sub-175,1.0,random_dot,59.97681294116825,
right,right,accuracy,,,,,0.0,0.0,0.0,0.0,14.0,0.0,28.0,1.0,277.6068406000268,,,,,,,,,277.5979323000647,277.9571237000637,278.760697800084,278.74216250004247,278.7422067000298,278.760697800084,278.760697800084,278.760697800084,,280.964513599989,left,0.0,24.99327989993617,,,,,,,,,,,,,,,,,,,,,,,,,,,,,,,sub-175,1.0,random_dot,59.97681294116825,
left,left,accuracy,,,,,0.0,0.0,0.0,0.0,14.0,1.0,29.0,0.0,280.9758365000598,,,,,,,,,280.9673790000379,281.77651360002346,282.5798163000727,282.5614059000509,282.5614564000862,282.5798163000727,282.5798163000727,282.5798163000727,,285.00028500007465,left,1.0,25.203721400001086,,,,,,,,,,,,,,,,,,,,,,,,,,,,,,,sub-175,1.0,random_dot,59.97681294116825,
right,right,accuracy,,,,,0.0,0.0,0.0,0.0,15.0,0.0,30.0,1.0,285.01195660000667,,,,,,,,,285.0031671000179,285.1121917000273,285.9154908000492,285.89730180008337,285.89735640003346,285.9154908000492,285.9154908000492,285.9154908000492,,287.1021521000657,right,1.0,23.97870850004256,,,,,,,,,,,,,,,,,,,,,,,,,,,,,,,sub-175,1.0,random_dot,59.97681294116825,
left,left,accuracy,,,,,0.0,0.0,0.0,0.0,15.0,1.0,31.0,0.0,287.1134484000504,,,,,,,,,287.104522800073,288.3143103000475,289.1177660000976,289.09930680005345,289.09935730008874,289.1177660000976,289.1177660000976,289.1177660000976,,289.97031540004537,left,1.0,23.636616299976595,,,,,,,,,,,,,,,,,,,,,,,,,,,,,,,sub-175,1.0,random_dot,59.97681294116825,
left,left,accuracy,,,,,0.0,0.0,0.0,0.0,16.0,0.0,32.0,0.0,289.9818990000058,,,,,,,,,289.97287560009863,291.1829950000392,291.9864409000147,291.9679301000433,291.9679752000375,291.9864409000147,291.9864409000147,291.9864409000147,,294.0401799000101,left,1.0,24.83792659989558,,,,,,,,,,,,,,,,,,,,,,,,,,,,,,,sub-175,1.0,random_dot,59.97681294116825,
right,right,accuracy,,,,,0.0,0.0,0.0,0.0,16.0,1.0,33.0,1.0,294.05142120004166,,,,,,,,,294.04289570008405,294.8522212000098,295.6555298999883,295.63713470008224,295.6371841999935,295.6555298999883,295.6555298999883,295.6555298999883,,297.1920982000884,right,1.0,24.31795619998593,,,,,,,,,,,,,,,,,,,,,,,,,,,,,,,sub-175,1.0,random_dot,59.97681294116825,
left,left,accuracy,,,,,0.0,0.0,0.0,0.0,17.0,0.0,34.0,0.0,297.2036205000477,,,,,,,,,297.19484820007347,297.3038390000584,298.1075073000975,298.08916840003803,298.08921670005657,298.1075073000975,298.1075073000975,298.1075073000975,303.0939716000576,303.22948750003707,left,1.0,27.90615679998882,,,,,,,,,,,,,,,,,,,,,,,,,,,,,,,sub-175,1.0,random_dot,59.97681294116825,
right,right,accuracy,,,,,0.0,0.0,0.0,0.0,17.0,1.0,35.0,1.0,303.2410429000156,,,,,,,,,303.232096599997,303.3412586000049,304.1448006000137,304.1264163000742,304.1264666999923,304.1448006000137,304.1448006000137,304.1448006000137,,305.9312735000858,right,1.0,24.5705592999002,,,,,,,,,,,,,,,,,,,,,,,,,,,,,,,sub-175,1.0,random_dot,59.97681294116825,
right,right,accuracy,,,,,0.0,0.0,0.0,0.0,18.0,0.0,36.0,1.0,305.9428244000301,,,,,,,,,305.93385290005244,306.2933524000691,307.09684870007914,307.0783509000903,307.0784014000092,307.09684870007914,307.09684870007914,307.09684870007914,,308.51681970001664,right,1.0,24.207273100037128,,,,,,,,,,,,,,,,,,,,,,,,,,,,,,,sub-175,1.0,random_dot,59.97681294116825,
left,left,accuracy,,,,,0.0,0.0,0.0,0.0,18.0,1.0,37.0,0.0,308.5280793000711,,,,,,,,,308.5193532999838,308.87841870007105,309.68188839999493,309.66340240009595,309.6634521000087,309.68188839999493,309.68188839999493,309.68188839999493,,314.1869520000182,left,1.0,27.292683099978603,,,,,,,,,,,,,,,,,,,,,,,,,,,,,,,sub-175,1.0,random_dot,59.97681294116825,
left,left,accuracy,,,,,0.0,0.0,0.0,0.0,19.0,0.0,38.0,0.0,314.198595300084,,,,,,,,,314.1898363000946,314.9993990000803,315.8027658000356,315.78423400002066,315.78429540002253,315.8027658000356,315.8027658000356,315.8027658000356,,317.0056581000099,left,1.0,23.98162450001109,,,,,,,,,,,,,,,,,,,,,,,,,,,,,,,sub-175,1.0,random_dot,59.97681294116825,
right,right,accuracy,,,,,0.0,0.0,0.0,0.0,19.0,1.0,39.0,1.0,317.01709700003266,,,,,,,,,317.0085324000101,317.11740320001263,317.9208808999974,317.9023541000206,317.9024082000833,317.9208808999974,317.9208808999974,317.9208808999974,,319.1737348000752,right,1.0,24.033560100011528,,,,,,,,,,,,,,,,,,,,,,,,,,,,,,,sub-175,1.0,random_dot,59.97681294116825,
right,right,accuracy,,,,,0.0,0.0,0.0,0.0,20.0,0.0,40.0,1.0,319.1852478000801,,,,,,,,,319.1762000999879,319.98598050000146,320.789423200069,320.77092150005046,320.77096009999514,320.789423200069,320.789423200069,320.789423200069,,321.65916500007734,right,1.0,23.65527430002112,,,,,,,,,,,,,,,,,,,,,,,,,,,,,,,sub-175,1.0,random_dot,59.97681294116825,
left,left,accuracy,,,,,0.0,0.0,0.0,0.0,20.0,1.0,41.0,0.0,321.67027210001834,,,,,,,,,321.6619332000846,322.8713228000561,323.6749768999871,323.6563634000486,323.6564089000458,323.6749768999871,323.6749768999871,323.6749768999871,,324.74436170002446,left,1.0,23.860732799977995,,,,,,,,,,,,,,,,,,,,,,,,,,,,,,,sub-175,1.0,random_dot,59.97681294116825,
right,right,accuracy,,,,,0.0,0.0,0.0,0.0,21.0,0.0,42.0,1.0,324.7557839000365,,,,,,,,,324.74697119998746,325.556565899984,326.36006099998485,326.3415375000332,326.3415821000235,326.36006099998485,326.36006099998485,326.36006099998485,,327.5460793999955,right,1.0,23.96446359995753,,,,,,,,,,,,,,,,,,,,,,,,,,,,,,,sub-175,1.0,random_dot,59.97681294116825,
left,left,accuracy,,,,,0.0,0.0,0.0,0.0,21.0,1.0,43.0,0.0,327.5577977000503,,,,,,,,,327.54854830005206,327.658139300067,328.46148180007003,328.442996900063,328.44304829998873,328.46148180007003,328.46148180007003,328.46148180007003,,332.4328148000641,left,1.0,26.753618799964897,,,,,,,,,,,,,,,,,,,,,,,,,,,,,,,sub-175,1.0,random_dot,59.97681294116825,
left,left,accuracy,,,,,0.0,0.0,0.0,0.0,22.0,0.0,44.0,0.0,332.4445599000901,,,,,,,,,332.4354569000425,332.544697000063,333.3483270000433,333.32998360006604,333.33005650003906,333.3483270000433,333.3483270000433,333.3483270000433,,335.9518495000666,left,1.0,25.38610809994861,,,,,,,,,,,,,,,,,,,,,,,,,,,,,,,sub-175,1.0,random_dot,59.97681294116825,
right,right,accuracy,,,,,0.0,0.0,0.0,0.0,22.0,1.0,45.0,1.0,335.9635960999876,,,,,,,,,335.9546430000337,337.1645606000675,337.96807609999087,337.94960160006303,337.9496470000595,337.96807609999087,337.96807609999087,337.96807609999087,,339.2207212999929,right,1.0,24.03639100003056,,,,,,,,,,,,,,,,,,,,,,,,,,,,,,,sub-175,1.0,random_dot,59.97681294116825,
right,right,accuracy,,,,,0.0,0.0,0.0,0.0,23.0,0.0,46.0,1.0,339.23246030008886,,,,,,,,,339.2233065000037,339.3326969000045,340.1362975999946,340.117716900073,340.11776620009914,340.1362975999946,340.1362975999946,340.1362975999946,,342.25641730008647,right,1.0,24.89823970000725,,,,,,,,,,,,,,,,,,,,,,,,,,,,,,,sub-175,1.0,random_dot,59.97681294116825,
left,left,accuracy,,,,,0.0,0.0,0.0,0.0,23.0,1.0,47.0,0.0,342.2678738000104,,,,,,,,,342.25906340009533,343.06861770001706,343.87209900002927,343.8535845000297,343.8536331000505,343.87209900002927,343.87209900002927,343.87209900002927,,346.82623380003497,left,1.0,25.73230220004916,,,,,,,,,,,,,,,,,,,,,,,,,,,,,,,sub-175,1.0,random_dot,59.97681294116825,
right,right,accuracy,,,,,0.0,0.0,0.0,0.0,24.0,0.0,48.0,1.0,346.837516300031,,,,,,,,,346.8297504000366,346.93787190003786,347.74141120002605,347.723015399999,347.72306340001523,347.74141120002605,347.74141120002605,347.74141120002605,,349.52837780001573,right,1.0,24.57340939994901,,,,,,,,,,,,,,,,,,,,,,,,,,,,,,,sub-175,1.0,random_dot,59.97681294116825,
left,left,accuracy,,,,,0.0,0.0,0.0,0.0,24.0,1.0,49.0,0.0,349.5394332000287,,,,,,,,,349.5312496999977,350.7404660000466,351.5440432000905,351.52540060004685,351.5254537999863,351.5440432000905,351.5440432000905,351.5440432000905,,352.279901000089,left,1.0,23.5208254000172,,,,,,,,,,,,,,,,,,,,,,,,,,,,,,,sub-175,1.0,random_dot,59.97681294116825,
right,right,accuracy,,,,,0.0,0.0,0.0,0.0,25.0,0.0,50.0,1.0,352.291368800099,,,,,,,,,352.282616600045,353.0922013000818,353.8957472000038,353.8769588000141,353.8770046000136,353.8957472000038,353.8957472000038,353.8957472000038,,357.23373380000703,right,1.0,26.12028349994216,,,,,,,,,,,,,,,,,,,,,,,,,,,,,,,sub-175,1.0,random_dot,59.97681294116825,
left,left,accuracy,,,,,0.0,0.0,0.0,0.0,25.0,1.0,51.0,0.0,357.2446765000932,,,,,,,,,357.2370541000273,357.5952164999908,358.3987285000039,358.38040880009066,358.3804577999981,358.3987285000039,358.3987285000039,358.3987285000039,,359.78562340000644,left,1.0,24.17747619992588,,,,,,,,,,,,,,,,,,,,,,,,,,,,,,,sub-175,1.0,random_dot,59.97681294116825,
left,left,accuracy,,,,,0.0,0.0,0.0,0.0,26.0,0.0,52.0,0.0,359.7964642000152,,,,,,,,,359.7884793000994,359.8968326000031,360.7002955999924,360.6820109999972,360.68206220003776,360.7002955999924,360.7002955999924,360.7002955999924,,363.57065940008033,left,1.0,25.655763599905185,,,,,,,,,,,,,,,,,,,,,,,,,,,,,,,sub-175,1.0,random_dot,59.97681294116825,
right,right,accuracy,,,,,0.0,0.0,0.0,0.0,26.0,1.0,53.0,1.0,363.5824380000122,,,,,,,,,363.5730865000514,364.383279700065,365.1866583999945,365.1682718000375,365.16834580001887,365.1866583999945,365.1866583999945,365.1866583999945,,366.20678610005416,right,1.0,23.80914409994148,,,,,,,,,,,,,,,,,,,,,,,,,,,,,,,sub-175,1.0,random_dot,59.97681294116825,
left,left,accuracy,,,,,0.0,0.0,0.0,0.0,27.0,0.0,54.0,0.0,366.2174932000926,,,,,,,,,366.2097311000107,367.4185211000731,368.22212010005023,368.20369150000624,368.2037399000256,368.22212010005023,368.22212010005023,368.22212010005023,,368.95819590007886,right,0.0,23.513708400074396,,,,,,,,,,,,,,,,,,,,,,,,,,,,,,,sub-175,1.0,random_dot,59.97681294116825,
right,right,accuracy,,,,,0.0,0.0,0.0,0.0,27.0,1.0,55.0,1.0,368.96962700004224,,,,,,,,,368.9612930000294,369.770268100081,370.5736171000172,370.55550340004265,370.5555538000772,370.5736171000172,370.5736171000172,370.5736171000172,,372.0604943000944,right,1.0,24.272063300013546,,,,,,,,,,,,,,,,,,,,,,,,,,,,,,,sub-175,1.0,random_dot,59.97681294116825,
left,left,accuracy,,,,,0.0,0.0,0.0,0.0,28.0,0.0,56.0,0.0,372.07152320002206,,,,,,,,,372.0637422000291,372.8723079999909,373.6757744000061,373.65738570003305,373.6574349000584,373.6757744000061,373.6757744000061,373.6757744000061,,374.7618067000294,left,1.0,23.86988129990641,,,,,,,,,,,,,,,,,,,,,,,,,,,,,,,sub-175,1.0,random_dot,59.97681294116825,
right,right,accuracy,,,,,0.0,0.0,0.0,0.0,28.0,1.0,57.0,1.0,374.7735194000416,,,,,,,,,374.7643511000788,375.97435979999136,376.7780311000533,376.759470500052,376.75952160009183,376.7780311000533,376.7780311000533,376.7780311000533,,379.7489135999931,right,1.0,25.757986499927934,,,,,,,,,,,,,,,,,,,,,,,,,,,,,,,sub-175,1.0,random_dot,59.97681294116825,
left,left,accuracy,,,,,0.0,0.0,0.0,0.0,29.0,0.0,58.0,0.0,379.76038230001,,,,,,,,,379.7516774000833,380.9613744000672,381.7647734000348,381.746358100092,381.7464078000048,381.7647734000348,381.7647734000348,381.7647734000348,,383.30121730000246,left,1.0,24.3223395999521,,,,,,,,,,,,,,,,,,,,,,,,,,,,,,,sub-175,1.0,random_dot,59.97681294116825,
right,right,accuracy,,,,,0.0,0.0,0.0,0.0,29.0,1.0,59.0,1.0,383.31257180008106,,,,,,,,,383.30374870006926,383.663112899987,384.4666127000237,384.4481586000184,384.44821380008943,384.4666127000237,384.4666127000237,384.4666127000237,,386.3367336000083,right,1.0,24.64880159997847,,,,,,,,,,,,,,,,,,,,,,,,,,,,,,,sub-175,1.0,random_dot,59.97681294116825,
,,accuracy,,,,,0.0,0.0,0.0,0.0,,,,,,,,,,,,,,,,,,,,,,,,,,,,,,,,,,,,,,,,,,,,,,,,,,,,,,,,,sub-175,1.0,random_dot,59.97681294116825,
left,left,speed,,,,,0.0,1.0,1.0,1.0,0.0,0.0,0.0,0.0,390.3950050000567,,,,,,,,,390.3882094000001,391.1849303999916,391.9883612000849,391.9699335000478,391.9699825000717,391.9883612000849,391.9883612000849,391.9883612000849,,393.1246444000863,left,1.0,23.9271467999788,,,,,,,,,,,,,,,,,,,,386.3392614000477,386.373408399988,386.373408399988,390.3700870000757,space,26.77363939990755,,,,,,sub-175,1.0,random_dot,59.97681294116825,
right,right,speed,,,,,0.0,1.0,1.0,1.0,0.0,1.0,1.0,1.0,393.1360062999884,,,,,,,,,393.1277561000316,394.3369254000718,395.1405006999848,395.1219782000408,395.1220257000532,395.1405006999848,395.1405006999848,395.1405006999848,,395.8097559000598,right,1.0,23.44675689993892,,,,,,,,,,,,,,,,,,,,,,,,,,,,,,,sub-175,1.0,random_dot,59.97681294116825,
left,left,speed,,,,,0.0,1.0,1.0,1.0,1.0,0.0,2.0,0.0,395.8211873000255,,,,,,,,,395.8122673000908,395.92148160003126,396.7249726000009,396.706478600041,396.7065240000375,396.7249726000009,396.7249726000009,396.7249726000009,,397.9111161000328,left,1.0,23.972283199895173,,,,,,,,,,,,,,,,,,,,,,,,,,,,,,,sub-175,1.0,random_dot,59.97681294116825,
right,right,speed,,,,,0.0,1.0,1.0,1.0,1.0,1.0,3.0,1.0,397.9226471000584,,,,,,,,,397.9139334000647,398.0231118000811,398.82657640008256,398.8081955000525,398.8082517000148,398.82657640008256,398.82657640008256,398.82657640008256,,399.362248999998,right,1.0,23.31932300003245,,,,,,,,,,,,,,,,,,,,,,,,,,,,,,,sub-175,1.0,random_dot,59.97681294116825,
left,left,speed,,,,,0.0,1.0,1.0,1.0,2.0,0.0,4.0,0.0,399.3737451999914,,,,,,,,,399.36528600007296,400.1744313000236,400.9779138000449,400.9596430000384,400.9596912000561,400.9779138000449,400.9779138000449,400.9779138000449,,401.4135100999847,left,1.0,23.2188094999874,,,,,,,,,,,,,,,,,,,,,,,,,,,,,,,sub-175,1.0,random_dot,59.97681294116825,
right,right,speed,,,,,0.0,1.0,1.0,1.0,2.0,1.0,5.0,1.0,401.425137000042,,,,,,,,,401.4158866000362,402.6260828000959,403.4294974000659,403.4109739999985,403.4110190999927,403.4294974000659,403.4294974000659,403.4294974000659,,403.8990940999938,right,1.0,23.257503999979235,,,,,,,,,,,,,,,,,,,,,,,,,,,,,,,sub-175,1.0,random_dot,59.97681294116825,
right,right,speed,,,,,0.0,1.0,1.0,1.0,3.0,0.0,6.0,1.0,403.91011110006366,,,,,,,,,403.9017914000433,404.01048110006377,404.8138929000124,404.795540500083,404.79559029999655,404.8138929000124,404.8138929000124,404.8138929000124,,405.4327160000103,right,1.0,23.40263220004272,,,,,,,,,,,,,,,,,,,,,,,,,,,,,,,sub-175,1.0,random_dot,59.97681294116825,
left,left,speed,,,,,0.0,1.0,1.0,1.0,3.0,1.0,7.0,0.0,405.44442130008247,,,,,,,,,405.43531259999145,406.6455536000431,407.448932700092,407.4306493999902,407.43069900001865,407.448932700092,407.448932700092,407.448932700092,,408.0181834000396,left,1.0,23.347574399900623,,,,,,,,,,,,,,,,,,,,,,,,,,,,,,,sub-175,1.0,random_dot,59.97681294116825,
right,right,speed,,,,,0.0,1.0,1.0,1.0,4.0,0.0,8.0,1.0,408.0295489000855,,,,,,,,,408.0208958000876,409.2306374000618,410.0341592000332,410.0156738000224,410.0157193000196,410.0341592000332,410.0341592000332,410.0341592000332,,410.73642890003975,right,1.0,23.48286960006226,,,,,,,,,,,,,,,,,,,,,,,,,,,,,,,sub-175,1.0,random_dot,59.97681294116825,
left,left,speed,,,,,0.0,1.0,1.0,1.0,4.0,1.0,9.0,0.0,410.7482000000309,,,,,,,,,410.7389288999839,410.8484581999946,411.65176640008576,411.6335867000744,411.6336369999917,411.65176640008576,411.65176640008576,411.65176640008576,,412.6714259000728,left,1.0,23.806252099922855,,,,,,,,,,,,,,,,,,,,,,,,,,,,,,,sub-175,1.0,random_dot,59.97681294116825,
left,left,speed,,,,,0.0,1.0,1.0,1.0,5.0,0.0,10.0,0.0,412.6828238000162,,,,,,,,,412.6739491000772,413.4835619000951,414.2869981999975,414.2686200999888,414.2686667999951,414.2869981999975,414.2869981999975,414.2869981999975,,414.8726464000065,right,0.0,23.37106470006984,,,,,,,,,,,,,,,,,,,,,,,,,,,,,,,sub-175,1.0,random_dot,59.97681294116825,
right,right,speed,,,,,0.0,1.0,1.0,1.0,5.0,1.0,11.0,1.0,414.884470500052,,,,,,,,,414.8754552000901,414.9845512000611,415.7881962000392,415.7696450999938,415.7696947000222,415.7881962000392,415.7881962000392,415.7881962000392,,416.57376150006894,right,1.0,23.56815519998781,,,,,,,,,,,,,,,,,,,,,,,,,,,,,,,sub-175,1.0,random_dot,59.97681294116825,
right,right,speed,,,,,0.0,1.0,1.0,1.0,6.0,0.0,12.0,1.0,416.5855453000404,,,,,,,,,416.5763009000802,416.6856692000292,417.4891991000623,417.4707204999868,417.4707798000891,417.4891991000623,417.4891991000623,417.4891991000623,,418.72567750001326,right,1.0,24.027954600052908,,,,,,,,,,,,,,,,,,,,,,,,,,,,,,,sub-175,1.0,random_dot,59.97681294116825,
left,left,speed,,,,,0.0,1.0,1.0,1.0,6.0,1.0,13.0,0.0,418.7370067000156,,,,,,,,,418.7282466000179,419.0873926000204,419.8908085000003,419.872498700046,419.872563800076,419.8908085000003,419.8908085000003,419.8908085000003,,420.65997140004765,left,1.0,23.54606789990794,,,,,,,,,,,,,,,,,,,,,,,,,,,,,,,sub-175,1.0,random_dot,59.97681294116825,
left,left,speed,,,,,0.0,1.0,1.0,1.0,7.0,0.0,14.0,0.0,420.6715851000045,,,,,,,,,420.66241480002645,421.47253400005866,422.27595140005,422.2573586000362,422.25740890007,422.27595140005,422.27595140005,422.27595140005,,423.2453395000193,left,1.0,23.760509999934584,,,,,,,,,,,,,,,,,,,,,,,,,,,,,,,sub-175,1.0,random_dot,59.97681294116825,
right,right,speed,,,,,0.0,1.0,1.0,1.0,7.0,1.0,15.0,1.0,423.2567142000189,,,,,,,,,423.24784389999695,424.4578550000442,425.26119700004347,425.2427865000209,425.242833300028,425.26119700004347,425.26119700004347,425.26119700004347,,426.46421490004286,right,1.0,23.986604299978357,,,,,,,,,,,,,,,,,,,,,,,,,,,,,,,sub-175,1.0,random_dot,59.97681294116825,
left,left,speed,,,,,0.0,1.0,1.0,1.0,8.0,0.0,16.0,0.0,426.47566250001546,,,,,,,,,426.4669987000525,426.5757914000424,427.3792981000152,427.3610280000139,427.3610773000401,427.3792981000152,427.3792981000152,427.3792981000152,,430.14987379999366,right,0.0,25.54785049997736,,,,,,,,,,,,,,,,,,,,,,,,,,,,,,,sub-175,1.0,random_dot,59.97681294116825,
right,right,speed,,,,,0.0,1.0,1.0,1.0,8.0,1.0,17.0,1.0,430.16146630002186,,,,,,,,,430.1525572000537,430.96214260009583,431.76560290006455,431.747332100058,431.7473810000811,431.76560290006455,431.76560290006455,431.76560290006455,,432.6351774000796,right,1.0,23.652022999944165,,,,,,,,,,,,,,,,,,,,,,,,,,,,,,,sub-175,1.0,random_dot,59.97681294116825,
right,right,speed,,,,,0.0,1.0,1.0,1.0,9.0,0.0,18.0,1.0,432.64669349999167,,,,,,,,,432.637836500071,432.7468420000514,433.5503085000673,433.5318947000196,433.53194300003815,433.5503085000673,433.5503085000673,433.5503085000673,,434.3862256000284,right,1.0,23.61666010005865,,,,,,,,,,,,,,,,,,,,,,,,,,,,,,,sub-175,1.0,random_dot,59.97681294116825,
left,left,speed,,,,,0.0,1.0,1.0,1.0,9.0,1.0,19.0,0.0,434.3976430000039,,,,,,,,,434.38877580000553,435.198434800026,436.0018683000235,435.9835230000317,435.9835670000175,436.0018683000235,436.0018683000235,436.0018683000235,,440.2576374000637,left,1.0,27.04480949998833,,,,,,,,,,,,,,,,,,,,,,,,,,,,,,,sub-175,1.0,random_dot,59.97681294116825,
right,right,speed,,,,,0.0,1.0,1.0,1.0,10.0,0.0,20.0,1.0,440.2684427000349,,,,,,,,,440.2610889000353,441.0690636000363,441.872531900066,441.8539729000768,441.8540197000839,441.872531900066,441.872531900066,441.872531900066,,442.7918064000551,right,1.0,23.69655259989668,,,,,,,,,,,,,,,,,,,,,,,,,,,,,,,sub-175,1.0,random_dot,59.97681294116825,
left,left,speed,,,,,0.0,1.0,1.0,1.0,10.0,1.0,21.0,0.0,442.8036065000342,,,,,,,,,442.7947261000518,444.0044780999888,444.8079110000981,444.7895870000357,444.7896320000291,444.8079110000981,444.8079110000981,444.8079110000981,,446.2776891000103,left,1.0,24.250614899909124,,,,,,,,,,,,,,,,,,,,,,,,,,,,,,,sub-175,1.0,random_dot,59.97681294116825,
left,left,speed,,,,,0.0,1.0,1.0,1.0,11.0,0.0,22.0,0.0,446.289293400012,,,,,,,,,446.2803508000216,447.0900339999935,447.8934794000816,447.8748890000861,447.874933800078,447.8934794000816,447.8934794000816,447.8934794000816,,452.81553970009554,left,1.0,27.704413200030103,,,,,,,,,,,,,,,,,,,,,,,,,,,,,,,sub-175,1.0,random_dot,59.97681294116825,
right,right,speed,,,,,0.0,1.0,1.0,1.0,11.0,1.0,23.0,1.0,452.82710860006046,,,,,,,,,452.8183748000301,453.62781950004864,454.431261699996,454.4129601999885,454.41301460005343,454.431261699996,454.431261699996,454.431261699996,,455.2336606000317,right,1.0,23.58626880007796,,,,,,,,,,,,,,,,,,,,,,,,,,,,,,,sub-175,1.0,random_dot,59.97681294116825,
left,left,speed,,,,,0.0,1.0,1.0,1.0,12.0,0.0,24.0,0.0,455.245488399989,,,,,,,,,455.2366743000457,456.0461556999944,456.8496317000827,456.8309356000973,456.830981300096,456.8496317000827,456.8496317000827,456.8496317000827,,460.5372847000836,left,1.0,26.46788240002934,,,,,,,,,,,,,,,,,,,,,,,,,,,,,,,sub-175,1.0,random_dot,59.97681294116825,
right,right,speed,,,,,0.0,1.0,1.0,1.0,12.0,1.0,25.0,1.0,460.5489945000736,,,,,,,,,460.53988330008,460.6492021000013,461.4527987000765,461.4343299000757,461.4343796999892,461.4527987000765,461.4527987000765,461.4527987000765,,462.3892156000948,right,1.0,23.724987699999478,,,,,,,,,,,,,,,,,,,,,,,,,,,,,,,sub-175,1.0,random_dot,59.97681294116825,
left,left,speed,,,,,0.0,1.0,1.0,1.0,13.0,0.0,26.0,0.0,462.40024149999954,,,,,,,,,462.3921835999936,462.5005787999835,463.3040950000286,463.2856008000672,463.2856594000477,463.3040950000286,463.3040950000286,463.3040950000286,468.2905316000106,469.0102989000734,right,0.0,28.483714599977247,,,,,,,,,,,,,,,,,,,,,,,,,,,,,,,sub-175,1.0,random_dot,59.97681294116825,
right,right,speed,,,,,0.0,1.0,1.0,1.0,13.0,1.0,27.0,1.0,469.0215707999887,,,,,,,,,469.0136821999913,469.12182270002086,469.9254430000437,469.90676040004473,469.9068115000846,469.9254430000437,469.9254430000437,469.9254430000437,,470.94461640005466,right,1.0,23.80226549995132,,,,,,,,,,,,,,,,,,,,,,,,,,,,,,,sub-175,1.0,random_dot,59.97681294116825,
left,left,speed,,,,,0.0,1.0,1.0,1.0,14.0,0.0,28.0,0.0,470.95612710004207,,,,,,,,,470.94753120001405,471.7569630000508,472.5603793000337,472.541853700066,472.5418999000685,472.5603793000337,472.5603793000337,472.5603793000337,,473.47992250008974,left,1.0,23.697044999920763,,,,,,,,,,,,,,,,,,,,,,,,,,,,,,,sub-175,1.0,random_dot,59.97681294116825,
right,right,speed,,,,,0.0,1.0,1.0,1.0,14.0,1.0,29.0,1.0,473.49118010001257,,,,,,,,,473.4826579000801,474.29188510007225,475.0954459999921,475.0767008000985,475.0767460000934,475.0954459999921,475.0954459999921,475.0954459999921,,477.516895400011,right,1.0,25.213530499953777,,,,,,,,,,,,,,,,,,,,,,,,,,,,,,,sub-175,1.0,random_dot,59.97681294116825,
right,right,speed,,,,,0.0,1.0,1.0,1.0,15.0,0.0,30.0,1.0,477.5273121000501,,,,,,,,,477.5198280999903,478.3280261000618,479.1315888999961,479.1132396000903,479.1132890000008,479.1315888999961,479.1315888999961,479.1315888999961,,483.3201593999984,left,0.0,26.976560099981725,,,,,,,,,,,,,,,,,,,,,,,,,,,,,,,sub-175,1.0,random_dot,59.97681294116825,
left,left,speed,,,,,0.0,1.0,1.0,1.0,15.0,1.0,31.0,0.0,483.3312272999901,,,,,,,,,483.3228063000133,484.5323231000221,485.3360479000257,485.3174527999945,485.3175022000214,485.3360479000257,485.3360479000257,485.3360479000257,,485.9218752000015,right,0.0,23.373772299964912,,,,,,,,,,,,,,,,,,,,,,,,,,,,,,,sub-175,1.0,random_dot,59.97681294116825,
left,left,speed,,,,,0.0,1.0,1.0,1.0,16.0,0.0,32.0,0.0,485.9329575999873,,,,,,,,,485.9245330999838,486.73369080002885,487.53742529999,487.5188699000282,487.5189196000574,487.53742529999,487.53742529999,487.53742529999,,488.2735868000891,right,0.0,23.521989800035957,,,,,,,,,,,,,,,,,,,,,,,,,,,,,,,sub-175,1.0,random_dot,59.97681294116825,
right,right,speed,,,,,0.0,1.0,1.0,1.0,16.0,1.0,33.0,1.0,488.2847378000152,,,,,,,,,488.2762393000303,488.3849213999929,489.1884253000608,489.17009230004624,489.17014140007086,489.1884253000608,489.1884253000608,489.1884253000608,,490.3079514000565,right,1.0,23.91033999994397,,,,,,,,,,,,,,,,,,,,,,,,,,,,,,,sub-175,1.0,random_dot,59.97681294116825,
left,left,speed,,,,,0.0,1.0,1.0,1.0,17.0,0.0,34.0,0.0,490.3194044000702,,,,,,,,,490.3103030000348,490.4196918000234,491.2231681999983,491.2045719000744,491.2046254000161,491.2231681999983,491.2231681999983,491.2231681999983,,492.34283219999634,left,1.0,23.90633989998605,,,,,,,,,,,,,,,,,,,,,,,,,,,,,,,sub-175,1.0,random_dot,59.97681294116825,
right,right,speed,,,,,0.0,1.0,1.0,1.0,17.0,1.0,35.0,1.0,492.35429570009,,,,,,,,,492.3454180000117,492.4544344000751,493.2579362000106,493.23942830006126,493.23947750008665,493.2579362000106,493.2579362000106,493.2579362000106,,497.3126521999948,left,0.0,26.841155499918383,,,,,,,,,,,,,,,,,,,,,,,,,,,,,,,sub-175,1.0,random_dot,59.97681294116825,
right,right,speed,,,,,0.0,1.0,1.0,1.0,18.0,0.0,36.0,1.0,497.32451100007165,,,,,,,,,497.31538520008326,498.5253165999893,499.32868140004575,499.3101124000968,499.3101597999921,499.32868140004575,499.32868140004575,499.32868140004575,,500.5819506000262,right,1.0,24.039894300047308,,,,,,,,,,,,,,,,,,,,,,,,,,,,,,,sub-175,1.0,random_dot,59.97681294116825,
left,left,speed,,,,,0.0,1.0,1.0,1.0,18.0,1.0,37.0,0.0,500.593339300016,,,,,,,,,500.5846169000724,501.3939230000833,502.1972670000978,502.1790930000134,502.1791414000327,502.1972670000978,502.1972670000978,502.1972670000978,,502.9664401999908,right,0.0,23.551256399950944,,,,,,,,,,,,,,,,,,,,,,,,,,,,,,,sub-175,1.0,random_dot,59.97681294116825,
right,right,speed,,,,,0.0,1.0,1.0,1.0,19.0,0.0,38.0,1.0,502.9781504999846,,,,,,,,,502.968933199998,503.7789466000395,504.58248800004367,504.56386490003206,504.563912600046,504.58248800004367,504.58248800004367,504.58248800004367,,505.4353026000317,right,1.0,23.63716249994468,,,,,,,,,,,,,,,,,,,,,,,,,,,,,,,sub-175,1.0,random_dot,59.97681294116825,
left,left,speed,,,,,0.0,1.0,1.0,1.0,19.0,1.0,39.0,0.0,505.4466881999979,,,,,,,,,505.4380959999981,506.64751190005336,507.45091820007656,507.4324926000554,507.4325407000724,507.45091820007656,507.45091820007656,507.45091820007656,,508.1870656000683,left,1.0,23.52749829995446,,,,,,,,,,,,,,,,,,,,,,,,,,,,,,,sub-175,1.0,random_dot,59.97681294116825,
right,right,speed,,,,,0.0,1.0,1.0,1.0,20.0,0.0,40.0,1.0,508.1985610000556,,,,,,,,,508.1896259000059,508.2986145000905,509.1021359000588,509.08369370002765,509.0837426000508,509.1021359000588,509.1021359000588,509.1021359000588,,512.5899407000979,right,1.0,26.266734699951485,,,,,,,,,,,,,,,,,,,,,,,,,,,,,,,sub-175,1.0,random_dot,59.97681294116825,
left,left,speed,,,,,0.0,1.0,1.0,1.0,20.0,1.0,41.0,0.0,512.6013787999982,,,,,,,,,512.59285060002,512.7016703000991,513.5053764000768,513.4867913000053,513.4868409000337,513.5053764000768,513.5053764000768,513.5053764000768,,514.4078223000979,right,0.0,23.68279380002059,,,,,,,,,,,,,,,,,,,,,,,,,,,,,,,sub-175,1.0,random_dot,59.97681294116825,
left,left,speed,,,,,0.0,1.0,1.0,1.0,21.0,0.0,42.0,0.0,514.4192644000286,,,,,,,,,514.4104850000003,515.219988900004,516.0234613000648,516.0051042000996,516.0051481000846,516.0234613000648,516.0234613000648,516.0234613000648,,517.9603460000362,right,0.0,24.71483770001214,,,,,,,,,,,,,,,,,,,,,,,,,,,,,,,sub-175,1.0,random_dot,59.97681294116825,
right,right,speed,,,,,0.0,1.0,1.0,1.0,21.0,1.0,43.0,1.0,517.9716667000903,,,,,,,,,517.9632369000465,518.7724520000629,519.5759412000189,519.5575571000809,519.5576060999883,519.5759412000189,519.5759412000189,519.5759412000189,,524.2815153000411,right,1.0,27.492596499971118,,,,,,,,,,,,,,,,,,,,,,,,,,,,,,,sub-175,1.0,random_dot,59.97681294116825,
left,left,speed,,,,,0.0,1.0,1.0,1.0,22.0,0.0,44.0,0.0,524.2926925000502,,,,,,,,,524.284310100018,525.493958700099,526.2972027000505,526.2789530000882,526.2790070000337,526.2972027000505,526.2972027000505,526.2972027000505,,527.1671295000706,left,1.0,23.652173200040124,,,,,,,,,,,,,,,,,,,,,,,,,,,,,,,sub-175,1.0,random_dot,59.97681294116825,
right,right,speed,,,,,0.0,1.0,1.0,1.0,22.0,1.0,45.0,1.0,527.1781243000878,,,,,,,,,527.1697212000145,527.9787797000026,528.782268900075,528.764031900093,528.7640820000088,528.782268900075,528.782268900075,528.782268900075,,530.5857987999916,right,1.0,24.588416200014763,,,,,,,,,,,,,,,,,,,,,,,,,,,,,,,sub-175,1.0,random_dot,59.97681294116825,
left,left,speed,,,,,0.0,1.0,1.0,1.0,23.0,0.0,46.0,0.0,530.5972031999845,,,,,,,,,530.5884648000356,531.7980092000216,532.6015306999907,532.5831833000993,532.5832323000068,532.6015306999907,532.6015306999907,532.6015306999907,,533.4041484000627,left,1.0,23.588716999976896,,,,,,,,,,,,,,,,,,,,,,,,,,,,,,,sub-175,1.0,random_dot,59.97681294116825,
right,right,speed,,,,,0.0,1.0,1.0,1.0,23.0,1.0,47.0,1.0,533.4156754000578,,,,,,,,,533.4065845999867,534.6166735000443,535.4203107000794,535.401701600058,535.4017696999945,535.4203107000794,535.4203107000794,535.4203107000794,,538.357939700014,right,1.0,25.72957730002236,,,,,,,,,,,,,,,,,,,,,,,,,,,,,,,sub-175,1.0,random_dot,59.97681294116825,
left,left,speed,,,,,0.0,1.0,1.0,1.0,24.0,0.0,48.0,0.0,538.3691386000719,,,,,,,,,538.3604870000854,539.5700813999865,540.3737374000484,540.355205800035,540.3552554000635,540.3737374000484,540.3737374000484,540.3737374000484,,541.6772929000435,left,1.0,24.09609689994249,,,,,,,,,,,,,,,,,,,,,,,,,,,,,,,sub-175,1.0,random_dot,59.97681294116825,
right,right,speed,,,,,0.0,1.0,1.0,1.0,24.0,1.0,49.0,1.0,541.6879808000522,,,,,,,,,541.6801256000763,542.0384961999953,542.8418545000022,542.8236501000356,542.823704300099,542.8418545000022,542.8418545000022,542.8418545000022,,544.6286413000198,right,1.0,24.56749319995288,,,,,,,,,,,,,,,,,,,,,,,,,,,,,,,sub-175,1.0,random_dot,59.97681294116825,
right,right,speed,,,,,0.0,1.0,1.0,1.0,25.0,0.0,50.0,1.0,544.6399581000442,,,,,,,,,544.631019600085,544.9905190999852,545.7938852000516,545.77553730004,545.7755863000639,545.7938852000516,545.7938852000516,545.7938852000516,,546.579737400054,right,1.0,23.56531189999077,,,,,,,,,,,,,,,,,,,,,,,,,,,,,,,sub-175,1.0,random_dot,59.97681294116825,
left,left,speed,,,,,0.0,1.0,1.0,1.0,25.0,1.0,51.0,0.0,546.5914204000728,,,,,,,,,546.5823695000727,546.6916123999981,547.4950421000831,547.4766581000295,547.4767132999841,547.4950421000831,547.4950421000831,547.4950421000831,,550.1323652000865,right,0.0,25.42447469988838,,,,,,,,,,,,,,,,,,,,,,,,,,,,,,,sub-175,1.0,random_dot,59.97681294116825,
left,left,speed,,,,,0.0,1.0,1.0,1.0,26.0,0.0,52.0,0.0,550.1437069000676,,,,,,,,,550.1351682000095,550.9445391000481,551.7480640000431,551.7296340999892,551.7296829000115,551.7480640000431,551.7480640000431,551.7480640000431,,552.667522200034,right,0.0,23.71159919991624,,,,,,,,,,,,,,,,,,,,,,,,,,,,,,,sub-175,1.0,random_dot,59.97681294116825,
right,right,speed,,,,,0.0,1.0,1.0,1.0,26.0,1.0,53.0,1.0,552.6790785000194,,,,,,,,,552.6700524000917,553.0293703000061,553.8327552999835,553.8145905000856,553.8146436000243,553.8327552999835,553.8327552999835,553.8327552999835,,555.0522144000279,right,1.0,24.007111000013538,,,,,,,,,,,,,,,,,,,,,,,,,,,,,,,sub-175,1.0,random_dot,59.97681294116825,
right,right,speed,,,,,0.0,1.0,1.0,1.0,27.0,0.0,54.0,1.0,555.0639275000431,,,,,,,,,555.0546897000168,556.2649795000907,557.0684161999961,557.0497717000544,557.049823999987,557.0684161999961,557.0684161999961,557.0684161999961,,557.8877549000317,right,1.0,23.601487699896097,,,,,,,,,,,,,,,,,,,,,,,,,,,,,,,sub-175,1.0,random_dot,59.97681294116825,
left,left,speed,,,,,0.0,1.0,1.0,1.0,27.0,1.0,55.0,0.0,557.8991149000358,,,,,,,,,557.8904901000205,558.6997899999842,559.5032948000589,559.4848058000207,559.4848555000499,559.5032948000589,559.5032948000589,559.5032948000589,,560.1891105000395,left,1.0,23.47607460001018,,,,,,,,,,,,,,,,,,,,,,,,,,,,,,,sub-175,1.0,random_dot,59.97681294116825,
left,left,speed,,,,,0.0,1.0,1.0,1.0,28.0,0.0,56.0,0.0,560.2007868000073,,,,,,,,,560.1917809000006,560.5511002000421,561.3545890999958,561.336209100089,561.3362576999934,561.3545890999958,561.3545890999958,561.3545890999958,,562.1904042999959,right,0.0,23.624945999938063,,,,,,,,,,,,,,,,,,,,,,,,,,,,,,,sub-175,1.0,random_dot,59.97681294116825,
right,right,speed,,,,,0.0,1.0,1.0,1.0,28.0,1.0,57.0,1.0,562.202013400034,,,,,,,,,562.1929406999843,562.3023890000768,563.1058276999975,563.0872409000294,563.0872878000373,563.1058276999975,563.1058276999975,563.1058276999975,,563.8582041000482,right,1.0,23.533439100021496,,,,,,,,,,,,,,,,,,,,,,,,,,,,,,,sub-175,1.0,random_dot,59.97681294116825,
right,right,speed,,,,,0.0,1.0,1.0,1.0,29.0,0.0,58.0,1.0,563.8698590000859,,,,,,,,,563.8608770000283,563.9702756000916,564.7736000000732,564.7553667000029,564.7554149000207,564.7736000000732,564.7736000000732,564.7736000000732,,567.044198299991,right,1.0,25.05591889994685,,,,,,,,,,,,,,,,,,,,,,,,,,,,,,,sub-175,1.0,random_dot,59.97681294116825,
left,left,speed,,,,,0.0,1.0,1.0,1.0,29.0,1.0,59.0,0.0,567.0554326000856,,,,,,,,,567.0468886999879,567.856201400049,568.6596494000405,568.6411442999961,568.641198300058,568.6596494000405,568.6596494000405,568.6596494000405,,570.1797733000712,left,1.0,24.31026019994169,,,,,,,,,,,,,,,,,,,,,,,,,,,,,,,sub-175,1.0,random_dot,59.97681294116825,
,,speed,,,,,0.0,1.0,1.0,1.0,,,,,,,,,,,,,,,,,,,,,,,,,,,,,,,,,,,,,,,,,,,,,,,,,,,,,,,,,sub-175,1.0,random_dot,59.97681294116825,
,,,,,,,,,,,,,,,,,,,,,,,,,,,,,,,,,,,,,,,,,,,,,,,,,,,,,,,,,,,,,,,570.1816390000749,570.1933718000073,575.1944934000494,575.1795515000122,sub-175,,,,
