wordCTK,colorCTK,corrAnsCTK,congruentCTK,thisN,thisTrialN,thisRepN,keyResp_CTK.keys,keyResp_CTK.corr,keyResp_CTK.rt,keyResp_CTK.duration,wordPractice,colorPractice,corrAnsPractice,congruentPractice,respPractice.keys,respPractice.corr,respPractice.rt,respPractice.duration,word,color,corrAns,congruent,keyResp_test_run.keys,keyResp_test_run.corr,keyResp_test_run.rt,keyResp_test_run.duration,trials_CTK.thisRepN,trials_CTK.thisTrialN,trials_CTK.thisN,trials_CTK.thisIndex,trials_practice.thisRepN,trials_practice.thisTrialN,trials_practice.thisN,trials_practice.thisIndex,trials_test.thisRepN,trials_test.thisTrialN,trials_test.thisN,trials_test.thisIndex,thisRow.t,notes,instruction.started,instr_text.started,instr_image.started,instr_resp.started,instruction.stopped,instr_resp.keys,instr_resp.rt,instr_resp.duration,instr_color_to_key.started,instr_ctk.started,resp_ctk.started,instr_color_to_key.stopped,resp_ctk.keys,resp_ctk.rt,resp_ctk.duration,ITI.started,fixcross.started,fixcross.stopped,ITI.stopped,color_to_key_run.started,stimulus_CTK.started,keyResp_CTK.started,color_to_key_run.stopped,trials_CTK.keyResp_CTK.keys,trials_CTK.keyResp_CTK.corr,trials_CTK.keyResp_CTK.rt,trials_CTK.keyResp_CTK.duration,instr_practice.started,instr_practice_text.started,instr_practice_resp.started,instr_practice.stopped,instr_practice_resp.keys,instr_practice_resp.rt,instr_practice_resp.duration,practice_run.started,stimulus_practice.started,respPractice.started,practice_run.stopped,trials_practice.respPractice.keys,trials_practice.respPractice.corr,trials_practice.respPractice.rt,trials_practice.respPractice.duration,feedback.started,textFeedback.started,feedback.stopped,textFeedback.stopped,instr_test.started,instr_test_text.started,instr_test_resp.started,instr_test.stopped,instr_test_resp.keys,instr_test_resp.rt,instr_test_resp.duration,test_run.started,stimulus_test_run.started,keyResp_test_run.started,test_run.stopped,trials_test.keyResp_test_run.keys,trials_test.keyResp_test_run.corr,trials_test.keyResp_test_run.rt,trials_test.keyResp_test_run.duration,goodbye.started,textGoodbye.started,goodbye.stopped,participant,session,expName,frameRate,Unnamed: 112
,,,,,,,,,,,,,,,,,,,,,,,,,,,,,,,,,,,,,,,,,0.0189639959999112,0.0633693870004208,0.0633693870004208,0.0633693870004208,11.627620706000016,space,11.56053033399985,,,,,,,,,,,,,,,,,,,,,,,,,,,,,,,,,,,,,,,,,,,,,,,,,,,,,,,,,,sub-231,1,stroop_test,64.86163019797634,
,,,,,,,,,,,,,,,,,,,,,,,,,,,,,,,,,,,,,,,,,,,,,,,,,11.627779493000162,11.642654457999924,11.642654457999924,15.835097660000429,space,4.185312052999507,,,,,,,,,,,,,,,,,,,,,,,,,,,,,,,,,,,,,,,,,,,,,,,,,,,sub-231,1,stroop_test,64.86163019797634,
test,blue,b,1.0,0.0,0.0,0.0,b,1.0,1.2165572399999292,,,,,,,,,,,,,,,,,,0.0,0.0,0.0,2.0,,,,,,,,,15.860386354000184,,,,,,,,,,,,,,,,,15.84671828000046,16.637018430000353,17.440538859999833,17.42406235999988,17.431008618000305,17.440538859999833,17.440538859999833,18.6606267090001,b,1.0,1.2165572399999292,,,,,,,,,,,,,,,,,,,,,,,,,,,,,,,,,,,,,,,sub-231,1,stroop_test,64.86163019797634,
test,yellow,g,1.0,1.0,1.0,0.0,g,1.0,0.6395920590002788,,,,,,,,,,,,,,,,,,0.0,1.0,1.0,1.0,,,,,,,,,18.67207124000015,,,,,,,,,,,,,,,,,18.66115212100067,18.75720254299995,19.550385933000143,19.54085642300015,19.5416448750002,19.550385933000143,19.550385933000143,20.19319035100034,g,1.0,0.6395920590002788,,,,,,,,,,,,,,,,,,,,,,,,,,,,,,,,,,,,,,,sub-231,1,stroop_test,64.86163019797634,
test,red,r,1.0,2.0,2.0,0.0,r,1.0,0.4398438750004061,,,,,,,,,,,,,,,,,,0.0,2.0,2.0,0.0,,,,,,,,,20.203958146999867,,,,,,,,,,,,,,,,,20.19360185900041,20.558326058000603,21.3533733660006,21.342137611,21.342935237000347,21.3533733660006,21.3533733660006,21.797147859000688,r,1.0,0.4398438750004061,,,,,,,,,,,,,,,,,,,,,,,,,,,,,,,,,,,,,,,sub-231,1,stroop_test,64.86163019797634,
test,yellow,g,1.0,3.0,0.0,1.0,g,1.0,0.8800442669999029,,,,,,,,,,,,,,,,,,1.0,0.0,3.0,1.0,,,,,,,,,21.80737327600036,,,,,,,,,,,,,,,,,21.797567817000527,21.88984133500071,22.690828595000312,22.67426646400054,22.67505794800036,22.690828595000312,22.690828595000312,23.58225801700064,g,1.0,0.8800442669999029,,,,,,,,,,,,,,,,,,,,,,,,,,,,,,,,,,,,,,,sub-231,1,stroop_test,64.86163019797634,
test,red,r,1.0,4.0,1.0,1.0,b,0.0,1.0208917659992949,,,,,,,,,,,,,,,,,,1.0,1.0,4.0,0.0,,,,,,,,,23.594391714000267,,,,,,,,,,,,,,,,,23.582674903000225,23.93101703100001,24.72788824899999,24.716264292000236,24.71705325499988,24.72788824899999,24.72788824899999,25.760619140000017,b,0.0,1.0208917659992949,,,,,,,,,,,,,,,,,,,,,,,,,,,,,,,,,,,,,,,sub-231,1,stroop_test,64.86163019797634,
test,blue,b,1.0,5.0,2.0,1.0,b,1.0,0.8275382209994859,,,,,,,,,,,,,,,,,,1.0,2.0,5.0,2.0,,,,,,,,,25.771747817000687,,,,,,,,,,,,,,,,,25.76101757500055,25.857349261999843,26.65087659800065,26.64143214700016,26.642214370000147,26.65087659800065,26.65087659800065,27.486011351000343,b,1.0,0.8275382209994859,,,,,,,,,,,,,,,,,,,,,,,,,,,,,,,,,,,,,,,sub-231,1,stroop_test,64.86163019797634,
test,red,r,1.0,6.0,0.0,2.0,r,1.0,0.880746898000325,,,,,,,,,,,,,,,,,,2.0,0.0,6.0,0.0,,,,,,,,,27.497598906999883,,,,,,,,,,,,,,,,,27.486372745000157,28.28099577000012,29.0779657890007,29.065876042000127,29.06668271900071,29.0779657890007,29.0779657890007,29.965284421999968,r,1.0,0.880746898000325,,,,,,,,,,,,,,,,,,,,,,,,,,,,,,,,,,,,,,,sub-231,1,stroop_test,64.86163019797634,
test,yellow,g,1.0,7.0,1.0,2.0,g,1.0,0.5819169980004517,,,,,,,,,,,,,,,,,,2.0,1.0,7.0,1.0,,,,,,,,,29.977934171000012,,,,,,,,,,,,,,,,,29.96569620399987,30.073109359000227,30.867438348000174,30.85812138900019,30.85891944800005,30.867438348000174,30.867438348000174,31.4539089710006,g,1.0,0.5819169980004517,,,,,,,,,,,,,,,,,,,,,,,,,,,,,,,,,,,,,,,sub-231,1,stroop_test,64.86163019797634,
test,blue,b,1.0,8.0,2.0,2.0,b,1.0,0.7700942530000248,,,,,,,,,,,,,,,,,,2.0,2.0,8.0,2.0,,,,,,,,,31.46584497999993,,,,,,,,,,,,,,,,,31.45446735800033,32.24763951500063,33.04417174399987,33.0318384000002,33.032612931000585,33.04417174399987,33.04417174399987,33.81921686900023,b,1.0,0.7700942530000248,,,,,,,,,,,,,,,,,,,,,,,,,,,,,,,,,,,,,,,sub-231,1,stroop_test,64.86163019797634,
test,red,r,1.0,9.0,0.0,3.0,r,1.0,0.633568152999942,,,,,,,,,,,,,,,,,,3.0,0.0,9.0,0.0,,,,,,,,,33.83067890300026,,,,,,,,,,,,,,,,,33.81961709999996,34.613590232000206,35.409801472000254,35.398562447000586,35.39935804900051,35.409801472000254,35.409801472000254,36.05318599800012,r,1.0,0.633568152999942,,,,,,,,,,,,,,,,,,,,,,,,,,,,,,,,,,,,,,,sub-231,1,stroop_test,64.86163019797634,
test,yellow,g,1.0,10.0,1.0,3.0,g,1.0,0.6883366069996555,,,,,,,,,,,,,,,,,,3.0,1.0,10.0,1.0,,,,,,,,,36.06391182900006,,,,,,,,,,,,,,,,,36.05371952600035,36.14816131800035,36.95341145300063,36.94192802599992,36.942706028999964,36.95341145300063,36.95341145300063,37.65775122700052,g,1.0,0.6883366069996555,,,,,,,,,,,,,,,,,,,,,,,,,,,,,,,,,,,,,,,sub-231,1,stroop_test,64.86163019797634,
test,blue,b,1.0,11.0,2.0,3.0,b,1.0,0.675513877999947,,,,,,,,,,,,,,,,,,3.0,2.0,11.0,2.0,,,,,,,,,37.66662044600071,,,,,,,,,,,,,,,,,37.658197621,37.75179323900011,38.55311977300062,38.542089143999874,38.54285847300071,38.55311977300062,38.55311977300062,39.23327279900059,b,1.0,0.675513877999947,,,,,,,,,,,,,,,,,,,,,,,,,,,,,,,,,,,,,,,sub-231,1,stroop_test,64.86163019797634,
,,,,,,,,,,,,,,,,,,,,,,,,,,,,,,,,,,,,,,,,,,,,,,,,,,,,,,,,,,,,,,,,,,,,39.23342368700014,39.24534125599985,39.24534125599985,44.60974332100068,space,5.355132658000002,,,,,,,,,,,,,,,,,,,,,,,,,,,,,,,,sub-231,1,stroop_test,64.86163019797634,
,,,,0.0,0.0,0.0,,,,,gelb,red,r,0.0,r,1.0,0.8660043820000283,,,,,,,,,,,,,,0.0,0.0,0.0,8.0,,,,,44.62969425900064,,,,,,,,,,,,,,,,,44.62046103600005,44.95543031699981,45.75634120900031,45.742069689000346,,,,,,,,,,,,,,,,45.74809186099992,45.75634120900031,45.75634120900031,46.62741411800016,r,1.0,0.8660043820000283,,46.63488702500035,46.64746323899999,47.633162944000105,,,,,,,,,,,,,,,,,,,,sub-231,1,stroop_test,64.86163019797634,
,,,,1.0,1.0,0.0,,,,,gelb,yellow,g,1.0,g,1.0,0.7293839480007591,,,,,,,,,,,,,,0.0,1.0,1.0,11.0,,,,,47.64429044100052,,,,,,,,,,,,,,,,,47.63389619999998,48.42288330400061,49.21840365900061,49.20755554700008,,,,,,,,,,,,,,,,49.20837109900003,49.21840365900061,49.21840365900061,49.95929046899983,g,1.0,0.7293839480007591,,49.95992365500024,49.97200487000009,50.9576613600002,50.96466815800068,,,,,,,,,,,,,,,,,,,sub-231,1,stroop_test,64.86163019797634,
,,,,2.0,2.0,0.0,,,,,gelb,blue,b,0.0,b,1.0,0.6539998569996897,,,,,,,,,,,,,,0.0,2.0,2.0,9.0,,,,,50.96466815800068,,,,,,,,,,,,,,,,,50.95817274199999,51.0562786950004,51.8505240530003,51.8406659150005,,,,,,,,,,,,,,,,51.84143363700059,51.8505240530003,51.8505240530003,52.50998474300013,b,1.0,0.6539998569996897,,52.51060977900033,52.5229848580002,53.5126586840006,,,,,,,,,,,,,,,,,,,,sub-231,1,stroop_test,64.86163019797634,
,,,,3.0,3.0,0.0,,,,,rot,yellow,g,0.0,g,1.0,0.8393492650002372,,,,,,,,,,,,,,0.0,3.0,3.0,3.0,,,,,53.524277943000016,,,,,,,,,,,,,,,,,53.51307434800037,54.706265802000416,55.50444389200038,55.490411147000486,,,,,,,,,,,,,,,,55.495837743000266,55.50444389200038,55.50444389200038,56.34737416100052,g,1.0,0.8393492650002372,,56.34848475000035,56.36159389900058,57.345028445000025,57.35731012199994,,,,,,,,,,,,,,,,,,,sub-231,1,stroop_test,64.86163019797634,
,,,,4.0,4.0,0.0,,,,,blau,blue,b,1.0,b,1.0,0.4771355640004913,,,,,,,,,,,,,,0.0,4.0,4.0,5.0,,,,,57.35731012199994,,,,,,,,,,,,,,,,,57.345541370999854,58.139947593000215,58.93791514900022,58.92443869900035,,,,,,,,,,,,,,,,58.92992292200052,58.93791514900022,58.93791514900022,59.41948312600016,b,1.0,0.4771355640004913,,59.420836502000384,59.43389678299991,60.424037292999856,,,,,,,,,,,,,,,,,,,,sub-231,1,stroop_test,64.86163019797634,
,,,,5.0,5.0,0.0,,,,,rot,red,r,1.0,r,1.0,0.4017661570005657,,,,,,,,,,,,,,0.0,5.0,5.0,1.0,,,,,60.432908537,,,,,,,,,,,,,,,,,60.42458162999992,61.213679993999904,62.01180785500037,61.99828879100005,,,,,,,,,,,,,,,,62.00282510499983,62.01180785500037,62.01180785500037,62.42533207199995,r,1.0,0.4017661570005657,,62.42595351199998,62.43769602100019,63.42923630200039,,,,,,,,,,,,,,,,,,,,sub-231,1,stroop_test,64.86163019797634,
,,,,6.0,6.0,0.0,,,,,rot,red,r,1.0,r,1.0,0.4358273280004141,,,,,,,,,,,,,,0.0,6.0,6.0,0.0,,,,,63.44110716000068,,,,,,,,,,,,,,,,,63.42976555600035,64.2227443239999,65.01807715199993,65.00772949900056,,,,,,,,,,,,,,,,65.00853279200055,65.01807715199993,65.01807715199993,65.46267642500061,r,1.0,0.4358273280004141,,65.46330880000005,65.4735242300003,66.46330015500007,,,,,,,,,,,,,,,,,,,,sub-231,1,stroop_test,64.86163019797634,
,,,,7.0,7.0,0.0,,,,,rot,blue,b,0.0,b,1.0,0.8017206300000908,,,,,,,,,,,,,,0.0,7.0,7.0,2.0,,,,,66.47276108200003,,,,,,,,,,,,,,,,,66.46399108200058,66.55576460200064,67.34801982699992,67.33976082400022,,,,,,,,,,,,,,,,67.34035214600044,67.34801982699992,67.34801982699992,68.15877683300005,b,1.0,0.8017206300000908,,68.15941496899995,68.17024201300046,69.16067244100032,,,,,,,,,,,,,,,,,,,,sub-231,1,stroop_test,64.86163019797634,
,,,,8.0,8.0,0.0,,,,,blau,yellow,g,0.0,g,1.0,0.325311049999982,,,,,,,,,,,,,,0.0,8.0,8.0,7.0,,,,,69.1737558700006,,,,,,,,,,,,,,,,,69.16119860900017,70.35557208699993,71.15280832799999,71.13998907200039,,,,,,,,,,,,,,,,71.14485375100048,71.15280832799999,71.15280832799999,71.48452274800002,g,1.0,0.325311049999982,,71.48539302800054,71.4999644160007,72.48916533500051,,,,,,,,,,,,,,,,,,,,sub-231,1,stroop_test,64.86163019797634,
,,,,9.0,9.0,0.0,,,,,gelb,yellow,g,1.0,g,1.0,0.6707557089994225,,,,,,,,,,,,,,0.0,9.0,9.0,10.0,,,,,72.49664418700013,,,,,,,,,,,,,,,,,72.48968559500008,72.57996808100052,73.3758745920004,73.36353813400001,,,,,,,,,,,,,,,,73.3668275810005,73.3758745920004,73.3758745920004,74.05964479500017,g,1.0,0.6707557089994225,,74.06048939199991,74.07415051699991,75.062132174,,,,,,,,,,,,,,,,,,,,sub-231,1,stroop_test,64.86163019797634,
,,,,10.0,10.0,0.0,,,,,blau,blue,b,1.0,b,1.0,0.7419358750003084,,,,,,,,,,,,,,0.0,10.0,10.0,6.0,,,,,75.07369069500055,,,,,,,,,,,,,,,,,75.06265973800055,75.16010334600014,75.96172078000018,75.94529860800048,,,,,,,,,,,,,,,,75.94967610799995,75.96172078000018,75.96172078000018,76.71575458400002,b,1.0,0.7419358750003084,,76.71660295499987,76.73065116500038,77.71671666900056,,,,,,,,,,,,,,,,,,,,sub-231,1,stroop_test,64.86163019797634,
,,,,11.0,11.0,0.0,,,,,blau,red,r,0.0,r,1.0,0.5804972969999653,,,,,,,,,,,,,,0.0,11.0,11.0,4.0,,,,,77.72649792900029,,,,,,,,,,,,,,,,,77.71724094100045,78.0636098620007,78.85937852400002,78.84817650400055,,,,,,,,,,,,,,,,78.84896744900016,78.85937852400002,78.85937852400002,79.4422095079999,r,1.0,0.5804972969999653,,79.44309091000014,79.45459463299994,80.43992737100052,80.44703795500027,,,,,,,,,,,,,,,,,,,sub-231,1,stroop_test,64.86163019797634,
,,,,12.0,0.0,1.0,,,,,rot,blue,b,0.0,b,1.0,0.7131868240003314,,,,,,,,,,,,,,1.0,0.0,12.0,2.0,,,,,80.44703795500027,,,,,,,,,,,,,,,,,80.44043659100043,81.23883155800013,82.03497900900038,82.02294553800039,,,,,,,,,,,,,,,,82.02720696300003,82.03497900900038,82.03497900900038,82.75935504800054,b,1.0,0.7131868240003314,,82.7601043350005,82.7718776340007,83.7570851850005,83.76436994400046,,,,,,,,,,,,,,,,,,,sub-231,1,stroop_test,64.86163019797634,
,,,,13.0,1.0,1.0,,,,,gelb,yellow,g,1.0,g,1.0,0.4912543700002061,,,,,,,,,,,,,,1.0,1.0,13.0,10.0,,,,,83.76436994400046,,,,,,,,,,,,,,,,,83.75759188600023,84.55581645500024,85.35376063000058,85.3404308070003,,,,,,,,,,,,,,,,85.34502946000066,85.35376063000058,85.35376063000058,85.8581717370007,g,1.0,0.4912543700002061,,85.858811092,85.8698215430004,86.86042061700027,,,,,,,,,,,,,,,,,,,,sub-231,1,stroop_test,64.86163019797634,
,,,,14.0,2.0,1.0,,,,,gelb,red,r,0.0,r,1.0,0.6184691510006814,,,,,,,,,,,,,,1.0,2.0,14.0,8.0,,,,,86.87367484400056,,,,,,,,,,,,,,,,,86.86096173100032,87.65560712600018,88.44967586600069,88.44018356800007,,,,,,,,,,,,,,,,88.44095712099988,88.44967586600069,88.44967586600069,89.08142893200056,r,1.0,0.6184691510006814,,89.0822867249999,89.09584177800025,90.08231791400068,,,,,,,,,,,,,,,,,,,,sub-231,1,stroop_test,64.86163019797634,
,,,,15.0,3.0,1.0,,,,,blau,yellow,g,0.0,b,0.0,0.5534976409999217,,,,,,,,,,,,,,1.0,3.0,15.0,7.0,,,,,90.10585629900017,,,,,,,,,,,,,,,,,90.08279147600024,91.27935003600032,92.07604788400022,92.06331854600012,,,,,,,,,,,,,,,,92.06717985400064,92.07604788400022,92.07604788400022,92.6325317540004,b,0.0,0.5534976409999217,,92.63733537400005,92.64921459500056,93.6386779680006,,,,,,,,,,,,,,,,,,,,sub-231,1,stroop_test,64.86163019797634,
,,,,16.0,4.0,1.0,,,,,blau,red,r,0.0,r,1.0,1.297131263000665,,,,,,,,,,,,,,1.0,4.0,16.0,4.0,,,,,93.64596362300016,,,,,,,,,,,,,,,,,93.63920198400048,93.97846012599985,94.77478407099989,94.76331242200013,,,,,,,,,,,,,,,,94.7641385830002,94.77478407099989,94.77478407099989,96.0807134810002,r,1.0,1.297131263000665,,96.0842387290004,96.09739891500068,97.08852211400064,,,,,,,,,,,,,,,,,,,,sub-231,1,stroop_test,64.86163019797634,
,,,,17.0,5.0,1.0,,,,,gelb,yellow,g,1.0,g,1.0,0.6694053929995789,,,,,,,,,,,,,,1.0,5.0,17.0,11.0,,,,,97.09573894599998,,,,,,,,,,,,,,,,,97.08904767000058,97.17899498499992,97.9735083250007,97.96281780400022,,,,,,,,,,,,,,,,97.96515528800046,97.9735083250007,97.9735083250007,98.6591999530001,g,1.0,0.6694053929995789,,98.66006802900029,98.67311892100042,99.65994082500038,,,,,,,,,,,,,,,,,,,,sub-231,1,stroop_test,64.86163019797634,
,,,,18.0,6.0,1.0,,,,,gelb,blue,b,0.0,b,1.0,0.5925951159997567,,,,,,,,,,,,,,1.0,6.0,18.0,9.0,,,,,99.6729142260001,,,,,,,,,,,,,,,,,99.66033383900049,100.00532805200056,100.79912143,100.7896235879998,,,,,,,,,,,,,,,,100.79039766999996,100.79912143,100.79912143,101.4021866510002,b,1.0,0.5925951159997567,,101.40281371099992,101.4151306140002,102.3992102330003,102.4084418400007,,,,,,,,,,,,,,,,,,,sub-231,1,stroop_test,64.86163019797634,
,,,,19.0,7.0,1.0,,,,,rot,red,r,1.0,r,1.0,0.6285456790001263,,,,,,,,,,,,,,1.0,7.0,19.0,0.0,,,,,102.4084418400007,,,,,,,,,,,,,,,,,102.39973141900008,103.19622085799983,103.9937614520004,103.98034001399992,,,,,,,,,,,,,,,,103.98474058600004,103.9937614520004,103.9937614520004,104.63001152000017,r,1.0,0.6285456790001263,,104.6306618590006,104.64363087299988,105.63243671500004,,,,,,,,,,,,,,,,,,,,sub-231,1,stroop_test,64.86163019797634,
,,,,20.0,8.0,1.0,,,,,blau,blue,b,1.0,b,1.0,0.5206836260003911,,,,,,,,,,,,,,1.0,8.0,20.0,6.0,,,,,105.64392991500064,,,,,,,,,,,,,,,,,105.63316087300063,105.9727175650005,106.77249893699992,106.76190534800024,,,,,,,,,,,,,,,,106.76430321800036,106.77249893699992,106.77249893699992,107.29741721000028,b,1.0,0.5206836260003911,,107.29795668000042,107.30925909800044,108.29647519700028,108.30501651600024,,,,,,,,,,,,,,,,,,,sub-231,1,stroop_test,64.86163019797634,
,,,,21.0,9.0,1.0,,,,,blau,blue,b,1.0,b,1.0,0.7016187219996937,,,,,,,,,,,,,,1.0,9.0,21.0,5.0,,,,,108.30501651600024,,,,,,,,,,,,,,,,,108.29699771000014,109.0949552990005,109.9042692310004,109.8796684910003,,,,,,,,,,,,,,,,109.88044911100042,109.9042692310004,109.9042692310004,110.62331807300052,b,1.0,0.7016187219996937,,110.6239367799999,110.63888524100004,111.62263203900056,111.62957438600006,,,,,,,,,,,,,,,,,,,sub-231,1,stroop_test,64.86163019797634,
,,,,22.0,10.0,1.0,,,,,rot,red,r,1.0,r,1.0,0.6376099649996831,,,,,,,,,,,,,,1.0,10.0,22.0,1.0,,,,,111.62957438600006,,,,,,,,,,,,,,,,,111.62313855899993,111.72168706000048,112.51622098400004,112.50507316499989,,,,,,,,,,,,,,,,112.50811015100044,112.51622098400004,112.51622098400004,113.17407552399982,r,1.0,0.6376099649996831,,113.17473396200056,113.18933375800044,114.17321144500056,114.18054059400038,,,,,,,,,,,,,,,,,,,sub-231,1,stroop_test,64.86163019797634,
,,,,23.0,11.0,1.0,,,,,rot,yellow,g,0.0,g,1.0,0.9324867790001008,,,,,,,,,,,,,,1.0,11.0,23.0,3.0,,,,,114.18054059400038,,,,,,,,,,,,,,,,,114.17376023500036,114.27179389499996,115.0670123660002,115.05687733400008,,,,,,,,,,,,,,,,115.0576905400003,115.0670123660002,115.0670123660002,116.00845566299996,g,1.0,0.9324867790001008,,116.00908548300048,116.02038512400031,117.00624487100048,117.01658898300047,,,,,,,,,,,,,,,,,,,sub-231,1,stroop_test,64.86163019797634,
,,,,,,,,,,,,,,,,,,,,,,,,,,,,,,,,,,,,,,,,,,,,,,,,,,,,,,,,,,,,,,,,,,,,,,,,,,,,,,,,,,,,,,,117.00647112300068,117.01658898300047,117.01658898300047,121.3014926300002,space,4.274043979999988,,,,,,,,,,,,,sub-231,1,stroop_test,64.86163019797634,
,,,,0.0,0.0,0.0,,,,,,,,,,,,,blau,yellow,g,0.0,g,1.0,0.7788481790003061,,,,,,,,,,0.0,0.0,0.0,7.0,121.32449645900031,,,,,,,,,,,,,,,,,121.3142922040006,121.64635356000052,122.45045823200051,122.43897580000066,,,,,,,,,,,,,,,,,,,,,,,,,,,,,,,,,,,122.44223011700068,122.45045823200051,122.45045823200051,123.2402672950002,g,1.0,0.7788481790003061,,,,,sub-231,1,stroop_test,64.86163019797634,
,,,,1.0,1.0,0.0,,,,,,,,,,,,,blau,red,r,0.0,r,1.0,0.6462960270000622,,,,,,,,,,0.0,1.0,1.0,4.0,123.25557953800036,,,,,,,,,,,,,,,,,123.2407200530006,124.43871243500053,125.23245048599983,125.22292454099988,,,,,,,,,,,,,,,,,,,,,,,,,,,,,,,,,,,125.22370277500067,125.23245048599983,125.23245048599983,125.8928895220006,r,1.0,0.6462960270000622,,,,,sub-231,1,stroop_test,64.86163019797634,
,,,,2.0,2.0,0.0,,,,,,,,,,,,,rot,yellow,g,0.0,g,1.0,0.7842545459998291,,,,,,,,,,0.0,2.0,2.0,3.0,125.90713882799992,,,,,,,,,,,,,,,,,125.89357694899992,126.23872071300048,127.03529946900017,127.02286481300052,,,,,,,,,,,,,,,,,,,,,,,,,,,,,,,,,,,127.02714805100004,127.03529946900017,127.03529946900017,127.84092339500056,g,1.0,0.7842545459998291,,,,,sub-231,1,stroop_test,64.86163019797634,
,,,,3.0,3.0,0.0,,,,,,,,,,,,,blau,blue,b,1.0,b,1.0,0.6148464030002287,,,,,,,,,,0.0,3.0,3.0,5.0,127.8558258840003,,,,,,,,,,,,,,,,,127.84136713800036,127.94263485400006,128.74673001700012,128.73226762500053,,,,,,,,,,,,,,,,,,,,,,,,,,,,,,,,,,,128.73712177200014,128.74673001700012,128.74673001700012,129.3680401649999,b,1.0,0.6148464030002287,,,,,sub-231,1,stroop_test,64.86163019797634,
,,,,4.0,4.0,0.0,,,,,,,,,,,,,rot,red,r,1.0,r,1.0,0.5141348929992091,,,,,,,,,,0.0,4.0,4.0,1.0,129.3802960210005,,,,,,,,,,,,,,,,,129.3684436880003,130.56231221100006,131.3608318530005,131.34766133700032,,,,,,,,,,,,,,,,,,,,,,,,,,,,,,,,,,,131.3523066990001,131.3608318530005,131.3608318530005,131.87893270899986,r,1.0,0.5141348929992091,,,,,sub-231,1,stroop_test,64.86163019797634,
,,,,5.0,5.0,0.0,,,,,,,,,,,,,gelb,yellow,g,1.0,g,1.0,0.4885780720005641,,,,,,,,,,0.0,5.0,5.0,10.0,131.88890029100003,,,,,,,,,,,,,,,,,131.87932420900052,132.22173009700057,133.01952455100036,133.00637654500042,,,,,,,,,,,,,,,,,,,,,,,,,,,,,,,,,,,133.01092799800062,133.01952455100036,133.01952455100036,133.52631231099986,g,1.0,0.4885780720005641,,,,,sub-231,1,stroop_test,64.86163019797634,
,,,,6.0,6.0,0.0,,,,,,,,,,,,,gelb,blue,b,0.0,b,1.0,0.4825851260002309,,,,,,,,,,0.0,6.0,6.0,9.0,133.53946843199992,,,,,,,,,,,,,,,,,133.5269158250003,134.72179973200036,135.51458359800017,135.50636910200046,,,,,,,,,,,,,,,,,,,,,,,,,,,,,,,,,,,135.5069376320007,135.51458359800017,135.51458359800017,136.002242089,b,1.0,0.4825851260002309,,,,,sub-231,1,stroop_test,64.86163019797634,
,,,,7.0,7.0,0.0,,,,,,,,,,,,,gelb,red,r,0.0,r,1.0,0.6236808289995679,,,,,,,,,,0.0,7.0,7.0,8.0,136.01409864700054,,,,,,,,,,,,,,,,,136.00270203200034,136.10682222100058,136.89981136900042,136.89029493700036,,,,,,,,,,,,,,,,,,,,,,,,,,,,,,,,,,,136.89106277600058,136.89981136900042,136.89981136900042,137.53854642399983,r,1.0,0.6236808289995679,,,,,sub-231,1,stroop_test,64.86163019797634,
,,,,8.0,8.0,0.0,,,,,,,,,,,,,rot,red,r,1.0,r,1.0,0.5118877999993856,,,,,,,,,,0.0,8.0,8.0,0.0,137.5470557890003,,,,,,,,,,,,,,,,,137.53909378400022,137.87924747000034,138.67772595000042,138.66417650099993,,,,,,,,,,,,,,,,,,,,,,,,,,,,,,,,,,,138.66845419400033,138.67772595000042,138.67772595000042,139.1928686480005,r,1.0,0.5118877999993856,,,,,sub-231,1,stroop_test,64.86163019797634,
,,,,9.0,9.0,0.0,,,,,,,,,,,,,rot,blue,b,0.0,b,1.0,0.5321580929994525,,,,,,,,,,0.0,9.0,9.0,2.0,139.20495309699982,,,,,,,,,,,,,,,,,139.19351672700031,139.28963505000047,140.09204204300022,140.08149252800013,,,,,,,,,,,,,,,,,,,,,,,,,,,,,,,,,,,140.08205714500036,140.09204204300022,140.09204204300022,140.63343770900065,b,1.0,0.5321580929994525,,,,,sub-231,1,stroop_test,64.86163019797634,
,,,,10.0,10.0,0.0,,,,,,,,,,,,,blau,blue,b,1.0,b,1.0,0.7954298750000817,,,,,,,,,,0.0,10.0,10.0,6.0,140.64279828000053,,,,,,,,,,,,,,,,,140.63382729400018,140.72903429000053,141.52714369600017,141.51360583000042,,,,,,,,,,,,,,,,,,,,,,,,,,,,,,,,,,,141.51809120500002,141.52714369600017,141.52714369600017,142.32589883699984,b,1.0,0.7954298750000817,,,,,sub-231,1,stroop_test,64.86163019797634,
,,,,11.0,11.0,0.0,,,,,,,,,,,,,gelb,yellow,g,1.0,g,1.0,0.4675585620007041,,,,,,,,,,0.0,11.0,11.0,11.0,142.3374313560007,,,,,,,,,,,,,,,,,142.32665864000046,143.12166080499992,143.91903596700013,143.9065960150001,,,,,,,,,,,,,,,,,,,,,,,,,,,,,,,,,,,143.91104688399992,143.91903596700013,143.91903596700013,144.39205304799998,g,1.0,0.4675585620007041,,,,,sub-231,1,stroop_test,64.86163019797634,
,,,,12.0,0.0,1.0,,,,,,,,,,,,,blau,blue,b,1.0,b,1.0,0.4860263210002813,,,,,,,,,,1.0,0.0,12.0,5.0,144.40327101500043,,,,,,,,,,,,,,,,,144.39250059700043,145.58804710799996,146.3836744600003,146.37213179599985,,,,,,,,,,,,,,,,,,,,,,,,,,,,,,,,,,,146.37607803300034,146.3836744600003,146.3836744600003,146.87398146800024,b,1.0,0.4860263210002813,,,,,sub-231,1,stroop_test,64.86163019797634,
,,,,13.0,1.0,1.0,,,,,,,,,,,,,blau,red,r,0.0,r,1.0,0.4075223270001515,,,,,,,,,,1.0,1.0,13.0,4.0,146.88503730000048,,,,,,,,,,,,,,,,,146.87437218200012,148.0714999440006,148.86598240900005,148.85675575000005,,,,,,,,,,,,,,,,,,,,,,,,,,,,,,,,,,,148.85755491600048,148.86598240900005,148.86598240900005,149.2786661680002,r,1.0,0.4075223270001515,,,,,sub-231,1,stroop_test,64.86163019797634,
,,,,14.0,2.0,1.0,,,,,,,,,,,,,rot,blue,b,0.0,b,1.0,0.6989490329997352,,,,,,,,,,1.0,2.0,14.0,2.0,149.28848179000033,,,,,,,,,,,,,,,,,149.27904694100016,149.6261741850003,150.43157049100046,150.4165787210004,,,,,,,,,,,,,,,,,,,,,,,,,,,,,,,,,,,150.42117806500028,150.43157049100046,150.43157049100046,151.1357871170003,b,1.0,0.6989490329997352,,,,,sub-231,1,stroop_test,64.86163019797634,
,,,,15.0,3.0,1.0,,,,,,,,,,,,,blau,yellow,g,0.0,g,1.0,0.5421075029998974,,,,,,,,,,1.0,3.0,15.0,7.0,151.1478242880003,,,,,,,,,,,,,,,,,151.13632240900006,152.32874202200037,153.1272560360003,153.11373027599984,,,,,,,,,,,,,,,,,,,,,,,,,,,,,,,,,,,153.11827770299988,153.1272560360003,153.1272560360003,153.67492732900064,g,1.0,0.5421075029998974,,,,,sub-231,1,stroop_test,64.86163019797634,
,,,,16.0,4.0,1.0,,,,,,,,,,,,,rot,red,r,1.0,r,1.0,0.4717506830002094,,,,,,,,,,1.0,4.0,16.0,0.0,153.68601203300022,,,,,,,,,,,,,,,,,153.67538113800038,154.87139662700065,155.66874793700026,155.6558364600005,,,,,,,,,,,,,,,,,,,,,,,,,,,,,,,,,,,155.66027991200008,155.66874793700026,155.66874793700026,156.15061092900032,r,1.0,0.4717506830002094,,,,,sub-231,1,stroop_test,64.86163019797634,
,,,,17.0,5.0,1.0,,,,,,,,,,,,,gelb,blue,b,0.0,b,1.0,0.4773796680001396,,,,,,,,,,1.0,5.0,17.0,9.0,156.161251945,,,,,,,,,,,,,,,,,156.15107388200067,156.24657223400027,157.05517380699985,157.04069482400064,,,,,,,,,,,,,,,,,,,,,,,,,,,,,,,,,,,157.0448235620006,157.05517380699985,157.05517380699985,157.53684727000018,b,1.0,0.4773796680001396,,,,,sub-231,1,stroop_test,64.86163019797634,
,,,,18.0,6.0,1.0,,,,,,,,,,,,,rot,yellow,g,0.0,g,1.0,0.3505014940001274,,,,,,,,,,1.0,6.0,18.0,3.0,157.5486543779998,,,,,,,,,,,,,,,,,157.53730043399992,158.7284132650002,159.52831726800014,159.51423118900038,,,,,,,,,,,,,,,,,,,,,,,,,,,,,,,,,,,159.51905670500037,159.52831726800014,159.52831726800014,159.88947355800065,g,1.0,0.3505014940001274,,,,,sub-231,1,stroop_test,64.86163019797634,
,,,,19.0,7.0,1.0,,,,,,,,,,,,,gelb,yellow,g,1.0,g,1.0,0.459977572999378,,,,,,,,,,1.0,7.0,19.0,10.0,159.9051043899999,,,,,,,,,,,,,,,,,159.88991832300053,159.9822776259998,160.7823444530004,160.77191580100043,,,,,,,,,,,,,,,,,,,,,,,,,,,,,,,,,,,160.77420667700062,160.7823444530004,160.7823444530004,161.24851737300014,g,1.0,0.459977572999378,,,,,sub-231,1,stroop_test,64.86163019797634,
,,,,20.0,8.0,1.0,,,,,,,,,,,,,gelb,yellow,g,1.0,g,1.0,0.5169306409998171,,,,,,,,,,1.0,8.0,20.0,11.0,161.25905813999998,,,,,,,,,,,,,,,,,161.248909508,162.0456417430005,162.8424799610002,162.8309291989999,,,,,,,,,,,,,,,,,,,,,,,,,,,,,,,,,,,162.83173308200003,162.8424799610002,162.8424799610002,163.36782899900027,g,1.0,0.5169306409998171,,,,,sub-231,1,stroop_test,64.86163019797634,
,,,,21.0,9.0,1.0,,,,,,,,,,,,,rot,red,r,1.0,r,1.0,0.4638405159994363,,,,,,,,,,1.0,9.0,21.0,1.0,163.37960122700042,,,,,,,,,,,,,,,,,163.36833944000043,164.57307098,165.37706669700037,165.3629878060001,,,,,,,,,,,,,,,,,,,,,,,,,,,,,,,,,,,165.3679689999999,165.37706669700037,165.37706669700037,165.85013857600006,r,1.0,0.4638405159994363,,,,,sub-231,1,stroop_test,64.86163019797634,
,,,,22.0,10.0,1.0,,,,,,,,,,,,,gelb,red,r,0.0,r,1.0,0.4940448569996079,,,,,,,,,,1.0,10.0,22.0,8.0,165.86003152600006,,,,,,,,,,,,,,,,,165.85054370800026,166.64421395099998,167.44314157900044,167.42773073399985,,,,,,,,,,,,,,,,,,,,,,,,,,,,,,,,,,,167.43157552699995,167.44314157900044,167.44314157900044,167.93932255400068,r,1.0,0.4940448569996079,,,,,sub-231,1,stroop_test,64.86163019797634,
,,,,23.0,11.0,1.0,,,,,,,,,,,,,blau,blue,b,1.0,b,1.0,0.4853258400007689,,,,,,,,,,1.0,11.0,23.0,6.0,167.94909472500058,,,,,,,,,,,,,,,,,167.93985174800036,168.73695460399995,169.52999803400053,169.52065671200037,,,,,,,,,,,,,,,,,,,,,,,,,,,,,,,,,,,169.5229139009998,169.52999803400053,169.52999803400053,170.0220683570005,b,1.0,0.4853258400007689,,,,,sub-231,1,stroop_test,64.86163019797634,
,,,,24.0,0.0,2.0,,,,,,,,,,,,,gelb,red,r,0.0,r,1.0,0.553039971000544,,,,,,,,,,2.0,0.0,24.0,8.0,170.03099338599986,,,,,,,,,,,,,,,,,170.02240558799986,170.37018111700036,171.1631850720005,171.1540454670003,,,,,,,,,,,,,,,,,,,,,,,,,,,,,,,,,,,171.15637370700006,171.1631850720005,171.1631850720005,171.72182133600018,r,1.0,0.553039971000544,,,,,sub-231,1,stroop_test,64.86163019797634,
,,,,25.0,1.0,2.0,,,,,,,,,,,,,rot,red,r,1.0,r,1.0,0.4987565600004018,,,,,,,,,,2.0,1.0,25.0,0.0,171.72981964100018,,,,,,,,,,,,,,,,,171.72214514400002,172.07059319100065,172.8645315650001,172.85435816800054,,,,,,,,,,,,,,,,,,,,,,,,,,,,,,,,,,,172.85763257800045,172.8645315650001,172.8645315650001,173.37250304600002,r,1.0,0.4987565600004018,,,,,sub-231,1,stroop_test,64.86163019797634,
,,,,26.0,2.0,2.0,,,,,,,,,,,,,rot,yellow,g,0.0,g,1.0,0.3924526989994774,,,,,,,,,,2.0,2.0,26.0,3.0,173.38101754000036,,,,,,,,,,,,,,,,,173.3728998229999,174.17080623400034,174.96454047499992,174.95508181900004,,,,,,,,,,,,,,,,,,,,,,,,,,,,,,,,,,,174.95587597800022,174.96454047499992,174.96454047499992,175.35995369900047,g,1.0,0.3924526989994774,,,,,sub-231,1,stroop_test,64.86163019797634,
,,,,27.0,3.0,2.0,,,,,,,,,,,,,blau,blue,b,1.0,b,1.0,0.4700483530004931,,,,,,,,,,2.0,3.0,27.0,5.0,175.37183009199998,,,,,,,,,,,,,,,,,175.3605518660006,175.70567107599982,176.50128122200022,176.4891373240007,,,,,,,,,,,,,,,,,,,,,,,,,,,,,,,,,,,176.49336556300022,176.50128122200022,176.50128122200022,176.9740490940003,b,1.0,0.4700483530004931,,,,,sub-231,1,stroop_test,64.86163019797634,
,,,,28.0,4.0,2.0,,,,,,,,,,,,,gelb,yellow,g,1.0,g,1.0,0.5356486789996779,,,,,,,,,,2.0,4.0,28.0,11.0,176.9839466630001,,,,,,,,,,,,,,,,,176.97439495300023,178.1711165880006,178.96864027799984,178.95572429799995,,,,,,,,,,,,,,,,,,,,,,,,,,,,,,,,,,,178.96034654200048,178.96864027799984,178.96864027799984,179.50876921600047,g,1.0,0.5356486789996779,,,,,sub-231,1,stroop_test,64.86163019797634,
,,,,29.0,5.0,2.0,,,,,,,,,,,,,gelb,blue,b,0.0,b,1.0,0.5171003410005142,,,,,,,,,,2.0,5.0,29.0,9.0,179.51969409200046,,,,,,,,,,,,,,,,,179.50916830200003,179.85473133400046,180.64853423300065,180.638949575,,,,,,,,,,,,,,,,,,,,,,,,,,,,,,,,,,,180.6397304700004,180.64853423300065,180.64853423300065,181.1733843740003,b,1.0,0.5171003410005142,,,,,sub-231,1,stroop_test,64.86163019797634,
,,,,30.0,6.0,2.0,,,,,,,,,,,,,blau,blue,b,1.0,b,1.0,0.668734606999351,,,,,,,,,,2.0,6.0,30.0,6.0,181.1829580610001,,,,,,,,,,,,,,,,,181.17369836800023,181.271827691,182.0698454800004,182.0552109300006,,,,,,,,,,,,,,,,,,,,,,,,,,,,,,,,,,,182.0613387860003,182.0698454800004,182.0698454800004,182.7417815460003,b,1.0,0.668734606999351,,,,,sub-231,1,stroop_test,64.86163019797634,
,,,,31.0,7.0,2.0,,,,,,,,,,,,,rot,blue,b,0.0,b,1.0,0.7336006269997597,,,,,,,,,,2.0,7.0,31.0,2.0,182.75473361500008,,,,,,,,,,,,,,,,,182.74235105700063,183.08857542199985,183.8859816780005,183.8731931530001,,,,,,,,,,,,,,,,,,,,,,,,,,,,,,,,,,,183.8776128330001,183.8859816780005,183.8859816780005,184.62935800300056,b,1.0,0.7336006269997597,,,,,sub-231,1,stroop_test,64.86163019797634,
,,,,32.0,8.0,2.0,,,,,,,,,,,,,rot,red,r,1.0,r,1.0,0.5265796709991264,,,,,,,,,,2.0,8.0,32.0,1.0,184.64096902100027,,,,,,,,,,,,,,,,,184.6298010010005,185.42889152499995,186.22570625900065,186.2138554990006,,,,,,,,,,,,,,,,,,,,,,,,,,,,,,,,,,,186.214648876,186.22570625900065,186.22570625900065,186.75869130200044,r,1.0,0.5265796709991264,,,,,sub-231,1,stroop_test,64.86163019797634,
,,,,33.0,9.0,2.0,,,,,,,,,,,,,blau,yellow,g,0.0,g,1.0,0.5104891010005304,,,,,,,,,,2.0,9.0,33.0,7.0,186.7706114170005,,,,,,,,,,,,,,,,,186.75928366600056,187.5547124470004,188.3511016299999,188.3387289570001,,,,,,,,,,,,,,,,,,,,,,,,,,,,,,,,,,,188.3429544370001,188.3511016299999,188.3511016299999,188.87349753200036,g,1.0,0.5104891010005304,,,,,sub-231,1,stroop_test,64.86163019797634,
,,,,34.0,10.0,2.0,,,,,,,,,,,,,gelb,yellow,g,1.0,g,1.0,0.3909115520000341,,,,,,,,,,2.0,10.0,34.0,10.0,188.8838238870003,,,,,,,,,,,,,,,,,188.87393994100057,190.07095572400067,190.86740890800047,190.85506898400035,,,,,,,,,,,,,,,,,,,,,,,,,,,,,,,,,,,190.8593679350006,190.86740890800047,190.86740890800047,191.26382107600057,g,1.0,0.3909115520000341,,,,,sub-231,1,stroop_test,64.86163019797634,
,,,,35.0,11.0,2.0,,,,,,,,,,,,,blau,red,r,0.0,b,0.0,0.4723573200008104,,,,,,,,,,2.0,11.0,35.0,4.0,191.27676258200063,,,,,,,,,,,,,,,,,191.26413689200035,192.06216762300028,192.8599460000005,192.84645056699992,,,,,,,,,,,,,,,,,,,,,,,,,,,,,,,,,,,192.85113566500056,192.8599460000005,192.8599460000005,193.3407188170004,b,0.0,0.4723573200008104,,,,,sub-231,1,stroop_test,64.86163019797634,
,,,,36.0,0.0,3.0,,,,,,,,,,,,,rot,red,r,1.0,r,1.0,0.8552183219999279,,,,,,,,,,3.0,0.0,36.0,0.0,193.351482649,,,,,,,,,,,,,,,,,193.34115501399992,193.443000196,194.24141459100065,194.2265488110006,,,,,,,,,,,,,,,,,,,,,,,,,,,,,,,,,,,194.2308018950007,194.24141459100065,194.24141459100065,195.1001582480003,r,1.0,0.8552183219999279,,,,,sub-231,1,stroop_test,64.86163019797634,
,,,,37.0,1.0,3.0,,,,,,,,,,,,,rot,yellow,g,0.0,g,1.0,0.5775575049992767,,,,,,,,,,3.0,1.0,37.0,3.0,195.11168026799987,,,,,,,,,,,,,,,,,195.1006376760006,195.44507580200025,196.24225197900068,196.22968155200036,,,,,,,,,,,,,,,,,,,,,,,,,,,,,,,,,,,196.23048239400032,196.24225197900068,196.24225197900068,196.82434562700016,g,1.0,0.5775575049992767,,,,,sub-231,1,stroop_test,64.86163019797634,
,,,,38.0,2.0,3.0,,,,,,,,,,,,,blau,blue,b,1.0,b,1.0,0.5378534470000886,,,,,,,,,,3.0,2.0,38.0,5.0,196.83546005400055,,,,,,,,,,,,,,,,,196.82478888400053,197.62068987400016,198.4176073489998,198.4048462560004,,,,,,,,,,,,,,,,,,,,,,,,,,,,,,,,,,,198.4095442400003,198.4176073489998,198.4176073489998,198.9587889610002,b,1.0,0.5378534470000886,,,,,sub-231,1,stroop_test,64.86163019797634,
,,,,39.0,3.0,3.0,,,,,,,,,,,,,gelb,red,r,0.0,r,1.0,0.867926365999665,,,,,,,,,,3.0,3.0,39.0,8.0,198.970707556,,,,,,,,,,,,,,,,,198.95953524300057,199.314415242,200.11250073000065,200.1004318530004,,,,,,,,,,,,,,,,,,,,,,,,,,,,,,,,,,,200.10311647800063,200.11250073000065,200.11250073000065,200.99332421100007,r,1.0,0.867926365999665,,,,,sub-231,1,stroop_test,64.86163019797634,
,,,,40.0,4.0,3.0,,,,,,,,,,,,,blau,red,r,0.0,r,1.0,0.7486618240000098,,,,,,,,,,3.0,4.0,40.0,4.0,201.0051269680007,,,,,,,,,,,,,,,,,200.9939292429999,201.10089661800063,201.9013585570001,201.88845891500023,,,,,,,,,,,,,,,,,,,,,,,,,,,,,,,,,,,201.89298874999983,201.9013585570001,201.9013585570001,202.65740762299995,r,1.0,0.7486618240000098,,,,,sub-231,1,stroop_test,64.86163019797634,
,,,,41.0,5.0,3.0,,,,,,,,,,,,,gelb,blue,b,0.0,b,1.0,0.4937576530001024,,,,,,,,,,3.0,5.0,41.0,9.0,202.66823635299988,,,,,,,,,,,,,,,,,202.6578536779998,203.00433844500003,203.80223840600047,203.7894679030005,,,,,,,,,,,,,,,,,,,,,,,,,,,,,,,,,,,203.79375634400003,203.80223840600047,203.80223840600047,204.30735067600017,b,1.0,0.4937576530001024,,,,,sub-231,1,stroop_test,64.86163019797634,
,,,,42.0,6.0,3.0,,,,,,,,,,,,,blau,yellow,g,0.0,g,1.0,0.6970012929996301,,,,,,,,,,3.0,6.0,42.0,7.0,204.31832389200008,,,,,,,,,,,,,,,,,204.3077876860007,204.4095556700004,205.2215113279999,205.205043164,,,,,,,,,,,,,,,,,,,,,,,,,,,,,,,,,,,205.2095945390001,205.2215113279999,205.2215113279999,205.92972842200012,g,1.0,0.6970012929996301,,,,,sub-231,1,stroop_test,64.86163019797634,
,,,,43.0,7.0,3.0,,,,,,,,,,,,,gelb,yellow,g,1.0,g,1.0,0.5890335009999035,,,,,,,,,,3.0,7.0,43.0,10.0,205.9415423139999,,,,,,,,,,,,,,,,,205.93016491900016,206.28769557900068,207.0911577910001,207.07618085500053,,,,,,,,,,,,,,,,,,,,,,,,,,,,,,,,,,,207.0805875550004,207.0911577910001,207.0911577910001,207.68368672999983,g,1.0,0.5890335009999035,,,,,sub-231,1,stroop_test,64.86163019797634,
,,,,44.0,8.0,3.0,,,,,,,,,,,,,rot,blue,b,0.0,b,1.0,0.8650641020003604,,,,,,,,,,3.0,8.0,44.0,2.0,207.69498764800028,,,,,,,,,,,,,,,,,207.68408886999987,207.78004413000053,208.58029662199988,208.5653175490006,,,,,,,,,,,,,,,,,,,,,,,,,,,,,,,,,,,208.57002592000023,208.58029662199988,208.58029662199988,209.45102548600065,b,1.0,0.8650641020003604,,,,,sub-231,1,stroop_test,64.86163019797634,
,,,,45.0,9.0,3.0,,,,,,,,,,,,,rot,red,r,1.0,r,1.0,0.4014105349997408,,,,,,,,,,3.0,9.0,45.0,1.0,209.4624454929999,,,,,,,,,,,,,,,,,209.4514707770004,210.24516654299987,211.04727558000013,211.03796523100027,,,,,,,,,,,,,,,,,,,,,,,,,,,,,,,,,,,211.03854268900068,211.04727558000013,211.04727558000013,211.458685609,r,1.0,0.4014105349997408,,,,,sub-231,1,stroop_test,64.86163019797634,
,,,,46.0,10.0,3.0,,,,,,,,,,,,,blau,blue,b,1.0,b,1.0,0.8675682299999607,,,,,,,,,,3.0,10.0,46.0,6.0,211.4713612840005,,,,,,,,,,,,,,,,,211.459006303,212.65417435000015,213.4509782920004,213.43797668300067,,,,,,,,,,,,,,,,,,,,,,,,,,,,,,,,,,,213.442910324,213.4509782920004,213.4509782920004,214.330520427,b,1.0,0.8675682299999607,,,,,sub-231,1,stroop_test,64.86163019797634,
,,,,47.0,11.0,3.0,,,,,,,,,,,,,gelb,yellow,g,1.0,g,1.0,0.6051805010001772,,,,,,,,,,3.0,11.0,47.0,11.0,214.34331862599996,,,,,,,,,,,,,,,,,214.33111472600007,215.53679505200037,216.35550259200045,216.33872075,,,,,,,,,,,,,,,,,,,,,,,,,,,,,,,,,,,216.341993686,216.35550259200045,216.35550259200045,216.96774349299997,g,1.0,0.6051805010001772,,,,,sub-231,1,stroop_test,64.86163019797634,
,,,,48.0,0.0,4.0,,,,,,,,,,,,,blau,red,r,0.0,r,1.0,0.6146875650001675,,,,,,,,,,4.0,0.0,48.0,4.0,216.9793431980006,,,,,,,,,,,,,,,,,216.96819053299987,217.76105514400024,218.558972754,218.54575999400004,,,,,,,,,,,,,,,,,,,,,,,,,,,,,,,,,,,218.55022075600027,218.558972754,218.558972754,219.17700450600023,r,1.0,0.6146875650001675,,,,,sub-231,1,stroop_test,64.86163019797634,
,,,,49.0,1.0,4.0,,,,,,,,,,,,,gelb,blue,b,0.0,b,1.0,0.6448274479998872,,,,,,,,,,4.0,1.0,49.0,9.0,219.18828069200023,,,,,,,,,,,,,,,,,219.17776315500032,219.2705980770006,220.06765755600009,220.05476473999988,,,,,,,,,,,,,,,,,,,,,,,,,,,,,,,,,,,220.0590710510005,220.06765755600009,220.06765755600009,220.715522814,b,1.0,0.6448274479998872,,,,,sub-231,1,stroop_test,64.86163019797634,
,,,,50.0,2.0,4.0,,,,,,,,,,,,,gelb,yellow,g,1.0,g,1.0,1.1209857659996487,,,,,,,,,,4.0,2.0,50.0,10.0,220.7279189390001,,,,,,,,,,,,,,,,,220.7161883230001,221.9106396470006,222.70650553700037,222.69543241300016,,,,,,,,,,,,,,,,,,,,,,,,,,,,,,,,,,,222.69622942700065,222.70650553700037,222.70650553700037,223.84010157100056,g,1.0,1.1209857659996487,,,,,sub-231,1,stroop_test,64.86163019797634,
,,,,51.0,3.0,4.0,,,,,,,,,,,,,rot,blue,b,0.0,b,1.0,0.763429589000225,,,,,,,,,,4.0,3.0,51.0,2.0,223.85051609099992,,,,,,,,,,,,,,,,,223.84054225100044,224.63727836,225.433438262,225.4213064630003,,,,,,,,,,,,,,,,,,,,,,,,,,,,,,,,,,,225.42547280800045,225.433438262,225.433438262,226.20816387800005,b,1.0,0.763429589000225,,,,,sub-231,1,stroop_test,64.86163019797634,
,,,,52.0,4.0,4.0,,,,,,,,,,,,,gelb,yellow,g,1.0,g,1.0,0.4944473550003749,,,,,,,,,,4.0,4.0,52.0,11.0,226.22296866800025,,,,,,,,,,,,,,,,,226.20872307900024,226.32124355900032,227.1188841880003,227.1054470290001,,,,,,,,,,,,,,,,,,,,,,,,,,,,,,,,,,,227.10903728199992,227.1188841880003,227.1188841880003,227.6234348429998,g,1.0,0.4944473550003749,,,,,sub-231,1,stroop_test,64.86163019797634,
,,,,53.0,5.0,4.0,,,,,,,,,,,,,gelb,red,r,0.0,r,1.0,0.2951157239995154,,,,,,,,,,4.0,5.0,53.0,8.0,227.63355004999997,,,,,,,,,,,,,,,,,227.6238310240005,228.82042677700065,229.6146587610001,229.60527449200072,,,,,,,,,,,,,,,,,,,,,,,,,,,,,,,,,,,229.60608500499984,229.6146587610001,229.6146587610001,229.92179478800065,r,1.0,0.2951157239995154,,,,,sub-231,1,stroop_test,64.86163019797634,
,,,,54.0,6.0,4.0,,,,,,,,,,,,,blau,blue,b,1.0,b,1.0,0.5401391329996841,,,,,,,,,,4.0,6.0,54.0,6.0,229.93297588899983,,,,,,,,,,,,,,,,,229.92227585,230.7205118440006,231.5139903899999,231.50395000800015,,,,,,,,,,,,,,,,,,,,,,,,,,,,,,,,,,,231.5066317740002,231.5139903899999,231.5139903899999,232.05625754999983,b,1.0,0.5401391329996841,,,,,sub-231,1,stroop_test,64.86163019797634,
,,,,55.0,7.0,4.0,,,,,,,,,,,,,rot,yellow,g,0.0,g,1.0,0.8013510929995391,,,,,,,,,,4.0,7.0,55.0,3.0,232.06704524199995,,,,,,,,,,,,,,,,,232.05691593600025,232.40342179800064,233.20035049000035,233.18789679900053,,,,,,,,,,,,,,,,,,,,,,,,,,,,,,,,,,,233.1923526110004,233.20035049000035,233.20035049000035,234.010945733,g,1.0,0.8013510929995391,,,,,sub-231,1,stroop_test,64.86163019797634,
,,,,56.0,8.0,4.0,,,,,,,,,,,,,rot,red,r,1.0,r,1.0,0.7842921569999817,,,,,,,,,,4.0,8.0,56.0,1.0,234.0208547860002,,,,,,,,,,,,,,,,,234.0113313640004,235.20409802700036,235.99793262500043,235.98849243099997,,,,,,,,,,,,,,,,,,,,,,,,,,,,,,,,,,,235.989275764,235.99793262500043,235.99793262500043,236.79544255400012,r,1.0,0.7842921569999817,,,,,sub-231,1,stroop_test,64.86163019797634,
,,,,57.0,9.0,4.0,,,,,,,,,,,,,rot,red,r,1.0,r,1.0,0.4624347769995438,,,,,,,,,,4.0,9.0,57.0,0.0,236.80689208000055,,,,,,,,,,,,,,,,,236.7959054010007,236.90325471100005,237.7032902020001,237.6923330919999,,,,,,,,,,,,,,,,,,,,,,,,,,,,,,,,,,,237.69310405000036,237.7032902020001,237.7032902020001,238.1736470300002,r,1.0,0.4624347769995438,,,,,sub-231,1,stroop_test,64.86163019797634,
,,,,58.0,10.0,4.0,,,,,,,,,,,,,blau,yellow,g,0.0,b,0.0,0.636692686999595,,,,,,,,,,4.0,10.0,58.0,7.0,238.1847934240004,,,,,,,,,,,,,,,,,238.17408842500024,238.97064521799985,239.7680933510001,239.7551410610004,,,,,,,,,,,,,,,,,,,,,,,,,,,,,,,,,,,239.75967574900005,239.7680933510001,239.7680933510001,240.41255557300065,b,0.0,0.636692686999595,,,,,sub-231,1,stroop_test,64.86163019797634,
,,,,59.0,11.0,4.0,,,,,,,,,,,,,blau,blue,b,1.0,b,1.0,0.5310082470005,,,,,,,,,,4.0,11.0,59.0,5.0,240.42665808600032,,,,,,,,,,,,,,,,,240.4129919650004,240.51481905499983,241.3171078330006,241.30611864100047,,,,,,,,,,,,,,,,,,,,,,,,,,,,,,,,,,,241.3069045910006,241.3171078330006,241.3171078330006,241.85473778600044,b,1.0,0.5310082470005,,,,,sub-231,1,stroop_test,64.86163019797634,
,,,,60.0,0.0,5.0,,,,,,,,,,,,,gelb,blue,b,0.0,b,1.0,0.6881398639998224,,,,,,,,,,5.0,0.0,60.0,9.0,241.86900993000015,,,,,,,,,,,,,,,,,241.8550544290001,242.20388281900068,243.000176689,242.98786277599996,,,,,,,,,,,,,,,,,,,,,,,,,,,,,,,,,,,242.99223675900063,243.000176689,243.000176689,243.69475604800027,b,1.0,0.6881398639998224,,,,,sub-231,1,stroop_test,64.86163019797634,
,,,,61.0,1.0,5.0,,,,,,,,,,,,,rot,red,r,1.0,r,1.0,0.4886563659993044,,,,,,,,,,5.0,1.0,61.0,1.0,243.70479106099992,,,,,,,,,,,,,,,,,243.69518984100068,244.88694834499984,245.6845123030007,245.672215996,,,,,,,,,,,,,,,,,,,,,,,,,,,,,,,,,,,245.67644136200036,245.6845123030007,245.6845123030007,246.17675215800045,r,1.0,0.4886563659993044,,,,,sub-231,1,stroop_test,64.86163019797634,
,,,,62.0,2.0,5.0,,,,,,,,,,,,,blau,red,r,0.0,r,1.0,0.6894781279997915,,,,,,,,,,5.0,2.0,62.0,4.0,246.18769833199983,,,,,,,,,,,,,,,,,246.1772004150007,246.5200601280003,247.31248472100012,247.30337080400025,,,,,,,,,,,,,,,,,,,,,,,,,,,,,,,,,,,247.30559061700023,247.31248472100012,247.31248472100012,248.00514383000063,r,1.0,0.6894781279997915,,,,,sub-231,1,stroop_test,64.86163019797634,
,,,,63.0,3.0,5.0,,,,,,,,,,,,,blau,blue,b,1.0,b,1.0,0.4427045860002181,,,,,,,,,,5.0,3.0,63.0,5.0,248.0142233030001,,,,,,,,,,,,,,,,,248.00553869400028,248.80295790899984,249.59511713700067,249.58711103800036,,,,,,,,,,,,,,,,,,,,,,,,,,,,,,,,,,,249.58769864700025,249.59511713700067,249.59511713700067,250.05523321200053,b,1.0,0.4427045860002181,,,,,sub-231,1,stroop_test,64.86163019797634,
,,,,64.0,4.0,5.0,,,,,,,,,,,,,gelb,yellow,g,1.0,g,1.0,0.6883285190006063,,,,,,,,,,5.0,4.0,64.0,10.0,250.0709428600003,,,,,,,,,,,,,,,,,250.05569254700004,250.4036311560003,251.20151912300025,251.1880082810003,,,,,,,,,,,,,,,,,,,,,,,,,,,,,,,,,,,251.193210075,251.20151912300025,251.20151912300025,251.8942717910004,g,1.0,0.6883285190006063,,,,,sub-231,1,stroop_test,64.86163019797634,
,,,,65.0,5.0,5.0,,,,,,,,,,,,,rot,yellow,g,0.0,g,1.0,0.4023792200005118,,,,,,,,,,5.0,5.0,65.0,3.0,251.9045800620006,,,,,,,,,,,,,,,,,251.89465029800067,251.9960346150001,252.79967267099985,252.78759653,,,,,,,,,,,,,,,,,,,,,,,,,,,,,,,,,,,252.79170650000012,252.79967267099985,252.79967267099985,253.22247210600017,g,1.0,0.4023792200005118,,,,,sub-231,1,stroop_test,64.86163019797634,
,,,,66.0,6.0,5.0,,,,,,,,,,,,,rot,red,r,1.0,r,1.0,0.4993664510002418,,,,,,,,,,5.0,6.0,66.0,0.0,253.2379327890003,,,,,,,,,,,,,,,,,253.22291996700005,253.5705324970004,254.363667652,254.3542626260005,,,,,,,,,,,,,,,,,,,,,,,,,,,,,,,,,,,254.35505489700063,254.363667652,254.363667652,254.8725622360007,r,1.0,0.4993664510002418,,,,,sub-231,1,stroop_test,64.86163019797634,
,,,,67.0,7.0,5.0,,,,,,,,,,,,,gelb,yellow,g,1.0,g,1.0,0.5341259809993062,,,,,,,,,,5.0,7.0,67.0,11.0,254.8829885960004,,,,,,,,,,,,,,,,,254.8729995650001,255.21996448700065,256.0172639250004,256.0045453500006,,,,,,,,,,,,,,,,,,,,,,,,,,,,,,,,,,,256.00897830400027,256.0172639250004,256.0172639250004,256.56164686300053,g,1.0,0.5341259809993062,,,,,sub-231,1,stroop_test,64.86163019797634,
,,,,68.0,8.0,5.0,,,,,,,,,,,,,blau,blue,b,1.0,b,1.0,0.5505892390001463,,,,,,,,,,5.0,8.0,68.0,6.0,256.57560615000057,,,,,,,,,,,,,,,,,256.5622053400002,256.655022979,257.4510660440001,257.4386811350005,,,,,,,,,,,,,,,,,,,,,,,,,,,,,,,,,,,257.44297449900023,257.4510660440001,257.4510660440001,258.0066399520001,b,1.0,0.5505892390001463,,,,,sub-231,1,stroop_test,64.86163019797634,
,,,,69.0,9.0,5.0,,,,,,,,,,,,,gelb,red,r,0.0,r,1.0,0.3365644710002016,,,,,,,,,,5.0,9.0,69.0,8.0,258.017284001,,,,,,,,,,,,,,,,,258.0070958460001,259.20314534000045,259.99946102100057,259.9872593700002,,,,,,,,,,,,,,,,,,,,,,,,,,,,,,,,,,,259.9916192620003,259.99946102100057,259.99946102100057,260.33969460200024,r,1.0,0.3365644710002016,,,,,sub-231,1,stroop_test,64.86163019797634,
,,,,70.0,10.0,5.0,,,,,,,,,,,,,blau,yellow,g,0.0,g,1.0,0.5538637270001345,,,,,,,,,,5.0,10.0,70.0,7.0,260.3494883829999,,,,,,,,,,,,,,,,,260.3401404920005,260.43624971900044,261.23227750300066,261.2205621660005,,,,,,,,,,,,,,,,,,,,,,,,,,,,,,,,,,,261.2244808260002,261.23227750300066,261.23227750300066,261.7890393150001,g,1.0,0.5538637270001345,,,,,sub-231,1,stroop_test,64.86163019797634,
,,,,71.0,11.0,5.0,,,,,,,,,,,,,rot,blue,b,0.0,b,1.0,0.4739828789997773,,,,,,,,,,5.0,11.0,71.0,2.0,261.7982328850003,,,,,,,,,,,,,,,,,261.78952455800027,262.58638456800054,263.3830111490006,263.3708113319999,,,,,,,,,,,,,,,,,,,,,,,,,,,,,,,,,,,263.3749770029999,263.3830111490006,263.3830111490006,263.870964316,b,1.0,0.4739828789997773,,,,,sub-231,1,stroop_test,64.86163019797634,
,,,,72.0,0.0,6.0,,,,,,,,,,,,,gelb,blue,b,0.0,b,1.0,0.7807505029995809,,,,,,,,,,6.0,0.0,72.0,9.0,263.88072037500024,,,,,,,,,,,,,,,,,263.87141583599987,264.6699229750002,265.4670920510007,265.4540756200004,,,,,,,,,,,,,,,,,,,,,,,,,,,,,,,,,,,265.4589962480004,265.4670920510007,265.4670920510007,266.2568172190004,b,1.0,0.7807505029995809,,,,,sub-231,1,stroop_test,64.86163019797634,
,,,,73.0,1.0,6.0,,,,,,,,,,,,,rot,blue,b,0.0,b,1.0,0.6098567170001843,,,,,,,,,,6.0,1.0,73.0,2.0,266.2677186010005,,,,,,,,,,,,,,,,,266.25719714300067,267.05356593600027,267.85152427400044,267.83801242200025,,,,,,,,,,,,,,,,,,,,,,,,,,,,,,,,,,,267.8424300280003,267.85152427400044,267.85152427400044,268.4736962450006,b,1.0,0.6098567170001843,,,,,sub-231,1,stroop_test,64.86163019797634,
,,,,74.0,2.0,6.0,,,,,,,,,,,,,blau,blue,b,1.0,b,1.0,0.4577259229999981,,,,,,,,,,6.0,2.0,74.0,5.0,268.4879315520002,,,,,,,,,,,,,,,,,268.4743481280002,268.82015735500045,269.61543834500026,269.6040239160002,,,,,,,,,,,,,,,,,,,,,,,,,,,,,,,,,,,269.60731522600054,269.61543834500026,269.61543834500026,270.082055414,b,1.0,0.4577259229999981,,,,,sub-231,1,stroop_test,64.86163019797634,
,,,,75.0,3.0,6.0,,,,,,,,,,,,,rot,yellow,g,0.0,g,1.0,1.003224168000088,,,,,,,,,,6.0,3.0,75.0,3.0,270.09356257200034,,,,,,,,,,,,,,,,,270.08246984500056,270.42813419899994,271.2298516710007,271.21471908500007,,,,,,,,,,,,,,,,,,,,,,,,,,,,,,,,,,,271.219234743,271.2298516710007,271.2298516710007,272.2385824140001,g,1.0,1.003224168000088,,,,,sub-231,1,stroop_test,64.86163019797634,
,,,,76.0,4.0,6.0,,,,,,,,,,,,,blau,yellow,g,0.0,g,1.0,0.513491366999915,,,,,,,,,,6.0,4.0,76.0,7.0,272.2540609020007,,,,,,,,,,,,,,,,,272.23889976400005,272.33673904399984,273.13449719800064,273.1212487410003,,,,,,,,,,,,,,,,,,,,,,,,,,,,,,,,,,,273.1255781330001,273.13449719800064,273.13449719800064,273.6563568219999,g,1.0,0.513491366999915,,,,,sub-231,1,stroop_test,64.86163019797634,
,,,,77.0,5.0,6.0,,,,,,,,,,,,,gelb,yellow,g,1.0,g,1.0,0.46523508700011,,,,,,,,,,6.0,5.0,77.0,11.0,273.66721160199995,,,,,,,,,,,,,,,,,273.65679701000045,274.853014413,275.6502745550006,275.6377382420005,,,,,,,,,,,,,,,,,,,,,,,,,,,,,,,,,,,275.6421925270006,275.6502745550006,275.6502745550006,276.1229769950005,g,1.0,0.46523508700011,,,,,sub-231,1,stroop_test,64.86163019797634,
,,,,78.0,6.0,6.0,,,,,,,,,,,,,blau,red,r,0.0,b,0.0,0.394390065999687,,,,,,,,,,6.0,6.0,78.0,4.0,276.13359553100054,,,,,,,,,,,,,,,,,276.1234142740004,276.920087988,277.71625127600055,277.7039303299998,,,,,,,,,,,,,,,,,,,,,,,,,,,,,,,,,,,277.7081790030006,277.71625127600055,277.71625127600055,278.1146420590003,b,0.0,0.394390065999687,,,,,sub-231,1,stroop_test,64.86163019797634,
,,,,79.0,7.0,6.0,,,,,,,,,,,,,gelb,yellow,g,1.0,g,1.0,0.5694222269994498,,,,,,,,,,6.0,7.0,79.0,10.0,278.12492724300046,,,,,,,,,,,,,,,,,278.11505010200017,278.46037383100065,279.2588911570001,279.2448337599999,,,,,,,,,,,,,,,,,,,,,,,,,,,,,,,,,,,279.2500089720006,279.2588911570001,279.2588911570001,279.8395933520005,g,1.0,0.5694222269994498,,,,,sub-231,1,stroop_test,64.86163019797634,
,,,,80.0,8.0,6.0,,,,,,,,,,,,,blau,blue,b,1.0,b,1.0,0.5677389570000742,,,,,,,,,,6.0,8.0,80.0,6.0,279.85037591699984,,,,,,,,,,,,,,,,,279.84003755200047,279.93598502500026,280.73328749900065,280.7212264740001,,,,,,,,,,,,,,,,,,,,,,,,,,,,,,,,,,,280.7254221210005,280.73328749900065,280.73328749900065,281.310475106,b,1.0,0.5677389570000742,,,,,sub-231,1,stroop_test,64.86163019797634,
,,,,81.0,9.0,6.0,,,,,,,,,,,,,rot,red,r,1.0,r,1.0,0.4897710840004947,,,,,,,,,,6.0,9.0,81.0,1.0,281.3206509700003,,,,,,,,,,,,,,,,,281.3109133329999,281.4036188400005,282.19844891200046,282.1868350430004,,,,,,,,,,,,,,,,,,,,,,,,,,,,,,,,,,,282.1903775790006,282.19844891200046,282.19844891200046,282.70622317200014,r,1.0,0.4897710840004947,,,,,sub-231,1,stroop_test,64.86163019797634,
,,,,82.0,10.0,6.0,,,,,,,,,,,,,gelb,red,r,0.0,r,1.0,0.4490628590001506,,,,,,,,,,6.0,10.0,82.0,8.0,282.7188590989999,,,,,,,,,,,,,,,,,282.706822997,282.80363385500004,283.6068051030006,283.59190370099986,,,,,,,,,,,,,,,,,,,,,,,,,,,,,,,,,,,283.59610719600005,283.6068051030006,283.6068051030006,284.0677730470006,r,1.0,0.4490628590001506,,,,,sub-231,1,stroop_test,64.86163019797634,
,,,,83.0,11.0,6.0,,,,,,,,,,,,,rot,red,r,1.0,r,1.0,0.453963924999698,,,,,,,,,,6.0,11.0,83.0,0.0,284.07885635300045,,,,,,,,,,,,,,,,,284.0682339519999,284.4371478590001,285.2361639810006,285.2219686890003,,,,,,,,,,,,,,,,,,,,,,,,,,,,,,,,,,,285.2262573380003,285.2361639810006,285.2361639810006,285.6951530310007,r,1.0,0.453963924999698,,,,,sub-231,1,stroop_test,64.86163019797634,
,,,,84.0,0.0,7.0,,,,,,,,,,,,,rot,red,r,1.0,r,1.0,0.4133554230002119,,,,,,,,,,7.0,0.0,84.0,1.0,285.708936436,,,,,,,,,,,,,,,,,285.6957624780007,285.796737353,286.59409977199994,286.58126651600014,,,,,,,,,,,,,,,,,,,,,,,,,,,,,,,,,,,286.582296992,286.59409977199994,286.59409977199994,287.02166314700025,r,1.0,0.4133554230002119,,,,,sub-231,1,stroop_test,64.86163019797634,
,,,,85.0,1.0,7.0,,,,,,,,,,,,,blau,blue,b,1.0,b,1.0,0.4851034499997695,,,,,,,,,,7.0,1.0,85.0,6.0,287.03670802800025,,,,,,,,,,,,,,,,,287.0221216610007,287.3698796630006,288.1669294050007,288.1542266870001,,,,,,,,,,,,,,,,,,,,,,,,,,,,,,,,,,,288.1584815180004,288.1669294050007,288.1669294050007,288.6559075820005,b,1.0,0.4851034499997695,,,,,sub-231,1,stroop_test,64.86163019797634,
,,,,86.0,2.0,7.0,,,,,,,,,,,,,gelb,yellow,g,1.0,g,1.0,0.6295507949998864,,,,,,,,,,7.0,2.0,86.0,11.0,288.666355759,,,,,,,,,,,,,,,,,288.6563161610002,288.77043033100017,289.5730758540003,289.55846122300045,,,,,,,,,,,,,,,,,,,,,,,,,,,,,,,,,,,289.56235966700024,289.5730758540003,289.5730758540003,290.2058527529998,g,1.0,0.6295507949998864,,,,,sub-231,1,stroop_test,64.86163019797634,
,,,,87.0,3.0,7.0,,,,,,,,,,,,,blau,yellow,g,0.0,g,1.0,0.4935251349997998,,,,,,,,,,7.0,3.0,87.0,7.0,290.2211951190002,,,,,,,,,,,,,,,,,290.2063051240002,291.4029124180006,292.201173251,292.18730799200057,,,,,,,,,,,,,,,,,,,,,,,,,,,,,,,,,,,292.1925450300005,292.201173251,292.201173251,292.6991901199999,g,1.0,0.4935251349997998,,,,,sub-231,1,stroop_test,64.86163019797634,
,,,,88.0,4.0,7.0,,,,,,,,,,,,,blau,red,r,0.0,r,1.0,0.6280767890002608,,,,,,,,,,7.0,4.0,88.0,4.0,292.71018676400035,,,,,,,,,,,,,,,,,292.6997786760003,293.49345044300026,294.289443574,294.2779343310003,,,,,,,,,,,,,,,,,,,,,,,,,,,,,,,,,,,294.27872768199995,294.289443574,294.289443574,294.9274968760001,r,1.0,0.6280767890002608,,,,,sub-231,1,stroop_test,64.86163019797634,
,,,,89.0,5.0,7.0,,,,,,,,,,,,,gelb,red,r,0.0,r,1.0,0.4151572399996439,,,,,,,,,,7.0,5.0,89.0,8.0,294.93796587999987,,,,,,,,,,,,,,,,,294.9278833670005,295.7272322580002,296.52519322599983,296.5117296440003,,,,,,,,,,,,,,,,,,,,,,,,,,,,,,,,,,,296.5159071580001,296.52519322599983,296.52519322599983,296.94505084200046,r,1.0,0.4151572399996439,,,,,sub-231,1,stroop_test,64.86163019797634,
,,,,90.0,6.0,7.0,,,,,,,,,,,,,rot,yellow,g,0.0,g,1.0,0.49108362700008,,,,,,,,,,7.0,6.0,90.0,3.0,296.95868368599986,,,,,,,,,,,,,,,,,296.945658826,297.74412085899985,298.539574941,298.5275499890004,,,,,,,,,,,,,,,,,,,,,,,,,,,,,,,,,,,298.5307738199999,298.539574941,298.539574941,299.0351495949999,g,1.0,0.49108362700008,,,,,sub-231,1,stroop_test,64.86163019797634,
,,,,91.0,7.0,7.0,,,,,,,,,,,,,gelb,blue,b,0.0,b,1.0,0.4800911330003146,,,,,,,,,,7.0,7.0,91.0,9.0,299.0469997959999,,,,,,,,,,,,,,,,,299.03560246300003,299.8272522269999,300.62390765500004,300.61131378400023,,,,,,,,,,,,,,,,,,,,,,,,,,,,,,,,,,,300.61532976800027,300.62390765500004,300.62390765500004,301.1084981430004,b,1.0,0.4800911330003146,,,,,sub-231,1,stroop_test,64.86163019797634,
,,,,92.0,8.0,7.0,,,,,,,,,,,,,rot,blue,b,0.0,b,1.0,0.4177322189998449,,,,,,,,,,7.0,8.0,92.0,2.0,301.1181617930006,,,,,,,,,,,,,,,,,301.1089421710003,301.2031695830001,302.0001412020001,301.98810909700023,,,,,,,,,,,,,,,,,,,,,,,,,,,,,,,,,,,301.992305152,302.0001412020001,302.0001412020001,302.42182503799995,b,1.0,0.4177322189998449,,,,,sub-231,1,stroop_test,64.86163019797634,
,,,,93.0,9.0,7.0,,,,,,,,,,,,,blau,blue,b,1.0,b,1.0,0.6404732099999819,,,,,,,,,,7.0,9.0,93.0,5.0,302.43179536700063,,,,,,,,,,,,,,,,,302.4222711950006,303.6190449750002,304.4158234760007,304.403482105,,,,,,,,,,,,,,,,,,,,,,,,,,,,,,,,,,,304.40813483000056,304.4158234760007,304.4158234760007,305.0666382260006,b,1.0,0.6404732099999819,,,,,sub-231,1,stroop_test,64.86163019797634,
,,,,94.0,10.0,7.0,,,,,,,,,,,,,rot,red,r,1.0,r,1.0,0.5209490140005073,,,,,,,,,,7.0,10.0,94.0,0.0,305.0777821640004,,,,,,,,,,,,,,,,,305.06708843100023,305.4105216480002,306.2078336600007,306.19424572200023,,,,,,,,,,,,,,,,,,,,,,,,,,,,,,,,,,,306.1986927550006,306.2078336600007,306.2078336600007,306.7316380000002,r,1.0,0.5209490140005073,,,,,sub-231,1,stroop_test,64.86163019797634,
,,,,95.0,11.0,7.0,,,,,,,,,,,,,gelb,yellow,g,1.0,g,1.0,0.3878547800004526,,,,,,,,,,7.0,11.0,95.0,10.0,306.7430501839999,,,,,,,,,,,,,,,,,306.7321511320006,307.5268321780004,308.3250445470003,308.311147122,,,,,,,,,,,,,,,,,,,,,,,,,,,,,,,,,,,308.3159943850005,308.3250445470003,308.3250445470003,308.7228077460004,g,1.0,0.3878547800004526,,,,,sub-231,1,stroop_test,64.86163019797634,
,,,,96.0,0.0,8.0,,,,,,,,,,,,,rot,red,r,1.0,r,1.0,0.5039037899996401,,,,,,,,,,8.0,0.0,96.0,0.0,308.73308330000054,,,,,,,,,,,,,,,,,308.7231287940004,309.5192381300003,310.3158686780007,310.30359589,,,,,,,,,,,,,,,,,,,,,,,,,,,,,,,,,,,310.3078433690007,310.3158686780007,310.3158686780007,310.8271390480004,r,1.0,0.5039037899996401,,,,,sub-231,1,stroop_test,64.86163019797634,
,,,,97.0,1.0,8.0,,,,,,,,,,,,,rot,yellow,g,0.0,g,1.0,0.4300031139991915,,,,,,,,,,8.0,1.0,97.0,3.0,310.85259435199987,,,,,,,,,,,,,,,,,310.8275880680003,311.62639063999995,312.42365149499983,312.41222733500035,,,,,,,,,,,,,,,,,,,,,,,,,,,,,,,,,,,312.4130327460007,312.42365149499983,312.42365149499983,312.8635215020004,g,1.0,0.4300031139991915,,,,,sub-231,1,stroop_test,64.86163019797634,
,,,,98.0,2.0,8.0,,,,,,,,,,,,,blau,blue,b,1.0,b,1.0,0.4676457539999319,,,,,,,,,,8.0,2.0,98.0,6.0,312.8738612920006,,,,,,,,,,,,,,,,,312.86382408100053,312.9606145520001,313.759671328,313.745294245,,,,,,,,,,,,,,,,,,,,,,,,,,,,,,,,,,,313.7502322650007,313.759671328,313.759671328,314.230747394,b,1.0,0.4676457539999319,,,,,sub-231,1,stroop_test,64.86163019797634,
,,,,99.0,3.0,8.0,,,,,,,,,,,,,gelb,red,r,0.0,r,1.0,0.6305633640004089,,,,,,,,,,8.0,3.0,99.0,8.0,314.2415676119999,,,,,,,,,,,,,,,,,314.23113210000065,314.57650721900063,315.374487694,315.3609952060005,,,,,,,,,,,,,,,,,,,,,,,,,,,,,,,,,,,315.365335683,315.374487694,315.374487694,316.0187245880006,r,1.0,0.6305633640004089,,,,,sub-231,1,stroop_test,64.86163019797634,
,,,,100.0,4.0,8.0,,,,,,,,,,,,,gelb,yellow,g,1.0,g,1.0,0.4453574780000053,,,,,,,,,,8.0,4.0,100.0,11.0,316.02656277700044,,,,,,,,,,,,,,,,,316.0191380360002,317.2102638020005,318.00632818400027,317.99524847000066,,,,,,,,,,,,,,,,,,,,,,,,,,,,,,,,,,,317.9960367020003,318.00632818400027,318.00632818400027,318.455977312,g,1.0,0.4453574780000053,,,,,sub-231,1,stroop_test,64.86163019797634,
,,,,101.0,5.0,8.0,,,,,,,,,,,,,blau,blue,b,1.0,b,1.0,0.3441136170004029,,,,,,,,,,8.0,5.0,101.0,5.0,318.4666682269999,,,,,,,,,,,,,,,,,318.45642430299995,319.6529456260005,320.4487377590003,320.4367470040006,,,,,,,,,,,,,,,,,,,,,,,,,,,,,,,,,,,320.44086505700034,320.4487377590003,320.4487377590003,320.79577554700063,b,1.0,0.3441136170004029,,,,,sub-231,1,stroop_test,64.86163019797634,
,,,,102.0,6.0,8.0,,,,,,,,,,,,,rot,blue,b,0.0,b,1.0,0.4158232019999559,,,,,,,,,,8.0,6.0,102.0,2.0,320.80720416700024,,,,,,,,,,,,,,,,,320.7962562740004,321.59308934300043,322.3912047590002,322.3777709570004,,,,,,,,,,,,,,,,,,,,,,,,,,,,,,,,,,,322.3823527660006,322.3912047590002,322.3912047590002,322.809994059,b,1.0,0.4158232019999559,,,,,sub-231,1,stroop_test,64.86163019797634,
,,,,103.0,7.0,8.0,,,,,,,,,,,,,blau,yellow,g,0.0,g,1.0,0.4397951519995331,,,,,,,,,,8.0,7.0,103.0,7.0,322.83575503200063,,,,,,,,,,,,,,,,,322.8105577460001,324.00278039100067,324.7999534999999,324.7874002950002,,,,,,,,,,,,,,,,,,,,,,,,,,,,,,,,,,,324.79200526600016,324.7999534999999,324.7999534999999,325.2446313390001,g,1.0,0.4397951519995331,,,,,sub-231,1,stroop_test,64.86163019797634,
,,,,104.0,8.0,8.0,,,,,,,,,,,,,rot,red,r,1.0,r,1.0,0.5127822300000844,,,,,,,,,,8.0,8.0,104.0,1.0,325.25774275000003,,,,,,,,,,,,,,,,,325.2452385780007,325.5863448529999,326.4026963289998,326.3746884830007,,,,,,,,,,,,,,,,,,,,,,,,,,,,,,,,,,,326.37862124300045,326.4026963289998,326.4026963289998,326.92323510000006,r,1.0,0.5127822300000844,,,,,sub-231,1,stroop_test,64.86163019797634,
,,,,105.0,9.0,8.0,,,,,,,,,,,,,gelb,yellow,g,1.0,g,1.0,0.4354694180001388,,,,,,,,,,8.0,9.0,105.0,10.0,326.9345490980004,,,,,,,,,,,,,,,,,326.92367432599985,327.26962387500043,328.0667534080003,328.05353831400043,,,,,,,,,,,,,,,,,,,,,,,,,,,,,,,,,,,328.0568381590001,328.0667534080003,328.0667534080003,328.5058130080006,g,1.0,0.4354694180001388,,,,,sub-231,1,stroop_test,64.86163019797634,
,,,,106.0,10.0,8.0,,,,,,,,,,,,,gelb,blue,b,0.0,b,1.0,0.530604253999627,,,,,,,,,,8.0,10.0,106.0,9.0,328.51691831900007,,,,,,,,,,,,,,,,,328.5064427420002,328.85249392600053,329.6697798590003,329.6535115710003,,,,,,,,,,,,,,,,,,,,,,,,,,,,,,,,,,,329.6543048040003,329.6697798590003,329.6697798590003,330.20947652700033,b,1.0,0.530604253999627,,,,,sub-231,1,stroop_test,64.86163019797634,
,,,,107.0,11.0,8.0,,,,,,,,,,,,,blau,red,r,0.0,r,1.0,0.6210208049997163,,,,,,,,,,8.0,11.0,107.0,4.0,330.2205420520004,,,,,,,,,,,,,,,,,330.20986090299994,330.56346495600064,331.3635304030004,331.3479944720002,,,,,,,,,,,,,,,,,,,,,,,,,,,,,,,,,,,331.3527998340005,331.3635304030004,331.3635304030004,331.99080408100053,r,1.0,0.6210208049997163,,,,,sub-231,1,stroop_test,64.86163019797634,
,,,,108.0,0.0,9.0,,,,,,,,,,,,,gelb,yellow,g,1.0,g,1.0,0.4274163339996448,,,,,,,,,,9.0,0.0,108.0,11.0,332.002643844,,,,,,,,,,,,,,,,,331.9914224920003,332.7858285080001,333.58162042000004,333.569624318,,,,,,,,,,,,,,,,,,,,,,,,,,,,,,,,,,,333.57391936100066,333.58162042000004,333.58162042000004,334.02135093700053,g,1.0,0.4274163339996448,,,,,sub-231,1,stroop_test,64.86163019797634,
,,,,109.0,1.0,9.0,,,,,,,,,,,,,gelb,red,r,0.0,r,1.0,0.6880558109996855,,,,,,,,,,9.0,1.0,109.0,8.0,334.0324916870004,,,,,,,,,,,,,,,,,334.02180062700063,334.1193839910002,334.91332908000004,334.9036390649999,,,,,,,,,,,,,,,,,,,,,,,,,,,,,,,,,,,334.9044420070004,334.91332908000004,334.91332908000004,335.60648410500016,r,1.0,0.6880558109996855,,,,,sub-231,1,stroop_test,64.86163019797634,
,,,,110.0,2.0,9.0,,,,,,,,,,,,,rot,red,r,1.0,r,1.0,0.3748574490000464,,,,,,,,,,9.0,2.0,110.0,1.0,335.61731697400046,,,,,,,,,,,,,,,,,335.60686727600023,336.8023378460002,337.5987324779999,337.58653316300024,,,,,,,,,,,,,,,,,,,,,,,,,,,,,,,,,,,337.59081969100043,337.5987324779999,337.5987324779999,337.9874592220003,r,1.0,0.3748574490000464,,,,,sub-231,1,stroop_test,64.86163019797634,
,,,,111.0,3.0,9.0,,,,,,,,,,,,,rot,yellow,g,0.0,g,1.0,0.7646540569994613,,,,,,,,,,9.0,3.0,111.0,3.0,337.99558383300064,,,,,,,,,,,,,,,,,337.9879168730004,338.78616603499995,339.5802807890004,339.5706270280007,,,,,,,,,,,,,,,,,,,,,,,,,,,,,,,,,,,339.5714531829999,339.5802807890004,339.5802807890004,340.34991522900054,g,1.0,0.7646540569994613,,,,,sub-231,1,stroop_test,64.86163019797634,
,,,,112.0,4.0,9.0,,,,,,,,,,,,,gelb,blue,b,0.0,b,1.0,0.4089647180007887,,,,,,,,,,9.0,4.0,112.0,9.0,340.36229540300064,,,,,,,,,,,,,,,,,340.3505510210007,341.5426259040005,342.342055352,342.3279007560004,,,,,,,,,,,,,,,,,,,,,,,,,,,,,,,,,,,342.332754559,342.342055352,342.342055352,342.7552895200006,b,1.0,0.4089647180007887,,,,,sub-231,1,stroop_test,64.86163019797634,
,,,,113.0,5.0,9.0,,,,,,,,,,,,,gelb,yellow,g,1.0,g,1.0,0.5546049719996518,,,,,,,,,,9.0,5.0,113.0,10.0,342.76772056200025,,,,,,,,,,,,,,,,,342.75573597699986,343.95189942100023,344.7458823329998,344.7362986320004,,,,,,,,,,,,,,,,,,,,,,,,,,,,,,,,,,,344.73708973700013,344.7458823329998,344.7458823329998,345.30574395199983,g,1.0,0.5546049719996518,,,,,sub-231,1,stroop_test,64.86163019797634,
,,,,114.0,6.0,9.0,,,,,,,,,,,,,blau,red,r,0.0,r,1.0,0.4706231869995463,,,,,,,,,,9.0,6.0,114.0,4.0,345.3166460530001,,,,,,,,,,,,,,,,,345.3061917800005,346.1019507310002,346.8988916520002,346.886551781,,,,,,,,,,,,,,,,,,,,,,,,,,,,,,,,,,,346.89082171500013,346.8988916520002,346.8988916520002,347.373814693,r,1.0,0.4706231869995463,,,,,sub-231,1,stroop_test,64.86163019797634,
,,,,115.0,7.0,9.0,,,,,,,,,,,,,blau,blue,b,1.0,b,1.0,0.6208509500002037,,,,,,,,,,9.0,7.0,115.0,6.0,347.3862843370007,,,,,,,,,,,,,,,,,347.37443897899993,347.4728724650004,348.2731194480002,348.261272963,,,,,,,,,,,,,,,,,,,,,,,,,,,,,,,,,,,348.26205391700023,348.2731194480002,348.2731194480002,348.89931775900004,b,1.0,0.6208509500002037,,,,,sub-231,1,stroop_test,64.86163019797634,
,,,,116.0,8.0,9.0,,,,,,,,,,,,,blau,blue,b,1.0,b,1.0,0.4599161240003013,,,,,,,,,,9.0,8.0,116.0,5.0,348.9110092380006,,,,,,,,,,,,,,,,,348.8997635780006,350.1031671970004,350.8990031600006,350.88774184400063,,,,,,,,,,,,,,,,,,,,,,,,,,,,,,,,,,,350.8885124030003,350.8990031600006,350.8990031600006,351.36561821299983,b,1.0,0.4599161240003013,,,,,sub-231,1,stroop_test,64.86163019797634,
,,,,117.0,9.0,9.0,,,,,,,,,,,,,rot,blue,b,0.0,b,1.0,0.4418125869997311,,,,,,,,,,9.0,9.0,117.0,2.0,351.377202828,,,,,,,,,,,,,,,,,351.36606850000044,351.46342869,352.2725658950003,352.25760709299993,,,,,,,,,,,,,,,,,,,,,,,,,,,,,,,,,,,352.2619381350005,352.2725658950003,352.2725658950003,352.72330832900025,b,1.0,0.4418125869997311,,,,,sub-231,1,stroop_test,64.86163019797634,
,,,,118.0,10.0,9.0,,,,,,,,,,,,,rot,red,r,1.0,r,1.0,0.4658800259994677,,,,,,,,,,9.0,10.0,118.0,0.0,352.73482366200005,,,,,,,,,,,,,,,,,352.72381916500035,353.51835703600045,354.31038229600017,354.3022324220001,,,,,,,,,,,,,,,,,,,,,,,,,,,,,,,,,,,354.3028093990006,354.31038229600017,354.31038229600017,354.7810045790002,r,1.0,0.4658800259994677,,,,,sub-231,1,stroop_test,64.86163019797634,
,,,,119.0,11.0,9.0,,,,,,,,,,,,,blau,yellow,g,0.0,g,1.0,0.3420728130004136,,,,,,,,,,9.0,11.0,119.0,7.0,354.792061057,,,,,,,,,,,,,,,,,354.78147351000007,355.5759644280006,356.374116295,356.3604448180004,,,,,,,,,,,,,,,,,,,,,,,,,,,,,,,,,,,356.3648956779998,356.374116295,356.374116295,356.72163948100024,g,1.0,0.3420728130004136,,,,,sub-231,1,stroop_test,64.86163019797634,
,,,,,,,,,,,,,,,,,,,,,,,,,,,,,,,,,,,,,,,,,,,,,,,,,,,,,,,,,,,,,,,,,,,,,,,,,,,,,,,,,,,,,,,,,,,,,,,,,,,,,,356.7221378410004,356.7521240610004,361.7302753120002,sub-231,1,stroop_test,64.86163019797634,
