direction,corrAns,randomInstr,practice_trials.thisRepN,practice_trials.thisTrialN,practice_trials.thisN,practice_trials.thisIndex,instr_trials.thisRepN,instr_trials.thisTrialN,instr_trials.thisN,instr_trials.thisIndex,test_trials.thisRepN,test_trials.thisTrialN,test_trials.thisN,test_trials.thisIndex,thisRow.t,notes,general_instruction.started,textGeneralInstr.started,respGeneralInstr.started,general_instruction.stopped,respGeneralInstr.keys,respGeneralInstr.rt,respGeneralInstr.duration,ITI.started,fixcross.started,fixcross.stopped,ITI.stopped,dots.started,backgroundDots.started,stimulusDots.started,respDots.started,dots.stopped,respDots.keys,respDots.corr,respDots.rt,respDots.duration,feedback.started,textFeedback.started,feedback.stopped,textFeedback.stopped,info.started,textInfo.started,keyRespInfo.started,info.stopped,keyRespInfo.keys,keyRespInfo.rt,keyRespInfo.duration,test_instruction.started,textTestInstr.started,respTestInstr.started,test_instruction.stopped,respTestInstr.keys,respTestInstr.rt,respTestInstr.duration,random_instruction.started,textRandomInstr.started,respRandomInstr.started,random_instruction.stopped,respRandomInstr.keys,respRandomInstr.rt,respRandomInstr.duration,stimulusDots.stopped,goodbye.started,textGoodbye.started,textGoodbye.stopped,goodbye.stopped,participant,session,expName,frameRate,Unnamed: 74
,,,,,,,,,,,,,,,,,0.0403705999488011,0.0496999999741092,0.0496999999741092,28.798110599978827,space,65.96658440015744,,,,,,,,,,,,,,,,,,,,,,,,,,,,,,,,,,,,,,,,,,,,,sub-099,1.0,random_dot,60.34074414961158,
right,right,,0.0,0.0,0.0,1.0,,,,,,,,,28.853632999933325,,,,,,,,,28.847724299994297,29.606156099936925,30.40977159992326,30.390604199958037,30.39063789998181,30.40977159992326,30.40977159992326,30.40977159992326,31.692755999974903,left,0.0,38.504205300007015,,31.69409019988961,31.717968599987216,32.2064151999075,,,,,,,,,,,,,,,,,,,,,,,,,,,,sub-099,1.0,random_dot,60.34074414961158,
left,left,,0.0,1.0,1.0,0.0,,,,,,,,,32.22292089997791,,,,,,,,,32.207256999914534,32.556061599985696,33.35662619990762,33.34083249990363,33.34088609996252,33.35662619990762,33.35662619990762,33.35662619990762,34.22524139995221,left,1.0,38.09421510016546,,34.22613589989487,34.24508179991972,34.73969399998896,,,,,,,,,,,,,,,,,,,,,,,,,,,,sub-099,1.0,random_dot,60.34074414961158,
right,right,,1.0,0.0,2.0,1.0,,,,,,,,,34.75606279994827,,,,,,,,,34.74038709991146,35.93991799990181,36.73989059997257,36.72377149993554,36.72380889998749,36.73989059997257,36.73989059997257,36.73989059997257,38.14227169996593,right,1.0,38.62588140007574,,38.1433045999147,38.15624239994213,38.64080269995611,38.65636749996338,,,,,,,,,,,,,,,,,,,,,,,,,,,sub-099,1.0,random_dot,60.34074414961158,
left,left,,1.0,1.0,3.0,0.0,,,,,,,,,38.65636749996338,,,,,,,,,38.64158899988979,39.456224099965766,40.25652119994629,40.24083379993681,40.24087869992945,40.25652119994629,40.25652119994629,40.25652119994629,41.09154899988789,left,1.0,38.06122460018378,,41.09251829993445,41.10632799996529,41.590495099895634,41.60633199999575,,,,,,,,,,,,,,,,,,,,,,,,,,,sub-099,1.0,random_dot,60.34074414961158,
left,left,,2.0,0.0,4.0,0.0,,,,,,,,,41.60633199999575,,,,,,,,,41.59134189994074,42.80593559995759,43.60649549996015,43.59083809994627,43.59087589988485,43.60649549996015,43.60649549996015,43.60649549996015,45.458762699970976,right,0.0,39.08435340016149,,45.459743899991736,45.47296759998426,45.95722869993188,45.97276689996943,,,,,,,,,,,,,,,,,,,,,,,,,,,sub-099,1.0,random_dot,60.34074414961158,
right,right,,2.0,1.0,5.0,1.0,,,,,,,,,45.97276689996943,,,,,,,,,45.95830809988547,46.07356849999633,46.8731968998909,46.85743939992972,46.85747199994512,46.8731968998909,46.8731968998909,46.8731968998909,50.52516989992,left,0.0,40.88062430010177,,50.52601539995521,50.53933459997643,51.024262899998575,51.03944009996485,,,,,,,,,,,,,,,,,,,,,,,,,,,sub-099,1.0,random_dot,60.34074414961158,
right,right,,3.0,0.0,6.0,1.0,,,,,,,,,51.03944009996485,,,,,,,,,51.024917599977925,51.139556099893525,51.939973399974406,51.92427539988421,51.92431499995291,51.939973399974406,51.939973399974406,51.939973399974406,52.975864699925296,right,1.0,38.25672440009657,,52.97684809996281,52.98946069995873,53.47374539996963,53.48960659990553,,,,,,,,,,,,,,,,,,,,,,,,,,,sub-099,1.0,random_dot,60.34074414961158,
left,left,,3.0,1.0,7.0,0.0,,,,,,,,,53.48960659990553,,,,,,,,,53.47438939998392,53.589359599980526,54.39059569989331,54.37424099992495,54.374273199937306,54.39059569989331,54.39059569989331,54.39059569989331,56.44189929997083,right,0.0,39.28216790012084,,56.44289479998406,56.456120699993335,56.94033159990795,56.9559789999621,,,,,,,,,,,,,,,,,,,,,,,,,,,sub-099,1.0,random_dot,60.34074414961158,
right,right,,4.0,0.0,8.0,1.0,,,,,,,,,56.9559789999621,,,,,,,,,56.94113049993757,57.306560099939816,58.10645619989373,58.09044179995544,58.09047379996628,58.10645619989373,58.10645619989373,58.10645619989373,59.25837919989135,right,1.0,38.373533100122586,,59.25927719997708,59.27264319988899,59.757529499940574,59.77305099996738,,,,,,,,,,,,,,,,,,,,,,,,,,,sub-099,1.0,random_dot,60.34074414961158,
left,left,,4.0,1.0,9.0,0.0,,,,,,,,,59.77305099996738,,,,,,,,,59.75820099993143,60.57316609995905,61.37310159998015,61.35688329988625,61.35691579990089,61.37310159998015,61.37310159998015,61.37310159998015,62.05979119997937,left,1.0,37.91838430019561,,62.06080689991359,62.07253729994409,62.55706259992439,62.57283089996781,,,,,,,,,,,,,,,,,,,,,,,,,,,sub-099,1.0,random_dot,60.34074414961158,
left,left,,5.0,0.0,10.0,0.0,,,,,,,,,62.57283089996781,,,,,,,,,62.5578252999112,63.772845499916,64.57359979988541,64.55735759995878,64.55738939996809,64.57359979988541,64.57359979988541,64.57359979988541,65.49243029998615,left,1.0,38.14565350010525,,65.49328099994455,65.50581709994003,65.99078009999357,66.00605039997026,,,,,,,,,,,,,,,,,,,,,,,,,,,sub-099,1.0,random_dot,60.34074414961158,
right,right,,5.0,1.0,11.0,1.0,,,,,,,,,66.00605039997026,,,,,,,,,65.9913936998928,67.20600269990973,68.00618109991774,67.990643399884,67.99068839999381,68.00618109991774,68.00618109991774,68.00618109991774,69.80927139997948,right,1.0,39.03619240014814,,69.8101421999745,69.82237669988535,70.30732989998069,70.32267849997152,,,,,,,,,,,,,,,,,,,,,,,,,,,sub-099,1.0,random_dot,60.34074414961158,
right,right,,6.0,0.0,12.0,1.0,,,,,,,,,70.32267849997152,,,,,,,,,70.3080943999812,71.12260149989743,71.92321289994288,71.90720239991788,71.907234699931,71.92321289994288,71.92321289994288,71.92321289994288,74.60853139997926,right,1.0,39.91074740013573,,74.60943239997141,74.62246259988751,75.10675649996847,75.12247699999716,,,,,,,,,,,,,,,,,,,,,,,,,,,sub-099,1.0,random_dot,60.34074414961158,
left,left,,6.0,1.0,13.0,0.0,,,,,,,,,75.12247699999716,,,,,,,,,75.10737769992556,75.2230067999335,76.02320809999947,76.00717089988757,76.00720329990145,76.02320809999947,76.02320809999947,76.02320809999947,76.70882159995381,left,1.0,37.918358600116335,,76.70971379999537,76.72259609994944,77.20748539990745,77.22255699988455,,,,,,,,,,,,,,,,,,,,,,,,,,,sub-099,1.0,random_dot,60.34074414961158,
right,right,,7.0,0.0,14.0,1.0,,,,,,,,,77.22255699988455,,,,,,,,,77.20830129995011,77.32261689996812,78.12300949997734,78.10703979991376,78.10707949998323,78.12300949997734,78.12300949997734,78.12300949997734,79.04183479992207,right,1.0,38.15126440010499,,79.0426866998896,79.05575609998778,79.54034359997604,79.5559740999015,,,,,,,,,,,,,,,,,,,,,,,,,,,sub-099,1.0,random_dot,60.34074414961158,
left,left,,7.0,1.0,15.0,0.0,,,,,,,,,79.5559740999015,,,,,,,,,79.54113489994779,80.7560233999975,81.55685419996735,81.54085799993481,81.5409045999404,81.55685419996735,81.55685419996735,81.55685419996735,82.27564289991278,left,1.0,37.95134520006832,,82.27665169991087,82.28924059995916,82.77420909993816,82.78957199992146,,,,,,,,,,,,,,,,,,,,,,,,,,,sub-099,1.0,random_dot,60.34074414961158,
right,right,,8.0,0.0,16.0,1.0,,,,,,,,,82.78957199992146,,,,,,,,,82.77499959990382,83.58916749991477,84.3897284999257,84.3736858998891,84.37371809990145,84.3897284999257,84.3897284999257,84.3897284999257,85.74260459991638,right,1.0,38.58540140010882,,85.74351739999838,85.75599669991061,86.24091029993724,86.25600549997762,,,,,,,,,,,,,,,,,,,,,,,,,,,sub-099,1.0,random_dot,60.34074414961158,
left,left,,8.0,1.0,17.0,0.0,,,,,,,,,86.25600549997762,,,,,,,,,86.24165809992701,87.45644859992899,88.25669189996552,88.24040499993134,88.24044429999776,88.25669189996552,88.25669189996552,88.25669189996552,89.72233779996168,left,1.0,38.69060750014614,,89.72323249990586,89.73632229992654,90.22161949996372,90.23667829995976,,,,,,,,,,,,,,,,,,,,,,,,,,,sub-099,1.0,random_dot,60.34074414961158,
right,right,,9.0,0.0,18.0,1.0,,,,,,,,,90.23667829995976,,,,,,,,,90.22251509991474,91.03647399996407,91.83668989990838,91.82183489995076,91.82187649991828,91.83668989990838,91.83668989990838,91.83668989990838,93.2389318998903,right,1.0,38.62992970016785,,93.2397854999872,93.25296929990871,93.73758569988422,93.75331359996926,,,,,,,,,,,,,,,,,,,,,,,,,,,sub-099,1.0,random_dot,60.34074414961158,
left,left,,9.0,1.0,19.0,0.0,,,,,,,,,93.75331359996926,,,,,,,,,93.738214999903,94.10362899990288,94.90392689988948,94.8876387999626,94.88767169998027,94.90392689988948,94.90392689988948,94.90392689988948,98.80556279991288,left,1.0,41.12895560008474,,98.80644159996882,98.81967969995458,99.30370229994878,99.3203349999385,,,,,,,,,,,,,,,,,,,,,,,,,,,sub-099,1.0,random_dot,60.34074414961158,
,,,,,,,,,,,,,,,,,,,,,,,,,,,,,,,,,,,,,,,,,99.30382649996318,99.3203349999385,99.3203349999385,103.43858439999168,space,41.3508671001764,,,,,,,,,,,,,,,,,,,,,sub-099,1.0,random_dot,60.34074414961158,
,,,,,,,,,,,,,,,,,,,,,,,,,,,,,,,,,,,,,,,,,,,,,,,,103.43864079995546,103.4529735998949,103.4529735998949,121.83810089994222,space,55.60600870009512,,,,,,,,,,,,,,sub-099,1.0,random_dot,60.34074414961158,
right,right,accuracy,,,,,0.0,0.0,0.0,0.0,0.0,0.0,0.0,1.0,125.790442999918,,,,,,,,,125.78428389993496,126.98489409999456,127.78530709992629,127.76915949990509,127.76920199999586,127.78530709992629,127.78530709992629,127.78530709992629,130.08699599991087,right,1.0,39.525785400066525,,,,,,,,,,,,,,,,,,,,121.86513569997624,121.89902929996606,121.89902929996606,125.7705777999945,space,41.10424510005396,,,,,,,sub-099,1.0,random_dot,60.34074414961158,
left,left,accuracy,,,,,0.0,0.0,0.0,0.0,0.0,1.0,1.0,0.0,130.1017119999742,,,,,,,,,130.08917559997644,130.20159259997308,131.00208459992427,130.9858535999665,130.98589079990052,131.00208459992427,131.00208459992427,131.00208459992427,132.52079909993336,left,1.0,38.75134630012326,,,,,,,,,,,,,,,,,,,,,,,,,,,,,,,,sub-099,1.0,random_dot,60.34074414961158,
right,right,accuracy,,,,,0.0,0.0,0.0,0.0,1.0,0.0,2.0,1.0,132.53441899991594,,,,,,,,,132.52260759996716,132.88499679998495,133.68530669994652,133.66903239989188,133.66907069995068,133.68530669994652,133.68530669994652,133.68530669994652,136.1215715999715,right,1.0,39.66871990007349,,,,,,,,,,,,,,,,,,,,,,,,,,,,,,,,sub-099,1.0,random_dot,60.34074414961158,
left,left,accuracy,,,,,0.0,0.0,0.0,0.0,1.0,1.0,3.0,0.0,136.1345430999063,,,,,,,,,136.12340929999482,136.93881769990548,137.75254009990022,137.7356706999708,137.73570839990862,137.75254009990022,137.75254009990022,137.75254009990022,140.85464409994893,left,1.0,40.33494650013745,,,,,,,,,,,,,,,,,,,,,,,,,,,,,,,,sub-099,1.0,random_dot,60.34074414961158,
right,right,accuracy,,,,,0.0,0.0,0.0,0.0,2.0,0.0,4.0,1.0,140.86832159990445,,,,,,,,,140.85643829999026,141.218070599949,142.01868399989326,142.00245359994005,142.00249119999353,142.01868399989326,142.01868399989326,142.01868399989326,142.9871192999417,right,1.0,38.188458700082265,,,,,,,,,,,,,,,,,,,,,,,,,,,,,,,,sub-099,1.0,random_dot,60.34074414961158,
left,left,accuracy,,,,,0.0,0.0,0.0,0.0,2.0,1.0,5.0,0.0,143.00151569989976,,,,,,,,,142.9891481999075,144.20187459990848,145.00194629991893,144.98575719993096,144.98578909994103,145.00194629991893,145.00194629991893,145.00194629991893,146.7369122999953,left,1.0,38.95960220019333,,,,,,,,,,,,,,,,,,,,,,,,,,,,,,,,sub-099,1.0,random_dot,60.34074414961158,
left,left,accuracy,,,,,0.0,0.0,0.0,0.0,3.0,0.0,6.0,0.0,146.7518358998932,,,,,,,,,146.73864209989551,147.10142209997866,147.9021902999375,147.8858224999858,147.88585889991373,147.9021902999375,147.9021902999375,147.9021902999375,151.65389849990606,right,0.0,40.977143500116654,,,,,,,,,,,,,,,,,,,,,,,,,,,,,,,,sub-099,1.0,random_dot,60.34074414961158,
right,right,accuracy,,,,,0.0,0.0,0.0,0.0,3.0,1.0,7.0,1.0,151.66763049992733,,,,,,,,,151.6558843998937,152.46810609998647,153.268682599999,153.25234809995163,153.25238099996932,153.268682599999,153.268682599999,153.268682599999,154.12040169991087,left,0.0,38.07303820014931,,,,,,,,,,,,,,,,,,,,,,,,,,,,,,,,sub-099,1.0,random_dot,60.34074414961158,
right,right,accuracy,,,,,0.0,0.0,0.0,0.0,4.0,0.0,8.0,1.0,154.1351332999766,,,,,,,,,154.12231639993843,154.48507979989515,155.28523809998296,155.26934059988707,155.26937839994207,155.28523809998296,155.28523809998296,155.28523809998296,155.98685289989226,right,1.0,37.92815790011082,,,,,,,,,,,,,,,,,,,,,,,,,,,,,,,,sub-099,1.0,random_dot,60.34074414961158,
left,left,accuracy,,,,,0.0,0.0,0.0,0.0,4.0,1.0,9.0,0.0,156.0016966999974,,,,,,,,,155.98858619993553,156.10128629999235,156.9018001999939,156.8866643999936,156.88670509995427,156.9018001999939,156.9018001999939,156.9018001999939,158.78683799994178,left,1.0,39.11338380014058,,,,,,,,,,,,,,,,,,,,,,,,,,,,,,,,sub-099,1.0,random_dot,60.34074414961158,
right,right,accuracy,,,,,0.0,0.0,0.0,0.0,5.0,0.0,10.0,1.0,158.8009871999966,,,,,,,,,158.78858109994326,158.9017739999108,159.70162729988806,159.68581059994176,159.68585199990775,159.70162729988806,159.70162729988806,159.70162729988806,161.23763889994007,right,1.0,38.75977130013053,,,,,,,,,,,,,,,,,,,,,,,,,,,,,,,,sub-099,1.0,random_dot,60.34074414961158,
left,left,accuracy,,,,,0.0,0.0,0.0,0.0,5.0,1.0,11.0,0.0,161.2512570999097,,,,,,,,,161.23944219993427,162.05136609997135,162.8517075999407,162.8355977999745,162.83564089995343,162.8517075999407,162.8517075999407,162.8517075999407,163.8035798999481,left,1.0,38.18059840018395,,,,,,,,,,,,,,,,,,,,,,,,,,,,,,,,sub-099,1.0,random_dot,60.34074414961158,
right,right,accuracy,,,,,0.0,0.0,0.0,0.0,6.0,0.0,12.0,1.0,163.8181339999428,,,,,,,,,163.80533899995498,163.9183448998956,164.71867179998662,164.70257549989037,164.70261329994537,164.71867179998662,164.71867179998662,164.71867179998662,167.47023699991405,right,1.0,39.97699950006791,,,,,,,,,,,,,,,,,,,,,,,,,,,,,,,,sub-099,1.0,random_dot,60.34074414961158,
left,left,accuracy,,,,,0.0,0.0,0.0,0.0,6.0,1.0,13.0,0.0,167.4845022999216,,,,,,,,,167.4719759998843,167.58460859989282,168.38500139990356,168.36920739989728,168.36925099999644,168.38500139990356,168.38500139990356,168.38500139990356,170.269954499905,left,1.0,39.10287180019077,,,,,,,,,,,,,,,,,,,,,,,,,,,,,,,,sub-099,1.0,random_dot,60.34074414961158,
left,left,accuracy,,,,,0.0,0.0,0.0,0.0,7.0,0.0,14.0,0.0,170.28453749988694,,,,,,,,,170.27192939992528,170.63496089994442,171.43485379999038,171.41896079992875,171.41899309994187,171.43485379999038,171.43485379999038,171.43485379999038,175.1201402998995,left,1.0,40.91583590011578,,,,,,,,,,,,,,,,,,,,,,,,,,,,,,,,sub-099,1.0,random_dot,60.34074414961158,
right,right,accuracy,,,,,0.0,0.0,0.0,0.0,7.0,1.0,15.0,1.0,175.1345132999122,,,,,,,,,175.12188899994362,175.9347082999302,176.73486249998678,176.71878459991422,176.71881579991896,176.73486249998678,176.73486249998678,176.73486249998678,178.87103829998523,right,1.0,39.36517620005179,,,,,,,,,,,,,,,,,,,,,,,,,,,,,,,,sub-099,1.0,random_dot,60.34074414961158,
right,right,accuracy,,,,,0.0,0.0,0.0,0.0,8.0,0.0,16.0,1.0,178.88452669989783,,,,,,,,,178.87286069989204,179.2352051999187,180.03517549997196,180.01888059999328,180.01891269988846,180.03517549997196,180.03517549997196,180.03517549997196,182.18650279997385,right,1.0,39.38118280016352,,,,,,,,,,,,,,,,,,,,,,,,,,,,,,,,sub-099,1.0,random_dot,60.34074414961158,
left,left,accuracy,,,,,0.0,0.0,0.0,0.0,8.0,1.0,17.0,0.0,182.20092699991076,,,,,,,,,182.18823879992124,183.40142539993397,184.20184059999883,184.1855589998886,184.18559089989867,184.20184059999883,184.20184059999883,184.20184059999883,185.82070309994745,left,1.0,38.850665800157,,,,,,,,,,,,,,,,,,,,,,,,,,,,,,,,sub-099,1.0,random_dot,60.34074414961158,
left,left,accuracy,,,,,0.0,0.0,0.0,0.0,9.0,0.0,18.0,0.0,185.8344737999141,,,,,,,,,185.82245969993528,187.03459319996185,187.8353488999419,187.81922329997175,187.81925849989057,187.8353488999419,187.8353488999419,187.8353488999419,190.8035303999204,left,1.0,40.19381410011556,,,,,,,,,,,,,,,,,,,,,,,,,,,,,,,,sub-099,1.0,random_dot,60.34074414961158,
right,right,accuracy,,,,,0.0,0.0,0.0,0.0,9.0,1.0,19.0,1.0,190.81750249990728,,,,,,,,,190.80526799999643,191.1682481999742,191.96825569996145,191.95289069996213,191.95293229992967,191.96825569996145,191.96825569996145,191.96825569996145,194.80281459994148,right,1.0,40.05304910009727,,,,,,,,,,,,,,,,,,,,,,,,,,,,,,,,sub-099,1.0,random_dot,60.34074414961158,
right,right,accuracy,,,,,0.0,0.0,0.0,0.0,10.0,0.0,20.0,1.0,194.8175784999039,,,,,,,,,194.80469199991785,194.9186346998904,195.71873609989416,195.70236789993945,195.70246219995897,195.71873609989416,195.71873609989416,195.71873609989416,198.33636429999024,right,1.0,39.837038800120354,,,,,,,,,,,,,,,,,,,,,,,,,,,,,,,,sub-099,1.0,random_dot,60.34074414961158,
left,left,accuracy,,,,,0.0,0.0,0.0,0.0,10.0,1.0,21.0,0.0,198.3508794999216,,,,,,,,,198.33812299999408,199.55099009990224,200.35161799995691,200.3355516999727,200.33558499999344,200.35161799995691,200.35161799995691,200.35161799995691,205.68682769988663,left,1.0,42.56689710018691,,,,,,,,,,,,,,,,,,,,,,,,,,,205.3349366999464,,,,,sub-099,1.0,random_dot,60.34074414961158,
right,right,accuracy,,,,,0.0,0.0,0.0,0.0,11.0,0.0,22.0,1.0,205.7008254999528,,,,,,,,,205.68856479995884,206.05108279990964,206.85142009996343,206.83546699990984,206.83550009992905,206.85142009996343,206.85142009996343,206.85142009996343,208.15395729988813,right,1.0,38.5351286000805,,,,,,,,,,,,,,,,,,,,,,,,,,,,,,,,sub-099,1.0,random_dot,60.34074414961158,
left,left,accuracy,,,,,0.0,0.0,0.0,0.0,11.0,1.0,23.0,0.0,208.16742269997485,,,,,,,,,208.15587189991493,209.3677542998921,210.16863629990257,210.1523304999573,210.15237259992864,210.16863629990257,210.16863629990257,210.16863629990257,212.47044809989168,right,0.0,39.5338497000048,,,,,,,,,,,,,,,,,,,,,,,,,,,,,,,,sub-099,1.0,random_dot,60.34074414961158,
left,left,accuracy,,,,,0.0,0.0,0.0,0.0,12.0,0.0,24.0,0.0,212.48399529990277,,,,,,,,,212.47225849993995,213.284573599929,214.08462799992407,214.06876309996005,214.0687955999747,214.08462799992407,214.08462799992407,214.08462799992407,214.8033798999386,left,1.0,37.94475840020459,,,,,,,,,,,,,,,,,,,,,,,,,,,,,,,,sub-099,1.0,random_dot,60.34074414961158,
right,right,accuracy,,,,,0.0,0.0,0.0,0.0,12.0,1.0,25.0,1.0,214.81753199989907,,,,,,,,,214.80532789998688,215.16782869992312,215.9679884999059,215.95239729993045,215.95243799989112,215.9679884999059,215.9679884999059,215.9679884999059,216.63661979988683,right,1.0,37.89489760017023,,,,,,,,,,,,,,,,,,,,,,,,,,,,,,,,sub-099,1.0,random_dot,60.34074414961158,
right,right,accuracy,,,,,0.0,0.0,0.0,0.0,13.0,0.0,26.0,1.0,216.65095299994573,,,,,,,,,216.6383405999513,217.8554990999401,218.6687145999167,218.65189159999136,218.6519230999984,218.6687145999167,218.6687145999167,218.6687145999167,219.8195944998879,right,1.0,38.36927950009704,,,,,,,,,,,,,,,,,,,,,,,,,,,,,,,,sub-099,1.0,random_dot,60.34074414961158,
left,left,accuracy,,,,,0.0,0.0,0.0,0.0,13.0,1.0,27.0,0.0,219.83409579994623,,,,,,,,,219.82131769997068,220.1849967999151,220.9854167999001,220.968597299885,220.96863989997652,220.9854167999001,220.9854167999001,220.9854167999001,221.6366371999029,left,1.0,37.88330780004617,,,,,,,,,,,,,,,,,,,,,,,,,,,,,,,,sub-099,1.0,random_dot,60.34074414961158,
left,left,accuracy,,,,,0.0,0.0,0.0,0.0,14.0,0.0,28.0,0.0,221.6507659999188,,,,,,,,,221.638379199896,222.000909699942,222.80152549990453,222.78520059993025,222.78523379995025,222.80152549990453,222.80152549990453,222.80152549990453,225.07095089997165,right,0.0,39.50027440011036,,,,,,,,,,,,,,,,,,,,,,,,,,,,,,,,sub-099,1.0,random_dot,60.34074414961158,
right,right,accuracy,,,,,0.0,0.0,0.0,0.0,14.0,1.0,29.0,1.0,225.08446519996505,,,,,,,,,225.07330729998648,226.2841808999656,227.0851568999933,227.0686289999867,227.06866109999828,227.0851568999933,227.0851568999933,227.0851568999933,227.8363946999889,right,1.0,37.9691909000976,,,,,,,,,,,,,,,,,,,,,,,,,,,,,,,,sub-099,1.0,random_dot,60.34074414961158,
left,left,accuracy,,,,,0.0,0.0,0.0,0.0,15.0,0.0,30.0,0.0,227.85093279997815,,,,,,,,,227.83810449996963,229.0509827999631,229.851566099911,229.8349961999338,229.83502869994845,229.851566099911,229.851566099911,229.851566099911,232.83712379995268,left,1.0,40.20531270012725,,,,,,,,,,,,,,,,,,,,,,,,,,,,,,,,sub-099,1.0,random_dot,60.34074414961158,
right,right,accuracy,,,,,0.0,0.0,0.0,0.0,15.0,1.0,31.0,1.0,232.8514007999329,,,,,,,,,232.8388659999473,234.0508908999618,234.85131259995975,234.83525069989264,234.83528879994992,234.85131259995975,234.85131259995975,234.85131259995975,235.4364346999209,right,1.0,37.81752670009155,,,,,,,,,,,,,,,,,,,,,,,,,,,,,,,,sub-099,1.0,random_dot,60.34074414961158,
right,right,accuracy,,,,,0.0,0.0,0.0,0.0,16.0,0.0,32.0,1.0,235.450708999997,,,,,,,,,235.4381700999802,236.65089479996823,237.45148279995192,237.4354324999731,237.43547239992768,237.45148279995192,237.45148279995192,237.45148279995192,240.419850199949,right,1.0,40.19587330019567,,,,,,,,,,,,,,,,,,,,,,,,,,,,,,,,sub-099,1.0,random_dot,60.34074414961158,
left,left,accuracy,,,,,0.0,0.0,0.0,0.0,16.0,1.0,33.0,0.0,240.4344321999233,,,,,,,,,240.42161019996277,241.6345813999651,242.43463319994044,242.4190203999169,242.41905299993232,242.43463319994044,242.43463319994044,242.43463319994044,243.10295269999187,left,1.0,37.89443180011585,,,,,,,,,,,,,,,,,,,,,,,,,,,,,,,,sub-099,1.0,random_dot,60.34074414961158,
right,right,accuracy,,,,,0.0,0.0,0.0,0.0,17.0,0.0,34.0,1.0,243.117511499906,,,,,,,,,243.1047582998872,243.46804759989027,244.2679728999501,244.25179909996223,244.25183239998296,244.2679728999501,244.2679728999501,244.2679728999501,245.5861091999104,right,1.0,38.54093760019168,,,,,,,,,,,,,,,,,,,,,,,,,,,,,,,,sub-099,1.0,random_dot,60.34074414961158,
left,left,accuracy,,,,,0.0,0.0,0.0,0.0,17.0,1.0,35.0,0.0,245.6011756999651,,,,,,,,,245.5878450999735,245.9512724999804,246.7510806999635,246.7350124999648,246.73504499997944,246.7510806999635,246.7510806999635,246.7510806999635,249.85323129990135,left,1.0,40.33396650000941,,,,,,,,,,,,,,,,,,,,,,,,,,,,,,,,sub-099,1.0,random_dot,60.34074414961158,
right,right,accuracy,,,,,0.0,0.0,0.0,0.0,18.0,0.0,36.0,1.0,249.86780809995253,,,,,,,,,249.854998899973,250.2181363999844,251.0183436999796,251.0020622999873,251.00209919991903,251.0183436999796,251.0183436999796,251.0183436999796,252.28640449990053,right,1.0,38.491937700193375,,,,,,,,,,,,,,,,,,,,,,,,,,,,,,,,sub-099,1.0,random_dot,60.34074414961158,
left,left,accuracy,,,,,0.0,0.0,0.0,0.0,18.0,1.0,37.0,0.0,252.3007375999587,,,,,,,,,252.28813019988596,253.1012167999288,253.90159409993797,253.8851638999768,253.88519499998077,253.90159409993797,253.90159409993797,253.90159409993797,254.6867569999304,left,1.0,38.011157900094986,,,,,,,,,,,,,,,,,,,,,,,,,,,,,,,,sub-099,1.0,random_dot,60.34074414961158,
left,left,accuracy,,,,,0.0,0.0,0.0,0.0,19.0,0.0,38.0,0.0,254.70058779988904,,,,,,,,,254.68849819991735,255.05150189995769,255.85165759990923,255.83503559988455,255.8350686999038,255.85165759990923,255.85165759990923,255.85165759990923,256.9695071999449,right,0.0,38.3451870001154,,,,,,,,,,,,,,,,,,,,,,,,,,,,,,,,sub-099,1.0,random_dot,60.34074414961158,
right,right,accuracy,,,,,0.0,0.0,0.0,0.0,19.0,1.0,39.0,1.0,256.9840496999677,,,,,,,,,256.9712882998865,258.18399569997564,258.9854013998993,258.96895989996847,258.9689939999953,258.9854013998993,258.9854013998993,258.9854013998993,260.23636159999296,right,1.0,38.48265080014244,,,,,,,,,,,,,,,,,,,,,,,,,,,,,,,,sub-099,1.0,random_dot,60.34074414961158,
left,left,accuracy,,,,,0.0,0.0,0.0,0.0,20.0,0.0,40.0,0.0,260.2510827999795,,,,,,,,,260.2381538999034,260.35095899994485,261.1514335999964,261.1349846998928,261.1350222999463,261.1514335999964,261.1514335999964,261.1514335999964,264.2869625999592,left,1.0,40.367443500086665,,,,,,,,,,,,,,,,,,,,,,,,,,,,,,,,sub-099,1.0,random_dot,60.34074414961158,
right,right,accuracy,,,,,0.0,0.0,0.0,0.0,20.0,1.0,41.0,1.0,264.3006559999194,,,,,,,,,264.28876169992145,265.50119979993906,266.3009843999753,266.2849774999777,266.2850131999003,266.3009843999753,266.3009843999753,266.3009843999753,267.25292029988486,right,1.0,38.17976670013741,,,,,,,,,,,,,,,,,,,,,,,,,,,,,,,,sub-099,1.0,random_dot,60.34074414961158,
right,right,accuracy,,,,,0.0,0.0,0.0,0.0,21.0,0.0,42.0,1.0,267.2671725999098,,,,,,,,,267.25463879993185,268.0673345999094,268.8677028999664,268.8518322999589,268.85186479997355,268.8677028999664,268.8677028999664,268.8677028999664,271.95328729995526,right,1.0,40.31201200012583,,,,,,,,,,,,,,,,,,,,,,,,,,,,,,,,sub-099,1.0,random_dot,60.34074414961158,
left,left,accuracy,,,,,0.0,0.0,0.0,0.0,21.0,1.0,43.0,0.0,271.96716669993475,,,,,,,,,271.95500599988736,272.0670733998995,272.86783439992,272.85182809992693,272.85187749995384,272.86783439992,272.86783439992,272.86783439992,274.7527277999325,left,1.0,39.10528610018082,,,,,,,,,,,,,,,,,,,,,,,,,,,,,,,,sub-099,1.0,random_dot,60.34074414961158,
left,left,accuracy,,,,,0.0,0.0,0.0,0.0,22.0,0.0,44.0,0.0,274.76757829997223,,,,,,,,,274.75458009995054,274.8673517999705,275.66779629990924,275.6519303999376,275.65198839991353,275.66779629990924,275.66779629990924,275.66779629990924,278.28627589996904,left,1.0,39.84627410012763,,,,,,,,,,,,,,,,,,,,,,,,,,,,,,,,sub-099,1.0,random_dot,60.34074414961158,
right,right,accuracy,,,,,0.0,0.0,0.0,0.0,22.0,1.0,45.0,1.0,278.3004973999923,,,,,,,,,278.28799769992474,279.1004807999125,279.9013827999588,279.88485219993163,279.8848876999691,279.9013827999588,279.9013827999588,279.9013827999588,281.4361348999664,right,1.0,38.75955340010114,,,,,,,,,,,,,,,,,,,,,,,,,,,,,,,,sub-099,1.0,random_dot,60.34074414961158,
left,left,accuracy,,,,,0.0,0.0,0.0,0.0,23.0,0.0,46.0,0.0,281.45104569999967,,,,,,,,,281.4379038999323,282.6505648999009,283.451054199948,283.434975399985,283.43500879989006,283.451054199948,283.451054199948,283.451054199948,284.0531619999092,left,1.0,37.83431700011715,,,,,,,,,,,,,,,,,,,,,,,,,,,,,,,,sub-099,1.0,random_dot,60.34074414961158,
right,right,accuracy,,,,,0.0,0.0,0.0,0.0,23.0,1.0,47.0,1.0,284.0669590999605,,,,,,,,,284.0549172998872,285.2672616998898,286.06783139996696,286.0512404999463,286.05127679998986,286.06783139996696,286.06783139996696,286.06783139996696,286.91979599988554,right,1.0,38.07275930012111,,,,,,,,,,,,,,,,,,,,,,,,,,,,,,,,sub-099,1.0,random_dot,60.34074414961158,
right,right,accuracy,,,,,0.0,0.0,0.0,0.0,24.0,0.0,48.0,1.0,286.9337390998844,,,,,,,,,286.92230999993626,287.2839124999009,288.0842828999739,288.0681354999542,288.0681678999681,288.0842828999739,288.0842828999739,288.0842828999739,291.35278119996656,right,1.0,40.48641140013933,,,,,,,,,,,,,,,,,,,,,,,,,,,,,,,,sub-099,1.0,random_dot,60.34074414961158,
left,left,accuracy,,,,,0.0,0.0,0.0,0.0,24.0,1.0,49.0,0.0,291.3671027999372,,,,,,,,,291.3549124998972,291.4673052999424,292.2674905998865,292.2515559999738,292.2516079999041,292.2674905998865,292.2674905998865,292.2674905998865,297.00321689993143,left,1.0,41.955542100127786,,,,,,,,,,,,,,,,,,,,,,,,,,,,,,,,sub-099,1.0,random_dot,60.34074414961158,
right,right,accuracy,,,,,0.0,0.0,0.0,0.0,25.0,0.0,50.0,1.0,297.017303599976,,,,,,,,,297.0051123999292,297.3671530999709,298.16751659999136,298.15149829990696,298.151529799914,298.16751659999136,298.16751659999136,298.16751659999136,298.9194724999834,right,1.0,37.980018600123,,,,,,,,,,,,,,,,,,,,,,,,,,,,,,,,sub-099,1.0,random_dot,60.34074414961158,
left,left,accuracy,,,,,0.0,0.0,0.0,0.0,25.0,1.0,51.0,0.0,298.93371129990555,,,,,,,,,298.9213859998854,300.1343014999293,300.9340460998937,300.92370569997,300.92375839990564,300.9340460998937,300.9340460998937,300.9340460998937,301.7363143999828,left,1.0,38.02554690011311,,,,,,,,,,,,,,,,,,,,,,,,,,,,,,,,sub-099,1.0,random_dot,60.34074414961158,
right,right,accuracy,,,,,0.0,0.0,0.0,0.0,26.0,0.0,52.0,1.0,301.75074989988934,,,,,,,,,301.7380376999499,302.10032129997853,302.9010880999267,302.88497709995136,302.8850090999622,302.9010880999267,302.9010880999267,302.9010880999267,305.986992299906,right,1.0,40.31848400016315,,,,,,,,,,,,,,,,,,,,,,,,,,,,,,,,sub-099,1.0,random_dot,60.34074414961158,
left,left,accuracy,,,,,0.0,0.0,0.0,0.0,26.0,1.0,53.0,0.0,306.00078789994586,,,,,,,,,305.9887117999606,306.3504993999377,307.1515111998888,307.13482189993374,307.1348664999241,307.1515111998888,307.1515111998888,307.1515111998888,308.1701793998945,left,1.0,38.25149510009214,,,,,,,,,,,,,,,,,,,,,,,,,,,,,,,,sub-099,1.0,random_dot,60.34074414961158,
right,right,accuracy,,,,,0.0,0.0,0.0,0.0,27.0,0.0,54.0,1.0,308.1837015999481,,,,,,,,,308.1718821999384,308.283789799898,309.08495449996553,309.0681572998874,309.06819339992944,309.08495449996553,309.08495449996553,309.08495449996553,312.6691999998875,right,1.0,40.80404260009527,,,,,,,,,,,,,,,,,,,,,,,,,,,,,,,,sub-099,1.0,random_dot,60.34074414961158,
left,left,accuracy,,,,,0.0,0.0,0.0,0.0,27.0,1.0,55.0,0.0,312.6838999999454,,,,,,,,,312.6709266999969,313.484289099928,314.28432069998235,314.26862709992565,314.26865919993725,314.28432069998235,314.28432069998235,314.28432069998235,316.2530490999343,left,1.0,39.20148200017866,,,,,,,,,,,,,,,,,,,,,,,,,,,,,,,,sub-099,1.0,random_dot,60.34074414961158,
left,left,accuracy,,,,,0.0,0.0,0.0,0.0,28.0,0.0,56.0,0.0,316.266913499916,,,,,,,,,316.2547633999493,317.06737629999407,317.86780929996166,317.8515008999966,317.851543399971,317.86780929996166,317.86780929996166,317.86780929996166,318.65234439994674,left,1.0,38.011478100088425,,,,,,,,,,,,,,,,,,,,,,,,,,,,,,,,sub-099,1.0,random_dot,60.34074414961158,
right,right,accuracy,,,,,0.0,0.0,0.0,0.0,28.0,1.0,57.0,1.0,318.66713009995874,,,,,,,,,318.6540745999664,319.01696869998705,319.8179466999136,319.8018489999231,319.8018902998883,319.8179466999136,319.8179466999136,319.8179466999136,321.43568769993726,right,1.0,38.83902150020003,,,,,,,,,,,,,,,,,,,,,,,,,,,,,,,,sub-099,1.0,random_dot,60.34074414961158,
left,left,accuracy,,,,,0.0,0.0,0.0,0.0,29.0,0.0,58.0,0.0,321.4507386999903,,,,,,,,,321.4374313999433,321.55038369994145,322.3508909998927,322.3349033999257,322.3349356999388,322.3508909998927,322.3508909998927,322.3508909998927,324.88595069991425,left,1.0,39.75681780010928,,,,,,,,,,,,,,,,,,,,,,,,,,,,,,,,sub-099,1.0,random_dot,60.34074414961158,
right,right,accuracy,,,,,0.0,0.0,0.0,0.0,29.0,1.0,59.0,1.0,324.9003318999894,,,,,,,,,324.8876857999712,325.2505370998988,326.05084939999506,326.0347330999793,326.0347709999187,326.05084939999506,326.05084939999506,326.05084939999506,326.7190476999385,right,1.0,37.88902940007392,,,,,,,,,,,,,,,,,,,,,,,,,,,,,,,,sub-099,1.0,random_dot,60.34074414961158,
,,accuracy,,,,,0.0,0.0,0.0,0.0,,,,,,,,,,,,,,,,,,,,,,,,,,,,,,,,,,,,,,,,,,,,,,,,,,,,,,,,,sub-099,1.0,random_dot,60.34074414961158,
right,right,speed,,,,,0.0,1.0,1.0,1.0,0.0,0.0,0.0,1.0,333.33650679991115,,,,,,,,,333.3304213999072,334.5342783998931,335.33436839992646,335.31815429998096,335.31819159991574,335.33436839992646,335.33436839992646,335.33436839992646,336.43588799994905,right,1.0,38.32963040017057,,,,,,,,,,,,,,,,,,,,326.7207237998955,326.73801559989806,326.73801559989806,333.3188705999637,space,43.81249090016354,,,,,,,sub-099,1.0,random_dot,60.34074414961158,
left,left,speed,,,,,0.0,1.0,1.0,1.0,0.0,1.0,1.0,0.0,336.45019889995456,,,,,,,,,336.4380337999901,336.55024059989955,337.3507058999967,337.33470629993826,337.33473789994605,337.3507058999967,337.3507058999967,337.3507058999967,338.55226389993913,left,1.0,38.42018060013652,,,,,,,,,,,,,,,,,,,,,,,,,,,,,,,,sub-099,1.0,random_dot,60.34074414961158,
left,left,speed,,,,,0.0,1.0,1.0,1.0,1.0,0.0,2.0,0.0,338.56677349994425,,,,,,,,,338.5539808999747,338.6666872999631,339.46733899996616,339.4518832999747,339.451914699981,339.46733899996616,339.46733899996616,339.46733899996616,340.9527776999166,left,1.0,38.71152770007029,,,,,,,,,,,,,,,,,,,,,,,,,,,,,,,,sub-099,1.0,random_dot,60.34074414961158,
right,right,speed,,,,,0.0,1.0,1.0,1.0,1.0,1.0,3.0,1.0,340.9666780999396,,,,,,,,,340.95451629988384,341.3172938999487,342.1174813999096,342.1016125999158,342.1016447999282,342.1174813999096,342.1174813999096,342.1174813999096,342.8362914999016,right,1.0,37.94773590005934,,,,,,,,,,,,,,,,,,,,,,,,,,,,,,,,sub-099,1.0,random_dot,60.34074414961158,
right,right,speed,,,,,0.0,1.0,1.0,1.0,2.0,0.0,4.0,1.0,342.85006149997935,,,,,,,,,342.83812769991346,344.0504253999097,344.85079289996065,344.8345180999022,344.834555999958,344.85079289996065,344.85079289996065,344.85079289996065,346.002436199924,right,1.0,38.38331040018238,,,,,,,,,,,,,,,,,,,,,,,,,,,,,,,,sub-099,1.0,random_dot,60.34074414961158,
left,left,speed,,,,,0.0,1.0,1.0,1.0,2.0,1.0,5.0,0.0,346.01726209989283,,,,,,,,,346.0045605999185,346.36690479994286,347.1669937999686,347.1512969998876,347.1513285998953,347.1669937999686,347.1669937999686,347.1669937999686,347.7691677999683,left,1.0,37.83280750014819,,,,,,,,,,,,,,,,,,,,,,,,,,,,,,,,sub-099,1.0,random_dot,60.34074414961158,
right,right,speed,,,,,0.0,1.0,1.0,1.0,3.0,0.0,6.0,1.0,347.7837153999135,,,,,,,,,347.77136419992894,348.9836107998853,349.78416859998833,349.767921899911,349.7679534999188,349.78416859998833,349.78416859998833,349.78416859998833,350.70255509996787,right,1.0,38.14414030010812,,,,,,,,,,,,,,,,,,,,,,,,,,,,,,,,sub-099,1.0,random_dot,60.34074414961158,
left,left,speed,,,,,0.0,1.0,1.0,1.0,3.0,1.0,7.0,0.0,350.7167047999101,,,,,,,,,350.7042962999549,351.9171420999337,352.7177279999014,352.70140509994235,352.70143739995547,352.7177279999014,352.7177279999014,352.7177279999014,353.30243229994085,left,1.0,37.81692040001508,,,,,,,,,,,,,,,,,,,,,,,,,,,,,,,,sub-099,1.0,random_dot,60.34074414961158,
left,left,speed,,,,,0.0,1.0,1.0,1.0,4.0,0.0,8.0,0.0,353.3168477999279,,,,,,,,,353.3041611999506,353.4167754999362,354.21789839991834,354.2012801999226,354.2013135999441,354.21789839991834,354.21789839991834,354.21789839991834,355.2865098998882,left,1.0,38.28911320003681,,,,,,,,,,,,,,,,,,,,,,,,,,,,,,,,sub-099,1.0,random_dot,60.34074414961158,
right,right,speed,,,,,0.0,1.0,1.0,1.0,4.0,1.0,9.0,1.0,355.3003604999976,,,,,,,,,355.2882422999246,355.4001537999138,356.2005992999766,356.1850456999382,356.1850779999513,356.2005992999766,356.2005992999766,356.2005992999766,356.8361571999267,right,1.0,37.86793330009096,,,,,,,,,,,,,,,,,,,,,,,,,,,,,,,,sub-099,1.0,random_dot,60.34074414961158,
right,right,speed,,,,,0.0,1.0,1.0,1.0,5.0,0.0,10.0,1.0,356.8501448999159,,,,,,,,,356.8378770999843,358.0502371999901,358.8506258999696,358.8349837999558,358.8350173999788,358.8506258999696,358.8506258999696,358.8506258999696,360.7193039999111,right,1.0,39.09209390019532,,,,,,,,,,,,,,,,,,,,,,,,,,,,,,,,sub-099,1.0,random_dot,60.34074414961158,
left,left,speed,,,,,0.0,1.0,1.0,1.0,5.0,1.0,11.0,0.0,360.7333819998894,,,,,,,,,360.72103259991854,361.9335817999672,362.7342598999385,362.71775609999895,362.71779389993753,362.7342598999385,362.7342598999385,362.7342598999385,363.4019983999897,left,1.0,37.89221860014368,,,,,,,,,,,,,,,,,,,,,,,,,,,,,,,,sub-099,1.0,random_dot,60.34074414961158,
left,left,speed,,,,,0.0,1.0,1.0,1.0,6.0,0.0,12.0,0.0,363.41758389992174,,,,,,,,,363.4038166999817,363.5168419999536,364.31744329992216,364.301105099963,364.3011417998932,364.31744329992216,364.31744329992216,364.31744329992216,365.5357977999374,left,1.0,38.44189150002785,,,,,,,,,,,,,,,,,,,,,,,,,,,,,,,,sub-099,1.0,random_dot,60.34074414961158,
right,right,speed,,,,,0.0,1.0,1.0,1.0,6.0,1.0,13.0,1.0,365.55014589999337,,,,,,,,,365.5377285999712,365.9001697999192,366.70137039991096,366.68477879988495,366.6848114999011,366.70137039991096,366.70137039991096,366.70137039991096,367.8857421999565,right,1.0,38.404934300109744,,,,,,,,,,,,,,,,,,,,,,,,,,,,,,,,sub-099,1.0,random_dot,60.34074414961158,
left,left,speed,,,,,0.0,1.0,1.0,1.0,7.0,0.0,14.0,0.0,367.9001921999734,,,,,,,,,367.88772039988544,369.1005959999748,369.9008384998888,369.8844901999692,369.8845224999823,369.9008384998888,369.9008384998888,369.9008384998888,370.8853878999362,left,1.0,38.21037360012997,,,,,,,,,,,,,,,,,,,,,,,,,,,,,,,,sub-099,1.0,random_dot,60.34074414961158,
right,right,speed,,,,,0.0,1.0,1.0,1.0,7.0,1.0,15.0,1.0,370.8998795999214,,,,,,,,,370.8871344999643,371.7006312999874,372.50063289992977,372.4847524999641,372.4847832999658,372.50063289992977,372.50063289992977,372.50063289992977,373.0699474998983,right,1.0,37.786711800144985,,,,,,,,,,,,,,,,,,,,,,,,,,,,,,,,sub-099,1.0,random_dot,60.34074414961158,
right,right,speed,,,,,0.0,1.0,1.0,1.0,8.0,0.0,16.0,1.0,373.0832397999475,,,,,,,,,373.0716577999992,373.4336875999579,374.2348883999512,374.21818909992,374.2182203999255,374.2348883999512,374.2348883999512,374.2348883999512,375.9523822999327,right,1.0,38.94113970012404,,,,,,,,,,,,,,,,,,,,,,,,,,,,,,,,sub-099,1.0,random_dot,60.34074414961158,
left,left,speed,,,,,0.0,1.0,1.0,1.0,8.0,1.0,17.0,0.0,375.9667659999104,,,,,,,,,375.9541034998838,376.31671189994086,377.1174860999454,377.10110589989927,377.1011398999253,377.1174860999454,377.1174860999454,377.1174860999454,377.7858243999072,left,1.0,37.90020320017357,,,,,,,,,,,,,,,,,,,,,,,,,,,,,,,,sub-099,1.0,random_dot,60.34074414961158,
right,right,speed,,,,,0.0,1.0,1.0,1.0,9.0,0.0,18.0,1.0,377.7997501998907,,,,,,,,,377.78755859995726,378.6003435999155,379.4005413999548,379.38456889998633,379.38460139988456,379.4005413999548,379.4005413999548,379.4005413999548,380.1353068999015,right,1.0,37.95311590004712,,,,,,,,,,,,,,,,,,,,,,,,,,,,,,,,sub-099,1.0,random_dot,60.34074414961158,
left,left,speed,,,,,0.0,1.0,1.0,1.0,9.0,1.0,19.0,0.0,380.149984599906,,,,,,,,,380.1375810999889,381.3500405999366,382.15052239992656,382.1343798999442,382.13441849988885,382.15052239992656,382.15052239992656,382.15052239992656,382.8520028999774,left,1.0,37.92349010007456,,,,,,,,,,,,,,,,,,,,,,,,,,,,,,,,sub-099,1.0,random_dot,60.34074414961158,
right,right,speed,,,,,0.0,1.0,1.0,1.0,10.0,0.0,20.0,1.0,382.866532499902,,,,,,,,,382.853721399908,382.9666218999773,383.7674874999793,383.7510107998969,383.7510442999192,383.7674874999793,383.7674874999793,383.7674874999793,385.169850199949,right,1.0,38.63353860017378,,,,,,,,,,,,,,,,,,,,,,,,,,,,,,,,sub-099,1.0,random_dot,60.34074414961158,
left,left,speed,,,,,0.0,1.0,1.0,1.0,10.0,1.0,21.0,0.0,385.1832487999927,,,,,,,,,385.1724754999159,385.9834523999598,386.7837440998992,386.7679629999912,386.7679939999944,386.7837440998992,386.7837440998992,386.7837440998992,389.4692637999542,left,1.0,39.91769050003495,,,,,,,,,,,,,,,,,,,,,,,,,,,,,,,,sub-099,1.0,random_dot,60.34074414961158,
left,left,speed,,,,,0.0,1.0,1.0,1.0,11.0,0.0,22.0,0.0,389.48328039993066,,,,,,,,,389.4710458999034,389.83410629990976,390.6338602999458,390.6178102999693,390.6178653999232,390.6338602999458,390.6338602999458,390.6338602999458,391.26917899993714,left,1.0,37.86138340015896,,,,,,,,,,,,,,,,,,,,,,,,,,,,,,,,sub-099,1.0,random_dot,60.34074414961158,
right,right,speed,,,,,0.0,1.0,1.0,1.0,11.0,1.0,23.0,1.0,391.283051299979,,,,,,,,,391.27090439992025,392.4836814999581,393.2841623999411,393.267672099988,393.2677045998862,393.2841623999411,393.2841623999411,393.2841623999411,393.8522851999151,right,1.0,37.79685420007445,,,,,,,,,,,,,,,,,,,,,,,,,,,,,,,,sub-099,1.0,random_dot,60.34074414961158,
left,left,speed,,,,,0.0,1.0,1.0,1.0,12.0,0.0,24.0,0.0,393.866602199967,,,,,,,,,393.8540586999152,394.2166005999316,395.0171632999554,395.0010194999632,395.001055099885,395.0171632999554,395.0171632999554,395.0171632999554,395.619590499904,left,1.0,37.83026670012623,,,,,,,,,,,,,,,,,,,,,,,,,,,,,,,,sub-099,1.0,random_dot,60.34074414961158,
right,right,speed,,,,,0.0,1.0,1.0,1.0,12.0,1.0,25.0,1.0,395.6331019999925,,,,,,,,,395.6214230998885,395.7333911999594,396.5340635998873,396.5175542999059,396.5175866999198,396.5340635998873,396.5340635998873,396.5340635998873,397.20231939991936,right,1.0,37.89946370001417,,,,,,,,,,,,,,,,,,,,,,,,,,,,,,,,sub-099,1.0,random_dot,60.34074414961158,
left,left,speed,,,,,0.0,1.0,1.0,1.0,13.0,0.0,26.0,0.0,397.2172367998865,,,,,,,,,397.2040514999535,397.3166547999717,398.11769289989024,398.1010747998953,398.1011083999183,398.11769289989024,398.11769289989024,398.11769289989024,399.8025467999978,left,1.0,38.91361520020291,,,,,,,,,,,,,,,,,,,,,,,,,,,,,,,,sub-099,1.0,random_dot,60.34074414961158,
right,right,speed,,,,,0.0,1.0,1.0,1.0,13.0,1.0,27.0,1.0,399.8166095999768,,,,,,,,,399.8043912999565,400.1665340999607,400.96752529998776,400.9509456999367,400.9509779999498,400.96752529998776,400.96752529998776,400.96752529998776,404.01901079993695,right,1.0,40.27690210007131,,,,,,,,,,,,,,,,,,,,,,,,,,,,,,,,sub-099,1.0,random_dot,60.34074414961158,
left,left,speed,,,,,0.0,1.0,1.0,1.0,14.0,0.0,28.0,0.0,404.0328632999445,,,,,,,,,404.0207391999429,404.38323739997577,405.183613399975,405.16768809990026,405.1677197999088,405.183613399975,405.183613399975,405.183613399975,405.85241279995535,left,1.0,37.889017400098965,,,,,,,,,,,,,,,,,,,,,,,,,,,,,,,,sub-099,1.0,random_dot,60.34074414961158,
right,right,speed,,,,,0.0,1.0,1.0,1.0,14.0,1.0,29.0,1.0,405.8670077999122,,,,,,,,,405.8542750999332,407.0675157998921,407.8670353998896,407.8514027999481,407.85143459995743,407.8670353998896,407.8670353998896,407.8670353998896,410.4528553999262,right,1.0,39.81348250003066,,,,,,,,,,,,,,,,,,,,,,,,,,,,,,,,sub-099,1.0,random_dot,60.34074414961158,
left,left,speed,,,,,0.0,1.0,1.0,1.0,15.0,0.0,30.0,0.0,410.466377499979,,,,,,,,,410.4547016998986,411.2666628999869,412.0675918998895,412.0506966999965,412.0507288998924,412.0675918998895,412.0675918998895,412.0675918998895,416.1190599999391,right,0.0,41.27920700015966,,,,,,,,,,,,,,,,,,,,,,,,,,,,,,,,sub-099,1.0,random_dot,60.34074414961158,
right,right,speed,,,,,0.0,1.0,1.0,1.0,15.0,1.0,31.0,1.0,416.1330281998962,,,,,,,,,416.1208852999844,416.933679599897,417.7338180999504,417.7175072999671,417.7175442998996,417.7338180999504,417.7338180999504,417.7338180999504,418.30202009994537,right,1.0,37.79260800010525,,,,,,,,,,,,,,,,,,,,,,,,,,,,,,,,sub-099,1.0,random_dot,60.34074414961158,
left,left,speed,,,,,0.0,1.0,1.0,1.0,16.0,0.0,32.0,0.0,418.3162830999354,,,,,,,,,418.3038127999753,418.4164325998863,419.21708129998296,419.2010303999996,419.2010703999549,419.21708129998296,419.21708129998296,419.21708129998296,421.0518144998932,left,1.0,39.06384030007757,,,,,,,,,,,,,,,,,,,,,,,,,,,,,,,,sub-099,1.0,random_dot,60.34074414961158,
right,right,speed,,,,,0.0,1.0,1.0,1.0,16.0,1.0,33.0,1.0,421.0664242999628,,,,,,,,,421.0535356999608,421.4169024999719,422.2172203999944,422.2010643999092,422.20109569991473,422.2172203999944,422.2172203999944,422.2172203999944,423.9024898998905,right,1.0,38.91467200010084,,,,,,,,,,,,,,,,,,,,,,,,,,,,,,,,sub-099,1.0,random_dot,60.34074414961158,
right,right,speed,,,,,0.0,1.0,1.0,1.0,17.0,0.0,34.0,1.0,423.916368199978,,,,,,,,,423.9042253999505,425.1169031999307,425.9172886998858,425.9008635999635,425.9008955999743,425.9172886998858,425.9172886998858,425.9172886998858,427.6193050999427,right,1.0,38.92167760012671,,,,,,,,,,,,,,,,,,,,,,,,,,,,,,,,sub-099,1.0,random_dot,60.34074414961158,
left,left,speed,,,,,0.0,1.0,1.0,1.0,17.0,1.0,35.0,0.0,427.6330526999664,,,,,,,,,427.62102349998895,427.7338313999353,428.5342904999852,428.5176416999893,428.5176742998883,428.5342904999852,428.5342904999852,428.5342904999852,429.1350903999992,left,1.0,37.82081710011698,,,,,,,,,,,,,,,,,,,,,,,,,,,,,,,,sub-099,1.0,random_dot,60.34074414961158,
right,right,speed,,,,,0.0,1.0,1.0,1.0,18.0,0.0,36.0,1.0,429.150519699906,,,,,,,,,429.1368872999447,429.9498622999527,430.7502281999914,430.7342354999855,430.7342719999142,430.7502281999914,430.7502281999914,430.7502281999914,433.63635869999416,right,1.0,40.10393830004614,,,,,,,,,,,,,,,,,,,,,,,,,,,,,,,,sub-099,1.0,random_dot,60.34074414961158,
left,left,speed,,,,,0.0,1.0,1.0,1.0,18.0,1.0,37.0,0.0,433.6552689999808,,,,,,,,,433.6380767999217,434.8500005999813,435.650608099997,435.6347986999899,435.6348364999285,435.650608099997,435.650608099997,435.650608099997,436.2192525999853,left,1.0,37.79834030009806,,,,,,,,,,,,,,,,,,,,,,,,,,,,,,,,sub-099,1.0,random_dot,60.34074414961158,
left,left,speed,,,,,0.0,1.0,1.0,1.0,19.0,0.0,38.0,0.0,436.2330350999255,,,,,,,,,436.2211189999944,436.5830025998876,437.383834999986,437.3674610999879,437.3674926999957,437.383834999986,437.383834999986,437.383834999986,437.918887799955,left,1.0,37.76459230016917,,,,,,,,,,,,,,,,,,,,,,,,,,,,,,,,sub-099,1.0,random_dot,60.34074414961158,
right,right,speed,,,,,0.0,1.0,1.0,1.0,19.0,1.0,39.0,1.0,437.9329325999133,,,,,,,,,437.9207681999542,438.2834347999888,439.0838192999363,439.06742439989466,439.0674578999169,439.0838192999363,439.0838192999363,439.0838192999363,440.13605569989886,right,1.0,38.28512660006527,,,,,,,,,,,,,,,,,,,,,,,,,,,,,,,,sub-099,1.0,random_dot,60.34074414961158,
right,right,speed,,,,,0.0,1.0,1.0,1.0,20.0,0.0,40.0,1.0,440.1498919998994,,,,,,,,,440.137789899949,440.5003072998952,441.30042529990897,441.28405889996793,441.2840925999917,441.30042529990897,441.30042529990897,441.30042529990897,442.1522103999741,right,1.0,38.07964440004434,,,,,,,,,,,,,,,,,,,,,,,,,,,,,,,,sub-099,1.0,random_dot,60.34074414961158,
left,left,speed,,,,,0.0,1.0,1.0,1.0,20.0,1.0,41.0,0.0,442.1668048999272,,,,,,,,,442.1544831999345,442.5162583999336,443.31678899994586,443.3009689999744,443.3010012999876,443.31678899994586,443.31678899994586,443.31678899994586,443.9848154999781,left,1.0,37.88645080011338,,,,,,,,,,,,,,,,,,,,,,,,,,,,,,,,sub-099,1.0,random_dot,60.34074414961158,
right,right,speed,,,,,0.0,1.0,1.0,1.0,21.0,0.0,42.0,1.0,444.0000137999887,,,,,,,,,443.9865516999271,444.350241499953,445.1502111998852,445.1344800998922,445.1345118999016,445.1502111998852,445.1502111998852,445.1502111998852,445.9019268999109,right,1.0,37.98269750014879,,,,,,,,,,,,,,,,,,,,,,,,,,,,,,,,sub-099,1.0,random_dot,60.34074414961158,
left,left,speed,,,,,0.0,1.0,1.0,1.0,21.0,1.0,43.0,0.0,445.9162105999421,,,,,,,,,445.9037482999265,446.7164790999377,447.5168202999048,447.5010296999244,447.50106109993067,447.5168202999048,447.5168202999048,447.5168202999048,450.40208329993766,left,1.0,40.11771360004786,,,,,,,,,,,,,,,,,,,,,,,,,,,,,,,,sub-099,1.0,random_dot,60.34074414961158,
left,left,speed,,,,,0.0,1.0,1.0,1.0,22.0,0.0,44.0,0.0,450.4162310999818,,,,,,,,,450.40388999995776,451.616493199952,452.417128299945,452.40087659994606,452.40091419999953,452.417128299945,452.417128299945,452.417128299945,453.186268899939,right,0.0,38.00035770016257,,,,,,,,,,,,,,,,,,,,,,,,,,,,,,,,sub-099,1.0,random_dot,60.34074414961158,
right,right,speed,,,,,0.0,1.0,1.0,1.0,22.0,1.0,45.0,1.0,453.19951589999255,,,,,,,,,453.1879834999563,453.5498213999672,454.3503123999108,454.3340486999368,454.3340870999964,454.3503123999108,454.3503123999108,454.3503123999108,454.96837259992026,right,1.0,37.84787630010396,,,,,,,,,,,,,,,,,,,,,,,,,,,,,,,,sub-099,1.0,random_dot,60.34074414961158,
left,left,speed,,,,,0.0,1.0,1.0,1.0,23.0,0.0,46.0,0.0,454.9827343999641,,,,,,,,,454.9700929999817,455.08325249992777,455.88333079998847,455.86740669992287,455.8674401999451,455.88333079998847,455.88333079998847,455.88333079998847,456.4851055999752,left,1.0,37.82786400010809,,,,,,,,,,,,,,,,,,,,,,,,,,,,,,,,sub-099,1.0,random_dot,60.34074414961158,
right,right,speed,,,,,0.0,1.0,1.0,1.0,23.0,1.0,47.0,1.0,456.4994014999829,,,,,,,,,456.4868415999226,457.69994429999497,458.4999969999772,458.4845688999631,458.4846067999024,458.4999969999772,458.4999969999772,458.4999969999772,459.4350552998949,right,1.0,38.15555370016955,,,,,,,,,,,,,,,,,,,,,,,,,,,,,,,,sub-099,1.0,random_dot,60.34074414961158,
left,left,speed,,,,,0.0,1.0,1.0,1.0,24.0,0.0,48.0,0.0,459.4495609999867,,,,,,,,,459.43676609999966,460.64968729997054,461.45026489999145,461.4338840999408,461.43392729992047,461.45026489999145,461.45026489999145,461.45026489999145,462.0518535999581,left,1.0,37.82819610007573,,,,,,,,,,,,,,,,,,,,,,,,,,,,,,,,sub-099,1.0,random_dot,60.34074414961158,
right,right,speed,,,,,0.0,1.0,1.0,1.0,24.0,1.0,49.0,1.0,462.0660182998981,,,,,,,,,462.0535842999816,462.1667190999724,462.9671822999371,462.950868899934,462.950900399941,462.9671822999371,462.9671822999371,462.9671822999371,466.4363597999327,right,1.0,40.70214160019532,,,,,,,,,,,,,,,,,,,,,,,,,,,,,,,,sub-099,1.0,random_dot,60.34074414961158,
right,right,speed,,,,,0.0,1.0,1.0,1.0,25.0,0.0,50.0,1.0,466.4493395999307,,,,,,,,,466.4380812998861,467.6496417999733,468.45033449993934,468.4340130999917,468.4340495999204,468.45033449993934,468.45033449993934,468.45033449993934,470.368650999968,right,1.0,39.137123500113375,,,,,,,,,,,,,,,,,,,,,,,,,,,,,,,,sub-099,1.0,random_dot,60.34074414961158,
left,left,speed,,,,,0.0,1.0,1.0,1.0,25.0,1.0,51.0,0.0,470.3828096999787,,,,,,,,,470.3704270999879,470.48307429999113,471.2833887999877,471.2672919998877,471.2673224998871,471.2833887999877,471.2833887999877,471.2833887999877,473.4852548999479,left,1.0,39.41963280003984,,,,,,,,,,,,,,,,,,,,,,,,,,,,,,,,sub-099,1.0,random_dot,60.34074414961158,
left,left,speed,,,,,0.0,1.0,1.0,1.0,26.0,0.0,52.0,0.0,473.4997494999552,,,,,,,,,473.48708369990345,474.29936379997525,475.10030049993657,475.0841821999056,475.084216899937,475.10030049993657,475.10030049993657,475.10030049993657,478.1681683999486,right,0.0,40.29430090007372,,,,,,,,,,,,,,,,,,,,,,,,,,,,,,,,sub-099,1.0,random_dot,60.34074414961158,
right,right,speed,,,,,0.0,1.0,1.0,1.0,26.0,1.0,53.0,1.0,478.1827172999037,,,,,,,,,478.1698993999744,479.3831194998929,480.1835458999267,480.16736809990834,480.1674039999489,480.1835458999267,480.1835458999267,480.1835458999267,481.0024151999969,right,1.0,38.04494840011466,,,,,,,,,,,,,,,,,,,,,,,,,,,,,,,,sub-099,1.0,random_dot,60.34074414961158,
right,right,speed,,,,,0.0,1.0,1.0,1.0,27.0,0.0,54.0,1.0,481.0160113999154,,,,,,,,,481.0042237999151,481.3670250999276,482.1667121999199,482.1506368999835,482.1506690999959,482.1667121999199,482.1667121999199,482.1667121999199,485.6187751999824,right,1.0,40.684947200119495,,,,,,,,,,,,,,,,,,,,,,,,,,,,,,,,sub-099,1.0,random_dot,60.34074414961158,
left,left,speed,,,,,0.0,1.0,1.0,1.0,27.0,1.0,55.0,0.0,485.6326449998887,,,,,,,,,485.6204771999037,486.43304559995886,487.2332802999299,487.2178550999379,487.2178912999807,487.2332802999299,487.2332802999299,487.2332802999299,487.8852669999469,left,1.0,37.87202890007757,,,,,,,,,,,,,,,,,,,,,,,,,,,,,,,,sub-099,1.0,random_dot,60.34074414961158,
right,right,speed,,,,,0.0,1.0,1.0,1.0,28.0,0.0,56.0,1.0,487.8998058999423,,,,,,,,,487.8870057999157,488.0000069999369,488.80026879999787,488.78397679992486,488.7840160999913,488.80026879999787,488.80026879999787,488.80026879999787,492.2347414999968,left,0.0,40.655150700127706,,,,,,,,,,,,,,,,,,,,,,,,,,,,,,,,sub-099,1.0,random_dot,60.34074414961158,
left,left,speed,,,,,0.0,1.0,1.0,1.0,28.0,1.0,57.0,0.0,492.2497062999755,,,,,,,,,492.23648809990846,493.0494331999216,493.8498863999266,493.8343659999082,493.8343961999053,493.8498863999266,493.8498863999266,493.8498863999266,494.8694620999741,left,1.0,38.25234670005739,,,,,,,,,,,,,,,,,,,,,,,,,,,,,,,,sub-099,1.0,random_dot,60.34074414961158,
left,left,speed,,,,,0.0,1.0,1.0,1.0,29.0,0.0,58.0,0.0,494.8834113999037,,,,,,,,,494.8711844999343,494.9827719999012,495.783326099976,495.7669234999921,495.7669625999406,495.783326099976,495.783326099976,495.783326099976,499.96869779995177,right,0.0,41.41792450018693,,,,,,,,,,,,,,,,,,,,,,,,,,,,,,,,sub-099,1.0,random_dot,60.34074414961158,
right,right,speed,,,,,0.0,1.0,1.0,1.0,29.0,1.0,59.0,1.0,499.9825260998914,,,,,,,,,499.9705276999157,501.1828174999682,501.9835688999156,501.96689839998726,501.9669299999951,501.9835688999156,501.9835688999156,501.9835688999156,502.9022907998879,right,1.0,38.14960210002028,,,,,,,,,,,,,,,,,,,,,,,,,,,,,,,,sub-099,1.0,random_dot,60.34074414961158,
,,speed,,,,,0.0,1.0,1.0,1.0,,,,,,,,,,,,,,,,,,,,,,,,,,,,,,,,,,,,,,,,,,,,,,,,,,,,,,,,,sub-099,1.0,random_dot,60.34074414961158,
,,,,,,,,,,,,,,,,,,,,,,,,,,,,,,,,,,,,,,,,,,,,,,,,,,,,,,,,,,,,,,,502.9035615999019,502.91599889996,507.91621049994137,507.9002973999595,sub-099,,,,
