direction,corrAns,randomInstr,practice_trials.thisRepN,practice_trials.thisTrialN,practice_trials.thisN,practice_trials.thisIndex,instr_trials.thisRepN,instr_trials.thisTrialN,instr_trials.thisN,instr_trials.thisIndex,test_trials.thisRepN,test_trials.thisTrialN,test_trials.thisN,test_trials.thisIndex,thisRow.t,notes,general_instruction.started,textGeneralInstr.started,respGeneralInstr.started,general_instruction.stopped,respGeneralInstr.keys,respGeneralInstr.rt,respGeneralInstr.duration,ITI.started,fixcross.started,fixcross.stopped,ITI.stopped,dots.started,backgroundDots.started,stimulusDots.started,respDots.started,dots.stopped,respDots.keys,respDots.corr,respDots.rt,respDots.duration,feedback.started,textFeedback.started,textFeedback.stopped,feedback.stopped,info.started,textInfo.started,keyRespInfo.started,info.stopped,keyRespInfo.keys,keyRespInfo.rt,keyRespInfo.duration,test_instruction.started,textTestInstr.started,respTestInstr.started,test_instruction.stopped,respTestInstr.keys,respTestInstr.rt,respTestInstr.duration,random_instruction.started,textRandomInstr.started,respRandomInstr.started,random_instruction.stopped,respRandomInstr.keys,respRandomInstr.rt,respRandomInstr.duration,stimulusDots.stopped,goodbye.started,textGoodbye.started,textGoodbye.stopped,goodbye.stopped,participant,session,expName,frameRate,Unnamed: 74
,,,,,,,,,,,,,,,,,1.4625030999886803,1.466579100000672,1.466579100000672,26.77877089998219,space,40.3927287000115,,,,,,,,,,,,,,,,,,,,,,,,,,,,,,,,,,,,,,,,,,,,,sub-141,1.0,random_dot,60.02710824584518,
left,left,,0.0,0.0,0.0,0.0,,,,,,,,,26.79488210001728,,,,,,,,,26.78286700003082,27.97807120002108,28.778579799982253,28.76198070001556,28.76200129999779,28.778579799982253,28.778579799982253,28.778579799982253,31.781082600005902,left,1.0,18.096507499984,,31.78148519998649,31.79461739998078,32.29439480003202,32.27811810001731,,,,,,,,,,,,,,,,,,,,,,,,,,,sub-141,1.0,random_dot,60.02710824584518,
right,right,,0.0,1.0,1.0,1.0,,,,,,,,,32.29439480003202,,,,,,,,,32.27853619999951,33.494676399976015,34.294856399996206,34.27838390000397,34.27839900000254,34.294856399996206,34.294856399996206,34.294856399996206,35.62855139997555,right,1.0,16.41409149998799,,35.62879270000849,35.64436949999072,36.14465370000107,36.12854409997817,,,,,,,,,,,,,,,,,,,,,,,,,,,sub-141,1.0,random_dot,60.02710824584518,
left,left,,1.0,0.0,2.0,0.0,,,,,,,,,36.14465370000107,,,,,,,,,36.12882480002008,37.32793400000082,38.12809170002584,38.11189890000969,38.1119395000278,38.12809170002584,38.12809170002584,38.12809170002584,41.44532150001032,left,1.0,18.405882599996403,,41.44565599999624,41.4612714999821,41.961081699992064,41.94488279998768,,,,,,,,,,,,,,,,,,,,,,,,,,,sub-141,1.0,random_dot,60.02710824584518,
right,right,,1.0,1.0,3.0,1.0,,,,,,,,,41.961081699992064,,,,,,,,,41.9451036999817,43.16135750000831,43.96140510000987,43.94481999997515,43.94483769999351,43.96140510000987,43.96140510000987,43.96140510000987,45.22923699999228,right,1.0,16.360907099966425,,45.2296605000156,45.24461609998252,45.74443359998986,45.72823339997558,,,,,,,,,,,,,,,,,,,,,,,,,,,sub-141,1.0,random_dot,60.02710824584518,
right,right,,2.0,0.0,4.0,1.0,,,,,,,,,45.74443359998986,,,,,,,,,45.72844079998322,46.094304200029,46.89474140002858,46.87819860002492,46.87821070000064,46.89474140002858,46.89474140002858,46.89474140002858,48.362278199987486,right,1.0,16.557157000002917,,48.3625175000052,48.37794540001778,48.87799770000856,48.8616504999809,,,,,,,,,,,,,,,,,,,,,,,,,,,sub-141,1.0,random_dot,60.02710824584518,
left,left,,2.0,1.0,5.0,0.0,,,,,,,,,48.87799770000856,,,,,,,,,48.86199220002163,49.6775304999901,50.477791199984495,50.46108769997954,50.46110339998268,50.477791199984495,50.477791199984495,50.477791199984495,52.06176840001717,left,1.0,16.668502699991222,,52.062151800026186,52.07748889998766,52.57732969999779,52.56093929999042,,,,,,,,,,,,,,,,,,,,,,,,,,,sub-141,1.0,random_dot,60.02710824584518,
right,right,,3.0,0.0,6.0,1.0,,,,,,,,,52.57732969999779,,,,,,,,,52.561186900013126,52.67727129999548,53.477791299985256,53.4610454000067,53.461071100027766,53.477791299985256,53.477791299985256,53.477791299985256,56.74491339997621,right,1.0,18.361184699984733,,56.74527170002693,56.76071980001871,57.2608457999886,57.24423620000016,,,,,,,,,,,,,,,,,,,,,,,,,,,sub-141,1.0,random_dot,60.02710824584518,
left,left,,3.0,1.0,7.0,0.0,,,,,,,,,57.2608457999886,,,,,,,,,57.24446660000831,58.0606958999997,58.86100009997608,58.844549100031145,58.844561300007626,58.86100009997608,58.86100009997608,58.86100009997608,61.87828469998203,left,1.0,18.10867330001201,,61.878556000010576,61.89403329999186,62.3938296000124,62.37768269999651,,,,,,,,,,,,,,,,,,,,,,,,,,,sub-141,1.0,random_dot,60.02710824584518,
right,right,,4.0,0.0,8.0,1.0,,,,,,,,,62.3938296000124,,,,,,,,,62.37799950002227,62.74384220002685,63.54424200003268,63.52746960002696,63.52748089999659,63.54424200003268,63.54424200003268,63.54424200003268,65.06160080002155,right,1.0,16.60056049999548,,65.06187959999079,65.07733489997918,65.57705159997568,65.56084150000243,,,,,,,,,,,,,,,,,,,,,,,,,,,sub-141,1.0,random_dot,60.02710824584518,
left,left,,4.0,1.0,9.0,0.0,,,,,,,,,65.57705159997568,,,,,,,,,65.56103079998866,65.67714879999403,66.47759979998227,66.46078710001893,66.46080110000912,66.47759979998227,66.47759979998227,66.47759979998227,68.6116153000039,left,1.0,17.22154950001277,,68.61187500000233,68.62722409999697,69.12712720001582,69.11052689998178,,,,,,,,,,,,,,,,,,,,,,,,,,,sub-141,1.0,random_dot,60.02710824584518,
right,right,,5.0,0.0,10.0,1.0,,,,,,,,,69.12712720001582,,,,,,,,,69.11071969999466,69.22713160002604,70.02748560003238,70.01065040001413,70.01066500000888,70.02748560003238,70.02748560003238,70.02748560003238,71.19482440000866,right,1.0,16.258731300011277,,71.19518039998366,71.2105687999865,71.71153159998357,71.69454450003104,,,,,,,,,,,,,,,,,,,,,,,,,,,sub-141,1.0,random_dot,60.02710824584518,
left,left,,5.0,1.0,11.0,0.0,,,,,,,,,71.71153159998357,,,,,,,,,71.69481790001737,72.51094280002872,73.31136960000731,73.29512359999353,73.29514910001308,73.31136960000731,73.31136960000731,73.31136960000731,75.8983911999967,left,1.0,17.672864600026514,,75.89912870002445,75.91069039999275,76.41031429998111,76.39444040000672,,,,,,,,,,,,,,,,,,,,,,,,,,,sub-141,1.0,random_dot,60.02710824584518,
left,left,,6.0,0.0,12.0,0.0,,,,,,,,,76.41031429998111,,,,,,,,,76.39470110001275,76.5105664000148,77.31067849998362,77.2948352000094,77.29484930000035,77.31067849998362,77.31067849998362,77.31067849998362,79.41134849999798,left,1.0,17.18657209997764,,79.41174419998424,79.42694069998106,79.9270929999766,79.91085200000089,,,,,,,,,,,,,,,,,,,,,,,,,,,sub-141,1.0,random_dot,60.02710824584518,
right,right,,6.0,1.0,13.0,1.0,,,,,,,,,79.9270929999766,,,,,,,,,79.91111270000692,80.27703040000051,81.07735310000135,81.06084579997696,81.06085830001393,81.07735310000135,81.07735310000135,81.07735310000135,83.2955272999825,right,1.0,17.29875610000454,,83.29586359998211,83.3107497000019,83.81051360000856,83.79453409998678,,,,,,,,,,,,,,,,,,,,,,,,,,,sub-141,1.0,random_dot,60.02710824584518,
left,left,,7.0,0.0,14.0,0.0,,,,,,,,,83.81051360000856,,,,,,,,,83.79472000000533,85.01045790000353,85.81079770001816,85.79388529999414,85.79389800003264,85.81079770001816,85.81079770001816,85.81079770001816,88.27793729997938,left,1.0,17.555050399969332,,88.2781915999949,88.29361639998388,88.7937994999811,88.77740449999692,,,,,,,,,,,,,,,,,,,,,,,,,,,sub-141,1.0,random_dot,60.02710824584518,
right,right,,7.0,1.0,15.0,1.0,,,,,,,,,88.7937994999811,,,,,,,,,88.77765040000668,89.14349380001659,89.94383599999128,89.92723670002306,89.92725260002771,89.94383599999128,89.94383599999128,89.94383599999128,90.97803459997522,right,1.0,16.12066210003104,,90.97830459999386,90.99354749999476,91.4935722000082,91.47736180003268,,,,,,,,,,,,,,,,,,,,,,,,,,,sub-141,1.0,random_dot,60.02710824584518,
left,left,,8.0,0.0,16.0,0.0,,,,,,,,,91.4935722000082,,,,,,,,,91.4778323000064,91.84353080001893,92.64400209998712,92.62686289998236,92.62687300000108,92.64400209998712,92.64400209998712,92.64400209998712,94.74433680000948,left,1.0,17.195490299956873,,94.74457260000054,94.7602959999931,95.26016880001409,95.24365100002616,,,,,,,,,,,,,,,,,,,,,,,,,,,sub-141,1.0,random_dot,60.02710824584518,
right,right,,8.0,1.0,17.0,1.0,,,,,,,,,95.26016880001409,,,,,,,,,95.24388570000885,96.06016360002104,96.86029620002957,96.8436865999829,96.84370209998453,96.86029620002957,96.86029620002957,96.86029620002957,98.09459849999983,right,1.0,16.3287743999972,,98.0948620000272,98.1102209999808,98.61032829998294,98.59420859999956,,,,,,,,,,,,,,,,,,,,,,,,,,,sub-141,1.0,random_dot,60.02710824584518,
left,left,,9.0,0.0,18.0,0.0,,,,,,,,,98.61032829998294,,,,,,,,,98.59447299997557,98.96038659999611,99.76050829997985,99.74377539998386,99.74378660001094,99.76050829997985,99.76050829997985,99.76050829997985,101.72906709997916,left,1.0,17.063375400030054,,101.7293174000224,101.74372259998928,102.24360570003046,102.22742499999003,,,,,,,,,,,,,,,,,,,,,,,,,,,sub-141,1.0,random_dot,60.02710824584518,
right,right,,9.0,1.0,19.0,1.0,,,,,,,,,102.24360570003046,,,,,,,,,102.2277356000268,103.04334319999909,103.84402720001526,103.82740900001954,103.82741999998689,103.84402720001526,103.84402720001526,103.84402720001526,104.81132540002,right,1.0,16.060319899988826,,104.81157160003204,104.82708409999032,105.32692520000272,105.310813100019,,,,,,,,,,,,,,,,,,,,,,,,,,,sub-141,1.0,random_dot,60.02710824584518,
,,,,,,,,,,,,,,,,,,,,,,,,,,,,,,,,,,,,,,,,,105.31086149998008,105.32692520000272,105.32692520000272,110.1445912999916,space,19.902424399973825,,,,,,,,,,,,,,,,,,,,,sub-141,1.0,random_dot,60.02710824584518,
,,,,,,,,,,,,,,,,,,,,,,,,,,,,,,,,,,,,,,,,,,,,,,,,110.1446222999948,110.1601701999898,110.1601701999898,116.277553300024,space,21.20725139998831,,,,,,,,,,,,,,sub-141,1.0,random_dot,60.02710824584518,
left,left,speed,,,,,0.0,0.0,0.0,1.0,0.0,0.0,0.0,0.0,119.2267180000199,,,,,,,,,119.2157215999905,120.02661469997838,120.82701389997963,120.810427599994,120.81044289999409,120.82701389997963,120.82701389997963,120.82701389997963,121.84465290000662,left,1.0,16.113022100005765,,,,,,,,,,,,,,,,,,,,116.279325600015,116.29601579997689,116.29601579997689,119.21177599998192,space,18.01064250001218,,,,,,,sub-141,1.0,random_dot,60.02710824584518,
right,right,speed,,,,,0.0,0.0,0.0,1.0,0.0,1.0,1.0,1.0,121.86002890003148,,,,,,,,,121.84523959999206,123.05978890002008,123.86018259997944,123.8435699000256,123.84358590003104,123.86018259997944,123.86018259997944,123.86018259997944,124.62773609999569,right,1.0,15.853112099983264,,,,,,,,,,,,,,,,,,,,,,,,,,,,,,,,sub-141,1.0,random_dot,60.02710824584518,
right,right,speed,,,,,0.0,0.0,0.0,1.0,1.0,0.0,2.0,1.0,124.6432758999872,,,,,,,,,124.6282126000151,125.44334499997784,126.24361559998944,126.22694550000595,126.22695849998854,126.24361559998944,126.24361559998944,126.24361559998944,127.26097719999962,left,0.0,16.10722900001565,,,,,,,,,,,,,,,,,,,,,,,,,,,,,,,,sub-141,1.0,random_dot,60.02710824584518,
left,left,speed,,,,,0.0,0.0,0.0,1.0,1.0,1.0,3.0,0.0,127.2766549999942,,,,,,,,,127.26146040001186,127.37638359999984,128.17695490003098,128.1606886999798,128.16069950000383,128.17695490003098,128.17695490003098,128.17695490003098,129.2612038999796,left,1.0,16.17908819997683,,,,,,,,,,,,,,,,,,,,,,,,,,,,,,,,sub-141,1.0,random_dot,60.02710824584518,
left,left,speed,,,,,0.0,0.0,0.0,1.0,2.0,0.0,4.0,0.0,129.27652090002084,,,,,,,,,129.26168579998193,130.4764139999752,131.27705540001625,131.26027329999488,131.26028689998202,131.27705540001625,131.27705540001625,131.27705540001625,133.67714839999098,left,1.0,17.491387800022494,,,,,,,,,,,,,,,,,,,,,,,,,,,,,,,,sub-141,1.0,random_dot,60.02710824584518,
right,right,speed,,,,,0.0,0.0,0.0,1.0,2.0,1.0,5.0,1.0,133.69270930002676,,,,,,,,,133.6779080000124,134.49306220002472,135.29360580001958,135.27650450001238,135.2765165999881,135.29360580001958,135.29360580001958,135.29360580001958,135.99408570001833,right,1.0,15.781320000009146,,,,,,,,,,,,,,,,,,,,,,,,,,,,,,,,sub-141,1.0,random_dot,60.02710824584518,
left,left,speed,,,,,0.0,0.0,0.0,1.0,3.0,0.0,6.0,0.0,136.00966270000208,,,,,,,,,135.9945004999754,136.35988320002798,137.16005659999792,137.1434753999929,137.14348760002758,137.16005659999792,137.16005659999792,137.16005659999792,138.54429960000562,left,1.0,16.467665300006047,,,,,,,,,,,,,,,,,,,,,,,,,,,,,,,,sub-141,1.0,random_dot,60.02710824584518,
right,right,speed,,,,,0.0,0.0,0.0,1.0,3.0,1.0,7.0,1.0,138.55963169998722,,,,,,,,,138.54493159998674,139.75949359999504,140.56002730003092,140.54356479999842,140.5435770000331,140.56002730003092,140.56002730003092,140.56002730003092,141.42783330002567,right,1.0,15.962624799984042,,,,,,,,,,,,,,,,,,,,,,,,,,,,,,,,sub-141,1.0,random_dot,60.02710824584518,
left,left,speed,,,,,0.0,0.0,0.0,1.0,4.0,0.0,8.0,0.0,141.4433538999874,,,,,,,,,141.42828980000922,142.64280819997657,143.44305930001428,143.42644499999005,143.4264630000107,143.44305930001428,143.44305930001428,143.44305930001428,146.7603356000036,right,0.0,18.41105709999101,,,,,,,,,,,,,,,,,,,,,,,,,,,,,,,,sub-141,1.0,random_dot,60.02710824584518,
right,right,speed,,,,,0.0,0.0,0.0,1.0,4.0,1.0,9.0,1.0,146.77627929998562,,,,,,,,,146.76100430003137,147.5760420000297,148.37655300000915,148.3600407000049,148.36005140002817,148.37655300000915,148.37655300000915,148.37655300000915,149.3104087000247,right,1.0,16.024320799973793,,,,,,,,,,,,,,,,,,,,,,,,,,,,,,,,sub-141,1.0,random_dot,60.02710824584518,
right,right,speed,,,,,0.0,0.0,0.0,1.0,5.0,0.0,10.0,1.0,149.32627130002948,,,,,,,,,149.31083219998982,150.5262655999977,151.3266639999929,151.3101737999823,151.31018730002688,151.3266639999929,151.3266639999929,151.3266639999929,152.7772433999926,right,1.0,16.53708400001051,,,,,,,,,,,,,,,,,,,,,,,,,,,,,,,,sub-141,1.0,random_dot,60.02710824584518,
left,left,speed,,,,,0.0,0.0,0.0,1.0,5.0,1.0,11.0,0.0,152.79304389999015,,,,,,,,,152.7776902000187,153.1429124000133,153.94317759998376,153.92672879999736,153.9267506999895,153.94317759998376,153.94317759998376,153.94317759998376,155.86057720001554,left,1.0,17.005613500019535,,,,,,,,,,,,,,,,,,,,,,,,,,,,,,,,sub-141,1.0,random_dot,60.02710824584518,
left,left,speed,,,,,0.0,0.0,0.0,1.0,6.0,0.0,12.0,0.0,155.87629250000464,,,,,,,,,155.86099630000535,157.07608500000788,157.87655350001296,157.86014479998266,157.8601604999858,157.87655350001296,157.87655350001296,157.87655350001296,159.8791253999807,right,0.0,17.097209099971224,,,,,,,,,,,,,,,,,,,,,,,,,,,,,,,,sub-141,1.0,random_dot,60.02710824584518,
right,right,speed,,,,,0.0,0.0,0.0,1.0,6.0,1.0,13.0,1.0,159.89281839999603,,,,,,,,,159.87958920001984,160.6927832000074,161.49316620000172,161.47668740001973,161.47670549998293,161.49316620000172,161.49316620000172,161.49316620000172,162.46204610000132,right,1.0,16.063340299995616,,,,,,,,,,,,,,,,,,,,,,,,,,,,,,,,sub-141,1.0,random_dot,60.02710824584518,
left,left,speed,,,,,0.0,0.0,0.0,1.0,7.0,0.0,14.0,0.0,162.47596910002176,,,,,,,,,162.4625067000161,163.27596669999184,164.07618779997574,164.05979869997827,164.0598159999936,164.07618779997574,164.07618779997574,164.07618779997574,164.92879480001284,left,1.0,15.947631899965929,,,,,,,,,,,,,,,,,,,,,,,,,,,,,,,,sub-141,1.0,random_dot,60.02710824584518,
right,right,speed,,,,,0.0,0.0,0.0,1.0,7.0,1.0,15.0,1.0,164.9426789000281,,,,,,,,,164.9292376000085,165.2925900000264,166.09286430000793,166.0764965999988,166.07650790002663,166.09286430000793,166.09286430000793,166.09286430000793,166.69339939998463,right,1.0,15.694716300000437,,,,,,,,,,,,,,,,,,,,,,,,,,,,,,,,sub-141,1.0,random_dot,60.02710824584518,
right,right,speed,,,,,0.0,0.0,0.0,1.0,8.0,0.0,16.0,1.0,166.7089994000271,,,,,,,,,166.69384199997876,166.8092090000282,167.60978140000952,167.59313440002734,167.59314730000915,167.60978140000952,167.60978140000952,167.60978140000952,168.3937923000194,right,1.0,15.867427900026088,,,,,,,,,,,,,,,,,,,,,,,,,,,,,,,,sub-141,1.0,random_dot,60.02710824584518,
left,left,speed,,,,,0.0,0.0,0.0,1.0,8.0,1.0,17.0,0.0,168.40918960003182,,,,,,,,,168.39421830000356,169.20916820003183,170.009597700031,169.99287950003054,169.9928951000329,170.009597700031,170.009597700031,170.009597700031,170.693233900005,left,1.0,15.778230199939571,,,,,,,,,,,,,,,,,,,,,,,,,,,,,,,,sub-141,1.0,random_dot,60.02710824584518,
right,right,speed,,,,,0.0,0.0,0.0,1.0,9.0,0.0,18.0,1.0,170.7090980000212,,,,,,,,,170.69369139999617,171.5092907000217,172.30947330000345,172.29337379999924,172.29339260002598,172.30947330000345,172.30947330000345,172.30947330000345,172.99337769998235,right,1.0,15.765533300000245,,,,,,,,,,,,,,,,,,,,,,,,,,,,,,,,sub-141,1.0,random_dot,60.02710824584518,
left,left,speed,,,,,0.0,0.0,0.0,1.0,9.0,1.0,19.0,0.0,173.00891480001155,,,,,,,,,172.9938255000161,174.209173500014,175.00956520001637,174.99270589998923,174.99272079998627,175.00956520001637,175.00956520001637,175.00956520001637,175.77891090000048,left,1.0,15.863846599997489,,,,,,,,,,,,,,,,,,,,,,,,,,,,,,,,sub-141,1.0,random_dot,60.02710824584518,
right,right,speed,,,,,0.0,0.0,0.0,1.0,10.0,0.0,20.0,1.0,175.79221189999953,,,,,,,,,175.7794076999999,175.89238159998786,176.69279080000706,176.67642430000706,176.67644599999767,176.69279080000706,176.69279080000706,176.69279080000706,177.42673629999626,right,1.0,15.823349999962376,,,,,,,,,,,,,,,,,,,,,,,,,,,,,,,,sub-141,1.0,random_dot,60.02710824584518,
left,left,speed,,,,,0.0,0.0,0.0,1.0,10.0,1.0,21.0,0.0,177.44247800001176,,,,,,,,,177.42716060002567,177.79246720002266,178.59292020002613,178.57627710001543,178.57629440003075,178.59292020002613,178.59292020002613,178.59292020002613,179.29341340000974,right,0.0,15.788410099979956,,,,,,,,,,,,,,,,,,,,,,,,,,,,,,,,sub-141,1.0,random_dot,60.02710824584518,
left,left,speed,,,,,0.0,0.0,0.0,1.0,11.0,0.0,22.0,0.0,179.30913589999545,,,,,,,,,179.29386740003247,180.50923490000423,181.30917359999148,181.2929895999841,181.29300379997585,181.30917359999148,181.30917359999148,181.30917359999148,182.07669379998697,right,0.0,15.860149399959482,,,,,,,,,,,,,,,,,,,,,,,,,,,,,,,,sub-141,1.0,random_dot,60.02710824584518,
right,right,speed,,,,,0.0,0.0,0.0,1.0,11.0,1.0,23.0,1.0,182.09249529999212,,,,,,,,,182.07713970000623,183.2923707999871,184.09284509997812,184.0763180999784,184.07633270003132,184.09284509997812,184.09284509997812,184.09284509997812,184.86013079999248,right,1.0,15.86074059997918,,,,,,,,,,,,,,,,,,,,,,,,,,,,,,,,sub-141,1.0,random_dot,60.02710824584518,
right,right,speed,,,,,0.0,0.0,0.0,1.0,12.0,0.0,24.0,1.0,184.87544520001396,,,,,,,,,184.8607970000012,185.22562059998745,186.02601939998567,186.00899950001624,186.00901179999343,186.02601939998567,186.02601939998567,186.02601939998567,188.15964000002717,right,1.0,17.229152199986856,,,,,,,,,,,,,,,,,,,,,,,,,,,,,,,,sub-141,1.0,random_dot,60.02710824584518,
left,left,speed,,,,,0.0,0.0,0.0,1.0,12.0,1.0,25.0,0.0,188.17536809999729,,,,,,,,,188.1601118000108,189.35892369999783,190.1595335000311,190.14275310002267,190.14276770001743,190.1595335000311,190.1595335000311,190.1595335000311,190.8267449000268,left,1.0,15.758712999988347,,,,,,,,,,,,,,,,,,,,,,,,,,,,,,,,sub-141,1.0,random_dot,60.02710824584518,
right,right,speed,,,,,0.0,0.0,0.0,1.0,13.0,0.0,26.0,1.0,190.84243650001008,,,,,,,,,190.82726960000585,190.94238670001505,191.7425209999783,191.72611510002756,191.726141799998,191.7425209999783,191.7425209999783,191.7425209999783,192.44321380002657,right,1.0,15.78862200002186,,,,,,,,,,,,,,,,,,,,,,,,,,,,,,,,sub-141,1.0,random_dot,60.02710824584518,
left,left,speed,,,,,0.0,0.0,0.0,1.0,13.0,1.0,27.0,0.0,192.45898200001105,,,,,,,,,192.44365500001004,192.5591539000161,193.3594099000329,193.3428860999993,193.34290180000244,193.3594099000329,193.3594099000329,193.3594099000329,194.51325700001323,left,1.0,16.247530499938875,,,,,,,,,,,,,,,,,,,,,,,,,,,,,,,,sub-141,1.0,random_dot,60.02710824584518,
right,right,speed,,,,,0.0,0.0,0.0,1.0,14.0,0.0,28.0,1.0,194.52547659998527,,,,,,,,,194.5138472000253,195.72564140002945,196.52598889998623,196.5096048000269,196.5096240999992,196.52598889998623,196.52598889998623,196.52598889998623,197.24321610003244,right,1.0,15.799400199961385,,,,,,,,,,,,,,,,,,,,,,,,,,,,,,,,sub-141,1.0,random_dot,60.02710824584518,
left,left,speed,,,,,0.0,0.0,0.0,1.0,14.0,1.0,29.0,0.0,197.2585824999842,,,,,,,,,197.24365170003148,198.05900609999665,198.859352200001,198.8425551999826,198.84256489999825,198.859352200001,198.859352200001,198.859352200001,199.8936122999876,right,0.0,16.11928560002707,,,,,,,,,,,,,,,,,,,,,,,,,,,,,,,,sub-141,1.0,random_dot,60.02710824584518,
left,left,speed,,,,,0.0,0.0,0.0,1.0,15.0,0.0,30.0,0.0,199.9089584000176,,,,,,,,,199.8941994999768,200.2584883000236,201.0592698000255,201.0427478000056,201.04276919999396,201.0592698000255,201.0592698000255,201.0592698000255,205.2929296999937,left,1.0,19.316485800023656,,,,,,,,,,,,,,,,,,,,,,,,,,,,,,,,sub-141,1.0,random_dot,60.02710824584518,
right,right,speed,,,,,0.0,0.0,0.0,1.0,15.0,1.0,31.0,1.0,205.30885590001708,,,,,,,,,205.2936681000283,205.40888489998176,206.20911029999843,206.1926736999885,206.19268909998937,206.20911029999843,206.20911029999843,206.20911029999843,206.9931908000144,right,1.0,15.87433040002361,,,,,,,,,,,,,,,,,,,,,,,,,,,,,,,,sub-141,1.0,random_dot,60.02710824584518,
right,right,speed,,,,,0.0,0.0,0.0,1.0,16.0,0.0,32.0,1.0,207.00875420001103,,,,,,,,,206.99364639999112,207.35849840001904,208.15893390000565,208.1420723000192,208.1420884000254,208.15893390000565,208.15893390000565,208.15893390000565,210.35975360003067,left,0.0,17.290732299967203,,,,,,,,,,,,,,,,,,,,,,,,,,,,,,,,sub-141,1.0,random_dot,60.02710824584518,
left,left,speed,,,,,0.0,0.0,0.0,1.0,16.0,1.0,33.0,0.0,210.3751408000244,,,,,,,,,210.36018720001448,211.17563240003076,211.97558440000284,211.95932500000345,211.9593487000093,211.97558440000284,211.97558440000284,211.97558440000284,213.54318989999592,left,1.0,16.64949699997669,,,,,,,,,,,,,,,,,,,,,,,,,,,,,,,,sub-141,1.0,random_dot,60.02710824584518,
right,right,speed,,,,,0.0,0.0,0.0,1.0,17.0,0.0,34.0,1.0,213.55866340000648,,,,,,,,,213.5437191000092,213.65855719998945,214.45914540003287,214.4431967000128,214.443213200022,214.45914540003287,214.45914540003287,214.45914540003287,215.35970580001597,right,1.0,15.990687899990007,,,,,,,,,,,,,,,,,,,,,,,,,,,,,,,,sub-141,1.0,random_dot,60.02710824584518,
left,left,speed,,,,,0.0,0.0,0.0,1.0,17.0,1.0,35.0,0.0,215.3754215000081,,,,,,,,,215.3601674999809,216.1752426000312,216.97562219999963,216.95952520001447,216.9595361999818,216.97562219999963,216.97562219999963,216.97562219999963,218.05963319999864,left,1.0,16.171855699969456,,,,,,,,,,,,,,,,,,,,,,,,,,,,,,,,sub-141,1.0,random_dot,60.02710824584518,
left,left,speed,,,,,0.0,0.0,0.0,1.0,18.0,0.0,36.0,0.0,218.07534949999533,,,,,,,,,218.06014220003271,218.17533479997653,218.9756471000146,218.9588884999976,218.95890010002768,218.9756471000146,218.9756471000146,218.9756471000146,219.6761814000201,left,1.0,15.784727499994917,,,,,,,,,,,,,,,,,,,,,,,,,,,,,,,,sub-141,1.0,random_dot,60.02710824584518,
right,right,speed,,,,,0.0,0.0,0.0,1.0,18.0,1.0,37.0,1.0,219.69205309997776,,,,,,,,,219.67680489999475,220.891781000013,221.69192439998733,221.67574680002872,221.67576050001665,221.69192439998733,221.69192439998733,221.69192439998733,222.39260249998188,right,1.0,15.782474700012244,,,,,,,,,,,,,,,,,,,,,,,,,,,,,,,,sub-141,1.0,random_dot,60.02710824584518,
right,right,speed,,,,,0.0,0.0,0.0,1.0,19.0,0.0,38.0,1.0,222.4084416999831,,,,,,,,,222.39305220003007,223.6082594000036,224.4086083000293,224.3917860999936,224.39180019998457,224.4086083000293,224.4086083000293,224.4086083000293,225.3094605000224,left,0.0,15.98457570001483,,,,,,,,,,,,,,,,,,,,,,,,,,,,,,,,sub-141,1.0,random_dot,60.02710824584518,
left,left,speed,,,,,0.0,0.0,0.0,1.0,19.0,1.0,39.0,0.0,225.32482530002017,,,,,,,,,225.31000310002128,225.42522069998083,226.225221300032,226.20902070001463,226.20903079997515,226.225221300032,226.225221300032,226.225221300032,227.09233339998173,left,1.0,15.9557102000108,,,,,,,,,,,,,,,,,,,,,,,,,,,,,,,,sub-141,1.0,random_dot,60.02710824584518,
right,right,speed,,,,,0.0,0.0,0.0,1.0,20.0,0.0,40.0,1.0,227.10819870000705,,,,,,,,,227.0928054000251,227.90789979998956,228.7085750999977,228.6916603000136,228.69167129998092,228.7085750999977,228.7085750999977,228.7085750999977,229.32568970002467,right,1.0,15.698741299973335,,,,,,,,,,,,,,,,,,,,,,,,,,,,,,,,sub-141,1.0,random_dot,60.02710824584518,
left,left,speed,,,,,0.0,0.0,0.0,1.0,20.0,1.0,41.0,0.0,229.34143380000023,,,,,,,,,229.3263410999789,230.1414332999848,230.94185840000864,230.9250930999988,230.92510450002737,230.94185840000864,230.94185840000864,230.94185840000864,232.9761009999784,left,1.0,17.124240100034513,,,,,,,,,,,,,,,,,,,,,,,,,,,,,,,,sub-141,1.0,random_dot,60.02710824584518,
left,left,speed,,,,,0.0,0.0,0.0,1.0,21.0,0.0,42.0,0.0,232.99148989998503,,,,,,,,,232.97662059997677,233.3415369000286,234.14168930001324,234.1254278999986,234.12544620002157,234.14168930001324,234.14168930001324,234.14168930001324,234.8258445999818,right,0.0,15.76824539998779,,,,,,,,,,,,,,,,,,,,,,,,,,,,,,,,sub-141,1.0,random_dot,60.02710824584518,
right,right,speed,,,,,0.0,0.0,0.0,1.0,21.0,1.0,43.0,1.0,234.8413371000206,,,,,,,,,234.82628360000672,236.04166789999,236.84191469999496,236.82524159998863,236.825256799988,236.84191469999496,236.84191469999496,236.84191469999496,237.7426585999783,right,1.0,15.986685299954845,,,,,,,,,,,,,,,,,,,,,,,,,,,,,,,,sub-141,1.0,random_dot,60.02710824584518,
left,left,speed,,,,,0.0,0.0,0.0,1.0,22.0,0.0,44.0,0.0,237.7580614999752,,,,,,,,,237.7434844999807,238.10793790000025,238.9084656999912,238.89161920000333,238.8916317999829,238.9084656999912,238.9084656999912,238.9084656999912,247.4588066000142,left,1.0,23.644326700014062,,,,,,,,,,,,,,,,,,,,,,,,,,,243.8916049000109,,,,,sub-141,1.0,random_dot,60.02710824584518,
right,right,speed,,,,,0.0,0.0,0.0,1.0,22.0,1.0,45.0,1.0,247.4744301000028,,,,,,,,,247.45939309999807,247.57443229999623,248.37497220002115,248.3579693000065,248.3579797000275,248.37497220002115,248.37497220002115,248.37497220002115,249.35886239999672,right,1.0,16.076028399984352,,,,,,,,,,,,,,,,,,,,,,,,,,,,,,,,sub-141,1.0,random_dot,60.02710824584518,
left,left,speed,,,,,0.0,0.0,0.0,1.0,23.0,0.0,46.0,0.0,249.3745511000161,,,,,,,,,249.35968749999304,249.4743475000141,250.27476000000024,250.25822110002628,250.2582349000149,250.27476000000024,250.27476000000024,250.27476000000024,250.92578370001863,left,1.0,15.743670600000767,,,,,,,,,,,,,,,,,,,,,,,,,,,,,,,,sub-141,1.0,random_dot,60.02710824584518,
right,right,speed,,,,,0.0,0.0,0.0,1.0,23.0,1.0,47.0,1.0,250.9410883000237,,,,,,,,,250.926231999998,251.7410456999787,252.541547300003,252.52469579997705,252.5247068000026,252.541547300003,252.541547300003,252.541547300003,253.40903239999895,right,1.0,15.958668700011913,,,,,,,,,,,,,,,,,,,,,,,,,,,,,,,,sub-141,1.0,random_dot,60.02710824584518,
right,right,speed,,,,,0.0,0.0,0.0,1.0,24.0,0.0,48.0,1.0,253.42443840001943,,,,,,,,,253.4094996000058,254.2243080000044,255.0248884999892,255.00800219998928,255.0080169999856,255.0248884999892,255.0248884999892,255.0248884999892,255.69223819999024,right,1.0,15.762266199977605,,,,,,,,,,,,,,,,,,,,,,,,,,,,,,,,sub-141,1.0,random_dot,60.02710824584518,
left,left,speed,,,,,0.0,0.0,0.0,1.0,24.0,1.0,49.0,0.0,255.7078142000246,,,,,,,,,255.69266609998888,256.057834599982,256.85817130003124,256.8414282000158,256.84144250000827,256.85817130003124,256.85817130003124,256.85817130003124,257.5753019999829,left,1.0,15.79838239995297,,,,,,,,,,,,,,,,,,,,,,,,,,,,,,,,sub-141,1.0,random_dot,60.02710824584518,
right,right,speed,,,,,0.0,0.0,0.0,1.0,25.0,0.0,50.0,1.0,257.5909537000116,,,,,,,,,257.57580150000285,258.390929199988,259.19143900001654,259.1746760000242,259.1746977000148,259.19143900001654,259.19143900001654,259.19143900001654,259.9587772000232,right,1.0,15.856211500009522,,,,,,,,,,,,,,,,,,,,,,,,,,,,,,,,sub-141,1.0,random_dot,60.02710824584518,
left,left,speed,,,,,0.0,0.0,0.0,1.0,25.0,1.0,51.0,0.0,259.97443880001083,,,,,,,,,259.95950499997707,260.07429309998406,260.87476289999904,260.8579398000147,260.85795370000415,260.87476289999904,260.87476289999904,260.87476289999904,263.40908910002327,right,0.0,17.62006939999992,,,,,,,,,,,,,,,,,,,,,,,,,,,,,,,,sub-141,1.0,random_dot,60.02710824584518,
left,left,speed,,,,,0.0,0.0,0.0,1.0,26.0,0.0,52.0,0.0,263.42442669998854,,,,,,,,,263.40954349999083,263.52444900001865,264.32497359998524,264.3082051000092,264.3082177999895,264.32497359998524,264.32497359998524,264.32497359998524,267.3255891000153,left,1.0,18.090193599986375,,,,,,,,,,,,,,,,,,,,,,,,,,,,,,,,sub-141,1.0,random_dot,60.02710824584518,
right,right,speed,,,,,0.0,0.0,0.0,1.0,26.0,1.0,53.0,1.0,267.3411969000008,,,,,,,,,267.3260541000054,268.54083389998414,269.3416266000131,269.32494249998126,269.3249581999844,269.3416266000131,269.3416266000131,269.3416266000131,270.09227279998595,right,1.0,15.830945199995767,,,,,,,,,,,,,,,,,,,,,,,,,,,,,,,,sub-141,1.0,random_dot,60.02710824584518,
left,left,speed,,,,,0.0,0.0,0.0,1.0,27.0,0.0,54.0,0.0,270.1076911999844,,,,,,,,,270.09277829999337,270.45768649998354,271.25781909999205,271.2411593000288,271.2411741000251,271.25781909999205,271.25781909999205,271.25781909999205,273.8920916999923,left,1.0,17.72364280000329,,,,,,,,,,,,,,,,,,,,,,,,,,,,,,,,sub-141,1.0,random_dot,60.02710824584518,
right,right,speed,,,,,0.0,0.0,0.0,1.0,27.0,1.0,55.0,1.0,273.9077754000318,,,,,,,,,273.8925403000321,274.2578157000244,275.05802360002417,275.0415194000234,275.0415376999881,275.05802360002417,275.05802360002417,275.05802360002417,275.75859969999874,right,1.0,15.792327899951488,,,,,,,,,,,,,,,,,,,,,,,,,,,,,,,,sub-141,1.0,random_dot,60.02710824584518,
right,right,speed,,,,,0.0,0.0,0.0,1.0,28.0,0.0,56.0,1.0,275.7743834999856,,,,,,,,,275.7590516000055,276.97411589999683,277.77439670002786,277.75834350002697,277.758362499997,277.77439670002786,277.77439670002786,277.77439670002786,278.54391710000345,right,1.0,15.864178799965885,,,,,,,,,,,,,,,,,,,,,,,,,,,,,,,,sub-141,1.0,random_dot,60.02710824584518,
left,left,speed,,,,,0.0,0.0,0.0,1.0,28.0,1.0,57.0,0.0,278.55766320001567,,,,,,,,,278.5444316000212,279.3576333000092,280.1578197000199,280.1412783000269,280.14129080000566,280.1578197000199,280.1578197000199,280.1578197000199,282.0755900000222,right,0.0,17.00878269999521,,,,,,,,,,,,,,,,,,,,,,,,,,,,,,,,sub-141,1.0,random_dot,60.02710824584518,
right,right,speed,,,,,0.0,0.0,0.0,1.0,29.0,0.0,58.0,1.0,282.0910375000094,,,,,,,,,282.0761122999829,282.89059199998155,283.6913119999808,283.6742122999858,283.6742219000007,283.6913119999808,283.6913119999808,283.6913119999808,284.5416452999925,right,1.0,15.932014199963303,,,,,,,,,,,,,,,,,,,,,,,,,,,,,,,,sub-141,1.0,random_dot,60.02710824584518,
left,left,speed,,,,,0.0,0.0,0.0,1.0,29.0,1.0,59.0,0.0,284.55709940003,,,,,,,,,284.5424794999999,284.90719629998785,285.7081270000199,285.6918698999798,285.691898900026,285.7081270000199,285.7081270000199,285.7081270000199,286.55901070003165,right,0.0,15.945186599972658,,,,,,,,,,,,,,,,,,,,,,,,,,,,,,,,sub-141,1.0,random_dot,60.02710824584518,
,,speed,,,,,0.0,0.0,0.0,1.0,,,,,,,,,,,,,,,,,,,,,,,,,,,,,,,,,,,,,,,,,,,,,,,,,,,,,,,,,sub-141,1.0,random_dot,60.02710824584518,
left,left,accuracy,,,,,0.0,1.0,1.0,0.0,0.0,0.0,0.0,0.0,300.94073889998253,,,,,,,,,300.9276328000124,302.12387050001416,302.92419819999486,302.9078588000266,302.9078695999924,302.92419819999486,302.92419819999486,302.92419819999486,305.4416052000015,right,0.0,17.602748599951155,,,,,,,,,,,,,,,,,,,,286.55951799999457,286.5740462000249,286.5740462000249,300.92439130001003,space,29.43945489998441,,,,,,,sub-141,1.0,random_dot,60.02710824584518,
right,right,accuracy,,,,,0.0,1.0,1.0,0.0,0.0,1.0,1.0,1.0,305.4573101000278,,,,,,,,,305.4423325000098,306.6573946999852,307.4572853000136,307.44096959999297,307.44098080002004,307.4572853000136,307.4572853000136,307.4572853000136,311.3912457000115,right,1.0,19.02853320003487,,,,,,,,,,,,,,,,,,,,,,,,,,,,,,,,sub-141,1.0,random_dot,60.02710824584518,
left,left,accuracy,,,,,0.0,1.0,1.0,0.0,1.0,0.0,2.0,0.0,311.4073818000033,,,,,,,,,311.39170450001257,312.207307500008,313.00722020003013,312.99074580002343,312.99075769999763,313.00722020003013,313.00722020003013,313.00722020003013,317.74148030002834,left,1.0,19.81878950004466,,,,,,,,,,,,,,,,,,,,,,,,,,,,,,,,sub-141,1.0,random_dot,60.02710824584518,
right,right,accuracy,,,,,0.0,1.0,1.0,0.0,1.0,1.0,3.0,1.0,317.7568531000288,,,,,,,,,317.7422512000194,318.95717960002366,319.7573596999864,319.7408161999774,319.74082960002124,319.7573596999864,319.7573596999864,319.7573596999864,325.5585298999795,left,0.0,20.88848089997191,,,,,,,,,,,,,,,,,,,,,,,,,,,324.7405616000178,,,,,sub-141,1.0,random_dot,60.02710824584518,
right,right,accuracy,,,,,0.0,1.0,1.0,0.0,2.0,0.0,4.0,1.0,325.5734389999998,,,,,,,,,325.55910539999604,326.7734520999948,327.57425280002644,327.5574580000248,327.5574709000066,327.57425280002644,327.57425280002644,327.57425280002644,328.70795120002003,right,1.0,16.22135889995843,,,,,,,,,,,,,,,,,,,,,,,,,,,,,,,,sub-141,1.0,random_dot,60.02710824584518,
left,left,accuracy,,,,,0.0,1.0,1.0,0.0,2.0,1.0,5.0,0.0,328.7236919000279,,,,,,,,,328.7083876000252,329.9235917000333,330.7241534999921,330.70717389998026,330.70718510000734,330.7241534999921,330.7241534999921,330.7241534999921,332.67492209997727,right,0.0,17.030927799991332,,,,,,,,,,,,,,,,,,,,,,,,,,,,,,,,sub-141,1.0,random_dot,60.02710824584518,
left,left,accuracy,,,,,0.0,1.0,1.0,0.0,3.0,0.0,6.0,0.0,332.6899443999864,,,,,,,,,332.675713500008,332.7904322000104,333.5908018000191,333.57402410003124,333.5740401999792,333.5908018000191,333.5908018000191,333.5908018000191,337.7244704000186,right,0.0,19.2185539000202,,,,,,,,,,,,,,,,,,,,,,,,,,,,,,,,sub-141,1.0,random_dot,60.02710824584518,
right,right,accuracy,,,,,0.0,1.0,1.0,0.0,3.0,1.0,7.0,1.0,337.740112999978,,,,,,,,,337.7249460000312,338.09021330002,338.8901939999778,338.8739834000007,338.8739938000217,338.8901939999778,338.8901939999778,338.8901939999778,340.7921109999879,right,1.0,16.99584390001837,,,,,,,,,,,,,,,,,,,,,,,,,,,,,,,,sub-141,1.0,random_dot,60.02710824584518,
right,right,accuracy,,,,,0.0,1.0,1.0,0.0,4.0,0.0,8.0,1.0,340.8066319000209,,,,,,,,,340.79275780002354,340.90638539998326,341.70678529998986,341.690603199997,341.6906225000276,341.70678529998986,341.70678529998986,341.70678529998986,345.3919365000329,right,1.0,18.780831399955787,,,,,,,,,,,,,,,,,,,,,,,,,,,,,,,,sub-141,1.0,random_dot,60.02710824584518,
left,left,accuracy,,,,,0.0,1.0,1.0,0.0,4.0,1.0,9.0,0.0,345.4067012000014,,,,,,,,,345.3924069000059,345.7567956999992,346.55693229998,346.5404638000182,346.54047940002056,346.55693229998,346.55693229998,346.55693229998,349.6573658999987,right,0.0,18.187201699998692,,,,,,,,,,,,,,,,,,,,,,,,,,,,,,,,sub-141,1.0,random_dot,60.02710824584518,
right,right,accuracy,,,,,0.0,1.0,1.0,0.0,5.0,0.0,10.0,1.0,349.67297369998414,,,,,,,,,349.65781840001,350.8733081999817,351.67364090000046,351.6570552000194,351.657068600005,351.67364090000046,351.67364090000046,351.67364090000046,355.5408064000076,right,1.0,18.960022900020704,,,,,,,,,,,,,,,,,,,,,,,,,,,,,,,,sub-141,1.0,random_dot,60.02710824584518,
left,left,accuracy,,,,,0.0,1.0,1.0,0.0,5.0,1.0,11.0,0.0,355.55635720002465,,,,,,,,,355.5412981000263,355.9066273000208,356.7068935999996,356.6900997000048,356.6901118999813,356.7068935999996,356.7068935999996,356.7068935999996,361.0068513000151,left,1.0,19.390426800004207,,,,,,,,,,,,,,,,,,,,,,,,,,,,,,,,sub-141,1.0,random_dot,60.02710824584518,
right,right,accuracy,,,,,0.0,1.0,1.0,0.0,6.0,0.0,12.0,1.0,361.02267229999416,,,,,,,,,361.0074592999881,362.2064129000064,363.0063039999805,362.9916793000302,362.9917100000312,363.0063039999805,363.0063039999805,363.0063039999805,364.2070548000047,right,1.0,16.288945899985265,,,,,,,,,,,,,,,,,,,,,,,,,,,,,,,,sub-141,1.0,random_dot,60.02710824584518,
left,left,accuracy,,,,,0.0,1.0,1.0,0.0,6.0,1.0,13.0,0.0,364.2226372000296,,,,,,,,,364.20780319999903,364.3228395999759,365.12363380001625,365.1067955000326,365.1068066000007,365.12363380001625,365.12363380001625,365.12363380001625,367.0906447999878,left,1.0,17.057798599998932,,,,,,,,,,,,,,,,,,,,,,,,,,,,,,,,sub-141,1.0,random_dot,60.02710824584518,
right,right,accuracy,,,,,0.0,1.0,1.0,0.0,7.0,0.0,14.0,1.0,367.106423899997,,,,,,,,,367.09109579998767,367.9061945999856,368.7067663000198,368.68992470001103,368.6899369999883,368.7067663000198,368.7067663000198,368.7067663000198,370.0404280999792,right,1.0,16.41869849996874,,,,,,,,,,,,,,,,,,,,,,,,,,,,,,,,sub-141,1.0,random_dot,60.02710824584518,
left,left,accuracy,,,,,0.0,1.0,1.0,0.0,7.0,1.0,15.0,0.0,370.0558595000184,,,,,,,,,370.0412683000322,371.256202700024,372.05625239998335,372.0396929000272,372.03970269998536,372.05625239998335,372.05625239998335,372.05625239998335,374.62377629999537,left,1.0,17.661191300023347,,,,,,,,,,,,,,,,,,,,,,,,,,,,,,,,sub-141,1.0,random_dot,60.02710824584518,
left,left,accuracy,,,,,0.0,1.0,1.0,0.0,8.0,0.0,16.0,0.0,374.63965540000936,,,,,,,,,374.62427520001074,374.98944119998487,375.79001779999817,375.77314140001545,375.7731524999836,375.79001779999817,375.79001779999817,375.79001779999817,379.9238963000244,left,1.0,19.223312199988868,,,,,,,,,,,,,,,,,,,,,,,,,,,,,,,,sub-141,1.0,random_dot,60.02710824584518,
right,right,accuracy,,,,,0.0,1.0,1.0,0.0,8.0,1.0,17.0,1.0,379.9394292000216,,,,,,,,,379.9244871999836,380.7392476000241,381.53966050001327,381.523343799985,381.5233537000022,381.53966050001327,381.53966050001327,381.53966050001327,386.023489299987,left,0.0,19.57363079994684,,,,,,,,,,,,,,,,,,,,,,,,,,,,,,,,sub-141,1.0,random_dot,60.02710824584518,
right,right,accuracy,,,,,0.0,1.0,1.0,0.0,9.0,0.0,18.0,1.0,386.0395080000162,,,,,,,,,386.0239478999865,386.139015200024,386.9396813000203,386.9232388000237,386.9232530000154,386.9396813000203,386.9396813000203,386.9396813000203,391.1563630999881,right,1.0,19.304223600018304,,,,,,,,,,,,,,,,,,,,,,,,,,,,,,,,sub-141,1.0,random_dot,60.02710824584518,
left,left,accuracy,,,,,0.0,1.0,1.0,0.0,9.0,1.0,19.0,0.0,391.1722198000061,,,,,,,,,391.1568026000168,391.27249399997527,392.073032299988,392.0560555999982,392.0560662000207,392.073032299988,392.073032299988,392.073032299988,394.57637740002247,left,1.0,17.597247199970298,,,,,,,,,,,,,,,,,,,,,,,,,,,,,,,,sub-141,1.0,random_dot,60.02710824584518,
right,right,accuracy,,,,,0.0,1.0,1.0,0.0,10.0,0.0,20.0,1.0,394.5890358000179,,,,,,,,,394.57709999999497,394.9390280999942,395.73967119999,395.7230086000054,395.7230193000287,395.73967119999,395.73967119999,395.73967119999,400.4731186000281,right,1.0,19.81853400002001,,,,,,,,,,,,,,,,,,,,,,,,,,,,,,,,sub-141,1.0,random_dot,60.02710824584518,
left,left,accuracy,,,,,0.0,1.0,1.0,0.0,10.0,1.0,21.0,0.0,400.4890981999925,,,,,,,,,400.4735596000101,400.58886740001617,401.3896140999859,401.3729229000164,401.3729402000317,401.3896140999859,401.3896140999859,401.3896140999859,405.1415340999956,right,0.0,18.84733279998181,,,,,,,,,,,,,,,,,,,,,,,,,,,,,,,,sub-141,1.0,random_dot,60.02710824584518,
right,right,accuracy,,,,,0.0,1.0,1.0,0.0,11.0,0.0,22.0,1.0,405.1557794000255,,,,,,,,,405.142034700024,405.5054958999972,406.3058941999916,406.2893114999752,406.2893233000068,406.3058941999916,406.3058941999916,406.3058941999916,411.8895510000293,left,0.0,20.678403900004923,,,,,,,,,,,,,,,,,,,,,,,,,,,411.2890833999845,,,,,sub-141,1.0,random_dot,60.02710824584518,
left,left,accuracy,,,,,0.0,1.0,1.0,0.0,11.0,1.0,23.0,0.0,411.9056641000207,,,,,,,,,411.8900009000208,411.9889415000216,412.7892398000113,412.7729059000267,412.7729222999769,412.7892398000113,412.7892398000113,412.7892398000113,416.856411100016,left,1.0,19.16060489998199,,,,,,,,,,,,,,,,,,,,,,,,,,,,,,,,sub-141,1.0,random_dot,60.02710824584518,
left,left,accuracy,,,,,0.0,1.0,1.0,0.0,12.0,0.0,24.0,0.0,416.87213839998,,,,,,,,,416.8568687000079,418.0553028000286,418.8560253999895,418.8395911999978,418.8396059999941,418.8560253999895,418.8560253999895,418.8560253999895,420.8065301000024,right,0.0,17.0383941999753,,,,,,,,,,,,,,,,,,,,,,,,,,,,,,,,sub-141,1.0,random_dot,60.02710824584518,
right,right,accuracy,,,,,0.0,1.0,1.0,0.0,12.0,1.0,25.0,1.0,420.8219625999918,,,,,,,,,420.8070258999942,421.62231790000806,422.4221174999839,422.4055230999948,422.40553940000245,422.4221174999839,422.4221174999839,422.4221174999839,425.80614970001625,right,1.0,18.476092800032347,,,,,,,,,,,,,,,,,,,,,,,,,,,,,,,,sub-141,1.0,random_dot,60.02710824584518,
left,left,accuracy,,,,,0.0,1.0,1.0,0.0,13.0,0.0,26.0,0.0,425.8219323999947,,,,,,,,,425.8069047000026,426.1718030999764,426.9721651999862,426.9552923000301,426.95530770003097,426.9721651999862,426.9721651999862,426.9721651999862,431.0559848999837,left,1.0,19.166714499995575,,,,,,,,,,,,,,,,,,,,,,,,,,,,,,,,sub-141,1.0,random_dot,60.02710824584518,
right,right,accuracy,,,,,0.0,1.0,1.0,0.0,13.0,1.0,27.0,1.0,431.0717047000071,,,,,,,,,431.0568955999916,432.2721472000121,433.0720755999792,433.0552616000059,433.0552746999893,433.0720755999792,433.0720755999792,433.0720755999792,437.3896402000101,right,1.0,19.405147499986924,,,,,,,,,,,,,,,,,,,,,,,,,,,,,,,,sub-141,1.0,random_dot,60.02710824584518,
left,left,accuracy,,,,,0.0,1.0,1.0,0.0,14.0,0.0,28.0,0.0,437.4047458000132,,,,,,,,,437.3904455000302,438.6048858999857,439.405116799986,439.38891899999,439.388929800014,439.405116799986,439.405116799986,439.405116799986,442.239244700002,right,0.0,17.923713099968154,,,,,,,,,,,,,,,,,,,,,,,,,,,,,,,,sub-141,1.0,random_dot,60.02710824584518,
right,right,accuracy,,,,,0.0,1.0,1.0,0.0,14.0,1.0,29.0,1.0,442.25502620002953,,,,,,,,,442.2398290000274,442.6048193000024,443.4052155999816,443.38856880000094,443.3886112000328,443.4052155999816,443.4052155999816,443.4052155999816,446.438997499994,right,1.0,18.12558409996564,,,,,,,,,,,,,,,,,,,,,,,,,,,,,,,,sub-141,1.0,random_dot,60.02710824584518,
left,left,accuracy,,,,,0.0,1.0,1.0,0.0,15.0,0.0,30.0,0.0,446.4546783000114,,,,,,,,,446.4397718000109,447.6551680000266,448.4551650999929,448.4383460999816,448.4383564000018,448.4551650999929,448.4551650999929,448.4551650999929,453.7563797999756,right,0.0,20.39562200004002,,,,,,,,,,,,,,,,,,,,,,,,,,,453.44083590002265,,,,,sub-141,1.0,random_dot,60.02710824584518,
right,right,accuracy,,,,,0.0,1.0,1.0,0.0,15.0,1.0,31.0,1.0,453.7717562000034,,,,,,,,,453.75692240003264,454.9718980999896,455.7722414000309,455.7555999000324,455.75561350001954,455.7722414000309,455.7722414000309,455.7722414000309,457.2391994000063,right,1.0,16.555612099997234,,,,,,,,,,,,,,,,,,,,,,,,,,,,,,,,sub-141,1.0,random_dot,60.02710824584518,
left,left,accuracy,,,,,0.0,1.0,1.0,0.0,16.0,0.0,32.0,0.0,457.2550864000223,,,,,,,,,457.2396405999898,457.6048022999894,458.4053662000224,458.389171399991,458.38918579998426,458.4053662000224,458.4053662000224,458.4053662000224,460.33897069998784,left,1.0,17.027526499994565,,,,,,,,,,,,,,,,,,,,,,,,,,,,,,,,sub-141,1.0,random_dot,60.02710824584518,
right,right,accuracy,,,,,0.0,1.0,1.0,0.0,16.0,1.0,33.0,1.0,460.3543894999893,,,,,,,,,460.33942470001057,461.1545805999776,461.95557619998,461.9387892999803,461.93881030002376,461.95557619998,461.95557619998,461.95557619998,467.3061370999785,right,1.0,20.44218730001012,,,,,,,,,,,,,,,,,,,,,,,,,,,466.9384744000272,,,,,sub-141,1.0,random_dot,60.02710824584518,
left,left,accuracy,,,,,0.0,1.0,1.0,0.0,17.0,0.0,34.0,0.0,467.3213921000133,,,,,,,,,467.3065740999882,467.42152899998473,468.2218803000287,468.2050862000324,468.20510130003095,468.2218803000287,468.2218803000287,468.2218803000287,469.9225740000256,left,1.0,16.789395299972966,,,,,,,,,,,,,,,,,,,,,,,,,,,,,,,,sub-141,1.0,random_dot,60.02710824584518,
right,right,accuracy,,,,,0.0,1.0,1.0,0.0,17.0,1.0,35.0,1.0,469.93808510003146,,,,,,,,,469.92301770002814,470.738026099978,471.5379436999792,471.5218926999951,471.5219054999761,471.5379436999792,471.5379436999792,471.5379436999792,475.08882040000753,right,1.0,18.63750999997137,,,,,,,,,,,,,,,,,,,,,,,,,,,,,,,,sub-141,1.0,random_dot,60.02710824584518,
left,left,accuracy,,,,,0.0,1.0,1.0,0.0,18.0,0.0,36.0,0.0,475.1046252999804,,,,,,,,,475.0893174000085,475.8879890000098,476.6883557999972,476.67170720000286,476.6717244000174,476.6883557999972,476.6883557999972,476.6883557999972,479.6390390000306,left,1.0,18.036074300005566,,,,,,,,,,,,,,,,,,,,,,,,,,,,,,,,sub-141,1.0,random_dot,60.02710824584518,
right,right,accuracy,,,,,0.0,1.0,1.0,0.0,18.0,1.0,37.0,1.0,479.6546194999828,,,,,,,,,479.6394661000231,480.00453460001154,480.8049548999989,480.7884695000248,480.7884857000317,480.8049548999989,480.8049548999989,480.8049548999989,482.3718431000016,right,1.0,16.66176919999998,,,,,,,,,,,,,,,,,,,,,,,,,,,,,,,,sub-141,1.0,random_dot,60.02710824584518,
left,left,accuracy,,,,,0.0,1.0,1.0,0.0,19.0,0.0,38.0,0.0,482.38781560002826,,,,,,,,,482.374039700022,482.4874651000137,483.2877225999837,483.271213,483.2712266999879,483.2877225999837,483.2877225999837,483.2877225999837,485.6717419999768,left,1.0,17.47545910003828,,,,,,,,,,,,,,,,,,,,,,,,,,,,,,,,sub-141,1.0,random_dot,60.02710824584518,
right,right,accuracy,,,,,0.0,1.0,1.0,0.0,19.0,1.0,39.0,1.0,485.68752939999104,,,,,,,,,485.6724369000294,486.02121049998095,486.8215692000231,486.8051083000028,486.8051265000249,486.8215692000231,486.8215692000231,486.8215692000231,489.97230419999687,right,1.0,18.243402699998114,,,,,,,,,,,,,,,,,,,,,,,,,,,,,,,,sub-141,1.0,random_dot,60.02710824584518,
left,left,accuracy,,,,,0.0,1.0,1.0,0.0,20.0,0.0,40.0,0.0,489.98775460000616,,,,,,,,,489.9729335000157,490.3378958000103,491.1382359000272,491.12163820001297,491.1216530000093,491.1382359000272,491.1382359000272,491.1382359000272,492.3718994000228,left,1.0,16.323998900013976,,,,,,,,,,,,,,,,,,,,,,,,,,,,,,,,sub-141,1.0,random_dot,60.02710824584518,
right,right,accuracy,,,,,0.0,1.0,1.0,0.0,20.0,1.0,41.0,1.0,492.3878878999967,,,,,,,,,492.3723568000132,492.7376486000139,493.5380455999984,493.5212386000203,493.52124849997927,493.5380455999984,493.5380455999984,493.5380455999984,496.88893670000834,right,1.0,18.4407319999882,,,,,,,,,,,,,,,,,,,,,,,,,,,,,,,,sub-141,1.0,random_dot,60.02710824584518,
right,right,accuracy,,,,,0.0,1.0,1.0,0.0,21.0,0.0,42.0,1.0,496.9044910999946,,,,,,,,,496.8894618999912,498.10412610002095,498.9045353999827,498.8882301999838,498.8882427000208,498.9045353999827,498.9045353999827,498.9045353999827,502.0221881000325,right,1.0,18.204115099972118,,,,,,,,,,,,,,,,,,,,,,,,,,,,,,,,sub-141,1.0,random_dot,60.02710824584518,
left,left,accuracy,,,,,0.0,1.0,1.0,0.0,21.0,1.0,43.0,0.0,502.0377114000148,,,,,,,,,502.0226448000176,502.3875523000024,503.18786360003287,503.1713508000248,503.1713620999944,503.18786360003287,503.18786360003287,503.18786360003287,504.9053704999969,right,0.0,16.80087579996325,,,,,,,,,,,,,,,,,,,,,,,,,,,,,,,,sub-141,1.0,random_dot,60.02710824584518,
right,right,accuracy,,,,,0.0,1.0,1.0,0.0,22.0,0.0,44.0,1.0,504.9207863999764,,,,,,,,,504.9058518999954,506.1207788999891,506.9212574000121,506.9046849000151,506.9046961999848,506.9212574000121,506.9212574000121,506.9212574000121,510.7713577999966,right,1.0,18.931755000026897,,,,,,,,,,,,,,,,,,,,,,,,,,,,,,,,sub-141,1.0,random_dot,60.02710824584518,
left,left,accuracy,,,,,0.0,1.0,1.0,0.0,22.0,1.0,45.0,0.0,510.7873533000238,,,,,,,,,510.77182909997646,511.120511199988,511.9212522000307,511.9048166000284,511.9048330999794,511.9212522000307,511.9212522000307,511.9212522000307,514.538433699985,right,0.0,17.71024290000787,,,,,,,,,,,,,,,,,,,,,,,,,,,,,,,,sub-141,1.0,random_dot,60.02710824584518,
right,right,accuracy,,,,,0.0,1.0,1.0,0.0,23.0,0.0,46.0,1.0,514.5537352000247,,,,,,,,,514.5389141999767,515.3541549000074,516.1541100000031,516.1373193000327,516.137332400016,516.1541100000031,516.1541100000031,516.1541100000031,518.3397030999768,right,1.0,17.280069299973547,,,,,,,,,,,,,,,,,,,,,,,,,,,,,,,,sub-141,1.0,random_dot,60.02710824584518,
left,left,accuracy,,,,,0.0,1.0,1.0,0.0,23.0,1.0,47.0,0.0,518.3541200999753,,,,,,,,,518.3401369000203,518.4539844000246,519.2543334999937,519.238021600002,519.2380377000081,519.2543334999937,519.2543334999937,519.2543334999937,522.3052614000044,left,1.0,18.140735399967525,,,,,,,,,,,,,,,,,,,,,,,,,,,,,,,,sub-141,1.0,random_dot,60.02710824584518,
left,left,accuracy,,,,,0.0,1.0,1.0,0.0,24.0,0.0,48.0,0.0,522.3203982000123,,,,,,,,,522.3058017999865,522.4203199000331,523.2210720999865,523.2044590000296,523.2044720000122,523.2210720999865,523.2210720999865,523.2210720999865,528.5049315000069,left,1.0,20.374067400000055,,,,,,,,,,,,,,,,,,,,,,,,,,,528.2041506000096,,,,,sub-141,1.0,random_dot,60.02710824584518,
right,right,accuracy,,,,,0.0,1.0,1.0,0.0,24.0,1.0,49.0,1.0,528.520429700031,,,,,,,,,528.5053785999771,529.7203948000097,530.5208090000087,530.5045273000142,530.5045433000196,530.5208090000087,530.5208090000087,530.5208090000087,531.8544779000222,right,1.0,16.421661200001836,,,,,,,,,,,,,,,,,,,,,,,,,,,,,,,,sub-141,1.0,random_dot,60.02710824584518,
right,right,accuracy,,,,,0.0,1.0,1.0,0.0,25.0,0.0,50.0,1.0,531.8702488000272,,,,,,,,,531.8550402999972,533.0702482999768,533.870419999992,533.8536089999834,533.853620000009,533.870419999992,533.870419999992,533.870419999992,537.9226158999954,right,1.0,19.14672589994734,,,,,,,,,,,,,,,,,,,,,,,,,,,,,,,,sub-141,1.0,random_dot,60.02710824584518,
left,left,accuracy,,,,,0.0,1.0,1.0,0.0,25.0,1.0,51.0,0.0,537.9365879999823,,,,,,,,,537.9234481999883,539.1367700999836,539.9374700000044,539.9203280999791,539.9203397000092,539.9374700000044,539.9374700000044,539.9374700000044,545.3213453000062,left,1.0,20.470158299955077,,,,,,,,,,,,,,,,,,,,,,,,,,,544.9201156999916,,,,,sub-141,1.0,random_dot,60.02710824584518,
left,left,accuracy,,,,,0.0,1.0,1.0,0.0,26.0,0.0,52.0,0.0,545.3366632999969,,,,,,,,,545.3217911000247,545.4366154000163,546.2372050000122,546.2206906999927,546.2207003000076,546.2372050000122,546.2372050000122,546.2372050000122,549.8379802000127,left,1.0,18.68724929995369,,,,,,,,,,,,,,,,,,,,,,,,,,,,,,,,sub-141,1.0,random_dot,60.02710824584518,
right,right,accuracy,,,,,0.0,1.0,1.0,0.0,26.0,1.0,53.0,1.0,549.853467900015,,,,,,,,,549.8384442999959,550.653423300013,551.4540003000293,551.4373376999865,551.4373514000326,551.4540003000293,551.4540003000293,551.4540003000293,554.9396232999861,right,1.0,18.58072939998237,,,,,,,,,,,,,,,,,,,,,,,,,,,,,,,,sub-141,1.0,random_dot,60.02710824584518,
right,right,accuracy,,,,,0.0,1.0,1.0,0.0,27.0,0.0,54.0,1.0,554.9534472000087,,,,,,,,,554.9400716000237,555.3035465999856,556.103703700006,556.0870351999765,556.0870536000002,556.103703700006,556.103703700006,556.103703700006,559.7221502999892,right,1.0,18.714146100042854,,,,,,,,,,,,,,,,,,,,,,,,,,,,,,,,sub-141,1.0,random_dot,60.02710824584518,
left,left,accuracy,,,,,0.0,1.0,1.0,0.0,27.0,1.0,55.0,0.0,559.7368915000116,,,,,,,,,559.7225966000115,559.8367832999793,560.6372043000301,560.6206373000168,560.6206472999766,560.6372043000301,560.6372043000301,560.6372043000301,562.187914900016,left,1.0,16.64185010001529,,,,,,,,,,,,,,,,,,,,,,,,,,,,,,,,sub-141,1.0,random_dot,60.02710824584518,
right,right,accuracy,,,,,0.0,1.0,1.0,0.0,28.0,0.0,56.0,1.0,562.2032938000048,,,,,,,,,562.1883675000281,563.0028751000063,563.8036920999875,563.7870683000074,563.7870848000166,563.8036920999875,563.8036920999875,563.8036920999875,568.0875121999998,left,0.0,19.377065900014717,,,,,,,,,,,,,,,,,,,,,,,,,,,,,,,,sub-141,1.0,random_dot,60.02710824584518,
left,left,accuracy,,,,,0.0,1.0,1.0,0.0,28.0,1.0,57.0,0.0,568.1032372000045,,,,,,,,,568.0879695999902,568.4533268000232,569.2537128999829,569.2370945999864,569.2371075000265,569.2537128999829,569.2537128999829,569.2537128999829,572.7563319000183,left,1.0,18.59734949999256,,,,,,,,,,,,,,,,,,,,,,,,,,,,,,,,sub-141,1.0,random_dot,60.02710824584518,
right,right,accuracy,,,,,0.0,1.0,1.0,0.0,29.0,0.0,58.0,1.0,572.7699067000067,,,,,,,,,572.7567793999915,573.1197563000023,573.9201953000156,573.9037801999948,573.9037986000185,573.9201953000156,573.9201953000156,573.9201953000156,576.5877498000045,left,0.0,17.75516790000256,,,,,,,,,,,,,,,,,,,,,,,,,,,,,,,,sub-141,1.0,random_dot,60.02710824584518,
left,left,accuracy,,,,,0.0,1.0,1.0,0.0,29.0,1.0,59.0,0.0,576.6032819999964,,,,,,,,,576.5882566000219,577.8030700000236,578.6034639999853,578.5872139999992,578.5872269999818,578.6034639999853,578.6034639999853,578.6034639999853,582.6370258000097,right,0.0,19.116270899947267,,,,,,,,,,,,,,,,,,,,,,,,,,,,,,,,sub-141,1.0,random_dot,60.02710824584518,
,,accuracy,,,,,0.0,1.0,1.0,0.0,,,,,,,,,,,,,,,,,,,,,,,,,,,,,,,,,,,,,,,,,,,,,,,,,,,,,,,,,sub-141,1.0,random_dot,60.02710824584518,
,,,,,,,,,,,,,,,,,,,,,,,,,,,,,,,,,,,,,,,,,,,,,,,,,,,,,,,,,,,,,,,582.6373819999862,582.6530396000016,587.6531227999949,587.6367589000147,sub-141,,,,
