direction,corrAns,randomInstr,practice_trials.thisRepN,practice_trials.thisTrialN,practice_trials.thisN,practice_trials.thisIndex,instr_trials.thisRepN,instr_trials.thisTrialN,instr_trials.thisN,instr_trials.thisIndex,test_trials.thisRepN,test_trials.thisTrialN,test_trials.thisN,test_trials.thisIndex,thisRow.t,notes,general_instruction.started,textGeneralInstr.started,respGeneralInstr.started,general_instruction.stopped,respGeneralInstr.keys,respGeneralInstr.rt,respGeneralInstr.duration,ITI.started,fixcross.started,fixcross.stopped,ITI.stopped,dots.started,backgroundDots.started,stimulusDots.started,respDots.started,dots.stopped,respDots.keys,respDots.corr,respDots.rt,respDots.duration,feedback.started,textFeedback.started,feedback.stopped,textFeedback.stopped,info.started,textInfo.started,keyRespInfo.started,info.stopped,keyRespInfo.keys,keyRespInfo.rt,keyRespInfo.duration,test_instruction.started,textTestInstr.started,respTestInstr.started,test_instruction.stopped,respTestInstr.keys,respTestInstr.rt,respTestInstr.duration,random_instruction.started,textRandomInstr.started,respRandomInstr.started,random_instruction.stopped,respRandomInstr.keys,respRandomInstr.rt,respRandomInstr.duration,goodbye.started,textGoodbye.started,goodbye.stopped,participant,session,expName,frameRate,Unnamed: 72
,,,,,,,,,,,,,,,,,0.0030521000007865,0.0068032000126549,0.0068032000126549,3.7723071000073114,space,17.08189289997972,,,,,,,,,,,,,,,,,,,,,,,,,,,,,,,,,,,,,,,,,,,sub-064,1.0,random_dot,60.04019090228104,
right,right,,0.0,0.0,0.0,1.0,,,,,,,,,3.798657300008927,,,,,,,,,3.7925016000081087,4.135763400001451,4.944578599999659,4.919680900013191,4.919735800009221,4.944578599999659,4.944578599999659,4.944578599999659,6.503593000001274,right,1.0,14.869982299991534,,6.505611800006591,6.531571600004099,7.016920900001423,,,,,,,,,,,,,,,,,,,,,,,,,,sub-064,1.0,random_dot,60.04019090228104,
left,left,,0.0,1.0,1.0,0.0,,,,,,,,,7.032959000003757,,,,,,,,,7.018243900005473,7.116302700000233,7.916475600010017,7.900758800009498,7.900827300007222,7.916475600010017,7.916475600010017,7.916475600010017,8.817129800008843,left,1.0,14.211945399991237,,8.818257200007793,8.83128480000596,9.315240900003118,9.330804299999729,,,,,,,,,,,,,,,,,,,,,,,,,sub-064,1.0,random_dot,60.04019090228104,
left,left,,1.0,0.0,2.0,0.0,,,,,,,,,9.330804299999729,,,,,,,,,9.31604530000186,9.68055400000594,10.48034710000502,10.464940400008343,10.464999800009537,10.48034710000502,10.48034710000502,10.48034710000502,10.78388800000539,right,0.0,13.617850499984344,,10.785717900012967,10.800850700004958,11.296138500008963,,,,,,,,,,,,,,,,,,,,,,,,,,sub-064,1.0,random_dot,60.04019090228104,
right,right,,1.0,1.0,3.0,1.0,,,,,,,,,11.312506500005838,,,,,,,,,11.297451900012677,12.49455110001145,13.294221200005268,13.279066400005831,13.27913890000491,13.294221200005268,13.294221200005268,13.294221200005268,14.046129900001688,right,1.0,14.067786199986584,,14.047464100003708,14.061745700004394,14.559419100012748,,,,,,,,,,,,,,,,,,,,,,,,,,sub-064,1.0,random_dot,60.04019090228104,
right,right,,2.0,0.0,4.0,1.0,,,,,,,,,14.57577590001165,,,,,,,,,14.560370999999575,14.659316200006288,15.45884940000542,15.443263700013633,15.443316900011268,15.45884940000542,15.45884940000542,15.45884940000542,16.227301900013117,right,1.0,14.07037559998571,,16.228652100006002,16.240760100001353,16.72521270001016,16.740534300013678,,,,,,,,,,,,,,,,,,,,,,,,,sub-064,1.0,random_dot,60.04019090228104,
left,left,,2.0,1.0,5.0,0.0,,,,,,,,,16.740534300013678,,,,,,,,,16.72619100000884,17.939468800002942,18.739248300000327,18.72335000000021,18.723401700000977,18.739248300000327,18.739248300000327,18.739248300000327,20.306808600013028,right,0.0,14.869277199992212,,20.30805630001123,20.320692200009944,20.80460230000608,20.81980400001339,,,,,,,,,,,,,,,,,,,,,,,,,sub-064,1.0,random_dot,60.04019090228104,
left,left,,3.0,0.0,6.0,0.0,,,,,,,,,20.81980400001339,,,,,,,,,20.80550800000492,21.61959940000088,22.435602300000028,22.419560700000147,22.41960390000895,22.435602300000028,22.435602300000028,22.435602300000028,23.40317550000327,left,1.0,14.269664099992951,,23.40420850001101,23.417659800004916,23.901982600000338,23.917056000005687,,,,,,,,,,,,,,,,,,,,,,,,,sub-064,1.0,random_dot,60.04019090228104,
right,right,,3.0,1.0,7.0,1.0,,,,,,,,,23.917056000005687,,,,,,,,,23.90298120000807,24.01699930000177,24.816752200000337,24.80107990000397,24.801132800013875,24.816752200000337,24.816752200000337,24.816752200000337,25.33550150001247,left,0.0,13.825211899980786,,25.336838300005184,25.351049300006707,25.849025100003928,,,,,,,,,,,,,,,,,,,,,,,,,,sub-064,1.0,random_dot,60.04019090228104,
right,right,,4.0,0.0,8.0,1.0,,,,,,,,,25.865182800000184,,,,,,,,,25.850016100012,26.64786140000797,27.44785790001333,27.432198599999538,27.432252500002505,27.44785790001333,27.44785790001333,27.44785790001333,27.483540100001846,left,0.0,13.351900799985742,,27.484926000004634,27.4970478000032,27.981759400005103,27.997074700004305,,,,,,,,,,,,,,,,,,,,,,,,,sub-064,1.0,random_dot,60.04019090228104,
left,left,,4.0,1.0,9.0,0.0,,,,,,,,,27.997074700004305,,,,,,,,,27.982703700006823,28.346398000008776,29.14612420000776,29.130755000005596,29.13080830000399,29.14612420000776,29.14612420000776,29.14612420000776,29.197714000009,left,1.0,13.363177999985057,,29.198664800002007,29.21184760000324,29.696081500005675,29.71154930000193,,,,,,,,,,,,,,,,,,,,,,,,,sub-064,1.0,random_dot,60.04019090228104,
left,left,,5.0,0.0,10.0,0.0,,,,,,,,,29.71154930000193,,,,,,,,,29.69696100000874,30.061482100005374,30.86095000000205,30.84495980000065,30.8450034000125,30.86095000000205,30.86095000000205,30.86095000000205,30.89660990000993,left,1.0,13.344615999987582,,30.898275600004126,30.91065050000907,31.39407960000972,31.409850600000937,,,,,,,,,,,,,,,,,,,,,,,,,sub-064,1.0,random_dot,60.04019090228104,
right,right,,5.0,1.0,11.0,1.0,,,,,,,,,31.409850600000937,,,,,,,,,31.39468170001055,32.60883370001102,33.4085819000029,33.39296080000349,33.39302840000892,33.4085819000029,33.4085819000029,33.4085819000029,33.478203800012125,right,1.0,13.377124199992975,,33.47959580000315,33.49160930000653,33.97596300000441,33.99093400000129,,,,,,,,,,,,,,,,,,,,,,,,,sub-064,1.0,random_dot,60.04019090228104,
left,left,,6.0,0.0,12.0,0.0,,,,,,,,,33.99093400000129,,,,,,,,,33.97694240001147,34.340584600009606,35.140421500007506,35.12478230000124,35.12483550001343,35.140421500007506,35.140421500007506,35.140421500007506,35.17662550001114,right,0.0,13.346409599980689,,35.17795130000741,35.19422510000004,35.68983490001119,,,,,,,,,,,,,,,,,,,,,,,,,,sub-064,1.0,random_dot,60.04019090228104,
right,right,,6.0,1.0,13.0,1.0,,,,,,,,,35.70603440000559,,,,,,,,,35.690866800010554,35.789517100012745,36.60562890001165,36.59003880000091,36.590091000005486,36.60562890001165,36.60562890001165,36.60562890001165,36.6583748000121,left,0.0,13.35543839998718,,36.6597974000033,36.67195970000466,37.15635150000162,37.17142060000333,,,,,,,,,,,,,,,,,,,,,,,,,sub-064,1.0,random_dot,60.04019090228104,
right,right,,7.0,0.0,14.0,1.0,,,,,,,,,37.17142060000333,,,,,,,,,37.15739050001139,37.27137640000728,38.071052500003134,38.05589380000311,38.05594610000844,38.071052500003134,38.071052500003134,38.071052500003134,38.09039970001322,left,0.0,13.335688899998786,,38.09178210000391,38.10371060000034,38.588422400003765,38.6035014000081,,,,,,,,,,,,,,,,,,,,,,,,,sub-064,1.0,random_dot,60.04019090228104,
left,left,,7.0,1.0,15.0,0.0,,,,,,,,,38.6035014000081,,,,,,,,,38.58940560001065,38.952767300012056,39.75281860001269,39.7373210000078,39.73737530001381,39.75281860001269,39.75281860001269,39.75281860001269,40.00520630000392,right,0.0,13.5666271999944,,40.00663460000942,40.01869010001246,40.50326700000733,40.51808340000571,,,,,,,,,,,,,,,,,,,,,,,,,sub-064,1.0,random_dot,60.04019090228104,
right,right,,8.0,0.0,16.0,1.0,,,,,,,,,40.51808340000571,,,,,,,,,40.50421710000956,41.71717030000582,42.51672050000343,42.50097750000714,42.50102490000427,42.51672050000343,42.51672050000343,42.51672050000343,42.55252080000355,left,0.0,13.34426519999397,,42.55372550000902,42.56639850001375,43.05063120000705,43.06584720000683,,,,,,,,,,,,,,,,,,,,,,,,,sub-064,1.0,random_dot,60.04019090228104,
left,left,,8.0,1.0,17.0,0.0,,,,,,,,,43.06584720000683,,,,,,,,,43.05151430000842,43.16586740000639,43.96558250000817,43.94980790000409,43.94985580000503,43.96558250000817,43.96558250000817,43.96558250000817,44.001013600005535,right,0.0,13.34010999997554,,44.00286560000677,44.01495180001075,44.49937020000653,44.51442370000586,,,,,,,,,,,,,,,,,,,,,,,,,sub-064,1.0,random_dot,60.04019090228104,
right,right,,9.0,0.0,18.0,1.0,,,,,,,,,44.51442370000586,,,,,,,,,44.50024820001272,45.7133196000068,46.513112500004354,46.49726390000433,46.49731160000374,46.513112500004354,46.513112500004354,46.513112500004354,46.68259100000432,left,0.0,13.486978199987789,,46.68377660000988,46.69592080000439,47.17997810000088,47.19536060000246,,,,,,,,,,,,,,,,,,,,,,,,,sub-064,1.0,random_dot,60.04019090228104,
left,left,,9.0,1.0,19.0,0.0,,,,,,,,,47.19536060000246,,,,,,,,,47.180890800009365,47.99448960000882,48.79438460001256,48.77879520000715,48.77884270000504,48.79438460001256,48.79438460001256,48.79438460001256,49.36302470001101,right,0.0,13.871886799985075,,49.36422520001361,49.3764419000072,49.86082330001227,49.87631210000836,,,,,,,,,,,,,,,,,,,,,,,,,sub-064,1.0,random_dot,60.04019090228104,
,,,,,,,,,,,,,,,,,,,,,,,,,,,,,,,,,,,,,,,,,49.86096180000459,49.87631210000836,49.87631210000836,52.809026900009485,space,16.240344499994535,,,,,,,,,,,,,,,,,,,sub-064,1.0,random_dot,60.04019090228104,
,,,,,,,,,,,,,,,,,,,,,,,,,,,,,,,,,,,,,,,,,,,,,,,,52.80910890000814,52.82352260001062,52.82352260001062,56.73886000001221,space,17.224122999992687,,,,,,,,,,,,sub-064,1.0,random_dot,60.04019090228104,
left,left,speed,,,,,0.0,0.0,0.0,1.0,0.0,0.0,0.0,0.0,59.72468110000773,,,,,,,,,59.72119330000714,59.81711860001087,60.616347200004384,60.60128180000174,60.6013418000075,60.616347200004384,60.616347200004384,60.616347200004384,61.36866230001033,left,1.0,14.057729899999686,,,,,,,,,,,,,,,,,,,,56.748144299999694,56.77455460000783,56.77455460000783,59.70301320000726,space,16.244036399992183,,,,,sub-064,1.0,random_dot,60.04019090228104,
right,right,speed,,,,,0.0,0.0,0.0,1.0,0.0,1.0,1.0,1.0,61.38241010000638,,,,,,,,,61.37216690000787,62.18140690001019,62.98128970000835,62.96532250000746,62.96537680001347,62.98128970000835,62.98128970000835,62.98128970000835,63.40010150001035,left,0.0,13.736061099989456,,,,,,,,,,,,,,,,,,,,,,,,,,,,,,sub-064,1.0,random_dot,60.04019090228104,
right,right,speed,,,,,0.0,0.0,0.0,1.0,1.0,0.0,2.0,1.0,63.4134100000083,,,,,,,,,63.40284990001237,64.21300360000168,65.01240440001129,64.99723510000331,64.9972875000094,65.01240440001129,65.01240440001129,65.01240440001129,65.38125299999956,right,1.0,13.671702899984666,,,,,,,,,,,,,,,,,,,,,,,,,,,,,,sub-064,1.0,random_dot,60.04019090228104,
left,left,speed,,,,,0.0,0.0,0.0,1.0,1.0,1.0,3.0,0.0,65.39483050000854,,,,,,,,,65.38386240000546,66.59372990000702,67.3934913000121,67.37800060000154,67.37805440000375,67.3934913000121,67.3934913000121,67.3934913000121,67.89586140000029,right,0.0,13.806005299979006,,,,,,,,,,,,,,,,,,,,,,,,,,,,,,sub-064,1.0,random_dot,60.04019090228104,
right,right,speed,,,,,0.0,0.0,0.0,1.0,2.0,0.0,4.0,1.0,67.90942880000512,,,,,,,,,67.89864300000772,68.00945860000502,68.80922439999995,68.79331160000584,68.79336470000271,68.80922439999995,68.80922439999995,68.80922439999995,69.22747990000062,left,0.0,13.724894499988295,,,,,,,,,,,,,,,,,,,,,,,,,,,,,,sub-064,1.0,random_dot,60.04019090228104,
left,left,speed,,,,,0.0,0.0,0.0,1.0,2.0,1.0,5.0,0.0,69.24127390001377,,,,,,,,,69.22942370000237,70.04108460000134,70.84128250001231,70.82549360000121,70.8255635000096,70.84128250001231,70.84128250001231,70.84128250001231,71.14342520000355,right,0.0,13.614118099983898,,,,,,,,,,,,,,,,,,,,,,,,,,,,,,sub-064,1.0,random_dot,60.04019090228104,
left,left,speed,,,,,0.0,0.0,0.0,1.0,3.0,0.0,6.0,0.0,71.1567047000135,,,,,,,,,71.14615990000311,71.5065186000138,72.30662909999955,72.29086220001045,72.29091750000953,72.30662909999955,72.30662909999955,72.30662909999955,72.6914267000102,left,1.0,13.697425299993483,,,,,,,,,,,,,,,,,,,,,,,,,,,,,,sub-064,1.0,random_dot,60.04019090228104,
right,right,speed,,,,,0.0,0.0,0.0,1.0,3.0,1.0,7.0,1.0,72.70472210001026,,,,,,,,,72.69409370000358,73.50435290001042,74.30376260000048,74.28820790001191,74.28826000000117,74.30376260000048,74.30376260000048,74.30376260000048,75.0058299000084,right,1.0,14.010573099993051,,,,,,,,,,,,,,,,,,,,,,,,,,,,,,sub-064,1.0,random_dot,60.04019090228104,
right,right,speed,,,,,0.0,0.0,0.0,1.0,4.0,0.0,8.0,1.0,75.01948290001019,,,,,,,,,75.00862920000509,75.81874580000294,76.61825650000537,76.60282240000379,76.60288109999965,76.61825650000537,76.61825650000537,76.61825650000537,77.48684850000427,right,1.0,14.184674399992218,,,,,,,,,,,,,,,,,,,,,,,,,,,,,,sub-064,1.0,random_dot,60.04019090228104,
left,left,speed,,,,,0.0,0.0,0.0,1.0,4.0,1.0,9.0,0.0,77.50070270001015,,,,,,,,,77.48961129999952,77.60025190000306,78.40016440000909,78.38410210001166,78.38415800000075,78.40016440000909,78.40016440000909,78.40016440000909,79.16852210000798,left,1.0,14.077430399993318,,,,,,,,,,,,,,,,,,,,,,,,,,,,,,sub-064,1.0,random_dot,60.04019090228104,
left,left,speed,,,,,0.0,0.0,0.0,1.0,5.0,0.0,10.0,0.0,79.1822220000031,,,,,,,,,79.17119500000263,79.53181600000244,80.33147550000285,80.31581900001038,80.31587380000565,80.33147550000285,80.33147550000285,80.33147550000285,80.91679149999982,right,0.0,13.887097999991964,,,,,,,,,,,,,,,,,,,,,,,,,,,,,,sub-064,1.0,random_dot,60.04019090228104,
right,right,speed,,,,,0.0,0.0,0.0,1.0,5.0,1.0,11.0,1.0,80.93030200000794,,,,,,,,,80.91944340000919,81.72985120001249,82.54617650000728,82.53079280001111,82.53088190000562,82.54617650000728,82.54617650000728,82.54617650000728,82.86474030000682,left,0.0,13.634599399985746,,,,,,,,,,,,,,,,,,,,,,,,,,,,,,sub-064,1.0,random_dot,60.04019090228104,
left,left,speed,,,,,0.0,0.0,0.0,1.0,6.0,0.0,12.0,0.0,82.8787747000024,,,,,,,,,82.86712120000448,84.0776928000123,84.89360390001093,84.8776147000026,84.87767700001132,84.89360390001093,84.89360390001093,84.89360390001093,85.41233470001316,left,1.0,13.828172899986384,,,,,,,,,,,,,,,,,,,,,,,,,,,,,,sub-064,1.0,random_dot,60.04019090228104,
right,right,speed,,,,,0.0,0.0,0.0,1.0,6.0,1.0,13.0,1.0,85.42626710000332,,,,,,,,,85.41449330000614,85.52595049999945,86.32603390001168,86.31036450000829,86.31043280000449,86.32603390001168,86.32603390001168,86.32603390001168,86.89473230000294,right,1.0,13.882754899997964,,,,,,,,,,,,,,,,,,,,,,,,,,,,,,sub-064,1.0,random_dot,60.04019090228104,
right,right,speed,,,,,0.0,0.0,0.0,1.0,7.0,0.0,14.0,1.0,86.90827620000346,,,,,,,,,86.89769330000854,87.00807090000308,87.80783430000884,87.79226460000791,87.79231950000394,87.80783430000884,87.80783430000884,87.80783430000884,88.4766110000055,right,1.0,13.978281299991067,,,,,,,,,,,,,,,,,,,,,,,,,,,,,,sub-064,1.0,random_dot,60.04019090228104,
left,left,speed,,,,,0.0,0.0,0.0,1.0,7.0,1.0,15.0,0.0,88.49006920000829,,,,,,,,,88.47910930000944,88.84007510000083,89.63919240000541,89.62443560000975,89.62450720000197,89.63919240000541,89.63919240000541,89.63919240000541,90.17438490000497,left,1.0,13.85153969998646,,,,,,,,,,,,,,,,,,,,,,,,,,,,,,sub-064,1.0,random_dot,60.04019090228104,
left,left,speed,,,,,0.0,0.0,0.0,1.0,8.0,0.0,16.0,0.0,90.18848110000545,,,,,,,,,90.17660020000768,90.53823480001302,91.33788470001308,91.3219425000134,91.32198590000915,91.33788470001308,91.33788470001308,91.33788470001308,91.78949860000284,right,0.0,13.766847599996254,,,,,,,,,,,,,,,,,,,,,,,,,,,,,,sub-064,1.0,random_dot,60.04019090228104,
right,right,speed,,,,,0.0,0.0,0.0,1.0,8.0,1.0,17.0,1.0,91.80354670000088,,,,,,,,,91.79163160000462,92.1538547000091,92.96981650000087,92.9545563000138,92.9546180000034,92.96981650000087,92.96981650000087,92.96981650000087,93.43828840000788,right,1.0,13.776637299990398,,,,,,,,,,,,,,,,,,,,,,,,,,,,,,sub-064,1.0,random_dot,60.04019090228104,
right,right,speed,,,,,0.0,0.0,0.0,1.0,9.0,0.0,18.0,1.0,93.45193710000603,,,,,,,,,93.44094980000229,94.25121360000048,95.05104790000767,95.03534480000964,95.03539970000566,95.05104790000767,95.05104790000767,95.05104790000767,95.6865039000113,left,0.0,13.939386199985163,,,,,,,,,,,,,,,,,,,,,,,,,,,,,,sub-064,1.0,random_dot,60.04019090228104,
left,left,speed,,,,,0.0,0.0,0.0,1.0,9.0,1.0,19.0,0.0,95.7004186000122,,,,,,,,,95.68927480001004,96.49950830001036,97.29878409999948,97.28332300001055,97.28337680001276,97.29878409999948,97.29878409999948,97.29878409999948,97.65007350000089,right,0.0,13.653918699987116,,,,,,,,,,,,,,,,,,,,,,,,,,,,,,sub-064,1.0,random_dot,60.04019090228104,
left,left,speed,,,,,0.0,0.0,0.0,1.0,10.0,0.0,20.0,0.0,97.66466490000312,,,,,,,,,97.651932400011,98.86383280000882,99.66359300000477,99.6482965000032,99.64838260000396,99.66359300000477,99.66359300000477,99.66359300000477,100.2986099000118,left,1.0,13.938203699988662,,,,,,,,,,,,,,,,,,,,,,,,,,,,,,sub-064,1.0,random_dot,60.04019090228104,
right,right,speed,,,,,0.0,0.0,0.0,1.0,10.0,1.0,21.0,1.0,100.31250410000212,,,,,,,,,100.30121520000102,100.41216550000536,101.212156900001,101.19641950000369,101.19647410001198,101.212156900001,101.212156900001,101.212156900001,101.9461130000127,right,1.0,14.050752699986331,,,,,,,,,,,,,,,,,,,,,,,,,,,,,,sub-064,1.0,random_dot,60.04019090228104,
right,right,speed,,,,,0.0,0.0,0.0,1.0,11.0,0.0,22.0,1.0,101.9604978000134,,,,,,,,,101.94796440000935,102.31096800000525,103.12740160000976,103.11201900000742,103.11209390001022,103.12740160000976,103.12740160000976,103.12740160000976,103.76151920000848,left,0.0,13.936934699988342,,,,,,,,,,,,,,,,,,,,,,,,,,,,,,sub-064,1.0,random_dot,60.04019090228104,
left,left,speed,,,,,0.0,0.0,0.0,1.0,11.0,1.0,23.0,0.0,103.77585290001298,,,,,,,,,103.76381130001393,103.87593320000452,104.67567260000214,104.66010970000934,104.6601706000074,104.67567260000214,104.67567260000214,104.67567260000214,106.00996090000262,right,0.0,14.640189199984889,,,,,,,,,,,,,,,,,,,,,,,,,,,,,,sub-064,1.0,random_dot,60.04019090228104,
left,left,speed,,,,,0.0,0.0,0.0,1.0,12.0,0.0,24.0,0.0,106.02376940000975,,,,,,,,,106.01258230001258,106.1233959000092,106.92319600000336,106.90759080000862,106.90764350000244,106.92319600000336,106.92319600000336,106.92319600000336,107.87478190001276,left,1.0,14.253364299991516,,,,,,,,,,,,,,,,,,,,,,,,,,,,,,sub-064,1.0,random_dot,60.04019090228104,
right,right,speed,,,,,0.0,0.0,0.0,1.0,12.0,1.0,25.0,1.0,107.88861610001186,,,,,,,,,107.87761110000427,108.2382792999997,109.03783540001314,109.02212120000333,109.02217410001322,109.03783540001314,109.03783540001314,109.03783540001314,109.6897508000111,right,1.0,13.962228799980949,,,,,,,,,,,,,,,,,,,,,,,,,,,,,,sub-064,1.0,random_dot,60.04019090228104,
right,right,speed,,,,,0.0,0.0,0.0,1.0,13.0,0.0,26.0,1.0,109.70362380000006,,,,,,,,,109.69243320000533,110.05333130000508,110.85291680000957,110.83736920000229,110.8374249000044,110.85291680000957,110.85291680000957,110.85291680000957,111.63829980000446,left,0.0,14.087899299993296,,,,,,,,,,,,,,,,,,,,,,,,,,,,,,sub-064,1.0,random_dot,60.04019090228104,
left,left,speed,,,,,0.0,0.0,0.0,1.0,13.0,1.0,27.0,0.0,111.65173520000826,,,,,,,,,111.64104860000953,112.8505390000064,113.65028610000444,113.63450400000148,113.63455760000215,113.65028610000444,113.65028610000444,113.65028610000444,115.08468040000298,right,0.0,14.749154599980102,,,,,,,,,,,,,,,,,,,,,,,,,,,,,,sub-064,1.0,random_dot,60.04019090228104,
right,right,speed,,,,,0.0,0.0,0.0,1.0,14.0,0.0,28.0,1.0,115.09875860001192,,,,,,,,,115.0871632000053,115.89797270001144,116.69758460001322,116.68219570000656,116.68228620001172,116.69758460001322,116.69758460001322,116.69758460001322,117.3811405000015,right,1.0,13.98610299998836,,,,,,,,,,,,,,,,,,,,,,,,,,,,,,sub-064,1.0,random_dot,60.04019090228104,
left,left,speed,,,,,0.0,0.0,0.0,1.0,14.0,1.0,29.0,0.0,117.39597150000918,,,,,,,,,117.38240210000367,118.19590710000192,119.0120251000044,118.99660160001076,118.99666390000492,119.0120251000044,119.0120251000044,119.0120251000044,119.44686650000222,left,1.0,13.75045219999447,,,,,,,,,,,,,,,,,,,,,,,,,,,,,,sub-064,1.0,random_dot,60.04019090228104,
left,left,speed,,,,,0.0,0.0,0.0,1.0,15.0,0.0,30.0,0.0,119.46080730001268,,,,,,,,,119.44882140000118,120.66004230000544,121.45973940000113,121.4441102000128,121.44416310000815,121.45973940000113,121.45973940000113,121.45973940000113,121.82738240000616,right,0.0,13.671123199979776,,,,,,,,,,,,,,,,,,,,,,,,,,,,,,sub-064,1.0,random_dot,60.04019090228104,
right,right,speed,,,,,0.0,0.0,0.0,1.0,15.0,1.0,31.0,1.0,121.84183140000096,,,,,,,,,121.82917520000774,121.9421899000008,122.75852690001192,122.7423550000094,122.74239710000984,122.75852690001192,122.75852690001192,122.75852690001192,123.17612720000034,left,0.0,13.730221499994514,,,,,,,,,,,,,,,,,,,,,,,,,,,,,,sub-064,1.0,random_dot,60.04019090228104,
right,right,speed,,,,,0.0,0.0,0.0,1.0,16.0,0.0,32.0,1.0,123.19077810000454,,,,,,,,,123.17772700000204,123.29085889999988,124.09073570001055,124.07512200000927,124.07517640000152,124.09073570001055,124.09073570001055,124.09073570001055,124.50944620001246,right,1.0,13.73009689997707,,,,,,,,,,,,,,,,,,,,,,,,,,,,,,sub-064,1.0,random_dot,60.04019090228104,
left,left,speed,,,,,0.0,0.0,0.0,1.0,16.0,1.0,33.0,0.0,124.52311200000986,,,,,,,,,124.51206590000947,125.322404800012,126.12195990000328,126.10676650000096,126.10683620000782,126.12195990000328,126.12195990000328,126.12195990000328,126.44044370000483,left,1.0,13.627645999993549,,,,,,,,,,,,,,,,,,,,,,,,,,,,,,sub-064,1.0,random_dot,60.04019090228104,
right,right,speed,,,,,0.0,0.0,0.0,1.0,17.0,0.0,34.0,1.0,126.45459500000288,,,,,,,,,126.44262970000273,126.80385970001224,127.60436390001269,127.589103300008,127.58917810001005,127.60436390001269,127.60436390001269,127.60436390001269,127.905324700012,right,1.0,13.612500499992166,,,,,,,,,,,,,,,,,,,,,,,,,,,,,,sub-064,1.0,random_dot,60.04019090228104,
left,left,speed,,,,,0.0,0.0,0.0,1.0,17.0,1.0,35.0,0.0,127.9197184000077,,,,,,,,,127.90689660000498,128.71944830000575,129.5355825000006,129.51968650000344,129.51973949999956,129.5355825000006,129.5355825000006,129.5355825000006,130.08759640000062,left,1.0,13.861660899987328,,,,,,,,,,,,,,,,,,,,,,,,,,,,,,sub-064,1.0,random_dot,60.04019090228104,
right,right,speed,,,,,0.0,0.0,0.0,1.0,18.0,0.0,36.0,1.0,130.10125370000603,,,,,,,,,130.09036410000408,130.20101930000237,131.00058570000692,130.98486790001334,130.98491730001115,131.00058570000692,131.00058570000692,131.00058570000692,132.41819450000185,right,1.0,14.720836399996188,,,,,,,,,,,,,,,,,,,,,,,,,,,,,,sub-064,1.0,random_dot,60.04019090228104,
left,left,speed,,,,,0.0,0.0,0.0,1.0,18.0,1.0,37.0,0.0,132.432418100012,,,,,,,,,132.42016370000783,132.78231070000038,133.59835750001366,133.58238790000905,133.5824314000056,133.59835750001366,133.59835750001366,133.59835750001366,135.13234180001018,left,1.0,14.83878379999078,,,,,,,,,,,,,,,,,,,,,,,,,,,,,,sub-064,1.0,random_dot,60.04019090228104,
left,left,speed,,,,,0.0,0.0,0.0,1.0,19.0,0.0,38.0,0.0,135.14637530001346,,,,,,,,,135.1344848000008,135.49619670001266,136.2961173000076,136.28072750000865,136.2807909000112,136.2961173000076,136.2961173000076,136.2961173000076,136.79682890001277,right,0.0,13.814701699986472,,,,,,,,,,,,,,,,,,,,,,,,,,,,,,sub-064,1.0,random_dot,60.04019090228104,
right,right,speed,,,,,0.0,0.0,0.0,1.0,19.0,1.0,39.0,1.0,136.8111607000028,,,,,,,,,136.79833450001024,136.91130300000077,137.7112199000112,137.6955551000137,137.6956085000129,137.7112199000112,137.7112199000112,137.7112199000112,138.09605710000324,left,0.0,13.700843199985684,,,,,,,,,,,,,,,,,,,,,,,,,,,,,,sub-064,1.0,random_dot,60.04019090228104,
left,left,speed,,,,,0.0,0.0,0.0,1.0,20.0,0.0,40.0,0.0,138.11018310001236,,,,,,,,,138.0985001000081,138.4600180000125,139.25956310000038,139.24372500000754,139.24377370000002,139.25956310000038,139.25956310000038,139.25956310000038,139.7286837000138,left,1.0,13.777750399982324,,,,,,,,,,,,,,,,,,,,,,,,,,,,,,sub-064,1.0,random_dot,60.04019090228104,
right,right,speed,,,,,0.0,0.0,0.0,1.0,20.0,1.0,41.0,1.0,139.74208080000244,,,,,,,,,139.7311064000096,139.84193790001154,140.6419220000098,140.62585450000188,140.62590389999968,140.6419220000098,140.6419220000098,140.6419220000098,141.09379860000627,right,1.0,13.766178499994568,,,,,,,,,,,,,,,,,,,,,,,,,,,,,,sub-064,1.0,random_dot,60.04019090228104,
left,left,speed,,,,,0.0,0.0,0.0,1.0,21.0,0.0,42.0,0.0,141.10736190000898,,,,,,,,,141.09647500001302,142.30649730000005,143.12251169999945,143.10664510000788,143.10667860000103,143.12251169999945,143.12251169999945,143.12251169999945,143.9071041999996,left,1.0,14.0888156999863,,,,,,,,,,,,,,,,,,,,,,,,,,,,,,sub-064,1.0,random_dot,60.04019090228104,
right,right,speed,,,,,0.0,0.0,0.0,1.0,21.0,1.0,43.0,1.0,143.92142740001145,,,,,,,,,143.9089382000093,145.12046020000707,145.92053200000373,145.90539470000658,145.90548940000008,145.92053200000373,145.92053200000373,145.92053200000373,146.2879157999996,right,1.0,13.678670399996918,,,,,,,,,,,,,,,,,,,,,,,,,,,,,,sub-064,1.0,random_dot,60.04019090228104,
left,left,speed,,,,,0.0,0.0,0.0,1.0,22.0,0.0,44.0,0.0,146.30231740001182,,,,,,,,,146.28954100000556,147.1022352,147.91814560000785,147.90234350001265,147.9024083000113,147.91814560000785,147.91814560000785,147.91814560000785,148.53658759999962,left,1.0,13.935020799995982,,,,,,,,,,,,,,,,,,,,,,,,,,,,,,sub-064,1.0,random_dot,60.04019090228104,
right,right,speed,,,,,0.0,0.0,0.0,1.0,22.0,1.0,45.0,1.0,148.55060500001127,,,,,,,,,148.53879400000733,149.35000620000935,150.16614200000186,150.150549900005,150.1506096000085,150.16614200000186,150.16614200000186,150.16614200000186,150.7669370000076,right,1.0,13.906748899986267,,,,,,,,,,,,,,,,,,,,,,,,,,,,,,sub-064,1.0,random_dot,60.04019090228104,
left,left,speed,,,,,0.0,0.0,0.0,1.0,23.0,0.0,46.0,0.0,150.7815094000107,,,,,,,,,150.76855150000483,151.58093210001243,152.38069499999983,152.36506430000009,152.3651181000023,152.38069499999983,152.38069499999983,152.38069499999983,152.98255820000486,left,1.0,13.91148979999707,,,,,,,,,,,,,,,,,,,,,,,,,,,,,,sub-064,1.0,random_dot,60.04019090228104,
right,right,speed,,,,,0.0,0.0,0.0,1.0,23.0,1.0,47.0,1.0,152.99650920000568,,,,,,,,,152.985228000005,153.09654880000744,153.9125059000071,153.89695100000245,153.8970038000116,153.9125059000071,153.9125059000071,153.9125059000071,154.51448360001086,right,1.0,13.904293399988092,,,,,,,,,,,,,,,,,,,,,,,,,,,,,,sub-064,1.0,random_dot,60.04019090228104,
right,right,speed,,,,,0.0,0.0,0.0,1.0,24.0,0.0,48.0,1.0,154.52820610000344,,,,,,,,,154.51724290000857,154.87801860000764,155.67775490001077,155.66235920001054,155.66241230000742,155.67775490001077,155.67775490001077,155.67775490001077,156.59629310001037,left,0.0,14.220294399987324,,,,,,,,,,,,,,,,,,,,,,,,,,,,,,sub-064,1.0,random_dot,60.04019090228104,
left,left,speed,,,,,0.0,0.0,0.0,1.0,24.0,1.0,49.0,0.0,156.60997440000938,,,,,,,,,156.5991292000108,156.70969530000002,157.5091844000126,157.4937256000121,157.49377930001356,157.5091844000126,157.5091844000126,157.5091844000126,158.0944629000005,left,1.0,13.89110329998948,,,,,,,,,,,,,,,,,,,,,,,,,,,,,,sub-064,1.0,random_dot,60.04019090228104,
right,right,speed,,,,,0.0,0.0,0.0,1.0,25.0,0.0,50.0,1.0,158.10838410000724,,,,,,,,,158.09734940000635,158.90769470001396,159.7076870000019,159.69173109999974,159.6917950000061,159.7076870000019,159.7076870000019,159.7076870000019,160.3427961000125,right,1.0,13.95066439997754,,,,,,,,,,,,,,,,,,,,,,,,,,,,,,sub-064,1.0,random_dot,60.04019090228104,
left,left,speed,,,,,0.0,0.0,0.0,1.0,25.0,1.0,51.0,0.0,160.3563901000016,,,,,,,,,160.3455654999998,161.55519290000666,162.3546403000073,162.33922639999946,162.3392797000124,162.3546403000073,162.3546403000073,162.3546403000073,163.20645880000666,left,1.0,14.159029299989925,,,,,,,,,,,,,,,,,,,,,,,,,,,,,,sub-064,1.0,random_dot,60.04019090228104,
right,right,speed,,,,,0.0,0.0,0.0,1.0,26.0,0.0,52.0,1.0,163.22006880000117,,,,,,,,,163.2091339000035,163.56995370000368,164.36961190000875,164.35387780000747,164.3539327000035,164.36961190000875,164.36961190000875,164.36961190000875,165.1381129000074,right,1.0,14.075245299987728,,,,,,,,,,,,,,,,,,,,,,,,,,,,,,sub-064,1.0,random_dot,60.04019090228104,
left,left,speed,,,,,0.0,0.0,0.0,1.0,26.0,1.0,53.0,0.0,165.1518589000043,,,,,,,,,165.1406929000077,165.95100350001303,166.75090610000188,166.734778500002,166.7348318000004,166.75090610000188,166.75090610000188,166.75090610000188,167.3860096000135,left,1.0,13.949334799995995,,,,,,,,,,,,,,,,,,,,,,,,,,,,,,sub-064,1.0,random_dot,60.04019090228104,
left,left,speed,,,,,0.0,0.0,0.0,1.0,27.0,0.0,54.0,0.0,167.39954540001054,,,,,,,,,167.3888186000113,167.7492893000017,168.5492346000101,168.5334450000082,168.53349970000272,168.5492346000101,168.5492346000101,168.5492346000101,169.38388760000817,right,0.0,14.143620199989527,,,,,,,,,,,,,,,,,,,,,,,,,,,,,,sub-064,1.0,random_dot,60.04019090228104,
right,right,speed,,,,,0.0,0.0,0.0,1.0,27.0,1.0,55.0,1.0,169.3977714000066,,,,,,,,,169.38666410000587,170.19698010000866,170.99697580000793,170.98113970000122,170.98119280001265,170.99697580000793,170.99697580000793,170.99697580000793,171.79863509999996,right,1.0,14.119041199985077,,,,,,,,,,,,,,,,,,,,,,,,,,,,,,sub-064,1.0,random_dot,60.04019090228104,
right,right,speed,,,,,0.0,0.0,0.0,1.0,28.0,0.0,56.0,1.0,171.81209740000486,,,,,,,,,171.8008669000119,173.01095050000004,173.81073180001113,173.7954912000132,173.7955537000089,173.81073180001113,173.81073180001113,173.81073180001113,174.36335870000767,right,1.0,13.869782399997348,,,,,,,,,,,,,,,,,,,,,,,,,,,,,,sub-064,1.0,random_dot,60.04019090228104,
left,left,speed,,,,,0.0,0.0,0.0,1.0,28.0,1.0,57.0,0.0,174.3766226000007,,,,,,,,,174.36673780001,174.7261381000135,175.5257289000001,175.5101749000023,175.51022800001374,175.5257289000001,175.5257289000001,175.5257289000001,176.44414030000917,left,1.0,14.233645899992553,,,,,,,,,,,,,,,,,,,,,,,,,,,,,,sub-064,1.0,random_dot,60.04019090228104,
left,left,speed,,,,,0.0,0.0,0.0,1.0,29.0,0.0,58.0,0.0,176.4580558000016,,,,,,,,,176.4467716000072,177.2569211000082,178.05664460000116,178.0412340000039,178.0412917000067,178.05664460000116,178.05664460000116,178.05664460000116,178.4589624000073,right,0.0,13.707867099990835,,,,,,,,,,,,,,,,,,,,,,,,,,,,,,sub-064,1.0,random_dot,60.04019090228104,
right,right,speed,,,,,0.0,0.0,0.0,1.0,29.0,1.0,59.0,1.0,178.4724253000022,,,,,,,,,178.46161190001294,178.82235390000278,179.62189690000378,179.6067272000073,179.60678010000265,179.62189690000378,179.62189690000378,179.62189690000378,179.85815890000958,right,1.0,13.553475299981072,,,,,,,,,,,,,,,,,,,,,,,,,,,,,,sub-064,1.0,random_dot,60.04019090228104,
,,speed,,,,,0.0,0.0,0.0,1.0,,,,,,,,,,,,,,,,,,,,,,,,,,,,,,,,,,,,,,,,,,,,,,,,,,,,,,,sub-064,1.0,random_dot,60.04019090228104,
right,right,accuracy,,,,,0.0,1.0,1.0,0.0,0.0,0.0,0.0,1.0,181.76546640000012,,,,,,,,,181.7592941000039,182.55220520000148,183.35230380001303,183.33686800001303,183.33694880000257,183.35230380001303,183.35230380001303,183.35230380001303,183.98773550000624,right,1.0,13.937441299989588,,,,,,,,,,,,,,,,,,,,179.8607708000054,179.88431100000162,179.88431100000162,181.73888270001044,space,15.169258499983698,,,,,sub-064,1.0,random_dot,60.04019090228104,
left,left,accuracy,,,,,0.0,1.0,1.0,0.0,0.0,1.0,1.0,0.0,184.00079430000915,,,,,,,,,183.9911653000017,184.35035520000383,185.15021120000165,185.13462650000287,185.1346895000024,185.15021120000165,185.15021120000165,185.15021120000165,186.95134379999945,left,1.0,15.11835199999041,,,,,,,,,,,,,,,,,,,,,,,,,,,,,,sub-064,1.0,random_dot,60.04019090228104,
right,right,accuracy,,,,,0.0,1.0,1.0,0.0,1.0,0.0,2.0,1.0,186.9644365000131,,,,,,,,,186.9539955000073,188.16395970000303,188.96360330001332,188.948212400006,188.94828250000137,188.96360330001332,188.96360330001332,188.96360330001332,189.78120320000744,right,1.0,14.123777199987671,,,,,,,,,,,,,,,,,,,,,,,,,,,,,,sub-064,1.0,random_dot,60.04019090228104,
left,left,accuracy,,,,,0.0,1.0,1.0,0.0,1.0,1.0,3.0,0.0,189.79516980001063,,,,,,,,,189.78334940000784,190.59464900000603,191.3944085000112,191.3791027000116,191.3791624000005,191.3944085000112,191.3944085000112,191.3944085000112,192.0287475000077,left,1.0,13.947283799978322,,,,,,,,,,,,,,,,,,,,,,,,,,,,,,sub-064,1.0,random_dot,60.04019090228104,
right,right,accuracy,,,,,0.0,1.0,1.0,0.0,2.0,0.0,4.0,1.0,192.043118600006,,,,,,,,,192.03068150000763,192.393046000012,193.19308580001237,193.177377,193.17743690000495,193.19308580001237,193.19308580001237,193.19308580001237,193.77842910001343,right,1.0,13.90218959999038,,,,,,,,,,,,,,,,,,,,,,,,,,,,,,sub-064,1.0,random_dot,60.04019090228104,
left,left,accuracy,,,,,0.0,1.0,1.0,0.0,2.0,1.0,5.0,0.0,193.7916738000058,,,,,,,,,193.78106380000827,194.1413625000132,194.94086840000816,194.92518100001325,194.92523520000395,194.94086840000816,194.94086840000816,194.94086840000816,195.49297380000644,left,1.0,13.856996099988464,,,,,,,,,,,,,,,,,,,,,,,,,,,,,,sub-064,1.0,random_dot,60.04019090228104,
right,right,accuracy,,,,,0.0,1.0,1.0,0.0,3.0,0.0,6.0,1.0,195.50651260001175,,,,,,,,,195.4953053000063,195.60668080000323,196.4228271000029,196.4070331000112,196.4070805000083,196.4228271000029,196.4228271000029,196.4228271000029,197.0249274000089,right,1.0,13.914643099997193,,,,,,,,,,,,,,,,,,,,,,,,,,,,,,sub-064,1.0,random_dot,60.04019090228104,
left,left,accuracy,,,,,0.0,1.0,1.0,0.0,3.0,1.0,7.0,0.0,197.03841520000424,,,,,,,,,197.0272290000139,197.8379021000001,198.65402030000405,198.6381301000074,198.6381798000075,198.65402030000405,198.65402030000405,198.65402030000405,199.40588580000625,left,1.0,14.061572199992952,,,,,,,,,,,,,,,,,,,,,,,,,,,,,,sub-064,1.0,random_dot,60.04019090228104,
left,left,accuracy,,,,,0.0,1.0,1.0,0.0,4.0,0.0,8.0,0.0,199.4197712000023,,,,,,,,,199.40830730000744,200.21908950000943,201.0187459000008,201.0025177000061,201.0025566000113,201.0187459000008,201.0187459000008,201.0187459000008,203.80168260000937,left,1.0,16.10033899998234,,,,,,,,,,,,,,,,,,,,,,,,,,,,,,sub-064,1.0,random_dot,60.04019090228104,
right,right,accuracy,,,,,0.0,1.0,1.0,0.0,4.0,1.0,9.0,1.0,203.81552490001195,,,,,,,,,203.8040609000018,203.91557340000875,204.71520540000347,204.6997235000017,204.69977360000485,204.71520540000347,204.71520540000347,204.71520540000347,207.6146640000079,right,1.0,16.212211699981708,,,,,,,,,,,,,,,,,,,,,,,,,,,,,,sub-064,1.0,random_dot,60.04019090228104,
left,left,accuracy,,,,,0.0,1.0,1.0,0.0,5.0,0.0,10.0,0.0,207.6284984000085,,,,,,,,,207.6169872000028,207.97814220000876,208.77800820000996,208.7621548000025,208.7622027000034,208.77800820000996,208.77800820000996,208.77800820000996,210.94491050000943,left,1.0,15.483422699995572,,,,,,,,,,,,,,,,,,,,,,,,,,,,,,sub-064,1.0,random_dot,60.04019090228104,
right,right,accuracy,,,,,0.0,1.0,1.0,0.0,5.0,1.0,11.0,1.0,210.9586229000124,,,,,,,,,210.9473391000065,212.1577341000084,212.95751390000805,212.9417106000037,212.9417642000044,212.95751390000805,212.95751390000805,212.95751390000805,216.6567148000031,left,0.0,17.0146918999817,,,,,,,,,,,,,,,,,,,,,,,,,,,,,,sub-064,1.0,random_dot,60.04019090228104,
right,right,accuracy,,,,,0.0,1.0,1.0,0.0,6.0,0.0,12.0,1.0,216.67056570001296,,,,,,,,,216.659567900002,217.01981010001327,217.81945980001183,217.80390590000025,217.8039589000109,217.81945980001183,217.81945980001183,217.81945980001183,219.51994950001244,right,1.0,15.014777599979425,,,,,,,,,,,,,,,,,,,,,,,,,,,,,,sub-064,1.0,random_dot,60.04019090228104,
left,left,accuracy,,,,,0.0,1.0,1.0,0.0,6.0,1.0,13.0,0.0,219.53395960001217,,,,,,,,,219.52207610000917,219.6338407000003,220.4341102000035,220.41820569999985,220.41826550000405,220.4341102000035,220.4341102000035,220.4341102000035,221.1859119000001,left,1.0,14.066285299995798,,,,,,,,,,,,,,,,,,,,,,,,,,,,,,sub-064,1.0,random_dot,60.04019090228104,
right,right,accuracy,,,,,0.0,1.0,1.0,0.0,7.0,0.0,14.0,1.0,221.199348500013,,,,,,,,,221.18874430000145,222.39850120000483,223.21460760000627,223.19884110000567,223.1988937999995,223.21460760000627,223.21460760000627,223.21460760000627,224.56578550000268,right,1.0,14.667670799986809,,,,,,,,,,,,,,,,,,,,,,,,,,,,,,sub-064,1.0,random_dot,60.04019090228104,
left,left,accuracy,,,,,0.0,1.0,1.0,0.0,7.0,1.0,15.0,0.0,224.57933670000057,,,,,,,,,224.56817550001145,225.3787743000139,226.1781765000051,226.1626366000128,226.1626834000053,226.1781765000051,226.1781765000051,226.1781765000051,227.09657150000567,right,0.0,14.234554499998922,,,,,,,,,,,,,,,,,,,,,,,,,,,,,,sub-064,1.0,random_dot,60.04019090228104,
right,right,accuracy,,,,,0.0,1.0,1.0,0.0,8.0,0.0,16.0,1.0,227.110511100007,,,,,,,,,227.09893040001043,227.46014870000363,228.2599165000138,228.24421560000337,228.2442652000027,228.2599165000138,228.2599165000138,228.2599165000138,229.22808110000915,right,1.0,14.27399799998966,,,,,,,,,,,,,,,,,,,,,,,,,,,,,,sub-064,1.0,random_dot,60.04019090228104,
left,left,accuracy,,,,,0.0,1.0,1.0,0.0,8.0,1.0,17.0,0.0,229.241334300008,,,,,,,,,229.23051760000817,230.4407043000101,231.2403317999997,231.22489700000733,231.2249570000131,231.2403317999997,231.2403317999997,231.2403317999997,232.7751019000134,left,1.0,14.852206499999738,,,,,,,,,,,,,,,,,,,,,,,,,,,,,,sub-064,1.0,random_dot,60.04019090228104,
left,left,accuracy,,,,,0.0,1.0,1.0,0.0,9.0,0.0,18.0,0.0,232.7886556000012,,,,,,,,,232.7774774000136,232.88848240001244,233.68795570000657,233.67255410000507,233.67261160000635,233.68795570000657,233.68795570000657,233.68795570000657,234.5398045000038,right,0.0,14.164215099983268,,,,,,,,,,,,,,,,,,,,,,,,,,,,,,sub-064,1.0,random_dot,60.04019090228104,
right,right,accuracy,,,,,0.0,1.0,1.0,0.0,9.0,1.0,19.0,1.0,234.5531789000088,,,,,,,,,234.54226090000884,235.3527596000058,236.1522629000101,236.1365839000064,236.13662730000212,236.1522629000101,236.1522629000101,236.1522629000101,236.7874681000103,right,1.0,13.952093799991417,,,,,,,,,,,,,,,,,,,,,,,,,,,,,,sub-064,1.0,random_dot,60.04019090228104,
left,left,accuracy,,,,,0.0,1.0,1.0,0.0,10.0,0.0,20.0,0.0,236.8012812000088,,,,,,,,,236.7896159000084,237.15117840000312,237.9674135000096,237.9514646000025,237.95150910000663,237.9674135000096,237.9674135000096,237.9674135000096,238.3856042000116,right,0.0,13.734940399983316,,,,,,,,,,,,,,,,,,,,,,,,,,,,,,sub-064,1.0,random_dot,60.04019090228104,
right,right,accuracy,,,,,0.0,1.0,1.0,0.0,10.0,1.0,21.0,1.0,238.39957000000868,,,,,,,,,238.3877896000049,239.59877940001024,240.39847420000297,240.3829313000024,240.3829994000116,240.39847420000297,240.39847420000297,240.39847420000297,241.24946190000628,right,1.0,14.15773859998444,,,,,,,,,,,,,,,,,,,,,,,,,,,,,,sub-064,1.0,random_dot,60.04019090228104,
left,left,accuracy,,,,,0.0,1.0,1.0,0.0,11.0,0.0,22.0,0.0,241.26390950000496,,,,,,,,,241.25149110000348,242.46256110000832,243.26235160000212,243.2468940000108,243.2469473000092,243.26235160000212,243.26235160000212,243.26235160000212,244.48080400000617,left,1.0,14.53466489999846,,,,,,,,,,,,,,,,,,,,,,,,,,,,,,sub-064,1.0,random_dot,60.04019090228104,
right,right,accuracy,,,,,0.0,1.0,1.0,0.0,11.0,1.0,23.0,1.0,244.49424040000304,,,,,,,,,244.48324530001264,244.8439716000139,245.6599164000072,245.64410700000008,245.6441499000066,245.6599164000072,245.6599164000072,245.6599164000072,246.5278357000061,right,1.0,14.1743218999909,,,,,,,,,,,,,,,,,,,,,,,,,,,,,,sub-064,1.0,random_dot,60.04019090228104,
left,left,accuracy,,,,,0.0,1.0,1.0,0.0,12.0,0.0,24.0,0.0,246.5421766000072,,,,,,,,,246.53002980000747,246.8919220000098,247.69192280000425,247.67633550000028,247.67638870001247,247.69192280000425,247.69192280000425,247.69192280000425,249.05896010001013,right,0.0,14.669753299996955,,,,,,,,,,,,,,,,,,,,,,,,,,,,,,sub-064,1.0,random_dot,60.04019090228104,
right,right,accuracy,,,,,0.0,1.0,1.0,0.0,12.0,1.0,25.0,1.0,249.07301850001383,,,,,,,,,249.06117160001304,249.42292300000557,250.222794900008,250.20708270001344,250.20715590000327,250.222794900008,250.222794900008,250.222794900008,251.15841380000347,right,1.0,14.239878899985342,,,,,,,,,,,,,,,,,,,,,,,,,,,,,,sub-064,1.0,random_dot,60.04019090228104,
right,right,accuracy,,,,,0.0,1.0,1.0,0.0,13.0,0.0,26.0,1.0,251.17130200000247,,,,,,,,,251.1614241000061,251.97055360001104,252.77065120000043,252.75489840000228,252.75495840000804,252.77065120000043,252.77065120000043,252.77065120000043,253.65464530000463,right,1.0,14.19364549999591,,,,,,,,,,,,,,,,,,,,,,,,,,,,,,sub-064,1.0,random_dot,60.04019090228104,
left,left,accuracy,,,,,0.0,1.0,1.0,0.0,13.0,1.0,27.0,0.0,253.66896450000056,,,,,,,,,253.6567704000045,253.7689817000064,254.5849334000086,254.5689943000034,254.5690367000061,254.5849334000086,254.5849334000086,254.5849334000086,255.30368910000837,left,1.0,14.028061199991498,,,,,,,,,,,,,,,,,,,,,,,,,,,,,,sub-064,1.0,random_dot,60.04019090228104,
right,right,accuracy,,,,,0.0,1.0,1.0,0.0,14.0,0.0,28.0,1.0,255.31713870000385,,,,,,,,,255.30585980000612,256.5163221000112,257.3160568000021,257.3007402000076,257.3008419000107,257.3160568000021,257.3160568000021,257.3160568000021,257.9836879000068,right,1.0,13.975260399995022,,,,,,,,,,,,,,,,,,,,,,,,,,,,,,sub-064,1.0,random_dot,60.04019090228104,
left,left,accuracy,,,,,0.0,1.0,1.0,0.0,14.0,1.0,29.0,0.0,257.9979546000104,,,,,,,,,257.9856260000088,258.0979162000003,258.8979120000004,258.88217900000745,258.88223180000205,258.8979120000004,258.8979120000004,258.8979120000004,259.7829695000109,left,1.0,14.196373999977368,,,,,,,,,,,,,,,,,,,,,,,,,,,,,,sub-064,1.0,random_dot,60.04019090228104,
left,left,accuracy,,,,,0.0,1.0,1.0,0.0,15.0,0.0,30.0,0.0,259.7966560000059,,,,,,,,,259.78583810001146,259.89659329999995,260.6961832000088,260.68061840000155,260.6806770000112,260.6961832000088,260.6961832000088,260.6961832000088,261.5312775000057,left,1.0,14.140241399989463,,,,,,,,,,,,,,,,,,,,,,,,,,,,,,sub-064,1.0,random_dot,60.04019090228104,
right,right,accuracy,,,,,0.0,1.0,1.0,0.0,15.0,1.0,31.0,1.0,261.54472870001337,,,,,,,,,261.53394920000574,262.3440544000041,263.1441977000068,263.12827300000936,263.1283269000123,263.1441977000068,263.1441977000068,263.1441977000068,264.2289720000117,right,1.0,14.3999882999924,,,,,,,,,,,,,,,,,,,,,,,,,,,,,,sub-064,1.0,random_dot,60.04019090228104,
right,right,accuracy,,,,,0.0,1.0,1.0,0.0,16.0,0.0,32.0,1.0,264.2422319000034,,,,,,,,,264.2317291000072,264.34220020000066,265.1422340000136,265.1261712000123,265.12622420000844,265.1422340000136,265.1422340000136,265.1422340000136,266.5929582000099,right,1.0,14.761706799996318,,,,,,,,,,,,,,,,,,,,,,,,,,,,,,sub-064,1.0,random_dot,60.04019090228104,
left,left,accuracy,,,,,0.0,1.0,1.0,0.0,16.0,1.0,33.0,0.0,266.606686900006,,,,,,,,,266.5955593000108,267.8064655000053,268.6056399000081,268.59088500001235,268.5909585000045,268.6056399000081,268.6056399000081,268.6056399000081,269.49027330000536,left,1.0,14.188598899985664,,,,,,,,,,,,,,,,,,,,,,,,,,,,,,sub-064,1.0,random_dot,60.04019090228104,
right,right,accuracy,,,,,0.0,1.0,1.0,0.0,17.0,0.0,34.0,1.0,269.50390860000334,,,,,,,,,269.49297710000246,270.3031769000081,271.1190658000123,271.1025343000074,271.10255720000714,271.1190658000123,271.1190658000123,271.1190658000123,272.92055040001287,left,0.0,15.104816099978052,,,,,,,,,,,,,,,,,,,,,,,,,,,,,,sub-064,1.0,random_dot,60.04019090228104,
left,left,accuracy,,,,,0.0,1.0,1.0,0.0,17.0,1.0,35.0,0.0,272.9344308,,,,,,,,,272.923188700006,273.0340133999998,273.83379800000694,273.81833530000586,273.81840530000045,273.83379800000694,273.83379800000694,273.83379800000694,274.55308910000895,left,1.0,14.026210099997115,,,,,,,,,,,,,,,,,,,,,,,,,,,,,,sub-064,1.0,random_dot,60.04019090228104,
right,right,accuracy,,,,,0.0,1.0,1.0,0.0,18.0,0.0,36.0,1.0,274.56587710000167,,,,,,,,,274.55658320001385,274.6659221000009,275.4655337000004,275.4500676000025,275.45012300000235,275.4655337000004,275.4655337000004,275.4655337000004,275.83428170000843,left,0.0,13.671172499991371,,,,,,,,,,,,,,,,,,,,,,,,,,,,,,sub-064,1.0,random_dot,60.04019090228104,
left,left,accuracy,,,,,0.0,1.0,1.0,0.0,18.0,1.0,37.0,0.0,275.8480978000007,,,,,,,,,275.8369381000084,277.04751690001285,277.8631753000081,277.84717960000853,277.8472222000128,277.8631753000081,277.8631753000081,277.8631753000081,278.5492855000048,left,1.0,14.000390599991078,,,,,,,,,,,,,,,,,,,,,,,,,,,,,,sub-064,1.0,random_dot,60.04019090228104,
right,right,accuracy,,,,,0.0,1.0,1.0,0.0,19.0,0.0,38.0,1.0,278.56244210001023,,,,,,,,,278.55229620001046,278.66226350000943,279.4618858000031,279.446360300004,279.44642100000056,279.4618858000031,279.4618858000031,279.4618858000031,279.8306905000063,left,0.0,13.671902899994166,,,,,,,,,,,,,,,,,,,,,,,,,,,,,,sub-064,1.0,random_dot,60.04019090228104,
left,left,accuracy,,,,,0.0,1.0,1.0,0.0,19.0,1.0,39.0,0.0,279.8444110000128,,,,,,,,,279.8333680000069,280.19423000000825,280.9939139000053,280.9781967000017,280.9782496000116,280.9939139000053,280.9939139000053,280.9939139000053,282.1940440000035,left,1.0,14.510259099988616,,,,,,,,,,,,,,,,,,,,,,,,,,,,,,sub-064,1.0,random_dot,60.04019090228104,
left,left,accuracy,,,,,0.0,1.0,1.0,0.0,20.0,0.0,40.0,0.0,282.2085248000076,,,,,,,,,282.19593560000067,283.0078988000023,283.80799830000615,283.7918237000122,283.79187020000245,283.80799830000615,283.80799830000615,283.80799830000615,284.9095346000104,left,1.0,14.414840399986131,,,,,,,,,,,,,,,,,,,,,,,,,,,,,,sub-064,1.0,random_dot,60.04019090228104,
right,right,accuracy,,,,,0.0,1.0,1.0,0.0,20.0,1.0,41.0,1.0,284.9231501000031,,,,,,,,,284.9119115000067,285.27272079999966,286.07231430000684,286.0564564000088,286.05650390000665,286.07231430000684,286.07231430000684,286.07231430000684,286.5907170000137,right,1.0,13.820242299989332,,,,,,,,,,,,,,,,,,,,,,,,,,,,,,sub-064,1.0,random_dot,60.04019090228104,
left,left,accuracy,,,,,0.0,1.0,1.0,0.0,21.0,0.0,42.0,0.0,286.60460020000755,,,,,,,,,286.59316420000687,286.95418820000486,287.7542769000138,287.73840340001334,287.73846900000353,287.7542769000138,287.7542769000138,287.7542769000138,289.03867829999945,left,1.0,14.589937699987786,,,,,,,,,,,,,,,,,,,,,,,,,,,,,,sub-064,1.0,random_dot,60.04019090228104,
right,right,accuracy,,,,,0.0,1.0,1.0,0.0,21.0,1.0,43.0,1.0,289.0524125000084,,,,,,,,,289.04102870001225,290.2516434000136,291.0511748999997,291.0359505000088,291.03602050000336,291.0511748999997,291.0511748999997,291.0511748999997,293.70091660000617,right,1.0,15.95960129998275,,,,,,,,,,,,,,,,,,,,,,,,,,,,,,sub-064,1.0,random_dot,60.04019090228104,
left,left,accuracy,,,,,0.0,1.0,1.0,0.0,22.0,0.0,44.0,0.0,293.714944700012,,,,,,,,,293.7032801000023,294.9136104000063,295.71334950000164,295.69752380000136,295.69757210000535,295.71334950000164,295.71334950000164,295.71334950000164,296.4814462000068,right,0.0,14.083649499996682,,,,,,,,,,,,,,,,,,,,,,,,,,,,,,sub-064,1.0,random_dot,60.04019090228104,
right,right,accuracy,,,,,0.0,1.0,1.0,0.0,22.0,1.0,45.0,1.0,296.4953266000084,,,,,,,,,296.4838541000063,296.59525700000813,297.3950837000011,297.37938589999976,297.3794323000038,297.3950837000011,297.3950837000011,297.3950837000011,298.5463228000008,left,0.0,14.458072299981724,,,,,,,,,,,,,,,,,,,,,,,,,,,,,,sub-064,1.0,random_dot,60.04019090228104,
right,right,accuracy,,,,,0.0,1.0,1.0,0.0,23.0,0.0,46.0,1.0,298.56001250000554,,,,,,,,,298.54874130000826,299.75899860000936,300.5588312000036,300.54287750000367,300.54292560000613,300.5588312000036,300.5588312000036,300.5588312000036,301.1438848000107,right,1.0,13.89719099998183,,,,,,,,,,,,,,,,,,,,,,,,,,,,,,sub-064,1.0,random_dot,60.04019090228104,
left,left,accuracy,,,,,0.0,1.0,1.0,0.0,23.0,1.0,47.0,0.0,301.1578292000049,,,,,,,,,301.14631760001066,301.9570992000081,302.7572291000106,302.7413439000084,302.74140670000634,302.7572291000106,302.7572291000106,302.7572291000106,303.4752226000128,left,1.0,14.027109999980894,,,,,,,,,,,,,,,,,,,,,,,,,,,,,,sub-064,1.0,random_dot,60.04019090228104,
left,left,accuracy,,,,,0.0,1.0,1.0,0.0,24.0,0.0,48.0,0.0,303.4890863000037,,,,,,,,,303.4779658000043,304.6884771000041,305.5047032000002,305.4891963000118,305.4893015000125,305.5047032000002,305.5047032000002,305.5047032000002,306.888903900006,right,0.0,14.687321199991857,,,,,,,,,,,,,,,,,,,,,,,,,,,,,,sub-064,1.0,random_dot,60.04019090228104,
right,right,accuracy,,,,,0.0,1.0,1.0,0.0,24.0,1.0,49.0,1.0,306.9022498000122,,,,,,,,,306.89167910000833,307.7016890000086,308.50109879999945,308.48508030000085,308.4851078000065,308.50109879999945,308.50109879999945,308.50109879999945,311.3513314000011,left,0.0,16.164403699993272,,,,,,,,,,,,,,,,,,,,,,,,,,,,,,sub-064,1.0,random_dot,60.04019090228104,
right,right,accuracy,,,,,0.0,1.0,1.0,0.0,25.0,0.0,50.0,1.0,311.36492440001166,,,,,,,,,311.354502000002,311.7147715000028,312.5143498000107,312.4986715000123,312.49872460000915,312.5143498000107,312.5143498000107,312.5143498000107,313.0998427000013,left,0.0,13.89525559998583,,,,,,,,,,,,,,,,,,,,,,,,,,,,,,sub-064,1.0,random_dot,60.04019090228104,
left,left,accuracy,,,,,0.0,1.0,1.0,0.0,25.0,1.0,51.0,0.0,313.1132288000081,,,,,,,,,313.1024432000122,314.3120598000096,315.11204000000726,315.09625970000343,315.09631260001333,315.11204000000726,315.11204000000726,315.11204000000726,317.1131124000094,left,1.0,15.316146500001196,,,,,,,,,,,,,,,,,,,,,,,,,,,,,,sub-064,1.0,random_dot,60.04019090228104,
right,right,accuracy,,,,,0.0,1.0,1.0,0.0,26.0,0.0,52.0,1.0,317.1263140000083,,,,,,,,,317.1157431000029,318.32539920001,319.1246650000103,319.1091621000087,319.1092148000025,319.1246650000103,319.1246650000103,319.1246650000103,320.2929868000065,right,1.0,14.47263789999124,,,,,,,,,,,,,,,,,,,,,,,,,,,,,,sub-064,1.0,random_dot,60.04019090228104,
left,left,accuracy,,,,,0.0,1.0,1.0,0.0,26.0,1.0,53.0,0.0,320.3064947000093,,,,,,,,,320.29559020001034,321.505651200001,322.30512460001046,322.2895664000098,322.28961880000134,322.30512460001046,322.30512460001046,322.30512460001046,322.8407731000043,right,0.0,13.846871499990812,,,,,,,,,,,,,,,,,,,,,,,,,,,,,,sub-064,1.0,random_dot,60.04019090228104,
left,left,accuracy,,,,,0.0,1.0,1.0,0.0,27.0,0.0,54.0,0.0,322.85398330001044,,,,,,,,,322.84353160001046,323.20382520000567,324.0039367999998,323.98802240000805,323.98807840001245,324.0039367999998,324.0039367999998,324.0039367999998,324.8890458000096,left,1.0,14.200977399988917,,,,,,,,,,,,,,,,,,,,,,,,,,,,,,sub-064,1.0,random_dot,60.04019090228104,
right,right,accuracy,,,,,0.0,1.0,1.0,0.0,27.0,1.0,55.0,1.0,324.902284900003,,,,,,,,,324.891717800012,325.7013872000098,326.50109840001096,326.48592390000704,326.48597890000383,326.50109840001096,326.50109840001096,326.50109840001096,327.43608700000914,right,1.0,14.241804799981765,,,,,,,,,,,,,,,,,,,,,,,,,,,,,,sub-064,1.0,random_dot,60.04019090228104,
right,right,accuracy,,,,,0.0,1.0,1.0,0.0,28.0,0.0,56.0,1.0,327.44986079999944,,,,,,,,,327.4384547000081,327.7993787000014,328.5991954000056,328.58346960000927,328.5835175000102,328.5991954000056,328.5991954000056,328.5991954000056,331.3335156000103,left,0.0,16.035934899991844,,,,,,,,,,,,,,,,,,,,,,,,,,,,,,sub-064,1.0,random_dot,60.04019090228104,
left,left,accuracy,,,,,0.0,1.0,1.0,0.0,28.0,1.0,57.0,0.0,331.3463359000016,,,,,,,,,331.336976400009,332.1457500000106,332.94543410000915,332.92972010000085,332.9297902000108,332.94543410000915,332.94543410000915,332.94543410000915,334.3955210000131,left,1.0,14.7529539999814,,,,,,,,,,,,,,,,,,,,,,,,,,,,,,sub-064,1.0,random_dot,60.04019090228104,
right,right,accuracy,,,,,0.0,1.0,1.0,0.0,29.0,0.0,58.0,1.0,334.410097400003,,,,,,,,,334.3974283999996,335.6087470000057,336.40853450000577,336.3927825999999,336.3928307000024,336.40853450000577,336.40853450000577,336.40853450000577,337.85978500000783,right,1.0,14.762041599984514,,,,,,,,,,,,,,,,,,,,,,,,,,,,,,sub-064,1.0,random_dot,60.04019090228104,
left,left,accuracy,,,,,0.0,1.0,1.0,0.0,29.0,1.0,59.0,0.0,337.8736019000062,,,,,,,,,337.8623429,337.97332120001374,338.7732032000058,338.7571725000016,338.75721540000814,338.7732032000058,338.7732032000058,338.7732032000058,339.690958200008,left,1.0,14.233112899994012,,,,,,,,,,,,,,,,,,,,,,,,,,,,,,sub-064,1.0,random_dot,60.04019090228104,
,,accuracy,,,,,0.0,1.0,1.0,0.0,,,,,,,,,,,,,,,,,,,,,,,,,,,,,,,,,,,,,,,,,,,,,,,,,,,,,,,sub-064,1.0,random_dot,60.04019090228104,
,,,,,,,,,,,,,,,,,,,,,,,,,,,,,,,,,,,,,,,,,,,,,,,,,,,,,,,,,,,,,,339.6925229000044,339.7052410000033,344.70107810001355,sub-064,,,,
