direction,corrAns,randomInstr,practice_trials.thisRepN,practice_trials.thisTrialN,practice_trials.thisN,practice_trials.thisIndex,instr_trials.thisRepN,instr_trials.thisTrialN,instr_trials.thisN,instr_trials.thisIndex,test_trials.thisRepN,test_trials.thisTrialN,test_trials.thisN,test_trials.thisIndex,thisRow.t,notes,general_instruction.started,textGeneralInstr.started,respGeneralInstr.started,general_instruction.stopped,respGeneralInstr.keys,respGeneralInstr.rt,respGeneralInstr.duration,ITI.started,fixcross.started,fixcross.stopped,ITI.stopped,dots.started,backgroundDots.started,stimulusDots.started,respDots.started,dots.stopped,respDots.keys,respDots.corr,respDots.rt,respDots.duration,feedback.started,textFeedback.started,textFeedback.stopped,feedback.stopped,info.started,textInfo.started,keyRespInfo.started,info.stopped,keyRespInfo.keys,keyRespInfo.rt,keyRespInfo.duration,test_instruction.started,textTestInstr.started,respTestInstr.started,test_instruction.stopped,respTestInstr.keys,respTestInstr.rt,respTestInstr.duration,random_instruction.started,textRandomInstr.started,respRandomInstr.started,random_instruction.stopped,respRandomInstr.keys,respRandomInstr.rt,respRandomInstr.duration,goodbye.started,textGoodbye.started,participant,session,expName,frameRate,Unnamed: 71
,,,,,,,,,,,,,,,,,0.0021592000011878,0.0046386000012716,0.0046386000012716,12.81177150000076,space,22.382785399999197,,,,,,,,,,,,,,,,,,,,,,,,,,,,,,,,,,,,,,,,,,sub-196,1.0,random_dot,60.08456301371599,
right,right,,0.0,0.0,0.0,1.0,,,,,,,,,12.821053500001652,,,,,,,,,12.818518200001565,13.167809000000489,13.967098400000395,13.951234500000282,13.951273700000456,13.967098400000395,13.967098400000395,13.967098400000395,14.684113000001162,right,1.0,10.325712500000009,,14.684863200000107,14.699123899999904,15.198822000000291,15.182881200000338,,,,,,,,,,,,,,,,,,,,,,,,sub-196,1.0,random_dot,60.08456301371599,
left,left,,0.0,1.0,1.0,0.0,,,,,,,,,15.198822000000291,,,,,,,,,15.183181700000205,16.397828300001493,17.19762780000019,17.18126570000095,17.1813058000007,17.19762780000019,17.19762780000019,17.19762780000019,18.2904180000005,left,1.0,10.679364100000384,,18.29097550000006,18.295996200000445,18.795568999999887,18.78045940000084,,,,,,,,,,,,,,,,,,,,,,,,sub-196,1.0,random_dot,60.08456301371599,
left,left,,1.0,0.0,2.0,0.0,,,,,,,,,18.795568999999887,,,,,,,,,18.781275800000003,19.145546900001136,19.96142110000073,19.945210100000622,19.945236400000795,19.96142110000073,19.96142110000073,19.96142110000073,21.4950043000008,left,1.0,11.130078399999547,,21.49555110000074,21.50977840000087,22.00922190000165,21.994148800000403,,,,,,,,,,,,,,,,,,,,,,,,sub-196,1.0,random_dot,60.08456301371599,
right,right,,1.0,1.0,3.0,1.0,,,,,,,,,22.00922190000165,,,,,,,,,21.994878000001336,22.358799500001624,23.158793500000684,23.142397800000253,23.1424388000014,23.158793500000684,23.158793500000684,23.158793500000684,24.55930630000148,right,1.0,10.998742600000696,,24.560030300001017,24.573584499999924,25.072756100000333,25.056752100001177,,,,,,,,,,,,,,,,,,,,,,,,sub-196,1.0,random_dot,60.08456301371599,
left,left,,2.0,0.0,4.0,0.0,,,,,,,,,25.072756100000333,,,,,,,,,25.05699740000091,26.27213490000031,27.07166030000008,27.055979100001423,27.05602500000168,27.07166030000008,27.07166030000008,27.07166030000008,28.739064600000347,left,1.0,11.267037800000251,,28.739803800001027,28.752935600001365,29.252465000001397,29.23756110000068,,,,,,,,,,,,,,,,,,,,,,,,sub-196,1.0,random_dot,60.08456301371599,
right,right,,2.0,1.0,5.0,1.0,,,,,,,,,29.252465000001397,,,,,,,,,29.238351400001196,30.051869000000806,30.851491299999907,30.835830900001383,30.83589040000152,30.851491299999907,30.851491299999907,30.851491299999907,32.33664510000017,right,1.0,11.088025500001097,,32.33701830000064,32.34951280000132,32.84873870000047,32.832606700001634,,,,,,,,,,,,,,,,,,,,,,,,sub-196,1.0,random_dot,60.08456301371599,
left,left,,3.0,0.0,6.0,0.0,,,,,,,,,32.84873870000047,,,,,,,,,32.83290240000133,32.94876470000054,33.74872590000086,33.73337910000009,33.73343040000145,33.74872590000086,33.74872590000086,33.74872590000086,35.347351100001106,left,1.0,11.19652490000044,,35.3476412,35.363178999999946,35.86310830000002,35.84753940000155,,,,,,,,,,,,,,,,,,,,,,,,sub-196,1.0,random_dot,60.08456301371599,
right,right,,3.0,1.0,7.0,1.0,,,,,,,,,35.86310830000002,,,,,,,,,35.84824200000003,36.21287990000019,37.01246820000051,36.99639980000029,36.99644530000114,37.01246820000051,37.01246820000051,37.01246820000051,38.728977300001134,right,1.0,11.310366599998815,,38.72961639999994,38.74371340000107,39.24300160000166,39.22784339999998,,,,,,,,,,,,,,,,,,,,,,,,sub-196,1.0,random_dot,60.08456301371599,
left,left,,4.0,0.0,8.0,0.0,,,,,,,,,39.24300160000166,,,,,,,,,39.2285909000002,39.59272620000047,40.39225020000049,40.37677600000097,40.37687030000052,40.39225020000049,40.39225020000049,40.39225020000049,41.69317030000093,left,1.0,10.898149799999372,,41.69388810000055,41.70760210000117,42.20724640000117,42.19165360000079,,,,,,,,,,,,,,,,,,,,,,,,sub-196,1.0,random_dot,60.08456301371599,
right,right,,4.0,1.0,9.0,1.0,,,,,,,,,42.20724640000117,,,,,,,,,42.19250260000081,43.405684100000144,44.20559260000118,44.18877000000066,44.18878230000155,44.20559260000118,44.20559260000118,44.20559260000118,45.4132879000008,right,1.0,10.801132000000509,,45.41376090000085,45.42041750000135,45.920147500000894,45.90388130000065,,,,,,,,,,,,,,,,,,,,,,,,sub-196,1.0,random_dot,60.08456301371599,
left,left,,5.0,0.0,10.0,0.0,,,,,,,,,45.920147500000894,,,,,,,,,45.904090500000166,46.719485100000384,47.519216400000005,47.503261300000304,47.50330610000128,47.519216400000005,47.519216400000005,47.519216400000005,48.65226530000109,left,1.0,10.728152800000316,,48.65291310000066,48.66767360000085,49.16716570000062,49.15186160000121,,,,,,,,,,,,,,,,,,,,,,,,sub-196,1.0,random_dot,60.08456301371599,
right,right,,5.0,1.0,11.0,1.0,,,,,,,,,49.16716570000062,,,,,,,,,49.15255350000007,49.51691570000003,50.31670500000109,50.30033640000147,50.30036950000067,50.31670500000109,50.31670500000109,50.31670500000109,51.48372510000081,right,1.0,10.768680499999393,,51.48443430000043,51.49828940000043,51.99795600000107,51.981727300000784,,,,,,,,,,,,,,,,,,,,,,,,sub-196,1.0,random_dot,60.08456301371599,
left,left,,6.0,0.0,12.0,0.0,,,,,,,,,51.99795600000107,,,,,,,,,51.98218230000021,52.797104700001,53.59640450000006,53.580359300000055,53.58038790000137,53.59640450000006,53.59640450000006,53.59640450000006,55.31376880000062,left,1.0,11.322416099998009,,55.31441460000133,55.32812850000119,55.82751200000166,55.81228820000069,,,,,,,,,,,,,,,,,,,,,,,,sub-196,1.0,random_dot,60.08456301371599,
right,right,,6.0,1.0,13.0,1.0,,,,,,,,,55.82751200000166,,,,,,,,,55.81303140000091,56.17714280000109,56.97704270000031,56.961372600000686,56.96141830000124,56.97704270000031,56.97704270000031,56.97704270000031,58.26070240000081,right,1.0,10.886355099999491,,58.26148120000107,58.27522529999988,58.77485800000068,58.759760599999936,,,,,,,,,,,,,,,,,,,,,,,,sub-196,1.0,random_dot,60.08456301371599,
left,left,,7.0,0.0,14.0,0.0,,,,,,,,,58.77485800000068,,,,,,,,,58.76051180000104,58.87460050000118,59.67464430000109,59.658926100000826,59.658984200001214,59.67464430000109,59.67464430000109,59.67464430000109,60.75900069999989,left,1.0,10.686723199998596,,60.75979540000117,60.77311499999996,61.27243870000166,61.25667969999995,,,,,,,,,,,,,,,,,,,,,,,,sub-196,1.0,random_dot,60.08456301371599,
right,right,,7.0,1.0,15.0,1.0,,,,,,,,,61.27243870000166,,,,,,,,,61.25714000000153,61.37239540000155,62.17232920000061,62.15615960000105,62.15620130000025,62.17232920000061,62.17232920000061,62.17232920000061,63.53921710000032,right,1.0,10.967686699999833,,63.539967000000615,63.55372690000149,64.05324720000135,64.03787080000075,,,,,,,,,,,,,,,,,,,,,,,,sub-196,1.0,random_dot,60.08456301371599,
left,left,,8.0,0.0,16.0,0.0,,,,,,,,,64.05324720000135,,,,,,,,,64.03856530000121,64.15306990000136,64.95281930000056,64.93727000000035,64.93731500000104,64.95281930000056,64.95281930000056,64.95281930000056,66.31935990000056,left,1.0,10.974720099999104,,66.31982480000079,66.3345059000003,66.83379140000034,66.81760320000103,,,,,,,,,,,,,,,,,,,,,,,,sub-196,1.0,random_dot,60.08456301371599,
right,right,,8.0,1.0,17.0,1.0,,,,,,,,,66.83379140000034,,,,,,,,,66.81788960000085,67.18348980000155,67.98337680000077,67.96709570000166,67.96713630000158,67.98337680000077,67.98337680000077,67.98337680000077,69.64926200000082,right,1.0,11.272345500001393,,69.6497556000013,69.6646123999999,70.1644567000003,70.1483242000013,,,,,,,,,,,,,,,,,,,,,,,,sub-196,1.0,random_dot,60.08456301371599,
left,left,,9.0,0.0,18.0,0.0,,,,,,,,,70.1644567000003,,,,,,,,,70.1489328000007,70.96317160000035,71.7629667000001,71.74667110000155,71.74670140000126,71.7629667000001,71.7629667000001,71.7629667000001,73.18038370000068,left,1.0,11.01905899999838,,73.18112220000148,73.19448180000109,73.69406150000032,73.67788360000122,,,,,,,,,,,,,,,,,,,,,,,,sub-196,1.0,random_dot,60.08456301371599,
right,right,,9.0,1.0,19.0,1.0,,,,,,,,,73.69406150000032,,,,,,,,,73.67825670000093,74.49353650000012,75.29315250000036,75.27710450000086,75.27714190000006,75.29315250000036,75.29315250000036,75.29315250000036,77.51005820000137,right,1.0,11.810477299999548,,77.51100460000089,77.52411850000135,78.02334020000126,78.00722060000044,,,,,,,,,,,,,,,,,,,,,,,,sub-196,1.0,random_dot,60.08456301371599,
,,,,,,,,,,,,,,,,,,,,,,,,,,,,,,,,,,,,,,,,,78.00729000000138,78.02334020000126,78.02334020000126,80.08993689999988,space,11.66770180000094,,,,,,,,,,,,,,,,,,sub-196,1.0,random_dot,60.08456301371599,
,,,,,,,,,,,,,,,,,,,,,,,,,,,,,,,,,,,,,,,,,,,,,,,,80.08999220000078,80.10506810000152,80.10506810000152,86.5159734000008,space,16.017627399998673,,,,,,,,,,,sub-196,1.0,random_dot,60.08456301371599,
right,right,accuracy,,,,,0.0,0.0,0.0,0.0,0.0,0.0,0.0,1.0,90.69489720000092,,,,,,,,,90.68993460000092,91.89414780000152,92.69324270000106,92.6777861999999,92.67783560000134,92.69324270000106,92.69324270000106,92.69324270000106,95.70850659999996,right,1.0,12.609364500000083,,,,,,,,,,,,,,,,,,,,86.5184403000003,86.53189340000063,86.53189340000063,90.68093580000097,space,13.746041200000036,,,,sub-196,1.0,random_dot,60.08456301371599,
left,left,accuracy,,,,,0.0,0.0,0.0,0.0,0.0,1.0,1.0,0.0,95.72367510000004,,,,,,,,,95.70961050000004,96.5230319000002,97.3224803000012,97.30684560000007,97.3068914000014,97.3224803000012,97.3224803000012,97.3224803000012,100.32152810000116,left,1.0,12.59256109999842,,,,,,,,,,,,,,,,,,,,,,,,,,,,,sub-196,1.0,random_dot,60.08456301371599,
left,left,accuracy,,,,,0.0,0.0,0.0,0.0,1.0,0.0,2.0,0.0,100.33596100000068,,,,,,,,,100.32290380000086,100.6853286000005,101.48525280000104,101.46942410000156,101.46946130000106,101.48525280000104,101.48525280000104,101.48525280000104,104.21665440000106,left,1.0,12.326292299998386,,,,,,,,,,,,,,,,,,,,,,,,,,,,,sub-196,1.0,random_dot,60.08456301371599,
right,right,accuracy,,,,,0.0,0.0,0.0,0.0,1.0,1.0,3.0,1.0,104.23209540000062,,,,,,,,,104.21723710000153,104.33216830000129,105.1318783000006,105.11595510000006,105.11599210000168,105.1318783000006,105.1318783000006,105.1318783000006,108.2307238000012,right,1.0,12.702656499999648,,,,,,,,,,,,,,,,,,,,,,,,,,,,,sub-196,1.0,random_dot,60.08456301371599,
left,left,accuracy,,,,,0.0,0.0,0.0,0.0,2.0,0.0,4.0,0.0,108.24532570000156,,,,,,,,,108.2320834000002,109.44415890000164,110.24375200000031,110.22776760000124,110.22781080000097,110.24375200000031,110.24375200000031,110.24375200000031,112.65954410000086,left,1.0,12.015887299998212,,,,,,,,,,,,,,,,,,,,,,,,,,,,,sub-196,1.0,random_dot,60.08456301371599,
right,right,accuracy,,,,,0.0,0.0,0.0,0.0,2.0,1.0,5.0,1.0,112.67429750000156,,,,,,,,,112.66077630000107,113.02416050000102,113.84020870000133,113.82351590000144,113.82354200000007,113.84020870000133,113.84020870000133,113.84020870000133,115.84040800000002,right,1.0,11.607177399999271,,,,,,,,,,,,,,,,,,,,,,,,,,,,,sub-196,1.0,random_dot,60.08456301371599,
right,right,accuracy,,,,,0.0,0.0,0.0,0.0,3.0,0.0,6.0,1.0,115.85459120000088,,,,,,,,,115.8416412000006,117.05363970000144,117.85319300000084,117.83678360000158,117.8368188000004,117.85319300000084,117.85319300000084,117.85319300000084,120.84116780000112,left,0.0,12.587276799999016,,,,,,,,,,,,,,,,,,,,,,,,,,,,,sub-196,1.0,random_dot,60.08456301371599,
left,left,accuracy,,,,,0.0,0.0,0.0,0.0,3.0,1.0,7.0,0.0,120.84992000000057,,,,,,,,,120.84217830000124,120.94970270000158,121.7496658,121.73313690000032,121.73314879999998,121.7496658,121.7496658,121.7496658,124.43087660000128,left,1.0,12.279523100000006,,,,,,,,,,,,,,,,,,,,,,,,,,,,,sub-196,1.0,random_dot,60.08456301371599,
right,right,accuracy,,,,,0.0,0.0,0.0,0.0,4.0,0.0,8.0,1.0,124.44633760000032,,,,,,,,,124.4313972,124.79625710000072,125.5958223000016,125.57974920000017,125.57977840000058,125.5958223000016,125.5958223000016,125.5958223000016,128.4783449000006,right,1.0,12.487901700000291,,,,,,,,,,,,,,,,,,,,,,,,,,,,,sub-196,1.0,random_dot,60.08456301371599,
left,left,accuracy,,,,,0.0,0.0,0.0,0.0,4.0,1.0,9.0,0.0,128.49313170000096,,,,,,,,,128.47966740000084,129.29186300000038,130.0917176000003,130.0748730000014,130.07488640000156,130.0917176000003,130.0917176000003,130.0917176000003,132.88940360000015,left,1.0,12.397925199999008,,,,,,,,,,,,,,,,,,,,,,,,,,,,,sub-196,1.0,random_dot,60.08456301371599,
left,left,accuracy,,,,,0.0,0.0,0.0,0.0,5.0,0.0,10.0,0.0,132.9050468000005,,,,,,,,,132.88992240000152,134.1039589000011,134.90393230000154,134.88755260000107,134.88757570000053,134.90393230000154,134.90393230000154,134.90393230000154,137.74492190000092,left,1.0,12.422615699999367,,,,,,,,,,,,,,,,,,,,,,,,,,,,,sub-196,1.0,random_dot,60.08456301371599,
right,right,accuracy,,,,,0.0,0.0,0.0,0.0,5.0,1.0,11.0,1.0,137.74746320000122,,,,,,,,,137.74544620000052,138.54988709999998,139.34965580000062,139.3332573000007,139.33327950000057,139.34965580000062,139.34965580000062,139.34965580000062,142.18113390000144,right,1.0,12.439797699998962,,,,,,,,,,,,,,,,,,,,,,,,,,,,,sub-196,1.0,random_dot,60.08456301371599,
left,left,accuracy,,,,,0.0,0.0,0.0,0.0,6.0,0.0,12.0,0.0,142.19669050000084,,,,,,,,,142.18164180000167,142.54635100000087,143.34601000000112,143.3300057000015,143.33003670000107,143.34601000000112,143.34601000000112,143.34601000000112,145.57836990000033,left,1.0,11.831162599999516,,,,,,,,,,,,,,,,,,,,,,,,,,,,,sub-196,1.0,random_dot,60.08456301371599,
right,right,accuracy,,,,,0.0,0.0,0.0,0.0,6.0,1.0,13.0,1.0,145.59330690000024,,,,,,,,,145.57880550000118,146.39237980000144,147.19214100000136,147.1754808000005,147.1754933000011,147.19214100000136,147.19214100000136,147.19214100000136,148.3917805000001,right,1.0,10.806622399999467,,,,,,,,,,,,,,,,,,,,,,,,,,,,,sub-196,1.0,random_dot,60.08456301371599,
left,left,accuracy,,,,,0.0,0.0,0.0,0.0,7.0,0.0,14.0,0.0,148.4074853000002,,,,,,,,,148.39236210000126,148.50743990000046,149.30721730000005,149.29044270000122,149.29045640000004,149.30721730000005,149.30721730000005,149.30721730000005,150.90786350000053,left,1.0,11.208823699998902,,,,,,,,,,,,,,,,,,,,,,,,,,,,,sub-196,1.0,random_dot,60.08456301371599,
right,right,accuracy,,,,,0.0,0.0,0.0,0.0,7.0,1.0,15.0,1.0,150.92192160000013,,,,,,,,,150.90837450000072,151.72120990000076,152.52062220000153,152.50437190000048,152.50439440000082,152.52062220000153,152.52062220000153,152.52062220000153,154.53674490000049,right,1.0,11.619169299998248,,,,,,,,,,,,,,,,,,,,,,,,,,,,,sub-196,1.0,random_dot,60.08456301371599,
left,left,accuracy,,,,,0.0,0.0,0.0,0.0,8.0,0.0,16.0,0.0,154.55173040000045,,,,,,,,,154.53795260000152,155.3511466,156.15071510000053,156.1340037000009,156.1340177000002,156.15071510000053,156.15071510000053,156.15071510000053,157.85360240000043,left,1.0,11.291272699998444,,,,,,,,,,,,,,,,,,,,,,,,,,,,,sub-196,1.0,random_dot,60.08456301371599,
right,right,accuracy,,,,,0.0,0.0,0.0,0.0,8.0,1.0,17.0,1.0,157.8571718000003,,,,,,,,,157.85451430000103,158.2151741000016,159.01479810000092,158.99806330000138,158.99807540000074,159.01479810000092,159.01479810000092,159.01479810000092,160.73091810000005,right,1.0,11.315109299999676,,,,,,,,,,,,,,,,,,,,,,,,,,,,,sub-196,1.0,random_dot,60.08456301371599,
right,right,accuracy,,,,,0.0,0.0,0.0,0.0,9.0,0.0,18.0,1.0,160.74592610000036,,,,,,,,,160.73242840000057,161.09576910000033,161.89536220000082,161.87894480000068,161.87896900000123,161.89536220000082,161.89536220000082,161.89536220000082,164.7098289000005,left,0.0,12.41602839999905,,,,,,,,,,,,,,,,,,,,,,,,,,,,,sub-196,1.0,random_dot,60.08456301371599,
left,left,accuracy,,,,,0.0,0.0,0.0,0.0,9.0,1.0,19.0,0.0,164.72542930000054,,,,,,,,,164.71044299999994,165.92435750000004,166.72410490000038,166.70802800000092,166.70806600000105,166.72410490000038,166.72410490000038,166.72410490000038,169.12460550000105,left,1.0,11.996314699999855,,,,,,,,,,,,,,,,,,,,,,,,,,,,,sub-196,1.0,random_dot,60.08456301371599,
right,right,accuracy,,,,,0.0,0.0,0.0,0.0,10.0,0.0,20.0,1.0,169.13833670000167,,,,,,,,,169.12608810000165,169.4880247000001,170.2875496000015,170.2713829000004,170.27141990000018,170.2875496000015,170.2875496000015,170.2875496000015,171.8871282,right,1.0,11.20844070000021,,,,,,,,,,,,,,,,,,,,,,,,,,,,,sub-196,1.0,random_dot,60.08456301371599,
left,left,accuracy,,,,,0.0,0.0,0.0,0.0,10.0,1.0,21.0,0.0,171.90224260000105,,,,,,,,,171.88756810000086,172.70165980000093,173.50122550000015,173.48533660000066,173.4853759000016,173.50122550000015,173.50122550000015,173.50122550000015,175.33443360000092,left,1.0,11.431398299999271,,,,,,,,,,,,,,,,,,,,,,,,,,,,,sub-196,1.0,random_dot,60.08456301371599,
right,right,accuracy,,,,,0.0,0.0,0.0,0.0,11.0,0.0,22.0,1.0,175.34910630000013,,,,,,,,,175.3356188000016,176.14806970000063,176.9479996000009,176.93224040000132,176.9322817000011,176.9479996000009,176.9479996000009,176.9479996000009,178.8144054000004,right,1.0,11.471441399999094,,,,,,,,,,,,,,,,,,,,,,,,,,,,,sub-196,1.0,random_dot,60.08456301371599,
left,left,accuracy,,,,,0.0,0.0,0.0,0.0,11.0,1.0,23.0,0.0,178.8291104,,,,,,,,,178.81559190000007,179.62836830000015,180.4443949000015,180.42747660000168,180.4274871000016,180.4443949000015,180.4443949000015,180.4443949000015,181.6274758,left,1.0,10.790839999999662,,,,,,,,,,,,,,,,,,,,,,,,,,,,,sub-196,1.0,random_dot,60.08456301371599,
left,left,accuracy,,,,,0.0,0.0,0.0,0.0,12.0,0.0,24.0,0.0,181.642958800001,,,,,,,,,181.62801970000143,181.99283640000067,182.7924884000004,182.77558690000117,182.77560660000017,182.7924884000004,182.7924884000004,182.7924884000004,184.4094673,left,1.0,11.218904699999255,,,,,,,,,,,,,,,,,,,,,,,,,,,,,sub-196,1.0,random_dot,60.08456301371599,
right,right,accuracy,,,,,0.0,0.0,0.0,0.0,12.0,1.0,25.0,1.0,184.423992,,,,,,,,,184.41080970000075,185.2231924000007,186.0228833000001,186.00636510000004,186.00639600000068,186.0228833000001,186.0228833000001,186.0228833000001,187.9392605000012,right,1.0,11.51013669999884,,,,,,,,,,,,,,,,,,,,,,,,,,,,,sub-196,1.0,random_dot,60.08456301371599,
left,left,accuracy,,,,,0.0,0.0,0.0,0.0,13.0,0.0,26.0,0.0,187.9539162000001,,,,,,,,,187.9404783000009,188.75371460000133,189.5696780000017,189.55270060000112,189.55272289999996,189.5696780000017,189.5696780000017,189.5696780000017,191.22003600000065,left,1.0,11.247014399999898,,,,,,,,,,,,,,,,,,,,,,,,,,,,,sub-196,1.0,random_dot,60.08456301371599,
right,right,accuracy,,,,,0.0,0.0,0.0,0.0,13.0,1.0,27.0,1.0,191.23412120000103,,,,,,,,,191.22147180000135,191.5840991000005,192.3837143000001,192.36844139999997,192.36849299999997,192.3837143000001,192.3837143000001,192.3837143000001,194.59864910000036,right,1.0,11.811376899999232,,,,,,,,,,,,,,,,,,,,,,,,,,,,,sub-196,1.0,random_dot,60.08456301371599,
right,right,accuracy,,,,,0.0,0.0,0.0,0.0,14.0,0.0,28.0,1.0,194.6140839,,,,,,,,,194.5994941000008,195.8131043000012,196.61308960000133,196.5970473000016,196.5971227000009,196.61308960000133,196.61308960000133,196.61308960000133,198.8293032000001,right,1.0,11.81882510000105,,,,,,,,,,,,,,,,,,,,,,,,,,,,,sub-196,1.0,random_dot,60.08456301371599,
left,left,accuracy,,,,,0.0,0.0,0.0,0.0,14.0,1.0,29.0,0.0,198.84375499999987,,,,,,,,,198.83052490000048,198.9439106000009,199.75976450000053,199.7428013000008,199.74281370000065,199.75976450000053,199.75976450000053,199.75976450000053,202.06131750000168,left,1.0,11.909052099999826,,,,,,,,,,,,,,,,,,,,,,,,,,,,,sub-196,1.0,random_dot,60.08456301371599,
left,left,accuracy,,,,,0.0,0.0,0.0,0.0,15.0,0.0,30.0,0.0,202.0740459000008,,,,,,,,,202.06253090000064,203.2731586000009,204.0728319000009,204.0564050000012,204.0564374000005,204.0728319000009,204.0728319000009,204.0728319000009,205.50607889999992,left,1.0,11.03670620000048,,,,,,,,,,,,,,,,,,,,,,,,,,,,,sub-196,1.0,random_dot,60.08456301371599,
right,right,accuracy,,,,,0.0,0.0,0.0,0.0,15.0,1.0,31.0,1.0,205.5207037,,,,,,,,,205.5071222000006,206.32004700000107,207.11980750000112,207.10399400000097,207.10404010000093,207.11980750000112,207.11980750000112,207.11980750000112,208.2723870000009,right,1.0,10.759852299999691,,,,,,,,,,,,,,,,,,,,,,,,,,,,,sub-196,1.0,random_dot,60.08456301371599,
right,right,accuracy,,,,,0.0,0.0,0.0,0.0,16.0,0.0,32.0,1.0,208.2848281000006,,,,,,,,,208.27361420000125,209.08397440000044,209.8838942000002,209.8676546000006,209.8676888000009,209.8838942000002,209.8838942000002,209.8838942000002,214.36455190000012,right,1.0,14.07709900000009,,,,,,,,,,,,,,,,,,,,,,,,,,,,,sub-196,1.0,random_dot,60.08456301371599,
left,left,accuracy,,,,,0.0,0.0,0.0,0.0,16.0,1.0,33.0,0.0,214.37910590000135,,,,,,,,,214.36568370000168,214.7289759000014,215.5284840000004,215.51280159999988,215.5128476000009,215.5284840000004,215.5284840000004,215.5284840000004,218.13445720000163,left,1.0,12.204393099998924,,,,,,,,,,,,,,,,,,,,,,,,,,,,,sub-196,1.0,random_dot,60.08456301371599,
right,right,accuracy,,,,,0.0,0.0,0.0,0.0,17.0,0.0,34.0,1.0,218.1422885000011,,,,,,,,,218.13490860000093,219.34090890000152,220.14102040000037,220.12522549999997,220.1252732000012,220.14102040000037,220.14102040000037,220.14102040000037,222.70667959999992,right,1.0,12.16446679999899,,,,,,,,,,,,,,,,,,,,,,,,,,,,,sub-196,1.0,random_dot,60.08456301371599,
left,left,accuracy,,,,,0.0,0.0,0.0,0.0,17.0,1.0,35.0,0.0,222.7213201000013,,,,,,,,,222.70783550000124,223.9201767000013,224.71977100000004,224.7030508000007,224.7030674000016,224.71977100000004,224.71977100000004,224.71977100000004,226.8697604000008,left,1.0,11.756062600001314,,,,,,,,,,,,,,,,,,,,,,,,,,,,,sub-196,1.0,random_dot,60.08456301371599,
right,right,accuracy,,,,,0.0,0.0,0.0,0.0,18.0,0.0,36.0,1.0,226.88421150000067,,,,,,,,,226.87119200000237,226.9841438000003,227.78379829999903,227.76791700000103,227.7679663000017,227.78379829999903,227.78379829999903,227.78379829999903,230.0318756000015,right,1.0,11.849933799998324,,,,,,,,,,,,,,,,,,,,,,,,,,,,,sub-196,1.0,random_dot,60.08456301371599,
left,left,accuracy,,,,,0.0,0.0,0.0,0.0,18.0,1.0,37.0,0.0,230.0477539000021,,,,,,,,,230.03258379999895,231.24648380000144,232.0470685,232.02940189999936,232.02941680000004,232.0470685,232.0470685,232.0470685,233.63007350000044,left,1.0,11.181793500001731,,,,,,,,,,,,,,,,,,,,,,,,,,,,,sub-196,1.0,random_dot,60.08456301371599,
left,left,accuracy,,,,,0.0,0.0,0.0,0.0,19.0,0.0,38.0,0.0,233.64467739999964,,,,,,,,,233.63197850000145,233.7440994999997,234.54408089999924,234.52791699999943,234.52795289999997,234.54408089999924,234.54408089999924,234.54408089999924,236.82752210000035,left,1.0,11.89164730000084,,,,,,,,,,,,,,,,,,,,,,,,,,,,,sub-196,1.0,random_dot,60.08456301371599,
right,right,accuracy,,,,,0.0,0.0,0.0,0.0,19.0,1.0,39.0,1.0,236.84142590000192,,,,,,,,,236.8284268999996,236.94162080000024,237.75742180000088,237.7409711,237.74099080000087,237.75742180000088,237.75742180000088,237.75742180000088,241.388890000002,right,1.0,13.232151799997157,,,,,,,,,,,,,,,,,,,,,,,,,,,,,sub-196,1.0,random_dot,60.08456301371599,
right,right,accuracy,,,,,0.0,0.0,0.0,0.0,20.0,0.0,40.0,1.0,241.4035874000001,,,,,,,,,241.3901416000008,242.6030776000007,243.4190899999994,243.4022757000021,243.40228910000224,243.4190899999994,243.4190899999994,243.4190899999994,245.56775330000164,right,1.0,11.756199399997058,,,,,,,,,,,,,,,,,,,,,,,,,,,,,sub-196,1.0,random_dot,60.08456301371599,
left,left,accuracy,,,,,0.0,0.0,0.0,0.0,20.0,1.0,41.0,0.0,245.58305720000132,,,,,,,,,245.56853780000165,245.93292230000225,246.7324852999991,246.71584200000143,246.71585680000132,246.7324852999991,246.7324852999991,246.7324852999991,249.5318453,left,1.0,12.401252900001056,,,,,,,,,,,,,,,,,,,,,,,,,,,,,sub-196,1.0,random_dot,60.08456301371599,
left,left,accuracy,,,,,0.0,0.0,0.0,0.0,21.0,0.0,42.0,0.0,249.54617620000136,,,,,,,,,249.53307700000005,249.6460893000003,250.44569899999988,250.43028440000128,250.4303443999997,250.44569899999988,250.44569899999988,250.44569899999988,252.31280960000004,left,1.0,11.462414700001318,,,,,,,,,,,,,,,,,,,,,,,,,,,,,sub-196,1.0,random_dot,60.08456301371599,
right,right,accuracy,,,,,0.0,0.0,0.0,0.0,21.0,1.0,43.0,1.0,252.3270059000024,,,,,,,,,252.31410250000044,253.1264271,253.9259144000025,253.91092950000169,253.91096620000096,253.9259144000025,253.9259144000025,253.9259144000025,254.90851770000157,right,1.0,10.572158100001616,,,,,,,,,,,,,,,,,,,,,,,,,,,,,sub-196,1.0,random_dot,60.08456301371599,
left,left,accuracy,,,,,0.0,0.0,0.0,0.0,22.0,0.0,44.0,0.0,254.9118904999996,,,,,,,,,254.90939340000116,255.72366709999915,256.5237097999998,256.5074143999991,256.5074574999999,256.5237097999998,256.5237097999998,256.5237097999998,257.6897289000008,left,1.0,10.761009699997883,,,,,,,,,,,,,,,,,,,,,,,,,,,,,sub-196,1.0,random_dot,60.08456301371599,
right,right,accuracy,,,,,0.0,0.0,0.0,0.0,22.0,1.0,45.0,1.0,257.7051500000016,,,,,,,,,257.690331400001,257.8053918000005,258.62141540000084,258.60440050000034,258.6044135000011,258.62141540000084,258.62141540000084,258.62141540000084,260.1382182000016,right,1.0,11.114495600000737,,,,,,,,,,,,,,,,,,,,,,,,,,,,,sub-196,1.0,random_dot,60.08456301371599,
left,left,accuracy,,,,,0.0,0.0,0.0,0.0,23.0,0.0,46.0,0.0,260.1530511000019,,,,,,,,,260.1393817999997,260.2527878000001,261.0523666000008,261.03574460000164,261.03577040000164,261.0523666000008,261.0523666000008,261.0523666000008,263.41846609999993,left,1.0,11.962072499996792,,,,,,,,,,,,,,,,,,,,,,,,,,,,,sub-196,1.0,random_dot,60.08456301371599,
right,right,accuracy,,,,,0.0,0.0,0.0,0.0,23.0,1.0,47.0,1.0,263.4333931000001,,,,,,,,,263.4196101000016,264.6320751000021,265.43197130000044,265.41613639999923,265.4161834000006,265.43197130000044,265.43197130000044,265.43197130000044,267.1486775000012,right,1.0,11.320149600001969,,,,,,,,,,,,,,,,,,,,,,,,,,,,,sub-196,1.0,random_dot,60.08456301371599,
left,left,accuracy,,,,,0.0,0.0,0.0,0.0,24.0,0.0,48.0,0.0,267.16310290000183,,,,,,,,,267.1499963000024,267.2631419999998,268.06257950000145,268.04596590000074,268.0459819000025,268.06257950000145,268.06257950000145,268.06257950000145,270.3782575000005,left,1.0,11.91525439999714,,,,,,,,,,,,,,,,,,,,,,,,,,,,,sub-196,1.0,random_dot,60.08456301371599,
right,right,accuracy,,,,,0.0,0.0,0.0,0.0,24.0,1.0,49.0,1.0,270.39336019999973,,,,,,,,,270.37936249999984,270.49303090000103,271.29278630000044,271.27606820000074,271.27608560000226,271.29278630000044,271.29278630000044,271.29278630000044,273.60959640000146,right,1.0,11.92466610000156,,,,,,,,,,,,,,,,,,,,,,,,,,,,,sub-196,1.0,random_dot,60.08456301371599,
right,right,accuracy,,,,,0.0,0.0,0.0,0.0,25.0,0.0,50.0,1.0,273.6237657999991,,,,,,,,,273.61070689999906,273.97367120000126,274.7899447000018,274.77362410000205,274.77366299999994,274.7899447000018,274.7899447000018,274.7899447000018,278.3038168000021,left,0.0,13.108258899997963,,,,,,,,,,,,,,,,,,,,,,,,,,,,,sub-196,1.0,random_dot,60.08456301371599,
left,left,accuracy,,,,,0.0,0.0,0.0,0.0,25.0,1.0,51.0,0.0,278.3191974000001,,,,,,,,,278.3044903000009,279.51788260000103,280.31786529999954,280.3019495000008,280.3019973000009,280.31786529999954,280.31786529999954,280.31786529999954,283.18269430000146,left,1.0,12.464269300000524,,,,,,,,,,,,,,,,,,,,,,,,,,,,,sub-196,1.0,random_dot,60.08456301371599,
right,right,accuracy,,,,,0.0,0.0,0.0,0.0,26.0,0.0,52.0,1.0,283.19790379999904,,,,,,,,,283.1833144000011,284.3970284999996,285.1963462000021,285.18116590000136,285.1812171999991,285.1963462000021,285.1963462000021,285.1963462000021,287.36183770000207,right,1.0,11.773911399997814,,,,,,,,,,,,,,,,,,,,,,,,,,,,,sub-196,1.0,random_dot,60.08456301371599,
left,left,accuracy,,,,,0.0,0.0,0.0,0.0,26.0,1.0,53.0,0.0,287.3773579000008,,,,,,,,,287.3625800000009,287.4777352000019,288.27707400000145,288.26169690000097,288.2617495000013,288.27707400000145,288.27707400000145,288.27707400000145,291.342096700002,left,1.0,12.669020700001056,,,,,,,,,,,,,,,,,,,,,,,,,,,,,sub-196,1.0,random_dot,60.08456301371599,
left,left,accuracy,,,,,0.0,0.0,0.0,0.0,27.0,0.0,54.0,0.0,291.3570863999994,,,,,,,,,291.34314580000137,292.556203600001,293.355729400002,293.3402463999992,293.3402974000019,293.355729400002,293.355729400002,293.355729400002,295.52085330000045,left,1.0,11.762883800000054,,,,,,,,,,,,,,,,,,,,,,,,,,,,,sub-196,1.0,random_dot,60.08456301371599,
right,right,accuracy,,,,,0.0,0.0,0.0,0.0,27.0,1.0,55.0,1.0,295.53636019999976,,,,,,,,,295.5213442999993,295.6364887000018,296.45242080000025,296.4358228000019,296.4358453999994,296.45242080000025,296.45242080000025,296.45242080000025,299.18509410000115,right,1.0,12.338979900001505,,,,,,,,,,,,,,,,,,,,,,,,,,,,,sub-196,1.0,random_dot,60.08456301371599,
right,right,accuracy,,,,,0.0,0.0,0.0,0.0,28.0,0.0,56.0,1.0,299.1998246000003,,,,,,,,,299.1862785000012,299.54939150000064,300.3487696000011,300.3324384000007,300.3324648000016,300.3487696000011,300.3487696000011,300.3487696000011,303.08060150000165,right,1.0,12.334970899997645,,,,,,,,,,,,,,,,,,,,,,,,,,,,,sub-196,1.0,random_dot,60.08456301371599,
left,left,accuracy,,,,,0.0,0.0,0.0,0.0,28.0,1.0,57.0,0.0,303.0961516000025,,,,,,,,,303.08101890000034,303.19619299999977,303.9959734000004,303.97929250000016,303.9793213000012,303.9959734000004,303.9959734000004,303.9959734000004,306.4454017999997,left,1.0,12.045769599999405,,,,,,,,,,,,,,,,,,,,,,,,,,,,,sub-196,1.0,random_dot,60.08456301371599,
right,right,accuracy,,,,,0.0,0.0,0.0,0.0,29.0,0.0,58.0,1.0,306.4598697000001,,,,,,,,,306.44659469999897,307.25898710000183,308.07528190000085,308.05848270000206,308.05850140000257,308.07528190000085,308.07528190000085,308.07528190000085,310.3798545999998,right,1.0,11.908254600000872,,,,,,,,,,,,,,,,,,,,,,,,,,,,,sub-196,1.0,random_dot,60.08456301371599,
left,left,accuracy,,,,,0.0,0.0,0.0,0.0,29.0,1.0,59.0,0.0,310.3893781000006,,,,,,,,,310.38096360000054,311.5879774000023,312.3878181,312.371265400001,312.37129090000235,312.3878181,312.3878181,312.3878181,315.5366028999997,left,1.0,12.749353600001996,,,,,,,,,,,,,,,,,,,,,,,,,,,,,sub-196,1.0,random_dot,60.08456301371599,
,,accuracy,,,,,0.0,0.0,0.0,0.0,,,,,,,,,,,,,,,,,,,,,,,,,,,,,,,,,,,,,,,,,,,,,,,,,,,,,,sub-196,1.0,random_dot,60.08456301371599,
left,left,speed,,,,,0.0,1.0,1.0,1.0,0.0,0.0,0.0,0.0,320.5629157000003,,,,,,,,,320.558678100002,321.76175610000064,322.5617741000024,322.5460351000001,322.54608930000177,322.5617741000024,322.5617741000024,322.5617741000024,323.57926360000056,left,1.0,10.623550700000123,,,,,,,,,,,,,,,,,,,,315.53811250000217,315.5511580999992,315.5511580999992,320.55020570000124,space,14.606566399999792,,,,sub-196,1.0,random_dot,60.08456301371599,
right,right,speed,,,,,0.0,1.0,1.0,1.0,0.0,1.0,1.0,1.0,323.5936357999999,,,,,,,,,323.5811001000002,323.9433874999995,324.74308790000214,324.7270423000009,324.7270792000017,324.74308790000214,324.74308790000214,324.74308790000214,325.19357859999946,right,1.0,10.04668169999968,,,,,,,,,,,,,,,,,,,,,,,,,,,,,sub-196,1.0,random_dot,60.08456301371599,
left,left,speed,,,,,0.0,1.0,1.0,1.0,1.0,0.0,2.0,0.0,325.2088318999995,,,,,,,,,325.19461030000093,325.5581219000014,326.3583467000026,326.34170430000086,326.34173870000086,326.3583467000026,326.3583467000026,326.3583467000026,326.94189840000035,left,1.0,10.184183300001678,,,,,,,,,,,,,,,,,,,,,,,,,,,,,sub-196,1.0,random_dot,60.08456301371599,
right,right,speed,,,,,0.0,1.0,1.0,1.0,1.0,1.0,3.0,1.0,326.9569553000001,,,,,,,,,326.9430192,327.75678139999945,328.5561505000005,328.5406863999997,328.5407397000017,328.5561505000005,328.5561505000005,328.5561505000005,329.3738506000009,right,1.0,10.419368799999576,,,,,,,,,,,,,,,,,,,,,,,,,,,,,sub-196,1.0,random_dot,60.08456301371599,
left,left,speed,,,,,0.0,1.0,1.0,1.0,2.0,0.0,4.0,0.0,329.38850309999907,,,,,,,,,329.3752210999992,329.48800680000204,330.2877995000017,330.27201609999975,330.27206189999924,330.2877995000017,330.2877995000017,330.2877995000017,331.1720232000007,left,1.0,10.477531800001088,,,,,,,,,,,,,,,,,,,,,,,,,,,,,sub-196,1.0,random_dot,60.08456301371599,
right,right,speed,,,,,0.0,1.0,1.0,1.0,2.0,1.0,5.0,1.0,331.18689319999976,,,,,,,,,331.1733917999991,332.3857162000022,333.1851334999992,333.1692559000003,333.169301599999,333.1851334999992,333.1851334999992,333.1851334999992,333.83607140000095,right,1.0,10.24870959999862,,,,,,,,,,,,,,,,,,,,,,,,,,,,,sub-196,1.0,random_dot,60.08456301371599,
right,right,speed,,,,,0.0,1.0,1.0,1.0,3.0,0.0,6.0,1.0,333.8508187000007,,,,,,,,,333.83738070000254,333.9507369000021,334.75002080000195,334.7334542000026,334.7334711000003,334.75002080000195,334.75002080000195,334.75002080000195,335.43080439999903,right,1.0,10.266148899996551,,,,,,,,,,,,,,,,,,,,,,,,,,,,,sub-196,1.0,random_dot,60.08456301371599,
left,left,speed,,,,,0.0,1.0,1.0,1.0,3.0,1.0,7.0,0.0,335.43461340000067,,,,,,,,,335.43192780000027,336.6315797000025,337.44768040000054,337.43168650000007,337.4317192000017,337.44768040000054,337.44768040000054,337.44768040000054,338.3141299000017,left,1.0,10.469435400000291,,,,,,,,,,,,,,,,,,,,,,,,,,,,,sub-196,1.0,random_dot,60.08456301371599,
right,right,speed,,,,,0.0,1.0,1.0,1.0,4.0,0.0,8.0,1.0,338.3298563000026,,,,,,,,,338.3146276000007,339.5287610000014,340.3285483,340.3117697000016,340.3117944000005,340.3285483,340.3285483,340.3285483,341.04564820000087,right,1.0,10.310843600002045,,,,,,,,,,,,,,,,,,,,,,,,,,,,,sub-196,1.0,random_dot,60.08456301371599,
left,left,speed,,,,,0.0,1.0,1.0,1.0,4.0,1.0,9.0,0.0,341.0605609000013,,,,,,,,,341.04678200000126,342.25969410000107,343.0757264999993,343.0600087000021,343.06005540000115,343.0757264999993,343.0757264999993,343.0757264999993,343.6600471999991,left,1.0,10.18959580000046,,,,,,,,,,,,,,,,,,,,,,,,,,,,,sub-196,1.0,random_dot,60.08456301371599,
right,right,speed,,,,,0.0,1.0,1.0,1.0,5.0,0.0,10.0,1.0,343.6747233999995,,,,,,,,,343.6612692000017,343.77460540000175,344.57458680000127,344.558299100001,344.55834160000086,344.57458680000127,344.57458680000127,344.57458680000127,345.29163659999904,right,1.0,10.321570199999767,,,,,,,,,,,,,,,,,,,,,,,,,,,,,sub-196,1.0,random_dot,60.08456301371599,
left,left,speed,,,,,0.0,1.0,1.0,1.0,5.0,1.0,11.0,0.0,345.3065841000025,,,,,,,,,345.29220390000046,346.5055686000014,347.3052850999993,347.2895172999997,347.28956780000226,347.3052850999993,347.3052850999993,347.3052850999993,348.0395606999992,left,1.0,10.340606200001275,,,,,,,,,,,,,,,,,,,,,,,,,,,,,sub-196,1.0,random_dot,60.08456301371599,
right,right,speed,,,,,0.0,1.0,1.0,1.0,6.0,0.0,12.0,1.0,348.05393560000084,,,,,,,,,348.0412127000018,348.153994700002,348.9536498000016,348.9380616000017,348.93810870000016,348.9536498000016,348.9536498000016,348.9536498000016,349.47338650000165,right,1.0,10.126485299997512,,,,,,,,,,,,,,,,,,,,,,,,,,,,,sub-196,1.0,random_dot,60.08456301371599,
left,left,speed,,,,,0.0,1.0,1.0,1.0,6.0,1.0,13.0,0.0,349.48607280000215,,,,,,,,,349.4747666000003,350.6850191000012,351.4845454999995,351.4686562999996,351.46869460000016,351.4845454999995,351.4845454999995,351.4845454999995,352.1855324999997,left,1.0,10.299745300000724,,,,,,,,,,,,,,,,,,,,,,,,,,,,,sub-196,1.0,random_dot,60.08456301371599,
right,right,speed,,,,,0.0,1.0,1.0,1.0,7.0,0.0,14.0,1.0,352.2003948999991,,,,,,,,,352.1867609000001,352.30015790000107,353.09966039999927,353.0829979000009,353.0830231,353.09966039999927,353.09966039999927,353.09966039999927,353.5842947000019,right,1.0,10.090623599999162,,,,,,,,,,,,,,,,,,,,,,,,,,,,,sub-196,1.0,random_dot,60.08456301371599,
left,left,speed,,,,,0.0,1.0,1.0,1.0,7.0,1.0,15.0,0.0,353.5989277000008,,,,,,,,,353.5855838999996,353.94861700000183,354.7481990000015,354.73187490000055,354.7319050000005,354.7481990000015,354.7481990000015,354.7481990000015,355.43263619999925,left,1.0,10.284791100000804,,,,,,,,,,,,,,,,,,,,,,,,,,,,,sub-196,1.0,random_dot,60.08456301371599,
right,right,speed,,,,,0.0,1.0,1.0,1.0,8.0,0.0,16.0,1.0,355.44714880000174,,,,,,,,,355.4340016000024,356.6462108000014,357.4458001000021,357.4301453000008,357.43019339999955,357.4458001000021,357.4458001000021,357.4458001000021,358.22869320000245,right,1.0,10.378413500000534,,,,,,,,,,,,,,,,,,,,,,,,,,,,,sub-196,1.0,random_dot,60.08456301371599,
left,left,speed,,,,,0.0,1.0,1.0,1.0,8.0,1.0,17.0,0.0,358.24417019999964,,,,,,,,,358.229312200001,358.3443449000006,359.14400880000176,359.1280961000012,359.1281335000021,359.14400880000176,359.14400880000176,359.14400880000176,359.97845489999963,left,1.0,10.440397199998188,,,,,,,,,,,,,,,,,,,,,,,,,,,,,sub-196,1.0,random_dot,60.08456301371599,
right,right,speed,,,,,0.0,1.0,1.0,1.0,9.0,0.0,18.0,1.0,359.9928256000021,,,,,,,,,359.979712700002,360.79215920000206,361.5917886000025,361.5758059,361.57584270000007,361.5917886000025,361.5917886000025,361.5917886000025,362.2915819000009,right,1.0,10.295341899998675,,,,,,,,,,,,,,,,,,,,,,,,,,,,,sub-196,1.0,random_dot,60.08456301371599,
left,left,speed,,,,,0.0,1.0,1.0,1.0,9.0,1.0,19.0,0.0,362.3070848000025,,,,,,,,,362.2922996000016,363.5060909999993,364.3059716000025,364.2897856000018,364.2898148000022,364.3059716000025,364.3059716000025,364.3059716000025,365.223086500002,left,1.0,10.522503300000608,,,,,,,,,,,,,,,,,,,,,,,,,,,,,sub-196,1.0,random_dot,60.08456301371599,
left,left,speed,,,,,0.0,1.0,1.0,1.0,10.0,0.0,20.0,0.0,365.2378160000008,,,,,,,,,365.2241873000021,365.5877371000024,366.3874741,366.3713091999998,366.3713470000002,366.3874741,366.3874741,366.3874741,368.1035661000024,left,1.0,11.315638099998978,,,,,,,,,,,,,,,,,,,,,,,,,,,,,sub-196,1.0,random_dot,60.08456301371599,
right,right,speed,,,,,0.0,1.0,1.0,1.0,10.0,1.0,21.0,1.0,368.1184264000003,,,,,,,,,368.104761300001,369.3171820999996,370.11691040000005,370.1000494,370.100059700002,370.11691040000005,370.11691040000005,370.11691040000005,371.2672789999997,right,1.0,10.74521730000015,,,,,,,,,,,,,,,,,,,,,,,,,,,,,sub-196,1.0,random_dot,60.08456301371599,
right,right,speed,,,,,0.0,1.0,1.0,1.0,11.0,0.0,22.0,1.0,371.2821036000023,,,,,,,,,371.2682815000008,371.6319484000014,372.4317014000008,372.4153273000011,372.4153597000004,372.4317014000008,372.4317014000008,372.4317014000008,373.4982316000023,right,1.0,10.663841799998409,,,,,,,,,,,,,,,,,,,,,,,,,,,,,sub-196,1.0,random_dot,60.08456301371599,
left,left,speed,,,,,0.0,1.0,1.0,1.0,11.0,1.0,23.0,0.0,373.5134849999995,,,,,,,,,373.4990266000023,374.3128631,375.1125945999993,375.0961540999997,375.0961927000026,375.1125945999993,375.1125945999993,375.1125945999993,376.2464137000025,left,1.0,10.732995699998355,,,,,,,,,,,,,,,,,,,,,,,,,,,,,sub-196,1.0,random_dot,60.08456301371599,
left,left,speed,,,,,0.0,1.0,1.0,1.0,12.0,0.0,24.0,0.0,376.26084719999926,,,,,,,,,376.2477897999997,376.6103789000008,377.4108139000018,377.3949826999997,377.39504280000256,377.4108139000018,377.4108139000018,377.4108139000018,378.94348589999936,right,0.0,11.12687299999925,,,,,,,,,,,,,,,,,,,,,,,,,,,,,sub-196,1.0,random_dot,60.08456301371599,
right,right,speed,,,,,0.0,1.0,1.0,1.0,12.0,1.0,25.0,1.0,378.9584493000002,,,,,,,,,378.9444681000023,379.0585021000006,379.85800329999984,379.8424295000004,379.8425019999995,379.85800329999984,379.85800329999984,379.85800329999984,381.0431304000013,right,1.0,10.791800500001044,,,,,,,,,,,,,,,,,,,,,,,,,,,,,sub-196,1.0,random_dot,60.08456301371599,
left,left,speed,,,,,0.0,1.0,1.0,1.0,13.0,0.0,26.0,0.0,381.0562570000002,,,,,,,,,381.0442266999999,381.85551660000056,382.6553514000007,382.6397252000024,382.63977530000193,382.6553514000007,382.6553514000007,382.6553514000007,383.3891201000006,left,1.0,10.328163200001654,,,,,,,,,,,,,,,,,,,,,,,,,,,,,sub-196,1.0,random_dot,60.08456301371599,
right,right,speed,,,,,0.0,1.0,1.0,1.0,13.0,1.0,27.0,1.0,383.4042534,,,,,,,,,383.3899498999999,383.75398700000005,384.5532979000018,384.5368567000005,384.5368834000001,384.5532979000018,384.5532979000018,384.5532979000018,385.2374756999998,right,1.0,10.293313000000126,,,,,,,,,,,,,,,,,,,,,,,,,,,,,sub-196,1.0,random_dot,60.08456301371599,
right,right,speed,,,,,0.0,1.0,1.0,1.0,14.0,0.0,28.0,1.0,385.2524441000023,,,,,,,,,385.2385011000006,385.6022378000016,386.4020849000008,386.3864409000016,386.3864928000002,386.4020849000008,386.4020849000008,386.4020849000008,387.3183978000016,right,1.0,10.511803899998997,,,,,,,,,,,,,,,,,,,,,,,,,,,,,sub-196,1.0,random_dot,60.08456301371599,
left,left,speed,,,,,0.0,1.0,1.0,1.0,14.0,1.0,29.0,0.0,387.3336990999997,,,,,,,,,387.3191819999993,387.6835472999992,388.48295860000144,388.4663357999998,388.4663518000016,388.48295860000144,388.48295860000144,388.48295860000144,389.6825100999995,left,1.0,10.800772900000084,,,,,,,,,,,,,,,,,,,,,,,,,,,,,sub-196,1.0,random_dot,60.08456301371599,
left,left,speed,,,,,0.0,1.0,1.0,1.0,15.0,0.0,30.0,0.0,389.69816360000186,,,,,,,,,389.6829371999993,390.8969689000005,391.6971481000001,391.6808392999992,391.6808783000015,391.6971481000001,391.6971481000001,391.6971481000001,393.0813154999996,right,0.0,10.984767399999328,,,,,,,,,,,,,,,,,,,,,,,,,,,,,sub-196,1.0,random_dot,60.08456301371599,
right,right,speed,,,,,0.0,1.0,1.0,1.0,15.0,1.0,31.0,1.0,393.0952657000016,,,,,,,,,393.0829661999997,393.8943696000024,394.6939495000006,394.6786924000007,394.6787519999998,394.6939495000006,394.6939495000006,394.6939495000006,396.0609654,right,1.0,10.963880500001324,,,,,,,,,,,,,,,,,,,,,,,,,,,,,sub-196,1.0,random_dot,60.08456301371599,
left,left,speed,,,,,0.0,1.0,1.0,1.0,16.0,0.0,32.0,0.0,396.0757268000016,,,,,,,,,396.0621627,396.87512889999925,397.6746562000008,397.6578279999994,397.6578432999995,397.6746562000008,397.6746562000008,397.6746562000008,398.7441529000025,left,1.0,10.676492299999154,,,,,,,,,,,,,,,,,,,,,,,,,,,,,sub-196,1.0,random_dot,60.08456301371599,
right,right,speed,,,,,0.0,1.0,1.0,1.0,16.0,1.0,33.0,1.0,398.7561855999993,,,,,,,,,398.7454352000023,399.1061811,399.9058971000013,399.889306699999,399.88933109999925,399.9058971000013,399.9058971000013,399.9058971000013,401.506356599999,left,0.0,11.200543600001764,,,,,,,,,,,,,,,,,,,,,,,,,,,,,sub-196,1.0,random_dot,60.08456301371599,
left,left,speed,,,,,0.0,1.0,1.0,1.0,17.0,0.0,34.0,0.0,401.5204976999994,,,,,,,,,401.5073446000024,401.87043710000216,402.67021960000056,402.6542399999999,402.65428109999993,402.67021960000056,402.67021960000056,402.67021960000056,404.41934670000046,left,1.0,11.354919600000358,,,,,,,,,,,,,,,,,,,,,,,,,,,,,sub-196,1.0,random_dot,60.08456301371599,
right,right,speed,,,,,0.0,1.0,1.0,1.0,17.0,1.0,35.0,1.0,404.43423330000223,,,,,,,,,404.42025060000014,404.78452110000217,405.6003414000006,405.58335740000257,405.5833706000012,405.6003414000006,405.6003414000006,405.6003414000006,407.0833973000008,right,1.0,11.091956400001436,,,,,,,,,,,,,,,,,,,,,,,,,,,,,sub-196,1.0,random_dot,60.08456301371599,
right,right,speed,,,,,0.0,1.0,1.0,1.0,18.0,0.0,36.0,1.0,407.0984850000023,,,,,,,,,407.0842159999993,407.1987224000004,407.9983364,407.98275080000167,407.9828020000023,407.9983364,407.9983364,407.9983364,408.79844220000086,right,1.0,10.405591799999456,,,,,,,,,,,,,,,,,,,,,,,,,,,,,sub-196,1.0,random_dot,60.08456301371599,
left,left,speed,,,,,0.0,1.0,1.0,1.0,18.0,1.0,37.0,0.0,408.8137674999998,,,,,,,,,408.79928120000113,408.9135002000002,409.7132323000005,409.6970398000012,409.69706810000207,409.7132323000005,409.7132323000005,409.7132323000005,410.7130309000022,left,1.0,10.602150900000195,,,,,,,,,,,,,,,,,,,,,,,,,,,,,sub-196,1.0,random_dot,60.08456301371599,
left,left,speed,,,,,0.0,1.0,1.0,1.0,19.0,0.0,38.0,0.0,410.72848449999947,,,,,,,,,410.7138507000018,411.9277660000007,412.7273051000011,412.7110396999997,412.7110711000023,412.7273051000011,412.7273051000011,412.7273051000011,413.6100384999991,left,1.0,10.4854987000017,,,,,,,,,,,,,,,,,,,,,,,,,,,,,sub-196,1.0,random_dot,60.08456301371599,
right,right,speed,,,,,0.0,1.0,1.0,1.0,19.0,1.0,39.0,1.0,413.6257910000022,,,,,,,,,413.6105348000019,414.42539540000143,415.2249206000015,415.2096263000021,415.2096829000002,415.2249206000015,415.2249206000015,415.2249206000015,416.24129170000015,right,1.0,10.61704699999791,,,,,,,,,,,,,,,,,,,,,,,,,,,,,sub-196,1.0,random_dot,60.08456301371599,
left,left,speed,,,,,0.0,1.0,1.0,1.0,20.0,0.0,40.0,0.0,416.2566169999991,,,,,,,,,416.2420763000009,417.0564680999996,417.87244660000215,417.8564948000021,417.85653770000135,417.87244660000215,417.87244660000215,417.87244660000215,419.2062384000019,left,1.0,10.928623699999662,,,,,,,,,,,,,,,,,,,,,,,,,,,,,sub-196,1.0,random_dot,60.08456301371599,
right,right,speed,,,,,0.0,1.0,1.0,1.0,20.0,1.0,41.0,1.0,419.2209122999993,,,,,,,,,419.2074122000013,419.570703100002,420.3699388999994,420.3540493,420.3540845999996,420.3699388999994,420.3699388999994,420.3699388999994,421.75345310000193,right,1.0,10.977680000001785,,,,,,,,,,,,,,,,,,,,,,,,,,,,,sub-196,1.0,random_dot,60.08456301371599,
left,left,speed,,,,,0.0,1.0,1.0,1.0,21.0,0.0,42.0,0.0,421.7686033999999,,,,,,,,,421.754613000001,422.56751630000144,423.36735840000256,423.35054189999937,423.35055710000233,423.36735840000256,423.36735840000256,423.36735840000256,425.8169673000011,left,1.0,12.046751600000787,,,,,,,,,,,,,,,,,,,,,,,,,,,,,sub-196,1.0,random_dot,60.08456301371599,
right,right,speed,,,,,0.0,1.0,1.0,1.0,21.0,1.0,43.0,1.0,425.83121250000113,,,,,,,,,425.8183887000014,426.18101690000185,426.9806495000012,426.9647839999998,426.9648230999992,426.9806495000012,426.9806495000012,426.9806495000012,428.2299786000003,right,1.0,10.844464499999958,,,,,,,,,,,,,,,,,,,,,,,,,,,,,sub-196,1.0,random_dot,60.08456301371599,
right,right,speed,,,,,0.0,1.0,1.0,1.0,22.0,0.0,44.0,1.0,428.2452993000006,,,,,,,,,428.230756500001,428.3455901000016,429.14521120000063,429.129370300001,429.1295882000013,429.14521120000063,429.14521120000063,429.14521120000063,430.261140300001,right,1.0,10.717750999998316,,,,,,,,,,,,,,,,,,,,,,,,,,,,,sub-196,1.0,random_dot,60.08456301371599,
left,left,speed,,,,,0.0,1.0,1.0,1.0,22.0,1.0,45.0,0.0,430.2770985999996,,,,,,,,,430.2615903000005,431.4758131000017,432.2756023000002,432.2596515000005,432.2596933999994,432.2756023000002,432.2756023000002,432.2756023000002,433.57468040000094,left,1.0,10.900704699999553,,,,,,,,,,,,,,,,,,,,,,,,,,,,,sub-196,1.0,random_dot,60.08456301371599,
right,right,speed,,,,,0.0,1.0,1.0,1.0,23.0,0.0,46.0,1.0,433.5904016000022,,,,,,,,,433.5752386999993,433.9405842000015,434.7398816000023,434.7235911999997,434.723616700001,434.7398816000023,434.7398816000023,434.7398816000023,435.7805714000024,right,1.0,10.618725400001496,,,,,,,,,,,,,,,,,,,,,,,,,,,,,sub-196,1.0,random_dot,60.08456301371599,
left,left,speed,,,,,0.0,1.0,1.0,1.0,23.0,1.0,47.0,0.0,435.7838310000007,,,,,,,,,435.7812508999996,435.8883486000013,436.68814230000135,436.67191150000144,436.6719439000008,436.68814230000135,436.68814230000135,436.68814230000135,437.80553190000137,left,1.0,10.71842860000288,,,,,,,,,,,,,,,,,,,,,,,,,,,,,sub-196,1.0,random_dot,60.08456301371599,
left,left,speed,,,,,0.0,1.0,1.0,1.0,24.0,0.0,48.0,0.0,437.8199076000019,,,,,,,,,437.8066863000022,439.0185686000005,439.81831410000086,439.8017918000005,439.80181390000143,439.81831410000086,439.81831410000086,439.81831410000086,440.9847871999991,left,1.0,10.773256099999344,,,,,,,,,,,,,,,,,,,,,,,,,,,,,sub-196,1.0,random_dot,60.08456301371599,
right,right,speed,,,,,0.0,1.0,1.0,1.0,24.0,1.0,49.0,1.0,441.0001044000019,,,,,,,,,440.9855590000007,442.1995003000011,442.9989416999997,442.9833360000012,442.98338630000217,442.9989416999997,442.9989416999997,442.9989416999997,443.9495424000015,right,1.0,10.556468900000256,,,,,,,,,,,,,,,,,,,,,,,,,,,,,sub-196,1.0,random_dot,60.08456301371599,
right,right,speed,,,,,0.0,1.0,1.0,1.0,25.0,0.0,50.0,1.0,443.9642105000021,,,,,,,,,443.9506466000021,444.7635687000002,445.5630999000023,445.5464404000013,445.5464534999992,445.5630999000023,445.5630999000023,445.5630999000023,446.9136179000016,right,1.0,10.953143299999285,,,,,,,,,,,,,,,,,,,,,,,,,,,,,sub-196,1.0,random_dot,60.08456301371599,
left,left,speed,,,,,0.0,1.0,1.0,1.0,25.0,1.0,51.0,0.0,446.9281594999993,,,,,,,,,446.9147496000005,447.0282293000018,447.827776099999,447.8121476000015,447.8121983000019,447.827776099999,447.827776099999,447.827776099999,448.86362240000017,left,1.0,10.63735270000143,,,,,,,,,,,,,,,,,,,,,,,,,,,,,sub-196,1.0,random_dot,60.08456301371599,
left,left,speed,,,,,0.0,1.0,1.0,1.0,26.0,0.0,52.0,0.0,448.87640490000194,,,,,,,,,448.8649361000025,449.2260038000022,450.02562840000246,450.0098123000025,450.0098577999997,450.02562840000246,450.02562840000246,450.02562840000246,451.2263249000025,left,1.0,10.804842600000484,,,,,,,,,,,,,,,,,,,,,,,,,,,,,sub-196,1.0,random_dot,60.08456301371599,
right,right,speed,,,,,0.0,1.0,1.0,1.0,26.0,1.0,53.0,1.0,451.2408137000021,,,,,,,,,451.2275708000016,452.0401464000024,452.8394902,452.8229403000005,452.8229520999994,452.8394902,452.8394902,452.8394902,453.5409242000024,right,1.0,10.304994199997964,,,,,,,,,,,,,,,,,,,,,,,,,,,,,sub-196,1.0,random_dot,60.08456301371599,
left,left,speed,,,,,0.0,1.0,1.0,1.0,27.0,0.0,54.0,0.0,453.5552459999999,,,,,,,,,453.54221250000046,454.3546403,455.1541414999992,455.1385000000009,455.138541100001,455.1541414999992,455.1541414999992,455.1541414999992,456.2881684999993,left,1.0,10.738604000000125,,,,,,,,,,,,,,,,,,,,,,,,,,,,,sub-196,1.0,random_dot,60.08456301371599,
right,right,speed,,,,,0.0,1.0,1.0,1.0,27.0,1.0,55.0,1.0,456.3026592000024,,,,,,,,,456.2893490999995,457.1020317000002,457.9181831999995,457.90165360000174,457.9016749000002,457.9181831999995,457.9181831999995,457.9181831999995,459.61825990000216,right,1.0,11.305588799999896,,,,,,,,,,,,,,,,,,,,,,,,,,,,,sub-196,1.0,random_dot,60.08456301371599,
left,left,speed,,,,,0.0,1.0,1.0,1.0,28.0,0.0,56.0,0.0,459.63286510000034,,,,,,,,,459.6195628000023,460.8316339000012,461.631798800001,461.6158610999992,461.6159025000016,461.631798800001,461.631798800001,461.631798800001,463.03117380000185,left,1.0,10.998763899997355,,,,,,,,,,,,,,,,,,,,,,,,,,,,,sub-196,1.0,random_dot,60.08456301371599,
right,right,speed,,,,,0.0,1.0,1.0,1.0,28.0,1.0,57.0,1.0,463.04611300000033,,,,,,,,,463.0321909000013,463.8458025,464.6618911000005,464.64507109999977,464.6450890000015,464.6618911000005,464.6618911000005,464.6618911000005,466.0970799999996,right,1.0,11.041209599998185,,,,,,,,,,,,,,,,,,,,,,,,,,,,,sub-196,1.0,random_dot,60.08456301371599,
left,left,speed,,,,,0.0,1.0,1.0,1.0,29.0,0.0,58.0,0.0,466.1101426999994,,,,,,,,,466.09865960000025,466.2102683000012,467.0095228999999,466.9934942,466.9935114,467.0095228999999,467.0095228999999,467.0095228999999,468.61051900000166,left,1.0,11.209073299998636,,,,,,,,,,,,,,,,,,,,,,,,,,,,,sub-196,1.0,random_dot,60.08456301371599,
right,right,speed,,,,,0.0,1.0,1.0,1.0,29.0,1.0,59.0,1.0,468.6243848000013,,,,,,,,,468.61146310000186,468.9743001000024,469.7903485999996,469.7737640000014,469.7737936000012,469.7903485999996,469.7903485999996,469.7903485999996,471.2573267000007,right,1.0,11.071688599999106,,,,,,,,,,,,,,,,,,,,,,,,,,,,,sub-196,1.0,random_dot,60.08456301371599,
,,speed,,,,,0.0,1.0,1.0,1.0,,,,,,,,,,,,,,,,,,,,,,,,,,,,,,,,,,,,,,,,,,,,,,,,,,,,,,sub-196,1.0,random_dot,60.08456301371599,
,,,,,,,,,,,,,,,,,,,,,,,,,,,,,,,,,,,,,,,,,,,,,,,,,,,,,,,,,,,,,,471.2582232000023,471.27210560000094,sub-196,,,,
