direction,corrAns,thisN,thisTrialN,thisRepN,respDots.keys,respDots.corr,respDots.rt,respDots.duration,randomInstr,respRandomInstr.keys,respRandomInstr.rt,respRandomInstr.duration,practice_trials.thisRepN,practice_trials.thisTrialN,practice_trials.thisN,practice_trials.thisIndex,instr_trials.thisRepN,instr_trials.thisTrialN,instr_trials.thisN,instr_trials.thisIndex,test_trials.thisRepN,test_trials.thisTrialN,test_trials.thisN,test_trials.thisIndex,thisRow.t,notes,general_instruction.started,textGeneralInstr.started,respGeneralInstr.started,general_instruction.stopped,respGeneralInstr.keys,respGeneralInstr.rt,respGeneralInstr.duration,ITI.started,fixcross.started,fixcross.stopped,ITI.stopped,dots.started,backgroundDots.started,stimulusDots.started,respDots.started,dots.stopped,practice_trials.respDots.keys,practice_trials.respDots.corr,practice_trials.respDots.rt,practice_trials.respDots.duration,feedback.started,textFeedback.started,feedback.stopped,textFeedback.stopped,stimulusDots.stopped,info.started,textInfo.started,keyRespInfo.started,info.stopped,keyRespInfo.keys,keyRespInfo.rt,keyRespInfo.duration,test_instruction.started,textTestInstr.started,respTestInstr.started,test_instruction.stopped,respTestInstr.keys,respTestInstr.rt,respTestInstr.duration,random_instruction.started,textRandomInstr.started,respRandomInstr.started,random_instruction.stopped,instr_trials.respRandomInstr.keys,instr_trials.respRandomInstr.rt,instr_trials.respRandomInstr.duration,test_trials.respDots.keys,test_trials.respDots.corr,test_trials.respDots.rt,test_trials.respDots.duration,goodbye.started,textGoodbye.started,goodbye.stopped,participant,session,expName,frameRate,Unnamed: 87
,,,,,,,,,,,,,,,,,,,,,,,,,,,0.0080767790059326,0.0268428830022458,0.0268428830022458,10.208244335008205,space,10.153471682991947,,,,,,,,,,,,,,,,,,,,,,,,,,,,,,,,,,,,,,,,,,,,,,,,sub-123,1,random_dot,59.7057870766794,
left,left,0.0,0.0,0.0,left,1.0,2.467114972998388,,,,,,0.0,0.0,0.0,0.0,,,,,,,,,10.3028967440041,,,,,,,,,10.28890099200362,11.023341086998698,11.829511914998877,11.80971560200851,11.81022495200159,11.829511914998877,11.829511914998877,11.829511914998877,14.300339402005193,left,1.0,2.467114972998388,,14.306011239998044,14.336824323007022,14.81589380200603,,,,,,,,,,,,,,,,,,,,,,,,,,,,,,,sub-123,1,random_dot,59.7057870766794,
right,right,1.0,1.0,0.0,right,1.0,0.740331861001323,,,,,,0.0,1.0,1.0,1.0,,,,,,,,,14.832931548007764,,,,,,,,,14.816239767009392,16.0023254280095,16.80559422200895,16.789324256998952,16.78981719200965,16.80559422200895,16.80559422200895,16.80559422200895,17.55725593000534,right,1.0,0.740331861001323,,17.557343805005075,17.57359821400314,18.05787640300696,,,,,,,,,,,,,,,,,,,,,,,,,,,,,,,sub-123,1,random_dot,59.7057870766794,
left,left,2.0,0.0,1.0,left,1.0,0.9603192989889068,,,,,,1.0,0.0,2.0,0.0,,,,,,,,,18.07439710800827,,,,,,,,,18.058170610005615,19.261493668003823,20.062966077006426,20.04782346400316,20.04836400700151,20.062966077006426,20.062966077006426,20.062966077006426,21.03376815500087,left,1.0,0.9603192989889068,,21.033862566997414,21.049577887009946,21.53467506400193,,,,,,,,,,,,,,,,,,,,,,,,,,,,,,,sub-123,1,random_dot,59.7057870766794,
right,right,3.0,1.0,1.0,right,1.0,0.6090988530049799,,,,,,1.0,1.0,3.0,1.0,,,,,,,,,21.55123306400492,,,,,,,,,21.53508948700619,21.885324032002245,22.687503781999112,22.671639452004456,22.67212406700128,22.687503781999112,22.687503781999112,22.687503781999112,23.306789342997945,right,1.0,0.6090988530049799,,23.30687734700041,23.322144721998484,23.807298469007947,,,,,,,,,,,,,,,,,,,,,,,,,,,,,,,sub-123,1,random_dot,59.7057870766794,
left,left,4.0,0.0,2.0,left,1.0,0.6265613709983882,,,,,,2.0,0.0,4.0,0.0,,,,,,,,,23.82395373200416,,,,,,,,,23.807732918998227,23.907342186997997,24.709743993997108,24.69384051200177,24.69432371700532,24.709743993997108,24.709743993997108,24.709743993997108,25.3453494990099,left,1.0,0.6265613709983882,,25.345447888001218,25.360870492004324,25.84591916900536,,,,,,,,,,,,,,,,,,,,,,,,,,,,,,,sub-123,1,random_dot,59.7057870766794,
right,right,5.0,1.0,2.0,right,1.0,0.5029825420060661,,,,,,2.0,1.0,5.0,1.0,,,,,,,,,25.86277049900673,,,,,,,,,25.846332216999144,26.64795057399897,27.45044692400552,27.434807219004146,27.43528733900166,27.45044692400552,27.45044692400552,27.45044692400552,27.970097669007373,right,1.0,0.5029825420060661,,27.97022248900612,27.984209633999853,28.47084334900137,28.48678282900073,,,,,,,,,,,,,,,,,,,,,,,,,,,,,,sub-123,1,random_dot,59.7057870766794,
left,left,6.0,0.0,3.0,left,1.0,0.9538081909995526,,,,,,3.0,0.0,6.0,0.0,,,,,,,,,28.48678282900073,,,,,,,,,28.471244282001862,28.820948337001028,29.62194235700008,29.60640815400984,29.60680577700259,29.62194235700008,29.62194235700008,29.62194235700008,30.592787387999124,left,1.0,0.9538081909995526,,30.592890828003878,30.608826253999723,31.09367728700454,,,,,,,,,,,,,,,,,,,,,,,,,,,,,,,sub-123,1,random_dot,59.7057870766794,
right,right,7.0,1.0,3.0,right,1.0,0.576350483999704,,,,,,3.0,1.0,7.0,1.0,,,,,,,,,31.11041686400131,,,,,,,,,31.09409291700285,31.89540462200239,32.69670001399936,32.68175090900331,32.68223864700121,32.69670001399936,32.69670001399936,32.69670001399936,33.28296865899756,right,1.0,0.576350483999704,,33.28305791399907,33.29849140200531,33.783766471999115,,,,,,,,,,,,,,,,,,,,,,,,,,,,,,,sub-123,1,random_dot,59.7057870766794,
left,left,8.0,0.0,4.0,left,1.0,0.6457078700041166,,,,,,4.0,0.0,8.0,0.0,,,,,,,,,33.800812544010114,,,,,,,,,33.7841961140075,34.13491764200444,34.9370224870072,34.92102363400045,34.921505054007866,34.9370224870072,34.9370224870072,34.9370224870072,35.589710929009016,left,1.0,0.6457078700041166,,35.58979689900298,35.60491867600649,36.090471757008345,,,,,,,,,,,,,,,,,,,,,,,,,,,,,,,sub-123,1,random_dot,59.7057870766794,
right,right,9.0,1.0,4.0,right,1.0,0.4913860660017235,,,,,,4.0,1.0,9.0,1.0,,,,,,,,,36.106750229009776,,,,,,,,,36.09101579700655,36.89227591200324,37.69423248400562,37.67835913199815,37.6788446020073,37.69423248400562,37.69423248400562,37.69423248400562,38.19616567000048,right,1.0,0.4913860660017235,,38.19625050200557,38.21215658400615,38.69706425900222,,,,,,,,,,,,,,,,,,,,,,,,,,,,,,,sub-123,1,random_dot,59.7057870766794,
left,left,10.0,0.0,5.0,left,1.0,0.9471043840021592,,,,,,5.0,0.0,10.0,0.0,,,,,,,,,38.71370644200943,,,,,,,,,38.69747688900679,38.79638809899916,39.59963015900576,39.58366786201077,39.58415158400021,39.59963015900576,39.59963015900576,39.59963015900576,40.55307919900224,left,1.0,0.9471043840021592,,40.55317445800756,40.56771235000633,41.0537969940051,,,,,,,,,,,,,,,,,,,,,,,,,,,,,,,sub-123,1,random_dot,59.7057870766794,
right,right,11.0,1.0,5.0,right,1.0,0.5592599579977104,,,,,,5.0,1.0,11.0,1.0,,,,,,,,,41.0700712090038,,,,,,,,,41.05420370200591,41.15344857900345,41.95577455899911,41.940054532009526,41.94053027400514,41.95577455899911,41.95577455899911,41.95577455899911,42.52454253500037,right,1.0,0.5592599579977104,,42.52462621300947,42.53984844200022,43.02559645900328,,,,,,,,,,,,,,,,,,,,,,,,,,,,,,,sub-123,1,random_dot,59.7057870766794,
right,right,12.0,0.0,6.0,right,1.0,0.8261790049873525,,,,,,6.0,0.0,12.0,1.0,,,,,,,,,43.04214384200168,,,,,,,,,43.02601707400754,44.22872426699905,45.03089720400749,45.01482109200151,45.01530514200567,45.03089720400749,45.03089720400749,45.03089720400749,45.86695779299771,right,1.0,0.8261790049873525,,45.86705109300965,45.8817831990018,46.3678948040033,,,,,,,,,,,,,,,,,,,,,,,,,,,,,,,sub-123,1,random_dot,59.7057870766794,
left,left,13.0,1.0,6.0,left,1.0,0.7274852900009137,,,,,,6.0,1.0,13.0,0.0,,,,,,,,,46.38456198399945,,,,,,,,,46.36830080700747,46.71870824199869,47.52062219200889,47.50461775199801,47.505097098997794,47.52062219200889,47.52062219200889,47.52062219200889,48.25610222000978,left,1.0,0.7274852900009137,,48.256198561997735,48.27168057000381,48.75753178700688,,,,,,,,,,,,,,,,,,,,,,,,,,,,,,,sub-123,1,random_dot,59.7057870766794,
left,left,14.0,0.0,7.0,left,1.0,1.0887016769993352,,,,,,7.0,0.0,14.0,0.0,,,,,,,,,48.77398777400958,,,,,,,,,48.75796834399807,48.8576098120102,49.65859441700741,49.643311738997,49.64372412901139,49.65859441700741,49.65859441700741,49.65859441700741,50.76344935200177,left,1.0,1.0887016769993352,,50.76355389801029,50.7784884480061,51.26327682301053,51.280468758006464,,,,,,,,,,,,,,,,,,,,,,,,,,,,,,sub-123,1,random_dot,59.7057870766794,
right,right,15.0,1.0,7.0,right,1.0,0.7454051860113395,,,,,,7.0,1.0,15.0,1.0,,,,,,,,,51.280468758006464,,,,,,,,,51.26350724299846,51.614917729006265,52.4161921699997,52.40052113600541,52.40086754200456,52.4161921699997,52.4161921699997,52.4161921699997,53.17031697600032,right,1.0,0.7454051860113395,,53.17042157200922,53.18516682200425,53.670393018008326,53.68611187901115,,,,,,,,,,,,,,,,,,,,,,,,,,,,,,sub-123,1,random_dot,59.7057870766794,
left,left,16.0,0.0,8.0,left,1.0,2.1145836119976598,,,,,,8.0,0.0,16.0,0.0,,,,,,,,,53.68611187901115,,,,,,,,,53.67067617300199,54.87394865900569,55.67556019700714,55.6597099119972,55.66018899899791,55.67556019700714,55.67556019700714,55.67556019700714,57.79917675300385,left,1.0,2.1145836119976598,,57.799276448000455,57.81384575999982,58.29853087400261,58.315416666999226,,,,,,,,,,,,,,,,,,,,,,,,,,,,,,sub-123,1,random_dot,59.7057870766794,
right,right,17.0,1.0,8.0,right,1.0,1.4809129489876796,,,,,,8.0,1.0,17.0,1.0,,,,,,,,,58.315416666999226,,,,,,,,,58.29877568500524,58.3989059960004,59.20068382000318,59.18482080000104,59.185156692998135,59.20068382000318,59.20068382000318,59.20068382000318,60.68974224300473,right,1.0,1.4809129489876796,,60.6898265589989,60.70477325801039,61.191050317007466,,,,,,,,,,,,,,,,,,,,,,,,,,,,,,,sub-123,1,random_dot,59.7057870766794,
right,right,18.0,0.0,9.0,right,1.0,5.145476474994212,,,,,,9.0,0.0,18.0,1.0,,,,,,,,,61.20629878999898,,,,,,,,,61.19147346699901,62.39310700799979,63.19596343900776,63.18026285900851,63.180746579004335,63.19596343900776,63.19596343900776,63.19596343900776,68.34466763000819,right,1.0,5.145476474994212,,68.34476440300932,68.35857494400989,68.843998397002,68.8600809470081,68.1918512310076,,,,,,,,,,,,,,,,,,,,,,,,,,,,,sub-123,1,random_dot,59.7057870766794,
left,left,19.0,1.0,9.0,left,1.0,0.8044313269929262,,,,,,9.0,1.0,19.0,0.0,,,,,,,,,68.8600809470081,,,,,,,,,68.84432373401069,70.04574693400355,70.84999523899751,70.83377790699888,70.83426498901099,70.84999523899751,70.84999523899751,70.84999523899751,71.66886245799833,left,1.0,0.8044313269929262,,71.6689611269976,71.68483549400116,72.16939468000783,72.18559362800443,,,,,,,,,,,,,,,,,,,,,,,,,,,,,,sub-123,1,random_dot,59.7057870766794,
,,,,,,,,,,,,,,,,,,,,,,,,,,,,,,,,,,,,,,,,,,,,,,,,,,,,72.16950822000217,72.18559362800443,72.18559362800443,81.57896760800213,space,9.3800867270038,,,,,,,,,,,,,,,,,,,,,,,sub-123,1,random_dot,59.7057870766794,
,,,,,,,,,,,,,,,,,,,,,,,,,,,,,,,,,,,,,,,,,,,,,,,,,,,,,,,,,,,81.57903263199842,81.59438729000976,81.59438729000976,82.96948357899964,space,1.3714057879988104,,,,,,,,,,,,,,,,sub-123,1,random_dot,59.7057870766794,
left,left,0.0,0.0,0.0,left,1.0,1.6704384780023247,,accuracy,space,5.467610577994492,,,,,,0.0,0.0,0.0,0.0,0.0,0.0,0.0,0.0,88.49607754399767,,,,,,,,,88.48553776000335,89.28234093199717,90.08351072799996,90.06777650000004,90.06812462600647,90.08351072799996,90.08351072799996,90.08351072799996,91.75721665800666,,,,,,,,,,,,,,,,,,,,,,,,82.9929631690029,83.00253161900037,83.00253161900037,88.4805282419984,space,5.467610577994492,,left,1.0,1.6704384780023247,,,,,sub-123,1,random_dot,59.7057870766794,
right,right,1.0,1.0,0.0,right,1.0,0.5724171229958301,,accuracy,space,5.467610577994492,,,,,,0.0,0.0,0.0,0.0,0.0,1.0,1.0,1.0,91.77168516699749,,,,,,,,,91.75758459800272,91.87198650201026,92.6743908290082,92.658837889001,92.6593231989973,92.6743908290082,92.6743908290082,92.6743908290082,93.2598733420018,,,,,,,,,,,,,,,,,,,,,,,,,,,,,,,right,1.0,0.5724171229958301,,,,,sub-123,1,random_dot,59.7057870766794,
right,right,2.0,0.0,1.0,right,1.0,2.7133058960025664,,accuracy,space,5.467610577994492,,,,,,0.0,0.0,0.0,0.0,1.0,0.0,2.0,1.0,93.27555707200372,,,,,,,,,93.2601926690113,93.61042967400864,94.41229266700977,94.39654525699734,94.39703147399996,94.41229266700977,94.41229266700977,94.41229266700977,97.13713248200656,,,,,,,,,,,,,,,,,,,,,,,,,,,,,,,right,1.0,2.7133058960025664,,,,,sub-123,1,random_dot,59.7057870766794,
left,left,3.0,1.0,1.0,left,1.0,0.8037808500084793,,accuracy,space,5.467610577994492,,,,,,0.0,0.0,0.0,0.0,1.0,1.0,3.0,0.0,97.15278965199832,,,,,,,,,97.1374796040036,97.23650514399924,98.03879099700134,98.022977214001,98.02345737200812,98.03879099700134,98.03879099700134,98.03879099700134,98.85793656299938,,,,,,,,,,,,,,,,,,,,,,,,,,,,,,,left,1.0,0.8037808500084793,,,,,sub-123,1,random_dot,59.7057870766794,
left,left,4.0,0.0,2.0,left,1.0,0.9442180579935666,,accuracy,space,5.467610577994492,,,,,,0.0,0.0,0.0,0.0,2.0,0.0,4.0,0.0,98.87456522400316,,,,,,,,,98.85824929000228,100.06115481200686,100.863020624005,100.8473114320077,100.84779842200804,100.863020624005,100.863020624005,100.863020624005,101.81670380500144,,,,,,,,,,,,,,,,,,,,,,,,,,,,,,,left,1.0,0.9442180579935666,,,,,sub-123,1,random_dot,59.7057870766794,
right,right,5.0,1.0,2.0,right,1.0,0.5863592679961585,,accuracy,space,5.467610577994492,,,,,,0.0,0.0,0.0,0.0,2.0,1.0,5.0,1.0,101.83174474800762,,,,,,,,,101.8171497220028,102.16651643400836,102.96854746200552,102.95316513700529,102.95365013400442,102.96854746200552,102.96854746200552,102.96854746200552,103.57115898400662,,,,,,,,,,,,,,,,,,,,,,,,,,,,,,,right,1.0,0.5863592679961585,,,,,sub-123,1,random_dot,59.7057870766794,
right,right,6.0,0.0,3.0,right,1.0,0.9555660929909208,,accuracy,space,5.467610577994492,,,,,,0.0,0.0,0.0,0.0,3.0,0.0,6.0,1.0,103.58591148200505,,,,,,,,,103.5715043680102,104.37210426400998,105.173510077002,105.15803753200451,105.15844331700646,105.173510077002,105.173510077002,105.173510077002,106.14451571799871,,,,,,,,,,,,,,,,,,,,,,,,,,,,,,,right,1.0,0.9555660929909208,,,,,sub-123,1,random_dot,59.7057870766794,
left,left,7.0,1.0,3.0,left,1.0,0.6934327659982955,,accuracy,space,5.467610577994492,,,,,,0.0,0.0,0.0,0.0,3.0,1.0,7.0,0.0,106.15995490600471,,,,,,,,,106.14479929000665,107.34727704900432,108.14934381200874,108.13318016400444,108.13366894899808,108.14934381200874,108.14934381200874,108.14934381200874,108.8517836539977,,,,,,,,,,,,,,,,,,,,,,,,,,,,,,,left,1.0,0.6934327659982955,,,,,sub-123,1,random_dot,59.7057870766794,
right,right,8.0,0.0,4.0,right,1.0,0.5993045280047227,,accuracy,space,5.467610577994492,,,,,,0.0,0.0,0.0,0.0,4.0,0.0,8.0,1.0,108.866487856998,,,,,,,,,108.85208529200465,109.6530909990106,110.454298304001,110.43840753599945,110.43875451901113,110.454298304001,110.454298304001,110.454298304001,111.05824706499698,,,,,,,,,,,,,,,,,,,,,,,,,,,,,,,right,1.0,0.5993045280047227,,,,,sub-123,1,random_dot,59.7057870766794,
left,left,9.0,1.0,4.0,left,1.0,2.005350870997063,,accuracy,space,5.467610577994492,,,,,,0.0,0.0,0.0,0.0,4.0,1.0,9.0,0.0,111.07325922000746,,,,,,,,,111.05853269000364,112.25995949200296,113.0626711070072,113.04649786200024,113.0469962089992,113.0626711070072,113.0626711070072,113.0626711070072,115.08571656800632,,,,,,,,,,,,,,,,,,,,,,,,,,,,,,,left,1.0,2.005350870997063,,,,,sub-123,1,random_dot,59.7057870766794,
left,left,10.0,0.0,5.0,left,1.0,2.297361920005642,,accuracy,space,5.467610577994492,,,,,,0.0,0.0,0.0,0.0,5.0,0.0,10.0,0.0,115.100756328,,,,,,,,,115.08603625900288,115.20109653800318,116.00261732201034,115.98696444400412,115.98729381999874,116.00261732201034,116.00261732201034,116.00261732201034,118.31037424200622,,,,,,,,,,,,,,,,,,,,,,,,,,,,,,,left,1.0,2.297361920005642,,,,,sub-123,1,random_dot,59.7057870766794,
right,right,11.0,1.0,5.0,right,1.0,0.5706251499941573,,accuracy,space,5.467610577994492,,,,,,0.0,0.0,0.0,0.0,5.0,1.0,11.0,1.0,118.3266627240082,,,,,,,,,118.3106902080035,118.6765426339989,119.4784652620001,119.46279534000496,119.46314890299982,119.4784652620001,119.4784652620001,119.4784652620001,120.065479116005,,,,,,,,,,,,,,,,,,,,,,,,,,,,,,,right,1.0,0.5706251499941573,,,,,sub-123,1,random_dot,59.7057870766794,
right,right,12.0,0.0,6.0,right,1.0,0.7701882209948963,,accuracy,space,5.467610577994492,,,,,,0.0,0.0,0.0,0.0,6.0,0.0,12.0,1.0,120.080124058004,,,,,,,,,120.0658358100045,120.18064617300116,120.98306537199824,120.96634813300624,120.96669143599864,120.98306537199824,120.98306537199824,120.98306537199824,121.75690851200488,,,,,,,,,,,,,,,,,,,,,,,,,,,,,,,right,1.0,0.7701882209948963,,,,,sub-123,1,random_dot,59.7057870766794,
left,left,13.0,1.0,6.0,left,1.0,0.8400941900035832,,accuracy,space,5.467610577994492,,,,,,0.0,0.0,0.0,0.0,6.0,1.0,13.0,0.0,121.7680454729998,,,,,,,,,121.75734499900136,121.86871939701086,122.6714623690059,122.65564337700198,122.65612926200264,122.6714623690059,122.6714623690059,122.6714623690059,123.52456472700578,,,,,,,,,,,,,,,,,,,,,,,,,,,,,,,left,1.0,0.8400941900035832,,,,,sub-123,1,random_dot,59.7057870766794,
left,left,14.0,0.0,7.0,left,1.0,1.5615215459984029,,accuracy,space,5.467610577994492,,,,,,0.0,0.0,0.0,0.0,7.0,0.0,14.0,0.0,123.5393685040035,,,,,,,,,123.52487836200451,124.72681883400946,125.52825447900976,125.51251239101111,125.51285466300033,125.52825447900976,125.52825447900976,125.52825447900976,127.10051137799746,,,,,,,,,,,,,,,,,,,,,,,,,,,,,,,left,1.0,1.5615215459984029,,,,,sub-123,1,random_dot,59.7057870766794,
right,right,15.0,1.0,7.0,right,1.0,0.5980584750068374,,accuracy,space,5.467610577994492,,,,,,0.0,0.0,0.0,0.0,7.0,1.0,15.0,1.0,127.115591572001,,,,,,,,,127.10089362600412,127.90241806200356,128.70404669900017,128.68821720199776,128.68873390200315,128.70404669900017,128.70404669900017,128.70404669900017,129.30838002900418,,,,,,,,,,,,,,,,,,,,,,,,,,,,,,,right,1.0,0.5980584750068374,,,,,sub-123,1,random_dot,59.7057870766794,
left,left,16.0,0.0,8.0,left,1.0,1.495370461998391,,accuracy,space,5.467610577994492,,,,,,0.0,0.0,0.0,0.0,8.0,0.0,16.0,0.0,129.32147182199697,,,,,,,,,129.30885375999787,129.6735747019993,130.4755644340039,130.460055233998,130.4605465420027,130.4755644340039,130.4755644340039,130.4755644340039,131.98059290400124,,,,,,,,,,,,,,,,,,,,,,,,,,,,,,,left,1.0,1.495370461998391,,,,,sub-123,1,random_dot,59.7057870766794,
right,right,17.0,1.0,8.0,right,1.0,0.7540555430023232,,accuracy,space,5.467610577994492,,,,,,0.0,0.0,0.0,0.0,8.0,1.0,17.0,1.0,131.99586439700215,,,,,,,,,131.9809547699988,132.78187250399787,133.5837018720049,133.5680345790024,133.56851853700937,133.5837018720049,133.5837018720049,133.5837018720049,134.3536370540096,,,,,,,,,,,,,,,,,,,,,,,,,,,,,,,right,1.0,0.7540555430023232,,,,,sub-123,1,random_dot,59.7057870766794,
right,right,18.0,0.0,9.0,left,0.0,0.9860443039942766,,accuracy,space,5.467610577994492,,,,,,0.0,0.0,0.0,0.0,9.0,0.0,18.0,1.0,134.3686790010106,,,,,,,,,134.35393248400942,134.71975964700687,135.52263309700356,135.5063278239977,135.50681077199988,135.52263309700356,135.52263309700356,135.52263309700356,136.5255979729991,,,,,,,,,,,,,,,,,,,,,,,,,,,,,,,left,0.0,0.9860443039942766,,,,,sub-123,1,random_dot,59.7057870766794,
left,left,19.0,1.0,9.0,left,1.0,1.5918773779994808,,accuracy,space,5.467610577994492,,,,,,0.0,0.0,0.0,0.0,9.0,1.0,19.0,0.0,136.5411870740063,,,,,,,,,136.52589575000457,136.64165109200985,137.44306911200692,137.42742182299844,137.42776596000476,137.44306911200692,137.44306911200692,137.44306911200692,139.04882967000594,,,,,,,,,,,,,,,,,,,,,,,,,,,,,,,left,1.0,1.5918773779994808,,,,,sub-123,1,random_dot,59.7057870766794,
left,left,20.0,0.0,10.0,left,1.0,1.266572915003053,,accuracy,space,5.467610577994492,,,,,,0.0,0.0,0.0,0.0,10.0,0.0,20.0,0.0,139.06424403800338,,,,,,,,,139.04913205200864,139.8508176519972,140.6529266770085,140.63664626900572,140.63722606199735,140.6529266770085,140.6529266770085,140.6529266770085,141.926037119003,,,,,,,,,,,,,,,,,,,,,,,,,,,,,,,left,1.0,1.266572915003053,,,,,sub-123,1,random_dot,59.7057870766794,
right,right,21.0,1.0,10.0,right,1.0,0.7780123060074402,,accuracy,space,5.467610577994492,,,,,,0.0,0.0,0.0,0.0,10.0,1.0,21.0,1.0,141.93891746200097,,,,,,,,,141.92646487199818,142.74072928501118,143.54342197200458,143.5268866730039,143.5272326800041,143.54342197200458,143.54342197200458,143.54342197200458,144.329779245003,,,,,,,,,,,,,,,,,,,,,,,,,,,,,,,right,1.0,0.7780123060074402,,,,,sub-123,1,random_dot,59.7057870766794,
right,right,22.0,0.0,11.0,left,0.0,6.535374557002797,,accuracy,space,5.467610577994492,,,,,,0.0,0.0,0.0,0.0,11.0,0.0,22.0,1.0,144.34564650400716,,,,,,,,,144.33007536899822,144.44549512800586,145.24780738200934,145.23148194199894,145.23187566200795,145.24780738200934,145.24780738200934,145.24780738200934,151.78709205900668,,,,,,,,,150.24397084501106,,,,,,,,,,,,,,,,,,,,,,left,0.0,6.535374557002797,,,,,sub-123,1,random_dot,59.7057870766794,
left,left,23.0,1.0,11.0,left,1.0,0.7010189710126724,,accuracy,space,5.467610577994492,,,,,,0.0,0.0,0.0,0.0,11.0,1.0,23.0,0.0,151.79821470699972,,,,,,,,,151.7877365440072,152.60015764800482,153.40341066200926,153.38727686699713,153.38776590200723,153.40341066200926,153.40341066200926,153.40341066200926,154.10724207700696,,,,,,,,,,,,,,,,,,,,,,,,,,,,,,,left,1.0,0.7010189710126724,,,,,sub-123,1,random_dot,59.7057870766794,
left,left,24.0,0.0,12.0,left,1.0,0.7982149379968178,,accuracy,space,5.467610577994492,,,,,,0.0,0.0,0.0,0.0,12.0,0.0,24.0,0.0,154.121149892002,,,,,,,,,154.10754069199902,154.47272531699855,155.2750725040096,155.25940327400167,155.25990940400516,155.2750725040096,155.2750725040096,155.2750725040096,156.07821995300765,,,,,,,,,,,,,,,,,,,,,,,,,,,,,,,left,1.0,0.7982149379968178,,,,,sub-123,1,random_dot,59.7057870766794,
right,right,25.0,1.0,12.0,right,1.0,0.9699923000007402,,accuracy,space,5.467610577994492,,,,,,0.0,0.0,0.0,0.0,12.0,1.0,25.0,1.0,156.09337865000998,,,,,,,,,156.07853995999903,156.87876707399846,157.6813441569975,157.66582707200723,157.66631301400776,157.6813441569975,157.6813441569975,157.6813441569975,158.668391144005,,,,,,,,,,,,,,,,,,,,,,,,,,,,,,,right,1.0,0.9699923000007402,,,,,sub-123,1,random_dot,59.7057870766794,
left,left,26.0,0.0,13.0,left,1.0,1.1937385180062847,,accuracy,space,5.467610577994492,,,,,,0.0,0.0,0.0,0.0,13.0,0.0,26.0,0.0,158.6834690340038,,,,,,,,,158.66872118900935,158.7677065040043,159.56888755000546,159.55286724200414,159.5532194420084,159.56888755000546,159.56888755000546,159.56888755000546,160.77406575600617,,,,,,,,,,,,,,,,,,,,,,,,,,,,,,,left,1.0,1.1937385180062847,,,,,sub-123,1,random_dot,59.7057870766794,
right,right,27.0,1.0,13.0,right,1.0,0.629589489006321,,accuracy,space,5.467610577994492,,,,,,0.0,0.0,0.0,0.0,13.0,1.0,27.0,1.0,160.78869870799826,,,,,,,,,160.77441876000375,160.88998244400136,161.69225896200803,161.6762457320001,161.67672879699967,161.69225896200803,161.69225896200803,161.69225896200803,162.32813801799784,,,,,,,,,,,,,,,,,,,,,,,,,,,,,,,right,1.0,0.629589489006321,,,,,sub-123,1,random_dot,59.7057870766794,
left,left,28.0,0.0,14.0,left,1.0,0.6707212139881449,,accuracy,space,5.467610577994492,,,,,,0.0,0.0,0.0,0.0,14.0,0.0,28.0,0.0,162.34291491900512,,,,,,,,,162.32845264200296,162.67798716400284,163.48021755900118,163.46482162200846,163.46530499700748,163.48021755900118,163.48021755900118,163.48021755900118,164.1663879980042,,,,,,,,,,,,,,,,,,,,,,,,,,,,,,,left,1.0,0.6707212139881449,,,,,sub-123,1,random_dot,59.7057870766794,
right,right,29.0,1.0,14.0,right,1.0,0.890507278003497,,accuracy,space,5.467610577994492,,,,,,0.0,0.0,0.0,0.0,14.0,1.0,29.0,1.0,164.1812732219987,,,,,,,,,164.16670080300537,164.51606504000665,165.3175686540053,165.30151271400973,165.30185631600034,165.3175686540053,165.3175686540053,165.3175686540053,166.22225399200397,,,,,,,,,,,,,,,,,,,,,,,,,,,,,,,right,1.0,0.890507278003497,,,,,sub-123,1,random_dot,59.7057870766794,
right,right,30.0,0.0,15.0,right,1.0,0.7062456910061883,,accuracy,space,5.467610577994492,,,,,,0.0,0.0,0.0,0.0,15.0,0.0,30.0,1.0,166.23669982200954,,,,,,,,,166.2226323799987,166.32030845200643,167.12235719300224,167.10638370300876,167.10672629000328,167.12235719300224,167.12235719300224,167.12235719300224,167.8436063600093,,,,,,,,,,,,,,,,,,,,,,,,,,,,,,,right,1.0,0.7062456910061883,,,,,sub-123,1,random_dot,59.7057870766794,
left,left,31.0,1.0,15.0,left,1.0,0.7275012119935127,,accuracy,space,5.467610577994492,,,,,,0.0,0.0,0.0,0.0,15.0,1.0,31.0,0.0,167.8579673780041,,,,,,,,,167.84396773199842,168.64394616401114,169.446584092002,169.43063798200455,169.431128524011,169.446584092002,169.446584092002,169.446584092002,170.18249148000905,,,,,,,,,,,,,,,,,,,,,,,,,,,,,,,left,1.0,0.7275012119935127,,,,,sub-123,1,random_dot,59.7057870766794,
right,right,32.0,0.0,16.0,right,1.0,0.5524010480003199,,accuracy,space,5.467610577994492,,,,,,0.0,0.0,0.0,0.0,16.0,0.0,32.0,1.0,170.1978776640026,,,,,,,,,170.18281458001002,170.54839811701095,171.3504125670006,171.33487676799996,171.33521451000706,171.3504125670006,171.3504125670006,171.3504125670006,171.91947229299694,,,,,,,,,,,,,,,,,,,,,,,,,,,,,,,right,1.0,0.5524010480003199,,,,,sub-123,1,random_dot,59.7057870766794,
left,left,33.0,1.0,16.0,left,1.0,0.6023956400022143,,accuracy,space,5.467610577994492,,,,,,0.0,0.0,0.0,0.0,16.0,1.0,33.0,0.0,171.9352927919972,,,,,,,,,171.9197784429998,172.72191129400744,173.5236924690107,173.50812291201146,173.5086310589977,173.5236924690107,173.5236924690107,173.5236924690107,174.14356800400128,,,,,,,,,,,,,,,,,,,,,,,,,,,,,,,left,1.0,0.6023956400022143,,,,,sub-123,1,random_dot,59.7057870766794,
right,right,34.0,0.0,17.0,right,1.0,0.5108945880056126,,accuracy,space,5.467610577994492,,,,,,0.0,0.0,0.0,0.0,17.0,0.0,34.0,1.0,174.15850662600133,,,,,,,,,174.14392464399862,174.50933866400737,175.31096822400286,175.2960469390091,175.29653595200216,175.31096822400286,175.31096822400286,175.31096822400286,175.8309532340063,,,,,,,,,,,,,,,,,,,,,,,,,,,,,,,right,1.0,0.5108945880056126,,,,,sub-123,1,random_dot,59.7057870766794,
left,left,35.0,1.0,17.0,left,1.0,0.4900772500113817,,accuracy,space,5.467610577994492,,,,,,0.0,0.0,0.0,0.0,17.0,1.0,35.0,0.0,175.84568647800188,,,,,,,,,175.83130677000736,177.03337870900577,177.835690412001,177.8195698720083,177.82006028899923,177.835690412001,177.835690412001,177.835690412001,178.33772202000546,,,,,,,,,,,,,,,,,,,,,,,,,,,,,,,left,1.0,0.4900772500113817,,,,,sub-123,1,random_dot,59.7057870766794,
right,right,36.0,0.0,18.0,right,1.0,0.9303954739880282,,accuracy,space,5.467610577994492,,,,,,0.0,0.0,0.0,0.0,18.0,0.0,36.0,1.0,178.3523671360017,,,,,,,,,178.3380775960104,179.1380580219993,179.94066103899968,179.9253289240005,179.92581075400813,179.94066103899968,179.94066103899968,179.94066103899968,180.87761081500503,,,,,,,,,,,,,,,,,,,,,,,,,,,,,,,right,1.0,0.9303954739880282,,,,,sub-123,1,random_dot,59.7057870766794,
left,left,37.0,1.0,18.0,left,1.0,0.543302896010573,,accuracy,space,5.467610577994492,,,,,,0.0,0.0,0.0,0.0,18.0,1.0,37.0,0.0,180.89253825599732,,,,,,,,,180.877906462003,182.07981880199804,182.88236954199965,182.86627060201133,182.86676410400835,182.88236954199965,182.88236954199965,182.88236954199965,183.4342545530089,,,,,,,,,,,,,,,,,,,,,,,,,,,,,,,left,1.0,0.543302896010573,,,,,sub-123,1,random_dot,59.7057870766794,
left,left,38.0,0.0,19.0,left,1.0,0.7790824300027452,,accuracy,space,5.467610577994492,,,,,,0.0,0.0,0.0,0.0,19.0,0.0,38.0,0.0,183.449674812,,,,,,,,,183.43454987301084,183.78392265101135,184.58647535899945,184.57064472899947,184.57113692900748,184.58647535899945,184.58647535899945,184.58647535899945,185.37290035800837,,,,,,,,,,,,,,,,,,,,,,,,,,,,,,,left,1.0,0.7790824300027452,,,,,sub-123,1,random_dot,59.7057870766794,
right,right,39.0,1.0,19.0,right,1.0,1.430616027006181,,accuracy,space,5.467610577994492,,,,,,0.0,0.0,0.0,0.0,19.0,1.0,39.0,1.0,185.38767992900105,,,,,,,,,185.37321913300548,185.48786397400545,186.2910699990025,186.2752480640047,186.2757406669989,186.2910699990025,186.2910699990025,186.2910699990025,187.72958607500183,,,,,,,,,,,,,,,,,,,,,,,,,,,,,,,right,1.0,1.430616027006181,,,,,sub-123,1,random_dot,59.7057870766794,
right,right,40.0,0.0,20.0,right,1.0,4.698000610005693,,accuracy,space,5.467610577994492,,,,,,0.0,0.0,0.0,0.0,20.0,0.0,40.0,1.0,187.74408504400344,,,,,,,,,187.7298859450093,187.84451820200772,188.6473315120093,188.6317822120036,188.632262758998,188.6473315120093,188.6473315120093,188.6473315120093,193.36138216000109,,,,,,,,,,,,,,,,,,,,,,,,,,,,,,,right,1.0,4.698000610005693,,,,,sub-123,1,random_dot,59.7057870766794,
left,left,41.0,1.0,20.0,left,1.0,0.7856778720015427,,accuracy,space,5.467610577994492,,,,,,0.0,0.0,0.0,0.0,20.0,1.0,41.0,0.0,193.37649845000124,,,,,,,,,193.36175373601145,193.47683611699904,194.27927638200345,194.26361130199805,194.2641001040029,194.27927638200345,194.27927638200345,194.27927638200345,195.08284259799984,,,,,,,,,,,,,,,,,,,,,,,,,,,,,,,left,1.0,0.7856778720015427,,,,,sub-123,1,random_dot,59.7057870766794,
right,right,42.0,0.0,21.0,right,1.0,0.8380582300014794,,accuracy,space,5.467610577994492,,,,,,0.0,0.0,0.0,0.0,21.0,0.0,42.0,1.0,195.09712056700664,,,,,,,,,195.0832131460047,195.44865830399797,196.2501532919996,196.2348611940106,196.23525949900795,196.2501532919996,196.2501532919996,196.2501532919996,197.1041872400092,,,,,,,,,,,,,,,,,,,,,,,,,,,,,,,right,1.0,0.8380582300014794,,,,,sub-123,1,random_dot,59.7057870766794,
left,left,43.0,1.0,21.0,left,1.0,0.8357649569952628,,accuracy,space,5.467610577994492,,,,,,0.0,0.0,0.0,0.0,21.0,1.0,43.0,0.0,197.11973273201147,,,,,,,,,197.10454282500723,197.45337134000147,198.2567945490009,198.24084835899703,198.2413371120056,198.2567945490009,198.2567945490009,198.2567945490009,199.10949729201093,,,,,,,,,,,,,,,,,,,,,,,,,,,,,,,left,1.0,0.8357649569952628,,,,,sub-123,1,random_dot,59.7057870766794,
left,left,44.0,0.0,22.0,left,1.0,0.6455114599957597,,accuracy,space,5.467610577994492,,,,,,0.0,0.0,0.0,0.0,22.0,0.0,44.0,0.0,199.1251171890035,,,,,,,,,199.10979116300587,199.2093454220012,200.01142128200445,199.99563540400413,199.9961262569996,200.01142128200445,200.01142128200445,200.01142128200445,200.66379416199925,,,,,,,,,,,,,,,,,,,,,,,,,,,,,,,left,1.0,0.6455114599957597,,,,,sub-123,1,random_dot,59.7057870766794,
right,right,45.0,1.0,22.0,right,1.0,0.565372800003388,,accuracy,space,5.467610577994492,,,,,,0.0,0.0,0.0,0.0,22.0,1.0,45.0,1.0,200.6787507830013,,,,,,,,,200.66408821000368,201.86512961600965,202.66819752199808,202.65236549401016,202.65284464899744,202.66819752199808,202.66819752199808,202.66819752199808,203.2393317840033,,,,,,,,,,,,,,,,,,,,,,,,,,,,,,,right,1.0,0.565372800003388,,,,,sub-123,1,random_dot,59.7057870766794,
right,right,46.0,0.0,23.0,right,1.0,1.656088545001694,,accuracy,space,5.467610577994492,,,,,,0.0,0.0,0.0,0.0,23.0,0.0,46.0,1.0,203.2521288280113,,,,,,,,,203.2397843920044,203.60358443000587,204.40631669900904,204.39059333399928,204.39107939699895,204.40631669900904,204.40631669900904,204.40631669900904,206.07827715799797,,,,,,,,,,,,,,,,,,,,,,,,,,,,,,,right,1.0,1.656088545001694,,,,,sub-123,1,random_dot,59.7057870766794,
left,left,47.0,1.0,23.0,left,1.0,0.6368015760090202,,accuracy,space,5.467610577994492,,,,,,0.0,0.0,0.0,0.0,23.0,1.0,47.0,0.0,206.0934652069991,,,,,,,,,206.07865067799867,206.87897561200955,207.68174906900092,207.66587942400656,207.66636638200723,207.68174906900092,207.68174906900092,207.68174906900092,208.33470487200248,,,,,,,,,,,,,,,,,,,,,,,,,,,,,,,left,1.0,0.6368015760090202,,,,,sub-123,1,random_dot,59.7057870766794,
left,left,48.0,0.0,24.0,left,1.0,1.5800507929961896,,accuracy,space,5.467610577994492,,,,,,0.0,0.0,0.0,0.0,24.0,0.0,48.0,0.0,208.34945282700937,,,,,,,,,208.33502904200577,208.44996269900005,209.25215860200117,209.2358003140107,209.2362007019983,209.25215860200117,209.25215860200117,209.25215860200117,210.8413764249999,,,,,,,,,,,,,,,,,,,,,,,,,,,,,,,left,1.0,1.5800507929961896,,,,,sub-123,1,random_dot,59.7057870766794,
right,right,49.0,1.0,24.0,right,1.0,1.2335594239993952,,accuracy,space,5.467610577994492,,,,,,0.0,0.0,0.0,0.0,24.0,1.0,49.0,1.0,210.8563194900053,,,,,,,,,210.84168846299872,212.0435521690088,212.84477798599983,212.8285737050028,212.82894474000204,212.84477798599983,212.84477798599983,212.84477798599983,214.0835469700105,,,,,,,,,,,,,,,,,,,,,,,,,,,,,,,right,1.0,1.2335594239993952,,,,,sub-123,1,random_dot,59.7057870766794,
right,right,50.0,0.0,25.0,right,1.0,2.625451582003734,,accuracy,space,5.467610577994492,,,,,,0.0,0.0,0.0,0.0,25.0,0.0,50.0,1.0,214.0984773680102,,,,,,,,,214.08382949299997,215.2852579540049,216.08769185900744,216.0719216740108,216.07240486900264,216.08769185900744,216.08769185900744,216.08769185900744,218.72828019800363,,,,,,,,,,,,,,,,,,,,,,,,,,,,,,,right,1.0,2.625451582003734,,,,,sub-123,1,random_dot,59.7057870766794,
left,left,51.0,1.0,25.0,left,1.0,0.8388466869946569,,accuracy,space,5.467610577994492,,,,,,0.0,0.0,0.0,0.0,25.0,1.0,51.0,0.0,218.74371721000352,,,,,,,,,218.7285908990016,219.07837948400996,219.8809250720078,219.86555175900867,219.8660348620033,219.8809250720078,219.8809250720078,219.8809250720078,220.733812061997,,,,,,,,,,,,,,,,,,,,,,,,,,,,,,,left,1.0,0.8388466869946569,,,,,sub-123,1,random_dot,59.7057870766794,
right,right,52.0,0.0,26.0,right,1.0,0.7409524230024545,,accuracy,space,5.467610577994492,,,,,,0.0,0.0,0.0,0.0,26.0,0.0,52.0,1.0,220.74953979600105,,,,,,,,,220.73411387900703,221.08346931000412,221.886229242009,221.8703907470044,221.87087585900736,221.886229242009,221.886229242009,221.886229242009,222.6388170190039,,,,,,,,,,,,,,,,,,,,,,,,,,,,,,,right,1.0,0.7409524230024545,,,,,sub-123,1,random_dot,59.7057870766794,
left,left,53.0,1.0,26.0,left,1.0,0.6792950380040566,,accuracy,space,5.467610577994492,,,,,,0.0,0.0,0.0,0.0,26.0,1.0,53.0,0.0,222.6545271000068,,,,,,,,,222.6391216720076,223.84171216400864,224.64302686799783,224.6271399420075,224.6274870680063,224.64302686799783,224.64302686799783,224.64302686799783,225.33111291199748,,,,,,,,,,,,,,,,,,,,,,,,,,,,,,,left,1.0,0.6792950380040566,,,,,sub-123,1,random_dot,59.7057870766794,
left,left,54.0,0.0,27.0,left,1.0,2.00638696399983,,accuracy,space,5.467610577994492,,,,,,0.0,0.0,0.0,0.0,27.0,0.0,54.0,0.0,225.34460874600336,,,,,,,,,225.33146636201127,225.6965640720009,226.49821632199743,226.48154722100296,226.4819029700011,226.49821632199743,226.49821632199743,226.49821632199743,228.50754874800623,,,,,,,,,,,,,,,,,,,,,,,,,,,,,,,left,1.0,2.00638696399983,,,,,sub-123,1,random_dot,59.7057870766794,
right,right,55.0,1.0,27.0,right,1.0,1.4803615019918652,,accuracy,space,5.467610577994492,,,,,,0.0,0.0,0.0,0.0,27.0,1.0,55.0,1.0,228.51944227700005,,,,,,,,,228.50792328300304,228.8714031540003,229.6741318120039,229.6579628340114,229.65844894200563,229.6741318120039,229.6741318120039,229.6741318120039,231.16166305700608,,,,,,,,,,,,,,,,,,,,,,,,,,,,,,,right,1.0,1.4803615019918652,,,,,sub-123,1,random_dot,59.7057870766794,
right,right,56.0,0.0,28.0,right,1.0,1.0873361620033393,,accuracy,space,5.467610577994492,,,,,,0.0,0.0,0.0,0.0,28.0,0.0,56.0,1.0,231.1768343570002,,,,,,,,,231.1619528630108,232.36334483399696,233.1660784260021,233.1493305949989,233.1496920100035,233.1660784260021,233.1660784260021,233.1660784260021,234.2703827460064,,,,,,,,,,,,,,,,,,,,,,,,,,,,,,,right,1.0,1.0873361620033393,,,,,sub-123,1,random_dot,59.7057870766794,
left,left,57.0,1.0,28.0,left,1.0,0.6856189920072211,,accuracy,space,5.467610577994492,,,,,,0.0,0.0,0.0,0.0,28.0,1.0,57.0,0.0,234.2853934270097,,,,,,,,,234.2707342720096,234.6361057640024,235.43899174200487,235.4233588070056,235.42384809200303,235.43899174200487,235.43899174200487,235.43899174200487,236.1282300820021,,,,,,,,,,,,,,,,,,,,,,,,,,,,,,,left,1.0,0.6856189920072211,,,,,sub-123,1,random_dot,59.7057870766794,
right,right,58.0,0.0,29.0,right,1.0,2.286505800002488,,accuracy,space,5.467610577994492,,,,,,0.0,0.0,0.0,0.0,29.0,0.0,58.0,1.0,236.14053379000688,,,,,,,,,236.128654516011,236.4916865319974,237.2940004020056,237.27857139900152,237.27905723900767,237.2940004020056,237.2940004020056,237.2940004020056,239.58510980500432,,,,,,,,,,,,,,,,,,,,,,,,,,,,,,,right,1.0,2.286505800002488,,,,,sub-123,1,random_dot,59.7057870766794,
left,left,59.0,1.0,29.0,left,1.0,0.790910227005952,,accuracy,space,5.467610577994492,,,,,,0.0,0.0,0.0,0.0,29.0,1.0,59.0,0.0,239.5991724080086,,,,,,,,,239.58579118300983,240.38494061400704,241.18804902900592,241.17228349699872,241.17277028399985,241.18804902900592,241.18804902900592,241.18804902900592,241.99041077400037,,,,,,,,,,,,,,,,,,,,,,,,,,,,,,,left,1.0,0.790910227005952,,,,,sub-123,1,random_dot,59.7057870766794,
,,0.0,0.0,0.0,,,,,accuracy,space,5.467610577994492,,,,,,0.0,0.0,0.0,0.0,,,,,,,,,,,,,,,,,,,,,,,,,,,,,,,,,,,,,,,,,,,,,,,,,,,,,,,,,,,,sub-123,1,random_dot,59.7057870766794,
left,left,0.0,0.0,0.0,left,1.0,0.6038501300063217,,speed,space,1.6256961859908188,,,,,,0.0,1.0,1.0,1.0,0.0,0.0,0.0,0.0,243.66058663799777,,,,,,,,,243.65219351500852,244.4467062640033,245.24789247800072,245.23174304699933,245.2321440470114,245.24789247800072,245.24789247800072,245.24789247800072,245.8682040440035,,,,,,,,,,,,,,,,,,,,,,,,242.0010806420032,242.01011941699835,242.01011941699835,243.646440209006,space,1.6256961859908188,,left,1.0,0.6038501300063217,,,,,sub-123,1,random_dot,59.7057870766794,
right,right,1.0,1.0,0.0,right,1.0,0.4610622639884241,,speed,space,1.6256961859908188,,,,,,0.0,1.0,1.0,1.0,0.0,1.0,1.0,1.0,245.88247401399715,,,,,,,,,245.8685643240024,246.23357514600505,247.03631961000792,247.02009517600527,247.02042451201123,247.03631961000792,247.03631961000792,247.03631961000792,247.50610225800483,,,,,,,,,,,,,,,,,,,,,,,,,,,,,,,right,1.0,0.4610622639884241,,,,,sub-123,1,random_dot,59.7057870766794,
left,left,2.0,0.0,1.0,left,1.0,0.6292938699916704,,speed,space,1.6256961859908188,,,,,,0.0,1.0,1.0,1.0,1.0,0.0,2.0,0.0,247.52041346199985,,,,,,,,,247.5064552719996,247.87129344900316,248.67437804400103,248.6586600520095,248.65914594400965,248.67437804400103,248.67437804400103,248.67437804400103,249.31059435800125,,,,,,,,,,,,,,,,,,,,,,,,,,,,,,,left,1.0,0.6292938699916704,,,,,sub-123,1,random_dot,59.7057870766794,
right,right,3.0,1.0,1.0,right,1.0,0.4637465110135963,,speed,space,1.6256961859908188,,,,,,0.0,1.0,1.0,1.0,1.0,1.0,3.0,1.0,249.32569734400025,,,,,,,,,249.31088684900897,250.51188573200488,251.315315439002,251.2988483240042,251.2993331470061,251.315315439002,251.315315439002,251.315315439002,251.78391355900385,,,,,,,,,,,,,,,,,,,,,,,,,,,,,,,right,1.0,0.4637465110135963,,,,,sub-123,1,random_dot,59.7057870766794,
left,left,4.0,0.0,2.0,left,1.0,0.3819330249971244,,speed,space,1.6256961859908188,,,,,,0.0,1.0,1.0,1.0,2.0,0.0,4.0,0.0,251.79875374000403,,,,,,,,,251.7841967440036,252.1341601440072,252.93605194200063,252.9201957220066,252.9207103520021,252.93605194200063,252.93605194200063,252.93605194200063,253.3217380720016,,,,,,,,,,,,,,,,,,,,,,,,,,,,,,,left,1.0,0.3819330249971244,,,,,sub-123,1,random_dot,59.7057870766794,
right,right,5.0,1.0,2.0,right,1.0,0.4436710659938399,,speed,space,1.6256961859908188,,,,,,0.0,1.0,1.0,1.0,2.0,1.0,5.0,1.0,253.33635598199908,,,,,,,,,253.3220462430036,253.6713974370068,254.47315675699792,254.45669936000195,254.4570496759989,254.47315675699792,254.47315675699792,254.47315675699792,254.9265218939981,,,,,,,,,,,,,,,,,,,,,,,,,,,,,,,right,1.0,0.4436710659938399,,,,,sub-123,1,random_dot,59.7057870766794,
right,right,6.0,0.0,3.0,right,1.0,0.4952654730004724,,speed,space,1.6256961859908188,,,,,,0.0,1.0,1.0,1.0,3.0,0.0,6.0,1.0,254.9407956790092,,,,,,,,,254.92688084401016,256.1280421539996,256.9299237939995,256.9143945789983,256.9148782090051,256.9299237939995,256.9299237939995,256.9299237939995,257.43380402200273,,,,,,,,,,,,,,,,,,,,,,,,,,,,,,,right,1.0,0.4952654730004724,,,,,sub-123,1,random_dot,59.7057870766794,
left,left,7.0,1.0,3.0,left,1.0,0.6081901650031796,,speed,space,1.6256961859908188,,,,,,0.0,1.0,1.0,1.0,3.0,1.0,7.0,0.0,257.4473327279993,,,,,,,,,257.4341728139989,258.63444997199986,259.4367640520068,259.42058052400535,259.42107323900564,259.4367640520068,259.4367640520068,259.4367640520068,260.05580457200995,,,,,,,,,,,,,,,,,,,,,,,,,,,,,,,left,1.0,0.6081901650031796,,,,,sub-123,1,random_dot,59.7057870766794,
left,left,8.0,0.0,4.0,left,1.0,0.6441196270025102,,speed,space,1.6256961859908188,,,,,,0.0,1.0,1.0,1.0,4.0,0.0,8.0,0.0,260.0707840039977,,,,,,,,,260.0561035240098,260.85609279200435,261.6589097469987,261.6423353959981,261.6426974650094,261.6589097469987,261.6589097469987,261.6589097469987,262.3115136790002,,,,,,,,,,,,,,,,,,,,,,,,,,,,,,,left,1.0,0.6441196270025102,,,,,sub-123,1,random_dot,59.7057870766794,
right,right,9.0,1.0,4.0,right,1.0,0.5870651790028205,,speed,space,1.6256961859908188,,,,,,0.0,1.0,1.0,1.0,4.0,1.0,9.0,1.0,262.3272645140096,,,,,,,,,262.3117950940068,262.66133756800264,263.4634248720104,263.44685885999934,263.4472172280075,263.4634248720104,263.4634248720104,263.4634248720104,264.06636111901025,,,,,,,,,,,,,,,,,,,,,,,,,,,,,,,right,1.0,0.5870651790028205,,,,,sub-123,1,random_dot,59.7057870766794,
right,right,10.0,0.0,5.0,right,1.0,0.5938608500000555,,speed,space,1.6256961859908188,,,,,,0.0,1.0,1.0,1.0,5.0,0.0,10.0,1.0,264.08198878201074,,,,,,,,,264.06665541999973,264.416924242003,265.21801848200266,265.2021146900079,265.2024636290007,265.21801848200266,265.21801848200266,265.21801848200266,265.8207991340023,,,,,,,,,,,,,,,,,,,,,,,,,,,,,,,right,1.0,0.5938608500000555,,,,,sub-123,1,random_dot,59.7057870766794,
left,left,11.0,1.0,5.0,left,1.0,0.5019724739977391,,speed,space,1.6256961859908188,,,,,,0.0,1.0,1.0,1.0,5.0,1.0,11.0,0.0,265.83615778900275,,,,,,,,,265.82107767699927,266.17075836801087,266.9733707520063,266.95739987400884,266.9578857470042,266.9733707520063,266.9733707520063,266.9733707520063,267.49270645600336,,,,,,,,,,,,,,,,,,,,,,,,,,,,,,,left,1.0,0.5019724739977391,,,,,sub-123,1,random_dot,59.7057870766794,
left,left,12.0,0.0,6.0,left,1.0,0.5896996999945259,,speed,space,1.6256961859908188,,,,,,0.0,1.0,1.0,1.0,6.0,0.0,12.0,0.0,267.5071948560071,,,,,,,,,267.493071874007,268.6944575570087,269.49666114200954,269.4808002040081,269.4812799190113,269.49666114200954,269.49666114200954,269.49666114200954,270.0991083539993,,,,,,,,,,,,,,,,,,,,,,,,,,,,,,,left,1.0,0.5896996999945259,,,,,sub-123,1,random_dot,59.7057870766794,
right,right,13.0,1.0,6.0,right,1.0,0.5755551729962463,,speed,space,1.6256961859908188,,,,,,0.0,1.0,1.0,1.0,6.0,1.0,13.0,1.0,270.11409938200086,,,,,,,,,270.0994020180078,270.19882041700475,271.0010222639976,270.9849262839998,270.9854314390104,271.0010222639976,271.0010222639976,271.0010222639976,271.5865326839994,,,,,,,,,,,,,,,,,,,,,,,,,,,,,,,right,1.0,0.5755551729962463,,,,,sub-123,1,random_dot,59.7057870766794,
left,left,14.0,0.0,7.0,left,1.0,0.6022718280000845,,speed,space,1.6256961859908188,,,,,,0.0,1.0,1.0,1.0,7.0,0.0,14.0,0.0,271.6014326180011,,,,,,,,,271.58682510200015,272.7891672820115,273.590551678004,273.5740304589999,273.57432693800365,273.590551678004,273.590551678004,273.590551678004,274.20892879400344,,,,,,,,,,,,,,,,,,,,,,,,,,,,,,,left,1.0,0.6022718280000845,,,,,sub-123,1,random_dot,59.7057870766794,
right,right,15.0,1.0,7.0,right,1.0,0.3870914650033228,,speed,space,1.6256961859908188,,,,,,0.0,1.0,1.0,1.0,7.0,1.0,15.0,1.0,274.2251823900005,,,,,,,,,274.20920661999844,275.0105850800028,275.8136500870023,275.7980133640085,275.7985237289977,275.8136500870023,275.8136500870023,275.8136500870023,276.21531028499885,,,,,,,,,,,,,,,,,,,,,,,,,,,,,,,right,1.0,0.3870914650033228,,,,,sub-123,1,random_dot,59.7057870766794,
left,left,16.0,0.0,8.0,left,1.0,0.3763919899938628,,speed,space,1.6256961859908188,,,,,,0.0,1.0,1.0,1.0,8.0,0.0,16.0,0.0,276.2304262120015,,,,,,,,,276.21560509401024,276.5647439070017,277.36788403900573,277.35221313900547,277.3526970719977,277.36788403900573,277.36788403900573,277.36788403900573,277.7534510480036,,,,,,,,,,,,,,,,,,,,,,,,,,,,,,,left,1.0,0.3763919899938628,,,,,sub-123,1,random_dot,59.7057870766794,
right,right,17.0,1.0,8.0,right,1.0,0.3598653819935862,,speed,space,1.6256961859908188,,,,,,0.0,1.0,1.0,1.0,8.0,1.0,17.0,1.0,277.76841430600325,,,,,,,,,277.7537642180105,277.86858994999784,278.6711134770012,278.6555318669998,278.65601467700617,278.6711134770012,278.6711134770012,278.6711134770012,279.0405842290056,,,,,,,,,,,,,,,,,,,,,,,,,,,,,,,right,1.0,0.3598653819935862,,,,,sub-123,1,random_dot,59.7057870766794,
right,right,18.0,0.0,9.0,right,1.0,0.5538346550019924,,speed,space,1.6256961859908188,,,,,,0.0,1.0,1.0,1.0,9.0,0.0,18.0,1.0,279.0546022190101,,,,,,,,,279.0410341020033,279.4058523280109,280.20852987900435,280.1926869690069,280.19317460899765,280.20852987900435,280.20852987900435,280.20852987900435,280.77773657400394,,,,,,,,,,,,,,,,,,,,,,,,,,,,,,,right,1.0,0.5538346550019924,,,,,sub-123,1,random_dot,59.7057870766794,
left,left,19.0,1.0,9.0,left,1.0,0.452656053006649,,speed,space,1.6256961859908188,,,,,,0.0,1.0,1.0,1.0,9.0,1.0,19.0,0.0,280.79326907001087,,,,,,,,,280.7780569870083,281.57894248900993,282.3802365390002,282.3645021280099,282.3648296580068,282.3802365390002,282.3802365390002,282.3802365390002,282.8501607920043,,,,,,,,,,,,,,,,,,,,,,,,,,,,,,,left,1.0,0.452656053006649,,,,,sub-123,1,random_dot,59.7057870766794,
right,right,20.0,0.0,10.0,right,1.0,0.4752573500009021,,speed,space,1.6256961859908188,,,,,,0.0,1.0,1.0,1.0,10.0,0.0,20.0,1.0,282.86535550000553,,,,,,,,,282.85051759300404,283.65107803200954,284.4524474799982,284.43638127000304,284.4367210880009,284.4524474799982,284.4524474799982,284.4524474799982,284.9392066040018,,,,,,,,,,,,,,,,,,,,,,,,,,,,,,,right,1.0,0.4752573500009021,,,,,sub-123,1,random_dot,59.7057870766794,
left,left,21.0,1.0,10.0,left,1.0,0.3862888110015774,,speed,space,1.6256961859908188,,,,,,0.0,1.0,1.0,1.0,10.0,1.0,21.0,0.0,284.9535515970056,,,,,,,,,284.93957379600033,285.74033160399995,286.5417507020029,286.52573093000683,286.52608048400725,286.5417507020029,286.5417507020029,286.5417507020029,286.9446687220043,,,,,,,,,,,,,,,,,,,,,,,,,,,,,,,left,1.0,0.3862888110015774,,,,,sub-123,1,random_dot,59.7057870766794,
right,right,22.0,0.0,11.0,right,1.0,0.3944297549896873,,speed,space,1.6256961859908188,,,,,,0.0,1.0,1.0,1.0,11.0,0.0,22.0,1.0,286.95914230700873,,,,,,,,,286.94504037000297,287.74539603400626,288.5476153990021,288.5320101390098,288.53249498699734,288.5476153990021,288.5476153990021,288.5476153990021,288.9496486950084,,,,,,,,,,,,,,,,,,,,,,,,,,,,,,,right,1.0,0.3944297549896873,,,,,sub-123,1,random_dot,59.7057870766794,
left,left,23.0,1.0,11.0,left,1.0,0.6890824680012884,,speed,space,1.6256961859908188,,,,,,0.0,1.0,1.0,1.0,11.0,1.0,23.0,0.0,288.964898782011,,,,,,,,,288.94992803400964,289.75067266399856,290.5531048090052,290.5375990120083,290.53808641700016,290.5531048090052,290.5531048090052,290.5531048090052,291.2565271380008,,,,,,,,,,,,,,,,,,,,,,,,,,,,,,,left,1.0,0.6890824680012884,,,,,sub-123,1,random_dot,59.7057870766794,
left,left,24.0,0.0,12.0,left,1.0,0.9700805460015544,,speed,space,1.6256961859908188,,,,,,0.0,1.0,1.0,1.0,12.0,0.0,24.0,0.0,291.2705765790015,,,,,,,,,291.2568949700071,291.37065476000134,292.17394187900936,292.15827998900204,292.15876800200203,292.17394187900936,292.17394187900936,292.17394187900936,293.1611871320056,,,,,,,,,,,,,,,,,,,,,,,,,,,,,,,left,1.0,0.9700805460015544,,,,,sub-123,1,random_dot,59.7057870766794,
right,right,25.0,1.0,12.0,right,1.0,0.5236274350027088,,speed,space,1.6256961859908188,,,,,,0.0,1.0,1.0,1.0,12.0,1.0,25.0,1.0,293.17609634999826,,,,,,,,,293.16154424000706,293.2765501820104,294.07919646200025,294.06328047400166,294.0637624990049,294.07919646200025,294.07919646200025,294.07919646200025,294.6143052480038,,,,,,,,,,,,,,,,,,,,,,,,,,,,,,,right,1.0,0.5236274350027088,,,,,sub-123,1,random_dot,59.7057870766794,
right,right,26.0,0.0,13.0,right,1.0,0.5081429879937787,,speed,space,1.6256961859908188,,,,,,0.0,1.0,1.0,1.0,13.0,0.0,26.0,1.0,294.62945999600925,,,,,,,,,294.61467729799915,295.8173014390049,296.619058427008,296.60350444199867,296.6039881690085,296.619058427008,296.619058427008,296.619058427008,297.1377144630096,,,,,,,,,,,,,,,,,,,,,,,,,,,,,,,right,1.0,0.5081429879937787,,,,,sub-123,1,random_dot,59.7057870766794,
left,left,27.0,1.0,13.0,left,1.0,0.5455953500058968,,speed,space,1.6256961859908188,,,,,,0.0,1.0,1.0,1.0,13.0,1.0,27.0,0.0,297.15338397200685,,,,,,,,,297.1380305680068,297.23664630200074,298.04001328200684,298.02416721900227,298.0246512020094,298.04001328200684,298.04001328200684,298.04001328200684,298.5923531770095,,,,,,,,,,,,,,,,,,,,,,,,,,,,,,,left,1.0,0.5455953500058968,,,,,sub-123,1,random_dot,59.7057870766794,
right,right,28.0,0.0,14.0,right,1.0,0.4524166260089259,,speed,space,1.6256961859908188,,,,,,0.0,1.0,1.0,1.0,14.0,0.0,28.0,1.0,298.606924592008,,,,,,,,,298.5926307250047,299.7936486460094,300.5958322200022,300.5796770730085,300.58000825499767,300.5958322200022,300.5958322200022,300.5958322200022,301.06555733500863,,,,,,,,,,,,,,,,,,,,,,,,,,,,,,,right,1.0,0.4524166260089259,,,,,sub-123,1,random_dot,59.7057870766794,
left,left,29.0,1.0,14.0,left,1.0,0.4115381479932694,,speed,space,1.6256961859908188,,,,,,0.0,1.0,1.0,1.0,14.0,1.0,29.0,0.0,301.08074462199875,,,,,,,,,301.06584884700715,301.8663620090083,302.6686427290115,302.6531591719977,302.6536450440035,302.6686427290115,302.6686427290115,302.6686427290115,303.0872020329989,,,,,,,,,,,,,,,,,,,,,,,,,,,,,,,left,1.0,0.4115381479932694,,,,,sub-123,1,random_dot,59.7057870766794,
left,left,30.0,0.0,15.0,left,1.0,0.638808648000122,,speed,space,1.6256961859908188,,,,,,0.0,1.0,1.0,1.0,15.0,0.0,30.0,0.0,303.1026455539977,,,,,,,,,303.0874935199972,304.2892839470005,305.0909654420102,305.0754207900027,305.0757644080004,305.0909654420102,305.0909654420102,305.0909654420102,305.7449453660083,,,,,,,,,,,,,,,,,,,,,,,,,,,,,,,left,1.0,0.638808648000122,,,,,sub-123,1,random_dot,59.7057870766794,
right,right,31.0,1.0,15.0,right,1.0,0.8329639949952252,,speed,space,1.6256961859908188,,,,,,0.0,1.0,1.0,1.0,15.0,1.0,31.0,1.0,305.7595485409984,,,,,,,,,305.7452929740102,306.54576411200105,307.34685846199864,307.33084074199724,307.3311725759995,307.34685846199864,307.34685846199864,307.34685846199864,308.1860485260113,,,,,,,,,,,,,,,,,,,,,,,,,,,,,,,right,1.0,0.8329639949952252,,,,,sub-123,1,random_dot,59.7057870766794,
right,right,32.0,0.0,16.0,right,1.0,0.8358893340046052,,speed,space,1.6256961859908188,,,,,,0.0,1.0,1.0,1.0,16.0,0.0,32.0,1.0,308.1991479440039,,,,,,,,,308.1864022540103,308.29996369199944,309.1023870420031,309.08678740701,309.0872657919972,309.1023870420031,309.1023870420031,309.1023870420031,309.9556015480048,,,,,,,,,,,,,,,,,,,,,,,,,,,,,,,right,1.0,0.8358893340046052,,,,,sub-123,1,random_dot,59.7057870766794,
left,left,33.0,1.0,16.0,left,1.0,0.7956954480032437,,speed,space,1.6256961859908188,,,,,,0.0,1.0,1.0,1.0,16.0,1.0,33.0,0.0,309.9705297820037,,,,,,,,,309.955904774004,310.0712366220105,310.87240427400684,310.85866948901094,310.8593297769985,310.87240427400684,310.87240427400684,310.87240427400684,311.6765074599971,,,,,,,,,,,,,,,,,,,,,,,,,,,,,,,left,1.0,0.7956954480032437,,,,,sub-123,1,random_dot,59.7057870766794,
left,left,34.0,0.0,17.0,left,1.0,0.6609209769958397,,speed,space,1.6256961859908188,,,,,,0.0,1.0,1.0,1.0,17.0,0.0,34.0,0.0,311.6919133909978,,,,,,,,,311.6768180390063,312.4780881839979,313.2806484620087,313.2647789370094,313.2652646869974,313.2806484620087,313.2806484620087,313.2806484620087,313.9491273120075,,,,,,,,,,,,,,,,,,,,,,,,,,,,,,,left,1.0,0.6609209769958397,,,,,sub-123,1,random_dot,59.7057870766794,
right,right,35.0,1.0,17.0,right,1.0,0.5535654460109072,,speed,space,1.6256961859908188,,,,,,0.0,1.0,1.0,1.0,17.0,1.0,35.0,1.0,313.9645718160027,,,,,,,,,313.9494063650054,314.3000181020034,315.10108291800134,315.0853891400038,315.0857317129994,315.10108291800134,315.10108291800134,315.10108291800134,315.671200790006,,,,,,,,,,,,,,,,,,,,,,,,,,,,,,,right,1.0,0.5535654460109072,,,,,sub-123,1,random_dot,59.7057870766794,
left,left,36.0,0.0,18.0,left,1.0,0.6058682360016974,,speed,space,1.6256961859908188,,,,,,0.0,1.0,1.0,1.0,18.0,0.0,36.0,0.0,315.68643048200465,,,,,,,,,315.67147697000473,315.78650190201006,316.58829026400053,316.5728018880036,316.573154290003,316.58829026400053,316.58829026400053,316.58829026400053,317.20822221500566,,,,,,,,,,,,,,,,,,,,,,,,,,,,,,,left,1.0,0.6058682360016974,,,,,sub-123,1,random_dot,59.7057870766794,
right,right,37.0,1.0,18.0,right,1.0,0.5485058170015691,,speed,space,1.6256961859908188,,,,,,0.0,1.0,1.0,1.0,18.0,1.0,37.0,1.0,317.22390235999774,,,,,,,,,317.2085313639982,318.00966979200894,318.8116787140025,318.796169002002,318.7966456240101,318.8116787140025,318.8116787140025,318.8116787140025,319.3663636499987,,,,,,,,,,,,,,,,,,,,,,,,,,,,,,,right,1.0,0.5485058170015691,,,,,sub-123,1,random_dot,59.7057870766794,
left,left,38.0,0.0,19.0,left,1.0,0.5480416049977066,,speed,space,1.6256961859908188,,,,,,0.0,1.0,1.0,1.0,19.0,0.0,38.0,0.0,319.37904058200365,,,,,,,,,319.3667168579996,320.5667021690024,321.3686322840076,321.3531409819989,321.35361712399754,321.3686322840076,321.3686322840076,321.3686322840076,321.9233768370032,,,,,,,,,,,,,,,,,,,,,,,,,,,,,,,left,1.0,0.5480416049977066,,,,,sub-123,1,random_dot,59.7057870766794,
right,right,39.0,1.0,19.0,right,1.0,0.4859531760012032,,speed,space,1.6256961859908188,,,,,,0.0,1.0,1.0,1.0,19.0,1.0,39.0,1.0,321.9355546190054,,,,,,,,,321.9238171140023,322.7222277270048,323.5234233939991,323.5076627620001,323.5080231920001,323.5234233939991,323.5234233939991,323.5234233939991,324.0267117990006,,,,,,,,,,,,,,,,,,,,,,,,,,,,,,,right,1.0,0.4859531760012032,,,,,sub-123,1,random_dot,59.7057870766794,
left,left,40.0,0.0,20.0,left,1.0,0.4938395990029676,,speed,space,1.6256961859908188,,,,,,0.0,1.0,1.0,1.0,20.0,0.0,40.0,0.0,324.0419112439995,,,,,,,,,324.0269893500081,324.37655307400564,325.17777626200404,325.1618949679978,325.16225921000296,325.17777626200404,325.17777626200404,325.17777626200404,325.68042231700383,,,,,,,,,,,,,,,,,,,,,,,,,,,,,,,left,1.0,0.4938395990029676,,,,,sub-123,1,random_dot,59.7057870766794,
right,right,41.0,1.0,20.0,right,1.0,0.5222641040018061,,speed,space,1.6256961859908188,,,,,,0.0,1.0,1.0,1.0,20.0,1.0,41.0,1.0,325.6958753820072,,,,,,,,,325.68072201999894,326.4823112489976,327.2842948720063,327.2685471570003,327.2690298140078,327.2842948720063,327.2842948720063,327.2842948720063,327.8203092120093,,,,,,,,,,,,,,,,,,,,,,,,,,,,,,,right,1.0,0.5222641040018061,,,,,sub-123,1,random_dot,59.7057870766794,
left,left,42.0,0.0,21.0,left,1.0,0.4685848719964269,,speed,space,1.6256961859908188,,,,,,0.0,1.0,1.0,1.0,21.0,0.0,42.0,0.0,327.8352244380076,,,,,,,,,327.8206759760069,329.02276347900624,329.8244992520049,329.80897982401075,329.80946616700385,329.8244992520049,329.8244992520049,329.8244992520049,330.3100644600054,,,,,,,,,,,,,,,,,,,,,,,,,,,,,,,left,1.0,0.4685848719964269,,,,,sub-123,1,random_dot,59.7057870766794,
right,right,43.0,1.0,21.0,right,1.0,0.4271384150051744,,speed,space,1.6256961859908188,,,,,,0.0,1.0,1.0,1.0,21.0,1.0,43.0,1.0,330.3249866020051,,,,,,,,,330.31044549400394,330.6598391520092,331.4623067390057,331.446257307005,331.4467400690046,331.4623067390057,331.4623067390057,331.4623067390057,331.89861127801123,,,,,,,,,,,,,,,,,,,,,,,,,,,,,,,right,1.0,0.4271384150051744,,,,,sub-123,1,random_dot,59.7057870766794,
left,left,44.0,0.0,22.0,left,1.0,0.3742682260053698,,speed,space,1.6256961859908188,,,,,,0.0,1.0,1.0,1.0,22.0,0.0,44.0,0.0,331.9131865320087,,,,,,,,,331.8989618760097,332.6979957880103,333.5009085740021,333.485480747011,333.4859627340047,333.5009085740021,333.5009085740021,333.5009085740021,333.88615169300465,,,,,,,,,,,,,,,,,,,,,,,,,,,,,,,left,1.0,0.3742682260053698,,,,,sub-123,1,random_dot,59.7057870766794,
right,right,45.0,1.0,22.0,right,1.0,0.3230790149973472,,speed,space,1.6256961859908188,,,,,,0.0,1.0,1.0,1.0,22.0,1.0,45.0,1.0,333.9012243140023,,,,,,,,,333.8864327820047,334.23624871400534,335.0385475170042,335.0226519370044,335.0231363769999,335.0385475170042,335.0385475170042,335.0385475170042,335.37323789500806,,,,,,,,,,,,,,,,,,,,,,,,,,,,,,,right,1.0,0.3230790149973472,,,,,sub-123,1,random_dot,59.7057870766794,
left,left,46.0,0.0,23.0,left,1.0,0.4058955159998731,,speed,space,1.6256961859908188,,,,,,0.0,1.0,1.0,1.0,23.0,0.0,46.0,0.0,335.3889209970075,,,,,,,,,335.3735490490071,335.72389512200607,336.5256968090107,336.50996837200364,336.5104620170023,336.5256968090107,336.5256968090107,336.5256968090107,336.9438071300101,,,,,,,,,,,,,,,,,,,,,,,,,,,,,,,left,1.0,0.4058955159998731,,,,,sub-123,1,random_dot,59.7057870766794,
right,right,47.0,1.0,23.0,right,1.0,0.3787065659998916,,speed,space,1.6256961859908188,,,,,,0.0,1.0,1.0,1.0,23.0,1.0,47.0,1.0,336.95950526199886,,,,,,,,,336.94411416399817,337.04350908201013,337.84520163600973,337.83006549900165,337.83054793700285,337.84520163600973,337.84520163600973,337.84520163600973,338.2307663600077,,,,,,,,,,,,,,,,,,,,,,,,,,,,,,,right,1.0,0.3787065659998916,,,,,sub-123,1,random_dot,59.7057870766794,
right,right,48.0,0.0,24.0,right,1.0,0.6091358419944299,,speed,space,1.6256961859908188,,,,,,0.0,1.0,1.0,1.0,24.0,0.0,48.0,1.0,338.2465679540037,,,,,,,,,338.2310696839995,338.3463501080114,339.1495002520096,339.13371101200755,339.13419650400465,339.1495002520096,339.1495002520096,339.1495002520096,339.7692795720068,,,,,,,,,,,,,,,,,,,,,,,,,,,,,,,right,1.0,0.6091358419944299,,,,,sub-123,1,random_dot,59.7057870766794,
left,left,49.0,1.0,24.0,left,1.0,0.4846556999982567,,speed,space,1.6256961859908188,,,,,,0.0,1.0,1.0,1.0,24.0,1.0,49.0,0.0,339.78402591199847,,,,,,,,,339.76972922201094,340.9711489540059,341.77310783200664,341.75764285901096,341.7581291920069,341.77310783200664,341.77310783200664,341.77310783200664,342.2751567920059,,,,,,,,,,,,,,,,,,,,,,,,,,,,,,,left,1.0,0.4846556999982567,,,,,sub-123,1,random_dot,59.7057870766794,
left,left,50.0,0.0,25.0,left,1.0,1.848874210001668,,speed,space,1.6256961859908188,,,,,,0.0,1.0,1.0,1.0,25.0,0.0,50.0,0.0,342.2904977300059,,,,,,,,,342.2755174400081,342.39073387000826,343.1938366870017,343.17767282700515,343.17815505201,343.1938366870017,343.1938366870017,343.1938366870017,345.04942578500777,,,,,,,,,,,,,,,,,,,,,,,,,,,,,,,left,1.0,1.848874210001668,,,,,sub-123,1,random_dot,59.7057870766794,
right,right,51.0,1.0,25.0,right,1.0,0.4865319649979938,,speed,space,1.6256961859908188,,,,,,0.0,1.0,1.0,1.0,25.0,1.0,51.0,1.0,345.0643377520028,,,,,,,,,345.0499242900114,345.39959262699995,346.2009305770043,346.1851776130061,346.1855165320012,346.2009305770043,346.2009305770043,346.2009305770043,346.704326963998,,,,,,,,,,,,,,,,,,,,,,,,,,,,,,,right,1.0,0.4865319649979938,,,,,sub-123,1,random_dot,59.7057870766794,
left,left,52.0,0.0,26.0,left,1.0,0.5164908430015203,,speed,space,1.6256961859908188,,,,,,0.0,1.0,1.0,1.0,26.0,0.0,52.0,0.0,346.7185780599975,,,,,,,,,346.704682488009,347.5042088379996,348.3075113990053,348.2914691019978,348.2919554120017,348.3075113990053,348.3075113990053,348.3075113990053,348.82674081200093,,,,,,,,,,,,,,,,,,,,,,,,,,,,,,,left,1.0,0.5164908430015203,,,,,sub-123,1,random_dot,59.7057870766794,
right,right,53.0,1.0,26.0,right,1.0,0.4933791149960598,,speed,space,1.6256961859908188,,,,,,0.0,1.0,1.0,1.0,26.0,1.0,53.0,1.0,348.8414112419996,,,,,,,,,348.82704518400715,349.62724811400403,350.42974763900565,350.4139734870114,350.41445738400216,350.42974763900565,350.42974763900565,350.42974763900565,350.93207792499743,,,,,,,,,,,,,,,,,,,,,,,,,,,,,,,right,1.0,0.4933791149960598,,,,,sub-123,1,random_dot,59.7057870766794,
left,left,54.0,0.0,27.0,left,1.0,0.5108836099971086,,speed,space,1.6256961859908188,,,,,,0.0,1.0,1.0,1.0,27.0,0.0,54.0,0.0,350.9466922080028,,,,,,,,,350.9324055199977,351.73340744900634,352.5347980880033,352.5184643140092,352.51879431800626,352.5347980880033,352.5347980880033,352.5347980880033,353.05376535300456,,,,,,,,,,,,,,,,,,,,,,,,,,,,,,,left,1.0,0.5108836099971086,,,,,sub-123,1,random_dot,59.7057870766794,
right,right,55.0,1.0,27.0,right,1.0,0.6398312759993132,,speed,space,1.6256961859908188,,,,,,0.0,1.0,1.0,1.0,27.0,1.0,55.0,1.0,353.0691772639984,,,,,,,,,353.05405432899715,353.1525064739981,353.9557552370097,353.94027098899824,353.94075135899766,353.9557552370097,353.9557552370097,353.9557552370097,354.609061545998,,,,,,,,,,,,,,,,,,,,,,,,,,,,,,,right,1.0,0.6398312759993132,,,,,sub-123,1,random_dot,59.7057870766794,
left,left,56.0,0.0,28.0,left,1.0,0.5242395910026971,,speed,space,1.6256961859908188,,,,,,0.0,1.0,1.0,1.0,28.0,0.0,56.0,0.0,354.6236936740024,,,,,,,,,354.60943036600656,354.7240528429975,355.52669496199815,355.5106320490013,355.51111204200424,355.52669496199815,355.52669496199815,355.52669496199815,356.0625885460031,,,,,,,,,,,,,,,,,,,,,,,,,,,,,,,left,1.0,0.5242395910026971,,,,,sub-123,1,random_dot,59.7057870766794,
right,right,57.0,1.0,28.0,right,1.0,0.5187236450001365,,speed,space,1.6256961859908188,,,,,,0.0,1.0,1.0,1.0,28.0,1.0,57.0,1.0,356.0772002390004,,,,,,,,,356.06293751001067,356.41220273199724,357.2145328790066,357.19865800200205,357.1991532920074,357.2145328790066,357.2145328790066,357.2145328790066,357.75001657199755,,,,,,,,,,,,,,,,,,,,,,,,,,,,,,,right,1.0,0.5187236450001365,,,,,sub-123,1,random_dot,59.7057870766794,
left,left,58.0,0.0,29.0,right,0.0,0.5695378899981733,,speed,space,1.6256961859908188,,,,,,0.0,1.0,1.0,1.0,29.0,0.0,58.0,0.0,357.7656446070032,,,,,,,,,357.75037110400444,357.8500193890068,358.6516572170076,358.63592654401145,358.6364132919989,358.6516572170076,358.6516572170076,358.6516572170076,359.2383308790013,,,,,,,,,,,,,,,,,,,,,,,,,,,,,,,right,0.0,0.5695378899981733,,,,,sub-123,1,random_dot,59.7057870766794,
right,right,59.0,1.0,29.0,right,1.0,0.9700547999964328,,speed,space,1.6256961859908188,,,,,,0.0,1.0,1.0,1.0,29.0,1.0,59.0,1.0,359.25216185700265,,,,,,,,,359.23875431700435,359.6031619240093,360.4058462890098,360.3901861170016,360.3906773290073,360.4058462890098,360.4058462890098,360.4058462890098,361.3933700600028,,,,,,,,,,,,,,,,,,,,,,,,,,,,,,,right,1.0,0.9700547999964328,,,,,sub-123,1,random_dot,59.7057870766794,
,,1.0,1.0,0.0,,,,,speed,space,1.6256961859908188,,,,,,0.0,1.0,1.0,1.0,,,,,,,,,,,,,,,,,,,,,,,,,,,,,,,,,,,,,,,,,,,,,,,,,,,,,,,,,,,,sub-123,1,random_dot,59.7057870766794,
,,,,,,,,,,,,,,,,,,,,,,,,,,,,,,,,,,,,,,,,,,,,,,,,,,,,,,,,,,,,,,,,,,,,,,,,,,,,,361.3978908480058,361.4085259420099,366.4047388379986,sub-123,1,random_dot,59.7057870766794,
