direction,corrAns,thisN,thisTrialN,thisRepN,respDots.keys,respDots.corr,respDots.rt,respDots.duration,randomInstr,respRandomInstr.keys,respRandomInstr.rt,respRandomInstr.duration,practice_trials.thisRepN,practice_trials.thisTrialN,practice_trials.thisN,practice_trials.thisIndex,instr_trials.thisRepN,instr_trials.thisTrialN,instr_trials.thisN,instr_trials.thisIndex,test_trials.thisRepN,test_trials.thisTrialN,test_trials.thisN,test_trials.thisIndex,thisRow.t,notes,general_instruction.started,textGeneralInstr.started,respGeneralInstr.started,general_instruction.stopped,respGeneralInstr.keys,respGeneralInstr.rt,respGeneralInstr.duration,ITI.started,fixcross.started,fixcross.stopped,ITI.stopped,dots.started,backgroundDots.started,stimulusDots.started,respDots.started,dots.stopped,practice_trials.respDots.keys,practice_trials.respDots.corr,practice_trials.respDots.rt,practice_trials.respDots.duration,feedback.started,textFeedback.started,textFeedback.stopped,feedback.stopped,info.started,textInfo.started,keyRespInfo.started,info.stopped,keyRespInfo.keys,keyRespInfo.rt,keyRespInfo.duration,test_instruction.started,textTestInstr.started,respTestInstr.started,test_instruction.stopped,respTestInstr.keys,respTestInstr.rt,respTestInstr.duration,random_instruction.started,textRandomInstr.started,respRandomInstr.started,random_instruction.stopped,instr_trials.respRandomInstr.keys,instr_trials.respRandomInstr.rt,instr_trials.respRandomInstr.duration,test_trials.respDots.keys,test_trials.respDots.corr,test_trials.respDots.rt,test_trials.respDots.duration,goodbye.started,textGoodbye.started,goodbye.stopped,participant,session,expName,frameRate,Unnamed: 86
,,,,,,,,,,,,,,,,,,,,,,,,,,,0.0034022000036202,0.0302629999932833,0.0302629999932833,1.7060589999891818,space,1.6567576000234112,,,,,,,,,,,,,,,,,,,,,,,,,,,,,,,,,,,,,,,,,,,,,,,sub-189,1,random_dot,59.815087636671365,
left,left,0.0,0.0,0.0,left,1.0,2.6441715000546537,,,,,,0.0,0.0,0.0,0.0,,,,,,,,,1.731786500022281,,,,,,,,,1.726849900034722,2.519343000021763,3.374729900038801,3.30407529999502,3.3043971000006422,3.374729900038801,3.374729900038801,3.374729900038801,6.025863600021694,left,1.0,2.6441715000546537,,6.032582400017418,6.039571300032549,6.542097500001546,6.526121000002604,,,,,,,,,,,,,,,,,,,,,,,,,,,,,sub-189,1,random_dot,59.815087636671365,
right,right,1.0,1.0,0.0,right,1.0,0.8688788000144996,,,,,,0.0,1.0,1.0,1.0,,,,,,,,,6.542097500001546,,,,,,,,,6.5263891000067815,7.726767000043765,8.528054099995643,8.512090400035959,8.51247830002103,8.528054099995643,8.528054099995643,8.528054099995643,9.398054199991748,right,1.0,0.8688788000144996,,9.398146399995312,9.411783599993214,9.913366900000256,9.895842700032516,,,,,,,,,,,,,,,,,,,,,,,,,,,,,sub-189,1,random_dot,59.815087636671365,
right,right,2.0,0.0,1.0,right,1.0,0.599334699974861,,,,,,1.0,0.0,2.0,1.0,,,,,,,,,9.913366900000256,,,,,,,,,9.896086200024,10.714994400041178,11.51625069999136,11.500403699988963,11.500789500016252,11.51625069999136,11.51625069999136,11.51625069999136,12.117062800040005,right,1.0,0.599334699974861,,12.1171531000291,12.132342000026256,,12.617748500022572,,,,,,,,,,,,,,,,,,,,,,,,,,,,,sub-189,1,random_dot,59.815087636671365,
left,left,3.0,1.0,1.0,left,1.0,0.5015521000023,,,,,,1.0,1.0,3.0,0.0,,,,,,,,,12.63359640003182,,,,,,,,,12.618159700010438,12.716706500039436,13.518214700045064,13.502261699992232,13.502703300036956,13.518214700045064,13.518214700045064,13.518214700045064,14.022060999996029,left,1.0,0.5015521000023,,14.022177200007718,14.03587790002348,14.537109600030815,14.521123500016984,,,,,,,,,,,,,,,,,,,,,,,,,,,,,sub-189,1,random_dot,59.815087636671365,
right,right,4.0,0.0,2.0,right,1.0,0.6791073000058532,,,,,,2.0,0.0,4.0,1.0,,,,,,,,,14.537109600030815,,,,,,,,,14.521451100008562,15.321952000027522,16.1229553000303,16.106898400001228,16.107217800046783,16.1229553000303,16.1229553000303,16.1229553000303,16.80927770002745,right,1.0,0.6791073000058532,,16.809393600036856,16.822803399991244,17.324896200036164,17.30908710003132,,,,,,,,,,,,,,,,,,,,,,,,,,,,,sub-189,1,random_dot,59.815087636671365,
left,left,5.0,1.0,2.0,left,1.0,1.1882606000290252,,,,,,2.0,1.0,5.0,0.0,,,,,,,,,17.324896200036164,,,,,,,,,17.309353100019507,17.658409200026654,18.45891919999849,18.44381510000676,18.444149299990386,18.45891919999849,18.45891919999849,18.45891919999849,19.661911700037308,left,1.0,1.1882606000290252,,19.66200430004392,19.67743340000743,20.178766800032463,20.16255569999339,,,,,,,,,,,,,,,,,,,,,,,,,,,,,sub-189,1,random_dot,59.815087636671365,
left,left,6.0,0.0,3.0,right,0.0,0.4847334999940358,,,,,,3.0,0.0,6.0,0.0,,,,,,,,,20.178766800032463,,,,,,,,,20.162855900009163,20.262438900012057,21.063909300020896,21.0480816999916,21.048401700041723,21.063909300020896,21.063909300020896,21.063909300020896,21.56532069999957,right,0.0,0.4847334999940358,,21.570868300041184,21.58023720001802,,22.06570209999336,,,,,,,,,,,,,,,,,,,,,,,,,,,,,sub-189,1,random_dot,59.815087636671365,
right,right,7.0,1.0,3.0,right,1.0,0.7346120000001974,,,,,,3.0,1.0,7.0,1.0,,,,,,,,,22.082098100043368,,,,,,,,,22.06602730002487,23.266032700019423,24.06837300001644,24.05217360000825,24.052749500027858,24.06837300001644,24.06837300001644,24.06837300001644,24.804264800040983,right,1.0,0.7346120000001974,,24.80710030003684,24.81814560003113,25.31921789998887,25.3029913000064,,,,,,,,,,,,,,,,,,,,,,,,,,,,,sub-189,1,random_dot,59.815087636671365,
left,left,8.0,0.0,4.0,left,1.0,0.5444388000178151,,,,,,4.0,0.0,8.0,0.0,,,,,,,,,25.31921789998887,,,,,,,,,25.303293200035117,25.654351600038357,26.455164000042718,26.438982799998485,26.439306400017813,26.455164000042718,26.455164000042718,26.455164000042718,27.007592500012837,left,1.0,0.5444388000178151,,27.00768700003391,27.021882400033064,27.522593200032134,27.507022500038147,,,,,,,,,,,,,,,,,,,,,,,,,,,,,sub-189,1,random_dot,59.815087636671365,
right,right,9.0,1.0,4.0,right,1.0,0.5271377000026405,,,,,,4.0,1.0,9.0,1.0,,,,,,,,,27.522593200032134,,,,,,,,,27.5074578000349,27.85758460004581,28.65875070000766,28.64254999998957,28.64292180002667,28.65875070000766,28.65875070000766,28.65875070000766,29.19403600000078,right,1.0,0.5271377000026405,,29.194132700038608,29.20843679999234,29.710328200017106,29.69435300002806,,,,,,,,,,,,,,,,,,,,,,,,,,,,,sub-189,1,random_dot,59.815087636671365,
right,right,10.0,0.0,5.0,right,1.0,0.7030354000162333,,,,,,5.0,0.0,10.0,1.0,,,,,,,,,29.710328200017106,,,,,,,,,29.69465640000999,30.49522879999131,31.29614960000617,31.27998920000391,31.280372500012163,31.29614960000617,31.29614960000617,31.29614960000617,32.014857900037896,right,1.0,0.7030354000162333,,32.01495260000229,32.030717200017534,32.531066499999724,32.513955700036604,,,,,,,,,,,,,,,,,,,,,,,,,,,,,sub-189,1,random_dot,59.815087636671365,
left,left,11.0,1.0,5.0,left,1.0,0.7531579000060447,,,,,,5.0,1.0,11.0,0.0,,,,,,,,,32.531066499999724,,,,,,,,,32.51424869999755,32.61476110003423,33.4144317000173,33.400360300031025,33.40067280002404,33.4144317000173,33.4144317000173,33.4144317000173,34.169009100005496,left,1.0,0.7531579000060447,,34.169124500011094,34.18368990003364,34.68376179999905,34.66841680003563,,,,,,,,,,,,,,,,,,,,,,,,,,,,,sub-189,1,random_dot,59.815087636671365,
right,right,12.0,0.0,6.0,right,1.0,0.6614290000288747,,,,,,6.0,0.0,12.0,1.0,,,,,,,,,34.68376179999905,,,,,,,,,34.66867939999793,35.4692156999954,36.270233699993696,36.25478550000116,36.255103400035296,36.270233699993696,36.270233699993696,36.270233699993696,36.939490300021134,right,1.0,0.6614290000288747,,36.93960560002597,36.953714500006754,37.45538769999985,37.43939760001376,,,,,,,,,,,,,,,,,,,,,,,,,,,,,sub-189,1,random_dot,59.815087636671365,
left,left,13.0,1.0,6.0,left,1.0,1.9348008999950248,,,,,,6.0,1.0,13.0,0.0,,,,,,,,,37.45538769999985,,,,,,,,,37.43972970003961,38.24018080002861,39.04038750001928,39.02403100003721,39.02440260001458,39.04038750001928,39.04038750001928,39.04038750001928,40.97832789999666,left,1.0,1.9348008999950248,,40.97842090000631,40.99448739999207,,41.47911270003533,,,,,,,,,,,,,,,,,,,,,,,,,,,,,sub-189,1,random_dot,59.815087636671365,
left,left,14.0,0.0,7.0,left,1.0,1.6138358000316655,,,,,,7.0,0.0,14.0,0.0,,,,,,,,,41.49452760000713,,,,,,,,,41.47948340000585,42.67985529999714,43.48181160003878,43.46521940000821,43.4655330000096,43.48181160003878,43.48181160003878,43.48181160003878,45.10072819999186,left,1.0,1.6138358000316655,,45.10082759999205,45.11628880002536,45.61678270000266,45.60058150003897,,,,,,,,,,,,,,,,,,,,,,,,,,,,,sub-189,1,random_dot,59.815087636671365,
right,right,15.0,1.0,7.0,right,1.0,0.65457559999777,,,,,,7.0,1.0,15.0,1.0,,,,,,,,,45.61678270000266,,,,,,,,,45.60087680001743,45.70021350000752,46.50270410004305,46.486793100018986,46.48716920003062,46.50270410004305,46.50270410004305,46.50270410004305,47.17126999999164,right,1.0,0.65457559999777,,47.17139880004106,47.185929500032216,47.68804590002401,47.671982100000605,,,,,,,,,,,,,,,,,,,,,,,,,,,,,sub-189,1,random_dot,59.815087636671365,
left,left,16.0,0.0,8.0,left,1.0,0.7523501999676228,,,,,,8.0,0.0,16.0,0.0,,,,,,,,,47.68804590002401,,,,,,,,,47.6722560999915,48.02072830003453,48.82324110000627,48.8067030000384,48.80704640003387,48.82324110000627,48.82324110000627,48.82324110000627,49.591571900004055,left,1.0,0.7523501999676228,,49.59169289999409,49.606354999996256,50.10729650000576,50.09109440003522,,,,,,,,,,,,,,,,,,,,,,,,,,,,,sub-189,1,random_dot,59.815087636671365,
right,right,17.0,1.0,8.0,right,1.0,0.6019165000179783,,,,,,8.0,1.0,17.0,1.0,,,,,,,,,50.10729650000576,,,,,,,,,50.091378100041766,51.29315879999194,52.093442400044296,52.078423300001305,52.07874730002368,52.093442400044296,52.093442400044296,52.093442400044296,52.69698340003379,right,1.0,0.6019165000179783,,52.69707640004344,52.71104220004054,53.21273030003067,53.19699020002736,,,,,,,,,,,,,,,,,,,,,,,,,,,,,sub-189,1,random_dot,59.815087636671365,
left,left,18.0,0.0,9.0,left,1.0,1.0805338000063784,,,,,,9.0,0.0,18.0,0.0,,,,,,,,,53.21273030003067,,,,,,,,,53.1973135000444,53.546499699994456,54.3475225000293,54.33037840004545,54.33067150000716,54.3475225000293,54.3475225000293,54.3475225000293,55.43325990001904,left,1.0,1.0805338000063784,,55.43335100001423,55.44857740000589,,55.93388970004162,,,,,,,,,,,,,,,,,,,,,,,,,,,,,sub-189,1,random_dot,59.815087636671365,
right,right,19.0,1.0,9.0,right,1.0,0.5686738999793306,,,,,,9.0,1.0,19.0,1.0,,,,,,,,,55.95060040004319,,,,,,,,,55.93425069999648,57.13526190002449,57.93671640002867,57.921113900025375,57.92149110004539,57.93671640002867,57.93671640002867,57.93671640002867,58.52190530003281,right,1.0,0.5686738999793306,,58.522002700017765,58.53710710001178,,59.02223360002972,,,,,,,,,,,,,,,,,,,,,,,,,,,,,sub-189,1,random_dot,59.815087636671365,
,,,,,,,,,,,,,,,,,,,,,,,,,,,,,,,,,,,,,,,,,,,,,,,,,,,59.02243900002213,59.03774620004697,59.03774620004697,69.68879069999093,space,10.647785599983765,,,,,,,,,,,,,,,,,,,,,,,sub-189,1,random_dot,59.815087636671365,
,,,,,,,,,,,,,,,,,,,,,,,,,,,,,,,,,,,,,,,,,,,,,,,,,,,,,,,,,,69.6888511000434,69.70372560003307,69.70372560003307,72.8265672000125,space,3.118715299991891,,,,,,,,,,,,,,,,sub-189,1,random_dot,59.815087636671365,
left,left,0.0,0.0,0.0,left,1.0,0.696993299992755,,speed,space,1.971509400056675,,,,,,0.0,0.0,0.0,1.0,0.0,0.0,0.0,0.0,74.8461999000283,,,,,,,,,74.83811350003816,76.0323382000206,76.83332780003548,76.81738280004356,76.81770220003091,76.83332780003548,76.83332780003548,76.83332780003548,77.53556680004112,,,,,,,,,,,,,,,,,,,,,,,72.85355759999948,72.85805650003022,72.85805650003022,74.83195860002888,space,1.971509400056675,,left,1.0,0.696993299992755,,,,,sub-189,1,random_dot,59.815087636671365,
right,right,1.0,1.0,0.0,right,1.0,0.4854160999529995,,speed,space,1.971509400056675,,,,,,0.0,0.0,0.0,1.0,0.0,1.0,1.0,1.0,77.54998070001602,,,,,,,,,77.53598400001647,77.90181920002215,78.70267520000925,78.68646890000673,78.68678290001117,78.70267520000925,78.70267520000925,78.70267520000925,79.2041620000382,,,,,,,,,,,,,,,,,,,,,,,,,,,,,,right,1.0,0.4854160999529995,,,,,sub-189,1,random_dot,59.815087636671365,
left,left,2.0,0.0,1.0,left,1.0,0.4712214000173844,,speed,space,1.971509400056675,,,,,,0.0,0.0,0.0,1.0,1.0,0.0,2.0,0.0,79.21972600003937,,,,,,,,,79.20447850000346,79.56972930004122,80.37218230002327,80.35641559999203,80.35679280001204,80.37218230002327,80.37218230002327,80.37218230002327,80.85723520000465,,,,,,,,,,,,,,,,,,,,,,,,,,,,,,left,1.0,0.4712214000173844,,,,,sub-189,1,random_dot,59.815087636671365,
right,right,3.0,1.0,1.0,right,1.0,0.3729795999825001,,speed,space,1.971509400056675,,,,,,0.0,0.0,0.0,1.0,1.0,1.0,3.0,1.0,80.87195360002806,,,,,,,,,80.85763470001984,81.65759930002969,82.45915020001121,82.44217890000436,82.44249630003469,82.45915020001121,82.45915020001121,82.45915020001121,82.84283380000852,,,,,,,,,,,,,,,,,,,,,,,,,,,,,,right,1.0,0.3729795999825001,,,,,sub-189,1,random_dot,59.815087636671365,
right,right,4.0,0.0,2.0,right,1.0,0.5520957999979146,,speed,space,1.971509400056675,,,,,,0.0,0.0,0.0,1.0,2.0,0.0,4.0,1.0,82.85820489999605,,,,,,,,,82.84313230001135,83.19250880001346,83.99337209999794,83.9781445999979,83.97854000004008,83.99337209999794,83.99337209999794,83.99337209999794,84.54658980004024,,,,,,,,,,,,,,,,,,,,,,,,,,,,,,right,1.0,0.5520957999979146,,,,,sub-189,1,random_dot,59.815087636671365,
left,left,5.0,1.0,2.0,right,0.0,0.4820142000098713,,speed,space,1.971509400056675,,,,,,0.0,0.0,0.0,1.0,2.0,1.0,5.0,0.0,84.56121890002396,,,,,,,,,84.5469044999918,85.36188080004649,86.16492880001897,86.1482004999998,86.14851130003808,86.16492880001897,86.16492880001897,86.16492880001897,86.6498623000225,,,,,,,,,,,,,,,,,,,,,,,,,,,,,,right,0.0,0.4820142000098713,,,,,sub-189,1,random_dot,59.815087636671365,
right,right,6.0,0.0,3.0,left,0.0,0.4454941999865696,,speed,space,1.971509400056675,,,,,,0.0,0.0,0.0,1.0,3.0,0.0,6.0,1.0,86.66417669999646,,,,,,,,,86.65017400000943,87.85011920001125,88.65159930003574,88.63531849998981,88.63568400003714,88.65159930003574,88.65159930003574,88.65159930003574,89.10230630001752,,,,,,,,,,,,,,,,,,,,,,,,,,,,,,left,0.0,0.4454941999865696,,,,,sub-189,1,random_dot,59.815087636671365,
left,left,7.0,1.0,3.0,left,1.0,0.4714239999884739,,speed,space,1.971509400056675,,,,,,0.0,0.0,0.0,1.0,3.0,1.0,7.0,0.0,89.11787350004306,,,,,,,,,89.1026691000443,89.90276150003774,90.70441990002293,90.68906120001338,90.68944170000032,90.70441990002293,90.70441990002293,90.70441990002293,91.18936519999988,,,,,,,,,,,,,,,,,,,,,,,,,,,,,,left,1.0,0.4714239999884739,,,,,sub-189,1,random_dot,59.815087636671365,
left,left,8.0,0.0,4.0,left,1.0,0.7110480000264943,,speed,space,1.971509400056675,,,,,,0.0,0.0,0.0,1.0,4.0,0.0,8.0,0.0,91.20545840001432,,,,,,,,,91.1897758000414,91.28770380001517,92.0901307000313,92.07311699999264,92.07343270001002,92.0901307000313,92.0901307000313,92.0901307000313,92.8084675000282,,,,,,,,,,,,,,,,,,,,,,,,,,,,,,left,1.0,0.7110480000264943,,,,,sub-189,1,random_dot,59.815087636671365,
right,right,9.0,1.0,4.0,right,1.0,0.4684599000029266,,speed,space,1.971509400056675,,,,,,0.0,0.0,0.0,1.0,4.0,1.0,9.0,1.0,92.82347270002356,,,,,,,,,92.80881300003966,92.90748470003018,93.70898990001297,93.69316290004645,93.69357110001148,93.70898990001297,93.70898990001297,93.70898990001297,94.1788166000042,,,,,,,,,,,,,,,,,,,,,,,,,,,,,,right,1.0,0.4684599000029266,,,,,sub-189,1,random_dot,59.815087636671365,
right,right,10.0,0.0,5.0,left,0.0,0.2887087999843061,,speed,space,1.971509400056675,,,,,,0.0,0.0,0.0,1.0,5.0,0.0,10.0,1.0,94.19158590002915,,,,,,,,,94.1791310000117,94.99448080000002,95.79559059999885,95.77973720000593,95.78013680002186,95.79559059999885,95.79559059999885,95.79559059999885,96.09741180000128,,,,,,,,,,,,,,,,,,,,,,,,,,,,,,left,0.0,0.2887087999843061,,,,,sub-189,1,random_dot,59.815087636671365,
left,left,11.0,1.0,5.0,left,1.0,0.5284259999752976,,speed,space,1.971509400056675,,,,,,0.0,0.0,0.0,1.0,5.0,1.0,11.0,0.0,96.1116761000012,,,,,,,,,96.09783980000066,96.89617040002486,97.69851489999564,97.68300950003322,97.68336080003064,97.69851489999564,97.69851489999564,97.69851489999564,98.23395300004633,,,,,,,,,,,,,,,,,,,,,,,,,,,,,,left,1.0,0.5284259999752976,,,,,sub-189,1,random_dot,59.815087636671365,
left,left,12.0,0.0,6.0,left,1.0,0.5211962999892421,,speed,space,1.971509400056675,,,,,,0.0,0.0,0.0,1.0,6.0,0.0,12.0,0.0,98.24911199999042,,,,,,,,,98.23435240000254,98.5994236000115,99.40066580002896,99.38369390001752,99.3839804000454,99.40066580002896,99.40066580002896,99.40066580002896,99.93651560001308,,,,,,,,,,,,,,,,,,,,,,,,,,,,,,left,1.0,0.5211962999892421,,,,,sub-189,1,random_dot,59.815087636671365,
right,right,13.0,1.0,6.0,right,1.0,0.8478181000100449,,speed,space,1.971509400056675,,,,,,0.0,0.0,0.0,1.0,6.0,1.0,13.0,1.0,99.95088270003907,,,,,,,,,99.93693790002726,100.30257610004628,101.10374749999028,101.08798990002832,101.08839660004014,101.10374749999028,101.10374749999028,101.10374749999028,101.95571860001655,,,,,,,,,,,,,,,,,,,,,,,,,,,,,,right,1.0,0.8478181000100449,,,,,sub-189,1,random_dot,59.815087636671365,
left,left,14.0,0.0,7.0,left,1.0,0.4727304999832995,,speed,space,1.971509400056675,,,,,,0.0,0.0,0.0,1.0,7.0,0.0,14.0,0.0,101.97082620003494,,,,,,,,,101.95615250000264,103.15571720001752,103.95788490003906,103.94233980000718,103.94265650003216,103.95788490003906,103.95788490003906,103.95788490003906,104.4425304000033,,,,,,,,,,,,,,,,,,,,,,,,,,,,,,left,1.0,0.4727304999832995,,,,,sub-189,1,random_dot,59.815087636671365,
right,right,15.0,1.0,7.0,right,1.0,0.6080977999954484,,speed,space,1.971509400056675,,,,,,0.0,0.0,0.0,1.0,7.0,1.0,15.0,1.0,104.45911850000266,,,,,,,,,104.4429146000184,105.2429667999968,106.04440310003702,106.02847330004442,106.02888080000412,106.04440310003702,106.04440310003702,106.04440310003702,106.66259840002748,,,,,,,,,,,,,,,,,,,,,,,,,,,,,,right,1.0,0.6080977999954484,,,,,sub-189,1,random_dot,59.815087636671365,
left,left,16.0,0.0,8.0,left,1.0,0.4848878000047989,,speed,space,1.971509400056675,,,,,,0.0,0.0,0.0,1.0,8.0,0.0,16.0,0.0,106.67892620002384,,,,,,,,,106.66296260000672,106.76198980002664,107.56340800004546,107.5475398999988,107.54786729998888,107.56340800004546,107.56340800004546,107.56340800004546,108.064730699989,,,,,,,,,,,,,,,,,,,,,,,,,,,,,,left,1.0,0.4848878000047989,,,,,sub-189,1,random_dot,59.815087636671365,
right,right,17.0,1.0,8.0,right,1.0,0.4296311999787576,,speed,space,1.971509400056675,,,,,,0.0,0.0,0.0,1.0,8.0,1.0,17.0,1.0,108.08066710003186,,,,,,,,,108.06513659999472,108.41487370000686,109.21613570000044,109.19996400002856,109.20035290002124,109.21613570000044,109.21613570000044,109.21613570000044,109.65068780002184,,,,,,,,,,,,,,,,,,,,,,,,,,,,,,right,1.0,0.4296311999787576,,,,,sub-189,1,random_dot,59.815087636671365,
right,right,18.0,0.0,9.0,left,0.0,0.4711911000194959,,speed,space,1.971509400056675,,,,,,0.0,0.0,0.0,1.0,9.0,0.0,18.0,1.0,109.66555580002024,,,,,,,,,109.65108640003018,110.00009790004697,110.8017727000406,110.78581460000714,110.78618970001116,110.8017727000406,110.8017727000406,110.8017727000406,111.28569039999276,,,,,,,,,,,,,,,,,,,,,,,,,,,,,,left,0.0,0.4711911000194959,,,,,sub-189,1,random_dot,59.815087636671365,
left,left,19.0,1.0,9.0,left,1.0,0.4029418000136502,,speed,space,1.971509400056675,,,,,,0.0,0.0,0.0,1.0,9.0,1.0,19.0,0.0,111.301529999997,,,,,,,,,111.28605360002256,112.08613630000036,112.88858100003564,112.87250630004564,112.87282240000786,112.88858100003564,112.88858100003564,112.88858100003564,113.30675079999492,,,,,,,,,,,,,,,,,,,,,,,,,,,,,,left,1.0,0.4029418000136502,,,,,sub-189,1,random_dot,59.815087636671365,
left,left,20.0,0.0,10.0,right,0.0,0.6242208000039682,,speed,space,1.971509400056675,,,,,,0.0,0.0,0.0,1.0,10.0,0.0,20.0,0.0,113.32189630001083,,,,,,,,,113.3071612000349,114.50736350001534,115.30868509999708,115.2917949000257,115.29217090003658,115.30868509999708,115.30868509999708,115.30868509999708,115.94288550002966,,,,,,,,,,,,,,,,,,,,,,,,,,,,,,right,0.0,0.6242208000039682,,,,,sub-189,1,random_dot,59.815087636671365,
right,right,21.0,1.0,10.0,right,1.0,0.627089999965392,,speed,space,1.971509400056675,,,,,,0.0,0.0,0.0,1.0,10.0,1.0,21.0,1.0,115.95853800000624,,,,,,,,,115.94328450004105,116.30888860003324,117.11150850000558,117.09506910003256,117.09544490004193,117.11150850000558,117.11150850000558,117.11150850000558,117.74689650000072,,,,,,,,,,,,,,,,,,,,,,,,,,,,,,right,1.0,0.627089999965392,,,,,sub-189,1,random_dot,59.815087636671365,
right,right,22.0,0.0,11.0,left,0.0,0.4564934000372886,,speed,space,1.971509400056675,,,,,,0.0,0.0,0.0,1.0,11.0,0.0,22.0,1.0,117.76246850000462,,,,,,,,,117.74721890001092,118.11201050004456,118.9143960000365,118.89844020002056,118.89883760001976,118.9143960000365,118.9143960000365,118.9143960000365,119.38289950002218,,,,,,,,,,,,,,,,,,,,,,,,,,,,,,left,0.0,0.4564934000372886,,,,,sub-189,1,random_dot,59.815087636671365,
left,left,23.0,1.0,11.0,left,1.0,0.4569125000271015,,speed,space,1.971509400056675,,,,,,0.0,0.0,0.0,1.0,11.0,1.0,23.0,0.0,119.39698560000396,,,,,,,,,119.38321790000192,120.18282079999337,120.9834063000162,120.96779060002882,120.96810930001084,120.9834063000162,120.9834063000162,120.9834063000162,121.45201730000554,,,,,,,,,,,,,,,,,,,,,,,,,,,,,,left,1.0,0.4569125000271015,,,,,sub-189,1,random_dot,59.815087636671365,
left,left,24.0,0.0,12.0,left,1.0,0.7076613999670371,,speed,space,1.971509400056675,,,,,,0.0,0.0,0.0,1.0,12.0,0.0,24.0,0.0,121.46714240004076,,,,,,,,,121.4523451999994,122.2526063999976,123.05337830004282,123.03754720004508,123.03786129999207,123.05337830004282,123.05337830004282,123.05337830004282,123.7725459000212,,,,,,,,,,,,,,,,,,,,,,,,,,,,,,left,1.0,0.7076613999670371,,,,,sub-189,1,random_dot,59.815087636671365,
right,right,25.0,1.0,12.0,right,1.0,0.99718289996963,,speed,space,1.971509400056675,,,,,,0.0,0.0,0.0,1.0,12.0,1.0,25.0,1.0,123.78687770001125,,,,,,,,,123.7728616000386,124.13832349999576,124.9397993000457,124.92402430000948,124.92434570001204,124.9397993000457,124.9397993000457,124.9397993000457,125.94191360002152,,,,,,,,,,,,,,,,,,,,,,,,,,,,,,right,1.0,0.99718289996963,,,,,sub-189,1,random_dot,59.815087636671365,
left,left,26.0,0.0,13.0,right,0.0,0.7395957999979146,,speed,space,1.971509400056675,,,,,,0.0,0.0,0.0,1.0,13.0,0.0,26.0,0.0,125.95686969999224,,,,,,,,,125.9423162000021,127.14368480001576,127.94381750002503,127.9286240999936,127.9289853000082,127.94381750002503,127.94381750002503,127.94381750002503,128.69547269999748,,,,,,,,,,,,,,,,,,,,,,,,,,,,,,right,0.0,0.7395957999979146,,,,,sub-189,1,random_dot,59.815087636671365,
right,right,27.0,1.0,13.0,left,0.0,2.175105200032704,,speed,space,1.971509400056675,,,,,,0.0,0.0,0.0,1.0,13.0,1.0,27.0,1.0,128.71131980000064,,,,,,,,,128.69581020000624,129.89745129999935,130.69763080001576,130.6827917000046,130.68310020002536,130.69763080001576,130.69763080001576,130.69763080001576,132.8870173000032,,,,,,,,,,,,,,,,,,,,,,,,,,,,,,left,0.0,2.175105200032704,,,,,sub-189,1,random_dot,59.815087636671365,
left,left,28.0,0.0,14.0,left,1.0,0.9238651999621652,,speed,space,1.971509400056675,,,,,,0.0,0.0,0.0,1.0,14.0,0.0,28.0,0.0,132.90085700002965,,,,,,,,,132.88733719999436,134.08664870000212,134.88817029999336,134.8728223000071,134.87321130000055,134.88817029999336,134.88817029999336,134.88817029999336,135.82446370000253,,,,,,,,,,,,,,,,,,,,,,,,,,,,,,left,1.0,0.9238651999621652,,,,,sub-189,1,random_dot,59.815087636671365,
right,right,29.0,1.0,14.0,right,1.0,1.0897442999994382,,speed,space,1.971509400056675,,,,,,0.0,0.0,0.0,1.0,14.0,1.0,29.0,1.0,135.8386073000147,,,,,,,,,135.82478170003742,136.6243563000462,137.4255594999995,137.41006220004056,137.4104116000235,137.4255594999995,137.4255594999995,137.4255594999995,138.52872030000435,,,,,,,,,,,,,,,,,,,,,,,,,,,,,,right,1.0,1.0897442999994382,,,,,sub-189,1,random_dot,59.815087636671365,
left,left,30.0,0.0,15.0,left,1.0,0.556577599956654,,speed,space,1.971509400056675,,,,,,0.0,0.0,0.0,1.0,15.0,0.0,30.0,0.0,138.5430107000284,,,,,,,,,138.52903959999094,139.7289154000464,140.53067160001956,140.514310700004,140.51462810003432,140.53067160001956,140.53067160001956,140.53067160001956,141.09790340001928,,,,,,,,,,,,,,,,,,,,,,,,,,,,,,left,1.0,0.556577599956654,,,,,sub-189,1,random_dot,59.815087636671365,
right,right,31.0,1.0,15.0,right,1.0,0.412187400041148,,speed,space,1.971509400056675,,,,,,0.0,0.0,0.0,1.0,15.0,1.0,31.0,1.0,141.1137463999912,,,,,,,,,141.0981909999973,141.19740649999585,141.99859299999662,141.98265960003482,141.9830384000088,141.99859299999662,141.99859299999662,141.99859299999662,142.41657200001646,,,,,,,,,,,,,,,,,,,,,,,,,,,,,,right,1.0,0.412187400041148,,,,,sub-189,1,random_dot,59.815087636671365,
left,left,32.0,0.0,16.0,left,1.0,0.4391424999921582,,speed,space,1.971509400056675,,,,,,0.0,0.0,0.0,1.0,16.0,0.0,32.0,0.0,142.43236680002883,,,,,,,,,142.41686280001886,143.61823840002762,144.41944030002924,144.40396610001335,144.40428880002582,144.41944030002924,144.41944030002924,144.41944030002924,144.8713486000197,,,,,,,,,,,,,,,,,,,,,,,,,,,,,,left,1.0,0.4391424999921582,,,,,sub-189,1,random_dot,59.815087636671365,
right,right,33.0,1.0,16.0,right,1.0,0.4882577999960631,,speed,space,1.971509400056675,,,,,,0.0,0.0,0.0,1.0,16.0,1.0,33.0,1.0,144.88653720001457,,,,,,,,,144.87169050000375,146.071264600032,146.87223490001634,146.8559105000459,146.85629790002713,146.87223490001634,146.87223490001634,146.87223490001634,147.3751759000006,,,,,,,,,,,,,,,,,,,,,,,,,,,,,,right,1.0,0.4882577999960631,,,,,sub-189,1,random_dot,59.815087636671365,
right,right,34.0,0.0,17.0,left,0.0,0.5396950000431389,,speed,space,1.971509400056675,,,,,,0.0,0.0,0.0,1.0,17.0,0.0,34.0,1.0,147.38929070002632,,,,,,,,,147.37559410004178,147.4907293000142,148.29216060001636,148.27606080000987,148.27639479999198,148.29216060001636,148.29216060001636,148.29216060001636,148.84359649999533,,,,,,,,,,,,,,,,,,,,,,,,,,,,,,left,0.0,0.5396950000431389,,,,,sub-189,1,random_dot,59.815087636671365,
left,left,35.0,1.0,17.0,left,1.0,0.5343287999858148,,speed,space,1.971509400056675,,,,,,0.0,0.0,0.0,1.0,17.0,1.0,35.0,0.0,148.85832749999827,,,,,,,,,148.8439733000123,149.19293110002764,149.99448480003048,149.97823220002465,149.97854989999905,149.99448480003048,149.99448480003048,149.99448480003048,150.5305170000065,,,,,,,,,,,,,,,,,,,,,,,,,,,,,,left,1.0,0.5343287999858148,,,,,sub-189,1,random_dot,59.815087636671365,
right,right,36.0,0.0,18.0,right,1.0,0.4329497000435367,,speed,space,1.971509400056675,,,,,,0.0,0.0,0.0,1.0,18.0,0.0,36.0,1.0,150.545208800002,,,,,,,,,150.53085239999928,150.89577639999334,151.6971840999904,151.6803887000424,151.68070389999775,151.6971840999904,151.6971840999904,151.6971840999904,152.13244750001468,,,,,,,,,,,,,,,,,,,,,,,,,,,,,,right,1.0,0.4329497000435367,,,,,sub-189,1,random_dot,59.815087636671365,
left,left,37.0,1.0,18.0,left,1.0,0.3693877999903634,,speed,space,1.971509400056675,,,,,,0.0,0.0,0.0,1.0,18.0,1.0,37.0,0.0,152.14721820002887,,,,,,,,,152.13276400003815,152.48141760000726,153.28233650000766,153.2662928000209,153.2666109999991,153.28233650000766,153.28233650000766,153.28233650000766,153.66723459999776,,,,,,,,,,,,,,,,,,,,,,,,,,,,,,left,1.0,0.3693877999903634,,,,,sub-189,1,random_dot,59.815087636671365,
right,right,38.0,0.0,19.0,right,1.0,0.4326924000051804,,speed,space,1.971509400056675,,,,,,0.0,0.0,0.0,1.0,19.0,0.0,38.0,1.0,153.682480700023,,,,,,,,,153.66755559999729,154.86795859999256,155.669761200028,155.65449889999582,155.65490600001067,155.669761200028,155.669761200028,155.669761200028,156.1045614000177,,,,,,,,,,,,,,,,,,,,,,,,,,,,,,right,1.0,0.4326924000051804,,,,,sub-189,1,random_dot,59.815087636671365,
left,left,39.0,1.0,19.0,left,1.0,0.4966174999717623,,speed,space,1.971509400056675,,,,,,0.0,0.0,0.0,1.0,19.0,1.0,39.0,0.0,156.11961990001146,,,,,,,,,156.10500939999474,156.21986420004396,157.02118380001048,157.00474290002603,157.00508000003174,157.02118380001048,157.02118380001048,157.02118380001048,157.52316520002205,,,,,,,,,,,,,,,,,,,,,,,,,,,,,,left,1.0,0.4966174999717623,,,,,sub-189,1,random_dot,59.815087636671365,
left,left,40.0,0.0,20.0,left,1.0,0.8951290000113659,,speed,space,1.971509400056675,,,,,,0.0,0.0,0.0,1.0,20.0,0.0,40.0,0.0,157.53829220001353,,,,,,,,,157.5234569000313,157.63886569999158,158.44031900004484,158.42496540001594,158.4252827000455,158.44031900004484,158.44031900004484,158.44031900004484,159.342890000029,,,,,,,,,,,,,,,,,,,,,,,,,,,,,,left,1.0,0.8951290000113659,,,,,sub-189,1,random_dot,59.815087636671365,
right,right,41.0,1.0,20.0,right,1.0,0.4332865999895148,,speed,space,1.971509400056675,,,,,,0.0,0.0,0.0,1.0,20.0,1.0,41.0,1.0,159.35789390001446,,,,,,,,,159.343302400026,160.54399700002978,161.3449505000026,161.32930450001732,161.32961720001185,161.3449505000026,161.3449505000026,161.3449505000026,161.78059090004535,,,,,,,,,,,,,,,,,,,,,,,,,,,,,,right,1.0,0.4332865999895148,,,,,sub-189,1,random_dot,59.815087636671365,
right,right,42.0,0.0,21.0,left,0.0,0.759228200011421,,speed,space,1.971509400056675,,,,,,0.0,0.0,0.0,1.0,21.0,0.0,42.0,1.0,161.7950906000333,,,,,,,,,161.78090910002356,162.98133070004403,163.78186930000084,163.76573360001203,163.76610840001376,163.78186930000084,163.78186930000084,163.78186930000084,164.55131340003572,,,,,,,,,,,,,,,,,,,,,,,,,,,,,,left,0.0,0.759228200011421,,,,,sub-189,1,random_dot,59.815087636671365,
left,left,43.0,1.0,21.0,left,1.0,0.5341090000001714,,speed,space,1.971509400056675,,,,,,0.0,0.0,0.0,1.0,21.0,1.0,43.0,0.0,164.56594200001564,,,,,,,,,164.55171460000565,164.9011218000087,165.70235620002495,165.68601810000837,165.68633450003108,165.70235620002495,165.70235620002495,165.70235620002495,166.23762750002788,,,,,,,,,,,,,,,,,,,,,,,,,,,,,,left,1.0,0.5341090000001714,,,,,sub-189,1,random_dot,59.815087636671365,
right,right,44.0,0.0,22.0,right,1.0,0.4162172999931499,,speed,space,1.971509400056675,,,,,,0.0,0.0,0.0,1.0,22.0,0.0,44.0,1.0,166.25213249999797,,,,,,,,,166.23803670000052,167.03737670002738,167.8381716000149,167.8234105000156,167.82377990003442,167.8381716000149,167.8381716000149,167.8381716000149,168.2570366000291,,,,,,,,,,,,,,,,,,,,,,,,,,,,,,right,1.0,0.4162172999931499,,,,,sub-189,1,random_dot,59.815087636671365,
left,left,45.0,1.0,22.0,left,1.0,0.4200793999480083,,speed,space,1.971509400056675,,,,,,0.0,0.0,0.0,1.0,22.0,1.0,45.0,0.0,168.2717118000146,,,,,,,,,168.25743310002144,169.45716570003424,170.2588715000311,170.2425034000189,170.24282069999026,170.2588715000311,170.2588715000311,170.2588715000311,170.69308840000303,,,,,,,,,,,,,,,,,,,,,,,,,,,,,,left,1.0,0.4200793999480083,,,,,sub-189,1,random_dot,59.815087636671365,
right,right,46.0,0.0,23.0,right,1.0,0.5723049999796785,,speed,space,1.971509400056675,,,,,,0.0,0.0,0.0,1.0,23.0,0.0,46.0,1.0,170.7094311999972,,,,,,,,,170.69345060002524,171.8945820000372,172.69514740002342,172.67952340003103,172.67990600003395,172.69514740002342,172.69514740002342,172.69514740002342,173.28141620004317,,,,,,,,,,,,,,,,,,,,,,,,,,,,,,right,1.0,0.5723049999796785,,,,,sub-189,1,random_dot,59.815087636671365,
left,left,47.0,1.0,23.0,left,1.0,0.4306621000287123,,speed,space,1.971509400056675,,,,,,0.0,0.0,0.0,1.0,23.0,1.0,47.0,0.0,173.29567160003353,,,,,,,,,173.281831100001,174.4818365999963,175.28241800004616,175.26749060000293,175.2679292000248,175.28241800004616,175.28241800004616,175.28241800004616,175.71787310001673,,,,,,,,,,,,,,,,,,,,,,,,,,,,,,left,1.0,0.4306621000287123,,,,,sub-189,1,random_dot,59.815087636671365,
right,right,48.0,0.0,24.0,right,1.0,0.4191862000152468,,speed,space,1.971509400056675,,,,,,0.0,0.0,0.0,1.0,24.0,0.0,48.0,1.0,175.73276360001182,,,,,,,,,175.71833570004674,176.51836859999457,177.31849969999166,177.30249830003595,177.30286420002813,177.31849969999166,177.31849969999166,177.31849969999166,177.7544281000155,,,,,,,,,,,,,,,,,,,,,,,,,,,,,,right,1.0,0.4191862000152468,,,,,sub-189,1,random_dot,59.815087636671365,
left,left,49.0,1.0,24.0,left,1.0,0.4467098999884911,,speed,space,1.971509400056675,,,,,,0.0,0.0,0.0,1.0,24.0,1.0,49.0,0.0,177.76987350004492,,,,,,,,,177.75477580004372,178.1038437000243,178.90591190004488,178.88953380001476,178.88986160000786,178.90591190004488,178.90591190004488,178.90591190004488,179.35758190002525,,,,,,,,,,,,,,,,,,,,,,,,,,,,,,left,1.0,0.4467098999884911,,,,,sub-189,1,random_dot,59.815087636671365,
right,right,50.0,0.0,25.0,right,1.0,0.517724699981045,,speed,space,1.971509400056675,,,,,,0.0,0.0,0.0,1.0,25.0,0.0,50.0,1.0,179.37250080000376,,,,,,,,,179.35790430003544,180.55770250002388,181.35880099999488,181.34318090003217,181.34358220000288,181.35880099999488,181.35880099999488,181.35880099999488,181.8932996999938,,,,,,,,,,,,,,,,,,,,,,,,,,,,,,right,1.0,0.517724699981045,,,,,sub-189,1,random_dot,59.815087636671365,
left,left,51.0,1.0,25.0,left,1.0,0.5258036000304855,,speed,space,1.971509400056675,,,,,,0.0,0.0,0.0,1.0,25.0,1.0,51.0,0.0,181.90971269999864,,,,,,,,,181.8936829000013,181.99260450003203,182.7942179000238,182.77750900003596,182.7778568000067,182.7942179000238,182.7942179000238,182.7942179000238,183.3301009000279,,,,,,,,,,,,,,,,,,,,,,,,,,,,,,left,1.0,0.5258036000304855,,,,,sub-189,1,random_dot,59.815087636671365,
right,right,52.0,0.0,26.0,right,1.0,0.6354170999838971,,speed,space,1.971509400056675,,,,,,0.0,0.0,0.0,1.0,26.0,0.0,52.0,1.0,183.34479050000664,,,,,,,,,183.3304390000412,183.69591230002695,184.49732540000696,184.4811006000382,184.48150410002563,184.49732540000696,184.49732540000696,184.49732540000696,185.14806670002872,,,,,,,,,,,,,,,,,,,,,,,,,,,,,,right,1.0,0.6354170999838971,,,,,sub-189,1,random_dot,59.815087636671365,
left,left,53.0,1.0,26.0,left,1.0,0.4075961000053212,,speed,space,1.971509400056675,,,,,,0.0,0.0,0.0,1.0,26.0,1.0,53.0,0.0,185.16480440000305,,,,,,,,,185.1484209999908,185.9486371999956,186.75035580003168,186.7344264000421,186.7348098999937,186.75035580003168,186.75035580003168,186.75035580003168,187.1687372000306,,,,,,,,,,,,,,,,,,,,,,,,,,,,,,left,1.0,0.4075961000053212,,,,,sub-189,1,random_dot,59.815087636671365,
left,left,54.0,0.0,27.0,left,1.0,0.5009361999691464,,speed,space,1.971509400056675,,,,,,0.0,0.0,0.0,1.0,27.0,0.0,54.0,0.0,187.18410430004587,,,,,,,,,187.16905660001797,187.2845358999912,188.08584610000253,188.06861830002163,188.06890559999735,188.08584610000253,188.08584610000253,188.08584610000253,188.6034860000364,,,,,,,,,,,,,,,,,,,,,,,,,,,,,,left,1.0,0.5009361999691464,,,,,sub-189,1,random_dot,59.815087636671365,
right,right,55.0,1.0,27.0,right,1.0,0.4378755000070669,,speed,space,1.971509400056675,,,,,,0.0,0.0,0.0,1.0,27.0,1.0,55.0,1.0,188.61909700004617,,,,,,,,,188.6037653000094,188.70360430004075,189.5039005000144,189.48834460001672,189.48877739999443,189.5039005000144,189.5039005000144,189.5039005000144,189.9561198000447,,,,,,,,,,,,,,,,,,,,,,,,,,,,,,right,1.0,0.4378755000070669,,,,,sub-189,1,random_dot,59.815087636671365,
right,right,56.0,0.0,28.0,right,1.0,0.4597952000331133,,speed,space,1.971509400056675,,,,,,0.0,0.0,0.0,1.0,28.0,0.0,56.0,1.0,189.9710868000402,,,,,,,,,189.95644000003813,191.15698950004295,191.9586968999938,191.9422097000061,191.94259310001507,191.9586968999938,191.9586968999938,191.9586968999938,192.42746470001293,,,,,,,,,,,,,,,,,,,,,,,,,,,,,,right,1.0,0.4597952000331133,,,,,sub-189,1,random_dot,59.815087636671365,
left,left,57.0,1.0,28.0,left,1.0,0.4176319999969564,,speed,space,1.971509400056675,,,,,,0.0,0.0,0.0,1.0,28.0,1.0,57.0,0.0,192.4424673000467,,,,,,,,,192.4277849000064,193.6273893000325,194.42808250000235,194.41249610000523,194.41282130003677,194.42808250000235,194.42808250000235,194.42808250000235,194.8474442000152,,,,,,,,,,,,,,,,,,,,,,,,,,,,,,left,1.0,0.4176319999969564,,,,,sub-189,1,random_dot,59.815087636671365,
right,right,58.0,0.0,29.0,right,1.0,0.5075623000157066,,speed,space,1.971509400056675,,,,,,0.0,0.0,0.0,1.0,29.0,0.0,58.0,1.0,194.8620999000268,,,,,,,,,194.8477755000349,195.19654830003856,195.99815649999076,195.98165590001736,195.9820379000157,195.99815649999076,195.99815649999076,195.99815649999076,196.51591409998943,,,,,,,,,,,,,,,,,,,,,,,,,,,,,,right,1.0,0.5075623000157066,,,,,sub-189,1,random_dot,59.815087636671365,
left,left,59.0,1.0,29.0,left,1.0,0.4858535999665037,,speed,space,1.971509400056675,,,,,,0.0,0.0,0.0,1.0,29.0,1.0,59.0,0.0,196.53084750002017,,,,,,,,,196.51623150001976,197.3162645000266,198.1182551000384,198.10181439999724,198.1021638000384,198.1182551000384,198.1182551000384,198.1182551000384,198.6198881000164,,,,,,,,,,,,,,,,,,,,,,,,,,,,,,left,1.0,0.4858535999665037,,,,,sub-189,1,random_dot,59.815087636671365,
,,0.0,0.0,0.0,,,,,speed,space,1.971509400056675,,,,,,0.0,0.0,0.0,1.0,,,,,,,,,,,,,,,,,,,,,,,,,,,,,,,,,,,,,,,,,,,,,,,,,,,,,,,,,,,sub-189,1,random_dot,59.815087636671365,
right,right,0.0,0.0,0.0,right,1.0,0.5671505000209436,,accuracy,space,1.9818880000384524,,,,,,0.0,1.0,1.0,0.0,0.0,0.0,0.0,1.0,200.65364860004047,,,,,,,,,200.64565520000176,200.9892749999999,201.79057130002184,201.77419930003816,201.77455070003637,201.79057130002184,201.79057130002184,201.79057130002184,202.3592812000425,,,,,,,,,,,,,,,,,,,,,,,198.64181699999608,198.64529230003245,198.64529230003245,200.63967480004067,space,1.9818880000384524,,right,1.0,0.5671505000209436,,,,,sub-189,1,random_dot,59.815087636671365,
left,left,1.0,1.0,0.0,left,1.0,0.4522489999653771,,accuracy,space,1.9818880000384524,,,,,,0.0,1.0,1.0,0.0,0.0,1.0,1.0,0.0,202.3734676000313,,,,,,,,,202.3596630000393,203.15890330000548,203.9597516999929,203.9443420000025,203.94465830002449,203.9597516999929,203.9597516999929,203.9597516999929,204.42756340000776,,,,,,,,,,,,,,,,,,,,,,,,,,,,,,left,1.0,0.4522489999653771,,,,,sub-189,1,random_dot,59.815087636671365,
right,right,2.0,0.0,1.0,right,1.0,0.5422534000244923,,accuracy,space,1.9818880000384524,,,,,,0.0,1.0,1.0,0.0,1.0,0.0,2.0,1.0,204.4443109999993,,,,,,,,,204.4278391000116,205.22863329999385,206.02939640003024,206.0134141000453,206.0137232000125,206.02939640003024,206.02939640003024,206.02939640003024,206.58066810003947,,,,,,,,,,,,,,,,,,,,,,,,,,,,,,right,1.0,0.5422534000244923,,,,,sub-189,1,random_dot,59.815087636671365,
left,left,3.0,1.0,1.0,left,1.0,0.7125932000344619,,accuracy,space,1.9818880000384524,,,,,,0.0,1.0,1.0,0.0,1.0,1.0,3.0,0.0,206.59700380003775,,,,,,,,,206.58095930004487,206.9310223000357,207.73146400001133,207.71544180001365,207.71572840004228,207.73146400001133,207.73146400001133,207.73146400001133,208.4514919000212,,,,,,,,,,,,,,,,,,,,,,,,,,,,,,left,1.0,0.7125932000344619,,,,,sub-189,1,random_dot,59.815087636671365,
right,right,4.0,0.0,2.0,right,1.0,0.6372762999963015,,accuracy,space,1.9818880000384524,,,,,,0.0,1.0,1.0,0.0,2.0,0.0,4.0,1.0,208.4658642000286,,,,,,,,,208.4518081000424,208.5503123000381,209.35148290003417,209.33593840000685,209.3362692000228,209.35148290003417,209.35148290003417,209.35148290003417,210.00344120000955,,,,,,,,,,,,,,,,,,,,,,,,,,,,,,right,1.0,0.6372762999963015,,,,,sub-189,1,random_dot,59.815087636671365,
left,left,5.0,1.0,2.0,left,1.0,0.75625780003611,,accuracy,space,1.9818880000384524,,,,,,0.0,1.0,1.0,0.0,2.0,1.0,5.0,0.0,210.0181445000344,,,,,,,,,210.00379799999064,210.1015841999906,210.9033083000104,210.88847930001796,210.888834100042,210.9033083000104,210.9033083000104,210.9033083000104,211.6723947999999,,,,,,,,,,,,,,,,,,,,,,,,,,,,,,left,1.0,0.75625780003611,,,,,sub-189,1,random_dot,59.815087636671365,
left,left,6.0,0.0,3.0,left,1.0,1.660794299968984,,accuracy,space,1.9818880000384524,,,,,,0.0,1.0,1.0,0.0,3.0,0.0,6.0,0.0,211.6873259000131,,,,,,,,,211.672708099999,212.8735504000215,213.6752630000119,213.65911060001235,213.6594739000429,213.6752630000119,213.6752630000119,213.6752630000119,215.3455337000196,,,,,,,,,,,,,,,,,,,,,,,,,,,,,,left,1.0,1.660794299968984,,,,,sub-189,1,random_dot,59.815087636671365,
right,right,7.0,1.0,3.0,right,1.0,0.628337099973578,,accuracy,space,1.9818880000384524,,,,,,0.0,1.0,1.0,0.0,3.0,1.0,7.0,1.0,215.360807900026,,,,,,,,,215.345862200018,215.4608092000126,216.2624191000359,216.24635490000944,216.2467191000469,216.2624191000359,216.2624191000359,216.2624191000359,216.89746120001652,,,,,,,,,,,,,,,,,,,,,,,,,,,,,,right,1.0,0.628337099973578,,,,,sub-189,1,random_dot,59.815087636671365,
right,right,8.0,0.0,4.0,right,1.0,1.142172500025481,,accuracy,space,1.9818880000384524,,,,,,0.0,1.0,1.0,0.0,4.0,0.0,8.0,1.0,216.91187559999528,,,,,,,,,216.8977902000188,217.24595100001895,218.04814160004025,218.032105899998,218.0324244000367,218.04814160004025,218.04814160004025,218.04814160004025,219.20168669999111,,,,,,,,,,,,,,,,,,,,,,,,,,,,,,right,1.0,1.142172500025481,,,,,sub-189,1,random_dot,59.815087636671365,
left,left,9.0,1.0,4.0,left,1.0,0.7851658999570645,,accuracy,space,1.9818880000384524,,,,,,0.0,1.0,1.0,0.0,4.0,1.0,9.0,0.0,219.2169112000265,,,,,,,,,219.20209279999835,219.5675680999993,220.3688333000173,220.35274679999569,220.35309580003377,220.3688333000173,220.3688333000173,220.3688333000173,221.17051990004256,,,,,,,,,,,,,,,,,,,,,,,,,,,,,,left,1.0,0.7851658999570645,,,,,sub-189,1,random_dot,59.815087636671365,
right,right,10.0,0.0,5.0,right,1.0,0.4929264999809675,,accuracy,space,1.9818880000384524,,,,,,0.0,1.0,1.0,0.0,5.0,0.0,10.0,1.0,221.1862756999908,,,,,,,,,221.1709371000179,222.371232400008,223.1731419000425,223.15676420001543,223.1571722000372,223.1731419000425,223.1731419000425,223.1731419000425,223.67419779999184,,,,,,,,,,,,,,,,,,,,,,,,,,,,,,right,1.0,0.4929264999809675,,,,,sub-189,1,random_dot,59.815087636671365,
left,left,11.0,1.0,5.0,left,1.0,0.6400120999896899,,accuracy,space,1.9818880000384524,,,,,,0.0,1.0,1.0,0.0,5.0,1.0,11.0,0.0,223.6889879000373,,,,,,,,,223.67460180004127,224.4742646000232,225.27501250000205,225.2588539000135,225.2592429000069,225.27501250000205,225.27501250000205,225.27501250000205,225.92783619998957,,,,,,,,,,,,,,,,,,,,,,,,,,,,,,left,1.0,0.6400120999896899,,,,,sub-189,1,random_dot,59.815087636671365,
right,right,12.0,0.0,6.0,right,1.0,0.7223614000249654,,accuracy,space,1.9818880000384524,,,,,,0.0,1.0,1.0,0.0,6.0,0.0,12.0,1.0,225.94273020001128,,,,,,,,,225.92823960003443,226.04361130000325,226.84503620001487,226.82910770003215,226.82948810001835,226.84503620001487,226.84503620001487,226.84503620001487,227.58022470003925,,,,,,,,,,,,,,,,,,,,,,,,,,,,,,right,1.0,0.7223614000249654,,,,,sub-189,1,random_dot,59.815087636671365,
left,left,13.0,1.0,6.0,left,1.0,1.4043581999721937,,accuracy,space,1.9818880000384524,,,,,,0.0,1.0,1.0,0.0,6.0,1.0,13.0,0.0,227.59658880002095,,,,,,,,,227.58063969999785,227.9464325000299,228.7481395000359,228.73167890001787,228.73201340000375,228.7481395000359,228.7481395000359,228.7481395000359,230.16790400003083,,,,,,,,,,,,,,,,,,,,,,,,,,,,,,left,1.0,1.4043581999721937,,,,,sub-189,1,random_dot,59.815087636671365,
right,right,14.0,0.0,7.0,right,1.0,1.3649479000014253,,accuracy,space,1.9818880000384524,,,,,,0.0,1.0,1.0,0.0,7.0,0.0,14.0,1.0,230.18350899999496,,,,,,,,,230.1682231000159,230.2831892000395,231.0837627000292,231.06875269999728,231.06914830004095,231.0837627000292,231.0837627000292,231.0837627000292,232.45431619999,,,,,,,,,,,,,,,,,,,,,,,,,,,,,,right,1.0,1.3649479000014253,,,,,sub-189,1,random_dot,59.815087636671365,
left,left,15.0,1.0,7.0,right,0.0,2.1064818000304517,,accuracy,space,1.9818880000384524,,,,,,0.0,1.0,1.0,0.0,7.0,1.0,15.0,0.0,232.46989549999125,,,,,,,,,232.45471960003488,232.8037394999992,233.6050011999905,233.589305600035,233.5896900999942,233.6050011999905,233.6050011999905,233.6050011999905,235.7251912000356,,,,,,,,,,,,,,,,,,,,,,,,,,,,,,right,0.0,2.1064818000304517,,,,,sub-189,1,random_dot,59.815087636671365,
right,right,16.0,0.0,8.0,left,0.0,0.9715422000153922,,accuracy,space,1.9818880000384524,,,,,,0.0,1.0,1.0,0.0,8.0,0.0,16.0,1.0,235.74244300002465,,,,,,,,,235.72555030003423,235.82518839999105,236.6261927000014,236.61080130003396,236.61117970000487,236.6261927000014,236.6261927000014,236.6261927000014,237.61211400001773,,,,,,,,,,,,,,,,,,,,,,,,,,,,,,left,0.0,0.9715422000153922,,,,,sub-189,1,random_dot,59.815087636671365,
left,left,17.0,1.0,8.0,left,1.0,1.2836904000141658,,accuracy,space,1.9818880000384524,,,,,,0.0,1.0,1.0,0.0,8.0,1.0,17.0,0.0,237.62753520003756,,,,,,,,,237.61244280001847,238.81207600003108,239.6142934000236,239.59849540004507,239.59887550002892,239.6142934000236,239.6142934000236,239.6142934000236,240.9010700000217,,,,,,,,,,,,,,,,,,,,,,,,,,,,,,left,1.0,1.2836904000141658,,,,,sub-189,1,random_dot,59.815087636671365,
left,left,18.0,0.0,9.0,right,0.0,1.347168000007514,,accuracy,space,1.9818880000384524,,,,,,0.0,1.0,1.0,0.0,9.0,0.0,18.0,0.0,240.91526600002544,,,,,,,,,240.90148370002865,241.01617240003543,241.817631700018,241.80176679999568,241.80208170000697,241.817631700018,241.817631700018,241.817631700018,243.17058430000907,,,,,,,,,,,,,,,,,,,,,,,,,,,,,,right,0.0,1.347168000007514,,,,,sub-189,1,random_dot,59.815087636671365,
right,right,19.0,1.0,9.0,left,0.0,0.1978519999538548,,accuracy,space,1.9818880000384524,,,,,,0.0,1.0,1.0,0.0,9.0,1.0,19.0,1.0,243.1855683000176,,,,,,,,,243.17095380002863,244.3714565000264,245.17183860001387,245.15702199999944,245.15733680000997,245.17183860001387,245.17183860001387,245.17183860001387,245.37350680003877,,,,,,,,,,,,,,,,,,,,,,,,,,,,,,left,0.0,0.1978519999538548,,,,,sub-189,1,random_dot,59.815087636671365,
left,left,20.0,0.0,10.0,left,1.0,0.4963674999889917,,accuracy,space,1.9818880000384524,,,,,,0.0,1.0,1.0,0.0,10.0,0.0,20.0,0.0,245.38876639999216,,,,,,,,,245.3739110000315,246.5749024000252,247.37596540001687,247.35976600000868,247.3601496000192,247.37596540001687,247.37596540001687,247.37596540001687,247.87769120000303,,,,,,,,,,,,,,,,,,,,,,,,,,,,,,left,1.0,0.4963674999889917,,,,,sub-189,1,random_dot,59.815087636671365,
right,right,21.0,1.0,10.0,right,1.0,0.4473178999614902,,accuracy,space,1.9818880000384524,,,,,,0.0,1.0,1.0,0.0,10.0,1.0,21.0,1.0,247.8924860000261,,,,,,,,,247.8780923000304,248.6781620000256,249.47964870004216,249.46368560002884,249.46401809999952,249.47964870004216,249.47964870004216,249.47964870004216,249.9315470000147,,,,,,,,,,,,,,,,,,,,,,,,,,,,,,right,1.0,0.4473178999614902,,,,,sub-189,1,random_dot,59.815087636671365,
left,left,22.0,0.0,11.0,left,1.0,0.6296463999897242,,accuracy,space,1.9818880000384524,,,,,,0.0,1.0,1.0,0.0,11.0,0.0,22.0,0.0,249.94575509999413,,,,,,,,,249.93189940002048,250.0463751000352,250.84863359999144,250.8323790000286,250.8326916000224,250.84863359999144,250.84863359999144,250.84863359999144,251.48255750001408,,,,,,,,,,,,,,,,,,,,,,,,,,,,,,left,1.0,0.6296463999897242,,,,,sub-189,1,random_dot,59.815087636671365,
right,right,23.0,1.0,11.0,right,1.0,0.6201621000072919,,accuracy,space,1.9818880000384524,,,,,,0.0,1.0,1.0,0.0,11.0,1.0,23.0,1.0,251.49854460003556,,,,,,,,,251.48283150000495,251.58268500003032,252.3832748000277,252.36702050000892,252.3673304000404,252.3832748000277,252.3832748000277,252.3832748000277,253.0187568000401,,,,,,,,,,,,,,,,,,,,,,,,,,,,,,right,1.0,0.6201621000072919,,,,,sub-189,1,random_dot,59.815087636671365,
right,right,24.0,0.0,12.0,left,0.0,0.866102600004524,,accuracy,space,1.9818880000384524,,,,,,0.0,1.0,1.0,0.0,12.0,0.0,24.0,1.0,253.03457330004312,,,,,,,,,253.01907610002672,253.3847116000252,254.18664010002976,254.17051760002505,254.17083170003025,254.18664010002976,254.18664010002976,254.18664010002976,255.05534359999,,,,,,,,,,,,,,,,,,,,,,,,,,,,,,left,0.0,0.866102600004524,,,,,sub-189,1,random_dot,59.815087636671365,
left,left,25.0,1.0,12.0,right,0.0,0.3468234000029042,,accuracy,space,1.9818880000384524,,,,,,0.0,1.0,1.0,0.0,12.0,1.0,25.0,0.0,255.0701031000353,,,,,,,,,255.05565819999904,256.256446000014,257.0578698000172,257.04156680003507,257.04190680000465,257.0578698000172,257.0578698000172,257.0578698000172,257.4094965000404,,,,,,,,,,,,,,,,,,,,,,,,,,,,,,right,0.0,0.3468234000029042,,,,,sub-189,1,random_dot,59.815087636671365,
left,left,26.0,0.0,13.0,left,1.0,1.0206100000068543,,accuracy,space,1.9818880000384524,,,,,,0.0,1.0,1.0,0.0,13.0,0.0,26.0,0.0,257.4239833999891,,,,,,,,,257.4098191999947,258.609823100036,259.41136100003496,259.39486520004,259.3952003000304,259.41136100003496,259.41136100003496,259.41136100003496,260.44616670004325,,,,,,,,,,,,,,,,,,,,,,,,,,,,,,left,1.0,1.0206100000068543,,,,,sub-189,1,random_dot,59.815087636671365,
right,right,27.0,1.0,13.0,right,1.0,0.7877529000397772,,accuracy,space,1.9818880000384524,,,,,,0.0,1.0,1.0,0.0,13.0,1.0,27.0,1.0,260.4618801000179,,,,,,,,,260.4464425999904,261.64747230004286,262.44873400003416,262.43307690002257,262.43340470001567,262.44873400003416,262.44873400003416,262.44873400003416,263.2513012000127,,,,,,,,,,,,,,,,,,,,,,,,,,,,,,right,1.0,0.7877529000397772,,,,,sub-189,1,random_dot,59.815087636671365,
right,right,28.0,0.0,14.0,right,1.0,0.8310926000121981,,accuracy,space,1.9818880000384524,,,,,,0.0,1.0,1.0,0.0,14.0,0.0,28.0,1.0,263.2671484000166,,,,,,,,,263.25162260001525,263.3661698999931,264.16835440002615,264.15210790000856,264.15242380002746,264.16835440002615,264.16835440002615,264.16835440002615,265.0042877999949,,,,,,,,,,,,,,,,,,,,,,,,,,,,,,right,1.0,0.8310926000121981,,,,,sub-189,1,random_dot,59.815087636671365,
left,left,29.0,1.0,14.0,left,1.0,1.0620485999970697,,accuracy,space,1.9818880000384524,,,,,,0.0,1.0,1.0,0.0,14.0,1.0,29.0,0.0,265.0188303000177,,,,,,,,,265.0046066000359,265.1200637000147,265.9213158999919,265.904952700017,265.90526930004125,265.9213158999919,265.9213158999919,265.9213158999919,266.9909171999898,,,,,,,,,,,,,,,,,,,,,,,,,,,,,,left,1.0,1.0620485999970697,,,,,sub-189,1,random_dot,59.815087636671365,
left,left,30.0,0.0,15.0,left,1.0,0.7324781999923289,,accuracy,space,1.9818880000384524,,,,,,0.0,1.0,1.0,0.0,15.0,0.0,30.0,0.0,267.00524890003726,,,,,,,,,266.9912364000338,267.7909639000427,268.59122500004014,268.5757501000189,268.57606930000475,268.59122500004014,268.59122500004014,268.59122500004014,269.3263570000417,,,,,,,,,,,,,,,,,,,,,,,,,,,,,,left,1.0,0.7324781999923289,,,,,sub-189,1,random_dot,59.815087636671365,
right,right,31.0,1.0,15.0,right,1.0,0.763386000005994,,accuracy,space,1.9818880000384524,,,,,,0.0,1.0,1.0,0.0,15.0,1.0,31.0,1.0,269.3417228999897,,,,,,,,,269.32664340001065,269.67597780004144,270.47758639999665,270.46194050001213,270.46225430001505,270.47758639999665,270.47758639999665,270.47758639999665,271.2466740999953,,,,,,,,,,,,,,,,,,,,,,,,,,,,,,right,1.0,0.763386000005994,,,,,sub-189,1,random_dot,59.815087636671365,
right,right,32.0,0.0,16.0,right,1.0,1.619261000014376,,accuracy,space,1.9818880000384524,,,,,,0.0,1.0,1.0,0.0,16.0,0.0,32.0,1.0,271.2612686000066,,,,,,,,,271.2469996000291,271.5962384000304,272.3977325000451,272.38150170003064,272.3818169000442,272.3977325000451,272.3977325000451,272.3977325000451,274.01828330004355,,,,,,,,,,,,,,,,,,,,,,,,,,,,,,right,1.0,1.619261000014376,,,,,sub-189,1,random_dot,59.815087636671365,
left,left,33.0,1.0,16.0,left,1.0,1.5860751000000164,,accuracy,space,1.9818880000384524,,,,,,0.0,1.0,1.0,0.0,16.0,1.0,33.0,0.0,274.0325439000153,,,,,,,,,274.0186153000104,274.1326609000098,274.93502130004345,274.9187454000348,274.9190598000423,274.93502130004345,274.93502130004345,274.93502130004345,276.5377850999939,,,,,,,,,,,,,,,,,,,,,,,,,,,,,,left,1.0,1.5860751000000164,,,,,sub-189,1,random_dot,59.815087636671365,
left,left,34.0,0.0,17.0,left,1.0,0.750664500053972,,accuracy,space,1.9818880000384524,,,,,,0.0,1.0,1.0,0.0,17.0,0.0,34.0,0.0,276.5535462000407,,,,,,,,,276.5381044000387,276.88756440003635,277.6885873000137,277.6730163000175,277.6733321000356,277.6885873000137,277.6885873000137,277.6885873000137,278.44125010003336,,,,,,,,,,,,,,,,,,,,,,,,,,,,,,left,1.0,0.750664500053972,,,,,sub-189,1,random_dot,59.815087636671365,
right,right,35.0,1.0,17.0,right,1.0,0.6338677000021562,,accuracy,space,1.9818880000384524,,,,,,0.0,1.0,1.0,0.0,17.0,1.0,35.0,1.0,278.4561914000078,,,,,,,,,278.4415658999933,279.2583201000234,280.06009740004083,280.04311250004685,280.0434291000129,280.06009740004083,280.06009740004083,280.06009740004083,280.6953128000023,,,,,,,,,,,,,,,,,,,,,,,,,,,,,,right,1.0,0.6338677000021562,,,,,sub-189,1,random_dot,59.815087636671365,
right,right,36.0,0.0,18.0,right,1.0,0.8889895000029355,,accuracy,space,1.9818880000384524,,,,,,0.0,1.0,1.0,0.0,18.0,0.0,36.0,1.0,280.7093358000275,,,,,,,,,280.6956282000174,281.51103759999387,282.31259819999104,282.2965941000148,282.29697580001084,282.31259819999104,282.31259819999104,282.31259819999104,283.21515589999035,,,,,,,,,,,,,,,,,,,,,,,,,,,,,,right,1.0,0.8889895000029355,,,,,sub-189,1,random_dot,59.815087636671365,
left,left,37.0,1.0,18.0,left,1.0,1.6948107000207528,,accuracy,space,1.9818880000384524,,,,,,0.0,1.0,1.0,0.0,18.0,1.0,37.0,0.0,283.2306136999978,,,,,,,,,283.2155595000368,284.4157483000308,285.2170771000092,285.20127970003523,285.201663200045,285.2170771000092,285.2170771000092,285.2170771000092,286.920294200012,,,,,,,,,,,,,,,,,,,,,,,,,,,,,,left,1.0,1.6948107000207528,,,,,sub-189,1,random_dot,59.815087636671365,
left,left,38.0,0.0,19.0,left,1.0,2.8266047000070103,,accuracy,space,1.9818880000384524,,,,,,0.0,1.0,1.0,0.0,19.0,0.0,38.0,0.0,286.93631880002795,,,,,,,,,286.92066400003387,288.1213664000388,288.92277160001686,288.90697720000753,288.9073618000257,288.92277160001686,288.92277160001686,288.92277160001686,291.7617914000293,,,,,,,,,,,,,,,,,,,,,,,,,,,,,,left,1.0,2.8266047000070103,,,,,sub-189,1,random_dot,59.815087636671365,
right,right,39.0,1.0,19.0,right,1.0,0.6663869000039995,,accuracy,space,1.9818880000384524,,,,,,0.0,1.0,1.0,0.0,19.0,1.0,39.0,1.0,291.7760175000294,,,,,,,,,291.7622085000039,292.5775061000022,293.37854500004323,293.3631588999997,293.36353339999914,293.37854500004323,293.37854500004323,293.37854500004323,294.04829270002665,,,,,,,,,,,,,,,,,,,,,,,,,,,,,,right,1.0,0.6663869000039995,,,,,sub-189,1,random_dot,59.815087636671365,
right,right,40.0,0.0,20.0,left,0.0,1.1030452999984846,,accuracy,space,1.9818880000384524,,,,,,0.0,1.0,1.0,0.0,20.0,0.0,40.0,1.0,294.063231200038,,,,,,,,,294.0488549000001,294.84848039998906,295.64999900001567,295.6339034000412,295.6342171000433,295.64999900001567,295.64999900001567,295.64999900001567,296.76859300001524,,,,,,,,,,,,,,,,,,,,,,,,,,,,,,left,0.0,1.1030452999984846,,,,,sub-189,1,random_dot,59.815087636671365,
left,left,41.0,1.0,20.0,left,1.0,0.8789836000069045,,accuracy,space,1.9818880000384524,,,,,,0.0,1.0,1.0,0.0,20.0,1.0,41.0,0.0,296.7844039000338,,,,,,,,,296.76899740000954,297.5692865000456,298.37001519999467,298.3550067000324,298.35539510002127,298.37001519999467,298.37001519999467,298.37001519999467,299.2564726000419,,,,,,,,,,,,,,,,,,,,,,,,,,,,,,left,1.0,0.8789836000069045,,,,,sub-189,1,random_dot,59.815087636671365,
left,left,42.0,0.0,21.0,right,0.0,1.1738196999649515,,accuracy,space,1.9818880000384524,,,,,,0.0,1.0,1.0,0.0,21.0,0.0,42.0,0.0,299.27053730003536,,,,,,,,,299.25688120001,300.4568507000222,301.2584439000348,301.2419585000025,301.2422723000054,301.2584439000348,301.2584439000348,301.2584439000348,302.443394300004,,,,,,,,,,,,,,,,,,,,,,,,,,,,,,right,0.0,1.1738196999649515,,,,,sub-189,1,random_dot,59.815087636671365,
right,right,43.0,1.0,21.0,right,1.0,0.7235571999917738,,accuracy,space,1.9818880000384524,,,,,,0.0,1.0,1.0,0.0,21.0,1.0,43.0,1.0,302.45886030001566,,,,,,,,,302.4437509000418,303.2443828000105,304.0455954000354,304.0302428000141,304.0306159000029,304.0455954000354,304.0455954000354,304.0455954000354,304.7810598000069,,,,,,,,,,,,,,,,,,,,,,,,,,,,,,right,1.0,0.7235571999917738,,,,,sub-189,1,random_dot,59.815087636671365,
left,left,44.0,0.0,22.0,left,1.0,0.8127278999891132,,accuracy,space,1.9818880000384524,,,,,,0.0,1.0,1.0,0.0,22.0,0.0,44.0,0.0,304.7959649999975,,,,,,,,,304.7813993000309,305.14622029999737,305.9487594999955,305.93244639999466,305.9327668999904,305.9487594999955,305.9487594999955,305.9487594999955,306.7677028999897,,,,,,,,,,,,,,,,,,,,,,,,,,,,,,left,1.0,0.8127278999891132,,,,,sub-189,1,random_dot,59.815087636671365,
right,right,45.0,1.0,22.0,right,1.0,0.7495914999744855,,accuracy,space,1.9818880000384524,,,,,,0.0,1.0,1.0,0.0,22.0,1.0,45.0,1.0,306.7815485000028,,,,,,,,,306.7681486000074,307.11620680004125,307.91755420004483,307.90144819999114,307.9018499000231,307.91755420004483,307.91755420004483,307.91755420004483,308.67008450004505,,,,,,,,,,,,,,,,,,,,,,,,,,,,,,right,1.0,0.7495914999744855,,,,,sub-189,1,random_dot,59.815087636671365,
left,left,46.0,0.0,23.0,right,0.0,0.7231585000408813,,accuracy,space,1.9818880000384524,,,,,,0.0,1.0,1.0,0.0,23.0,0.0,46.0,0.0,308.68502959999023,,,,,,,,,308.6704902999918,309.47085020004306,310.27161210001213,310.25635470001725,310.2567408000468,310.27161210001213,310.27161210001213,310.27161210001213,311.0068165000412,,,,,,,,,,,,,,,,,,,,,,,,,,,,,,right,0.0,0.7231585000408813,,,,,sub-189,1,random_dot,59.815087636671365,
right,right,47.0,1.0,23.0,left,0.0,0.7520714999991469,,accuracy,space,1.9818880000384524,,,,,,0.0,1.0,1.0,0.0,23.0,1.0,47.0,1.0,311.0213806999964,,,,,,,,,311.0071698999964,312.20760570000857,313.009247900045,312.99287200003164,312.9931970000034,313.009247900045,313.009247900045,313.009247900045,313.7624098000233,,,,,,,,,,,,,,,,,,,,,,,,,,,,,,left,0.0,0.7520714999991469,,,,,sub-189,1,random_dot,59.815087636671365,
right,right,48.0,0.0,24.0,right,1.0,0.6859877000097185,,accuracy,space,1.9818880000384524,,,,,,0.0,1.0,1.0,0.0,24.0,0.0,48.0,1.0,313.776718100009,,,,,,,,,313.7627286000061,314.1265914000105,314.9287890000269,314.91250800003763,314.9128199000261,314.9287890000269,314.9287890000269,314.9287890000269,315.6303372000111,,,,,,,,,,,,,,,,,,,,,,,,,,,,,,right,1.0,0.6859877000097185,,,,,sub-189,1,random_dot,59.815087636671365,
left,left,49.0,1.0,24.0,right,0.0,0.1522527000051923,,accuracy,space,1.9818880000384524,,,,,,0.0,1.0,1.0,0.0,24.0,1.0,49.0,0.0,315.64647360000527,,,,,,,,,315.6306118000066,316.4303510000464,317.23243160004495,317.2158580000396,317.2162032999913,317.23243160004495,317.23243160004495,317.23243160004495,317.3993655000231,,,,,,,,,,,,,,,,,,,,,,,,,,,,,,right,0.0,0.1522527000051923,,,,,sub-189,1,random_dot,59.815087636671365,
left,left,50.0,0.0,25.0,left,1.0,0.6449872000375763,,accuracy,space,1.9818880000384524,,,,,,0.0,1.0,1.0,0.0,25.0,0.0,50.0,0.0,317.4156976999948,,,,,,,,,317.3997052999912,318.6012301000301,319.4022353999899,319.3855783999897,319.38592349999817,319.4022353999899,319.4022353999899,319.4022353999899,320.0542992000119,,,,,,,,,,,,,,,,,,,,,,,,,,,,,,left,1.0,0.6449872000375763,,,,,sub-189,1,random_dot,59.815087636671365,
right,right,51.0,1.0,25.0,right,1.0,1.3329344000085257,,accuracy,space,1.9818880000384524,,,,,,0.0,1.0,1.0,0.0,25.0,1.0,51.0,1.0,320.0687726000324,,,,,,,,,320.0546114000026,320.8547299000202,321.656085500028,321.6396453999914,321.6400040000444,321.656085500028,321.656085500028,321.656085500028,322.99297180003487,,,,,,,,,,,,,,,,,,,,,,,,,,,,,,right,1.0,1.3329344000085257,,,,,sub-189,1,random_dot,59.815087636671365,
left,left,52.0,0.0,26.0,left,1.0,0.8924028999754228,,accuracy,space,1.9818880000384524,,,,,,0.0,1.0,1.0,0.0,26.0,0.0,52.0,0.0,323.00673870003084,,,,,,,,,322.9932904000161,323.10829320002813,323.9093400000129,323.8934353000368,323.89374770002905,323.9093400000129,323.9093400000129,323.9093400000129,324.81122279999545,,,,,,,,,,,,,,,,,,,,,,,,,,,,,,left,1.0,0.8924028999754228,,,,,sub-189,1,random_dot,59.815087636671365,
right,right,53.0,1.0,26.0,right,1.0,0.686101500003133,,accuracy,space,1.9818880000384524,,,,,,0.0,1.0,1.0,0.0,26.0,1.0,53.0,1.0,324.826269400015,,,,,,,,,324.8116272999905,324.91078120004386,325.71188409999013,325.6965283000027,325.69693120004376,325.71188409999013,325.71188409999013,325.71188409999013,326.4130241000093,,,,,,,,,,,,,,,,,,,,,,,,,,,,,,right,1.0,0.686101500003133,,,,,sub-189,1,random_dot,59.815087636671365,
right,right,54.0,0.0,27.0,right,1.0,0.5704666000092402,,accuracy,space,1.9818880000384524,,,,,,0.0,1.0,1.0,0.0,27.0,0.0,54.0,1.0,326.4302533000009,,,,,,,,,326.4132965000463,326.7637880000402,327.5647344000172,327.5481150000124,327.5484235000331,327.5647344000172,327.5647344000172,327.5647344000172,328.1494386999984,,,,,,,,,,,,,,,,,,,,,,,,,,,,,,right,1.0,0.5704666000092402,,,,,sub-189,1,random_dot,59.815087636671365,
left,left,55.0,1.0,27.0,left,1.0,0.6074279999593273,,accuracy,space,1.9818880000384524,,,,,,0.0,1.0,1.0,0.0,27.0,1.0,55.0,0.0,328.16461610002443,,,,,,,,,328.1497235000133,328.9503795999917,329.7514683000045,329.73584390000906,329.73615850001806,329.7514683000045,329.7514683000045,329.7514683000045,330.3689551000134,,,,,,,,,,,,,,,,,,,,,,,,,,,,,,left,1.0,0.6074279999593273,,,,,sub-189,1,random_dot,59.815087636671365,
right,right,56.0,0.0,28.0,right,1.0,0.5009095999994315,,accuracy,space,1.9818880000384524,,,,,,0.0,1.0,1.0,0.0,28.0,0.0,56.0,1.0,330.38464550004574,,,,,,,,,330.369234999991,330.7187094000401,331.5201958999969,331.50473970000166,331.5050504000392,331.5201958999969,331.5201958999969,331.5201958999969,332.0380955000292,,,,,,,,,,,,,,,,,,,,,,,,,,,,,,right,1.0,0.5009095999994315,,,,,sub-189,1,random_dot,59.815087636671365,
left,left,57.0,1.0,28.0,left,1.0,0.4748611000250093,,accuracy,space,1.9818880000384524,,,,,,0.0,1.0,1.0,0.0,28.0,1.0,57.0,0.0,332.05389360000845,,,,,,,,,332.03837830002885,332.83888630004367,333.6399902999983,333.6241915000137,333.6245040000067,333.6399902999983,333.6399902999983,333.6399902999983,334.1256065000198,,,,,,,,,,,,,,,,,,,,,,,,,,,,,,left,1.0,0.4748611000250093,,,,,sub-189,1,random_dot,59.815087636671365,
left,left,58.0,0.0,29.0,left,1.0,0.5431696000159718,,accuracy,space,1.9818880000384524,,,,,,0.0,1.0,1.0,0.0,29.0,0.0,58.0,0.0,334.140562399989,,,,,,,,,334.1259692000458,334.47538180003176,335.2764854000416,335.2596111000166,335.2599111000309,335.2764854000416,335.2764854000416,335.2764854000416,335.8284256000188,,,,,,,,,,,,,,,,,,,,,,,,,,,,,,left,1.0,0.5431696000159718,,,,,sub-189,1,random_dot,59.815087636671365,
right,right,59.0,1.0,29.0,right,1.0,0.8668981000082567,,accuracy,space,1.9818880000384524,,,,,,0.0,1.0,1.0,0.0,29.0,1.0,59.0,1.0,335.8429596000351,,,,,,,,,335.8287907000049,337.0288633000455,337.8298980999971,337.81366099999286,337.8139738999889,337.8298980999971,337.8298980999971,337.8298980999971,338.6991062000161,,,,,,,,,,,,,,,,,,,,,,,,,,,,,,right,1.0,0.8668981000082567,,,,,sub-189,1,random_dot,59.815087636671365,
,,1.0,1.0,0.0,,,,,accuracy,space,1.9818880000384524,,,,,,0.0,1.0,1.0,0.0,,,,,,,,,,,,,,,,,,,,,,,,,,,,,,,,,,,,,,,,,,,,,,,,,,,,,,,,,,,sub-189,1,random_dot,59.815087636671365,
,,,,,,,,,,,,,,,,,,,,,,,,,,,,,,,,,,,,,,,,,,,,,,,,,,,,,,,,,,,,,,,,,,,,,,,,,,,,338.70412490004674,338.71419790002983,343.70531759998994,sub-189,1,random_dot,59.815087636671365,
