wordCTK,colorCTK,corrAnsCTK,congruentCTK,thisN,thisTrialN,thisRepN,keyResp_CTK.keys,keyResp_CTK.corr,keyResp_CTK.rt,keyResp_CTK.duration,wordPractice,colorPractice,corrAnsPractice,congruentPractice,respPractice.keys,respPractice.corr,respPractice.rt,respPractice.duration,word,color,corrAns,congruent,keyResp_test_run.keys,keyResp_test_run.corr,keyResp_test_run.rt,keyResp_test_run.duration,trials_CTK.thisRepN,trials_CTK.thisTrialN,trials_CTK.thisN,trials_CTK.thisIndex,trials_practice.thisRepN,trials_practice.thisTrialN,trials_practice.thisN,trials_practice.thisIndex,trials_test.thisRepN,trials_test.thisTrialN,trials_test.thisN,trials_test.thisIndex,thisRow.t,notes,instruction.started,instr_text.started,instr_image.started,instr_resp.started,instruction.stopped,instr_resp.keys,instr_resp.rt,instr_resp.duration,instr_color_to_key.started,instr_ctk.started,resp_ctk.started,instr_color_to_key.stopped,resp_ctk.keys,resp_ctk.rt,resp_ctk.duration,ITI.started,fixcross.started,fixcross.stopped,ITI.stopped,color_to_key_run.started,stimulus_CTK.started,keyResp_CTK.started,color_to_key_run.stopped,trials_CTK.keyResp_CTK.keys,trials_CTK.keyResp_CTK.corr,trials_CTK.keyResp_CTK.rt,trials_CTK.keyResp_CTK.duration,instr_practice.started,instr_practice_text.started,instr_practice_resp.started,instr_practice.stopped,instr_practice_resp.keys,instr_practice_resp.rt,instr_practice_resp.duration,practice_run.started,stimulus_practice.started,respPractice.started,practice_run.stopped,trials_practice.respPractice.keys,trials_practice.respPractice.corr,trials_practice.respPractice.rt,trials_practice.respPractice.duration,feedback.started,textFeedback.started,feedback.stopped,textFeedback.stopped,instr_test.started,instr_test_text.started,instr_test_resp.started,instr_test.stopped,instr_test_resp.keys,instr_test_resp.rt,instr_test_resp.duration,test_run.started,stimulus_test_run.started,keyResp_test_run.started,test_run.stopped,trials_test.keyResp_test_run.keys,trials_test.keyResp_test_run.corr,trials_test.keyResp_test_run.rt,trials_test.keyResp_test_run.duration,goodbye.started,textGoodbye.started,goodbye.stopped,participant,session,expName,frameRate,Unnamed: 112
,,,,,,,,,,,,,,,,,,,,,,,,,,,,,,,,,,,,,,,,,0.0034735000226646,0.0811184999765828,0.0811184999765828,0.0811184999765828,59.99641889997292,space,59.86084520001896,,,,,,,,,,,,,,,,,,,,,,,,,,,,,,,,,,,,,,,,,,,,,,,,,,,,,,,,,,sub-182,1,stroop_test,60.031360397831,
,,,,,,,,,,,,,,,,,,,,,,,,,,,,,,,,,,,,,,,,,,,,,,,,,59.996476299944334,60.0027689000126,60.0027689000126,63.85272359999362,space,3.8414117000065744,,,,,,,,,,,,,,,,,,,,,,,,,,,,,,,,,,,,,,,,,,,,,,,,,,,sub-182,1,stroop_test,60.031360397831,
test,yellow,g,1.0,0.0,0.0,0.0,g,1.0,1.3665577999781815,,,,,,,,,,,,,,,,,,0.0,0.0,0.0,1.0,,,,,,,,,63.89004420000128,,,,,,,,,,,,,,,,,63.8830380999716,65.06454749999102,65.87287929991726,65.8488896000199,65.86652169993613,65.87287929991726,65.87287929991726,67.24660559999757,g,1.0,1.3665577999781815,,,,,,,,,,,,,,,,,,,,,,,,,,,,,,,,,,,,,,,sub-182,1,stroop_test,60.031360397831,
test,red,r,1.0,1.0,1.0,0.0,r,1.0,1.0953072999836877,,,,,,,,,,,,,,,,,,0.0,1.0,1.0,0.0,,,,,,,,,67.26243739994243,,,,,,,,,,,,,,,,,67.24689119996037,68.06185209995601,68.86084039998241,68.84579259995371,68.84689759998582,68.86084039998241,68.86084039998241,69.96063149999827,r,1.0,1.0953072999836877,,,,,,,,,,,,,,,,,,,,,,,,,,,,,,,,,,,,,,,sub-182,1,stroop_test,60.031360397831,
test,blue,b,1.0,2.0,2.0,0.0,b,1.0,0.5549002999905497,,,,,,,,,,,,,,,,,,0.0,2.0,2.0,2.0,,,,,,,,,69.97625920001883,,,,,,,,,,,,,,,,,69.96085010003299,70.07624939992093,70.87582670000847,70.86003530002199,70.86075420002453,70.87582670000847,70.87582670000847,71.44323829992209,b,1.0,0.5549002999905497,,,,,,,,,,,,,,,,,,,,,,,,,,,,,,,,,,,,,,,sub-182,1,stroop_test,60.031360397831,
test,yellow,g,1.0,3.0,0.0,1.0,g,1.0,0.4470175000606105,,,,,,,,,,,,,,,,,,1.0,0.0,3.0,1.0,,,,,,,,,71.45846659992822,,,,,,,,,,,,,,,,,71.44355870003346,71.80807919998188,72.60765999997966,72.59250989998691,72.59373480000068,72.60765999997966,72.60765999997966,73.05878189997748,g,1.0,0.4470175000606105,,,,,,,,,,,,,,,,,,,,,,,,,,,,,,,,,,,,,,,sub-182,1,stroop_test,60.031360397831,
test,red,r,1.0,4.0,1.0,1.0,r,1.0,0.4381759000243619,,,,,,,,,,,,,,,,,,1.0,1.0,4.0,0.0,,,,,,,,,73.07377869996708,,,,,,,,,,,,,,,,,73.05929150001612,73.42348799994215,74.2225745000178,74.20641320000868,74.20678789995145,74.2225745000178,74.2225745000178,74.67505670001265,r,1.0,0.4381759000243619,,,,,,,,,,,,,,,,,,,,,,,,,,,,,,,,,,,,,,,sub-182,1,stroop_test,60.031360397831,
test,blue,b,1.0,5.0,2.0,1.0,b,1.0,0.403610699926503,,,,,,,,,,,,,,,,,,1.0,2.0,5.0,2.0,,,,,,,,,74.68875219998881,,,,,,,,,,,,,,,,,74.67567819997203,74.78899169992656,75.58793619996868,75.57242869993206,75.57297410001047,75.58793619996868,75.58793619996868,76.00477879995015,b,1.0,0.403610699926503,,,,,,,,,,,,,,,,,,,,,,,,,,,,,,,,,,,,,,,sub-182,1,stroop_test,60.031360397831,
test,red,r,1.0,6.0,0.0,2.0,r,1.0,0.7700884999940172,,,,,,,,,,,,,,,,,,2.0,0.0,6.0,0.0,,,,,,,,,76.02047420002054,,,,,,,,,,,,,,,,,76.00498520000838,76.82008520001546,77.63579430000391,77.61951270001009,77.61989570001606,77.63579430000391,77.63579430000391,78.42151839996222,r,1.0,0.7700884999940172,,,,,,,,,,,,,,,,,,,,,,,,,,,,,,,,,,,,,,,sub-182,1,stroop_test,60.031360397831,
test,yellow,g,1.0,7.0,1.0,2.0,g,1.0,0.5218813000246882,,,,,,,,,,,,,,,,,,2.0,1.0,7.0,1.0,,,,,,,,,78.43554229999427,,,,,,,,,,,,,,,,,78.42222429998219,78.78523949999362,79.60167899995577,79.58525919995736,79.58608349994756,79.60167899995577,79.60167899995577,80.13777929998469,g,1.0,0.5218813000246882,,,,,,,,,,,,,,,,,,,,,,,,,,,,,,,,,,,,,,,sub-182,1,stroop_test,60.031360397831,
test,blue,b,1.0,8.0,2.0,2.0,b,1.0,0.4881070000119507,,,,,,,,,,,,,,,,,,2.0,2.0,8.0,2.0,,,,,,,,,80.15033809992019,,,,,,,,,,,,,,,,,80.1382869000081,81.34943950001616,82.16517429996748,82.14930639998056,82.14989569992758,82.16517429996748,82.16517429996748,82.66776879993267,b,1.0,0.4881070000119507,,,,,,,,,,,,,,,,,,,,,,,,,,,,,,,,,,,,,,,sub-182,1,stroop_test,60.031360397831,
test,red,r,1.0,9.0,0.0,3.0,r,1.0,0.4567063999129459,,,,,,,,,,,,,,,,,,3.0,0.0,9.0,0.0,,,,,,,,,82.68119149992708,,,,,,,,,,,,,,,,,82.66858639998827,83.48067019996233,84.27977629995439,84.26457549992483,84.26556339999661,84.27977629995439,84.27977629995439,84.74731659993995,r,1.0,0.4567063999129459,,,,,,,,,,,,,,,,,,,,,,,,,,,,,,,,,,,,,,,sub-182,1,stroop_test,60.031360397831,
test,blue,b,1.0,10.0,1.0,3.0,b,1.0,0.5277815998997539,,,,,,,,,,,,,,,,,,3.0,1.0,10.0,2.0,,,,,,,,,84.76271419995464,,,,,,,,,,,,,,,,,84.74771509994753,85.96150829992257,86.76108199998271,86.74483460001647,86.7454314000206,86.76108199998271,86.76108199998271,87.29599070001859,b,1.0,0.5277815998997539,,,,,,,,,,,,,,,,,,,,,,,,,,,,,,,,,,,,,,,sub-182,1,stroop_test,60.031360397831,
test,yellow,g,1.0,11.0,2.0,3.0,g,1.0,0.3348627000814304,,,,,,,,,,,,,,,,,,3.0,2.0,11.0,1.0,,,,,,,,,87.31062360003125,,,,,,,,,,,,,,,,,87.29659929999616,88.1098613999784,88.90914160001557,88.8933931000065,88.89432690001559,88.90914160001557,88.90914160001557,89.2605854999274,g,1.0,0.3348627000814304,,,,,,,,,,,,,,,,,,,,,,,,,,,,,,,,,,,,,,,sub-182,1,stroop_test,60.031360397831,
,,,,,,,,,,,,,,,,,,,,,,,,,,,,,,,,,,,,,,,,,,,,,,,,,,,,,,,,,,,,,,,,,,,,89.26084959995933,89.27533730003051,89.27533730003051,93.14010920003057,space,3.860517199966125,,,,,,,,,,,,,,,,,,,,,,,,,,,,,,,,sub-182,1,stroop_test,60.031360397831,
,,,,0.0,0.0,0.0,,,,,rot,yellow,g,0.0,g,1.0,0.8127418999793008,,,,,,,,,,,,,,0.0,0.0,0.0,3.0,,,,,93.16146109998226,,,,,,,,,,,,,,,,,93.15720939997118,93.5046788000036,94.30804669996724,94.2888053000206,,,,,,,,,,,,,,,,94.30107139993925,94.30804669996724,94.30804669996724,95.13831680000294,g,1.0,0.8127418999793008,,95.1534097000258,95.15942049992736,96.15276670001911,,,,,,,,,,,,,,,,,,,,sub-182,1,stroop_test,60.031360397831,
,,,,1.0,1.0,0.0,,,,,blau,red,r,0.0,r,1.0,0.4805880999192595,,,,,,,,,,,,,,0.0,1.0,1.0,4.0,,,,,96.16864239994902,,,,,,,,,,,,,,,,,96.15371119999328,96.2522659000242,97.0579319000244,97.0361106999917,,,,,,,,,,,,,,,,97.05151799996383,97.0579319000244,97.0579319000244,97.5538161000004,r,1.0,0.4805880999192595,,97.55518289993051,97.56761149992236,98.56690909992903,,,,,,,,,,,,,,,,,,,,sub-182,1,stroop_test,60.031360397831,
,,,,2.0,2.0,0.0,,,,,gelb,blue,b,0.0,b,1.0,0.5462264000670984,,,,,,,,,,,,,,0.0,2.0,2.0,9.0,,,,,98.58314729994164,,,,,,,,,,,,,,,,,98.56732279993594,98.66631889995188,99.46549610001966,99.4501200999366,,,,,,,,,,,,,,,,99.45693949994164,99.46549610001966,99.46549610001966,100.01785880001262,b,1.0,0.5462264000670984,,100.01901499996892,100.03193810000084,101.01627819996791,101.03113789996132,,,,,,,,,,,,,,,,,,,sub-182,1,stroop_test,60.031360397831,
,,,,3.0,3.0,0.0,,,,,gelb,yellow,g,1.0,g,1.0,0.3692719000391662,,,,,,,,,,,,,,0.0,3.0,3.0,10.0,,,,,101.03113789996132,,,,,,,,,,,,,,,,,101.01714040001389,101.38051909999922,102.1797852999298,102.16410199995153,,,,,,,,,,,,,,,,102.16491289995612,102.1797852999298,102.1797852999298,102.56475479993968,g,1.0,0.3692719000391662,,102.56562649994156,102.57940639997832,103.5633229999803,103.57843310001772,,,,,,,,,,,,,,,,,,,sub-182,1,stroop_test,60.031360397831,
,,,,4.0,4.0,0.0,,,,,blau,yellow,g,0.0,g,1.0,0.5796092000091448,,,,,,,,,,,,,,0.0,4.0,4.0,7.0,,,,,103.57843310001772,,,,,,,,,,,,,,,,,103.56391849997452,103.67865429993252,104.477805399918,104.46215719997416,,,,,,,,,,,,,,,,104.46739809995051,104.477805399918,104.477805399918,105.0634530999232,g,1.0,0.5796092000091448,,105.06471359997522,105.07720269996209,106.06153589999305,106.07664400001522,,,,,,,,,,,,,,,,,,,sub-182,1,stroop_test,60.031360397831,
,,,,5.0,5.0,0.0,,,,,gelb,yellow,g,1.0,g,1.0,0.4237694999901578,,,,,,,,,,,,,,0.0,5.0,5.0,11.0,,,,,106.07664400001522,,,,,,,,,,,,,,,,,106.06242119998204,106.42587529995944,107.22574659995736,107.20986469998024,,,,,,,,,,,,,,,,107.21751009998844,107.22574659995736,107.22574659995736,107.65901920001488,g,1.0,0.4237694999901578,,107.65954479994252,107.67443190002814,108.65884349995758,108.67439970001578,,,,,,,,,,,,,,,,,,,sub-182,1,stroop_test,60.031360397831,
,,,,6.0,6.0,0.0,,,,,rot,red,r,1.0,r,1.0,0.3917331000557169,,,,,,,,,,,,,,0.0,6.0,6.0,0.0,,,,,108.67439970001578,,,,,,,,,,,,,,,,,108.65962249995208,109.47329069999978,110.2747300999472,110.25777409994043,,,,,,,,,,,,,,,,110.26786239992362,110.2747300999472,110.2747300999472,110.67590909998398,r,1.0,0.3917331000557169,,110.67742600000928,110.68887730001006,111.68768720002844,,,,,,,,,,,,,,,,,,,,sub-182,1,stroop_test,60.031360397831,
,,,,7.0,7.0,0.0,,,,,gelb,red,r,0.0,r,1.0,0.4436018998967483,,,,,,,,,,,,,,0.0,7.0,7.0,8.0,,,,,111.70427099999506,,,,,,,,,,,,,,,,,111.6881669999566,112.88637900003232,113.6857548999833,113.67013879993463,,,,,,,,,,,,,,,,113.6750787999481,113.6857548999833,113.6857548999833,114.13787610002328,r,1.0,0.4436018998967483,,114.13909029995555,114.1520989999408,115.1367088999832,115.15112519997638,,,,,,,,,,,,,,,,,,,sub-182,1,stroop_test,60.031360397831,
,,,,8.0,8.0,0.0,,,,,rot,red,r,1.0,r,1.0,0.4221299999626353,,,,,,,,,,,,,,0.0,8.0,8.0,1.0,,,,,115.15112519997638,,,,,,,,,,,,,,,,,115.13763679994736,115.5009195000166,116.29980539996176,116.28544719994534,,,,,,,,,,,,,,,,116.29289329994936,116.29980539996176,116.29980539996176,116.73648850002792,r,1.0,0.4221299999626353,,116.73797369992826,116.74961519998033,117.74894089996816,,,,,,,,,,,,,,,,,,,,sub-182,1,stroop_test,60.031360397831,
,,,,9.0,9.0,0.0,,,,,blau,blue,b,1.0,b,1.0,0.4988664999837056,,,,,,,,,,,,,,0.0,9.0,9.0,5.0,,,,,117.76541360002012,,,,,,,,,,,,,,,,,117.7494555999292,118.54802949994335,119.34993070003112,119.33237129996996,,,,,,,,,,,,,,,,119.34142099996096,119.34993070003112,119.34993070003112,119.8652084999485,b,1.0,0.4988664999837056,,119.86609060002957,119.8814357999945,120.8789990999503,,,,,,,,,,,,,,,,,,,,sub-182,1,stroop_test,60.031360397831,
,,,,10.0,10.0,0.0,,,,,rot,blue,b,0.0,b,1.0,0.3614170000655576,,,,,,,,,,,,,,0.0,10.0,10.0,2.0,,,,,120.89551609999036,,,,,,,,,,,,,,,,,120.87949620001018,120.97900890000165,121.78092749998903,121.76369980000892,,,,,,,,,,,,,,,,121.77220499992836,121.78092749998903,121.78092749998903,122.14827320002952,b,1.0,0.3614170000655576,,122.15004169999156,122.1611756000202,123.14533520000988,123.16049719997682,,,,,,,,,,,,,,,,,,,sub-182,1,stroop_test,60.031360397831,
,,,,11.0,11.0,0.0,,,,,blau,blue,b,1.0,b,1.0,0.4498397998977452,,,,,,,,,,,,,,0.0,11.0,11.0,6.0,,,,,123.16049719997682,,,,,,,,,,,,,,,,,123.14612920000218,123.95968750002794,124.75866819999646,124.74385039997289,,,,,,,,,,,,,,,,124.75050169997849,124.75866819999646,124.75866819999646,125.20982719992752,b,1.0,0.4498397998977452,,125.21011159999762,125.22467879997566,126.20841239998116,126.22385089995804,,,,,,,,,,,,,,,,,,,sub-182,1,stroop_test,60.031360397831,
,,,,12.0,0.0,1.0,,,,,rot,red,r,1.0,r,1.0,0.5523580999579281,,,,,,,,,,,,,,1.0,0.0,12.0,1.0,,,,,126.22385089995804,,,,,,,,,,,,,,,,,126.20897249993868,127.42309890000617,128.22411319997627,128.2080122999614,,,,,,,,,,,,,,,,128.21724449994508,128.22411319997627,128.22411319997627,128.79049129993655,r,1.0,0.5523580999579281,,128.79142919997685,128.80485009995755,129.80398409999907,,,,,,,,,,,,,,,,,,,,sub-182,1,stroop_test,60.031360397831,
,,,,13.0,1.0,1.0,,,,,blau,red,r,0.0,r,1.0,0.4452799999853596,,,,,,,,,,,,,,1.0,1.0,13.0,4.0,,,,,129.8204304999672,,,,,,,,,,,,,,,,,129.80437949998304,129.90412179997656,130.7101150000235,130.68769809999503,,,,,,,,,,,,,,,,130.70454139995854,130.7101150000235,130.7101150000235,131.1729380999459,r,1.0,0.4452799999853596,,131.1745378000196,131.18609129998367,132.1852725999197,,,,,,,,,,,,,,,,,,,,sub-182,1,stroop_test,60.031360397831,
,,,,14.0,2.0,1.0,,,,,gelb,yellow,g,1.0,g,1.0,0.5413184000644833,,,,,,,,,,,,,,1.0,2.0,14.0,10.0,,,,,132.20170879992656,,,,,,,,,,,,,,,,,132.18581679998897,132.9845819999464,133.7883048999356,133.76900149998255,,,,,,,,,,,,,,,,133.77893020003103,133.7883048999356,133.7883048999356,134.33514520002063,g,1.0,0.5413184000644833,,134.3361146999523,134.34966980002355,135.34915489994455,,,,,,,,,,,,,,,,,,,,sub-182,1,stroop_test,60.031360397831,
,,,,15.0,3.0,1.0,,,,,blau,blue,b,1.0,b,1.0,0.4028939999407157,,,,,,,,,,,,,,1.0,3.0,15.0,5.0,,,,,135.36554469994735,,,,,,,,,,,,,,,,,135.349971299991,136.5474785999395,137.3515201000264,137.33244319993537,,,,,,,,,,,,,,,,137.3412705999799,137.3515201000264,137.3515201000264,137.76485619996674,b,1.0,0.4028939999407157,,137.76563679997344,137.7795564000262,138.76475430000573,138.7792846999364,,,,,,,,,,,,,,,,,,,sub-182,1,stroop_test,60.031360397831,
,,,,16.0,4.0,1.0,,,,,blau,blue,b,1.0,b,1.0,0.4281320999143645,,,,,,,,,,,,,,1.0,4.0,16.0,6.0,,,,,138.7792846999364,,,,,,,,,,,,,,,,,138.76565489999484,138.87896479992196,139.67837019998117,139.6635308000259,,,,,,,,,,,,,,,,139.6648912000237,139.67837019998117,139.67837019998117,140.11458980001044,b,1.0,0.4281320999143645,,140.11610179999843,140.12757110001985,141.11247489997186,141.12705160002224,,,,,,,,,,,,,,,,,,,sub-182,1,stroop_test,60.031360397831,
,,,,17.0,5.0,1.0,,,,,gelb,red,r,0.0,r,1.0,0.7942997999489307,,,,,,,,,,,,,,1.0,5.0,17.0,8.0,,,,,141.12705160002224,,,,,,,,,,,,,,,,,141.11342840001453,141.22658080002293,142.02548389998265,142.0103564999299,,,,,,,,,,,,,,,,142.0153488999931,142.02548389998265,142.02548389998265,142.82892669993453,r,1.0,0.7942997999489307,,142.83041579998098,142.84208750003015,143.84141929994803,,,,,,,,,,,,,,,,,,,,sub-182,1,stroop_test,60.031360397831,
,,,,18.0,6.0,1.0,,,,,blau,yellow,g,0.0,g,1.0,0.5560034000081941,,,,,,,,,,,,,,1.0,6.0,18.0,7.0,,,,,143.85749899991788,,,,,,,,,,,,,,,,,143.84222019999288,144.64086679997854,145.4560926000122,145.44006229995284,,,,,,,,,,,,,,,,145.44530669995584,145.4560926000122,145.4560926000122,146.02598869998474,g,1.0,0.5560034000081941,,146.02773460000753,146.03869549999945,147.02230029995553,147.03764899994712,,,,,,,,,,,,,,,,,,,sub-182,1,stroop_test,60.031360397831,
,,,,19.0,7.0,1.0,,,,,gelb,yellow,g,1.0,g,1.0,0.5272715999744833,,,,,,,,,,,,,,1.0,7.0,19.0,11.0,,,,,147.03764899994712,,,,,,,,,,,,,,,,,147.02278689993545,148.2370576999383,149.0393096000189,149.02095859998371,,,,,,,,,,,,,,,,149.02971899998374,149.0393096000189,149.0393096000189,149.57104019995313,g,1.0,0.5272715999744833,,149.57196259999182,149.58588929998223,150.58504779997747,,,,,,,,,,,,,,,,,,,,sub-182,1,stroop_test,60.031360397831,
,,,,20.0,8.0,1.0,,,,,gelb,blue,b,0.0,b,1.0,0.6083392000291497,,,,,,,,,,,,,,1.0,8.0,20.0,9.0,,,,,150.60677600000054,,,,,,,,,,,,,,,,,150.58562429994345,150.93467350001447,151.75033730000723,151.73452419997193,,,,,,,,,,,,,,,,151.7353053999832,151.75033730000723,151.75033730000723,152.36783400003333,b,1.0,0.6083392000291497,,152.3688876000233,152.38267730001826,153.36659849993885,153.381933299941,,,,,,,,,,,,,,,,,,,sub-182,1,stroop_test,60.031360397831,
,,,,21.0,9.0,1.0,,,,,rot,red,r,1.0,r,1.0,0.4594642000738531,,,,,,,,,,,,,,1.0,9.0,21.0,0.0,,,,,153.381933299941,,,,,,,,,,,,,,,,,153.36711649992503,153.7314218999818,154.53237679996528,154.51653020002414,,,,,,,,,,,,,,,,154.52506120002363,154.53237679996528,154.53237679996528,154.99968240002636,r,1.0,0.4594642000738531,,155.00081230001524,155.01377780002076,155.99919569992926,156.01262449997012,,,,,,,,,,,,,,,,,,,sub-182,1,stroop_test,60.031360397831,
,,,,22.0,10.0,1.0,,,,,rot,blue,b,0.0,b,1.0,0.5583415000000969,,,,,,,,,,,,,,1.0,10.0,22.0,2.0,,,,,156.01262449997012,,,,,,,,,,,,,,,,,155.999368699966,156.81218369991984,157.61639430001378,157.595792899956,,,,,,,,,,,,,,,,157.59667599992827,157.61639430001378,157.61639430001378,158.17880080000032,b,1.0,0.5583415000000969,,158.17946689995006,158.1939470999641,159.1785477999365,159.19314609991852,,,,,,,,,,,,,,,,,,,sub-182,1,stroop_test,60.031360397831,
,,,,23.0,11.0,1.0,,,,,rot,yellow,g,0.0,g,1.0,0.6400353000499308,,,,,,,,,,,,,,1.0,11.0,23.0,3.0,,,,,159.19314609991852,,,,,,,,,,,,,,,,,159.17942079994828,159.99282479996327,160.79168369993567,160.7768857999472,,,,,,,,,,,,,,,,160.77848670003004,160.79168369993567,160.79168369993567,161.44350429996848,g,1.0,0.6400353000499308,,161.44465079996735,161.4576917999657,162.45680759998504,,,,,,,,,,,,,,,,,,,,sub-182,1,stroop_test,60.031360397831,
,,,,,,,,,,,,,,,,,,,,,,,,,,,,,,,,,,,,,,,,,,,,,,,,,,,,,,,,,,,,,,,,,,,,,,,,,,,,,,,,,,,,,,,162.45696250000037,162.473710799939,162.473710799939,175.0786787000252,space,12.602869899943473,,,,,,,,,,,,,sub-182,1,stroop_test,60.031360397831,
,,,,0.0,0.0,0.0,,,,,,,,,,,,,gelb,yellow,g,1.0,g,1.0,0.6529573000734672,,,,,,,,,,0.0,0.0,0.0,10.0,175.09435209992807,,,,,,,,,,,,,,,,,175.08773209992796,175.44661149999592,176.26001730002463,176.24379490001593,,,,,,,,,,,,,,,,,,,,,,,,,,,,,,,,,,,176.24612119991798,176.26001730002463,176.26001730002463,176.9267511999933,g,1.0,0.6529573000734672,,,,,sub-182,1,stroop_test,60.031360397831,
,,,,1.0,1.0,0.0,,,,,,,,,,,,,rot,blue,b,0.0,b,1.0,0.5851655999431387,,,,,,,,,,0.0,1.0,1.0,2.0,176.9426533000078,,,,,,,,,,,,,,,,,176.92697299993597,177.2923922999762,178.09163189993706,178.0753855999792,,,,,,,,,,,,,,,,,,,,,,,,,,,,,,,,,,,178.07730320002884,178.09163189993706,178.09163189993706,178.69186080002692,b,1.0,0.5851655999431387,,,,,sub-182,1,stroop_test,60.031360397831,
,,,,2.0,2.0,0.0,,,,,,,,,,,,,gelb,red,r,0.0,r,1.0,0.4889985000481829,,,,,,,,,,0.0,2.0,2.0,8.0,178.70765639992896,,,,,,,,,,,,,,,,,178.6921135999728,178.79682259995025,179.64809669996612,179.59063599992078,,,,,,,,,,,,,,,,,,,,,,,,,,,,,,,,,,,179.64401859999634,179.64809669996612,179.64809669996612,180.14043209992815,r,1.0,0.4889985000481829,,,,,sub-182,1,stroop_test,60.031360397831,
,,,,3.0,3.0,0.0,,,,,,,,,,,,,rot,red,r,1.0,r,1.0,0.4256191001040861,,,,,,,,,,0.0,3.0,3.0,0.0,180.15633449994493,,,,,,,,,,,,,,,,,180.1406576000154,180.95801199995915,181.7939526999835,181.75969530001748,,,,,,,,,,,,,,,,,,,,,,,,,,,,,,,,,,,181.77789499994836,181.7939526999835,181.7939526999835,182.2286405999912,r,1.0,0.4256191001040861,,,,,sub-182,1,stroop_test,60.031360397831,
,,,,4.0,4.0,0.0,,,,,,,,,,,,,blau,blue,b,1.0,b,1.0,0.4427491000387817,,,,,,,,,,0.0,4.0,4.0,5.0,182.2410778999329,,,,,,,,,,,,,,,,,182.2310070999665,182.58924010000192,183.40535809996072,183.37431809992995,,,,,,,,,,,,,,,,,,,,,,,,,,,,,,,,,,,183.38958169997204,183.40535809996072,183.40535809996072,183.86016089993063,b,1.0,0.4427491000387817,,,,,sub-182,1,stroop_test,60.031360397831,
,,,,5.0,5.0,0.0,,,,,,,,,,,,,gelb,yellow,g,1.0,g,1.0,0.455099800019525,,,,,,,,,,0.0,5.0,5.0,11.0,183.87216169992465,,,,,,,,,,,,,,,,,183.8619192999322,184.22112629993356,185.0488101999508,185.00678960001096,,,,,,,,,,,,,,,,,,,,,,,,,,,,,,,,,,,185.0306573000271,185.0488101999508,185.0488101999508,185.50899999996184,g,1.0,0.455099800019525,,,,,sub-182,1,stroop_test,60.031360397831,
,,,,6.0,6.0,0.0,,,,,,,,,,,,,rot,red,r,1.0,r,1.0,0.4958358000731095,,,,,,,,,,0.0,6.0,6.0,1.0,185.5198077999521,,,,,,,,,,,,,,,,,185.51058969995935,185.6198303999845,186.4338534999406,186.4175830000313,,,,,,,,,,,,,,,,,,,,,,,,,,,,,,,,,,,186.4194637000328,186.4338534999406,186.4338534999406,186.93415310001,r,1.0,0.4958358000731095,,,,,sub-182,1,stroop_test,60.031360397831,
,,,,7.0,7.0,0.0,,,,,,,,,,,,,blau,blue,b,1.0,b,1.0,0.4258525000186637,,,,,,,,,,0.0,7.0,7.0,6.0,186.9499493999174,,,,,,,,,,,,,,,,,186.93439650000076,187.29969549993984,188.0991265999619,188.0826083000284,,,,,,,,,,,,,,,,,,,,,,,,,,,,,,,,,,,188.084473200026,188.0991265999619,188.0991265999619,188.5325392999221,b,1.0,0.4258525000186637,,,,,sub-182,1,stroop_test,60.031360397831,
,,,,8.0,8.0,0.0,,,,,,,,,,,,,blau,red,r,0.0,r,1.0,1.1570950999157503,,,,,,,,,,0.0,8.0,8.0,4.0,188.5512962000212,,,,,,,,,,,,,,,,,188.5327570999507,188.6317471999209,189.4310210000258,189.41473509999923,,,,,,,,,,,,,,,,,,,,,,,,,,,,,,,,,,,189.41506369994025,189.4310210000258,189.4310210000258,190.59741139994003,r,1.0,1.1570950999157503,,,,,sub-182,1,stroop_test,60.031360397831,
,,,,9.0,9.0,0.0,,,,,,,,,,,,,gelb,blue,b,0.0,b,1.0,0.4533655999694019,,,,,,,,,,0.0,9.0,9.0,9.0,190.61318520002533,,,,,,,,,,,,,,,,,190.5976361000212,191.4124714999925,192.2117685999256,192.1954817000078,,,,,,,,,,,,,,,,,,,,,,,,,,,,,,,,,,,192.19786239997484,192.2117685999256,192.2117685999256,192.67893309996,b,1.0,0.4533655999694019,,,,,sub-182,1,stroop_test,60.031360397831,
,,,,10.0,10.0,0.0,,,,,,,,,,,,,blau,yellow,g,0.0,g,1.0,0.4485577999148518,,,,,,,,,,0.0,10.0,10.0,7.0,192.6946516999742,,,,,,,,,,,,,,,,,192.67916890000924,193.89353649993427,194.6928059000056,194.67659899999853,,,,,,,,,,,,,,,,,,,,,,,,,,,,,,,,,,,194.67889650003053,194.6928059000056,194.6928059000056,195.14346649998333,g,1.0,0.4485577999148518,,,,,sub-182,1,stroop_test,60.031360397831,
,,,,11.0,11.0,0.0,,,,,,,,,,,,,rot,yellow,g,0.0,g,1.0,0.9285767000401391,,,,,,,,,,0.0,11.0,11.0,3.0,195.1590084999334,,,,,,,,,,,,,,,,,195.1437200999353,196.35794739995617,197.1572411999805,197.14103669999167,,,,,,,,,,,,,,,,,,,,,,,,,,,,,,,,,,,197.14307969994843,197.1572411999805,197.1572411999805,198.0906604999909,g,1.0,0.9285767000401391,,,,,sub-182,1,stroop_test,60.031360397831,
,,,,12.0,0.0,1.0,,,,,,,,,,,,,blau,blue,b,1.0,b,1.0,0.5091176999267191,,,,,,,,,,1.0,0.0,12.0,6.0,198.10631019994617,,,,,,,,,,,,,,,,,198.0909050999908,199.30515979998745,200.10535939992403,200.08958229993004,,,,,,,,,,,,,,,,,,,,,,,,,,,,,,,,,,,200.09559379995332,200.10535939992403,200.10535939992403,200.6230067999568,b,1.0,0.5091176999267191,,,,,sub-182,1,stroop_test,60.031360397831,
,,,,13.0,1.0,1.0,,,,,,,,,,,,,blau,yellow,g,0.0,g,1.0,1.2037182999774814,,,,,,,,,,1.0,1.0,13.0,7.0,200.6373601999367,,,,,,,,,,,,,,,,,200.62378719996195,200.9912672999781,201.80301889998373,201.78731909999624,,,,,,,,,,,,,,,,,,,,,,,,,,,,,,,,,,,201.78771079995204,201.80301889998373,201.80301889998373,203.02047799993304,g,1.0,1.2037182999774814,,,,,sub-182,1,stroop_test,60.031360397831,
,,,,14.0,2.0,1.0,,,,,,,,,,,,,gelb,blue,b,0.0,b,1.0,0.9677023000549524,,,,,,,,,,1.0,2.0,14.0,9.0,203.0355225999374,,,,,,,,,,,,,,,,,203.021072799922,203.1353753999574,203.93501659994945,203.9189841999905,,,,,,,,,,,,,,,,,,,,,,,,,,,,,,,,,,,203.92412630002943,203.93501659994945,203.93501659994945,204.91904069995508,b,1.0,0.9677023000549524,,,,,sub-182,1,stroop_test,60.031360397831,
,,,,15.0,3.0,1.0,,,,,,,,,,,,,blau,blue,b,1.0,b,1.0,0.4905324999708682,,,,,,,,,,1.0,3.0,15.0,5.0,204.9335226999829,,,,,,,,,,,,,,,,,204.9196796999313,205.0340163999936,205.83391559997108,205.81800029997248,,,,,,,,,,,,,,,,,,,,,,,,,,,,,,,,,,,205.8260416999692,205.83391559997108,205.83391559997108,206.33505969995167,b,1.0,0.4905324999708682,,,,,sub-182,1,stroop_test,60.031360397831,
,,,,16.0,4.0,1.0,,,,,,,,,,,,,blau,red,r,0.0,r,1.0,0.8117597999516875,,,,,,,,,,1.0,4.0,16.0,4.0,206.3490260000108,,,,,,,,,,,,,,,,,206.3358365999302,206.6983860000037,207.49770499998704,207.48163469997235,,,,,,,,,,,,,,,,,,,,,,,,,,,,,,,,,,,207.48196549993008,207.49770499998704,207.49770499998704,208.31662880000655,r,1.0,0.8117597999516875,,,,,sub-182,1,stroop_test,60.031360397831,
,,,,17.0,5.0,1.0,,,,,,,,,,,,,rot,red,r,1.0,r,1.0,0.5725507000461221,,,,,,,,,,1.0,5.0,17.0,0.0,208.3306584999664,,,,,,,,,,,,,,,,,208.3173578999704,208.680563999922,209.49587749992497,209.4801638999488,,,,,,,,,,,,,,,,,,,,,,,,,,,,,,,,,,,209.48450170003343,209.49587749992497,209.49587749992497,210.08140679995995,r,1.0,0.5725507000461221,,,,,sub-182,1,stroop_test,60.031360397831,
,,,,18.0,6.0,1.0,,,,,,,,,,,,,gelb,yellow,g,1.0,g,1.0,0.3703635999700054,,,,,,,,,,1.0,6.0,18.0,11.0,210.095834299922,,,,,,,,,,,,,,,,,210.08222550002392,210.89434559992517,211.6938995999517,211.67901650001292,,,,,,,,,,,,,,,,,,,,,,,,,,,,,,,,,,,211.6864874999737,211.6938995999517,211.6938995999517,212.07908990001303,g,1.0,0.3703635999700054,,,,,sub-182,1,stroop_test,60.031360397831,
,,,,19.0,7.0,1.0,,,,,,,,,,,,,rot,yellow,g,0.0,g,1.0,0.6815500999800861,,,,,,,,,,1.0,7.0,19.0,3.0,212.09351459995375,,,,,,,,,,,,,,,,,212.0797375999391,212.89274279994424,213.6919835000299,213.6774591000285,,,,,,,,,,,,,,,,,,,,,,,,,,,,,,,,,,,213.68276150000747,213.6919835000299,213.6919835000299,214.37706299999263,g,1.0,0.6815500999800861,,,,,sub-182,1,stroop_test,60.031360397831,
,,,,20.0,8.0,1.0,,,,,,,,,,,,,rot,blue,b,0.0,b,1.0,0.6139262999640778,,,,,,,,,,1.0,8.0,20.0,2.0,214.3914432999445,,,,,,,,,,,,,,,,,214.37763879995327,214.4913211999228,215.29070709994997,215.2756405000109,,,,,,,,,,,,,,,,,,,,,,,,,,,,,,,,,,,215.2765970999608,215.29070709994997,215.29070709994997,215.9080383999972,b,1.0,0.6139262999640778,,,,,sub-182,1,stroop_test,60.031360397831,
,,,,21.0,9.0,1.0,,,,,,,,,,,,,rot,red,r,1.0,r,1.0,0.5822634999640286,,,,,,,,,,1.0,9.0,21.0,1.0,215.92332609998996,,,,,,,,,,,,,,,,,215.90845500002612,216.27307589992412,217.0722576000262,217.0570995999733,,,,,,,,,,,,,,,,,,,,,,,,,,,,,,,,,,,217.05795149994083,217.0722576000262,217.0722576000262,217.6570806999225,r,1.0,0.5822634999640286,,,,,sub-182,1,stroop_test,60.031360397831,
,,,,22.0,10.0,1.0,,,,,,,,,,,,,gelb,yellow,g,1.0,g,1.0,0.5774462000699714,,,,,,,,,,1.0,10.0,22.0,10.0,217.671552099986,,,,,,,,,,,,,,,,,217.65761669992932,217.771635800018,218.5707403999986,218.55526870000176,,,,,,,,,,,,,,,,,,,,,,,,,,,,,,,,,,,218.55987939995248,218.5707403999986,218.5707403999986,219.15540069993585,g,1.0,0.5774462000699714,,,,,sub-182,1,stroop_test,60.031360397831,
,,,,23.0,11.0,1.0,,,,,,,,,,,,,gelb,red,r,0.0,r,1.0,0.8252682000165805,,,,,,,,,,1.0,11.0,23.0,8.0,219.1703078999417,,,,,,,,,,,,,,,,,219.1559794999193,219.27038639993407,220.08606190001592,220.0704923999729,,,,,,,,,,,,,,,,,,,,,,,,,,,,,,,,,,,220.07125959999397,220.08606190001592,220.08606190001592,220.92209429992363,r,1.0,0.8252682000165805,,,,,sub-182,1,stroop_test,60.031360397831,
,,,,24.0,0.0,2.0,,,,,,,,,,,,,rot,red,r,1.0,r,1.0,0.4531207999680191,,,,,,,,,,2.0,0.0,24.0,1.0,220.93574749992692,,,,,,,,,,,,,,,,,220.92297049995975,221.03554229997096,221.8359048999846,221.81972819997463,,,,,,,,,,,,,,,,,,,,,,,,,,,,,,,,,,,221.8271201000316,221.8359048999846,221.8359048999846,222.3025831999257,r,1.0,0.4531207999680191,,,,,sub-182,1,stroop_test,60.031360397831,
,,,,25.0,1.0,2.0,,,,,,,,,,,,,rot,red,r,1.0,r,1.0,0.4549059000564739,,,,,,,,,,2.0,1.0,25.0,0.0,222.3171520000324,,,,,,,,,,,,,,,,,222.30308500002135,223.11704289994668,223.9326391000068,223.9170601000078,,,,,,,,,,,,,,,,,,,,,,,,,,,,,,,,,,,223.91804010001945,223.9326391000068,223.9326391000068,224.3998839999549,r,1.0,0.4549059000564739,,,,,sub-182,1,stroop_test,60.031360397831,
,,,,26.0,2.0,2.0,,,,,,,,,,,,,gelb,yellow,g,1.0,g,1.0,0.5319737000390887,,,,,,,,,,2.0,2.0,26.0,11.0,224.41535589995328,,,,,,,,,,,,,,,,,224.40024719992653,225.21492900000885,226.0335549999727,226.01551519997884,,,,,,,,,,,,,,,,,,,,,,,,,,,,,,,,,,,226.02584329992533,226.0335549999727,226.0335549999727,226.58119079994503,g,1.0,0.5319737000390887,,,,,sub-182,1,stroop_test,60.031360397831,
,,,,27.0,3.0,2.0,,,,,,,,,,,,,blau,yellow,g,0.0,g,1.0,0.803124799975194,,,,,,,,,,2.0,3.0,27.0,7.0,226.59679999994117,,,,,,,,,,,,,,,,,226.5814587000059,226.94856739998795,227.76238899992316,227.7471416000044,,,,,,,,,,,,,,,,,,,,,,,,,,,,,,,,,,,227.7537677999353,227.76238899992316,227.76238899992316,228.58041569998025,g,1.0,0.803124799975194,,,,,sub-182,1,stroop_test,60.031360397831,
,,,,28.0,4.0,2.0,,,,,,,,,,,,,gelb,red,r,0.0,r,1.0,0.8010422999504954,,,,,,,,,,2.0,4.0,28.0,8.0,228.59501819999423,,,,,,,,,,,,,,,,,228.5812587999972,229.39360229996964,230.1930670000147,230.17750599992,,,,,,,,,,,,,,,,,,,,,,,,,,,,,,,,,,,230.18379439995624,230.1930670000147,230.1930670000147,231.01178329996765,r,1.0,0.8010422999504954,,,,,sub-182,1,stroop_test,60.031360397831,
,,,,29.0,5.0,2.0,,,,,,,,,,,,,gelb,blue,b,0.0,b,1.0,0.5860659999307245,,,,,,,,,,2.0,5.0,29.0,9.0,231.02589599997737,,,,,,,,,,,,,,,,,231.0125883999281,231.12549549993128,231.92513220000544,231.9093250000151,,,,,,,,,,,,,,,,,,,,,,,,,,,,,,,,,,,231.90970820002255,231.92513220000544,231.92513220000544,232.5252941999352,b,1.0,0.5860659999307245,,,,,sub-182,1,stroop_test,60.031360397831,
,,,,30.0,6.0,2.0,,,,,,,,,,,,,blau,red,r,0.0,r,1.0,0.7461258000694215,,,,,,,,,,2.0,6.0,30.0,4.0,232.5408949999837,,,,,,,,,,,,,,,,,232.52563940000252,233.34002939995844,234.13954390003343,234.1250115999719,,,,,,,,,,,,,,,,,,,,,,,,,,,,,,,,,,,234.13267500000077,234.13954390003343,234.13954390003343,234.8913611000171,r,1.0,0.7461258000694215,,,,,sub-182,1,stroop_test,60.031360397831,
,,,,31.0,7.0,2.0,,,,,,,,,,,,,gelb,yellow,g,1.0,g,1.0,0.7173772000242025,,,,,,,,,,2.0,7.0,31.0,10.0,234.9056618999457,,,,,,,,,,,,,,,,,234.89207970001732,235.70489839999937,236.504065599991,236.48858000000476,,,,,,,,,,,,,,,,,,,,,,,,,,,,,,,,,,,236.49495219998064,236.504065599991,236.504065599991,237.2234662999399,g,1.0,0.7173772000242025,,,,,sub-182,1,stroop_test,60.031360397831,
,,,,32.0,8.0,2.0,,,,,,,,,,,,,blau,blue,b,1.0,b,1.0,0.6365374999586493,,,,,,,,,,2.0,8.0,32.0,6.0,237.2368504999904,,,,,,,,,,,,,,,,,237.2240152999293,237.33675359992776,238.1360163999489,238.120665299939,,,,,,,,,,,,,,,,,,,,,,,,,,,,,,,,,,,238.12729219999164,238.1360163999489,238.1360163999489,238.78710489999503,b,1.0,0.6365374999586493,,,,,sub-182,1,stroop_test,60.031360397831,
,,,,33.0,9.0,2.0,,,,,,,,,,,,,rot,blue,b,0.0,b,1.0,0.9728107000701128,,,,,,,,,,2.0,9.0,33.0,2.0,238.80177689995617,,,,,,,,,,,,,,,,,238.78767809993587,239.60128059994892,240.4004779999377,240.38514649996068,,,,,,,,,,,,,,,,,,,,,,,,,,,,,,,,,,,240.3916995000327,240.4004779999377,240.4004779999377,241.38495949993376,b,1.0,0.9728107000701128,,,,,sub-182,1,stroop_test,60.031360397831,
,,,,34.0,10.0,2.0,,,,,,,,,,,,,blau,blue,b,1.0,b,1.0,0.7702297000214458,,,,,,,,,,2.0,10.0,34.0,5.0,241.3994205999188,,,,,,,,,,,,,,,,,241.3856435000198,241.49954210000575,242.2984741999535,242.2833070999477,,,,,,,,,,,,,,,,,,,,,,,,,,,,,,,,,,,242.29105529992376,242.2984741999535,242.2984741999535,243.0832788000116,b,1.0,0.7702297000214458,,,,,sub-182,1,stroop_test,60.031360397831,
,,,,35.0,11.0,2.0,,,,,,,,,,,,,rot,yellow,g,0.0,g,1.0,0.8806291999062523,,,,,,,,,,2.0,11.0,35.0,3.0,243.0978377999272,,,,,,,,,,,,,,,,,243.08391439996197,243.44777550001163,244.24659859994424,244.23155819997191,,,,,,,,,,,,,,,,,,,,,,,,,,,,,,,,,,,244.2348150999751,244.24659859994424,244.24659859994424,245.1322553999489,g,1.0,0.8806291999062523,,,,,sub-182,1,stroop_test,60.031360397831,
,,,,36.0,0.0,3.0,,,,,,,,,,,,,blau,blue,b,1.0,b,1.0,0.5308139000553638,,,,,,,,,,3.0,0.0,36.0,5.0,245.14584210002795,,,,,,,,,,,,,,,,,245.1330548999831,245.49625019996893,246.31141810002737,246.29640340001788,,,,,,,,,,,,,,,,,,,,,,,,,,,,,,,,,,,246.30254669999704,246.31141810002737,246.31141810002737,246.8474693000317,b,1.0,0.5308139000553638,,,,,sub-182,1,stroop_test,60.031360397831,
,,,,37.0,1.0,3.0,,,,,,,,,,,,,blau,yellow,g,0.0,g,1.0,0.6394191000144929,,,,,,,,,,3.0,1.0,37.0,7.0,246.86080879997465,,,,,,,,,,,,,,,,,246.8483770999592,246.96094359993003,247.76020329992755,247.74502669996585,,,,,,,,,,,,,,,,,,,,,,,,,,,,,,,,,,,247.7459231999237,247.76020329992755,247.76020329992755,248.4115694999928,g,1.0,0.6394191000144929,,,,,sub-182,1,stroop_test,60.031360397831,
,,,,38.0,2.0,3.0,,,,,,,,,,,,,gelb,red,r,0.0,r,1.0,0.5646107000065967,,,,,,,,,,3.0,2.0,38.0,8.0,248.4260919999797,,,,,,,,,,,,,,,,,248.41213790001348,249.225450100028,250.02458869991824,250.00867210002616,,,,,,,,,,,,,,,,,,,,,,,,,,,,,,,,,,,250.01164739998055,250.02458869991824,250.02458869991824,250.59259689995088,r,1.0,0.5646107000065967,,,,,sub-182,1,stroop_test,60.031360397831,
,,,,39.0,3.0,3.0,,,,,,,,,,,,,rot,yellow,g,0.0,g,1.0,0.814752500038594,,,,,,,,,,3.0,3.0,39.0,3.0,250.60748449992388,,,,,,,,,,,,,,,,,250.59315740002785,251.4067291999236,252.2060945000267,252.19032649998556,,,,,,,,,,,,,,,,,,,,,,,,,,,,,,,,,,,252.19566249998752,252.2060945000267,252.2060945000267,253.0247300999472,g,1.0,0.814752500038594,,,,,sub-182,1,stroop_test,60.031360397831,
,,,,40.0,4.0,3.0,,,,,,,,,,,,,blau,red,r,0.0,r,1.0,0.6454069000901654,,,,,,,,,,3.0,4.0,40.0,4.0,253.0388472999912,,,,,,,,,,,,,,,,,253.0254358999664,253.38821180001835,254.1874602999305,254.17166009999343,,,,,,,,,,,,,,,,,,,,,,,,,,,,,,,,,,,254.17593239992857,254.1874602999305,254.1874602999305,254.83989870001096,r,1.0,0.6454069000901654,,,,,sub-182,1,stroop_test,60.031360397831,
,,,,41.0,5.0,3.0,,,,,,,,,,,,,rot,blue,b,0.0,b,1.0,0.5676337999757379,,,,,,,,,,3.0,5.0,41.0,2.0,254.85390590003223,,,,,,,,,,,,,,,,,254.84077319991772,254.95378590002656,255.7692648000084,255.7536011999473,,,,,,,,,,,,,,,,,,,,,,,,,,,,,,,,,,,255.75749230000656,255.7692648000084,255.7692648000084,256.3405741000315,b,1.0,0.5676337999757379,,,,,sub-182,1,stroop_test,60.031360397831,
,,,,42.0,6.0,3.0,,,,,,,,,,,,,rot,red,r,1.0,r,1.0,0.5044315999839455,,,,,,,,,,3.0,6.0,42.0,1.0,256.35238589998335,,,,,,,,,,,,,,,,,256.34102759999223,257.15147529996466,257.95077310001943,257.9355138000101,,,,,,,,,,,,,,,,,,,,,,,,,,,,,,,,,,,257.93660979997367,257.95077310001943,257.95077310001943,258.46808000002056,r,1.0,0.5044315999839455,,,,,sub-182,1,stroop_test,60.031360397831,
,,,,43.0,7.0,3.0,,,,,,,,,,,,,gelb,yellow,g,1.0,g,1.0,0.5921891999896616,,,,,,,,,,3.0,7.0,43.0,11.0,258.48349409992807,,,,,,,,,,,,,,,,,258.468491800013,258.8331401000032,259.6325311999535,259.616731200018,,,,,,,,,,,,,,,,,,,,,,,,,,,,,,,,,,,259.6232038999442,259.6325311999535,259.6325311999535,260.2339446999831,g,1.0,0.5921891999896616,,,,,sub-182,1,stroop_test,60.031360397831,
,,,,44.0,8.0,3.0,,,,,,,,,,,,,gelb,blue,b,0.0,b,1.0,0.4935113999526948,,,,,,,,,,3.0,8.0,44.0,9.0,260.24867050000466,,,,,,,,,,,,,,,,,260.2345892000012,261.04788490000647,261.84734510001726,261.8320824999828,,,,,,,,,,,,,,,,,,,,,,,,,,,,,,,,,,,261.833458899986,261.84734510001726,261.84734510001726,262.34919660002925,b,1.0,0.4935113999526948,,,,,sub-182,1,stroop_test,60.031360397831,
,,,,45.0,9.0,3.0,,,,,,,,,,,,,gelb,yellow,g,1.0,g,1.0,0.5365699999965727,,,,,,,,,,3.0,9.0,45.0,10.0,262.3630371999461,,,,,,,,,,,,,,,,,262.34990499995183,263.16247530002147,263.9616147999186,263.9455675999634,,,,,,,,,,,,,,,,,,,,,,,,,,,,,,,,,,,263.9462010000134,263.9616147999186,263.9616147999186,264.51383339997847,g,1.0,0.5365699999965727,,,,,sub-182,1,stroop_test,60.031360397831,
,,,,46.0,10.0,3.0,,,,,,,,,,,,,blau,blue,b,1.0,b,1.0,0.5430495999753475,,,,,,,,,,3.0,10.0,46.0,6.0,264.5278477999382,,,,,,,,,,,,,,,,,264.5145396000007,264.8773629999487,265.67678029998206,265.66106369998306,,,,,,,,,,,,,,,,,,,,,,,,,,,,,,,,,,,265.6660391999176,265.67678029998206,265.67678029998206,266.2282621000195,b,1.0,0.5430495999753475,,,,,sub-182,1,stroop_test,60.031360397831,
,,,,47.0,11.0,3.0,,,,,,,,,,,,,rot,red,r,1.0,r,1.0,0.6175190999638289,,,,,,,,,,3.0,11.0,47.0,0.0,266.24297229992226,,,,,,,,,,,,,,,,,266.2288038999541,266.5924097999232,267.39188120001927,267.3762824999867,,,,,,,,,,,,,,,,,,,,,,,,,,,,,,,,,,,267.3817474999232,267.39188120001927,267.39188120001927,268.0267985999817,r,1.0,0.6175190999638289,,,,,sub-182,1,stroop_test,60.031360397831,
,,,,48.0,0.0,4.0,,,,,,,,,,,,,blau,red,r,0.0,r,1.0,0.6310145000461489,,,,,,,,,,4.0,0.0,48.0,4.0,268.04131579992827,,,,,,,,,,,,,,,,,268.0276660999516,268.3914847000269,269.1899710999569,269.1774667999707,,,,,,,,,,,,,,,,,,,,,,,,,,,,,,,,,,,269.1809454000322,269.1899710999569,269.1899710999569,269.8244548999937,r,1.0,0.6310145000461489,,,,,sub-182,1,stroop_test,60.031360397831,
,,,,49.0,1.0,4.0,,,,,,,,,,,,,rot,blue,b,0.0,b,1.0,0.5551496000261977,,,,,,,,,,4.0,1.0,49.0,2.0,269.8396472999593,,,,,,,,,,,,,,,,,269.82485540001653,270.6389846999664,271.4379740000004,271.4224722000072,,,,,,,,,,,,,,,,,,,,,,,,,,,,,,,,,,,271.4275071999291,271.4379740000004,271.4379740000004,272.0054101999849,b,1.0,0.5551496000261977,,,,,sub-182,1,stroop_test,60.031360397831,
,,,,50.0,2.0,4.0,,,,,,,,,,,,,gelb,yellow,g,1.0,g,1.0,0.4997790999477729,,,,,,,,,,4.0,2.0,50.0,10.0,272.02067310002167,,,,,,,,,,,,,,,,,272.00586469995324,272.37066979997326,273.17435859993566,273.1549090000335,,,,,,,,,,,,,,,,,,,,,,,,,,,,,,,,,,,273.1640834999271,273.17435859993566,273.17435859993566,273.687029200024,g,1.0,0.4997790999477729,,,,,sub-182,1,stroop_test,60.031360397831,
,,,,51.0,3.0,4.0,,,,,,,,,,,,,blau,blue,b,1.0,b,1.0,0.6983860000036657,,,,,,,,,,4.0,3.0,51.0,6.0,273.70242969994433,,,,,,,,,,,,,,,,,273.6873752999818,274.0522950999439,274.851657900028,274.8359086000128,,,,,,,,,,,,,,,,,,,,,,,,,,,,,,,,,,,274.8403709999984,274.851657900028,274.851657900028,275.554099699948,b,1.0,0.6983860000036657,,,,,sub-182,1,stroop_test,60.031360397831,
,,,,52.0,4.0,4.0,,,,,,,,,,,,,rot,red,r,1.0,r,1.0,0.3888356999959796,,,,,,,,,,4.0,4.0,52.0,1.0,275.56787409994286,,,,,,,,,,,,,,,,,275.55489589995705,275.91701909992844,276.71655949996784,276.7019521999173,,,,,,,,,,,,,,,,,,,,,,,,,,,,,,,,,,,276.70878889993764,276.71655949996784,276.71655949996784,277.118101799977,r,1.0,0.3888356999959796,,,,,sub-182,1,stroop_test,60.031360397831,
,,,,53.0,5.0,4.0,,,,,,,,,,,,,rot,red,r,1.0,r,1.0,0.4746074000140652,,,,,,,,,,4.0,5.0,53.0,0.0,277.1327356999973,,,,,,,,,,,,,,,,,277.11868960002903,278.3317483999999,279.1308779999381,279.1156278999988,,,,,,,,,,,,,,,,,,,,,,,,,,,,,,,,,,,279.1167131999973,279.1308779999381,279.1308779999381,279.6147610999178,r,1.0,0.4746074000140652,,,,,sub-182,1,stroop_test,60.031360397831,
,,,,54.0,6.0,4.0,,,,,,,,,,,,,rot,yellow,g,0.0,g,1.0,0.8357224999926984,,,,,,,,,,4.0,6.0,54.0,3.0,279.6304601000156,,,,,,,,,,,,,,,,,279.6150858999463,279.97989890002646,280.77952699991874,280.7635922000045,,,,,,,,,,,,,,,,,,,,,,,,,,,,,,,,,,,280.7643349999562,280.77952699991874,280.77952699991874,281.62950119993184,g,1.0,0.8357224999926984,,,,,sub-182,1,stroop_test,60.031360397831,
,,,,55.0,7.0,4.0,,,,,,,,,,,,,gelb,blue,b,0.0,b,1.0,0.7112609000178054,,,,,,,,,,4.0,7.0,55.0,9.0,281.64499709999654,,,,,,,,,,,,,,,,,281.62987369997427,282.84386839997023,283.64311329997145,283.6272221999243,,,,,,,,,,,,,,,,,,,,,,,,,,,,,,,,,,,283.6315945999231,283.64311329997145,283.64311329997145,284.3623592000222,b,1.0,0.7112609000178054,,,,,sub-182,1,stroop_test,60.031360397831,
,,,,56.0,8.0,4.0,,,,,,,,,,,,,blau,blue,b,1.0,b,1.0,0.4346423000097275,,,,,,,,,,4.0,8.0,56.0,5.0,284.3758964999579,,,,,,,,,,,,,,,,,284.36318540002685,284.7256161000114,285.5249527000124,285.5089495999273,,,,,,,,,,,,,,,,,,,,,,,,,,,,,,,,,,,285.51264179998543,285.5249527000124,285.5249527000124,285.97587830002885,b,1.0,0.4346423000097275,,,,,sub-182,1,stroop_test,60.031360397831,
,,,,57.0,9.0,4.0,,,,,,,,,,,,,blau,yellow,g,0.0,g,1.0,0.8703632999677211,,,,,,,,,,4.0,9.0,57.0,7.0,285.99294030002784,,,,,,,,,,,,,,,,,285.97630999994,287.19017610000446,287.989452800015,287.97398879996035,,,,,,,,,,,,,,,,,,,,,,,,,,,,,,,,,,,287.9750368000241,287.989452800015,287.989452800015,288.8725971999811,g,1.0,0.8703632999677211,,,,,sub-182,1,stroop_test,60.031360397831,
,,,,58.0,10.0,4.0,,,,,,,,,,,,,gelb,red,r,0.0,r,1.0,0.5676467000739649,,,,,,,,,,4.0,10.0,58.0,8.0,288.88827049999963,,,,,,,,,,,,,,,,,288.8728431999916,289.68989459995646,290.50335789995734,290.4874313999899,,,,,,,,,,,,,,,,,,,,,,,,,,,,,,,,,,,290.4904162000166,290.50335789995734,290.50335789995734,291.0876002999721,r,1.0,0.5676467000739649,,,,,sub-182,1,stroop_test,60.031360397831,
,,,,59.0,11.0,4.0,,,,,,,,,,,,,gelb,yellow,g,1.0,g,1.0,0.5192878000671044,,,,,,,,,,4.0,11.0,59.0,11.0,291.1029497999698,,,,,,,,,,,,,,,,,291.08806390000973,291.45270229992457,292.2519090999849,292.2367928000167,,,,,,,,,,,,,,,,,,,,,,,,,,,,,,,,,,,292.23790880001616,292.2519090999849,292.2519090999849,292.78719619999174,g,1.0,0.5192878000671044,,,,,sub-182,1,stroop_test,60.031360397831,
,,,,60.0,0.0,5.0,,,,,,,,,,,,,rot,yellow,g,0.0,g,1.0,0.7910016999812797,,,,,,,,,,5.0,0.0,60.0,3.0,292.8013237999985,,,,,,,,,,,,,,,,,292.787891499931,293.15136329992674,293.952049799962,293.9359760999214,,,,,,,,,,,,,,,,,,,,,,,,,,,,,,,,,,,293.9441556999227,293.952049799962,293.952049799962,294.7514572999208,g,1.0,0.7910016999812797,,,,,sub-182,1,stroop_test,60.031360397831,
,,,,61.0,1.0,5.0,,,,,,,,,,,,,gelb,yellow,g,1.0,g,1.0,0.4387871000217274,,,,,,,,,,5.0,1.0,61.0,10.0,294.7665524999611,,,,,,,,,,,,,,,,,294.75203009997495,295.5654665000038,296.36460610001814,296.34921080002096,,,,,,,,,,,,,,,,,,,,,,,,,,,,,,,,,,,296.35739689995535,296.36460610001814,296.36460610001814,296.8159654999617,g,1.0,0.4387871000217274,,,,,sub-182,1,stroop_test,60.031360397831,
,,,,62.0,2.0,5.0,,,,,,,,,,,,,gelb,yellow,g,1.0,g,1.0,0.4588681000750512,,,,,,,,,,5.0,2.0,62.0,11.0,296.83077779994346,,,,,,,,,,,,,,,,,296.8165306999581,297.6307089999318,298.44596819998696,298.43042470002547,,,,,,,,,,,,,,,,,,,,,,,,,,,,,,,,,,,298.4312090999447,298.44596819998696,298.44596819998696,298.9142298999941,g,1.0,0.4588681000750512,,,,,sub-182,1,stroop_test,60.031360397831,
,,,,63.0,3.0,5.0,,,,,,,,,,,,,blau,red,r,0.0,r,1.0,0.4392695999704301,,,,,,,,,,5.0,3.0,63.0,4.0,298.9288467000006,,,,,,,,,,,,,,,,,298.91475519991945,299.7284771000268,300.5278746000258,300.51230459997896,,,,,,,,,,,,,,,,,,,,,,,,,,,,,,,,,,,300.51840830000583,300.5278746000258,300.5278746000258,300.98094669997226,r,1.0,0.4392695999704301,,,,,sub-182,1,stroop_test,60.031360397831,
,,,,64.0,4.0,5.0,,,,,,,,,,,,,gelb,red,r,0.0,r,1.0,0.4715126999653876,,,,,,,,,,5.0,4.0,64.0,8.0,300.9938808999723,,,,,,,,,,,,,,,,,300.98182979994453,301.0938699999824,301.89299009996466,301.8778557999758,,,,,,,,,,,,,,,,,,,,,,,,,,,,,,,,,,,301.88580609997734,301.89299009996466,301.89299009996466,302.3774118999718,r,1.0,0.4715126999653876,,,,,sub-182,1,stroop_test,60.031360397831,
,,,,65.0,5.0,5.0,,,,,,,,,,,,,gelb,blue,b,0.0,b,1.0,0.4819734999909997,,,,,,,,,,5.0,5.0,65.0,9.0,302.3927652999992,,,,,,,,,,,,,,,,,302.3779569999315,303.19182419998106,303.9912355999695,303.97615200001746,,,,,,,,,,,,,,,,,,,,,,,,,,,,,,,,,,,303.9772208000068,303.9912355999695,303.9912355999695,304.4759529000148,b,1.0,0.4819734999909997,,,,,sub-182,1,stroop_test,60.031360397831,
,,,,66.0,6.0,5.0,,,,,,,,,,,,,blau,blue,b,1.0,b,1.0,0.6285368999233469,,,,,,,,,,5.0,6.0,66.0,6.0,304.4903445999371,,,,,,,,,,,,,,,,,304.4765526999254,304.8399663999444,305.6395219999831,305.6240844000131,,,,,,,,,,,,,,,,,,,,,,,,,,,,,,,,,,,305.6303283999441,305.6395219999831,305.6395219999831,306.2756274000276,b,1.0,0.6285368999233469,,,,,sub-182,1,stroop_test,60.031360397831,
,,,,67.0,7.0,5.0,,,,,,,,,,,,,rot,red,r,1.0,r,1.0,0.5042241000337526,,,,,,,,,,5.0,7.0,67.0,0.0,306.28857730003074,,,,,,,,,,,,,,,,,306.2762599999551,307.0879274000181,307.8875800999813,307.8722264999524,,,,,,,,,,,,,,,,,,,,,,,,,,,,,,,,,,,307.8791328999214,307.8875800999813,307.8875800999813,308.40542760002427,r,1.0,0.5042241000337526,,,,,sub-182,1,stroop_test,60.031360397831,
,,,,68.0,8.0,5.0,,,,,,,,,,,,,blau,yellow,g,0.0,g,1.0,0.5608865999383852,,,,,,,,,,5.0,8.0,68.0,7.0,308.4201383999316,,,,,,,,,,,,,,,,,308.4060081000207,308.76998650003225,309.5709991999902,309.5543780999724,,,,,,,,,,,,,,,,,,,,,,,,,,,,,,,,,,,309.5620225999737,309.5709991999902,309.5709991999902,310.1363623000216,g,1.0,0.5608865999383852,,,,,sub-182,1,stroop_test,60.031360397831,
,,,,69.0,9.0,5.0,,,,,,,,,,,,,rot,blue,b,0.0,b,1.0,0.7274897999595851,,,,,,,,,,5.0,9.0,69.0,2.0,310.15157749992795,,,,,,,,,,,,,,,,,310.1367899000179,310.2516169999726,311.0528560000239,311.0362554999301,,,,,,,,,,,,,,,,,,,,,,,,,,,,,,,,,,,311.0443187999772,311.0528560000239,311.0528560000239,311.7862299999688,b,1.0,0.7274897999595851,,,,,sub-182,1,stroop_test,60.031360397831,
,,,,70.0,10.0,5.0,,,,,,,,,,,,,rot,red,r,1.0,r,1.0,0.500261600012891,,,,,,,,,,5.0,10.0,70.0,1.0,311.80018869997,,,,,,,,,,,,,,,,,311.787006199942,312.5992155999411,313.39861849998124,313.3820875999518,,,,,,,,,,,,,,,,,,,,,,,,,,,,,,,,,,,313.3824279999826,313.39861849998124,313.39861849998124,313.90154130000155,r,1.0,0.500261600012891,,,,,sub-182,1,stroop_test,60.031360397831,
,,,,71.0,11.0,5.0,,,,,,,,,,,,,blau,blue,b,1.0,b,1.0,0.4610141000011936,,,,,,,,,,5.0,11.0,71.0,5.0,313.9149262999417,,,,,,,,,,,,,,,,,313.9023231000174,314.714036499965,315.51348979992326,315.4976779000135,,,,,,,,,,,,,,,,,,,,,,,,,,,,,,,,,,,315.50347579992376,315.51348979992326,315.51348979992326,315.98128329997417,b,1.0,0.4610141000011936,,,,,sub-182,1,stroop_test,60.031360397831,
,,,,72.0,0.0,6.0,,,,,,,,,,,,,rot,yellow,g,0.0,g,1.0,0.6925734999822453,,,,,,,,,,6.0,0.0,72.0,3.0,315.99629439995624,,,,,,,,,,,,,,,,,315.9816995000001,316.096651299973,316.9118991999421,316.8958251000149,,,,,,,,,,,,,,,,,,,,,,,,,,,,,,,,,,,316.89861459995154,316.9118991999421,316.9118991999421,317.61431989993434,g,1.0,0.6925734999822453,,,,,sub-182,1,stroop_test,60.031360397831,
,,,,73.0,1.0,6.0,,,,,,,,,,,,,rot,blue,b,0.0,b,1.0,0.7937137000262737,,,,,,,,,,6.0,1.0,73.0,2.0,317.6284916999284,,,,,,,,,,,,,,,,,317.6152071999386,317.7282766000135,318.5273506999947,318.51274449995253,,,,,,,,,,,,,,,,,,,,,,,,,,,,,,,,,,,318.5141261999961,318.5273506999947,318.5273506999947,319.32966059993487,b,1.0,0.7937137000262737,,,,,sub-182,1,stroop_test,60.031360397831,
,,,,74.0,2.0,6.0,,,,,,,,,,,,,gelb,red,r,0.0,r,1.0,0.5472061999607831,,,,,,,,,,6.0,2.0,74.0,8.0,319.3438792999368,,,,,,,,,,,,,,,,,319.33045080001466,319.44291630003136,320.2423252000008,320.22653829993214,,,,,,,,,,,,,,,,,,,,,,,,,,,,,,,,,,,320.230560899945,320.2423252000008,320.2423252000008,320.7958464999683,r,1.0,0.5472061999607831,,,,,sub-182,1,stroop_test,60.031360397831,
,,,,75.0,3.0,6.0,,,,,,,,,,,,,gelb,yellow,g,1.0,g,1.0,0.5300319000380114,,,,,,,,,,6.0,3.0,75.0,10.0,320.8083830999676,,,,,,,,,,,,,,,,,320.7967716000276,322.00749360001646,322.80687359999865,322.79182349995244,,,,,,,,,,,,,,,,,,,,,,,,,,,,,,,,,,,322.79326950002,322.80687359999865,322.80687359999865,323.3400810000021,g,1.0,0.5300319000380114,,,,,sub-182,1,stroop_test,60.031360397831,
,,,,76.0,4.0,6.0,,,,,,,,,,,,,blau,blue,b,1.0,b,1.0,0.4498601999366656,,,,,,,,,,6.0,4.0,76.0,6.0,323.35584510001354,,,,,,,,,,,,,,,,,323.34030389995314,323.6889690000098,324.48855349991936,324.4729788999539,,,,,,,,,,,,,,,,,,,,,,,,,,,,,,,,,,,324.4788995999843,324.48855349991936,324.48855349991936,324.9407818999607,b,1.0,0.4498601999366656,,,,,sub-182,1,stroop_test,60.031360397831,
,,,,77.0,5.0,6.0,,,,,,,,,,,,,blau,yellow,g,0.0,g,1.0,0.5212101000361145,,,,,,,,,,6.0,5.0,77.0,7.0,324.95437009993475,,,,,,,,,,,,,,,,,324.9412297999952,326.1534100000281,326.9527826999547,326.9377821999369,,,,,,,,,,,,,,,,,,,,,,,,,,,,,,,,,,,326.9388801000314,326.9527826999547,326.9527826999547,327.48912949999794,g,1.0,0.5212101000361145,,,,,sub-182,1,stroop_test,60.031360397831,
,,,,78.0,6.0,6.0,,,,,,,,,,,,,gelb,blue,b,0.0,b,1.0,0.8467821000376716,,,,,,,,,,6.0,6.0,78.0,9.0,327.5021046999609,,,,,,,,,,,,,,,,,327.4902162000071,327.6020268999273,328.4016850999324,328.3861865999643,,,,,,,,,,,,,,,,,,,,,,,,,,,,,,,,,,,328.39344649994746,328.4016850999324,328.4016850999324,329.25187019992154,b,1.0,0.8467821000376716,,,,,sub-182,1,stroop_test,60.031360397831,
,,,,79.0,7.0,6.0,,,,,,,,,,,,,gelb,yellow,g,1.0,g,1.0,0.4673341000452637,,,,,,,,,,6.0,7.0,79.0,11.0,329.26716579997446,,,,,,,,,,,,,,,,,329.2522936000023,330.4660992999561,331.2656464999309,331.25062990002334,,,,,,,,,,,,,,,,,,,,,,,,,,,,,,,,,,,331.2518364000134,331.2656464999309,331.2656464999309,331.7508941999404,g,1.0,0.4673341000452637,,,,,sub-182,1,stroop_test,60.031360397831,
,,,,80.0,8.0,6.0,,,,,,,,,,,,,blau,red,r,0.0,r,1.0,0.6868491999339312,,,,,,,,,,6.0,8.0,80.0,4.0,331.7651767999632,,,,,,,,,,,,,,,,,331.7517263999908,331.864740399993,332.6638829000294,332.64873439993244,,,,,,,,,,,,,,,,,,,,,,,,,,,,,,,,,,,332.65427479997743,332.6638829000294,332.6638829000294,333.36575350002386,r,1.0,0.6868491999339312,,,,,sub-182,1,stroop_test,60.031360397831,
,,,,81.0,9.0,6.0,,,,,,,,,,,,,blau,blue,b,1.0,b,1.0,0.4820379000157118,,,,,,,,,,6.0,9.0,81.0,5.0,333.3804419999942,,,,,,,,,,,,,,,,,333.36645750002936,333.47987979999743,334.2793467999436,334.264342200011,,,,,,,,,,,,,,,,,,,,,,,,,,,,,,,,,,,334.26556119997986,334.2793467999436,334.2793467999436,334.7642599999672,b,1.0,0.4820379000157118,,,,,sub-182,1,stroop_test,60.031360397831,
,,,,82.0,10.0,6.0,,,,,,,,,,,,,rot,red,r,1.0,r,1.0,0.5522816999582574,,,,,,,,,,6.0,10.0,82.0,1.0,334.77863960003015,,,,,,,,,,,,,,,,,334.7649128999328,335.9783150999574,336.7934699000325,336.77822149998974,,,,,,,,,,,,,,,,,,,,,,,,,,,,,,,,,,,336.78487410000525,336.7934699000325,336.7934699000325,337.36117019993253,r,1.0,0.5522816999582574,,,,,sub-182,1,stroop_test,60.031360397831,
,,,,83.0,11.0,6.0,,,,,,,,,,,,,rot,red,r,1.0,r,1.0,0.4459613999351859,,,,,,,,,,6.0,11.0,83.0,0.0,337.37639779993333,,,,,,,,,,,,,,,,,337.36169299995527,337.7261137999594,338.5248301000101,338.5090711999219,,,,,,,,,,,,,,,,,,,,,,,,,,,,,,,,,,,338.5093800999457,338.5248301000101,338.5248301000101,338.9769129999913,r,1.0,0.4459613999351859,,,,,sub-182,1,stroop_test,60.031360397831,
,,,,84.0,0.0,7.0,,,,,,,,,,,,,rot,blue,b,0.0,b,1.0,0.4692120000254363,,,,,,,,,,7.0,0.0,84.0,2.0,338.9913572999649,,,,,,,,,,,,,,,,,338.977563799941,339.0918164999457,339.8910076000029,339.8755185999908,,,,,,,,,,,,,,,,,,,,,,,,,,,,,,,,,,,339.8766962999944,339.8910076000029,339.8910076000029,340.3759650000138,b,1.0,0.4692120000254363,,,,,sub-182,1,stroop_test,60.031360397831,
,,,,85.0,1.0,7.0,,,,,,,,,,,,,blau,blue,b,1.0,b,1.0,0.3884416999062523,,,,,,,,,,7.0,1.0,85.0,5.0,340.3903074000264,,,,,,,,,,,,,,,,,340.3766822000034,341.58904649992473,342.38821769994684,342.37321849993896,,,,,,,,,,,,,,,,,,,,,,,,,,,,,,,,,,,342.3798720999621,342.38821769994684,342.38821769994684,342.79384409997147,b,1.0,0.3884416999062523,,,,,sub-182,1,stroop_test,60.031360397831,
,,,,86.0,2.0,7.0,,,,,,,,,,,,,gelb,yellow,g,1.0,g,1.0,0.4902885999763384,,,,,,,,,,7.0,2.0,86.0,11.0,342.8045049000066,,,,,,,,,,,,,,,,,342.7944301000098,343.6036906000227,344.4058260000311,344.3870478000026,,,,,,,,,,,,,,,,,,,,,,,,,,,,,,,,,,,344.3904824999627,344.4058260000311,344.4058260000311,344.9037742000073,g,1.0,0.4902885999763384,,,,,sub-182,1,stroop_test,60.031360397831,
,,,,87.0,3.0,7.0,,,,,,,,,,,,,gelb,blue,b,0.0,b,1.0,1.0990152000449598,,,,,,,,,,7.0,3.0,87.0,9.0,344.9190355000319,,,,,,,,,,,,,,,,,344.90416789997835,345.71876119996887,346.5341016999446,346.5186201999895,,,,,,,,,,,,,,,,,,,,,,,,,,,,,,,,,,,346.51896969997324,346.5341016999446,346.5341016999446,347.6359726999653,b,1.0,1.0990152000449598,,,,,sub-182,1,stroop_test,60.031360397831,
,,,,88.0,4.0,7.0,,,,,,,,,,,,,gelb,yellow,g,1.0,g,1.0,0.4639349000062793,,,,,,,,,,7.0,4.0,88.0,10.0,347.6499747999478,,,,,,,,,,,,,,,,,347.6365414999891,348.00001359998714,348.8156646999996,348.7996807999443,,,,,,,,,,,,,,,,,,,,,,,,,,,,,,,,,,,348.8003597999923,348.8156646999996,348.8156646999996,349.2834749999456,g,1.0,0.4639349000062793,,,,,sub-182,1,stroop_test,60.031360397831,
,,,,89.0,5.0,7.0,,,,,,,,,,,,,blau,yellow,g,0.0,g,1.0,0.5075500999810174,,,,,,,,,,7.0,5.0,89.0,7.0,349.29852920002304,,,,,,,,,,,,,,,,,349.28398299997207,350.0981412000256,350.9135163000319,350.89778020000085,,,,,,,,,,,,,,,,,,,,,,,,,,,,,,,,,,,350.90234899998177,350.9135163000319,350.9135163000319,351.43266239995137,g,1.0,0.5075500999810174,,,,,sub-182,1,stroop_test,60.031360397831,
,,,,90.0,6.0,7.0,,,,,,,,,,,,,rot,yellow,g,0.0,g,1.0,0.7655329999979585,,,,,,,,,,7.0,6.0,90.0,3.0,351.44651279994287,,,,,,,,,,,,,,,,,351.4336268999614,351.7964018000057,352.61211300001014,352.59649489994626,,,,,,,,,,,,,,,,,,,,,,,,,,,,,,,,,,,352.6015577999642,352.61211300001014,352.61211300001014,353.3811253999593,g,1.0,0.7655329999979585,,,,,sub-182,1,stroop_test,60.031360397831,
,,,,91.0,7.0,7.0,,,,,,,,,,,,,rot,red,r,1.0,r,1.0,0.6004947000183165,,,,,,,,,,7.0,7.0,91.0,1.0,353.3949237000197,,,,,,,,,,,,,,,,,353.3819434000179,353.4783021999756,354.29378199996427,354.2783496999182,,,,,,,,,,,,,,,,,,,,,,,,,,,,,,,,,,,354.27932440000586,354.29378199996427,354.29378199996427,354.9126447000308,r,1.0,0.6004947000183165,,,,,sub-182,1,stroop_test,60.031360397831,
,,,,92.0,8.0,7.0,,,,,,,,,,,,,gelb,red,r,0.0,r,1.0,0.5053235999075696,,,,,,,,,,7.0,8.0,92.0,8.0,354.9270304000238,,,,,,,,,,,,,,,,,354.91354829992633,355.72608890000265,356.5421001999639,356.52580329997,,,,,,,,,,,,,,,,,,,,,,,,,,,,,,,,,,,356.5312624999788,356.5421001999639,356.5421001999639,357.0609265000094,r,1.0,0.5053235999075696,,,,,sub-182,1,stroop_test,60.031360397831,
,,,,93.0,9.0,7.0,,,,,,,,,,,,,blau,red,r,0.0,r,1.0,0.5483857000945136,,,,,,,,,,7.0,9.0,93.0,4.0,357.074917800026,,,,,,,,,,,,,,,,,357.0618482999271,358.2732612999389,359.0725437999936,359.0571484999964,,,,,,,,,,,,,,,,,,,,,,,,,,,,,,,,,,,359.0624914999353,359.0725437999936,359.0725437999936,359.6249534999952,r,1.0,0.5483857000945136,,,,,sub-182,1,stroop_test,60.031360397831,
,,,,94.0,10.0,7.0,,,,,,,,,,,,,rot,red,r,1.0,r,1.0,0.3774679999332875,,,,,,,,,,7.0,10.0,94.0,0.0,359.63939050002955,,,,,,,,,,,,,,,,,359.62574889999814,360.4379580999957,361.2373097999953,361.2212736000074,,,,,,,,,,,,,,,,,,,,,,,,,,,,,,,,,,,361.2237428999506,361.2373097999953,361.2373097999953,361.62116709991824,r,1.0,0.3774679999332875,,,,,sub-182,1,stroop_test,60.031360397831,
,,,,95.0,11.0,7.0,,,,,,,,,,,,,blau,blue,b,1.0,b,1.0,0.526159800007008,,,,,,,,,,7.0,11.0,95.0,6.0,361.6367505999515,,,,,,,,,,,,,,,,,361.6215125999879,361.7201647999464,362.5199660999933,362.5052658999339,,,,,,,,,,,,,,,,,,,,,,,,,,,,,,,,,,,362.51337259996217,362.5199660999933,362.5199660999933,363.0539406000171,b,1.0,0.526159800007008,,,,,sub-182,1,stroop_test,60.031360397831,
,,,,96.0,0.0,8.0,,,,,,,,,,,,,gelb,yellow,g,1.0,g,1.0,0.5305251000681892,,,,,,,,,,8.0,0.0,96.0,10.0,363.068877200014,,,,,,,,,,,,,,,,,363.0544896000065,363.8680330999196,364.66782909992617,364.6522416999797,,,,,,,,,,,,,,,,,,,,,,,,,,,,,,,,,,,364.6596271999879,364.66782909992617,364.66782909992617,365.2022933999542,g,1.0,0.5305251000681892,,,,,sub-182,1,stroop_test,60.031360397831,
,,,,97.0,1.0,8.0,,,,,,,,,,,,,blau,blue,b,1.0,b,1.0,0.4993708000984043,,,,,,,,,,8.0,1.0,97.0,6.0,365.2169139999896,,,,,,,,,,,,,,,,,365.2028666000115,366.01610559993424,366.8156836000271,366.8004208999919,,,,,,,,,,,,,,,,,,,,,,,,,,,,,,,,,,,366.8073290999746,366.8156836000271,366.8156836000271,367.31834350002464,b,1.0,0.4993708000984043,,,,,sub-182,1,stroop_test,60.031360397831,
,,,,98.0,2.0,8.0,,,,,,,,,,,,,rot,red,r,1.0,r,1.0,0.6003964000847191,,,,,,,,,,8.0,2.0,98.0,0.0,367.3317553999368,,,,,,,,,,,,,,,,,367.3192502999445,367.4314482000191,368.2307770999614,368.21504899999127,,,,,,,,,,,,,,,,,,,,,,,,,,,,,,,,,,,368.22000879992265,368.2307770999614,368.2307770999614,368.849077199935,r,1.0,0.6003964000847191,,,,,sub-182,1,stroop_test,60.031360397831,
,,,,99.0,3.0,8.0,,,,,,,,,,,,,gelb,red,r,0.0,r,1.0,0.6164041999727488,,,,,,,,,,8.0,3.0,99.0,8.0,368.8633548999205,,,,,,,,,,,,,,,,,368.849877599976,369.2130286999745,370.01228699996136,369.99645690002944,,,,,,,,,,,,,,,,,,,,,,,,,,,,,,,,,,,370.000887000002,370.01228699996136,370.01228699996136,370.63052519992925,r,1.0,0.6164041999727488,,,,,sub-182,1,stroop_test,60.031360397831,
,,,,100.0,4.0,8.0,,,,,,,,,,,,,rot,yellow,g,0.0,g,1.0,0.5064926999621093,,,,,,,,,,8.0,4.0,100.0,3.0,370.6451438999502,,,,,,,,,,,,,,,,,370.63109159993473,370.99500100000296,371.793933799956,371.7828270000173,,,,,,,,,,,,,,,,,,,,,,,,,,,,,,,,,,,371.7870724999812,371.793933799956,371.793933799956,372.31210450001527,g,1.0,0.5064926999621093,,,,,sub-182,1,stroop_test,60.031360397831,
,,,,101.0,5.0,8.0,,,,,,,,,,,,,rot,blue,b,0.0,b,1.0,0.6771533000282943,,,,,,,,,,8.0,5.0,101.0,2.0,372.3272604999365,,,,,,,,,,,,,,,,,372.312522299937,373.1262818999821,373.92553579993546,373.9098279000027,,,,,,,,,,,,,,,,,,,,,,,,,,,,,,,,,,,373.9105362999253,373.92553579993546,373.92553579993546,374.6093058999395,b,1.0,0.6771533000282943,,,,,sub-182,1,stroop_test,60.031360397831,
,,,,102.0,6.0,8.0,,,,,,,,,,,,,rot,red,r,1.0,r,1.0,0.5104915000265464,,,,,,,,,,8.0,6.0,102.0,1.0,374.6247678999789,,,,,,,,,,,,,,,,,374.60965939995367,374.9742610999383,375.77362619992346,375.75796710001305,,,,,,,,,,,,,,,,,,,,,,,,,,,,,,,,,,,375.7587801000336,375.77362619992346,375.77362619992346,376.2913010999328,r,1.0,0.5104915000265464,,,,,sub-182,1,stroop_test,60.031360397831,
,,,,103.0,7.0,8.0,,,,,,,,,,,,,gelb,blue,b,0.0,b,1.0,0.4540441000135615,,,,,,,,,,8.0,7.0,103.0,9.0,376.3063982999884,,,,,,,,,,,,,,,,,376.2917453999398,377.1059098999249,377.90606509998906,377.8897000999423,,,,,,,,,,,,,,,,,,,,,,,,,,,,,,,,,,,377.8979959000135,377.90606509998906,377.90606509998906,378.3728142000036,b,1.0,0.4540441000135615,,,,,sub-182,1,stroop_test,60.031360397831,
,,,,104.0,8.0,8.0,,,,,,,,,,,,,blau,red,r,0.0,r,1.0,0.4996817000210285,,,,,,,,,,8.0,8.0,104.0,4.0,378.3877616999671,,,,,,,,,,,,,,,,,378.3734266000101,378.4877498999704,379.2871866999194,379.2710639999714,,,,,,,,,,,,,,,,,,,,,,,,,,,,,,,,,,,379.2749679000117,379.2871866999194,379.2871866999194,379.78925039991736,r,1.0,0.4996817000210285,,,,,sub-182,1,stroop_test,60.031360397831,
,,,,105.0,9.0,8.0,,,,,,,,,,,,,blau,yellow,g,0.0,g,1.0,0.4319528000196442,,,,,,,,,,8.0,9.0,105.0,7.0,379.80321569996886,,,,,,,,,,,,,,,,,379.78985249996185,381.0024291999871,381.817983499961,381.80198829993606,,,,,,,,,,,,,,,,,,,,,,,,,,,,,,,,,,,381.80236580001656,381.817983499961,381.817983499961,382.2529894999461,g,1.0,0.4319528000196442,,,,,sub-182,1,stroop_test,60.031360397831,
,,,,106.0,10.0,8.0,,,,,,,,,,,,,blau,blue,b,1.0,b,1.0,0.4793458000058308,,,,,,,,,,8.0,10.0,106.0,5.0,382.26754479995,,,,,,,,,,,,,,,,,382.2536087000044,382.3678402999649,383.1669316999614,383.15226360003,,,,,,,,,,,,,,,,,,,,,,,,,,,,,,,,,,,383.1539124000119,383.1669316999614,383.1669316999614,383.65129419998266,b,1.0,0.4793458000058308,,,,,sub-182,1,stroop_test,60.031360397831,
,,,,107.0,11.0,8.0,,,,,,,,,,,,,gelb,yellow,g,1.0,g,1.0,0.4435372999869287,,,,,,,,,,8.0,11.0,107.0,11.0,383.6662508000154,,,,,,,,,,,,,,,,,383.6517344999593,384.8486581000034,385.6477051000111,385.632482499932,,,,,,,,,,,,,,,,,,,,,,,,,,,,,,,,,,,385.6395789999515,385.6477051000111,385.6477051000111,386.0996272999328,g,1.0,0.4435372999869287,,,,,sub-182,1,stroop_test,60.031360397831,
,,,,108.0,0.0,9.0,,,,,,,,,,,,,blau,blue,b,1.0,b,1.0,0.4616897999076172,,,,,,,,,,9.0,0.0,108.0,5.0,386.1141425999813,,,,,,,,,,,,,,,,,386.10031709994655,386.4637453999603,387.26296999992337,387.2474825999234,,,,,,,,,,,,,,,,,,,,,,,,,,,,,,,,,,,387.252855299972,387.26296999992337,387.26296999992337,387.7308234999655,b,1.0,0.4616897999076172,,,,,sub-182,1,stroop_test,60.031360397831,
,,,,109.0,1.0,9.0,,,,,,,,,,,,,blau,red,r,0.0,r,1.0,0.4741874999599531,,,,,,,,,,9.0,1.0,109.0,4.0,387.7460444000317,,,,,,,,,,,,,,,,,387.7315080999397,388.54521619994193,389.34452969999984,389.3289649999933,,,,,,,,,,,,,,,,,,,,,,,,,,,,,,,,,,,389.32990899996366,389.34452969999984,389.34452969999984,389.8289895999478,r,1.0,0.4741874999599531,,,,,sub-182,1,stroop_test,60.031360397831,
,,,,110.0,2.0,9.0,,,,,,,,,,,,,gelb,yellow,g,1.0,g,1.0,0.4980373000726104,,,,,,,,,,9.0,2.0,110.0,10.0,389.8437277999474,,,,,,,,,,,,,,,,,389.82951529999264,391.0427363999188,391.8509667000035,391.82677529996727,,,,,,,,,,,,,,,,,,,,,,,,,,,,,,,,,,,391.8452890999615,391.8509667000035,391.8509667000035,392.3602836999344,g,1.0,0.4980373000726104,,,,,sub-182,1,stroop_test,60.031360397831,
,,,,111.0,3.0,9.0,,,,,,,,,,,,,gelb,red,r,0.0,r,1.0,0.486433699959889,,,,,,,,,,9.0,3.0,111.0,8.0,392.37489740003366,,,,,,,,,,,,,,,,,392.3610295000253,392.7245045999298,393.52407849999145,393.5079886999447,,,,,,,,,,,,,,,,,,,,,,,,,,,,,,,,,,,393.50876240001526,393.52407849999145,393.52407849999145,394.0251865999308,r,1.0,0.486433699959889,,,,,sub-182,1,stroop_test,60.031360397831,
,,,,112.0,4.0,9.0,,,,,,,,,,,,,rot,red,r,1.0,r,1.0,0.4681218001060188,,,,,,,,,,9.0,4.0,112.0,1.0,394.0401123999618,,,,,,,,,,,,,,,,,394.0257553999545,395.2387108999537,396.0381353999255,396.02276880003046,,,,,,,,,,,,,,,,,,,,,,,,,,,,,,,,,,,396.0286049999995,396.0381353999255,396.0381353999255,396.5234749999363,r,1.0,0.4681218001060188,,,,,sub-182,1,stroop_test,60.031360397831,
,,,,113.0,5.0,9.0,,,,,,,,,,,,,rot,red,r,1.0,r,1.0,0.4860480000497773,,,,,,,,,,9.0,5.0,113.0,0.0,396.5378416000167,,,,,,,,,,,,,,,,,396.5243134999182,396.6377140999539,397.4368886000011,397.42130459996406,,,,,,,,,,,,,,,,,,,,,,,,,,,,,,,,,,,397.4220544999698,397.4368886000011,397.4368886000011,397.9384898999706,r,1.0,0.4860480000497773,,,,,sub-182,1,stroop_test,60.031360397831,
,,,,114.0,6.0,9.0,,,,,,,,,,,,,rot,blue,b,0.0,b,1.0,0.4557155000511557,,,,,,,,,,9.0,6.0,114.0,2.0,397.9532374999253,,,,,,,,,,,,,,,,,397.9391545000253,398.3029412999749,399.1021912000142,399.0872584999306,,,,,,,,,,,,,,,,,,,,,,,,,,,,,,,,,,,399.0884620000143,399.1021912000142,399.1021912000142,399.5712614000077,b,1.0,0.4557155000511557,,,,,sub-182,1,stroop_test,60.031360397831,
,,,,115.0,7.0,9.0,,,,,,,,,,,,,rot,yellow,g,0.0,g,1.0,0.4528204000089317,,,,,,,,,,9.0,7.0,115.0,3.0,399.5849934000289,,,,,,,,,,,,,,,,,399.5721505000256,400.7837442000164,401.5828804000048,401.5673257999588,,,,,,,,,,,,,,,,,,,,,,,,,,,,,,,,,,,401.56810769997537,401.5828804000048,401.5828804000048,402.05127809999976,g,1.0,0.4528204000089317,,,,,sub-182,1,stroop_test,60.031360397831,
,,,,116.0,8.0,9.0,,,,,,,,,,,,,blau,blue,b,1.0,b,1.0,0.4462364000501111,,,,,,,,,,9.0,8.0,116.0,6.0,402.06690209999215,,,,,,,,,,,,,,,,,402.0518525999505,402.8650351000251,403.66414260002784,403.6489085999783,,,,,,,,,,,,,,,,,,,,,,,,,,,,,,,,,,,403.65283359994646,403.66414260002784,403.66414260002784,404.1166206999915,b,1.0,0.4462364000501111,,,,,sub-182,1,stroop_test,60.031360397831,
,,,,117.0,9.0,9.0,,,,,,,,,,,,,gelb,blue,b,0.0,b,1.0,0.5847490000305697,,,,,,,,,,9.0,9.0,117.0,9.0,404.1306284000166,,,,,,,,,,,,,,,,,404.11742100003175,404.2349718000041,405.0463342999574,405.0310274999356,,,,,,,,,,,,,,,,,,,,,,,,,,,,,,,,,,,405.0390249999473,405.0463342999574,405.0463342999574,405.64746220002417,b,1.0,0.5847490000305697,,,,,sub-182,1,stroop_test,60.031360397831,
,,,,118.0,10.0,9.0,,,,,,,,,,,,,gelb,yellow,g,1.0,g,1.0,0.4900942000094801,,,,,,,,,,9.0,10.0,118.0,11.0,405.662391699967,,,,,,,,,,,,,,,,,405.6480437000282,406.8613141999813,407.66064070002176,407.6447756999405,,,,,,,,,,,,,,,,,,,,,,,,,,,,,,,,,,,407.6456075999886,407.66064070002176,407.66064070002176,408.162458900013,g,1.0,0.4900942000094801,,,,,sub-182,1,stroop_test,60.031360397831,
,,,,119.0,11.0,9.0,,,,,,,,,,,,,blau,yellow,g,0.0,g,1.0,0.357136599952355,,,,,,,,,,9.0,11.0,119.0,7.0,408.1767341999803,,,,,,,,,,,,,,,,,408.163145700004,408.27666390000377,409.0759141999297,409.05993999994826,,,,,,,,,,,,,,,,,,,,,,,,,,,,,,,,,,,409.06444959994406,409.0759141999297,409.0759141999297,409.4452096000314,g,1.0,0.357136599952355,,,,,sub-182,1,stroop_test,60.031360397831,
,,,,,,,,,,,,,,,,,,,,,,,,,,,,,,,,,,,,,,,,,,,,,,,,,,,,,,,,,,,,,,,,,,,,,,,,,,,,,,,,,,,,,,,,,,,,,,,,,,,,,,409.4456333999988,409.4588162000291,414.4545183000155,sub-182,1,stroop_test,60.031360397831,
