direction,corrAns,randomInstr,practice_trials.thisRepN,practice_trials.thisTrialN,practice_trials.thisN,practice_trials.thisIndex,instr_trials.thisRepN,instr_trials.thisTrialN,instr_trials.thisN,instr_trials.thisIndex,test_trials.thisRepN,test_trials.thisTrialN,test_trials.thisN,test_trials.thisIndex,thisRow.t,notes,general_instruction.started,textGeneralInstr.started,respGeneralInstr.started,general_instruction.stopped,respGeneralInstr.keys,respGeneralInstr.rt,respGeneralInstr.duration,ITI.started,fixcross.started,fixcross.stopped,ITI.stopped,dots.started,backgroundDots.started,stimulusDots.started,respDots.started,stimulusDots.stopped,dots.stopped,respDots.keys,respDots.corr,respDots.rt,respDots.duration,feedback.started,textFeedback.started,feedback.stopped,textFeedback.stopped,info.started,textInfo.started,keyRespInfo.started,info.stopped,keyRespInfo.keys,keyRespInfo.rt,keyRespInfo.duration,test_instruction.started,textTestInstr.started,respTestInstr.started,test_instruction.stopped,respTestInstr.keys,respTestInstr.rt,respTestInstr.duration,random_instruction.started,textRandomInstr.started,respRandomInstr.started,random_instruction.stopped,respRandomInstr.keys,respRandomInstr.rt,respRandomInstr.duration,goodbye.started,textGoodbye.started,goodbye.stopped,participant,session,expName,frameRate,Unnamed: 73
,,,,,,,,,,,,,,,,,0.0131136999698355,0.0180718000046908,0.0180718000046908,16.366943400003947,space,40.22790389996953,,,,,,,,,,,,,,,,,,,,,,,,,,,,,,,,,,,,,,,,,,,,sub-221,1.0,random_dot,60.15301726201172,
left,left,,0.0,0.0,0.0,0.0,,,,,,,,,16.3978810000699,,,,,,,,,16.392567800008692,16.72775379999075,17.52934950008057,17.511296899989247,17.51133310003206,17.52934950008057,17.52934950008057,17.52934950008057,22.52313570003025,27.68676620000042,left,1.0,34.0319232000038,,27.690701200044717,27.706822699983604,28.20503110007849,,,,,,,,,,,,,,,,,,,,,,,,,,sub-221,1.0,random_dot,60.15301726201172,
right,right,,0.0,1.0,1.0,1.0,,,,,,,,,28.21713180001825,,,,,,,,,28.206088899984024,28.550181500031613,29.35035920003429,29.33444550004788,29.334518400020897,29.35035920003429,29.35035920003429,29.35035920003429,34.34580840007402,36.09720560000278,left,0.0,30.62353109999094,,36.09886600007303,36.117831900017336,36.6094952999847,,,,,,,,,,,,,,,,,,,,,,,,,,sub-221,1.0,random_dot,60.15301726201172,
left,left,,1.0,0.0,2.0,0.0,,,,,,,,,36.6257247000467,,,,,,,,,36.61011510004755,36.95909140002914,37.75905810005497,37.743796700029634,37.743870300007984,37.75905810005497,37.75905810005497,37.75905810005497,42.7543069999665,43.42202489997726,left,1.0,29.546545599936508,,43.422844500048086,43.43641429999843,43.92090929998085,43.93610950000584,,,,,,,,,,,,,,,,,,,,,,,,,sub-221,1.0,random_dot,60.15301726201172,
right,right,,1.0,1.0,3.0,1.0,,,,,,,,,43.93610950000584,,,,,,,,,43.922148299985565,45.13509090000298,45.95159509999212,45.93441360001452,45.93444209999871,45.95159509999212,45.95159509999212,45.95159509999212,50.94657550007105,51.64771130005829,right,1.0,29.574278499931097,,51.648847299977206,51.66191700007767,52.14590910007246,52.16152660001535,,,,,,,,,,,,,,,,,,,,,,,,,sub-221,1.0,random_dot,60.15301726201172,
right,right,,2.0,0.0,4.0,1.0,,,,,,,,,52.16152660001535,,,,,,,,,52.14667669998016,52.26144899998326,53.06150599999819,53.04510930005927,53.04515680007171,53.06150599999819,53.06150599999819,53.06150599999819,58.05665250006132,58.42591510002967,right,1.0,29.23203739989549,,58.42813170002773,58.438963899970986,58.92246430006344,58.93829660001211,,,,,,,,,,,,,,,,,,,,,,,,,sub-221,1.0,random_dot,60.15301726201172,
left,left,,2.0,1.0,5.0,0.0,,,,,,,,,58.93829660001211,,,,,,,,,58.92285009997431,60.13776549999602,60.93753550003749,60.921806600061245,60.9218776000198,60.93753550003749,60.93753550003749,60.93753550003749,65.93287520005833,66.417509800056,left,1.0,29.35728139989078,,66.41869040008169,66.43152450001799,66.9158502999926,66.93103890004568,,,,,,,,,,,,,,,,,,,,,,,,,sub-221,1.0,random_dot,60.15301726201172,
left,left,,3.0,0.0,6.0,0.0,,,,,,,,,66.93103890004568,,,,,,,,,66.91688100004103,67.73043840005994,68.54690680000931,68.5303367000306,68.53037340007722,68.54690680000931,68.54690680000931,68.54690680000931,73.54248429997824,74.79372920002788,right,0.0,30.123097599949688,,74.79515540006105,74.80703540006652,75.29096880008001,75.30652950005606,,,,,,,,,,,,,,,,,,,,,,,,,sub-221,1.0,random_dot,60.15301726201172,
right,right,,3.0,1.0,7.0,1.0,,,,,,,,,75.30652950005606,,,,,,,,,75.29197220003698,76.50537769997027,77.30538440006785,77.29018790007103,77.29025940003339,77.30538440006785,77.30538440006785,77.30538440006785,82.30077640002128,82.7375020000618,right,1.0,29.30809419997968,,82.73945760005154,82.75701290008146,83.24894479999784,,,,,,,,,,,,,,,,,,,,,,,,,,sub-221,1.0,random_dot,60.15301726201172,
left,left,,4.0,0.0,8.0,0.0,,,,,,,,,83.26569550007116,,,,,,,,,83.24943229998462,84.04808390000835,84.84824930003379,84.8322998000076,84.83235060004517,84.84824930003379,84.84824930003379,84.84824930003379,,86.34896700002719,left,1.0,25.380674800020643,,86.3501363999676,86.36313269997481,86.8478490000125,86.86231009999756,,,,,,,,,,,,,,,,,,,,,,,,,sub-221,1.0,random_dot,60.15301726201172,
right,right,,4.0,1.0,9.0,1.0,,,,,,,,,86.86231009999756,,,,,,,,,86.84918110002764,86.96256680006627,87.77904210006818,87.76351960003376,87.76358899998013,87.77904210006818,87.77904210006818,87.77904210006818,,89.94506549998187,right,1.0,26.041800499893725,,89.94600340002216,89.95945389999542,90.44294780003838,90.45893299998716,,,,,,,,,,,,,,,,,,,,,,,,,sub-221,1.0,random_dot,60.15301726201172,
right,right,,5.0,0.0,10.0,1.0,,,,,,,,,90.45893299998716,,,,,,,,,90.44338100007737,90.5589825999923,91.35899219999555,91.34296250005718,91.343016800005,91.35899219999555,91.35899219999555,91.35899219999555,,93.24181300005876,left,0.0,25.76524339988828,,93.24246990005486,93.2560502999695,93.74123090005014,93.75623329996596,,,,,,,,,,,,,,,,,,,,,,,,,sub-221,1.0,random_dot,60.15301726201172,
left,left,,5.0,1.0,11.0,0.0,,,,,,,,,93.75623329996596,,,,,,,,,93.74256340006832,93.8557496999856,94.67229830008,94.65577080007644,94.65579810005148,94.67229830008,94.67229830008,94.67229830008,,96.00701359997038,left,1.0,25.216769300051965,,96.00836870004424,96.02191820007285,96.52022870001385,,,,,,,,,,,,,,,,,,,,,,,,,,sub-221,1.0,random_dot,60.15301726201172,
right,right,,6.0,0.0,12.0,1.0,,,,,,,,,96.536578200059,,,,,,,,,96.5212391000241,96.86964699998498,97.66987129999325,97.6533602999989,97.65340439998543,97.66987129999325,97.66987129999325,97.66987129999325,,100.18586129997855,right,1.0,26.388975500012748,,100.18694519996644,100.1998741000425,100.6838578999741,100.69937909999862,,,,,,,,,,,,,,,,,,,,,,,,,sub-221,1.0,random_dot,60.15301726201172,
left,left,,6.0,1.0,13.0,0.0,,,,,,,,,100.69937909999862,,,,,,,,,100.68470460001843,101.49866829998793,102.29874890006612,102.28294170007575,102.28301570005716,102.29874890006612,102.29874890006612,102.29874890006612,107.2938289999729,108.16152950003745,left,1.0,29.734622500021946,,108.16261720005424,108.17550090001896,108.65943150001112,108.6750175000634,,,,,,,,,,,,,,,,,,,,,,,,,sub-221,1.0,random_dot,60.15301726201172,
right,right,,7.0,0.0,14.0,1.0,,,,,,,,,108.6750175000634,,,,,,,,,108.66008170007262,109.87426499999128,110.67790979996788,110.65805740002544,110.65810590004548,110.67790979996788,110.67790979996788,110.67790979996788,,113.48975970002355,right,1.0,26.690319299930707,,113.4906049000565,113.50387320003938,113.9879550000187,114.00340270006564,,,,,,,,,,,,,,,,,,,,,,,,,sub-221,1.0,random_dot,60.15301726201172,
left,left,,7.0,1.0,15.0,0.0,,,,,,,,,114.00340270006564,,,,,,,,,113.98866620007902,114.35313030006364,115.15342570003122,115.1375839000102,115.13765619997866,115.15342570003122,115.15342570003122,115.15342570003122,,117.33625789999496,right,0.0,26.052609099890105,,117.33719640003984,117.35047860001214,117.8341730000684,117.8500307999784,,,,,,,,,,,,,,,,,,,,,,,,,sub-221,1.0,random_dot,60.15301726201172,
left,left,,8.0,0.0,16.0,0.0,,,,,,,,,117.8500307999784,,,,,,,,,117.83477159996984,117.9497973000398,118.74996589997318,118.73388379998504,118.7339291999815,118.74996589997318,118.74996589997318,118.74996589997318,,123.26410600007512,left,1.0,28.38765109993983,,123.264923300012,123.27808399999049,123.7621960999677,123.77733690000603,,,,,,,,,,,,,,,,,,,,,,,,,sub-221,1.0,random_dot,60.15301726201172,
right,right,,8.0,1.0,17.0,1.0,,,,,,,,,123.77733690000603,,,,,,,,,123.76291839999612,124.97657339996658,125.77669319999404,125.76030800002628,125.7603458999656,125.77669319999404,125.77669319999404,125.77669319999404,,130.10830079996958,left,0.0,28.200990099925548,,130.10961140005384,130.1215428999858,130.60639079997782,130.62136970006395,,,,,,,,,,,,,,,,,,,,,,,,,sub-221,1.0,random_dot,60.15301726201172,
right,right,,9.0,0.0,18.0,1.0,,,,,,,,,130.62136970006395,,,,,,,,,130.60756679996848,130.97146849997807,131.78777990001254,131.77129539998714,131.77134039998057,131.78777990001254,131.78777990001254,131.78777990001254,,135.2860498999944,right,1.0,27.375839699991047,,135.2868703000713,135.30012080003507,135.78470339998603,135.80015560006723,,,,,,,,,,,,,,,,,,,,,,,,,sub-221,1.0,random_dot,60.15301726201172,
left,left,,9.0,1.0,19.0,0.0,,,,,,,,,135.80015560006723,,,,,,,,,135.78588700003456,135.89984199998435,136.70003249996807,136.68403210001998,136.6841181999771,136.70003249996807,136.70003249996807,136.70003249996807,,140.58074560004752,right,0.0,27.762318499968387,,140.58143290004227,140.5953845999902,141.0789514000062,141.09478200005833,,,,,,,,,,,,,,,,,,,,,,,,,sub-221,1.0,random_dot,60.15301726201172,
,,,,,,,,,,,,,,,,,,,,,,,,,,,,,,,,,,,,,,,,,,141.07902389997616,141.09478200005833,141.09478200005833,143.07781150005758,space,25.85257419990376,,,,,,,,,,,,,,,,,,,sub-221,1.0,random_dot,60.15301726201172,
,,,,,,,,,,,,,,,,,,,,,,,,,,,,,,,,,,,,,,,,,,,,,,,,,143.0778649999993,143.09307709999848,143.09307709999848,147.1575006999774,space,27.943932799971662,,,,,,,,,,,,sub-221,1.0,random_dot,60.15301726201172,
left,left,accuracy,,,,,0.0,0.0,0.0,0.0,0.0,0.0,0.0,0.0,149.9907857000362,,,,,,,,,149.98667840007693,150.08649959997274,150.88657860003875,150.87010790000204,150.87015600001905,150.88657860003875,150.88657860003875,150.88657860003875,155.8820847000461,156.08348180004396,left,1.0,29.070081499870867,,,,,,,,,,,,,,,,,,,,147.16243759996723,147.1828356999904,147.1828356999904,149.97257390001323,space,26.66347519995179,,,,,sub-221,1.0,random_dot,60.15301726201172,
right,right,accuracy,,,,,0.0,0.0,0.0,0.0,0.0,1.0,1.0,1.0,156.0973573999945,,,,,,,,,156.08579070004637,157.29626670002472,158.09648459998425,158.08089410001412,158.08095500001218,158.09648459998425,158.09648459998425,158.09648459998425,,160.96187830006238,right,1.0,26.733502499875613,,,,,,,,,,,,,,,,,,,,,,,,,,,,,,sub-221,1.0,random_dot,60.15301726201172,
right,right,accuracy,,,,,0.0,0.0,0.0,0.0,1.0,0.0,2.0,1.0,160.97609610005748,,,,,,,,,160.963563599973,161.77550620003603,162.57551230001263,162.55910559999757,162.5591481999727,162.57551230001263,162.57551230001263,162.57551230001263,,165.37559720000718,right,1.0,26.6811536999885,,,,,,,,,,,,,,,,,,,,,,,,,,,,,,sub-221,1.0,random_dot,60.15301726201172,
left,left,accuracy,,,,,0.0,0.0,0.0,0.0,1.0,1.0,3.0,0.0,165.389038000023,,,,,,,,,165.37820789997932,166.5876521000173,167.38780240004417,167.37100070004817,167.37103410006966,167.38780240004417,167.38780240004417,167.38780240004417,,169.65397029998712,left,1.0,26.14002599997912,,,,,,,,,,,,,,,,,,,,,,,,,,,,,,sub-221,1.0,random_dot,60.15301726201172,
right,right,accuracy,,,,,0.0,0.0,0.0,0.0,2.0,0.0,4.0,1.0,169.66798550006934,,,,,,,,,169.656117000035,170.01803410006687,170.8180678000208,170.80168330005836,170.801730300067,170.8180678000208,170.8180678000208,170.8180678000208,,172.8853061000118,right,1.0,25.939988299971446,,,,,,,,,,,,,,,,,,,,,,,,,,,,,,sub-221,1.0,random_dot,60.15301726201172,
left,left,accuracy,,,,,0.0,0.0,0.0,0.0,2.0,1.0,5.0,0.0,172.8983464000048,,,,,,,,,172.8878207000671,173.2480719999876,174.04828910005745,174.03280990000349,174.03289130004123,174.04828910005745,174.04828910005745,174.04828910005745,,177.43007780006155,left,1.0,27.250076700001955,,,,,,,,,,,,,,,,,,,,,,,,,,,,,,sub-221,1.0,random_dot,60.15301726201172,
left,left,accuracy,,,,,0.0,0.0,0.0,0.0,3.0,0.0,6.0,0.0,177.4439947999781,,,,,,,,,177.43209440005012,177.79434939997736,178.61101600003894,178.59460519999266,178.59465910005383,178.61101600003894,178.61101600003894,178.61101600003894,,181.5262695000274,left,1.0,26.787736099911854,,,,,,,,,,,,,,,,,,,,,,,,,,,,,,sub-221,1.0,random_dot,60.15301726201172,
right,right,accuracy,,,,,0.0,0.0,0.0,0.0,3.0,1.0,7.0,1.0,181.54035190003924,,,,,,,,,181.52838470006827,181.8902970000636,182.69029200007208,182.67446530004963,182.67452660005077,182.69029200007208,182.69029200007208,182.69029200007208,,184.25718159996904,right,1.0,25.44316709996201,,,,,,,,,,,,,,,,,,,,,,,,,,,,,,sub-221,1.0,random_dot,60.15301726201172,
left,left,accuracy,,,,,0.0,0.0,0.0,0.0,4.0,0.0,8.0,0.0,184.27102640003432,,,,,,,,,184.25910570006815,185.0706227000337,185.88752059999388,185.8704798000399,185.87052150000815,185.88752059999388,185.88752059999388,185.88752059999388,,187.62018550001085,left,1.0,25.604081799974665,,,,,,,,,,,,,,,,,,,,,,,,,,,,,,sub-221,1.0,random_dot,60.15301726201172,
right,right,accuracy,,,,,0.0,0.0,0.0,0.0,4.0,1.0,9.0,1.0,187.63465370005,,,,,,,,,187.62219640007245,188.83337180002127,189.63381150003988,189.61806130001787,189.6181319999741,189.63381150003988,189.63381150003988,189.63381150003988,,191.30039490002676,right,1.0,25.54568339989055,,,,,,,,,,,,,,,,,,,,,,,,,,,,,,sub-221,1.0,random_dot,60.15301726201172,
right,right,accuracy,,,,,0.0,0.0,0.0,0.0,5.0,0.0,10.0,1.0,191.31455800007095,,,,,,,,,191.3025786000071,191.6645554000279,192.4808822000632,192.46454429998997,192.4645848000655,192.4808822000632,192.4808822000632,192.4808822000632,,193.69863730005451,right,1.0,25.094027300016023,,,,,,,,,,,,,,,,,,,,,,,,,,,,,,sub-221,1.0,random_dot,60.15301726201172,
left,left,accuracy,,,,,0.0,0.0,0.0,0.0,5.0,1.0,11.0,0.0,193.71214820002209,,,,,,,,,193.70099070004653,194.51183600001968,195.32826840004415,195.3114320000168,195.31146180001087,195.32826840004415,195.32826840004415,195.32826840004415,,196.11282220005523,left,1.0,24.657153800013475,,,,,,,,,,,,,,,,,,,,,,,,,,,,,,sub-221,1.0,random_dot,60.15301726201172,
right,right,accuracy,,,,,0.0,0.0,0.0,0.0,6.0,0.0,12.0,1.0,196.12664120004047,,,,,,,,,196.1150036000181,196.4766122000292,197.27674050000496,197.26080920000092,197.26086899999063,197.27674050000496,197.27674050000496,197.27674050000496,,202.1406788000604,right,1.0,28.735026799957268,,,,,,,,,,,,,,,,,,,,,,,,,,,,,,sub-221,1.0,random_dot,60.15301726201172,
left,left,accuracy,,,,,0.0,0.0,0.0,0.0,6.0,1.0,13.0,0.0,202.1545786000788,,,,,,,,,202.14330890006383,203.3531757000601,204.15382980008144,204.1379779999843,204.13804870005697,204.15382980008144,204.15382980008144,204.15382980008144,,208.40003969997636,left,1.0,28.12314649997279,,,,,,,,,,,,,,,,,,,,,,,,,,,,,,sub-221,1.0,random_dot,60.15301726201172,
right,right,accuracy,,,,,0.0,0.0,0.0,0.0,7.0,0.0,14.0,1.0,208.41532729996837,,,,,,,,,208.40081200003624,209.21453400002792,210.0149552000221,209.9984098999994,209.99845840001944,210.0149552000221,210.0149552000221,210.0149552000221,,210.83155850006733,right,1.0,24.690280699986037,,,,,,,,,,,,,,,,,,,,,,,,,,,,,,sub-221,1.0,random_dot,60.15301726201172,
left,left,accuracy,,,,,0.0,0.0,0.0,0.0,7.0,1.0,15.0,0.0,210.84602719999384,,,,,,,,,210.83305550005755,211.6459038000321,212.44561000005345,212.43004470004237,212.4301153999986,212.44561000005345,212.44561000005345,212.44561000005345,,215.21220389998047,left,1.0,26.649770199903287,,,,,,,,,,,,,,,,,,,,,,,,,,,,,,sub-221,1.0,random_dot,60.15301726201172,
right,right,accuracy,,,,,0.0,0.0,0.0,0.0,8.0,0.0,16.0,1.0,215.2254352000309,,,,,,,,,215.21437120006885,215.32561860000715,216.12553690001369,216.1094257000368,216.1094803999877,216.12553690001369,216.12553690001369,216.12553690001369,,217.2592356000096,right,1.0,25.006192700006068,,,,,,,,,,,,,,,,,,,,,,,,,,,,,,sub-221,1.0,random_dot,60.15301726201172,
left,left,accuracy,,,,,0.0,0.0,0.0,0.0,8.0,1.0,17.0,0.0,217.27332530007695,,,,,,,,,217.26065010007005,217.3737382000545,218.19016580004245,218.173947900068,218.17399160005152,218.19016580004245,218.19016580004245,218.19016580004245,,219.175499200006,left,1.0,24.858294900041077,,,,,,,,,,,,,,,,,,,,,,,,,,,,,,sub-221,1.0,random_dot,60.15301726201172,
left,left,accuracy,,,,,0.0,0.0,0.0,0.0,9.0,0.0,18.0,0.0,219.18814209999985,,,,,,,,,219.17840360000264,219.9879589000484,220.7882034999784,220.7718934000004,220.77195409999692,220.7882034999784,220.7882034999784,220.7882034999784,,222.3720489999978,left,1.0,25.4554304999765,,,,,,,,,,,,,,,,,,,,,,,,,,,,,,sub-221,1.0,random_dot,60.15301726201172,
right,right,accuracy,,,,,0.0,0.0,0.0,0.0,9.0,1.0,19.0,1.0,222.38553369999863,,,,,,,,,222.37442580005157,222.73530389997177,223.5518508000532,223.53558230004276,223.53562630002853,223.5518508000532,223.5518508000532,223.5518508000532,,225.10252020007465,right,1.0,25.431940100039355,,,,,,,,,,,,,,,,,,,,,,,,,,,,,,sub-221,1.0,random_dot,60.15301726201172,
right,right,accuracy,,,,,0.0,0.0,0.0,0.0,10.0,0.0,20.0,1.0,225.1161119000753,,,,,,,,,225.10451229999308,226.3154335999861,227.1317071000813,227.115079500014,227.11511180002708,227.1317071000813,227.1317071000813,227.1317071000813,,229.26498640002683,right,1.0,26.009154499974105,,,,,,,,,,,,,,,,,,,,,,,,,,,,,,sub-221,1.0,random_dot,60.15301726201172,
left,left,accuracy,,,,,0.0,0.0,0.0,0.0,10.0,1.0,21.0,0.0,229.2787983000744,,,,,,,,,229.26666189997923,230.07848869997545,230.8786431000335,230.8626474000048,230.8627093000105,230.8786431000335,230.8786431000335,230.8786431000335,,231.6967042000033,left,1.0,24.692429999937303,,,,,,,,,,,,,,,,,,,,,,,,,,,,,,sub-221,1.0,random_dot,60.15301726201172,
left,left,accuracy,,,,,0.0,0.0,0.0,0.0,11.0,0.0,22.0,0.0,231.71003650000785,,,,,,,,,231.6996202999726,232.50949460000265,233.30952330003493,233.2933338000439,233.29338110005483,233.30952330003493,233.30952330003493,233.30952330003493,,237.2573964999756,left,1.0,27.81792319996748,,,,,,,,,,,,,,,,,,,,,,,,,,,,,,sub-221,1.0,random_dot,60.15301726201172,
right,right,accuracy,,,,,0.0,0.0,0.0,0.0,11.0,1.0,23.0,1.0,237.2715836999705,,,,,,,,,237.2594365000259,237.62125900003596,238.4213847999927,238.40517020004336,238.40522329998203,238.4213847999927,238.4213847999927,238.4213847999927,,239.78710269997828,right,1.0,25.24705719994381,,,,,,,,,,,,,,,,,,,,,,,,,,,,,,sub-221,1.0,random_dot,60.15301726201172,
right,right,accuracy,,,,,0.0,0.0,0.0,0.0,12.0,0.0,24.0,1.0,239.80199930001984,,,,,,,,,239.787916900008,240.6017975000432,241.4020103000803,241.3862730000401,241.3863485000329,241.4020103000803,241.4020103000803,241.4020103000803,,243.3850052000489,right,1.0,25.86207739997189,,,,,,,,,,,,,,,,,,,,,,,,,,,,,,sub-221,1.0,random_dot,60.15301726201172,
left,left,accuracy,,,,,0.0,0.0,0.0,0.0,12.0,1.0,25.0,0.0,243.3989256999921,,,,,,,,,243.3869772000471,244.59814690006897,245.39780460007023,245.38117569999304,245.3811929000076,245.39780460007023,245.39780460007023,245.39780460007023,,249.3120428000111,left,1.0,27.782706700032577,,,,,,,,,,,,,,,,,,,,,,,,,,,,,,sub-221,1.0,random_dot,60.15301726201172,
right,right,accuracy,,,,,0.0,0.0,0.0,0.0,13.0,0.0,26.0,1.0,249.3267152999761,,,,,,,,,249.3128939999733,250.12604920007288,250.9261076999828,250.9091573000187,250.90918229997624,250.9261076999828,250.9261076999828,250.9261076999828,,254.45728910004252,right,1.0,27.40470839990303,,,,,,,,,,,,,,,,,,,,,,,,,,,,,,sub-221,1.0,random_dot,60.15301726201172,
left,left,accuracy,,,,,0.0,0.0,0.0,0.0,13.0,1.0,27.0,0.0,254.47205980005677,,,,,,,,,254.45818269997835,254.57250380003825,255.38883239997085,255.3723568000132,255.37239659996703,255.38883239997085,255.38883239997085,255.38883239997085,,256.6894268000033,left,1.0,25.1817766999593,,,,,,,,,,,,,,,,,,,,,,,,,,,,,,sub-221,1.0,random_dot,60.15301726201172,
left,left,accuracy,,,,,0.0,0.0,0.0,0.0,14.0,0.0,28.0,0.0,256.7030589000788,,,,,,,,,256.69154869997874,257.5027906000614,258.3028351999819,258.2876481000567,258.28771980002057,258.3028351999819,258.3028351999819,258.3028351999819,263.29814730002545,263.55175860004965,left,1.0,29.124602199997756,,,,,,,,,,,,,,,,,,,,,,,,,,,,,,sub-221,1.0,random_dot,60.15301726201172,
right,right,accuracy,,,,,0.0,0.0,0.0,0.0,14.0,1.0,29.0,1.0,263.5635127000278,,,,,,,,,263.5558384000324,264.3627160000615,265.1629159000004,265.14734190003946,265.1474126999965,265.1629159000004,265.1629159000004,265.1629159000004,,265.91347969998606,right,1.0,24.625322399893776,,,,,,,,,,,,,,,,,,,,,,,,,,,,,,sub-221,1.0,random_dot,60.15301726201172,
right,right,accuracy,,,,,0.0,0.0,0.0,0.0,15.0,0.0,30.0,1.0,265.92778520006686,,,,,,,,,265.9150309000397,266.028021599981,266.84496330004185,266.8279592000181,266.8280005999841,266.84496330004185,266.84496330004185,266.84496330004185,,267.8620918999659,right,1.0,24.885753500042483,,,,,,,,,,,,,,,,,,,,,,,,,,,,,,sub-221,1.0,random_dot,60.15301726201172,
left,left,accuracy,,,,,0.0,0.0,0.0,0.0,15.0,1.0,31.0,0.0,267.8761125999736,,,,,,,,,267.8640854000114,268.2259361000033,269.0257169000106,269.0088850000175,269.0089036000427,269.0257169000106,269.0257169000106,269.0257169000106,,269.77682749996893,left,1.0,24.62431949994061,,,,,,,,,,,,,,,,,,,,,,,,,,,,,,sub-221,1.0,random_dot,60.15301726201172,
left,left,accuracy,,,,,0.0,0.0,0.0,0.0,16.0,0.0,32.0,0.0,269.79102120001335,,,,,,,,,269.778696399997,270.14123489998747,270.957513100002,270.9412061000476,270.9412502000341,270.957513100002,270.957513100002,270.957513100002,,271.90808349999133,left,1.0,24.82235229993239,,,,,,,,,,,,,,,,,,,,,,,,,,,,,,sub-221,1.0,random_dot,60.15301726201172,
right,right,accuracy,,,,,0.0,0.0,0.0,0.0,16.0,1.0,33.0,1.0,271.9226561000105,,,,,,,,,271.90992720006034,272.02235149999615,272.8227410999825,272.80723919998854,272.80731319996994,272.8227410999825,272.8227410999825,272.8227410999825,,273.64000710006803,right,1.0,24.7011513998732,,,,,,,,,,,,,,,,,,,,,,,,,,,,,,sub-221,1.0,random_dot,60.15301726201172,
left,left,accuracy,,,,,0.0,0.0,0.0,0.0,17.0,0.0,34.0,0.0,273.6538460999727,,,,,,,,,273.64128260000143,273.7539271999849,274.5543016999727,274.53761170001235,274.5376439000247,274.5543016999727,274.5543016999727,274.5543016999727,,276.4372616000473,left,1.0,25.766381100052968,,,,,,,,,,,,,,,,,,,,,,,,,,,,,,sub-221,1.0,random_dot,60.15301726201172,
right,right,accuracy,,,,,0.0,0.0,0.0,0.0,17.0,1.0,35.0,1.0,276.4512790000299,,,,,,,,,276.43879350007046,277.25120579998475,278.06794550002087,278.0521641999949,278.05223390005995,278.06794550002087,278.06794550002087,278.06794550002087,,282.0646710000001,right,1.0,27.879317999933846,,,,,,,,,,,,,,,,,,,,,,,,,,,,,,sub-221,1.0,random_dot,60.15301726201172,
right,right,accuracy,,,,,0.0,0.0,0.0,0.0,18.0,0.0,36.0,1.0,282.0796367999865,,,,,,,,,282.065695199999,282.4291750000557,283.2295177000342,283.2123494000407,283.212377000018,283.2295177000342,283.2295177000342,283.2295177000342,,285.3316990999738,right,1.0,25.98428099998273,,,,,,,,,,,,,,,,,,,,,,,,,,,,,,sub-221,1.0,random_dot,60.15301726201172,
left,left,accuracy,,,,,0.0,0.0,0.0,0.0,18.0,1.0,37.0,0.0,285.3431950000813,,,,,,,,,285.334937900072,285.4431244999869,286.2432656000601,286.22687260003295,286.2269204000477,286.2432656000601,286.2432656000601,286.2432656000601,,287.44396309996955,left,1.0,25.07694369996898,,,,,,,,,,,,,,,,,,,,,,,,,,,,,,sub-221,1.0,random_dot,60.15301726201172,
left,left,accuracy,,,,,0.0,0.0,0.0,0.0,19.0,0.0,38.0,0.0,287.45776490005665,,,,,,,,,287.4462114999769,288.2575819999911,289.0740519000683,289.0583315000404,289.05840029998217,289.0740519000683,289.0740519000683,289.0740519000683,,292.07282850006595,left,1.0,26.87003700004425,,,,,,,,,,,,,,,,,,,,,,,,,,,,,,sub-221,1.0,random_dot,60.15301726201172,
right,right,accuracy,,,,,0.0,0.0,0.0,0.0,19.0,1.0,39.0,1.0,292.0870097000152,,,,,,,,,292.07478710007854,292.88603509997483,293.6862543000607,293.67021999997087,293.67028040008154,293.6862543000607,293.6862543000607,293.6862543000607,,295.75402250001207,right,1.0,25.93734790000599,,,,,,,,,,,,,,,,,,,,,,,,,,,,,,sub-221,1.0,random_dot,60.15301726201172,
right,right,accuracy,,,,,0.0,0.0,0.0,0.0,20.0,0.0,40.0,1.0,295.76694360002875,,,,,,,,,295.75725070002954,296.96537900005933,297.76596610003617,297.7493119999999,297.74935260007624,297.76596610003617,297.76596610003617,297.76596610003617,,298.83269629999995,right,1.0,24.942150299903005,,,,,,,,,,,,,,,,,,,,,,,,,,,,,,sub-221,1.0,random_dot,60.15301726201172,
left,left,accuracy,,,,,0.0,0.0,0.0,0.0,20.0,1.0,41.0,0.0,298.84721779997926,,,,,,,,,298.8342689999845,299.196916099987,299.9968194999965,299.9801982999779,299.98022700008005,299.9968194999965,299.9968194999965,299.9968194999965,,301.06523329997435,left,1.0,24.95046880003065,,,,,,,,,,,,,,,,,,,,,,,,,,,,,,sub-221,1.0,random_dot,60.15301726201172,
right,right,accuracy,,,,,0.0,0.0,0.0,0.0,21.0,0.0,42.0,1.0,301.0783960999688,,,,,,,,,301.0678443000652,301.87798660004046,302.67776109999977,302.6616367000388,302.66168490005657,302.67776109999977,302.67776109999977,302.67776109999977,,305.659013699973,right,1.0,26.85158459993545,,,,,,,,,,,,,,,,,,,,,,,,,,,,,,sub-221,1.0,random_dot,60.15301726201172,
left,left,accuracy,,,,,0.0,0.0,0.0,0.0,21.0,1.0,43.0,0.0,305.67404199996963,,,,,,,,,305.65989640005864,305.7742588999681,306.5743449999718,306.5588130999822,306.5588739999803,306.5743449999718,306.5743449999718,306.5743449999718,,310.0889853000408,right,0.0,27.392496000044048,,,,,,,,,,,,,,,,,,,,,,,,,,,,,,sub-221,1.0,random_dot,60.15301726201172,
left,left,accuracy,,,,,0.0,0.0,0.0,0.0,22.0,0.0,44.0,0.0,310.1030254000798,,,,,,,,,310.09039450006094,311.30216369999107,312.1023354000645,312.0859606000595,312.08600880007725,312.1023354000645,312.1023354000645,312.1023354000645,,316.31670309999026,right,0.0,28.084556399961,,,,,,,,,,,,,,,,,,,,,,,,,,,,,,sub-221,1.0,random_dot,60.15301726201172,
right,right,accuracy,,,,,0.0,0.0,0.0,0.0,22.0,1.0,45.0,1.0,316.3306512000272,,,,,,,,,316.3185452000471,316.6803948000306,317.48051859997213,317.4644161000615,317.4644862000132,317.48051859997213,317.48051859997213,317.48051859997213,,319.13032840006053,left,0.0,25.529485600069165,,,,,,,,,,,,,,,,,,,,,,,,,,,,,,sub-221,1.0,random_dot,60.15301726201172,
right,right,accuracy,,,,,0.0,0.0,0.0,0.0,23.0,0.0,46.0,1.0,319.1446014000103,,,,,,,,,319.131900700042,319.2451989999972,320.0453427999746,320.0293511999771,320.02943910006434,320.0453427999746,320.0453427999746,320.0453427999746,,322.5274254999822,left,0.0,26.35391880001407,,,,,,,,,,,,,,,,,,,,,,,,,,,,,,sub-221,1.0,random_dot,60.15301726201172,
left,left,accuracy,,,,,0.0,0.0,0.0,0.0,23.0,1.0,47.0,0.0,322.54173240007367,,,,,,,,,322.5289680999704,323.3414194000652,324.1577543000458,324.14105540001765,324.14109140005894,324.1577543000458,324.1577543000458,324.1577543000458,,326.87491680006497,left,1.0,26.585394999943677,,,,,,,,,,,,,,,,,,,,,,,,,,,,,,sub-221,1.0,random_dot,60.15301726201172,
left,left,accuracy,,,,,0.0,0.0,0.0,0.0,24.0,0.0,48.0,0.0,326.88765940000303,,,,,,,,,326.8771029000636,328.08669779996853,328.9033306000056,328.8866086000344,328.8866478999844,328.9033306000056,328.9033306000056,328.9033306000056,,333.33540490001906,right,0.0,28.31220099993516,,,,,,,,,,,,,,,,,,,,,,,,,,,,,,sub-221,1.0,random_dot,60.15301726201172,
right,right,accuracy,,,,,0.0,0.0,0.0,0.0,24.0,1.0,49.0,1.0,333.3480089000659,,,,,,,,,333.33837350003887,333.4485725000268,334.2650473000249,334.2481209000107,334.2481555000413,334.2650473000249,334.2650473000249,334.2650473000249,,335.3826679000631,right,1.0,25.00075150001794,,,,,,,,,,,,,,,,,,,,,,,,,,,,,,sub-221,1.0,random_dot,60.15301726201172,
left,left,accuracy,,,,,0.0,0.0,0.0,0.0,25.0,0.0,50.0,0.0,335.39599630003795,,,,,,,,,335.3848424999742,336.19568260002416,336.995574700064,336.9802815000294,336.9803593000397,336.995574700064,336.995574700064,336.995574700064,,339.7442692000186,left,1.0,26.62758179998491,,,,,,,,,,,,,,,,,,,,,,,,,,,,,,sub-221,1.0,random_dot,60.15301726201172,
right,right,accuracy,,,,,0.0,0.0,0.0,0.0,25.0,1.0,51.0,1.0,339.75871319998987,,,,,,,,,339.7457648999989,339.85901780007407,340.6590018999996,340.64260780008044,340.6426482000388,340.6590018999996,340.6590018999996,340.6590018999996,,342.09263400000054,right,1.0,25.30888060003053,,,,,,,,,,,,,,,,,,,,,,,,,,,,,,sub-221,1.0,random_dot,60.15301726201172,
left,left,accuracy,,,,,0.0,0.0,0.0,0.0,26.0,0.0,52.0,0.0,342.10671590000857,,,,,,,,,342.094397900044,342.9060807999922,343.7065588000696,343.6902038999833,343.6902652999852,343.7065588000696,343.7065588000696,343.7065588000696,,346.17298280005343,left,1.0,26.344795200042427,,,,,,,,,,,,,,,,,,,,,,,,,,,,,,sub-221,1.0,random_dot,60.15301726201172,
right,right,accuracy,,,,,0.0,0.0,0.0,0.0,26.0,1.0,53.0,1.0,346.1864683000604,,,,,,,,,346.17584739997983,346.98535600001924,347.7854550000048,347.76915700000245,347.76919710007496,347.7854550000048,347.7854550000048,347.7854550000048,,348.7362438000273,right,1.0,24.823823599959724,,,,,,,,,,,,,,,,,,,,,,,,,,,,,,sub-221,1.0,random_dot,60.15301726201172,
right,right,accuracy,,,,,0.0,0.0,0.0,0.0,27.0,0.0,54.0,1.0,348.7502398000797,,,,,,,,,348.73786280001514,348.8507172999671,349.6673908000812,349.65079149999656,349.6508282000432,349.6673908000812,349.6673908000812,349.6673908000812,,352.1334825999802,right,1.0,26.3387792998692,,,,,,,,,,,,,,,,,,,,,,,,,,,,,,sub-221,1.0,random_dot,60.15301726201172,
left,left,accuracy,,,,,0.0,0.0,0.0,0.0,27.0,1.0,55.0,0.0,352.14718490000814,,,,,,,,,352.1357209000271,352.497055200045,353.29705729999114,353.28170210006647,353.2817721000174,353.29705729999114,353.29705729999114,353.29705729999114,,355.78022559999954,left,1.0,26.35168139997404,,,,,,,,,,,,,,,,,,,,,,,,,,,,,,sub-221,1.0,random_dot,60.15301726201172,
right,right,accuracy,,,,,0.0,0.0,0.0,0.0,28.0,0.0,56.0,1.0,355.79409850004595,,,,,,,,,355.7831988000544,355.8938682000153,356.69383300002664,356.67804140003864,356.6781020000344,356.69383300002664,356.69383300002664,356.69383300002664,,357.99460340000223,right,1.0,25.178875699988566,,,,,,,,,,,,,,,,,,,,,,,,,,,,,,sub-221,1.0,random_dot,60.15301726201172,
left,left,accuracy,,,,,0.0,0.0,0.0,0.0,28.0,1.0,57.0,0.0,358.00848580000456,,,,,,,,,357.99670740007423,358.8077716999687,359.6080638000276,359.5923803000478,359.5924556000391,359.6080638000276,359.6080638000276,359.6080638000276,,362.70596910000313,left,1.0,26.978920099907555,,,,,,,,,,,,,,,,,,,,,,,,,,,,,,sub-221,1.0,random_dot,60.15301726201172,
right,right,accuracy,,,,,0.0,0.0,0.0,0.0,29.0,0.0,58.0,1.0,362.7206593999872,,,,,,,,,362.70685539999977,363.9201085000532,364.7199614000274,364.7039398000343,364.7039956999943,364.7199614000274,364.7199614000274,364.7199614000274,,366.7692144999746,right,1.0,25.929625899880197,,,,,,,,,,,,,,,,,,,,,,,,,,,,,,sub-221,1.0,random_dot,60.15301726201172,
left,left,accuracy,,,,,0.0,0.0,0.0,0.0,29.0,1.0,59.0,0.0,366.78356600005645,,,,,,,,,366.7705618999898,367.5829448000295,368.38317460007966,368.3661706000567,368.3662030000705,368.38317460007966,368.38317460007966,368.38317460007966,,370.9161750000203,left,1.0,26.41510129999369,,,,,,,,,,,,,,,,,,,,,,,,,,,,,,sub-221,1.0,random_dot,60.15301726201172,
,,accuracy,,,,,0.0,0.0,0.0,0.0,,,,,,,,,,,,,,,,,,,,,,,,,,,,,,,,,,,,,,,,,,,,,,,,,,,,,,,,sub-221,1.0,random_dot,60.15301726201172,
right,right,speed,,,,,0.0,1.0,1.0,1.0,0.0,0.0,0.0,1.0,372.96927280002274,,,,,,,,,372.964701000019,373.06110040005296,373.86115470004734,373.8447073000716,373.8447549999692,373.86115470004734,373.86115470004734,373.86115470004734,,374.6948846000014,right,1.0,24.70800240000244,,,,,,,,,,,,,,,,,,,,370.9186034000013,370.93857800005935,370.93857800005935,372.9481382999802,space,25.892097200034183,,,,,sub-221,1.0,random_dot,60.15301726201172,
left,left,speed,,,,,0.0,1.0,1.0,1.0,0.0,1.0,1.0,0.0,374.709348000004,,,,,,,,,374.69686160003766,375.9086667000083,376.7090002000332,376.6932856000494,376.6933562000049,376.7090002000332,376.7090002000332,376.7090002000332,,377.32787580008153,left,1.0,24.499501700047404,,,,,,,,,,,,,,,,,,,,,,,,,,,,,,sub-221,1.0,random_dot,60.15301726201172,
left,left,speed,,,,,0.0,1.0,1.0,1.0,1.0,0.0,2.0,0.0,377.34039749996737,,,,,,,,,377.33124800003134,377.4405990000814,378.2404009000165,378.2240900000325,378.2241346000228,378.2404009000165,378.2404009000165,378.2404009000165,,378.8916981000221,left,1.0,24.531304799951613,,,,,,,,,,,,,,,,,,,,,,,,,,,,,,sub-221,1.0,random_dot,60.15301726201172,
right,right,speed,,,,,0.0,1.0,1.0,1.0,1.0,1.0,3.0,1.0,378.9054668999743,,,,,,,,,378.8936298000626,379.705422500032,380.5220286999829,380.50649729999714,380.5065678000683,380.5220286999829,380.5220286999829,380.5220286999829,,381.12352650007233,right,1.0,24.48122900002636,,,,,,,,,,,,,,,,,,,,,,,,,,,,,,sub-221,1.0,random_dot,60.15301726201172,
right,right,speed,,,,,0.0,1.0,1.0,1.0,2.0,0.0,4.0,1.0,381.13704050006345,,,,,,,,,381.12604670005385,381.9359701999929,382.736455700011,382.7212685999693,382.721344599966,382.736455700011,382.736455700011,382.736455700011,,383.469987199991,right,1.0,24.60923889989499,,,,,,,,,,,,,,,,,,,,,,,,,,,,,,sub-221,1.0,random_dot,60.15301726201172,
left,left,speed,,,,,0.0,1.0,1.0,1.0,2.0,1.0,5.0,0.0,383.4845888999989,,,,,,,,,383.4712688999716,384.6834465999855,385.4839857000625,385.4671554999659,385.4671956000384,385.4839857000625,385.4839857000625,385.4839857000625,,386.3177811000496,right,0.0,24.70946130005177,,,,,,,,,,,,,,,,,,,,,,,,,,,,,,sub-221,1.0,random_dot,60.15301726201172,
left,left,speed,,,,,0.0,1.0,1.0,1.0,3.0,0.0,6.0,0.0,386.3318840999855,,,,,,,,,386.3194441000233,387.53122190001886,388.3311780000804,388.3156092000427,388.31567939999513,388.3311780000804,388.3311780000804,388.3311780000804,,388.83246090007015,left,1.0,24.38482749997638,,,,,,,,,,,,,,,,,,,,,,,,,,,,,,sub-221,1.0,random_dot,60.15301726201172,
right,right,speed,,,,,0.0,1.0,1.0,1.0,3.0,1.0,7.0,1.0,388.8463546000421,,,,,,,,,388.8340436000144,389.1958242000546,389.9960131000262,389.9801080999896,389.98016210005153,389.9960131000262,389.9960131000262,389.9960131000262,,391.0963479999919,left,0.0,24.971926199970767,,,,,,,,,,,,,,,,,,,,,,,,,,,,,,sub-221,1.0,random_dot,60.15301726201172,
left,left,speed,,,,,0.0,1.0,1.0,1.0,4.0,0.0,8.0,0.0,391.1108385999687,,,,,,,,,391.0978939000052,391.2106174000073,392.0109250000678,391.99546650005504,391.995536500006,392.0109250000678,392.0109250000678,392.0109250000678,,392.8624042000156,right,0.0,24.72333389997948,,,,,,,,,,,,,,,,,,,,,,,,,,,,,,sub-221,1.0,random_dot,60.15301726201172,
right,right,speed,,,,,0.0,1.0,1.0,1.0,4.0,1.0,9.0,1.0,392.87565419997554,,,,,,,,,392.8650287999772,393.67504580004606,394.47508920007385,394.45943130005617,394.4594997999957,394.47508920007385,394.47508920007385,394.47508920007385,,395.14328530000057,right,1.0,24.54340870003216,,,,,,,,,,,,,,,,,,,,,,,,,,,,,,sub-221,1.0,random_dot,60.15301726201172,
right,right,speed,,,,,0.0,1.0,1.0,1.0,5.0,0.0,10.0,1.0,395.1568396000657,,,,,,,,,395.1455022000009,395.95660969999153,396.77305730001535,396.7564396000234,396.7564760000678,396.77305730001535,396.77305730001535,396.77305730001535,,397.4910136000253,right,1.0,24.587787099997517,,,,,,,,,,,,,,,,,,,,,,,,,,,,,,sub-221,1.0,random_dot,60.15301726201172,
left,left,speed,,,,,0.0,1.0,1.0,1.0,5.0,1.0,11.0,0.0,397.5050622000126,,,,,,,,,397.493284599972,398.7036935000215,399.5040497999871,399.4883694000309,399.48846120003145,399.5040497999871,399.5040497999871,399.5040497999871,,400.28779249999207,left,1.0,24.663070900016464,,,,,,,,,,,,,,,,,,,,,,,,,,,,,,sub-221,1.0,random_dot,60.15301726201172,
right,right,speed,,,,,0.0,1.0,1.0,1.0,6.0,0.0,12.0,1.0,400.30235630006064,,,,,,,,,400.28929830004927,401.1013561000582,401.9016933999956,401.885317999986,401.88536129996646,401.9016933999956,401.9016933999956,401.9016933999956,,403.9012074000202,right,1.0,25.87627170002088,,,,,,,,,,,,,,,,,,,,,,,,,,,,,,sub-221,1.0,random_dot,60.15301726201172,
left,left,speed,,,,,0.0,1.0,1.0,1.0,6.0,1.0,13.0,0.0,403.9152367999777,,,,,,,,,403.90278550004587,405.1145838999655,405.91471330006607,405.8983366000466,405.8983799000271,405.91471330006607,405.91471330006607,405.91471330006607,,408.0482004000805,right,0.0,26.01627889997326,,,,,,,,,,,,,,,,,,,,,,,,,,,,,,sub-221,1.0,random_dot,60.15301726201172,
right,right,speed,,,,,0.0,1.0,1.0,1.0,7.0,0.0,14.0,1.0,408.06157290004194,,,,,,,,,408.05010870005935,409.2608085999964,410.0774740000488,410.0603337000357,410.0603622000199,410.0774740000488,410.0774740000488,410.0774740000488,,411.4604220000329,left,0.0,25.265802399953827,,,,,,,,,,,,,,,,,,,,,,,,,,,,,,sub-221,1.0,random_dot,60.15301726201172,
left,left,speed,,,,,0.0,1.0,1.0,1.0,7.0,1.0,15.0,0.0,411.4749554999871,,,,,,,,,411.4617682000389,412.6740237000631,413.4742046999745,413.45837700006086,413.4584460000042,413.4742046999745,413.4742046999745,413.4742046999745,,414.6580708000111,left,1.0,25.063824599958025,,,,,,,,,,,,,,,,,,,,,,,,,,,,,,sub-221,1.0,random_dot,60.15301726201172,
right,right,speed,,,,,0.0,1.0,1.0,1.0,8.0,0.0,16.0,1.0,414.67193379998207,,,,,,,,,414.65991030004807,414.77192950004246,415.5722043999704,415.5556888000574,415.5557289000135,415.5722043999704,415.5722043999704,415.5722043999704,,417.6719953999855,right,1.0,25.97365770000033,,,,,,,,,,,,,,,,,,,,,,,,,,,,,,sub-221,1.0,random_dot,60.15301726201172,
left,left,speed,,,,,0.0,1.0,1.0,1.0,8.0,1.0,17.0,0.0,417.6859450000338,,,,,,,,,417.674005900044,418.0359056000598,418.8526031000074,418.8358264999697,418.8358708000742,418.8526031000074,418.8526031000074,418.8526031000074,,420.51977620006073,left,1.0,25.537532899994403,,,,,,,,,,,,,,,,,,,,,,,,,,,,,,sub-221,1.0,random_dot,60.15301726201172,
right,right,speed,,,,,0.0,1.0,1.0,1.0,9.0,0.0,18.0,1.0,420.5334686000133,,,,,,,,,420.52207750000525,421.3326665000058,422.1326334000332,422.1155107000377,422.1155267000431,422.1326334000332,422.1326334000332,422.1326334000332,,422.867052400019,right,1.0,24.610521199996583,,,,,,,,,,,,,,,,,,,,,,,,,,,,,,sub-221,1.0,random_dot,60.15301726201172,
left,left,speed,,,,,0.0,1.0,1.0,1.0,9.0,1.0,19.0,0.0,422.881210600026,,,,,,,,,422.8689987000544,423.6804112000391,424.4802170000039,424.4638122000033,424.4638492000522,424.4802170000039,424.4802170000039,424.4802170000039,,425.26534719998017,left,1.0,24.65452319988981,,,,,,,,,,,,,,,,,,,,,,,,,,,,,,sub-221,1.0,random_dot,60.15301726201172,
left,left,speed,,,,,0.0,1.0,1.0,1.0,10.0,0.0,20.0,0.0,425.2787684000796,,,,,,,,,425.2678452000255,425.3787505000364,426.1789336000802,426.1626483000582,426.1626931000501,426.1789336000802,426.1789336000802,426.1789336000802,,427.544740100042,left,1.0,25.234606300015,,,,,,,,,,,,,,,,,,,,,,,,,,,,,,sub-221,1.0,random_dot,60.15301726201172,
right,right,speed,,,,,0.0,1.0,1.0,1.0,10.0,1.0,21.0,1.0,427.5601661000401,,,,,,,,,427.5455276999856,428.7588325999677,429.5595294999657,429.5431944000302,429.543255000026,429.5595294999657,429.5595294999657,429.5595294999657,,430.3426202000119,right,1.0,24.657264299923558,,,,,,,,,,,,,,,,,,,,,,,,,,,,,,sub-221,1.0,random_dot,60.15301726201172,
right,right,speed,,,,,0.0,1.0,1.0,1.0,11.0,0.0,22.0,1.0,430.3573708999902,,,,,,,,,430.3439507000148,431.1566027000081,431.9567063000286,431.94140740006696,431.94147700001486,431.9567063000286,431.9567063000286,431.9567063000286,,432.95707900007255,right,1.0,24.883942799991928,,,,,,,,,,,,,,,,,,,,,,,,,,,,,,sub-221,1.0,random_dot,60.15301726201172,
left,left,speed,,,,,0.0,1.0,1.0,1.0,11.0,1.0,23.0,0.0,432.9715415000682,,,,,,,,,432.9582864000695,434.170630000066,434.9871923000319,434.9708517000545,434.9708907000022,434.9871923000319,434.9871923000319,434.9871923000319,,435.5554720000364,right,0.0,24.44965580001008,,,,,,,,,,,,,,,,,,,,,,,,,,,,,,sub-221,1.0,random_dot,60.15301726201172,
right,right,speed,,,,,0.0,1.0,1.0,1.0,12.0,0.0,24.0,1.0,435.5690620000241,,,,,,,,,435.55761720007285,435.66948010004126,436.4859744000714,436.4692651000805,436.4693041000282,436.4859744000714,436.4859744000714,436.4859744000714,,437.40383019996807,left,0.0,24.793262899969704,,,,,,,,,,,,,,,,,,,,,,,,,,,,,,sub-221,1.0,random_dot,60.15301726201172,
left,left,speed,,,,,0.0,1.0,1.0,1.0,12.0,1.0,25.0,0.0,437.417434800067,,,,,,,,,437.4061256999848,437.5176371000707,438.3177452000091,438.3018681000685,438.3019378000172,438.3177452000091,438.3177452000091,438.3177452000091,,439.33536889997777,right,0.0,24.88675329997204,,,,,,,,,,,,,,,,,,,,,,,,,,,,,,sub-221,1.0,random_dot,60.15301726201172,
left,left,speed,,,,,0.0,1.0,1.0,1.0,13.0,0.0,26.0,0.0,439.3490933000576,,,,,,,,,439.3376516000135,439.4488773000194,440.24922240001615,440.2328847000608,440.2329356999835,440.24922240001615,440.24922240001615,440.24922240001615,,441.0833733000327,right,0.0,24.707708499976437,,,,,,,,,,,,,,,,,,,,,,,,,,,,,,sub-221,1.0,random_dot,60.15301726201172,
right,right,speed,,,,,0.0,1.0,1.0,1.0,13.0,1.0,27.0,1.0,441.0975240999833,,,,,,,,,441.0854445999721,441.44742560002487,442.26396210002713,442.2474829000421,442.2475229999982,442.26396210002713,442.26396210002713,442.26396210002713,,443.2311142999679,right,1.0,24.841736599919383,,,,,,,,,,,,,,,,,,,,,,,,,,,,,,sub-221,1.0,random_dot,60.15301726201172,
right,right,speed,,,,,0.0,1.0,1.0,1.0,14.0,0.0,28.0,1.0,443.2452226000605,,,,,,,,,443.2328068000497,444.04421000008006,444.8446755000623,444.827864699997,444.8278992000269,444.8446755000623,444.8446755000623,444.8446755000623,,445.59587970003486,right,1.0,24.62920630001463,,,,,,,,,,,,,,,,,,,,,,,,,,,,,,sub-221,1.0,random_dot,60.15301726201172,
left,left,speed,,,,,0.0,1.0,1.0,1.0,14.0,1.0,29.0,0.0,445.6096778999781,,,,,,,,,445.5978546000552,446.8082209000131,447.60844810004346,447.59143560007215,447.59145519998856,447.60844810004346,447.60844810004346,447.60844810004346,,448.3753400000278,left,1.0,24.64063139993232,,,,,,,,,,,,,,,,,,,,,,,,,,,,,,sub-221,1.0,random_dot,60.15301726201172,
right,right,speed,,,,,0.0,1.0,1.0,1.0,15.0,0.0,30.0,1.0,448.39007820002735,,,,,,,,,448.3761826000409,448.4900560000679,449.290511499974,449.2740760999732,449.2741158000426,449.290511499974,449.290511499974,449.290511499974,,450.0070677000331,left,0.0,24.59594450006261,,,,,,,,,,,,,,,,,,,,,,,,,,,,,,sub-221,1.0,random_dot,60.15301726201172,
left,left,speed,,,,,0.0,1.0,1.0,1.0,15.0,1.0,31.0,0.0,450.021973600029,,,,,,,,,450.00786880007945,450.3718270000536,451.17255820008,451.1563849999802,451.1564518000232,451.17255820008,451.17255820008,451.17255820008,,452.15650889999233,left,1.0,24.865173500031236,,,,,,,,,,,,,,,,,,,,,,,,,,,,,,sub-221,1.0,random_dot,60.15301726201172,
left,left,speed,,,,,0.0,1.0,1.0,1.0,16.0,0.0,32.0,0.0,452.1701909999829,,,,,,,,,452.1586663000053,452.5202079999726,453.32024460006505,453.3037189000752,453.3037595000351,453.32024460006505,453.32024460006505,453.32024460006505,,454.15621440007817,left,1.0,24.70365480007604,,,,,,,,,,,,,,,,,,,,,,,,,,,,,,sub-221,1.0,random_dot,60.15301726201172,
right,right,speed,,,,,0.0,1.0,1.0,1.0,16.0,1.0,33.0,1.0,454.1684929999756,,,,,,,,,454.1595795999747,454.5180546999909,455.31816260004416,455.301890600007,455.30193529999815,455.31816260004416,455.31816260004416,455.31816260004416,,455.9023450000677,right,1.0,24.46632300002966,,,,,,,,,,,,,,,,,,,,,,,,,,,,,,sub-221,1.0,random_dot,60.15301726201172,
right,right,speed,,,,,0.0,1.0,1.0,1.0,17.0,0.0,34.0,1.0,455.9168840000639,,,,,,,,,455.9035449000076,457.11603630008176,457.9157823000569,457.8996650000336,457.8997042999836,457.9157823000569,457.9157823000569,457.9157823000569,,458.7995123000583,right,1.0,24.76748849998694,,,,,,,,,,,,,,,,,,,,,,,,,,,,,,sub-221,1.0,random_dot,60.15301726201172,
left,left,speed,,,,,0.0,1.0,1.0,1.0,17.0,1.0,35.0,0.0,458.8138898999896,,,,,,,,,458.8005312000169,459.61352770007215,460.4136887000641,460.3980571000138,460.39812839997467,460.4136887000641,460.4136887000641,460.4136887000641,,461.0991501000244,left,1.0,24.568317899946123,,,,,,,,,,,,,,,,,,,,,,,,,,,,,,sub-221,1.0,random_dot,60.15301726201172,
right,right,speed,,,,,0.0,1.0,1.0,1.0,18.0,0.0,36.0,1.0,461.1120137000689,,,,,,,,,461.1014929000521,462.31092550000176,463.1113046000246,463.0954466999974,463.0955159000587,463.1113046000246,463.1113046000246,463.1113046000246,,463.77882300002966,right,1.0,24.548229199950583,,,,,,,,,,,,,,,,,,,,,,,,,,,,,,sub-221,1.0,random_dot,60.15301726201172,
left,left,speed,,,,,0.0,1.0,1.0,1.0,18.0,1.0,37.0,0.0,463.7925420000684,,,,,,,,,463.7807664000429,464.592573300004,465.4087959000608,465.3926348000532,465.3926798000466,465.4087959000608,465.4087959000608,465.4087959000608,,466.3095682000276,right,0.0,24.780712299980223,,,,,,,,,,,,,,,,,,,,,,,,,,,,,,sub-221,1.0,random_dot,60.15301726201172,
right,right,speed,,,,,0.0,1.0,1.0,1.0,19.0,0.0,38.0,1.0,466.3239614000777,,,,,,,,,466.3113559000194,467.1229025999783,467.92331209999975,467.9076195000671,467.9076890000142,467.92331209999975,467.92331209999975,467.92331209999975,,468.6740658000344,right,1.0,24.62599199998658,,,,,,,,,,,,,,,,,,,,,,,,,,,,,,sub-221,1.0,random_dot,60.15301726201172,
left,left,speed,,,,,0.0,1.0,1.0,1.0,19.0,1.0,39.0,0.0,468.6881805000594,,,,,,,,,468.6758635999868,469.88696829997934,470.6873233000515,470.6720030000433,470.6720731999958,470.6873233000515,470.6873233000515,470.6873233000515,,471.58868400007486,left,1.0,24.783699299907312,,,,,,,,,,,,,,,,,,,,,,,,,,,,,,sub-221,1.0,random_dot,60.15301726201172,
right,right,speed,,,,,0.0,1.0,1.0,1.0,20.0,0.0,40.0,1.0,471.60235200007446,,,,,,,,,471.5909934999654,471.7024864000268,472.51907759998,472.5029070000164,472.5029601000715,472.51907759998,472.51907759998,472.51907759998,,473.2530568999937,right,1.0,24.617741200025197,,,,,,,,,,,,,,,,,,,,,,,,,,,,,,sub-221,1.0,random_dot,60.15301726201172,
left,left,speed,,,,,0.0,1.0,1.0,1.0,20.0,1.0,41.0,0.0,473.2672012000112,,,,,,,,,473.2542574000545,474.0665427000495,474.8666577000404,474.8499105999945,474.8499528999673,474.8666577000404,474.8666577000404,474.8666577000404,,475.4187356000766,left,1.0,24.43527659995016,,,,,,,,,,,,,,,,,,,,,,,,,,,,,,sub-221,1.0,random_dot,60.15301726201172,
left,left,speed,,,,,0.0,1.0,1.0,1.0,21.0,0.0,42.0,0.0,475.4320229999721,,,,,,,,,475.4208229000215,476.2316103000194,477.0314486999996,477.01603499997873,477.0161247000797,477.0314486999996,477.0314486999996,477.0314486999996,,477.7488617000636,left,1.0,24.600302399951037,,,,,,,,,,,,,,,,,,,,,,,,,,,,,,sub-221,1.0,random_dot,60.15301726201172,
right,right,speed,,,,,0.0,1.0,1.0,1.0,21.0,1.0,43.0,1.0,477.76290440000594,,,,,,,,,477.7504241999704,477.86298440000974,478.66300210007466,478.6462374000112,478.6462668000022,478.66300210007466,478.66300210007466,478.66300210007466,,479.38136270002,right,1.0,24.592197399935685,,,,,,,,,,,,,,,,,,,,,,,,,,,,,,sub-221,1.0,random_dot,60.15301726201172,
right,right,speed,,,,,0.0,1.0,1.0,1.0,22.0,0.0,44.0,1.0,479.3949832000071,,,,,,,,,479.3837290999945,479.7447974999668,480.5613140000496,480.5445773999672,480.5446086999728,480.5613140000496,480.5613140000496,480.5613140000496,,481.2947403000435,right,1.0,24.604708199971355,,,,,,,,,,,,,,,,,,,,,,,,,,,,,,sub-221,1.0,random_dot,60.15301726201172,
left,left,speed,,,,,0.0,1.0,1.0,1.0,22.0,1.0,45.0,0.0,481.3096953000641,,,,,,,,,481.2955425999826,481.4097312000813,482.2098133000545,482.1937592000468,482.19381289999,482.2098133000545,482.2098133000545,482.2098133000545,,483.3436706999783,left,1.0,25.018054599990137,,,,,,,,,,,,,,,,,,,,,,,,,,,,,,sub-221,1.0,random_dot,60.15301726201172,
right,right,speed,,,,,0.0,1.0,1.0,1.0,23.0,0.0,46.0,1.0,483.3578517000424,,,,,,,,,483.3445947000291,484.15705579996575,484.9573266999796,484.9403051000554,484.9403294000076,484.9573266999796,484.9573266999796,484.9573266999796,,485.592304400052,right,1.0,24.51496279996354,,,,,,,,,,,,,,,,,,,,,,,,,,,,,,sub-221,1.0,random_dot,60.15301726201172,
left,left,speed,,,,,0.0,1.0,1.0,1.0,23.0,1.0,47.0,0.0,485.6056872999761,,,,,,,,,485.5948613000801,486.8044362000656,487.6048854000401,487.5882296999917,487.5882688000565,487.6048854000401,487.6048854000401,487.6048854000401,,488.4383092999924,left,1.0,24.708730099955574,,,,,,,,,,,,,,,,,,,,,,,,,,,,,,sub-221,1.0,random_dot,60.15301726201172,
left,left,speed,,,,,0.0,1.0,1.0,1.0,24.0,0.0,48.0,0.0,488.4530796000036,,,,,,,,,488.439284699969,489.65184770000633,490.45249870000407,490.4365684000077,490.4366567999823,490.45249870000407,490.45249870000407,490.45249870000407,,491.2198950999882,left,1.0,24.63531519996468,,,,,,,,,,,,,,,,,,,,,,,,,,,,,,sub-221,1.0,random_dot,60.15301726201172,
right,right,speed,,,,,0.0,1.0,1.0,1.0,24.0,1.0,49.0,1.0,491.2338851999957,,,,,,,,,491.2222757000709,492.43317810003646,493.2496941999998,493.2331061000005,493.2331537000136,493.2496941999998,493.2496941999998,493.2496941999998,,493.85043300001416,right,1.0,24.48455329996068,,,,,,,,,,,,,,,,,,,,,,,,,,,,,,sub-221,1.0,random_dot,60.15301726201172,
left,left,speed,,,,,0.0,1.0,1.0,1.0,25.0,0.0,50.0,0.0,493.8647026000544,,,,,,,,,493.8516609000508,494.6637755000265,495.4642027000664,495.4477929000277,495.4478472999763,495.4642027000664,495.4642027000664,495.4642027000664,,496.2651445000665,left,1.0,24.675423400010917,,,,,,,,,,,,,,,,,,,,,,,,,,,,,,sub-221,1.0,random_dot,60.15301726201172,
right,right,speed,,,,,0.0,1.0,1.0,1.0,25.0,1.0,51.0,1.0,496.2788692000322,,,,,,,,,496.26709420001134,497.4780683000572,498.27801060001366,498.2623914000578,498.26246610004455,498.27801060001366,498.27801060001366,498.27801060001366,,499.5944218999939,left,0.0,25.189556899946183,,,,,,,,,,,,,,,,,,,,,,,,,,,,,,sub-221,1.0,random_dot,60.15301726201172,
left,left,speed,,,,,0.0,1.0,1.0,1.0,26.0,0.0,52.0,0.0,499.6088804000756,,,,,,,,,499.59580470004585,500.80776490003336,501.6081248000264,501.5930524000432,501.5931201999774,501.6081248000264,501.6081248000264,501.6081248000264,,502.2758608000586,left,1.0,24.54476109996904,,,,,,,,,,,,,,,,,,,,,,,,,,,,,,sub-221,1.0,random_dot,60.15301726201172,
right,right,speed,,,,,0.0,1.0,1.0,1.0,26.0,1.0,53.0,1.0,502.2898964000633,,,,,,,,,502.2776922000339,502.3900490000378,503.1901213000529,503.1750273000216,503.1751162000001,503.1901213000529,503.1901213000529,503.1901213000529,,504.18996530002914,right,1.0,24.868620199966244,,,,,,,,,,,,,,,,,,,,,,,,,,,,,,sub-221,1.0,random_dot,60.15301726201172,
right,right,speed,,,,,0.0,1.0,1.0,1.0,27.0,0.0,54.0,1.0,504.20474499999546,,,,,,,,,504.19104810000863,505.0040797999827,505.80433499999344,505.7884977000067,505.7885583000025,505.80433499999344,505.80433499999344,505.80433499999344,,506.5214367000153,right,1.0,24.592540899990126,,,,,,,,,,,,,,,,,,,,,,,,,,,,,,sub-221,1.0,random_dot,60.15301726201172,
left,left,speed,,,,,0.0,1.0,1.0,1.0,27.0,1.0,55.0,0.0,506.536134300055,,,,,,,,,506.5225018999772,506.8859486000147,507.7024546000175,507.6860256000655,507.6860721000703,507.7024546000175,507.7024546000175,507.7024546000175,,509.4352105000289,left,1.0,25.612095599994063,,,,,,,,,,,,,,,,,,,,,,,,,,,,,,sub-221,1.0,random_dot,60.15301726201172,
left,left,speed,,,,,0.0,1.0,1.0,1.0,28.0,0.0,56.0,0.0,509.4496590000344,,,,,,,,,509.4360701000551,510.2495882000076,511.049374800059,511.033593500033,511.03364769998007,511.049374800059,511.049374800059,511.049374800059,,512.4680934000062,left,1.0,25.287615299923345,,,,,,,,,,,,,,,,,,,,,,,,,,,,,,sub-221,1.0,random_dot,60.15301726201172,
right,right,speed,,,,,0.0,1.0,1.0,1.0,28.0,1.0,57.0,1.0,512.4806352000451,,,,,,,,,512.4712536999723,512.8306510000257,513.6467939000577,513.6313090000767,513.6314118000446,513.6467939000577,513.6467939000577,513.6467939000577,,514.5640442000004,right,1.0,24.799904400017112,,,,,,,,,,,,,,,,,,,,,,,,,,,,,,sub-221,1.0,random_dot,60.15301726201172,
right,right,speed,,,,,0.0,1.0,1.0,1.0,29.0,0.0,58.0,1.0,514.5784143999917,,,,,,,,,514.5655196000589,515.7777311999816,516.5776629999746,516.5621054000221,516.5621667000232,516.5776629999746,516.5776629999746,516.5776629999746,,517.3291721000569,right,1.0,24.62452769989613,,,,,,,,,,,,,,,,,,,,,,,,,,,,,,sub-221,1.0,random_dot,60.15301726201172,
left,left,speed,,,,,0.0,1.0,1.0,1.0,29.0,1.0,59.0,0.0,517.3429079999914,,,,,,,,,517.3317518000258,518.1422179000219,518.9585488999728,518.9419376000296,518.9419700000435,518.9585488999728,518.9585488999728,518.9585488999728,,519.7604233999737,left,1.0,24.66953850002028,,,,,,,,,,,,,,,,,,,,,,,,,,,,,,sub-221,1.0,random_dot,60.15301726201172,
,,speed,,,,,0.0,1.0,1.0,1.0,,,,,,,,,,,,,,,,,,,,,,,,,,,,,,,,,,,,,,,,,,,,,,,,,,,,,,,,sub-221,1.0,random_dot,60.15301726201172,
,,,,,,,,,,,,,,,,,,,,,,,,,,,,,,,,,,,,,,,,,,,,,,,,,,,,,,,,,,,,,,,519.7626275999937,519.7733142999932,524.769299000036,sub-221,,,,
