direction,corrAns,randomInstr,practice_trials.thisRepN,practice_trials.thisTrialN,practice_trials.thisN,practice_trials.thisIndex,instr_trials.thisRepN,instr_trials.thisTrialN,instr_trials.thisN,instr_trials.thisIndex,test_trials.thisRepN,test_trials.thisTrialN,test_trials.thisN,test_trials.thisIndex,thisRow.t,notes,general_instruction.started,textGeneralInstr.started,respGeneralInstr.started,general_instruction.stopped,respGeneralInstr.keys,respGeneralInstr.rt,respGeneralInstr.duration,ITI.started,fixcross.started,fixcross.stopped,ITI.stopped,dots.started,backgroundDots.started,stimulusDots.started,respDots.started,dots.stopped,respDots.keys,respDots.corr,respDots.rt,respDots.duration,feedback.started,textFeedback.started,feedback.stopped,stimulusDots.stopped,info.started,textInfo.started,keyRespInfo.started,info.stopped,keyRespInfo.keys,keyRespInfo.rt,keyRespInfo.duration,test_instruction.started,textTestInstr.started,respTestInstr.started,test_instruction.stopped,respTestInstr.keys,respTestInstr.rt,respTestInstr.duration,random_instruction.started,textRandomInstr.started,respRandomInstr.started,random_instruction.stopped,respRandomInstr.keys,respRandomInstr.rt,respRandomInstr.duration,goodbye.started,textGoodbye.started,textGoodbye.stopped,goodbye.stopped,participant,session,expName,frameRate,Unnamed: 73
,,,,,,,,,,,,,,,,,0.0117438000015681,0.0297209999989718,0.0297209999989718,40.014460999998846,space,67.94105470001523,,,,,,,,,,,,,,,,,,,,,,,,,,,,,,,,,,,,,,,,,,,,sub-002,1.0,random_dot,57.74862370765183,
right,right,,0.0,0.0,0.0,1.0,,,,,,,,,40.05365709999751,,,,,,,,,40.040938999998616,40.118098199993256,40.965172500000335,40.92900489999738,40.92905829999654,40.965172500000335,40.965172500000335,40.965172500000335,42.91444809999666,right,1.0,29.899468000003253,,42.91649719999987,42.95673710000119,43.44432609999785,,,,,,,,,,,,,,,,,,,,,,,,,,,sub-002,1.0,random_dot,57.74862370765183,
left,left,,0.0,1.0,1.0,0.0,,,,,,,,,43.46420370000124,,,,,,,,,43.44523939999635,44.62965069999336,45.44542899999942,45.41818619999685,45.41824280000583,45.44542899999942,45.44542899999942,45.44542899999942,46.34486539999489,right,0.0,28.844463100016583,,46.346205299996655,46.375754299995606,46.85075300000608,,,,,,,,,,,,,,,,,,,,,,,,,,,sub-002,1.0,random_dot,57.74862370765183,
right,right,,1.0,0.0,2.0,1.0,,,,,,,,,46.864836099994136,,,,,,,,,46.85175790000358,48.0627797000052,48.88736890000291,48.85775490000378,48.857807599997614,48.88736890000291,48.88736890000291,48.88736890000291,56.41406149999239,right,1.0,35.45918130000064,,56.41539409999677,56.44391139999789,56.93166420000489,53.88053969999601,,,,,,,,,,,,,,,,,,,,,,,,,,sub-002,1.0,random_dot,57.74862370765183,
left,left,,1.0,1.0,3.0,0.0,,,,,,,,,56.96323829999892,,,,,,,,,56.93333159999747,57.01399550000497,57.828489399995306,57.79849040000408,57.79854760000308,57.828489399995306,57.828489399995306,57.828489399995306,63.76202100000228,left,1.0,33.889955200007535,,63.76349749999645,63.78149989999656,64.2785939000023,62.82432410000183,,,,,,,,,,,,,,,,,,,,,,,,,,sub-002,1.0,random_dot,57.74862370765183,
right,right,,2.0,0.0,4.0,1.0,,,,,,,,,64.29236110000056,,,,,,,,,64.27956009999616,65.47915970000031,66.31246820000524,66.27816390000226,66.27821479999693,66.31246820000524,66.31246820000524,66.31246820000524,69.49923279999348,right,1.0,31.135173600006965,,69.50056279999262,69.52369449999242,70.00517709999986,,,,,,,,,,,,,,,,,,,,,,,,,,,sub-002,1.0,random_dot,57.74862370765183,
left,left,,2.0,1.0,5.0,0.0,,,,,,,,,70.02569789999689,,,,,,,,,70.00626300000295,70.11133709999558,70.93328969999857,70.90942759999598,70.90947769999912,70.93328969999857,70.93328969999857,70.93328969999857,73.1152746000007,left,1.0,30.12435420001566,,73.11662939999951,73.13540070000454,73.61763949999295,,,,,,,,,,,,,,,,,,,,,,,,,,,sub-002,1.0,random_dot,57.74862370765183,
left,left,,3.0,0.0,6.0,0.0,,,,,,,,,73.63547599999583,,,,,,,,,73.61853510000219,74.8438593000028,75.67517050000606,75.64419730000373,75.64425169999595,75.67517050000606,75.67517050000606,75.67517050000606,76.92773719999241,right,0.0,29.21141649999481,,76.92897470000025,76.95133130000613,77.45433769999363,,,,,,,,,,,,,,,,,,,,,,,,,,,sub-002,1.0,random_dot,57.74862370765183,
right,right,,3.0,1.0,7.0,1.0,,,,,,,,,77.47271529999853,,,,,,,,,77.45522410000558,78.24002670000482,79.07293399999617,79.04437119999784,79.0444237000047,79.07293399999617,79.07293399999617,79.07293399999617,82.87698260000616,right,1.0,31.75940850000188,,82.87830369999574,82.90761029999703,83.38387150000199,,,,,,,,,,,,,,,,,,,,,,,,,,,sub-002,1.0,random_dot,57.74862370765183,
right,right,,4.0,0.0,8.0,1.0,,,,,,,,,83.40319480000471,,,,,,,,,83.38474799999676,83.74110250000376,84.55420519999461,84.52594890000182,84.5259989000042,84.55420519999461,84.55420519999461,84.55420519999461,85.97236980000162,right,1.0,29.369068800006065,,85.97380659999908,85.99102990000392,86.49086770000577,,,,,,,,,,,,,,,,,,,,,,,,,,,sub-002,1.0,random_dot,57.74862370765183,
left,left,,4.0,1.0,9.0,0.0,,,,,,,,,86.50457790000655,,,,,,,,,86.49177199999394,86.8414419000037,87.66251399999601,87.63679200000479,87.63684320000175,87.66251399999601,87.66251399999601,87.66251399999601,88.65335900000355,left,1.0,28.94014080001216,,88.65465769999719,88.67397040000651,89.15669709999929,,,,,,,,,,,,,,,,,,,,,,,,,,,sub-002,1.0,random_dot,57.74862370765183,
right,right,,5.0,0.0,10.0,1.0,,,,,,,,,89.18513939999684,,,,,,,,,89.15769389999332,89.5057017999934,90.31284040000172,90.28959139999644,90.28965180000525,90.31284040000172,90.31284040000172,90.31284040000172,91.97292499999458,left,0.0,29.609073700019508,,91.97437999999966,91.99670129999868,92.5008053000056,,,,,,,,,,,,,,,,,,,,,,,,,,,sub-002,1.0,random_dot,57.74862370765183,
left,left,,5.0,1.0,11.0,0.0,,,,,,,,,92.52025590000268,,,,,,,,,92.50165989999368,93.6901857000048,94.5022994000028,94.47538940000231,94.47545509999328,94.5022994000028,94.5022994000028,94.5022994000028,96.53406890000042,right,0.0,29.979272900003707,,96.53534849999414,96.55737340000633,97.0393333999964,,,,,,,,,,,,,,,,,,,,,,,,,,,sub-002,1.0,random_dot,57.74862370765183,
left,left,,6.0,0.0,12.0,0.0,,,,,,,,,97.05365950000125,,,,,,,,,97.0402322000009,97.39853599999331,98.22926589999406,98.20110890000068,98.20115569999324,98.22926589999406,98.22926589999406,98.22926589999406,101.87897760000487,left,1.0,31.57490429999598,,101.8806224,101.90697850000288,102.38863299999502,,,,,,,,,,,,,,,,,,,,,,,,,,,sub-002,1.0,random_dot,57.74862370765183,
right,right,,6.0,1.0,13.0,1.0,,,,,,,,,102.41621250000026,,,,,,,,,102.3897433999955,102.738946700003,103.5759032999922,103.5517397999938,103.551793000006,103.5759032999922,103.5759032999922,103.5759032999922,108.40937439999834,right,1.0,32.79208370001288,,108.4105947999924,108.4331103000004,108.91617359999508,,,,,,,,,,,,,,,,,,,,,,,,,,,sub-002,1.0,random_dot,57.74862370765183,
left,left,,7.0,0.0,14.0,0.0,,,,,,,,,108.93510570000215,,,,,,,,,108.9171720000013,109.27485329999764,110.10249039999326,110.07578460000514,110.07583539999904,110.10249039999326,110.10249039999326,110.10249039999326,113.25330080000276,left,1.0,31.09432950000337,,113.2549457999994,113.27356830000645,113.76775400000042,,,,,,,,,,,,,,,,,,,,,,,,,,,sub-002,1.0,random_dot,57.74862370765183,
right,right,,7.0,1.0,15.0,1.0,,,,,,,,,113.79003010000451,,,,,,,,,113.76876409999386,114.96636010000655,115.78895210000336,115.768149800002,115.7682008999982,115.78895210000336,115.78895210000336,115.78895210000336,121.61630819999846,right,1.0,33.762084500005585,,121.61769290000666,121.63555999999517,122.1388173000014,120.77711919999274,,,,,,,,,,,,,,,,,,,,,,,,,,sub-002,1.0,random_dot,57.74862370765183,
right,right,,8.0,0.0,16.0,1.0,,,,,,,,,122.1618451999966,,,,,,,,,122.13967390000472,122.48451490000298,123.31376839999577,123.28882309999608,123.28886869999404,123.31376839999577,123.31376839999577,123.31376839999577,128.2150743999955,right,1.0,32.84113359999901,,128.21638769999845,128.2347163999948,128.73039090000384,,,,,,,,,,,,,,,,,,,,,,,,,,,sub-002,1.0,random_dot,57.74862370765183,
left,left,,8.0,1.0,17.0,0.0,,,,,,,,,128.75026190000062,,,,,,,,,128.73135430000548,129.9303715999995,130.73691079999844,130.71559680000064,130.71567089999735,130.73691079999844,130.73691079999844,130.73691079999844,133.8714103999955,left,1.0,31.064312700007576,,133.8726808999927,133.89358950000317,134.37442259999807,,,,,,,,,,,,,,,,,,,,,,,,,,,sub-002,1.0,random_dot,57.74862370765183,
left,left,,9.0,0.0,18.0,0.0,,,,,,,,,134.398285999996,,,,,,,,,134.37541750000673,134.48308639999595,135.31404359999578,135.28757240000414,135.28762380000262,135.31404359999578,135.31404359999578,135.31404359999578,138.7656782999984,left,1.0,31.399436399995466,,138.76692049999838,138.78282829999807,139.28148960000544,,,,,,,,,,,,,,,,,,,,,,,,,,,sub-002,1.0,random_dot,57.74862370765183,
right,right,,9.0,1.0,19.0,1.0,,,,,,,,,139.29833829999552,,,,,,,,,139.28248470000108,140.48028010000417,141.31559260000358,141.28639949999342,141.2864469000051,141.31559260000358,141.31559260000358,141.31559260000358,143.3720847999939,right,1.0,30.006414700008463,,143.3730317000009,143.3870428999944,143.87345889999415,,,,,,,,,,,,,,,,,,,,,,,,,,,sub-002,1.0,random_dot,57.74862370765183,
,,,,,,,,,,,,,,,,,,,,,,,,,,,,,,,,,,,,,,,,,143.87362529999518,143.89130699999805,143.89130699999805,149.8737078999984,space,33.92646230000537,,,,,,,,,,,,,,,,,,,,sub-002,1.0,random_dot,57.74862370765183,
,,,,,,,,,,,,,,,,,,,,,,,,,,,,,,,,,,,,,,,,,,,,,,,,149.87378920000629,149.90008190000663,149.90008190000663,159.27123919999576,space,37.313291900005424,,,,,,,,,,,,,sub-002,1.0,random_dot,57.74862370765183,
right,right,speed,,,,,0.0,0.0,0.0,1.0,0.0,0.0,0.0,1.0,161.16124610000406,,,,,,,,,161.14336990000447,162.34369290000177,163.1741153000039,163.1450113000028,163.14506110000366,163.1741153000039,163.1741153000039,163.1741153000039,165.73220759999822,right,1.0,30.503766499998164,,,,,,,,,,,,,,,,,,,,159.28067710000323,159.3322049999988,159.3322049999988,161.1276097999944,space,29.73990319999575,,,,,,sub-002,1.0,random_dot,57.74862370765183,
left,left,speed,,,,,0.0,0.0,0.0,1.0,0.0,1.0,1.0,0.0,165.75669540000672,,,,,,,,,165.73537559999386,165.844101900002,166.6745962999994,166.6486040000018,166.64865249999275,166.6745962999994,166.6745962999994,166.6745962999994,169.76083460000518,left,1.0,31.03501459999825,,,,,,,,,,,,,,,,,,,,,,,,,,,,,,,sub-002,1.0,random_dot,57.74862370765183,
left,left,speed,,,,,0.0,0.0,0.0,1.0,1.0,0.0,2.0,0.0,169.77690840000287,,,,,,,,,169.76348160000634,170.12583570000425,170.9366244999983,170.91015999999945,170.91022419999354,170.9366244999983,170.9366244999983,170.9366244999983,175.70050989999436,right,0.0,32.70224539999617,,,,,,,,,,,,,,,,,,,,,,,,,,,,,,,sub-002,1.0,random_dot,57.74862370765183,
right,right,speed,,,,,0.0,0.0,0.0,1.0,1.0,1.0,3.0,1.0,175.72436720000405,,,,,,,,,175.70348090000334,176.0681401000038,176.89478370000143,176.86877679999452,176.8688422999985,176.89478370000143,176.89478370000143,176.89478370000143,179.44653980000294,left,0.0,30.50042530000792,,,,,,,,,,,,,,,,,,,,,,,,,,,,,,,sub-002,1.0,random_dot,57.74862370765183,
right,right,speed,,,,,0.0,0.0,0.0,1.0,2.0,0.0,4.0,1.0,179.46939759999805,,,,,,,,,179.44921109999996,179.57426049999776,180.4029382000008,180.373800100002,180.37385180000277,180.4029382000008,180.4029382000008,180.4029382000008,185.33439910000016,right,1.0,32.865441500005545,,,,,,,,,,,,,,,,,,,,,,,,,,,,,,,sub-002,1.0,random_dot,57.74862370765183,
left,left,speed,,,,,0.0,0.0,0.0,1.0,2.0,1.0,5.0,0.0,185.35688360000492,,,,,,,,,185.33698750000624,185.43789869999452,186.24976150000293,186.2230955999985,186.223150299993,186.24976150000293,186.24976150000293,186.24976150000293,188.1777473999973,left,1.0,29.876218000004883,,,,,,,,,,,,,,,,,,,,,,,,,,,,,,,sub-002,1.0,random_dot,57.74862370765183,
left,left,speed,,,,,0.0,0.0,0.0,1.0,3.0,0.0,6.0,0.0,188.1998406000057,,,,,,,,,188.18067970000263,188.98787519999317,189.81852010000148,189.79087219999928,189.790923099994,189.81852010000148,189.81852010000148,189.81852010000148,191.14387970000095,right,0.0,29.27503350000188,,,,,,,,,,,,,,,,,,,,,,,,,,,,,,,sub-002,1.0,random_dot,57.74862370765183,
right,right,speed,,,,,0.0,0.0,0.0,1.0,3.0,1.0,7.0,1.0,191.16488620000015,,,,,,,,,191.1465005000064,192.35313800000583,193.1823721999972,193.1582765000057,193.15832370000132,193.1823721999972,193.1823721999972,193.1823721999972,196.8384156999964,right,1.0,31.60340590000851,,,,,,,,,,,,,,,,,,,,,,,,,,,,,,,sub-002,1.0,random_dot,57.74862370765183,
left,left,speed,,,,,0.0,0.0,0.0,1.0,4.0,0.0,8.0,0.0,196.85278050000488,,,,,,,,,196.84107779999613,198.0538188000064,198.88036239999929,198.8589789999969,198.85903150000377,198.88036239999929,198.88036239999929,198.88036239999929,204.56959189999907,right,0.0,33.63703389999864,,,,,203.87549029999357,,,,,,,,,,,,,,,,,,,,,,,,,,sub-002,1.0,random_dot,57.74862370765183,
right,right,speed,,,,,0.0,0.0,0.0,1.0,4.0,1.0,9.0,1.0,204.58157389999545,,,,,,,,,204.57185569999277,205.77974260000337,206.58571250000384,206.56716580000648,206.5672087999992,206.58571250000384,206.58571250000384,206.58571250000384,207.9240645999962,right,1.0,29.29128900000069,,,,,,,,,,,,,,,,,,,,,,,,,,,,,,,sub-002,1.0,random_dot,57.74862370765183,
right,right,speed,,,,,0.0,0.0,0.0,1.0,5.0,0.0,10.0,1.0,207.94520440000636,,,,,,,,,207.92660340000293,209.1364254999935,209.94666050000524,209.9269574000064,209.92699779999384,209.94666050000524,209.94666050000524,209.94666050000524,210.55830940000305,right,1.0,28.56644500001857,,,,,,,,,,,,,,,,,,,,,,,,,,,,,,,sub-002,1.0,random_dot,57.74862370765183,
left,left,speed,,,,,0.0,0.0,0.0,1.0,5.0,1.0,11.0,0.0,210.5815208999993,,,,,,,,,210.561214100002,210.6727178000001,211.491051399993,211.4663624999957,211.4664361000032,211.491051399993,211.491051399993,211.491051399993,212.621518999993,left,1.0,29.074010500014992,,,,,,,,,,,,,,,,,,,,,,,,,,,,,,,sub-002,1.0,random_dot,57.74862370765183,
left,left,speed,,,,,0.0,0.0,0.0,1.0,6.0,0.0,12.0,0.0,212.64307589999223,,,,,,,,,212.6241510999971,213.83455749999848,214.67168709999527,214.6460286999936,214.64608829999636,214.67168709999527,214.67168709999527,214.67168709999527,215.66934370000672,left,1.0,28.931740300002275,,,,,,,,,,,,,,,,,,,,,,,,,,,,,,,sub-002,1.0,random_dot,57.74862370765183,
right,right,speed,,,,,0.0,0.0,0.0,1.0,6.0,1.0,13.0,1.0,215.68505289999305,,,,,,,,,215.6721663999924,216.04966580000476,216.87087719999545,216.8467012000037,216.846747100004,216.87087719999545,216.87087719999545,216.87087719999545,218.0058441000001,right,1.0,29.07253460001084,,,,,,,,,,,,,,,,,,,,,,,,,,,,,,,sub-002,1.0,random_dot,57.74862370765183,
left,left,speed,,,,,0.0,0.0,0.0,1.0,7.0,0.0,14.0,0.0,218.026492399993,,,,,,,,,218.00875160000575,218.3673293000029,219.17912210000213,219.15106089999608,219.15111419999448,219.17912210000213,219.17912210000213,219.17912210000213,219.90550530000476,left,1.0,28.668409900012197,,,,,,,,,,,,,,,,,,,,,,,,,,,,,,,sub-002,1.0,random_dot,57.74862370765183,
right,right,speed,,,,,0.0,0.0,0.0,1.0,7.0,1.0,15.0,1.0,219.92658590000065,,,,,,,,,219.90804029999708,221.1167201999924,221.93957829999272,221.91516010000487,221.91521730000383,221.93957829999272,221.93957829999272,221.93957829999272,222.9050174000004,right,1.0,28.90710460000264,,,,,,,,,,,,,,,,,,,,,,,,,,,,,,,sub-002,1.0,random_dot,57.74862370765183,
right,right,speed,,,,,0.0,0.0,0.0,1.0,8.0,0.0,16.0,1.0,222.92657670000332,,,,,,,,,222.907826900002,223.26527639999404,224.08198610000545,224.0606276000035,224.060673400003,224.08198610000545,224.08198610000545,224.08198610000545,225.63194209999347,left,0.0,29.48871629999485,,,,,,,,,,,,,,,,,,,,,,,,,,,,,,,sub-002,1.0,random_dot,57.74862370765183,
left,left,speed,,,,,0.0,0.0,0.0,1.0,8.0,1.0,17.0,0.0,225.650329600001,,,,,,,,,225.63503910000145,225.749662000002,226.56770159999724,226.54342170000015,226.54347030000645,226.56770159999724,226.56770159999724,226.56770159999724,227.5310918000032,left,1.0,28.907873400006796,,,,,,,,,,,,,,,,,,,,,,,,,,,,,,,sub-002,1.0,random_dot,57.74862370765183,
right,right,speed,,,,,0.0,0.0,0.0,1.0,9.0,0.0,18.0,1.0,227.55027079999851,,,,,,,,,227.5342944000004,228.3483557,229.1680450999993,229.14319040000555,229.14324219999253,229.1680450999993,229.1680450999993,229.1680450999993,230.0443199000001,right,1.0,28.829048000014154,,,,,,,,,,,,,,,,,,,,,,,,,,,,,,,sub-002,1.0,random_dot,57.74862370765183,
left,left,speed,,,,,0.0,0.0,0.0,1.0,9.0,1.0,19.0,0.0,230.0641506999964,,,,,,,,,230.04684039999847,230.846005600004,231.6666295000032,231.64291460000092,231.6429613999935,231.6666295000032,231.6666295000032,231.6666295000032,233.6839531000005,left,1.0,29.959030800004257,,,,,,,,,,,,,,,,,,,,,,,,,,,,,,,sub-002,1.0,random_dot,57.74862370765183,
right,right,speed,,,,,0.0,0.0,0.0,1.0,10.0,0.0,20.0,1.0,233.69752020000303,,,,,,,,,233.68640209999285,234.0451802000025,234.8671638999949,234.8445126000006,234.84455900000464,234.8671638999949,234.8671638999949,234.8671638999949,237.4336156000063,right,1.0,30.521398800003222,,,,,,,,,,,,,,,,,,,,,,,,,,,,,,,sub-002,1.0,random_dot,57.74862370765183,
left,left,speed,,,,,0.0,0.0,0.0,1.0,10.0,1.0,21.0,0.0,237.44769640000595,,,,,,,,,237.4361251999944,237.54186919999484,238.345753600006,238.3276369999949,238.3276829999959,238.345753600006,238.345753600006,238.345753600006,240.38498889999755,left,1.0,29.99551990001055,,,,,,,,,,,,,,,,,,,,,,,,,,,,,,,sub-002,1.0,random_dot,57.74862370765183,
left,left,speed,,,,,0.0,0.0,0.0,1.0,11.0,0.0,22.0,0.0,240.4072312000062,,,,,,,,,240.38761740000336,240.4938470000052,241.3008692000003,241.27878110000165,241.2788603999943,241.3008692000003,241.3008692000003,241.3008692000003,243.4874559000018,left,1.0,30.135274500004016,,,,,,,,,,,,,,,,,,,,,,,,,,,,,,,sub-002,1.0,random_dot,57.74862370765183,
right,right,speed,,,,,0.0,0.0,0.0,1.0,11.0,1.0,23.0,1.0,243.5089014999976,,,,,,,,,243.489937499995,244.70969770000372,245.53283270000247,245.5067909000063,245.50684250000631,245.53283270000247,245.53283270000247,245.53283270000247,246.53968790000363,right,1.0,28.96330200000375,,,,,,,,,,,,,,,,,,,,,,,,,,,,,,,sub-002,1.0,random_dot,57.74862370765183,
right,right,speed,,,,,0.0,0.0,0.0,1.0,12.0,0.0,24.0,1.0,246.55926100000212,,,,,,,,,246.5422627999942,247.3457917000051,248.17535970000608,248.1504464000027,248.1504935999983,248.17535970000608,248.17535970000608,248.17535970000608,250.11048380000284,right,1.0,29.889434200013056,,,,,,,,,,,,,,,,,,,,,,,,,,,,,,,sub-002,1.0,random_dot,57.74862370765183,
left,left,speed,,,,,0.0,0.0,0.0,1.0,12.0,1.0,25.0,0.0,250.13036409999768,,,,,,,,,250.11351330000616,250.4748041999992,251.29187390000152,251.26259100000607,251.2626409999939,251.29187390000152,251.29187390000152,251.29187390000152,253.77435429999605,left,1.0,30.43430649999937,,,,,,,,,,,,,,,,,,,,,,,,,,,,,,,sub-002,1.0,random_dot,57.74862370765183,
left,left,speed,,,,,0.0,0.0,0.0,1.0,13.0,0.0,26.0,0.0,253.79390689999852,,,,,,,,,253.7771122999984,254.57547510000583,255.38789600000015,255.36122649999743,255.3612771000044,255.38789600000015,255.38789600000015,255.38789600000015,256.35937409999315,left,1.0,28.918162300018597,,,,,,,,,,,,,,,,,,,,,,,,,,,,,,,sub-002,1.0,random_dot,57.74862370765183,
right,right,speed,,,,,0.0,0.0,0.0,1.0,13.0,1.0,27.0,1.0,256.3769347000052,,,,,,,,,256.36209830000007,257.5752916000056,258.4025064000016,258.37585569999646,258.37590519999503,258.4025064000016,258.4025064000016,258.4025064000016,259.1670562999934,right,1.0,28.711793700014823,,,,,,,,,,,,,,,,,,,,,,,,,,,,,,,sub-002,1.0,random_dot,57.74862370765183,
left,left,speed,,,,,0.0,0.0,0.0,1.0,14.0,0.0,28.0,0.0,259.18833689999883,,,,,,,,,259.1696768999973,260.3731555999984,261.19590629999584,261.17268639999384,261.1727422999975,261.19590629999584,261.19590629999584,261.19590629999584,262.1422559000057,left,1.0,28.901409400001285,,,,,,,,,,,,,,,,,,,,,,,,,,,,,,,sub-002,1.0,random_dot,57.74862370765183,
right,right,speed,,,,,0.0,0.0,0.0,1.0,14.0,1.0,29.0,1.0,262.159736600006,,,,,,,,,262.1449295000057,262.50921210000524,263.3213304999954,263.2940646000061,263.2941168999969,263.3213304999954,263.3213304999954,263.3213304999954,264.41062569999485,right,1.0,29.029506300008507,,,,,,,,,,,,,,,,,,,,,,,,,,,,,,,sub-002,1.0,random_dot,57.74862370765183,
right,right,speed,,,,,0.0,0.0,0.0,1.0,15.0,0.0,30.0,1.0,264.42425500000536,,,,,,,,,264.413137800002,265.2368344999996,266.051870299998,266.03351169999223,266.03356019999774,266.051870299998,266.051870299998,266.051870299998,268.7427816999989,right,1.0,30.644189800004824,,,,,,,,,,,,,,,,,,,,,,,,,,,,,,,sub-002,1.0,random_dot,57.74862370765183,
left,left,speed,,,,,0.0,0.0,0.0,1.0,15.0,1.0,31.0,0.0,268.7548416000064,,,,,,,,,268.7451153000002,269.0989380999963,269.9016011000058,269.8833188999997,269.8833561000065,269.9016011000058,269.9016011000058,269.9016011000058,271.12679929999285,left,1.0,29.172470300007262,,,,,,,,,,,,,,,,,,,,,,,,,,,,,,,sub-002,1.0,random_dot,57.74862370765183,
right,right,speed,,,,,0.0,0.0,0.0,1.0,16.0,0.0,32.0,1.0,271.1413634000055,,,,,,,,,271.12938870000653,271.93227599999227,272.7396671000024,272.7193990999949,272.71945059999416,272.7396671000024,272.7396671000024,272.7396671000024,274.40422460000264,right,1.0,29.60748079999757,,,,,,,,,,,,,,,,,,,,,,,,,,,,,,,sub-002,1.0,random_dot,57.74862370765183,
left,left,speed,,,,,0.0,0.0,0.0,1.0,16.0,1.0,33.0,0.0,274.4181097999972,,,,,,,,,274.40652679999766,275.22207990000607,276.04232229999616,276.0187955000001,276.0188726000051,276.04232229999616,276.04232229999616,276.04232229999616,277.4839925999986,left,1.0,29.39279890000762,,,,,,,,,,,,,,,,,,,,,,,,,,,,,,,sub-002,1.0,random_dot,57.74862370765183,
left,left,speed,,,,,0.0,0.0,0.0,1.0,17.0,0.0,34.0,0.0,277.5038429999986,,,,,,,,,277.48678229999496,277.8485512000043,278.65671049999946,278.634518699997,278.6345749000029,278.65671049999946,278.65671049999946,278.65671049999946,279.66906479999307,right,0.0,28.9626905000041,,,,,,,,,,,,,,,,,,,,,,,,,,,,,,,sub-002,1.0,random_dot,57.74862370765183,
right,right,speed,,,,,0.0,0.0,0.0,1.0,17.0,1.0,35.0,1.0,279.692696099999,,,,,,,,,279.6713565999962,280.8800270000065,281.6965949000005,281.68029069999466,281.68032780000067,281.6965949000005,281.6965949000005,281.6965949000005,282.8482890000014,right,1.0,29.106978000010717,,,,,,,,,,,,,,,,,,,,,,,,,,,,,,,sub-002,1.0,random_dot,57.74862370765183,
right,right,speed,,,,,0.0,0.0,0.0,1.0,18.0,0.0,36.0,1.0,282.8631888999953,,,,,,,,,282.8503864999948,282.9643318000017,283.76881569999387,283.7510252999928,283.7510680999985,283.76881569999387,283.76881569999387,283.76881569999387,284.7051197999972,right,1.0,28.89469590000226,,,,,,,,,,,,,,,,,,,,,,,,,,,,,,,sub-002,1.0,random_dot,57.74862370765183,
left,left,speed,,,,,0.0,0.0,0.0,1.0,18.0,1.0,37.0,0.0,284.71817019999435,,,,,,,,,284.7076730999979,284.8127037999948,285.61743040000147,285.59698370000115,285.59702590000234,285.61743040000147,285.61743040000147,285.61743040000147,286.8687266000052,left,1.0,29.193129800012684,,,,,,,,,,,,,,,,,,,,,,,,,,,,,,,sub-002,1.0,random_dot,57.74862370765183,
left,left,speed,,,,,0.0,0.0,0.0,1.0,19.0,0.0,38.0,0.0,286.8824875999999,,,,,,,,,286.8711320000002,288.0804836000025,288.8839256000065,288.8644043999957,288.8644443999947,288.8839256000065,288.8839256000065,288.8839256000065,290.1533485999971,right,0.0,29.215843000012683,,,,,,,,,,,,,,,,,,,,,,,,,,,,,,,sub-002,1.0,random_dot,57.74862370765183,
right,right,speed,,,,,0.0,0.0,0.0,1.0,19.0,1.0,39.0,1.0,290.1671650999924,,,,,,,,,290.15610720000404,290.5128381999966,291.31570789999387,291.2964873000019,291.296545899997,291.31570789999387,291.31570789999387,291.31570789999387,292.1288799000031,right,1.0,28.75565340000321,,,,,,,,,,,,,,,,,,,,,,,,,,,,,,,sub-002,1.0,random_dot,57.74862370765183,
right,right,speed,,,,,0.0,0.0,0.0,1.0,20.0,0.0,40.0,1.0,292.1487883999944,,,,,,,,,292.1312445999938,293.3326781999931,294.1458827000024,294.1241211000015,294.12416069999745,294.1458827000024,294.1458827000024,294.1458827000024,299.546224100006,right,1.0,33.3440513000096,,,,,299.1250938000012,,,,,,,,,,,,,,,,,,,,,,,,,,sub-002,1.0,random_dot,57.74862370765183,
left,left,speed,,,,,0.0,0.0,0.0,1.0,20.0,1.0,41.0,0.0,299.56097799999407,,,,,,,,,299.5483673999988,299.65930359999766,300.46170020000136,300.44290520000504,300.4429411000019,300.46170020000136,300.46170020000136,300.46170020000136,301.44320629999856,left,1.0,28.934335500001907,,,,,,,,,,,,,,,,,,,,,,,,,,,,,,,sub-002,1.0,random_dot,57.74862370765183,
right,right,speed,,,,,0.0,0.0,0.0,1.0,21.0,0.0,42.0,1.0,301.4585961999983,,,,,,,,,301.44515309999406,301.8075880999968,302.60881819999486,302.5924456000066,302.59248439999647,302.60881819999486,302.60881819999486,302.60881819999486,304.07621470000595,left,0.0,29.41314330000023,,,,,,,,,,,,,,,,,,,,,,,,,,,,,,,sub-002,1.0,random_dot,57.74862370765183,
left,left,speed,,,,,0.0,0.0,0.0,1.0,21.0,1.0,43.0,0.0,304.0910137000028,,,,,,,,,304.0781778999953,304.1911262000067,304.99785580000025,304.9802808999957,304.9803224000061,304.99785580000025,304.99785580000025,304.99785580000025,306.4764002000011,left,1.0,29.42453810000734,,,,,,,,,,,,,,,,,,,,,,,,,,,,,,,sub-002,1.0,random_dot,57.74862370765183,
right,right,speed,,,,,0.0,0.0,0.0,1.0,22.0,0.0,44.0,1.0,306.49243260000367,,,,,,,,,306.47868119999475,307.6929666999931,308.5109608000057,308.4926568999945,308.49270059999253,308.5109608000057,308.5109608000057,308.5109608000057,309.13240940000105,right,1.0,28.57687190000433,,,,,,,,,,,,,,,,,,,,,,,,,,,,,,,sub-002,1.0,random_dot,57.74862370765183,
left,left,speed,,,,,0.0,0.0,0.0,1.0,22.0,1.0,45.0,0.0,309.1472165000014,,,,,,,,,309.135068100004,309.491569100006,310.3063068000047,310.29040830000304,310.2904431000061,310.3063068000047,310.3063068000047,310.3063068000047,312.2411546999938,left,1.0,29.89075020000746,,,,,,,,,,,,,,,,,,,,,,,,,,,,,,,sub-002,1.0,random_dot,57.74862370765183,
right,right,speed,,,,,0.0,0.0,0.0,1.0,23.0,0.0,46.0,1.0,312.25580650000484,,,,,,,,,312.2430827000062,312.3575364999997,313.16960759999347,313.1462087999971,313.14625890000025,313.16960759999347,313.16960759999347,313.16960759999347,316.81699330000265,right,1.0,31.5951783000055,,,,,,,,,,,,,,,,,,,,,,,,,,,,,,,sub-002,1.0,random_dot,57.74862370765183,
left,left,speed,,,,,0.0,0.0,0.0,1.0,23.0,1.0,47.0,0.0,316.8311875999934,,,,,,,,,316.81980670000485,317.62358040000254,318.42911569999706,318.40839419999975,318.40843710000627,318.42911569999706,318.42911569999706,318.42911569999706,320.2236069999926,left,1.0,29.75139540000237,,,,,,,,,,,,,,,,,,,,,,,,,,,,,,,sub-002,1.0,random_dot,57.74862370765183,
right,right,speed,,,,,0.0,0.0,0.0,1.0,24.0,0.0,48.0,1.0,320.2384439000016,,,,,,,,,320.2255565999949,321.42573649999395,322.23735890000535,322.2214804999967,322.22151410000515,322.23735890000535,322.23735890000535,322.23735890000535,327.7719764000067,right,1.0,33.49226620000263,,,,,327.23708619999525,,,,,,,,,,,,,,,,,,,,,,,,,,sub-002,1.0,random_dot,57.74862370765183,
left,left,speed,,,,,0.0,0.0,0.0,1.0,24.0,1.0,49.0,0.0,327.7866439000063,,,,,,,,,327.77398790000007,328.98600360000273,329.78683979999914,329.77079219999723,329.770826699998,329.78683979999914,329.78683979999914,329.78683979999914,330.7378410999954,left,1.0,28.90053000001353,,,,,,,,,,,,,,,,,,,,,,,,,,,,,,,sub-002,1.0,random_dot,57.74862370765183,
right,right,speed,,,,,0.0,0.0,0.0,1.0,25.0,0.0,50.0,1.0,330.7530068000051,,,,,,,,,330.7398222000047,331.1040104999993,331.9045674999943,331.8890684999933,331.8891044000047,331.9045674999943,331.9045674999943,331.9045674999943,332.50414229999296,right,1.0,28.544906199997055,,,,,,,,,,,,,,,,,,,,,,,,,,,,,,,sub-002,1.0,random_dot,57.74862370765183,
left,left,speed,,,,,0.0,0.0,0.0,1.0,25.0,1.0,51.0,0.0,332.5194094000035,,,,,,,,,332.5061218000046,333.3185702000046,334.11870619999536,334.1029225999955,334.10295719999704,334.11870619999536,334.11870619999536,334.11870619999536,334.8540487999999,right,0.0,28.69282280000334,,,,,,,,,,,,,,,,,,,,,,,,,,,,,,,sub-002,1.0,random_dot,57.74862370765183,
right,right,speed,,,,,0.0,0.0,0.0,1.0,26.0,0.0,52.0,1.0,334.8688378999941,,,,,,,,,334.85600319999503,334.9688390999945,335.7689702999924,335.75277419999475,335.752808499994,335.7689702999924,335.7689702999924,335.7689702999924,339.54304570000386,right,1.0,31.72849640001368,,,,,,,,,,,,,,,,,,,,,,,,,,,,,,,sub-002,1.0,random_dot,57.74862370765183,
left,left,speed,,,,,0.0,0.0,0.0,1.0,26.0,1.0,53.0,0.0,339.55633779999334,,,,,,,,,339.54536079999525,340.3555614999932,341.16724530000647,341.15135739999823,341.15139119999367,341.16724530000647,341.16724530000647,341.16724530000647,342.17238879999786,left,1.0,28.956039099997724,,,,,,,,,,,,,,,,,,,,,,,,,,,,,,,sub-002,1.0,random_dot,57.74862370765183,
left,left,speed,,,,,0.0,0.0,0.0,1.0,27.0,0.0,54.0,0.0,342.18972300000314,,,,,,,,,342.174776800006,342.2855162000051,343.08905880000384,343.0695666999964,343.0696072999999,343.08905880000384,343.08905880000384,343.08905880000384,344.55529010000464,right,0.0,29.4136902000173,,,,,,,,,,,,,,,,,,,,,,,,,,,,,,,sub-002,1.0,random_dot,57.74862370765183,
right,right,speed,,,,,0.0,0.0,0.0,1.0,27.0,1.0,55.0,1.0,344.5698994999984,,,,,,,,,344.5573685999989,344.6666610999964,345.4668728999968,345.4507751000056,345.45081090000167,345.4668728999968,345.4668728999968,345.4668728999968,346.2518651999999,right,1.0,28.737984900013544,,,,,,,,,,,,,,,,,,,,,,,,,,,,,,,sub-002,1.0,random_dot,57.74862370765183,
right,right,speed,,,,,0.0,0.0,0.0,1.0,28.0,0.0,56.0,1.0,346.26671019999776,,,,,,,,,346.2538413000002,347.0664907000028,347.8669860999944,347.85020970000187,347.85024479999265,347.8669860999944,347.8669860999944,347.8669860999944,348.5847741000034,right,1.0,28.67198840000492,,,,,,,,,,,,,,,,,,,,,,,,,,,,,,,sub-002,1.0,random_dot,57.74862370765183,
left,left,speed,,,,,0.0,0.0,0.0,1.0,28.0,1.0,57.0,0.0,348.5997826999956,,,,,,,,,348.58673189999536,348.7012557999988,349.51664220000384,349.500315199999,349.50035010000283,349.51664220000384,349.51664220000384,349.51664220000384,350.6846347999963,left,1.0,29.112956299999496,,,,,,,,,,,,,,,,,,,,,,,,,,,,,,,sub-002,1.0,random_dot,57.74862370765183,
right,right,speed,,,,,0.0,0.0,0.0,1.0,29.0,0.0,58.0,1.0,350.70439679999254,,,,,,,,,350.68688350000593,351.04883689999406,351.8496485999931,351.8337643999985,351.8338037999929,351.8496485999931,351.8496485999931,351.8496485999931,357.0829511000047,left,0.0,33.18477170000551,,,,,356.8480935999978,,,,,,,,,,,,,,,,,,,,,,,,,,sub-002,1.0,random_dot,57.74862370765183,
left,left,speed,,,,,0.0,0.0,0.0,1.0,29.0,1.0,59.0,0.0,357.09823610000603,,,,,,,,,357.0849120000057,357.19789320000564,358.00571270000364,357.98523439999553,357.9852860999963,358.00571270000364,358.00571270000364,358.00571270000364,358.8189905000036,right,0.0,28.76257340000302,,,,,,,,,,,,,,,,,,,,,,,,,,,,,,,sub-002,1.0,random_dot,57.74862370765183,
,,speed,,,,,0.0,0.0,0.0,1.0,,,,,,,,,,,,,,,,,,,,,,,,,,,,,,,,,,,,,,,,,,,,,,,,,,,,,,,,sub-002,1.0,random_dot,57.74862370765183,
right,right,accuracy,,,,,0.0,1.0,1.0,0.0,0.0,0.0,0.0,1.0,363.3259746999975,,,,,,,,,363.3178404999926,364.12182810000377,364.9302125999966,364.9145635000023,364.9146168000007,364.9302125999966,364.9302125999966,364.9302125999966,365.7976639999979,right,1.0,28.817777000003844,,,,,,,,,,,,,,,,,,,,358.82096979999915,358.8467111000064,358.8467111000064,363.30068509999546,space,32.4010161000042,,,,,,sub-002,1.0,random_dot,57.74862370765183,
left,left,accuracy,,,,,0.0,1.0,1.0,0.0,0.0,1.0,1.0,0.0,365.8134436999972,,,,,,,,,365.7998619999999,365.9132958999981,366.7138380999968,366.6974671000062,366.6974962999957,366.7138380999968,366.7138380999968,366.7138380999968,367.7642233999941,left,1.0,29.00032550000469,,,,,,,,,,,,,,,,,,,,,,,,,,,,,,,sub-002,1.0,random_dot,57.74862370765183,
right,right,accuracy,,,,,0.0,1.0,1.0,0.0,1.0,0.0,2.0,1.0,367.7794789000036,,,,,,,,,367.7660370999947,368.1303490999999,368.9471880000056,368.9304587999941,368.9304880999989,368.9471880000056,368.9471880000056,368.9471880000056,369.697751300002,right,1.0,28.694324100011727,,,,,,,,,,,,,,,,,,,,,,,,,,,,,,,sub-002,1.0,random_dot,57.74862370765183,
left,left,accuracy,,,,,0.0,1.0,1.0,0.0,1.0,1.0,3.0,0.0,369.7128566000029,,,,,,,,,369.6997185999935,369.81254790000094,370.6126134999941,370.5975325000036,370.5975608000008,370.6126134999941,370.6126134999941,370.6126134999941,371.24681840000267,left,1.0,28.5843756999966,,,,,,,,,,,,,,,,,,,,,,,,,,,,,,,sub-002,1.0,random_dot,57.74862370765183,
left,left,accuracy,,,,,0.0,1.0,1.0,0.0,2.0,0.0,4.0,0.0,371.2622392000048,,,,,,,,,371.2486238999991,372.0624781999941,372.8618700999941,372.8461011000036,372.8461314000015,372.8618700999941,372.8618700999941,372.8618700999941,374.78015140000207,left,1.0,29.8775469000102,,,,,,,,,,,,,,,,,,,,,,,,,,,,,,,sub-002,1.0,random_dot,57.74862370765183,
right,right,accuracy,,,,,0.0,1.0,1.0,0.0,2.0,1.0,5.0,1.0,374.7951124999963,,,,,,,,,374.7820140999975,375.5949685999949,376.394618899998,376.3793120000046,376.3793431999948,376.394618899998,376.394618899998,376.394618899998,377.3958872999938,right,1.0,28.953628100003694,,,,,,,,,,,,,,,,,,,,,,,,,,,,,,,sub-002,1.0,random_dot,57.74862370765183,
right,right,accuracy,,,,,0.0,1.0,1.0,0.0,3.0,0.0,6.0,1.0,377.41139459999977,,,,,,,,,377.3977612000017,378.21105919999536,379.01086199999554,378.994909999994,378.9949392999988,379.01086199999554,379.01086199999554,379.01086199999554,379.67956419999246,right,1.0,28.62145050000981,,,,,,,,,,,,,,,,,,,,,,,,,,,,,,,sub-002,1.0,random_dot,57.74862370765183,
left,left,accuracy,,,,,0.0,1.0,1.0,0.0,3.0,1.0,7.0,0.0,379.6941460999951,,,,,,,,,379.681448599993,380.04404280000017,380.8442368999968,380.8281571999978,380.8281838999974,380.8442368999968,380.8442368999968,380.8442368999968,382.2123640000064,left,1.0,29.322001500011535,,,,,,,,,,,,,,,,,,,,,,,,,,,,,,,sub-002,1.0,random_dot,57.74862370765183,
left,left,accuracy,,,,,0.0,1.0,1.0,0.0,4.0,0.0,8.0,0.0,382.2285572999972,,,,,,,,,382.2142147999984,383.0274538999947,383.8267081999948,383.81089419999626,383.8109236000018,383.8267081999948,383.8267081999948,383.8267081999948,386.7446628000034,left,1.0,30.87316980000469,,,,,,,,,,,,,,,,,,,,,,,,,,,,,,,sub-002,1.0,random_dot,57.74862370765183,
right,right,accuracy,,,,,0.0,1.0,1.0,0.0,4.0,1.0,9.0,1.0,386.7599459000048,,,,,,,,,386.74654429999646,386.8597535000008,387.6595337000035,387.6441792999976,387.6442090000055,387.6595337000035,387.6595337000035,387.6595337000035,388.4941494999948,right,1.0,28.79284470001585,,,,,,,,,,,,,,,,,,,,,,,,,,,,,,,sub-002,1.0,random_dot,57.74862370765183,
right,right,accuracy,,,,,0.0,1.0,1.0,0.0,5.0,0.0,10.0,1.0,388.5095189999993,,,,,,,,,388.4960183999938,389.7095362999971,390.52549,390.5097962,390.50982370000565,390.52549,390.52549,390.52549,395.5591259000066,right,1.0,32.97812290000729,,,,,395.524331099994,,,,,,,,,,,,,,,,,,,,,,,,,,sub-002,1.0,random_dot,57.74862370765183,
left,left,accuracy,,,,,0.0,1.0,1.0,0.0,5.0,1.0,11.0,0.0,395.5746628000052,,,,,,,,,395.5608917999925,396.37439260000247,397.1744344000035,397.1582924999966,397.1583848000009,397.1744344000035,397.1744344000035,397.1744344000035,399.4278279999999,left,1.0,30.202286300016567,,,,,,,,,,,,,,,,,,,,,,,,,,,,,,,sub-002,1.0,random_dot,57.74862370765183,
right,right,accuracy,,,,,0.0,1.0,1.0,0.0,6.0,0.0,12.0,1.0,399.4412510999973,,,,,,,,,399.4296983999957,400.2406838000024,401.0401633000001,401.0242908999935,401.02432019999833,401.0401633000001,401.0401633000001,401.0401633000001,402.1251040000061,right,1.0,29.03967590001412,,,,,,,,,,,,,,,,,,,,,,,,,,,,,,,sub-002,1.0,random_dot,57.74862370765183,
left,left,accuracy,,,,,0.0,1.0,1.0,0.0,6.0,1.0,13.0,0.0,402.14011340000434,,,,,,,,,402.1269544999959,402.94056859999546,403.7399196000042,403.7241811999993,403.7242072999943,403.7399196000042,403.7399196000042,403.7399196000042,405.4413936000056,left,1.0,29.655233100012996,,,,,,,,,,,,,,,,,,,,,,,,,,,,,,,sub-002,1.0,random_dot,57.74862370765183,
right,right,accuracy,,,,,0.0,1.0,1.0,0.0,7.0,0.0,14.0,1.0,405.4562484000053,,,,,,,,,405.4432338000042,405.5565503999969,406.3558558999939,406.34088049999264,406.3409108000051,406.3558558999939,406.3558558999939,406.3558558999939,408.2237247000012,right,1.0,29.81240910000633,,,,,,,,,,,,,,,,,,,,,,,,,,,,,,,sub-002,1.0,random_dot,57.74862370765183,
left,left,accuracy,,,,,0.0,1.0,1.0,0.0,7.0,1.0,15.0,0.0,408.2391113000049,,,,,,,,,408.2255364000012,408.58907790000376,409.388947600004,409.37305199999537,409.373082399994,409.388947600004,409.388947600004,409.388947600004,410.40687150000304,left,1.0,28.977344200015068,,,,,,,,,,,,,,,,,,,,,,,,,,,,,,,sub-002,1.0,random_dot,57.74862370765183,
right,right,accuracy,,,,,0.0,1.0,1.0,0.0,8.0,0.0,16.0,1.0,410.4221573999967,,,,,,,,,410.4087467999925,411.2220382999949,412.0216399000056,412.00577319999866,412.0058019999997,412.0216399000056,412.0216399000056,412.0216399000056,413.2064197,right,1.0,29.132884299993748,,,,,,,,,,,,,,,,,,,,,,,,,,,,,,,sub-002,1.0,random_dot,57.74862370765183,
left,left,accuracy,,,,,0.0,1.0,1.0,0.0,8.0,1.0,17.0,0.0,413.2217519999977,,,,,,,,,413.2083568999951,413.5710102000012,414.3714452999993,414.3564713999949,414.3564998999937,414.3714452999993,414.3714452999993,414.3714452999993,417.48935970000457,left,1.0,31.073032100015556,,,,,,,,,,,,,,,,,,,,,,,,,,,,,,,sub-002,1.0,random_dot,57.74862370765183,
left,left,accuracy,,,,,0.0,1.0,1.0,0.0,9.0,0.0,18.0,0.0,417.5046085999929,,,,,,,,,417.4912445999944,418.3040879000037,419.1033730000054,419.0875073999923,419.0875369999994,419.1033730000054,419.1033730000054,419.1033730000054,423.621055399999,right,0.0,32.46535950001271,,,,,,,,,,,,,,,,,,,,,,,,,,,,,,,sub-002,1.0,random_dot,57.74862370765183,
right,right,accuracy,,,,,0.0,1.0,1.0,0.0,9.0,1.0,19.0,1.0,423.63604899999336,,,,,,,,,423.6228933999955,424.4363440000016,425.2361680000031,425.2205377999926,425.22056649999286,425.2361680000031,425.2361680000031,425.2361680000031,429.9534210999991,right,1.0,32.67516580001393,,,,,,,,,,,,,,,,,,,,,,,,,,,,,,,sub-002,1.0,random_dot,57.74862370765183,
left,left,accuracy,,,,,0.0,1.0,1.0,0.0,10.0,0.0,20.0,0.0,429.9680779000046,,,,,,,,,429.9552909000049,430.0680921000021,430.8681727999938,430.8531517999945,430.85318109999935,430.8681727999938,430.8681727999938,430.8681727999938,432.56924090000393,left,1.0,29.646026300019003,,,,,,,,,,,,,,,,,,,,,,,,,,,,,,,sub-002,1.0,random_dot,57.74862370765183,
right,right,accuracy,,,,,0.0,1.0,1.0,0.0,10.0,1.0,21.0,1.0,432.5849307000026,,,,,,,,,432.571111199999,432.6847162000049,433.4841692000045,433.4689705000055,433.46899989999656,433.4841692000045,433.4841692000045,433.4841692000045,434.7358082999999,right,1.0,29.20879460001015,,,,,,,,,,,,,,,,,,,,,,,,,,,,,,,sub-002,1.0,random_dot,57.74862370765183,
left,left,accuracy,,,,,0.0,1.0,1.0,0.0,11.0,0.0,22.0,0.0,434.75085399999807,,,,,,,,,434.7376705999922,435.5507956999936,436.3505872999958,436.3353481999948,436.3353761000035,436.3505872999958,436.3505872999958,436.3505872999958,437.7522742000001,left,1.0,29.34703299999819,,,,,,,,,,,,,,,,,,,,,,,,,,,,,,,sub-002,1.0,random_dot,57.74862370765183,
right,right,accuracy,,,,,0.0,1.0,1.0,0.0,11.0,1.0,23.0,1.0,437.76688369999465,,,,,,,,,437.7541302000027,437.8668752999947,438.6664872999973,438.6512301000039,438.65125939999416,438.6664872999973,438.6664872999973,438.6664872999973,440.0349958000006,right,1.0,29.312180900014937,,,,,,,,,,,,,,,,,,,,,,,,,,,,,,,sub-002,1.0,random_dot,57.74862370765183,
right,right,accuracy,,,,,0.0,1.0,1.0,0.0,12.0,0.0,24.0,1.0,440.0500425999926,,,,,,,,,440.03688050000346,440.8497592000058,441.6496194000065,441.6343578999949,441.6344049000036,441.6496194000065,441.6496194000065,441.6496194000065,444.183901299999,right,1.0,30.478001499999664,,,,,,,,,,,,,,,,,,,,,,,,,,,,,,,sub-002,1.0,random_dot,57.74862370765183,
left,left,accuracy,,,,,0.0,1.0,1.0,0.0,12.0,1.0,25.0,0.0,444.1987495000066,,,,,,,,,444.18573409999954,444.9994581000065,445.7985931000003,445.783125300004,445.7831551999989,445.7985931000003,445.7985931000003,445.7985931000003,446.3669935999933,left,1.0,28.526392900006613,,,,,,,,,,,,,,,,,,,,,,,,,,,,,,,sub-002,1.0,random_dot,57.74862370765183,
left,left,accuracy,,,,,0.0,1.0,1.0,0.0,13.0,0.0,26.0,0.0,446.3821921000053,,,,,,,,,446.36885689999326,446.7325442000001,447.5316458000016,447.5158745999943,447.5159032999945,447.5316458000016,447.5316458000016,447.5316458000016,448.233658600002,left,1.0,28.65738610000699,,,,,,,,,,,,,,,,,,,,,,,,,,,,,,,sub-002,1.0,random_dot,57.74862370765183,
right,right,accuracy,,,,,0.0,1.0,1.0,0.0,13.0,1.0,27.0,1.0,448.2489738000004,,,,,,,,,448.2355401999957,448.34809369999857,449.14796869999554,449.13257709999743,449.1326061,449.14796869999554,449.14796869999554,449.14796869999554,449.818589699993,right,1.0,28.62379630000214,,,,,,,,,,,,,,,,,,,,,,,,,,,,,,,sub-002,1.0,random_dot,57.74862370765183,
left,left,accuracy,,,,,0.0,1.0,1.0,0.0,14.0,0.0,28.0,0.0,449.8324804000004,,,,,,,,,449.8205935000005,449.931654,450.7314516000042,450.7155735999986,450.715603699995,450.7314516000042,450.7314516000042,450.7314516000042,451.3828133000061,left,1.0,28.59810090000974,,,,,,,,,,,,,,,,,,,,,,,,,,,,,,,sub-002,1.0,random_dot,57.74862370765183,
right,right,accuracy,,,,,0.0,1.0,1.0,0.0,14.0,1.0,29.0,1.0,451.39790789999824,,,,,,,,,451.3846842000057,452.1974518000061,452.9971931000037,452.98181480000494,452.9818442999968,452.9971931000037,452.9971931000037,452.9971931000037,454.2154843000026,right,1.0,29.170765600007144,,,,,,,,,,,,,,,,,,,,,,,,,,,,,,,sub-002,1.0,random_dot,57.74862370765183,
left,left,accuracy,,,,,0.0,1.0,1.0,0.0,15.0,0.0,30.0,0.0,454.2307142999925,,,,,,,,,454.2173517000047,454.5808825999993,455.3803287000046,455.3648501999997,455.36487950000446,455.3803287000046,455.3803287000046,455.3803287000046,456.2320875000005,left,1.0,28.805306500013103,,,,,,,,,,,,,,,,,,,,,,,,,,,,,,,sub-002,1.0,random_dot,57.74862370765183,
right,right,accuracy,,,,,0.0,1.0,1.0,0.0,15.0,1.0,31.0,1.0,456.2469926000049,,,,,,,,,456.2339214999956,456.5971041000012,457.3967816999939,457.3813037999935,457.38133269999526,457.3967816999939,457.3967816999939,457.3967816999939,458.08320520000416,right,1.0,28.63172220000706,,,,,,,,,,,,,,,,,,,,,,,,,,,,,,,sub-002,1.0,random_dot,57.74862370765183,
right,right,accuracy,,,,,0.0,1.0,1.0,0.0,16.0,0.0,32.0,1.0,458.0969410999969,,,,,,,,,458.08506290000514,459.29648940000334,460.09605649999867,460.0807691999944,460.0808001999976,460.09605649999867,460.09605649999867,460.09605649999867,460.79764350000187,right,1.0,28.64737459999742,,,,,,,,,,,,,,,,,,,,,,,,,,,,,,,sub-002,1.0,random_dot,57.74862370765183,
left,left,accuracy,,,,,0.0,1.0,1.0,0.0,16.0,1.0,33.0,0.0,460.8126950000005,,,,,,,,,460.7994904999941,460.91275800000585,461.71243200000026,461.6966231999977,461.6966531999933,461.71243200000026,461.71243200000026,461.71243200000026,462.53076789999614,left,1.0,28.76901190001809,,,,,,,,,,,,,,,,,,,,,,,,,,,,,,,sub-002,1.0,random_dot,57.74862370765183,
left,left,accuracy,,,,,0.0,1.0,1.0,0.0,17.0,0.0,34.0,0.0,462.5459172999981,,,,,,,,,462.53261169999314,462.8956674999936,463.6953654999961,463.6798080000008,463.6798357999942,463.6953654999961,463.6953654999961,463.6953654999961,465.5635233999929,right,0.0,29.81408970001212,,,,,,,,,,,,,,,,,,,,,,,,,,,,,,,sub-002,1.0,random_dot,57.74862370765183,
right,right,accuracy,,,,,0.0,1.0,1.0,0.0,17.0,1.0,35.0,1.0,465.57844040000055,,,,,,,,,465.5653805000038,465.6787123999966,466.47840279999946,466.4631425999978,466.4631720000034,466.47840279999946,466.47840279999946,466.47840279999946,467.5298662999994,right,1.0,29.00908060000802,,,,,,,,,,,,,,,,,,,,,,,,,,,,,,,sub-002,1.0,random_dot,57.74862370765183,
left,left,accuracy,,,,,0.0,1.0,1.0,0.0,18.0,0.0,36.0,0.0,467.5449726999941,,,,,,,,,467.5317253999965,467.6448762999935,468.4447295999999,468.4296291000064,468.429656399996,468.4447295999999,468.4447295999999,468.4447295999999,470.7796589000063,left,1.0,30.28976010000042,,,,,,,,,,,,,,,,,,,,,,,,,,,,,,,sub-002,1.0,random_dot,57.74862370765183,
right,right,accuracy,,,,,0.0,1.0,1.0,0.0,18.0,1.0,37.0,1.0,470.79458040000463,,,,,,,,,470.78175779999583,471.9941594999982,472.7939176999935,472.7789014000009,472.7789313999965,472.7939176999935,472.7939176999935,472.7939176999935,474.445152500004,right,1.0,29.61045640001248,,,,,,,,,,,,,,,,,,,,,,,,,,,,,,,sub-002,1.0,random_dot,57.74862370765183,
right,right,accuracy,,,,,0.0,1.0,1.0,0.0,19.0,0.0,38.0,1.0,474.46018029999686,,,,,,,,,474.44702680000046,474.5603908000048,475.3600582999934,475.3445230999933,475.3445521999965,475.3600582999934,475.3600582999934,475.3600582999934,478.62782049999805,left,0.0,31.223680900002364,,,,,,,,,,,,,,,,,,,,,,,,,,,,,,,sub-002,1.0,random_dot,57.74862370765183,
left,left,accuracy,,,,,0.0,1.0,1.0,0.0,19.0,1.0,39.0,0.0,478.6427094999963,,,,,,,,,478.629714900002,478.743017700006,479.5425790000008,479.52699080000457,479.5270198999933,479.5425790000008,479.5425790000008,479.5425790000008,482.81022319999465,left,1.0,31.21719180000946,,,,,,,,,,,,,,,,,,,,,,,,,,,,,,,sub-002,1.0,random_dot,57.74862370765183,
left,left,accuracy,,,,,0.0,1.0,1.0,0.0,20.0,0.0,40.0,0.0,482.8252913000033,,,,,,,,,482.8120089000004,484.025738700002,484.82495650000055,484.80905979999807,484.8090890000021,484.82495650000055,484.82495650000055,484.82495650000055,487.9929940000002,left,1.0,31.12341080000624,,,,,,,,,,,,,,,,,,,,,,,,,,,,,,,sub-002,1.0,random_dot,57.74862370765183,
right,right,accuracy,,,,,0.0,1.0,1.0,0.0,20.0,1.0,41.0,1.0,488.0075896000053,,,,,,,,,487.9948967999953,488.35748789999343,489.1615502000059,489.1439320999925,489.1439790000004,489.1615502000059,489.1615502000059,489.1615502000059,491.7588551999943,right,1.0,30.553049500013003,,,,,,,,,,,,,,,,,,,,,,,,,,,,,,,sub-002,1.0,random_dot,57.74862370765183,
left,left,accuracy,,,,,0.0,1.0,1.0,0.0,21.0,0.0,42.0,0.0,491.7736825000029,,,,,,,,,491.760706999994,492.97425650000514,493.77323819999583,493.75808460000553,493.7581120999967,493.77323819999583,493.77323819999583,493.77323819999583,499.1749715000042,right,0.0,33.35532550001517,,,,,498.7724622999958,,,,,,,,,,,,,,,,,,,,,,,,,,sub-002,1.0,random_dot,57.74862370765183,
right,right,accuracy,,,,,0.0,1.0,1.0,0.0,21.0,1.0,43.0,1.0,499.18904640000255,,,,,,,,,499.1767611999967,499.98923380000633,500.7888160000002,500.77312990000064,500.7731597999955,500.7888160000002,500.7888160000002,500.7888160000002,501.8235241999937,right,1.0,28.97876830000314,,,,,,,,,,,,,,,,,,,,,,,,,,,,,,,sub-002,1.0,random_dot,57.74862370765183,
right,right,accuracy,,,,,0.0,1.0,1.0,0.0,22.0,0.0,44.0,1.0,501.8389584999968,,,,,,,,,501.8254187999992,501.93907029999536,502.7383269999991,502.7228388999938,502.7228674999933,502.7383269999991,502.7383269999991,502.7383269999991,503.5241209999949,left,0.0,28.74057450001419,,,,,,,,,,,,,,,,,,,,,,,,,,,,,,,sub-002,1.0,random_dot,57.74862370765183,
left,left,accuracy,,,,,0.0,1.0,1.0,0.0,22.0,1.0,45.0,0.0,503.5380860000005,,,,,,,,,503.5259552999924,504.3386283,505.13809839999885,505.12282669999695,505.1228536999988,505.13809839999885,505.13809839999885,505.13809839999885,506.3228932000056,left,1.0,29.13526940000884,,,,,,,,,,,,,,,,,,,,,,,,,,,,,,,sub-002,1.0,random_dot,57.74862370765183,
left,left,accuracy,,,,,0.0,1.0,1.0,0.0,23.0,0.0,46.0,0.0,506.3383578999928,,,,,,,,,506.32476800000586,506.4380921999982,507.2377844000002,507.222062300003,507.2220890000026,507.2377844000002,507.2377844000002,507.2377844000002,508.2219683000003,left,1.0,28.92838579999807,,,,,,,,,,,,,,,,,,,,,,,,,,,,,,,sub-002,1.0,random_dot,57.74862370765183,
right,right,accuracy,,,,,0.0,1.0,1.0,0.0,23.0,1.0,47.0,1.0,508.2378888999956,,,,,,,,,508.2237813999964,508.3382161000045,509.1373969999986,509.121874000004,509.1219134999992,509.1373969999986,509.1373969999986,509.1373969999986,509.7557568000048,right,1.0,28.57053910000832,,,,,,,,,,,,,,,,,,,,,,,,,,,,,,,sub-002,1.0,random_dot,57.74862370765183,
left,left,accuracy,,,,,0.0,1.0,1.0,0.0,24.0,0.0,48.0,0.0,509.77086340000096,,,,,,,,,509.7576074999961,510.5704265999957,511.370219599994,511.3545524999936,511.354579699997,511.370219599994,511.370219599994,511.370219599994,512.9892031000054,left,1.0,29.569050600010087,,,,,,,,,,,,,,,,,,,,,,,,,,,,,,,sub-002,1.0,random_dot,57.74862370765183,
right,right,accuracy,,,,,0.0,1.0,1.0,0.0,24.0,1.0,49.0,1.0,513.0034716999944,,,,,,,,,512.9910982000001,513.8032028000016,514.602945599996,514.5876994999999,514.5877265000017,514.602945599996,514.602945599996,514.602945599996,515.6544243999961,right,1.0,28.995661199995084,,,,,,,,,,,,,,,,,,,,,,,,,,,,,,,sub-002,1.0,random_dot,57.74862370765183,
left,left,accuracy,,,,,0.0,1.0,1.0,0.0,25.0,0.0,50.0,0.0,515.6696666000062,,,,,,,,,515.6562553999975,516.8693861999927,517.669438900004,517.6536477000045,517.6536773999978,517.669438900004,517.669438900004,517.669438900004,519.4369970999978,left,1.0,29.714088800014,,,,,,,,,,,,,,,,,,,,,,,,,,,,,,,sub-002,1.0,random_dot,57.74862370765183,
right,right,accuracy,,,,,0.0,1.0,1.0,0.0,25.0,1.0,51.0,1.0,519.4521100999991,,,,,,,,,519.4388478000037,520.2520135999948,521.0518003000034,521.0361578000011,521.0361875999952,521.0518003000034,521.0518003000034,521.0518003000034,524.302641000002,right,1.0,31.19637300001341,,,,,,,,,,,,,,,,,,,,,,,,,,,,,,,sub-002,1.0,random_dot,57.74862370765183,
right,right,accuracy,,,,,0.0,1.0,1.0,0.0,26.0,0.0,52.0,1.0,524.3178443999932,,,,,,,,,524.3044666999922,525.5178872999968,526.317615699998,526.3017613999982,526.3017892999924,526.317615699998,526.317615699998,526.317615699998,529.301956299998,left,0.0,30.94024540000828,,,,,,,,,,,,,,,,,,,,,,,,,,,,,,,sub-002,1.0,random_dot,57.74862370765183,
left,left,accuracy,,,,,0.0,1.0,1.0,0.0,26.0,1.0,53.0,0.0,529.3170123000018,,,,,,,,,529.3038042999979,529.4172642000049,530.2168037999945,530.2015541000001,530.2015835000057,530.2168037999945,530.2168037999945,530.2168037999945,533.1346686000034,left,1.0,30.87714650000271,,,,,,,,,,,,,,,,,,,,,,,,,,,,,,,sub-002,1.0,random_dot,57.74862370765183,
left,left,accuracy,,,,,0.0,1.0,1.0,0.0,27.0,0.0,54.0,0.0,533.1498463000025,,,,,,,,,533.1364809999941,534.3494627000036,535.1495694000041,535.1340818000026,535.1341083000007,535.1495694000041,535.1495694000041,535.1495694000041,536.2007580999925,right,0.0,29.003428300013184,,,,,,,,,,,,,,,,,,,,,,,,,,,,,,,sub-002,1.0,random_dot,57.74862370765183,
right,right,accuracy,,,,,0.0,1.0,1.0,0.0,27.0,1.0,55.0,1.0,536.2157666999992,,,,,,,,,536.2025804000004,537.4155095000024,538.2153563000029,538.1999322000047,538.1999597999966,538.2153563000029,538.2153563000029,538.2153563000029,539.1001496999961,right,1.0,28.830571500002407,,,,,,,,,,,,,,,,,,,,,,,,,,,,,,,sub-002,1.0,random_dot,57.74862370765183,
left,left,accuracy,,,,,0.0,1.0,1.0,0.0,28.0,0.0,56.0,0.0,539.1153355999995,,,,,,,,,539.1019690999965,539.9150025999988,540.714936000004,540.6994178000023,540.6994444000011,540.714936000004,540.714936000004,540.714936000004,541.616483699996,left,1.0,28.85149000000092,,,,,,,,,,,,,,,,,,,,,,,,,,,,,,,sub-002,1.0,random_dot,57.74862370765183,
right,right,accuracy,,,,,0.0,1.0,1.0,0.0,28.0,1.0,57.0,1.0,541.6316147000034,,,,,,,,,541.6182774000044,541.9815254999994,542.781309500002,542.7655952000059,542.7656235000031,542.781309500002,542.781309500002,542.781309500002,543.7341717999952,right,1.0,28.90953990000708,,,,,,,,,,,,,,,,,,,,,,,,,,,,,,,sub-002,1.0,random_dot,57.74862370765183,
left,left,accuracy,,,,,0.0,1.0,1.0,0.0,29.0,0.0,58.0,0.0,543.7477901999955,,,,,,,,,543.7360745000042,543.8481093000009,544.6474749000045,544.6320018999977,544.6320284999965,544.6474749000045,544.6474749000045,544.6474749000045,545.5667790000007,left,1.0,28.87044510000851,,,,,,,,,,,,,,,,,,,,,,,,,,,,,,,sub-002,1.0,random_dot,57.74862370765183,
right,right,accuracy,,,,,0.0,1.0,1.0,0.0,29.0,1.0,59.0,1.0,545.5806356999965,,,,,,,,,545.5687203999987,546.3808505000052,547.1802656999935,547.164663699994,547.1646911999997,547.1802656999935,547.1802656999935,547.1802656999935,550.4149748000054,right,1.0,31.19164030000684,,,,,,,,,,,,,,,,,,,,,,,,,,,,,,,sub-002,1.0,random_dot,57.74862370765183,
,,accuracy,,,,,0.0,1.0,1.0,0.0,,,,,,,,,,,,,,,,,,,,,,,,,,,,,,,,,,,,,,,,,,,,,,,,,,,,,,,,sub-002,1.0,random_dot,57.74862370765183,
,,,,,,,,,,,,,,,,,,,,,,,,,,,,,,,,,,,,,,,,,,,,,,,,,,,,,,,,,,,,,,550.4163626999944,550.430124999999,555.4291032000037,555.4138370000001,sub-002,,,,
