direction,corrAns,thisN,thisTrialN,thisRepN,respDots.keys,respDots.corr,respDots.rt,respDots.duration,randomInstr,respRandomInstr.keys,respRandomInstr.rt,respRandomInstr.duration,practice_trials.thisRepN,practice_trials.thisTrialN,practice_trials.thisN,practice_trials.thisIndex,instr_trials.thisRepN,instr_trials.thisTrialN,instr_trials.thisN,instr_trials.thisIndex,test_trials.thisRepN,test_trials.thisTrialN,test_trials.thisN,test_trials.thisIndex,thisRow.t,notes,general_instruction.started,textGeneralInstr.started,respGeneralInstr.started,general_instruction.stopped,respGeneralInstr.keys,respGeneralInstr.rt,respGeneralInstr.duration,ITI.started,fixcross.started,fixcross.stopped,ITI.stopped,dots.started,backgroundDots.started,stimulusDots.started,respDots.started,dots.stopped,practice_trials.respDots.keys,practice_trials.respDots.corr,practice_trials.respDots.rt,practice_trials.respDots.duration,feedback.started,textFeedback.started,feedback.stopped,textFeedback.stopped,stimulusDots.stopped,info.started,textInfo.started,keyRespInfo.started,info.stopped,keyRespInfo.keys,keyRespInfo.rt,keyRespInfo.duration,test_instruction.started,textTestInstr.started,respTestInstr.started,test_instruction.stopped,respTestInstr.keys,respTestInstr.rt,respTestInstr.duration,random_instruction.started,textRandomInstr.started,respRandomInstr.started,random_instruction.stopped,instr_trials.respRandomInstr.keys,instr_trials.respRandomInstr.rt,instr_trials.respRandomInstr.duration,test_trials.respDots.keys,test_trials.respDots.corr,test_trials.respDots.rt,test_trials.respDots.duration,goodbye.started,textGoodbye.started,textGoodbye.stopped,goodbye.stopped,participant,session,expName,frameRate,Unnamed: 88
,,,,,,,,,,,,,,,,,,,,,,,,,,,0.0083167499979026,0.0141625420001219,0.0141625420001219,0.9903396669978974,space,0.9466394589981064,,,,,,,,,,,,,,,,,,,,,,,,,,,,,,,,,,,,,,,,,,,,,,,,,sub-010,1,random_dot,120.84190555526548,
right,right,0.0,0.0,0.0,right,1.0,3.024994833001984,,,,,,0.0,0.0,0.0,1.0,,,,,,,,,1.0135412919989903,,,,,,,,,0.9989202500000828,1.335334208997665,2.133344499998202,2.118604958996002,2.119316833995981,2.133344499998202,2.133344499998202,2.133344499998202,5.1690454999989015,right,1.0,3.024994833001984,,5.174941459001275,5.207519666997541,5.674584333995881,,,,,,,,,,,,,,,,,,,,,,,,,,,,,,,,sub-010,1,random_dot,120.84190555526548,
left,left,1.0,1.0,0.0,left,1.0,1.886432833001891,,,,,,0.0,1.0,1.0,0.0,,,,,,,,,5.684180042000662,,,,,,,,,5.674961208998866,6.867456375002803,7.660549624997657,7.65168149999954,7.652371750002203,7.660549624997657,7.660549624997657,7.660549624997657,9.551949000000604,left,1.0,1.886432833001891,,9.55209024999931,9.563384791996214,10.051898375000746,10.058523375002553,,,,,,,,,,,,,,,,,,,,,,,,,,,,,,,sub-010,1,random_dot,120.84190555526548,
right,right,2.0,0.0,1.0,right,1.0,5.384197375002259,,,,,,1.0,0.0,2.0,1.0,,,,,,,,,10.058523375002553,,,,,,,,,10.052532959001836,10.15081216699764,10.943928458997108,10.935117125001852,10.935785959001803,10.943928458997108,10.943928458997108,10.943928458997108,16.335815500002354,right,1.0,5.384197375002259,,16.33597141700011,16.34523312500096,16.834962166998594,16.841761875002703,15.933884666999802,,,,,,,,,,,,,,,,,,,,,,,,,,,,,,sub-010,1,random_dot,120.84190555526548,
left,left,3.0,1.0,1.0,left,1.0,4.291787209003815,,,,,,1.0,1.0,3.0,0.0,,,,,,,,,16.841761875002703,,,,,,,,,16.83559329200216,16.93427945899748,17.727673291999963,17.718392875001882,17.71915595899918,17.727673291999963,17.727673291999963,17.727673291999963,22.02357062500232,left,1.0,4.291787209003815,,22.023681792001295,22.03400995899574,22.51852350000263,22.525379083999724,,,,,,,,,,,,,,,,,,,,,,,,,,,,,,,sub-010,1,random_dot,120.84190555526548,
left,left,4.0,0.0,2.0,left,1.0,3.2743157079967204,,,,,,2.0,0.0,4.0,0.0,,,,,,,,,22.525379083999724,,,,,,,,,22.51915637499769,23.31744500000059,24.110069499998644,24.101294708998463,24.101794084002904,24.110069499998644,24.110069499998644,24.110069499998644,27.38676837499952,left,1.0,3.2743157079967204,,27.38690804199723,27.39990670899715,27.885390083996757,27.89231733400084,,,,,,,,,,,,,,,,,,,,,,,,,,,,,,,sub-010,1,random_dot,120.84190555526548,
right,right,5.0,1.0,2.0,right,1.0,0.96982316699723,,,,,,2.0,1.0,5.0,1.0,,,,,,,,,27.89231733400084,,,,,,,,,27.88600425000186,28.234427916999262,29.027495499998626,29.01839450000261,29.019065250002317,29.027495499998626,29.027495499998626,29.027495499998626,30.001861584001745,right,1.0,0.96982316699723,,30.001949792000232,30.009015167001053,30.501657791995967,30.508273334002297,,,,,,,,,,,,,,,,,,,,,,,,,,,,,,,sub-010,1,random_dot,120.84190555526548,
right,right,6.0,0.0,3.0,right,1.0,1.3721302500052843,,,,,,3.0,0.0,6.0,1.0,,,,,,,,,30.508273334002297,,,,,,,,,30.502082624996547,31.29132854199997,32.08399545899738,32.07510641699628,32.0755827499961,32.08399545899738,32.08399545899738,32.08399545899738,33.459935250000854,right,1.0,1.3721302500052843,,33.460068542000954,33.483717208997405,33.967819167002745,,,,,,,,,,,,,,,,,,,,,,,,,,,,,,,,sub-010,1,random_dot,120.84190555526548,
left,left,7.0,1.0,3.0,left,1.0,0.9287747499984108,,,,,,3.0,1.0,7.0,0.0,,,,,,,,,33.974634042002435,,,,,,,,,33.968354999997246,35.15792416699696,35.949292083998444,35.940924083995924,35.94126700000197,35.949292083998444,35.949292083998444,35.949292083998444,36.88572829199984,left,1.0,0.9287747499984108,,36.88590591699904,36.89279262499622,37.38477920900186,37.39113299999735,,,,,,,,,,,,,,,,,,,,,,,,,,,,,,,sub-010,1,random_dot,120.84190555526548,
left,left,8.0,0.0,4.0,left,1.0,1.9076785420038505,,,,,,4.0,0.0,8.0,0.0,,,,,,,,,37.39113299999735,,,,,,,,,37.38516399999935,37.73443179199967,38.52703283399751,38.51827849999973,38.518832333997125,38.52703283399751,38.52703283399751,38.52703283399751,40.44547420900199,left,1.0,1.9076785420038505,,40.44554237499688,40.45135320899863,40.9349536669979,40.941041250000126,,,,,,,,,,,,,,,,,,,,,,,,,,,,,,,sub-010,1,random_dot,120.84190555526548,
right,right,9.0,1.0,4.0,right,1.0,1.4300005409968437,,,,,,4.0,1.0,9.0,1.0,,,,,,,,,40.941041250000126,,,,,,,,,40.935367624995706,41.74133637500199,42.533298374997685,42.52484491699579,42.52524658400216,42.533298374997685,42.533298374997685,42.533298374997685,43.968618958999286,right,1.0,1.4300005409968437,,43.96870112499892,43.97545516699756,44.46863612499874,44.475392416999966,,,,,,,,,,,,,,,,,,,,,,,,,,,,,,,sub-010,1,random_dot,120.84190555526548,
right,right,10.0,0.0,5.0,right,1.0,1.2016433329990832,,,,,,5.0,0.0,10.0,1.0,,,,,,,,,44.475392416999966,,,,,,,,,44.46925983399706,44.81755587500084,45.60954387499805,45.60150329199678,45.60191866700188,45.60954387499805,45.60954387499805,45.60954387499805,46.81823058400187,right,1.0,1.2016433329990832,,46.81836024999939,46.825806875000126,47.31850699999632,47.32531841700256,,,,,,,,,,,,,,,,,,,,,,,,,,,,,,,sub-010,1,random_dot,120.84190555526548,
left,left,11.0,1.0,5.0,left,1.0,0.7117280000020401,,,,,,5.0,1.0,11.0,0.0,,,,,,,,,47.32531841700256,,,,,,,,,47.319051334001415,47.407933624999714,48.20056170899625,48.19137154200144,48.19179241699749,48.20056170899625,48.20056170899625,48.20056170899625,48.91955983400112,left,1.0,0.7117280000020401,,48.919757750001736,48.926827958996,49.41841274999752,49.42471099999966,,,,,,,,,,,,,,,,,,,,,,,,,,,,,,,sub-010,1,random_dot,120.84190555526548,
right,right,12.0,0.0,6.0,right,1.0,0.7558783749991562,,,,,,6.0,0.0,12.0,1.0,,,,,,,,,49.42471099999966,,,,,,,,,49.41884620900237,50.61771408400091,51.41105033399799,51.40214629199909,51.40288724999846,51.41105033399799,51.41105033399799,51.41105033399799,52.169284292001976,right,1.0,0.7558783749991562,,52.16937033399881,52.17629337499966,52.668178041996725,52.67446145899885,,,,,,,,,,,,,,,,,,,,,,,,,,,,,,,sub-010,1,random_dot,120.84190555526548,
left,left,13.0,1.0,6.0,left,1.0,0.7624335830041673,,,,,,6.0,1.0,13.0,0.0,,,,,,,,,52.67446145899885,,,,,,,,,52.66858158400282,53.01780416700058,53.81061162499827,53.80196795899974,53.8026711249986,53.81061162499827,53.81061162499827,53.81061162499827,54.575246125001286,left,1.0,0.7624335830041673,,54.575395084000775,54.58251808399655,55.06836316699628,55.07495787499647,,,,,,,,,,,,,,,,,,,,,,,,,,,,,,,sub-010,1,random_dot,120.84190555526548,
right,right,14.0,0.0,7.0,right,1.0,0.7566075829963665,,,,,,7.0,0.0,14.0,1.0,,,,,,,,,55.07495787499647,,,,,,,,,55.06890658399789,55.17485145899991,55.976731583999936,55.96823908400256,55.96874104200106,55.976731583999936,55.976731583999936,55.976731583999936,56.740856042000814,right,1.0,0.7566075829963665,,56.74093670900038,56.74924474999716,57.23493037500157,57.24104887500289,,,,,,,,,,,,,,,,,,,,,,,,,,,,,,,sub-010,1,random_dot,120.84190555526548,
left,left,15.0,1.0,7.0,left,1.0,0.7459639170047012,,,,,,7.0,1.0,15.0,0.0,,,,,,,,,57.24104887500289,,,,,,,,,57.23527350000222,58.03443449999759,58.82771995900112,58.81867495900224,58.8193169590013,58.82771995900112,58.82771995900112,58.82771995900112,59.5758939169973,left,1.0,0.7459639170047012,,59.5759807919967,59.58343804199831,60.06877849999728,60.075242667000566,,,,,,,,,,,,,,,,,,,,,,,,,,,,,,,sub-010,1,random_dot,120.84190555526548,
left,left,16.0,0.0,8.0,left,1.0,1.2427362500020536,,,,,,8.0,0.0,16.0,0.0,,,,,,,,,60.075242667000566,,,,,,,,,60.06931325000187,60.87447908399918,61.66720870899735,61.65844508400187,61.65892983399681,61.66720870899735,61.66720870899735,61.66720870899735,62.91933712500031,left,1.0,1.2427362500020536,,62.91947404199891,62.92720849999751,63.41850304199761,63.42506633399898,,,,,,,,,,,,,,,,,,,,,,,,,,,,,,,sub-010,1,random_dot,120.84190555526548,
right,right,17.0,1.0,8.0,right,1.0,0.9420897500021964,,,,,,8.0,1.0,17.0,1.0,,,,,,,,,63.42506633399898,,,,,,,,,63.41903266699956,64.61782449999737,65.41003033400193,65.40153520899912,65.40202458400017,65.41003033400193,65.41003033400193,65.41003033400193,66.35931875000097,right,1.0,0.9420897500021964,,66.35940362499969,66.36703933399986,66.85210387499683,66.85890362499777,,,,,,,,,,,,,,,,,,,,,,,,,,,,,,,sub-010,1,random_dot,120.84190555526548,
right,right,18.0,0.0,9.0,right,1.0,1.0789930000028107,,,,,,9.0,0.0,18.0,1.0,,,,,,,,,66.85890362499777,,,,,,,,,66.85272054199595,67.65743179200217,68.45050099999935,68.44195999999647,68.44236962500145,68.45050099999935,68.45050099999935,68.45050099999935,69.53363533400261,right,1.0,1.0789930000028107,,69.5337108340027,69.54060300000128,70.02465129199845,70.03437962500175,,,,,,,,,,,,,,,,,,,,,,,,,,,,,,,sub-010,1,random_dot,120.84190555526548,
left,left,19.0,1.0,9.0,left,1.0,0.6184749169988208,,,,,,9.0,1.0,19.0,0.0,,,,,,,,,70.03437962500175,,,,,,,,,70.02502358399943,70.37396787499893,71.16603783400205,71.15789095900254,71.15823124999588,71.16603783400205,71.16603783400205,71.16603783400205,71.78678599999694,left,1.0,0.6184749169988208,,71.78692183399835,71.79432054200151,72.2850763749957,72.29352400000062,,,,,,,,,,,,,,,,,,,,,,,,,,,,,,,sub-010,1,random_dot,120.84190555526548,
,,,,,,,,,,,,,,,,,,,,,,,,,,,,,,,,,,,,,,,,,,,,,,,,,,,,72.28523595899605,72.29352400000062,72.29352400000062,74.9698426670002,space,2.664938124995388,,,,,,,,,,,,,,,,,,,,,,,,sub-010,1,random_dot,120.84190555526548,
,,,,,,,,,,,,,,,,,,,,,,,,,,,,,,,,,,,,,,,,,,,,,,,,,,,,,,,,,,,74.96999974999926,74.9825328750012,74.9825328750012,78.27644575000159,space,3.290588332994957,,,,,,,,,,,,,,,,,sub-010,1,random_dot,120.84190555526548,
left,left,0.0,0.0,0.0,left,1.0,1.1569760409984156,,accuracy,space,9.027250125000135,,,,,,0.0,0.0,0.0,0.0,0.0,0.0,0.0,0.0,87.35529125000176,,,,,,,,,87.34541824999906,87.43440979199659,88.22752170899912,88.21867704200122,88.21932141699654,88.22752170899912,88.22752170899912,88.22752170899912,89.3866907920019,,,,,,,,,,,,,,,,,,,,,,,,78.29509391699685,78.30319691699697,78.30319691699697,87.33670929200161,space,9.027250125000135,,left,1.0,1.1569760409984156,,,,,,sub-010,1,random_dot,120.84190555526548,
right,right,1.0,1.0,0.0,right,1.0,0.5779112079981132,,accuracy,space,9.027250125000135,,,,,,0.0,0.0,0.0,0.0,0.0,1.0,1.0,1.0,89.39394399999583,,,,,,,,,89.38701958399906,90.18442391700228,90.97795308400237,90.9688819169969,90.96956304200285,90.97795308400237,90.97795308400237,90.97795308400237,91.55808475000232,,,,,,,,,,,,,,,,,,,,,,,,,,,,,,,right,1.0,0.5779112079981132,,,,,,sub-010,1,random_dot,120.84190555526548,
right,right,2.0,0.0,1.0,right,1.0,0.7519924999942305,,accuracy,space,9.027250125000135,,,,,,0.0,0.0,0.0,0.0,1.0,0.0,2.0,1.0,91.56767341699742,,,,,,,,,91.55838412499725,92.35118112499912,93.14426570900105,93.13530520899803,93.13594195900076,93.14426570900105,93.14426570900105,93.14426570900105,93.9028394170018,,,,,,,,,,,,,,,,,,,,,,,,,,,,,,,right,1.0,0.7519924999942305,,,,,,sub-010,1,random_dot,120.84190555526548,
left,left,3.0,1.0,1.0,left,1.0,0.6237000000037369,,accuracy,space,9.027250125000135,,,,,,0.0,0.0,0.0,0.0,1.0,1.0,3.0,0.0,93.90978179199736,,,,,,,,,93.90326125000138,94.00126299999827,94.79425425000228,94.78520908400242,94.78586008399724,94.79425425000228,94.79425425000228,94.79425425000228,95.42017112499887,,,,,,,,,,,,,,,,,,,,,,,,,,,,,,,left,1.0,0.6237000000037369,,,,,,sub-010,1,random_dot,120.84190555526548,
left,left,4.0,0.0,2.0,left,1.0,1.1416199169980246,,accuracy,space,9.027250125000135,,,,,,0.0,0.0,0.0,0.0,2.0,0.0,4.0,0.0,95.42691437499889,,,,,,,,,95.42044658400118,95.7679572920024,96.56009716699918,96.55179741699976,96.5522883750018,96.56009716699918,96.56009716699918,96.56009716699918,97.7128403339957,,,,,,,,,,,,,,,,,,,,,,,,,,,,,,,left,1.0,1.1416199169980246,,,,,,sub-010,1,random_dot,120.84190555526548,
right,right,5.0,1.0,2.0,right,1.0,0.5774194169935072,,accuracy,space,9.027250125000135,,,,,,0.0,0.0,0.0,0.0,2.0,1.0,5.0,1.0,97.73406254199654,,,,,,,,,97.71309495899914,97.80555800000002,98.6000579169995,98.59126745899994,98.59175225000216,98.6000579169995,98.6000579169995,98.6000579169995,99.1838246249972,,,,,,,,,,,,,,,,,,,,,,,,,,,,,,,right,1.0,0.5774194169935072,,,,,,sub-010,1,random_dot,120.84190555526548,
right,right,6.0,0.0,3.0,right,1.0,2.616293125000084,,accuracy,space,9.027250125000135,,,,,,0.0,0.0,0.0,0.0,3.0,0.0,6.0,1.0,99.1901591249989,,,,,,,,,99.18407579199992,100.37465937499655,101.16754012499588,101.15769537499727,101.15813999999956,101.16754012499588,101.16754012499588,101.16754012499588,103.79364145900036,,,,,,,,,,,,,,,,,,,,,,,,,,,,,,,right,1.0,2.616293125000084,,,,,,sub-010,1,random_dot,120.84190555526548,
left,left,7.0,1.0,3.0,left,1.0,0.6879522499948507,,accuracy,space,9.027250125000135,,,,,,0.0,0.0,0.0,0.0,3.0,1.0,7.0,0.0,103.80305866699928,,,,,,,,,103.79398029200092,104.59146158400108,105.39356462500292,105.38503395899896,105.38552520899977,105.39356462500292,105.39356462500292,105.39356462500292,106.08442804199876,,,,,,,,,,,,,,,,,,,,,,,,,,,,,,,left,1.0,0.6879522499948507,,,,,,sub-010,1,random_dot,120.84190555526548,
right,right,8.0,0.0,4.0,right,1.0,0.6588711250005872,,accuracy,space,9.027250125000135,,,,,,0.0,0.0,0.0,0.0,4.0,0.0,8.0,1.0,106.09169375000056,,,,,,,,,106.08486045899916,106.42491029200028,107.21688999999606,107.20826237499568,107.20866158400167,107.21688999999606,107.21688999999606,107.21688999999606,107.87731199999688,,,,,,,,,,,,,,,,,,,,,,,,,,,,,,,right,1.0,0.6588711250005872,,,,,,sub-010,1,random_dot,120.84190555526548,
left,left,9.0,1.0,4.0,left,1.0,0.6465776660043048,,accuracy,space,9.027250125000135,,,,,,0.0,0.0,0.0,0.0,4.0,1.0,9.0,0.0,107.88267199999972,,,,,,,,,107.87757329199668,108.22487612500116,109.01680566700088,109.00800908399832,109.00850429199636,109.01680566700088,109.01680566700088,109.01680566700088,109.66732849999973,,,,,,,,,,,,,,,,,,,,,,,,,,,,,,,left,1.0,0.6465776660043048,,,,,,sub-010,1,random_dot,120.84190555526548,
left,left,10.0,0.0,5.0,left,1.0,1.856396458002564,,accuracy,space,9.027250125000135,,,,,,0.0,0.0,0.0,0.0,5.0,0.0,10.0,0.0,109.67411474999972,,,,,,,,,109.66757304200291,109.75783666699864,110.54949599999964,110.54099929199585,110.54139608400146,110.54949599999964,110.54949599999964,110.54949599999964,112.40863250000255,,,,,,,,,,,,,,,,,,,,,,,,,,,,,,,left,1.0,1.856396458002564,,,,,,sub-010,1,random_dot,120.84190555526548,
right,right,11.0,1.0,5.0,right,1.0,0.6677080840017879,,accuracy,space,9.027250125000135,,,,,,0.0,0.0,0.0,0.0,5.0,1.0,11.0,1.0,112.41655595899648,,,,,,,,,112.40890991700144,112.75776737499837,113.55068395900162,113.54188979200262,113.54238562499812,113.55068395900162,113.55068395900162,113.55068395900162,114.22914583399688,,,,,,,,,,,,,,,,,,,,,,,,,,,,,,,right,1.0,0.6677080840017879,,,,,,sub-010,1,random_dot,120.84190555526548,
right,right,12.0,0.0,6.0,right,1.0,1.3510919580003249,,accuracy,space,9.027250125000135,,,,,,0.0,0.0,0.0,0.0,6.0,0.0,12.0,1.0,114.23499058400192,,,,,,,,,114.22939466699609,115.0242617499971,115.81736641700265,115.8083672089997,115.80886137500056,115.81736641700265,115.81736641700265,115.81736641700265,117.17770791699876,,,,,,,,,,,,,,,,,,,,,,,,,,,,,,,right,1.0,1.3510919580003249,,,,,,sub-010,1,random_dot,120.84190555526548,
left,left,13.0,1.0,6.0,left,1.0,1.416913332999684,,accuracy,space,9.027250125000135,,,,,,0.0,0.0,0.0,0.0,6.0,1.0,13.0,0.0,117.185147917,,,,,,,,,117.177952500002,117.97517462499673,118.76739983399602,118.75855183399835,118.75903349999862,118.76739983399602,118.76739983399602,118.76739983399602,120.1862267089964,,,,,,,,,,,,,,,,,,,,,,,,,,,,,,,left,1.0,1.416913332999684,,,,,,sub-010,1,random_dot,120.84190555526548,
left,left,14.0,0.0,7.0,left,1.0,1.0452313749992754,,accuracy,space,9.027250125000135,,,,,,0.0,0.0,0.0,0.0,7.0,0.0,14.0,0.0,120.19374199999584,,,,,,,,,120.18674699999974,121.3848040840021,122.1770062919968,122.16853075000108,122.1690300420014,122.1770062919968,122.1770062919968,122.1770062919968,123.22547712500092,,,,,,,,,,,,,,,,,,,,,,,,,,,,,,,left,1.0,1.0452313749992754,,,,,,sub-010,1,random_dot,120.84190555526548,
right,right,15.0,1.0,7.0,right,1.0,0.6840134579979349,,accuracy,space,9.027250125000135,,,,,,0.0,0.0,0.0,0.0,7.0,1.0,15.0,1.0,123.233860291999,,,,,,,,,123.22604191699791,124.4250543340022,125.2172226670009,125.20880045899683,125.20920350000232,125.2172226670009,125.2172226670009,125.2172226670009,125.90337500000167,,,,,,,,,,,,,,,,,,,,,,,,,,,,,,,right,1.0,0.6840134579979349,,,,,,sub-010,1,random_dot,120.84190555526548,
right,right,16.0,0.0,8.0,right,1.0,1.5639187089982445,,accuracy,space,9.027250125000135,,,,,,0.0,0.0,0.0,0.0,8.0,0.0,16.0,1.0,125.91045745900192,,,,,,,,,125.90370191699913,127.10121758400057,127.89384849999624,127.8852419169998,127.88576720900164,127.89384849999624,127.89384849999624,127.89384849999624,129.4592730000004,,,,,,,,,,,,,,,,,,,,,,,,,,,,,,,right,1.0,1.5639187089982445,,,,,,sub-010,1,random_dot,120.84190555526548,
left,left,17.0,1.0,8.0,left,1.0,0.6957262910000281,,accuracy,space,9.027250125000135,,,,,,0.0,0.0,0.0,0.0,8.0,1.0,17.0,0.0,129.4679716669998,,,,,,,,,129.4595807500009,129.55802637500165,130.35162508399662,130.34224395899946,130.34266987499723,130.35162508399662,130.35162508399662,130.35162508399662,131.05132708400197,,,,,,,,,,,,,,,,,,,,,,,,,,,,,,,left,1.0,0.6957262910000281,,,,,,sub-010,1,random_dot,120.84190555526548,
right,right,18.0,0.0,9.0,right,1.0,1.579074291003053,,accuracy,space,9.027250125000135,,,,,,0.0,0.0,0.0,0.0,9.0,0.0,18.0,1.0,131.05754012500256,,,,,,,,,131.0518009590014,132.24220629200136,133.04456216700055,133.03564591699978,133.03641916700144,133.04456216700055,133.04456216700055,133.04456216700055,134.63616437499877,,,,,,,,,,,,,,,,,,,,,,,,,,,,,,,right,1.0,1.579074291003053,,,,,,sub-010,1,random_dot,120.84190555526548,
left,left,19.0,1.0,9.0,left,1.0,0.7158645419985987,,accuracy,space,9.027250125000135,,,,,,0.0,0.0,0.0,0.0,9.0,1.0,19.0,0.0,134.6431819999998,,,,,,,,,134.63644679199933,134.98467508400063,135.7781914169973,135.76927570899716,135.7700300419965,135.7781914169973,135.7781914169973,135.7781914169973,136.50256258399895,,,,,,,,,,,,,,,,,,,,,,,,,,,,,,,left,1.0,0.7158645419985987,,,,,,sub-010,1,random_dot,120.84190555526548,
right,right,20.0,0.0,10.0,right,1.0,1.5349084589979611,,accuracy,space,9.027250125000135,,,,,,0.0,0.0,0.0,0.0,10.0,0.0,20.0,1.0,136.51044404199638,,,,,,,,,136.50307154199982,137.70139854199806,138.49426341700018,138.48534112500056,138.4858930420014,138.49426341700018,138.49426341700018,138.49426341700018,140.03661370900227,,,,,,,,,,,,,,,,,,,,,,,,,,,,,,,right,1.0,1.5349084589979611,,,,,,sub-010,1,random_dot,120.84190555526548,
left,left,21.0,1.0,10.0,left,1.0,0.8166950419981731,,accuracy,space,9.027250125000135,,,,,,0.0,0.0,0.0,0.0,10.0,1.0,21.0,0.0,140.0434641669999,,,,,,,,,140.03713112499827,141.23470766699756,142.02640129200154,142.0184458750009,142.0188587090015,142.02640129200154,142.02640129200154,142.02640129200154,142.85194087499983,,,,,,,,,,,,,,,,,,,,,,,,,,,,,,,left,1.0,0.8166950419981731,,,,,,sub-010,1,random_dot,120.84190555526548,
left,left,22.0,0.0,11.0,left,1.0,0.7169458749995101,,accuracy,space,9.027250125000135,,,,,,0.0,0.0,0.0,0.0,11.0,0.0,22.0,0.0,142.85943070900248,,,,,,,,,142.852453624997,144.04190741699858,144.84467129199766,144.83569408400217,144.83645979200082,144.84467129199766,144.84467129199766,144.84467129199766,145.5689134589993,,,,,,,,,,,,,,,,,,,,,,,,,,,,,,,left,1.0,0.7169458749995101,,,,,,sub-010,1,random_dot,120.84190555526548,
right,right,23.0,1.0,11.0,right,1.0,1.040806832999806,,accuracy,space,9.027250125000135,,,,,,0.0,0.0,0.0,0.0,11.0,1.0,23.0,1.0,145.57511499999964,,,,,,,,,145.56919487500272,145.66811099999904,146.46056570899964,146.45199233399762,146.45250966699678,146.46056570899964,146.46056570899964,146.46056570899964,147.50794112499716,,,,,,,,,,,,,,,,,,,,,,,,,,,,,,,right,1.0,1.040806832999806,,,,,,sub-010,1,random_dot,120.84190555526548,
right,right,24.0,0.0,12.0,right,1.0,1.61053350000293,,accuracy,space,9.027250125000135,,,,,,0.0,0.0,0.0,0.0,12.0,0.0,24.0,1.0,147.51789058400027,,,,,,,,,147.50821141699998,147.60751683399576,148.40130995900108,148.3921907499971,148.39261341699603,148.40130995900108,148.40130995900108,148.40130995900108,150.01966374999756,,,,,,,,,,,,,,,,,,,,,,,,,,,,,,,right,1.0,1.61053350000293,,,,,,sub-010,1,random_dot,120.84190555526548,
left,left,25.0,1.0,12.0,left,1.0,0.6854397499992047,,accuracy,space,9.027250125000135,,,,,,0.0,0.0,0.0,0.0,12.0,1.0,25.0,0.0,150.0270354999957,,,,,,,,,150.02013891699607,150.1179528749999,150.9110826670003,150.9021679590005,150.90283437499602,150.9110826670003,150.9110826670003,150.9110826670003,151.6026155840009,,,,,,,,,,,,,,,,,,,,,,,,,,,,,,,left,1.0,0.6854397499992047,,,,,,sub-010,1,random_dot,120.84190555526548,
left,left,26.0,0.0,13.0,left,1.0,1.6415012090001255,,accuracy,space,9.027250125000135,,,,,,0.0,0.0,0.0,0.0,13.0,0.0,26.0,0.0,151.6096561250015,,,,,,,,,151.60309462499572,152.40152758399927,153.19347112499963,153.18529991700052,153.18574670900125,153.19347112499963,153.19347112499963,153.19347112499963,154.8452207090013,,,,,,,,,,,,,,,,,,,,,,,,,,,,,,,left,1.0,1.6415012090001255,,,,,,sub-010,1,random_dot,120.84190555526548,
right,right,27.0,1.0,13.0,right,1.0,0.6679663330069161,,accuracy,space,9.027250125000135,,,,,,0.0,0.0,0.0,0.0,13.0,1.0,27.0,1.0,154.85110820899718,,,,,,,,,154.84551079200173,154.94086329200218,155.73356041700026,155.72484133399848,155.72523541699775,155.73356041700026,155.73356041700026,155.73356041700026,156.40360970899928,,,,,,,,,,,,,,,,,,,,,,,,,,,,,,,right,1.0,0.6679663330069161,,,,,,sub-010,1,random_dot,120.84190555526548,
left,left,28.0,0.0,14.0,left,1.0,0.7757833340001525,,accuracy,space,9.027250125000135,,,,,,0.0,0.0,0.0,0.0,14.0,0.0,28.0,0.0,156.41038995899726,,,,,,,,,156.40387733399984,156.7514663339971,157.54477704199962,157.5357387499971,157.53644212499785,157.54477704199962,157.54477704199962,157.54477704199962,158.3266595419991,,,,,,,,,,,,,,,,,,,,,,,,,,,,,,,left,1.0,0.7757833340001525,,,,,,sub-010,1,random_dot,120.84190555526548,
right,right,29.0,1.0,14.0,right,1.0,0.7094031660017208,,accuracy,space,9.027250125000135,,,,,,0.0,0.0,0.0,0.0,14.0,1.0,29.0,1.0,158.33426766699995,,,,,,,,,158.32694649999758,159.52459575000103,160.31741916699684,160.3083756670021,160.30884945899743,160.31741916699684,160.31741916699684,160.31741916699684,161.0351316669985,,,,,,,,,,,,,,,,,,,,,,,,,,,,,,,right,1.0,0.7094031660017208,,,,,,sub-010,1,random_dot,120.84190555526548,
right,right,30.0,0.0,15.0,right,1.0,1.091597582999384,,accuracy,space,9.027250125000135,,,,,,0.0,0.0,0.0,0.0,15.0,0.0,30.0,1.0,161.0413752500026,,,,,,,,,161.035408249998,161.8246772499988,162.61730620900198,162.60883445900254,162.6091750839987,162.61730620900198,162.61730620900198,162.61730620900198,163.71121491699887,,,,,,,,,,,,,,,,,,,,,,,,,,,,,,,right,1.0,1.091597582999384,,,,,,sub-010,1,random_dot,120.84190555526548,
left,left,31.0,1.0,15.0,left,1.0,0.6010107499969308,,accuracy,space,9.027250125000135,,,,,,0.0,0.0,0.0,0.0,15.0,1.0,31.0,0.0,163.7187597919983,,,,,,,,,163.71150687499903,164.90875508399768,165.71061483400263,165.7020855840019,165.70257679199858,165.71061483400263,165.71061483400263,165.71061483400263,166.3188195420007,,,,,,,,,,,,,,,,,,,,,,,,,,,,,,,left,1.0,0.6010107499969308,,,,,,sub-010,1,random_dot,120.84190555526548,
right,right,32.0,0.0,16.0,right,1.0,0.6663511670049047,,accuracy,space,9.027250125000135,,,,,,0.0,0.0,0.0,0.0,16.0,0.0,32.0,1.0,166.32755266699678,,,,,,,,,166.31932716700248,167.10854983399622,167.9022288749984,167.89260887500132,167.89298083399626,167.9022288749984,167.9022288749984,167.9022288749984,168.5803565419992,,,,,,,,,,,,,,,,,,,,,,,,,,,,,,,right,1.0,0.6663511670049047,,,,,,sub-010,1,random_dot,120.84190555526548,
left,left,33.0,1.0,16.0,left,1.0,0.699671334004961,,accuracy,space,9.027250125000135,,,,,,0.0,0.0,0.0,0.0,16.0,1.0,33.0,0.0,168.5861844999963,,,,,,,,,168.58061233400076,169.77435745899857,170.56787791699753,170.5589965420004,170.5594057499984,170.56787791699753,170.56787791699753,170.56787791699753,171.26976512499823,,,,,,,,,,,,,,,,,,,,,,,,,,,,,,,left,1.0,0.699671334004961,,,,,,sub-010,1,random_dot,120.84190555526548,
right,right,34.0,0.0,17.0,right,1.0,1.3351562919997375,,accuracy,space,9.027250125000135,,,,,,0.0,0.0,0.0,0.0,17.0,0.0,34.0,1.0,171.27661779199843,,,,,,,,,171.27007954200235,172.06799925000087,172.86128699999972,172.8522353340013,172.852871916999,172.86128699999972,172.86128699999972,172.86128699999972,174.201750041997,,,,,,,,,,,,,,,,,,,,,,,,,,,,,,,right,1.0,1.3351562919997375,,,,,,sub-010,1,random_dot,120.84190555526548,
left,left,35.0,1.0,17.0,left,1.0,0.6202855840019765,,accuracy,space,9.027250125000135,,,,,,0.0,0.0,0.0,0.0,17.0,1.0,35.0,0.0,174.20865079199575,,,,,,,,,174.20202629199775,175.39179175000027,176.18442474999756,176.17549620899808,176.17595716699725,176.18442474999756,176.18442474999756,176.18442474999756,176.8099287090008,,,,,,,,,,,,,,,,,,,,,,,,,,,,,,,left,1.0,0.6202855840019765,,,,,,sub-010,1,random_dot,120.84190555526548,
right,right,36.0,0.0,18.0,right,1.0,0.7200522080020164,,accuracy,space,9.027250125000135,,,,,,0.0,0.0,0.0,0.0,18.0,0.0,36.0,1.0,176.817267583996,,,,,,,,,176.81022416699852,178.00847554199572,178.8009365839971,178.79201337500126,178.79239116700046,178.8009365839971,178.8009365839971,178.8009365839971,179.5270280420009,,,,,,,,,,,,,,,,,,,,,,,,,,,,,,,right,1.0,0.7200522080020164,,,,,,sub-010,1,random_dot,120.84190555526548,
left,left,37.0,1.0,18.0,left,1.0,0.7296786250008154,,accuracy,space,9.027250125000135,,,,,,0.0,0.0,0.0,0.0,18.0,1.0,37.0,0.0,179.53453566700043,,,,,,,,,179.52740612500202,179.62424699999974,180.41789974999847,180.40848366700084,180.40902099999948,180.41789974999847,180.41789974999847,180.41789974999847,181.1521713339971,,,,,,,,,,,,,,,,,,,,,,,,,,,,,,,left,1.0,0.7296786250008154,,,,,,sub-010,1,random_dot,120.84190555526548,
left,left,38.0,0.0,19.0,left,1.0,1.7667341249980382,,accuracy,space,9.027250125000135,,,,,,0.0,0.0,0.0,0.0,19.0,0.0,38.0,0.0,181.1589213339976,,,,,,,,,181.1524604590013,181.24089179199652,182.03416049999944,182.02533137499995,182.025755208997,182.03416049999944,182.03416049999944,182.03416049999944,183.80732237499612,,,,,,,,,,,,,,,,,,,,,,,,,,,,,,,left,1.0,1.7667341249980382,,,,,,sub-010,1,random_dot,120.84190555526548,
right,right,39.0,1.0,19.0,right,1.0,1.414609333005501,,accuracy,space,9.027250125000135,,,,,,0.0,0.0,0.0,0.0,19.0,1.0,39.0,1.0,183.8179713749996,,,,,,,,,183.80759304200183,185.00156041699665,185.79471379199825,185.7856222499977,185.78624249999848,185.79471379199825,185.79471379199825,185.79471379199825,187.218402874998,,,,,,,,,,,,,,,,,,,,,,,,,,,,,,,right,1.0,1.414609333005501,,,,,,sub-010,1,random_dot,120.84190555526548,
left,left,40.0,0.0,20.0,left,1.0,1.143106458002876,,accuracy,space,9.027250125000135,,,,,,0.0,0.0,0.0,0.0,20.0,0.0,40.0,0.0,187.22532854200108,,,,,,,,,187.218683041996,187.3079332920024,188.1010575839973,188.092514750002,188.0928801670016,188.1010575839973,188.1010575839973,188.1010575839973,189.2536356249984,,,,,,,,,,,,,,,,,,,,,,,,,,,,,,,left,1.0,1.143106458002876,,,,,,sub-010,1,random_dot,120.84190555526548,
right,right,41.0,1.0,20.0,right,1.0,0.8061948329996085,,accuracy,space,9.027250125000135,,,,,,0.0,0.0,0.0,0.0,20.0,1.0,41.0,1.0,189.2612414999967,,,,,,,,,189.25413975000265,190.0515075000003,190.84459491699815,190.8357501249993,190.83636979199943,190.84459491699815,190.84459491699815,190.84459491699815,191.6583413749977,,,,,,,,,,,,,,,,,,,,,,,,,,,,,,,right,1.0,0.8061948329996085,,,,,,sub-010,1,random_dot,120.84190555526548,
right,right,42.0,0.0,21.0,right,1.0,1.5069879590009805,,accuracy,space,9.027250125000135,,,,,,0.0,0.0,0.0,0.0,21.0,0.0,42.0,1.0,191.66793562500243,,,,,,,,,191.65859624999572,192.85156874999663,193.6455488749998,193.6358171249958,193.6365637499985,193.6455488749998,193.6455488749998,193.6455488749998,195.1598567089968,,,,,,,,,,,,,,,,,,,,,,,,,,,,,,,right,1.0,1.5069879590009805,,,,,,sub-010,1,random_dot,120.84190555526548,
left,left,43.0,1.0,21.0,left,1.0,0.8574607080008718,,accuracy,space,9.027250125000135,,,,,,0.0,0.0,0.0,0.0,21.0,1.0,43.0,0.0,195.16850045899628,,,,,,,,,195.1603515839961,196.35852437499847,197.14960124999925,197.14215762499956,197.14239470900063,197.14960124999925,197.14960124999925,197.14960124999925,198.00964220899917,,,,,,,,,,,,,,,,,,,,,,,,,,,,,,,left,1.0,0.8574607080008718,,,,,,sub-010,1,random_dot,120.84190555526548,
right,right,44.0,0.0,22.0,right,1.0,0.8157069160006358,,accuracy,space,9.027250125000135,,,,,,0.0,0.0,0.0,0.0,22.0,0.0,44.0,1.0,198.01773158399735,,,,,,,,,198.01010608400247,198.80880900000196,199.60153304199773,199.5924030000024,199.59282666700165,199.60153304199773,199.60153304199773,199.60153304199773,200.4252469170024,,,,,,,,,,,,,,,,,,,,,,,,,,,,,,,right,1.0,0.8157069160006358,,,,,,sub-010,1,random_dot,120.84190555526548,
left,left,45.0,1.0,22.0,left,1.0,0.6902790829990408,,accuracy,space,9.027250125000135,,,,,,0.0,0.0,0.0,0.0,22.0,1.0,45.0,0.0,200.43299750000008,,,,,,,,,200.4255520000006,200.7682417089964,201.5612922500004,201.55238837499928,201.55304724999587,201.5612922500004,201.5612922500004,201.5612922500004,202.2643102919974,,,,,,,,,,,,,,,,,,,,,,,,,,,,,,,left,1.0,0.6902790829990408,,,,,,sub-010,1,random_dot,120.84190555526548,
right,right,46.0,0.0,23.0,right,1.0,1.1671388750037297,,accuracy,space,9.027250125000135,,,,,,0.0,0.0,0.0,0.0,23.0,0.0,46.0,1.0,202.27087058399772,,,,,,,,,202.2647084170021,203.4586647089964,204.2509782920024,204.24192087499975,204.24233495900265,204.2509782920024,204.2509782920024,204.2509782920024,205.4206652089997,,,,,,,,,,,,,,,,,,,,,,,,,,,,,,,right,1.0,1.1671388750037297,,,,,,sub-010,1,random_dot,120.84190555526548,
left,left,47.0,1.0,23.0,left,1.0,0.6913255830004346,,accuracy,space,9.027250125000135,,,,,,0.0,0.0,0.0,0.0,23.0,1.0,47.0,0.0,205.4279770419962,,,,,,,,,205.42119504199945,206.21821337499568,207.01013375000184,207.00220208399696,207.00264087499815,207.01013375000184,207.01013375000184,207.01013375000184,207.70397791700088,,,,,,,,,,,,,,,,,,,,,,,,,,,,,,,left,1.0,0.6913255830004346,,,,,,sub-010,1,random_dot,120.84190555526548,
right,right,48.0,0.0,24.0,right,1.0,1.4148877500047092,,accuracy,space,9.027250125000135,,,,,,0.0,0.0,0.0,0.0,24.0,0.0,48.0,1.0,207.7107982919988,,,,,,,,,207.70427579199892,208.50172904200008,209.29411845900177,209.28561962499955,209.286271625002,209.29411845900177,209.29411845900177,209.29411845900177,210.7111441250017,,,,,,,,,,,,,,,,,,,,,,,,,,,,,,,right,1.0,1.4148877500047092,,,,,,sub-010,1,random_dot,120.84190555526548,
left,left,49.0,1.0,24.0,left,1.0,0.8695852920063771,,accuracy,space,9.027250125000135,,,,,,0.0,0.0,0.0,0.0,24.0,1.0,49.0,0.0,210.71895249999943,,,,,,,,,210.71163479200183,210.80759508399933,211.5999742499989,211.5916135419975,211.59208829199636,211.5999742499989,211.5999742499989,211.5999742499989,212.47718079199691,,,,,,,,,,,,,,,,,,,,,,,,,,,,,,,left,1.0,0.8695852920063771,,,,,,sub-010,1,random_dot,120.84190555526548,
right,right,50.0,0.0,25.0,right,1.0,1.3163062080056989,,accuracy,space,9.027250125000135,,,,,,0.0,0.0,0.0,0.0,25.0,0.0,50.0,1.0,212.4845960839957,,,,,,,,,212.47745179200135,212.82467924999943,213.6183611669985,213.6090579169977,213.60951224999732,213.6183611669985,213.6183611669985,213.6183611669985,214.936985291999,,,,,,,,,,,,,,,,,,,,,,,,,,,,,,,right,1.0,1.3163062080056989,,,,,,sub-010,1,random_dot,120.84190555526548,
left,left,51.0,1.0,25.0,left,1.0,0.580214249996061,,accuracy,space,9.027250125000135,,,,,,0.0,0.0,0.0,0.0,25.0,1.0,51.0,0.0,214.944513167,,,,,,,,,214.9375267919968,215.73503220899877,216.52806833400248,216.5192357499982,216.5199186250029,216.52806833400248,216.52806833400248,216.52806833400248,217.11693599999853,,,,,,,,,,,,,,,,,,,,,,,,,,,,,,,left,1.0,0.580214249996061,,,,,,sub-010,1,random_dot,120.84190555526548,
left,left,52.0,0.0,26.0,left,1.0,0.7785880410010577,,accuracy,space,9.027250125000135,,,,,,0.0,0.0,0.0,0.0,26.0,0.0,52.0,0.0,217.12311116699857,,,,,,,,,217.117187459,217.90804745900093,218.70177200000035,218.6930470840016,218.6934150419984,218.70177200000035,218.70177200000035,218.70177200000035,219.48488191700017,,,,,,,,,,,,,,,,,,,,,,,,,,,,,,,left,1.0,0.7785880410010577,,,,,,sub-010,1,random_dot,120.84190555526548,
right,right,53.0,1.0,26.0,right,1.0,0.7708106249992852,,accuracy,space,9.027250125000135,,,,,,0.0,0.0,0.0,0.0,26.0,1.0,53.0,1.0,219.4919327919997,,,,,,,,,219.48538025000016,219.8247223340004,220.6182908339979,220.60936141700225,220.6098094170011,220.6182908339979,220.6182908339979,220.6182908339979,221.3920702089963,,,,,,,,,,,,,,,,,,,,,,,,,,,,,,,right,1.0,0.7708106249992852,,,,,,sub-010,1,random_dot,120.84190555526548,
left,left,54.0,0.0,27.0,left,1.0,1.1908342089955113,,accuracy,space,9.027250125000135,,,,,,0.0,0.0,0.0,0.0,27.0,0.0,54.0,0.0,221.3997314590015,,,,,,,,,221.3923491250025,221.49136258399813,222.28514241700032,222.27554424999835,222.27595683399704,222.28514241700032,222.28514241700032,222.28514241700032,223.4860708339984,,,,,,,,,,,,,,,,,,,,,,,,,,,,,,,left,1.0,1.1908342089955113,,,,,,sub-010,1,random_dot,120.84190555526548,
right,right,55.0,1.0,27.0,right,1.0,0.7173550000006799,,accuracy,space,9.027250125000135,,,,,,0.0,0.0,0.0,0.0,27.0,1.0,55.0,1.0,223.49288700000037,,,,,,,,,223.4864402500025,224.2849482919992,225.07798745900072,225.0690885840013,225.0698398340028,225.07798745900072,225.07798745900072,225.07798745900072,225.80280362499616,,,,,,,,,,,,,,,,,,,,,,,,,,,,,,,right,1.0,0.7173550000006799,,,,,,sub-010,1,random_dot,120.84190555526548,
right,right,56.0,0.0,28.0,right,1.0,1.3330780409960423,,accuracy,space,9.027250125000135,,,,,,0.0,0.0,0.0,0.0,28.0,0.0,56.0,1.0,225.8093822919982,,,,,,,,,225.803035500001,225.9014755419994,226.6940840419993,226.6856814589992,226.6862997089993,226.6940840419993,226.6940840419993,226.6940840419993,228.034666749998,,,,,,,,,,,,,,,,,,,,,,,,,,,,,,,right,1.0,1.3330780409960423,,,,,,sub-010,1,random_dot,120.84190555526548,
left,left,57.0,1.0,28.0,left,1.0,1.1612892920020386,,accuracy,space,9.027250125000135,,,,,,0.0,0.0,0.0,0.0,28.0,1.0,57.0,0.0,228.04143262499565,,,,,,,,,228.03491887499692,228.1250454999972,228.91797612499795,228.9088682090005,228.9093076249992,228.91797612499795,228.91797612499795,228.91797612499795,230.08663879199597,,,,,,,,,,,,,,,,,,,,,,,,,,,,,,,left,1.0,1.1612892920020386,,,,,,sub-010,1,random_dot,120.84190555526548,
right,right,58.0,0.0,29.0,right,1.0,1.0031335840030806,,accuracy,space,9.027250125000135,,,,,,0.0,0.0,0.0,0.0,29.0,0.0,58.0,1.0,230.0935432920014,,,,,,,,,230.08707524999767,230.4375402500009,231.234222041996,231.22559633399945,231.2260243749988,231.234222041996,231.234222041996,231.234222041996,232.2414721669993,,,,,,,,,,,,,,,,,,,,,,,,,,,,,,,right,1.0,1.0031335840030806,,,,,,sub-010,1,random_dot,120.84190555526548,
left,left,59.0,1.0,29.0,left,1.0,1.0835384169986355,,accuracy,space,9.027250125000135,,,,,,0.0,0.0,0.0,0.0,29.0,1.0,59.0,0.0,232.25100945899607,,,,,,,,,232.2417876249965,232.5850156250017,233.37761412499825,233.3688797499999,233.36934795900012,233.37761412499825,233.37761412499825,233.37761412499825,234.46885170899623,,,,,,,,,,,,,,,,,,,,,,,,,,,,,,,left,1.0,1.0835384169986355,,,,,,sub-010,1,random_dot,120.84190555526548,
,,0.0,0.0,0.0,,,,,accuracy,space,9.027250125000135,,,,,,0.0,0.0,0.0,0.0,,,,,,,,,,,,,,,,,,,,,,,,,,,,,,,,,,,,,,,,,,,,,,,,,,,,,,,,,,,,,sub-010,1,random_dot,120.84190555526548,
left,left,0.0,0.0,0.0,left,1.0,0.6489953749987762,,speed,space,3.154950790994917,,,,,,0.0,1.0,1.0,1.0,0.0,0.0,0.0,0.0,237.6627924589993,,,,,,,,,237.6539402920025,237.99255062500012,238.79441029200095,238.78567837499577,238.7863466670024,238.79441029200095,238.79441029200095,238.79441029200095,239.4520962090028,,,,,,,,,,,,,,,,,,,,,,,,234.47951395899872,234.48639174999695,234.48639174999695,237.64449474999856,space,3.154950790994917,,left,1.0,0.6489953749987762,,,,,,sub-010,1,random_dot,120.84190555526548,
right,right,1.0,1.0,0.0,right,1.0,0.5733024580040365,,speed,space,3.154950790994917,,,,,,0.0,1.0,1.0,1.0,0.0,1.0,1.0,1.0,239.45930454199697,,,,,,,,,239.4526025840023,239.79207129200225,240.58494983399575,240.575883958998,240.5763756669985,240.58494983399575,240.58494983399575,240.58494983399575,241.1596987919984,,,,,,,,,,,,,,,,,,,,,,,,,,,,,,,right,1.0,0.5733024580040365,,,,,,sub-010,1,random_dot,120.84190555526548,
left,left,2.0,0.0,1.0,left,1.0,0.58302654200088,,speed,space,3.154950790994917,,,,,,0.0,1.0,1.0,1.0,1.0,0.0,2.0,0.0,241.168103416996,,,,,,,,,241.159994499998,241.9588040419985,242.7514823340025,242.7425646249976,242.7430185420017,242.7514823340025,242.7514823340025,242.7514823340025,243.3429350840015,,,,,,,,,,,,,,,,,,,,,,,,,,,,,,,left,1.0,0.58302654200088,,,,,,sub-010,1,random_dot,120.84190555526548,
right,right,3.0,1.0,1.0,right,1.0,0.616665165995073,,speed,space,3.154950790994917,,,,,,0.0,1.0,1.0,1.0,1.0,1.0,3.0,1.0,243.3499102919959,,,,,,,,,243.34322154199617,244.54156887499997,245.33408270899963,245.32560858399663,245.32595166700048,245.33408270899963,245.33408270899963,245.33408270899963,245.95826554200173,,,,,,,,,,,,,,,,,,,,,,,,,,,,,,,right,1.0,0.616665165995073,,,,,,sub-010,1,random_dot,120.84190555526548,
left,left,4.0,0.0,2.0,left,1.0,0.6584547499951441,,speed,space,3.154950790994917,,,,,,0.0,1.0,1.0,1.0,2.0,0.0,4.0,0.0,245.9674544590016,,,,,,,,,245.9585253339974,247.1584751670016,247.960547333998,247.9521436249997,247.9525816669993,247.960547333998,247.960547333998,247.960547333998,248.62709991700103,,,,,,,,,,,,,,,,,,,,,,,,,,,,,,,left,1.0,0.6584547499951441,,,,,,sub-010,1,random_dot,120.84190555526548,
right,right,5.0,1.0,2.0,right,1.0,0.5595198329974664,,speed,space,3.154950790994917,,,,,,0.0,1.0,1.0,1.0,2.0,1.0,5.0,1.0,248.63427475000208,,,,,,,,,248.62736454200055,249.42562287500184,250.21828649999952,250.2086570839965,250.20916033400133,250.21828649999952,250.21828649999952,250.21828649999952,250.7867823339984,,,,,,,,,,,,,,,,,,,,,,,,,,,,,,,right,1.0,0.5595198329974664,,,,,,sub-010,1,random_dot,120.84190555526548,
left,left,6.0,0.0,3.0,left,1.0,0.5131739580028807,,speed,space,3.154950790994917,,,,,,0.0,1.0,1.0,1.0,3.0,0.0,6.0,0.0,250.79383479199896,,,,,,,,,250.78723204199923,250.8837936249984,251.678383708997,251.66935320899935,251.6700137500011,251.678383708997,251.678383708997,251.678383708997,252.19369408400237,,,,,,,,,,,,,,,,,,,,,,,,,,,,,,,left,1.0,0.5131739580028807,,,,,,sub-010,1,random_dot,120.84190555526548,
right,right,7.0,1.0,3.0,right,1.0,0.8099163329970906,,speed,space,3.154950790994917,,,,,,0.0,1.0,1.0,1.0,3.0,1.0,7.0,1.0,252.20055062499887,,,,,,,,,252.19397041699995,252.5419858750029,253.35184233399923,253.3268918749964,253.32746400000175,253.35184233399923,253.35184233399923,253.35184233399923,254.1681788339993,,,,,,,,,,,,,,,,,,,,,,,,,,,,,,,right,1.0,0.8099163329970906,,,,,,sub-010,1,random_dot,120.84190555526548,
left,left,8.0,0.0,4.0,left,1.0,0.5459427499954472,,speed,space,3.154950790994917,,,,,,0.0,1.0,1.0,1.0,4.0,0.0,8.0,0.0,254.17576679200283,,,,,,,,,254.16861708399665,255.3585632089962,256.1511170419981,256.14207512499706,256.1425471670009,256.1511170419981,256.1511170419981,256.1511170419981,256.7038851249963,,,,,,,,,,,,,,,,,,,,,,,,,,,,,,,left,1.0,0.5459427499954472,,,,,,sub-010,1,random_dot,120.84190555526548,
right,right,9.0,1.0,4.0,right,1.0,0.6085656659997767,,speed,space,3.154950790994917,,,,,,0.0,1.0,1.0,1.0,4.0,1.0,9.0,1.0,256.7105792500006,,,,,,,,,256.70433191699703,257.50171175000287,258.2949994590017,258.2857794590018,258.2864185419967,258.2949994590017,258.2949994590017,258.2949994590017,258.90830149999965,,,,,,,,,,,,,,,,,,,,,,,,,,,,,,,right,1.0,0.6085656659997767,,,,,,sub-010,1,random_dot,120.84190555526548,
left,left,10.0,0.0,5.0,left,1.0,0.6235764579978422,,speed,space,3.154950790994917,,,,,,0.0,1.0,1.0,1.0,5.0,0.0,10.0,0.0,258.9180779590024,,,,,,,,,258.90857624999626,260.1016925840013,260.89502608399926,260.886063209,260.8868270000021,260.89502608399926,260.89502608399926,260.89502608399926,261.52122433399927,,,,,,,,,,,,,,,,,,,,,,,,,,,,,,,left,1.0,0.6235764579978422,,,,,,sub-010,1,random_dot,120.84190555526548,
right,right,11.0,1.0,5.0,right,1.0,0.6462978330018814,,speed,space,3.154950790994917,,,,,,0.0,1.0,1.0,1.0,5.0,1.0,11.0,1.0,261.5283347090008,,,,,,,,,261.52172791700286,261.86847337499785,262.6601544169971,262.65224829199724,262.65265566699964,262.6601544169971,262.6601544169971,262.6601544169971,263.3105864169993,,,,,,,,,,,,,,,,,,,,,,,,,,,,,,,right,1.0,0.6462978330018814,,,,,,sub-010,1,random_dot,120.84190555526548,
right,right,12.0,0.0,6.0,right,1.0,0.7247237919946201,,speed,space,3.154950790994917,,,,,,0.0,1.0,1.0,1.0,6.0,0.0,12.0,1.0,263.318249416996,,,,,,,,,263.31103854200046,264.1081572920011,264.90164237499994,264.8923993749995,264.8928098749966,264.90164237499994,264.90164237499994,264.90164237499994,265.6364485000013,,,,,,,,,,,,,,,,,,,,,,,,,,,,,,,right,1.0,0.7247237919946201,,,,,,sub-010,1,random_dot,120.84190555526548,
left,left,13.0,1.0,6.0,left,1.0,0.5678577500002575,,speed,space,3.154950790994917,,,,,,0.0,1.0,1.0,1.0,6.0,1.0,13.0,0.0,265.64365908400214,,,,,,,,,265.6369554589983,266.4350720000002,267.2276988340018,267.2192706249989,267.2197996670002,267.2276988340018,267.2276988340018,267.2276988340018,267.8010530419997,,,,,,,,,,,,,,,,,,,,,,,,,,,,,,,left,1.0,0.5678577500002575,,,,,,sub-010,1,random_dot,120.84190555526548,
right,right,14.0,0.0,7.0,right,1.0,0.7237579170032404,,speed,space,3.154950790994917,,,,,,0.0,1.0,1.0,1.0,7.0,0.0,14.0,1.0,267.8072334999961,,,,,,,,,267.80133037499763,267.8914669169972,268.6851388750001,268.6759107089965,268.6763797919993,268.6851388750001,268.6851388750001,268.6851388750001,269.41108570899814,,,,,,,,,,,,,,,,,,,,,,,,,,,,,,,right,1.0,0.7237579170032404,,,,,,sub-010,1,random_dot,120.84190555526548,
left,left,15.0,1.0,7.0,left,1.0,0.8078464580030413,,speed,space,3.154950790994917,,,,,,0.0,1.0,1.0,1.0,7.0,1.0,15.0,0.0,269.4188851250001,,,,,,,,,269.411532291997,269.7590868749976,270.55102449999686,270.5425669999968,270.5429795000018,270.55102449999686,270.55102449999686,270.55102449999686,271.37029412500124,,,,,,,,,,,,,,,,,,,,,,,,,,,,,,,left,1.0,0.8078464580030413,,,,,,sub-010,1,random_dot,120.84190555526548,
left,left,16.0,0.0,8.0,left,1.0,0.4973072909997427,,speed,space,3.154950790994917,,,,,,0.0,1.0,1.0,1.0,8.0,0.0,16.0,0.0,271.3780464590018,,,,,,,,,271.37083025000175,272.5683612499997,273.36168308399647,273.3527488749969,273.35350708400074,273.36168308399647,273.36168308399647,273.36168308399647,273.869048624998,,,,,,,,,,,,,,,,,,,,,,,,,,,,,,,left,1.0,0.4973072909997427,,,,,,sub-010,1,random_dot,120.84190555526548,
right,right,17.0,1.0,8.0,right,1.0,0.5687001659971429,,speed,space,3.154950790994917,,,,,,0.0,1.0,1.0,1.0,8.0,1.0,17.0,1.0,273.8759450840007,,,,,,,,,273.8695832919984,275.058869333996,275.85196908399666,275.84281762500177,275.8433199589999,275.85196908399666,275.85196908399666,275.85196908399666,276.4274321670018,,,,,,,,,,,,,,,,,,,,,,,,,,,,,,,right,1.0,0.5687001659971429,,,,,,sub-010,1,random_dot,120.84190555526548,
left,left,18.0,0.0,9.0,left,1.0,0.6063138750032522,,speed,space,3.154950790994917,,,,,,0.0,1.0,1.0,1.0,9.0,0.0,18.0,0.0,276.43476545900194,,,,,,,,,276.4277381669963,277.22514037499786,278.01824625000154,278.00918712499697,278.0096178340027,278.01824625000154,278.01824625000154,278.01824625000154,278.6270332089989,,,,,,,,,,,,,,,,,,,,,,,,,,,,,,,left,1.0,0.6063138750032522,,,,,,sub-010,1,random_dot,120.84190555526548,
right,right,19.0,1.0,9.0,right,1.0,0.7670541670013336,,speed,space,3.154950790994917,,,,,,0.0,1.0,1.0,1.0,9.0,1.0,19.0,1.0,278.6342910000021,,,,,,,,,278.62729691700224,279.82588541699806,280.6178782499992,280.6090377500004,280.60946654200234,280.6178782499992,280.6178782499992,280.6178782499992,281.3945020839965,,,,,,,,,,,,,,,,,,,,,,,,,,,,,,,right,1.0,0.7670541670013336,,,,,,sub-010,1,random_dot,120.84190555526548,
left,left,20.0,0.0,10.0,left,1.0,0.4996915410010842,,speed,space,3.154950790994917,,,,,,0.0,1.0,1.0,1.0,10.0,0.0,20.0,0.0,281.4018553749993,,,,,,,,,281.39476883399766,281.4913646249988,282.28409462499985,282.2754679589998,282.27582741699734,282.28409462499985,282.28409462499985,282.28409462499985,282.78581141700124,,,,,,,,,,,,,,,,,,,,,,,,,,,,,,,left,1.0,0.4996915410010842,,,,,,sub-010,1,random_dot,120.84190555526548,
right,right,21.0,1.0,10.0,right,1.0,0.5889434580021771,,speed,space,3.154950790994917,,,,,,0.0,1.0,1.0,1.0,10.0,1.0,21.0,1.0,282.7924617089957,,,,,,,,,282.7860757919989,282.87465099999827,283.6680692919981,283.6592357499976,283.65975787500065,283.6680692919981,283.6680692919981,283.6680692919981,284.2608735419999,,,,,,,,,,,,,,,,,,,,,,,,,,,,,,,right,1.0,0.5889434580021771,,,,,,sub-010,1,random_dot,120.84190555526548,
left,left,22.0,0.0,11.0,left,1.0,0.4668746250026743,,speed,space,3.154950790994917,,,,,,0.0,1.0,1.0,1.0,11.0,0.0,22.0,0.0,284.2690761249978,,,,,,,,,284.2613375000001,285.45834533400193,286.25173304200143,286.24265249999735,286.2431421669972,286.25173304200143,286.25173304200143,286.25173304200143,286.7258030000012,,,,,,,,,,,,,,,,,,,,,,,,,,,,,,,left,1.0,0.4668746250026743,,,,,,sub-010,1,random_dot,120.84190555526548,
right,right,23.0,1.0,11.0,right,1.0,0.8525638329956564,,speed,space,3.154950790994917,,,,,,0.0,1.0,1.0,1.0,11.0,1.0,23.0,1.0,286.733401999998,,,,,,,,,286.72609429199656,287.5256889169977,288.3179172500022,288.30886479200126,288.3092947499972,288.3179172500022,288.3179172500022,288.3179172500022,289.17741450000176,,,,,,,,,,,,,,,,,,,,,,,,,,,,,,,right,1.0,0.8525638329956564,,,,,,sub-010,1,random_dot,120.84190555526548,
right,right,24.0,0.0,12.0,right,1.0,0.6170341670003836,,speed,space,3.154950790994917,,,,,,0.0,1.0,1.0,1.0,12.0,0.0,24.0,1.0,289.1849382090004,,,,,,,,,289.1776790840013,289.52546574999724,290.32863233399985,290.319406417002,290.3200660840012,290.32863233399985,290.32863233399985,290.32863233399985,290.95268295899587,,,,,,,,,,,,,,,,,,,,,,,,,,,,,,,right,1.0,0.6170341670003836,,,,,,sub-010,1,random_dot,120.84190555526548,
left,left,25.0,1.0,12.0,left,1.0,0.4826022910056053,,speed,space,3.154950790994917,,,,,,0.0,1.0,1.0,1.0,12.0,1.0,25.0,0.0,290.9592404169962,,,,,,,,,290.95291887500207,291.29222079199826,292.08460316700075,292.0758747500004,292.0763089999964,292.08460316700075,292.08460316700075,292.08460316700075,292.5690639589957,,,,,,,,,,,,,,,,,,,,,,,,,,,,,,,left,1.0,0.4826022910056053,,,,,,sub-010,1,random_dot,120.84190555526548,
right,right,26.0,0.0,13.0,right,1.0,0.536699457996292,,speed,space,3.154950790994917,,,,,,0.0,1.0,1.0,1.0,13.0,0.0,26.0,1.0,292.57575462500245,,,,,,,,,292.56933866700274,292.90920654199726,293.71085049999965,293.70250712500274,293.7030033339979,293.71085049999965,293.71085049999965,293.71085049999965,294.2515541249959,,,,,,,,,,,,,,,,,,,,,,,,,,,,,,,right,1.0,0.536699457996292,,,,,,sub-010,1,random_dot,120.84190555526548,
left,left,27.0,1.0,13.0,left,1.0,0.4204802499953075,,speed,space,3.154950790994917,,,,,,0.0,1.0,1.0,1.0,13.0,1.0,27.0,0.0,294.2585532500016,,,,,,,,,294.252036124999,294.59151470899815,295.3851739169986,295.37600391700107,295.37648329199874,295.3851739169986,295.3851739169986,295.3851739169986,295.80968975,,,,,,,,,,,,,,,,,,,,,,,,,,,,,,,left,1.0,0.4204802499953075,,,,,,sub-010,1,random_dot,120.84190555526548,
right,right,28.0,0.0,14.0,right,1.0,0.6011658340066788,,speed,space,3.154950790994917,,,,,,0.0,1.0,1.0,1.0,14.0,0.0,28.0,1.0,295.816691,,,,,,,,,295.8099668750001,297.0090762089967,297.8015140839998,297.7924293339965,297.7929018750001,297.8015140839998,297.8015140839998,297.8015140839998,298.4091293750025,,,,,,,,,,,,,,,,,,,,,,,,,,,,,,,right,1.0,0.6011658340066788,,,,,,sub-010,1,random_dot,120.84190555526548,
left,left,29.0,1.0,14.0,left,1.0,0.6125235829968005,,speed,space,3.154950790994917,,,,,,0.0,1.0,1.0,1.0,14.0,1.0,29.0,0.0,298.41681024999707,,,,,,,,,298.4095797920017,298.5077793340024,299.30081362499914,299.2919123749962,299.29226287500205,299.30081362499914,299.30081362499914,299.30081362499914,299.9201925419984,,,,,,,,,,,,,,,,,,,,,,,,,,,,,,,left,1.0,0.6125235829968005,,,,,,sub-010,1,random_dot,120.84190555526548,
left,left,30.0,0.0,15.0,left,1.0,0.6571887919999426,,speed,space,3.154950790994917,,,,,,0.0,1.0,1.0,1.0,15.0,0.0,30.0,0.0,299.92721820899897,,,,,,,,,299.9207100420026,301.1186245419958,301.911450874999,301.9027531669999,301.90328054199927,301.911450874999,301.911450874999,301.911450874999,302.5764898749985,,,,,,,,,,,,,,,,,,,,,,,,,,,,,,,left,1.0,0.6571887919999426,,,,,,sub-010,1,random_dot,120.84190555526548,
right,right,31.0,1.0,15.0,right,1.0,0.7723901250064955,,speed,space,3.154950790994917,,,,,,0.0,1.0,1.0,1.0,15.0,1.0,31.0,1.0,302.58382749999873,,,,,,,,,302.57674970899825,303.37515933399845,304.16804920900177,304.1591961669983,304.15962641700025,304.16804920900177,304.16804920900177,304.16804920900177,304.94432137499825,,,,,,,,,,,,,,,,,,,,,,,,,,,,,,,right,1.0,0.7723901250064955,,,,,,sub-010,1,random_dot,120.84190555526548,
right,right,32.0,0.0,16.0,right,1.0,0.8111036250047619,,speed,space,3.154950790994917,,,,,,0.0,1.0,1.0,1.0,16.0,0.0,32.0,1.0,304.95179537499644,,,,,,,,,304.9446269999971,305.74221358400246,306.53627858399705,306.5267561669971,306.5273503749995,306.53627858399705,306.53627858399705,306.53627858399705,307.35337404200254,,,,,,,,,,,,,,,,,,,,,,,,,,,,,,,right,1.0,0.8111036250047619,,,,,,sub-010,1,random_dot,120.84190555526548,
left,left,33.0,1.0,16.0,left,1.0,0.5070558340012212,,speed,space,3.154950790994917,,,,,,0.0,1.0,1.0,1.0,16.0,1.0,33.0,0.0,307.3605252089983,,,,,,,,,307.3536543340015,308.1519161249962,308.94510995900055,308.9361288750006,308.93680137499905,308.94510995900055,308.94510995900055,308.94510995900055,309.46277674999874,,,,,,,,,,,,,,,,,,,,,,,,,,,,,,,left,1.0,0.5070558340012212,,,,,,sub-010,1,random_dot,120.84190555526548,
left,left,34.0,0.0,17.0,left,1.0,0.6172059169985005,,speed,space,3.154950790994917,,,,,,0.0,1.0,1.0,1.0,17.0,0.0,34.0,0.0,309.4685774169993,,,,,,,,,309.4630407919976,309.80905808399984,310.6017698750002,310.5925972499972,310.59310074999667,310.6017698750002,310.6017698750002,310.6017698750002,311.22673495899653,,,,,,,,,,,,,,,,,,,,,,,,,,,,,,,left,1.0,0.6172059169985005,,,,,,sub-010,1,random_dot,120.84190555526548,
right,right,35.0,1.0,17.0,right,1.0,1.0040123750004568,,speed,space,3.154950790994917,,,,,,0.0,1.0,1.0,1.0,17.0,1.0,35.0,1.0,311.2346215419966,,,,,,,,,311.22722404199885,312.4259216249993,313.2184944170004,313.20925445899775,313.2097610839992,313.2184944170004,313.2184944170004,313.2184944170004,314.2278608339984,,,,,,,,,,,,,,,,,,,,,,,,,,,,,,,right,1.0,1.0040123750004568,,,,,,sub-010,1,random_dot,120.84190555526548,
left,left,36.0,0.0,18.0,left,1.0,0.7744263339991448,,speed,space,3.154950790994917,,,,,,0.0,1.0,1.0,1.0,18.0,0.0,36.0,0.0,314.2354185000004,,,,,,,,,314.2281639590001,314.5752645839966,315.36744049999834,315.35827441699803,315.3586711669996,315.36744049999834,315.36744049999834,315.36744049999834,316.1432473340028,,,,,,,,,,,,,,,,,,,,,,,,,,,,,,,left,1.0,0.7744263339991448,,,,,,sub-010,1,random_dot,120.84190555526548,
right,right,37.0,1.0,18.0,right,1.0,0.5736306659964612,,speed,space,3.154950790994917,,,,,,0.0,1.0,1.0,1.0,18.0,1.0,37.0,1.0,316.15067716700287,,,,,,,,,316.1435247499976,316.24158650000027,317.0342299999975,317.0254072919997,317.0258174999981,317.0342299999975,317.0342299999975,317.0342299999975,317.6100844169996,,,,,,,,,,,,,,,,,,,,,,,,,,,,,,,right,1.0,0.5736306659964612,,,,,,sub-010,1,random_dot,120.84190555526548,
left,left,38.0,0.0,19.0,left,1.0,1.0743139589976636,,speed,space,3.154950790994917,,,,,,0.0,1.0,1.0,1.0,19.0,0.0,38.0,0.0,317.61835033399984,,,,,,,,,317.61036158399656,317.95962408399646,318.7610256670014,318.7525897919986,318.75312670900166,318.7610256670014,318.7610256670014,318.7610256670014,319.8377700420024,,,,,,,,,,,,,,,,,,,,,,,,,,,,,,,left,1.0,1.0743139589976636,,,,,,sub-010,1,random_dot,120.84190555526548,
right,right,39.0,1.0,19.0,right,1.0,0.623920874997566,,speed,space,3.154950790994917,,,,,,0.0,1.0,1.0,1.0,19.0,1.0,39.0,1.0,319.8451199589981,,,,,,,,,319.83819691700046,319.93542120899656,320.727824458998,320.7192492089962,320.7197758339971,320.727824458998,320.727824458998,320.727824458998,321.3599365420014,,,,,,,,,,,,,,,,,,,,,,,,,,,,,,,right,1.0,0.623920874997566,,,,,,sub-010,1,random_dot,120.84190555526548,
left,left,40.0,0.0,20.0,left,1.0,0.5931384169962257,,speed,space,3.154950790994917,,,,,,0.0,1.0,1.0,1.0,20.0,0.0,40.0,0.0,321.3678392090005,,,,,,,,,321.36042162500235,322.5580964999972,323.35207645899936,323.3428108750013,323.3433026670027,323.35207645899936,323.35207645899936,323.35207645899936,323.95306349999737,,,,,,,,,,,,,,,,,,,,,,,,,,,,,,,left,1.0,0.5931384169962257,,,,,,sub-010,1,random_dot,120.84190555526548,
right,right,41.0,1.0,20.0,right,1.0,0.6132906670027296,,speed,space,3.154950790994917,,,,,,0.0,1.0,1.0,1.0,20.0,1.0,41.0,1.0,323.95980808400054,,,,,,,,,323.9533919169989,325.15211233399896,325.94548095900245,325.9362098339989,325.9370041669972,325.94548095900245,325.94548095900245,325.94548095900245,326.56090116700216,,,,,,,,,,,,,,,,,,,,,,,,,,,,,,,right,1.0,0.6132906670027296,,,,,,sub-010,1,random_dot,120.84190555526548,
left,left,42.0,0.0,21.0,left,1.0,0.4999793750030221,,speed,space,3.154950790994917,,,,,,0.0,1.0,1.0,1.0,21.0,0.0,42.0,0.0,326.5684380419989,,,,,,,,,326.5611897089984,327.358637708996,328.1512575000015,328.1421334170009,328.1425482499981,328.1512575000015,328.1512575000015,328.1512575000015,328.6616672500022,,,,,,,,,,,,,,,,,,,,,,,,,,,,,,,left,1.0,0.4999793750030221,,,,,,sub-010,1,random_dot,120.84190555526548,
right,right,43.0,1.0,21.0,right,1.0,0.9161712909990456,,speed,space,3.154950790994917,,,,,,0.0,1.0,1.0,1.0,21.0,1.0,43.0,1.0,328.66691345899744,,,,,,,,,328.6619294589982,329.008395208999,329.8013320419996,329.792246584002,329.792725416999,329.8013320419996,329.8013320419996,329.8013320419996,330.7287250419977,,,,,,,,,,,,,,,,,,,,,,,,,,,,,,,right,1.0,0.9161712909990456,,,,,,sub-010,1,random_dot,120.84190555526548,
right,right,44.0,0.0,22.0,right,1.0,0.6477945419974276,,speed,space,3.154950790994917,,,,,,0.0,1.0,1.0,1.0,22.0,0.0,44.0,1.0,330.73468691699964,,,,,,,,,330.72896679199766,331.52629370900104,332.3288183749973,332.31952087499667,332.3201674169977,332.3288183749973,332.3288183749973,332.3288183749973,332.986341459,,,,,,,,,,,,,,,,,,,,,,,,,,,,,,,right,1.0,0.6477945419974276,,,,,,sub-010,1,random_dot,120.84190555526548,
left,left,45.0,1.0,22.0,left,1.0,0.5658732090014382,,speed,space,3.154950790994917,,,,,,0.0,1.0,1.0,1.0,22.0,1.0,45.0,0.0,332.9932710840003,,,,,,,,,332.9866149169975,334.1757523339984,334.9687072090019,334.9597212500012,334.96021725000173,334.9687072090019,334.9687072090019,334.9687072090019,335.5429274999988,,,,,,,,,,,,,,,,,,,,,,,,,,,,,,,left,1.0,0.5658732090014382,,,,,,sub-010,1,random_dot,120.84190555526548,
left,left,46.0,0.0,23.0,left,1.0,0.9255017080067772,,speed,space,3.154950790994917,,,,,,0.0,1.0,1.0,1.0,23.0,0.0,46.0,0.0,335.55014975000086,,,,,,,,,335.5431890839973,336.3427359999987,337.1445541249996,337.1360618749968,337.1365636670016,337.1445541249996,337.1445541249996,337.1445541249996,338.0768557920019,,,,,,,,,,,,,,,,,,,,,,,,,,,,,,,left,1.0,0.9255017080067772,,,,,,sub-010,1,random_dot,120.84190555526548,
right,right,47.0,1.0,23.0,right,1.0,0.4737017500010552,,speed,space,3.154950790994917,,,,,,0.0,1.0,1.0,1.0,23.0,1.0,47.0,1.0,338.08437391700136,,,,,,,,,338.0771390000009,338.17752887499955,338.97796233400004,338.96922666700266,338.9698373339997,338.97796233400004,338.97796233400004,338.97796233400004,339.45974191700225,,,,,,,,,,,,,,,,,,,,,,,,,,,,,,,right,1.0,0.4737017500010552,,,,,,sub-010,1,random_dot,120.84190555526548,
right,right,48.0,0.0,24.0,right,1.0,0.5733511660000659,,speed,space,3.154950790994917,,,,,,0.0,1.0,1.0,1.0,24.0,0.0,48.0,1.0,339.4679334169996,,,,,,,,,339.4602183339957,339.8091291669989,340.6022478340019,340.5931064999968,340.5936219169962,340.6022478340019,340.6022478340019,340.6022478340019,341.18673683400266,,,,,,,,,,,,,,,,,,,,,,,,,,,,,,,right,1.0,0.5733511660000659,,,,,,sub-010,1,random_dot,120.84190555526548,
left,left,49.0,1.0,24.0,left,1.0,0.5064894579991233,,speed,space,3.154950790994917,,,,,,0.0,1.0,1.0,1.0,24.0,1.0,49.0,0.0,341.193887292,,,,,,,,,341.18724058399675,341.28473970900086,342.0786961249978,342.0698991669997,342.07064783399983,342.0786961249978,342.0786961249978,342.0786961249978,342.58730600000126,,,,,,,,,,,,,,,,,,,,,,,,,,,,,,,left,1.0,0.5064894579991233,,,,,,sub-010,1,random_dot,120.84190555526548,
right,right,50.0,0.0,25.0,right,1.0,0.6420879580036853,,speed,space,3.154950790994917,,,,,,0.0,1.0,1.0,1.0,25.0,0.0,50.0,1.0,342.5947620000006,,,,,,,,,342.58783437500097,343.3854687089988,344.1787892499997,344.16973458400025,344.1705041250025,344.1787892499997,344.1787892499997,344.1787892499997,344.8257921249969,,,,,,,,,,,,,,,,,,,,,,,,,,,,,,,right,1.0,0.6420879580036853,,,,,,sub-010,1,random_dot,120.84190555526548,
left,left,51.0,1.0,25.0,left,1.0,0.4705332500016084,,speed,space,3.154950790994917,,,,,,0.0,1.0,1.0,1.0,25.0,1.0,51.0,0.0,344.8340877919982,,,,,,,,,344.8260774169976,344.9250973340022,345.7176694169975,345.70878933399945,345.70920925000246,345.7176694169975,345.7176694169975,345.7176694169975,346.1932772919972,,,,,,,,,,,,,,,,,,,,,,,,,,,,,,,left,1.0,0.4705332500016084,,,,,,sub-010,1,random_dot,120.84190555526548,
right,right,52.0,0.0,26.0,right,1.0,0.6262959579980816,,speed,space,3.154950790994917,,,,,,0.0,1.0,1.0,1.0,26.0,0.0,52.0,1.0,346.2014481669976,,,,,,,,,346.1937360000011,346.54198583400284,347.33465208399866,347.32604937499855,347.3265221249967,347.33465208399866,347.33465208399866,347.33465208399866,347.9700278340024,,,,,,,,,,,,,,,,,,,,,,,,,,,,,,,right,1.0,0.6262959579980816,,,,,,sub-010,1,random_dot,120.84190555526548,
left,left,53.0,1.0,26.0,left,1.0,0.5331659589937772,,speed,space,3.154950790994917,,,,,,0.0,1.0,1.0,1.0,26.0,1.0,53.0,0.0,347.97782929200184,,,,,,,,,347.97054858400224,348.7687345419981,349.560981083996,349.55264216700016,349.5532527499963,349.560981083996,349.560981083996,349.560981083996,350.10277124999993,,,,,,,,,,,,,,,,,,,,,,,,,,,,,,,left,1.0,0.5331659589937772,,,,,,sub-010,1,random_dot,120.84190555526548,
left,left,54.0,0.0,27.0,left,1.0,0.5806523749997723,,speed,space,3.154950790994917,,,,,,0.0,1.0,1.0,1.0,27.0,0.0,54.0,0.0,350.1093363339969,,,,,,,,,350.103204084,350.19153641699813,350.9852037919991,350.9761920419988,350.97661949999747,350.9852037919991,350.9852037919991,350.9852037919991,351.5706970839965,,,,,,,,,,,,,,,,,,,,,,,,,,,,,,,left,1.0,0.5806523749997723,,,,,,sub-010,1,random_dot,120.84190555526548,
right,right,55.0,1.0,27.0,right,1.0,0.6961026249991846,,speed,space,3.154950790994917,,,,,,0.0,1.0,1.0,1.0,27.0,1.0,55.0,1.0,351.5793188339958,,,,,,,,,351.57123633399897,352.76876279200224,353.5618301669965,353.55272429199977,353.55349279200163,353.5618301669965,353.5618301669965,353.5618301669965,354.2611132090024,,,,,,,,,,,,,,,,,,,,,,,,,,,,,,,right,1.0,0.6961026249991846,,,,,,sub-010,1,random_dot,120.84190555526548,
right,right,56.0,0.0,28.0,right,1.0,0.7428027089990792,,speed,space,3.154950790994917,,,,,,0.0,1.0,1.0,1.0,28.0,0.0,56.0,1.0,354.2686305839961,,,,,,,,,354.2614011670012,355.058021083998,355.8518427090021,355.8429969170029,355.8434940840016,355.8518427090021,355.8518427090021,355.8518427090021,356.60145275000104,,,,,,,,,,,,,,,,,,,,,,,,,,,,,,,right,1.0,0.7428027089990792,,,,,,sub-010,1,random_dot,120.84190555526548,
left,left,57.0,1.0,28.0,left,1.0,0.5385933330035186,,speed,space,3.154950790994917,,,,,,0.0,1.0,1.0,1.0,28.0,1.0,57.0,0.0,356.6083504999988,,,,,,,,,356.60171412499767,357.79258145899803,358.5855385839968,358.5764541250028,358.57693558400206,358.5855385839968,358.5855385839968,358.5855385839968,359.12711245899845,,,,,,,,,,,,,,,,,,,,,,,,,,,,,,,left,1.0,0.5385933330035186,,,,,,sub-010,1,random_dot,120.84190555526548,
right,right,58.0,0.0,29.0,right,1.0,0.6620019580004737,,speed,space,3.154950790994917,,,,,,0.0,1.0,1.0,1.0,29.0,0.0,58.0,1.0,359.13463604199933,,,,,,,,,359.1273748750027,359.9259129999991,360.7183408749988,360.7096965000019,360.7101132919997,360.7183408749988,360.7183408749988,360.7183408749988,361.3853280420008,,,,,,,,,,,,,,,,,,,,,,,,,,,,,,,right,1.0,0.6620019580004737,,,,,,sub-010,1,random_dot,120.84190555526548,
left,left,59.0,1.0,29.0,left,1.0,0.6357293749970268,,speed,space,3.154950790994917,,,,,,0.0,1.0,1.0,1.0,29.0,1.0,59.0,0.0,361.3922305000015,,,,,,,,,361.3857136669976,362.1759327920008,362.9678921669984,362.9588615419998,362.9593402089959,362.9678921669984,362.9678921669984,362.9678921669984,363.610132709,,,,,,,,,,,,,,,,,,,,,,,,,,,,,,,left,1.0,0.6357293749970268,,,,,,sub-010,1,random_dot,120.84190555526548,
,,1.0,1.0,0.0,,,,,speed,space,3.154950790994917,,,,,,0.0,1.0,1.0,1.0,,,,,,,,,,,,,,,,,,,,,,,,,,,,,,,,,,,,,,,,,,,,,,,,,,,,,,,,,,,,,sub-010,1,random_dot,120.84190555526548,
,,,,,,,,,,,,,,,,,,,,,,,,,,,,,,,,,,,,,,,,,,,,,,,,,,,,,,,,,,,,,,,,,,,,,,,,,,,,,363.61516333399777,363.62224162500206,368.6186918750027,368.6092365000004,sub-010,1,random_dot,120.84190555526548,
