direction,corrAns,randomInstr,practice_trials.thisRepN,practice_trials.thisTrialN,practice_trials.thisN,practice_trials.thisIndex,instr_trials.thisRepN,instr_trials.thisTrialN,instr_trials.thisN,instr_trials.thisIndex,test_trials.thisRepN,test_trials.thisTrialN,test_trials.thisN,test_trials.thisIndex,thisRow.t,notes,general_instruction.started,textGeneralInstr.started,respGeneralInstr.started,general_instruction.stopped,respGeneralInstr.keys,respGeneralInstr.rt,respGeneralInstr.duration,ITI.started,fixcross.started,fixcross.stopped,ITI.stopped,dots.started,backgroundDots.started,stimulusDots.started,respDots.started,stimulusDots.stopped,dots.stopped,respDots.keys,respDots.corr,respDots.rt,respDots.duration,feedback.started,textFeedback.started,feedback.stopped,textFeedback.stopped,info.started,textInfo.started,keyRespInfo.started,info.stopped,keyRespInfo.keys,keyRespInfo.rt,keyRespInfo.duration,test_instruction.started,textTestInstr.started,respTestInstr.started,test_instruction.stopped,respTestInstr.keys,respTestInstr.rt,respTestInstr.duration,random_instruction.started,textRandomInstr.started,respRandomInstr.started,random_instruction.stopped,respRandomInstr.keys,respRandomInstr.rt,respRandomInstr.duration,goodbye.started,textGoodbye.started,textGoodbye.stopped,goodbye.stopped,participant,session,expName,frameRate,Unnamed: 74
,,,,,,,,,,,,,,,,,0.0120278999675065,0.015418299997691,0.015418299997691,25.260021900001448,space,43.17730029998347,,,,,,,,,,,,,,,,,,,,,,,,,,,,,,,,,,,,,,,,,,,,,sub-039,1.0,random_dot,60.14227255806711,
right,right,,0.0,0.0,0.0,1.0,,,,,,,,,25.3370075999992,,,,,,,,,25.326388799992856,26.073979199980386,26.87472089997027,26.858667999971654,26.85870589996921,26.87472089997027,26.87472089997027,26.87472089997027,31.858355599979404,43.845268199977,left,0.0,34.888993000029586,,43.84873899997911,43.87184489995707,44.359284599951934,,,,,,,,,,,,,,,,,,,,,,,,,,,sub-039,1.0,random_dot,60.14227255806711,
left,left,,0.0,1.0,1.0,0.0,,,,,,,,,44.37578279996524,,,,,,,,,44.35996629996225,45.15894649998518,45.95942319999449,45.94374679995235,45.943783800001256,45.95942319999449,45.95942319999449,45.95942319999449,50.94353419996333,52.37949279998429,right,0.0,24.349484300008044,,52.38032469997415,52.393028099962976,52.877723299956415,52.89311079995241,,,,,,,,,,,,,,,,,,,,,,,,,,sub-039,1.0,random_dot,60.14227255806711,
left,left,,1.0,0.0,2.0,0.0,,,,,,,,,52.89311079995241,,,,,,,,,52.87831379997078,53.243045199953485,54.043685899989214,54.02774689998478,54.02778299996862,54.043685899989214,54.043685899989214,54.043685899989214,59.0275959999999,60.84655399998883,right,0.0,24.7310351000051,,60.84737400000449,60.860479999973904,61.34498870000243,61.36044859996764,,,,,,,,,,,,,,,,,,,,,,,,,,sub-039,1.0,random_dot,60.14227255806711,
right,right,,1.0,1.0,3.0,1.0,,,,,,,,,61.36044859996764,,,,,,,,,61.34570949996123,61.46037669997895,62.26143979997141,62.24537879996933,62.24541859998135,62.26143979997141,62.26143979997141,62.26143979997141,67.24503259995254,68.81399589998182,right,1.0,24.482255799986888,,68.81483699998353,68.83154980000108,69.32819339999696,,,,,,,,,,,,,,,,,,,,,,,,,,,sub-039,1.0,random_dot,60.14227255806711,
left,left,,2.0,0.0,4.0,0.0,,,,,,,,,69.34451719996287,,,,,,,,,69.32887450000271,70.5280668999767,71.32885299995542,71.31267529999604,71.31271209998522,71.32885299995542,71.32885299995542,71.32885299995542,,72.51410199998645,left,1.0,19.115505400055557,,72.51493609999306,72.52822059998289,73.0129287999589,73.02805639995495,,,,,,,,,,,,,,,,,,,,,,,,,,sub-039,1.0,random_dot,60.14227255806711,
right,right,,2.0,1.0,5.0,1.0,,,,,,,,,73.02805639995495,,,,,,,,,73.01352029998088,73.12831229995936,73.9290398999583,73.9128844999941,73.91292249999242,73.9290398999583,73.9290398999583,73.9290398999583,,75.16488509997725,right,1.0,19.16919450002024,,75.16569279995747,75.1785416000057,75.66307549999328,75.67844150000019,,,,,,,,,,,,,,,,,,,,,,,,,,sub-039,1.0,random_dot,60.14227255806711,
right,right,,3.0,0.0,6.0,1.0,,,,,,,,,75.67844150000019,,,,,,,,,75.66376939998008,76.0285167999682,76.82917119999183,76.81332049996126,76.81335879996186,76.82917119999183,76.82917119999183,76.82917119999183,,78.66486590000568,left,0.0,19.76553390000481,,78.66571329999715,78.67860389995622,79.16327919997275,79.17889029998332,,,,,,,,,,,,,,,,,,,,,,,,,,sub-039,1.0,random_dot,60.14227255806711,
left,left,,3.0,1.0,7.0,0.0,,,,,,,,,79.17889029998332,,,,,,,,,79.16390729998238,79.27889159996994,80.07959839998512,80.0636199999717,80.0636608999921,80.07959839998512,80.07959839998512,80.07959839998512,,82.6320257000043,left,1.0,20.471383500029333,,82.63287829997716,82.64578589994926,83.13033449999057,83.14584849996027,,,,,,,,,,,,,,,,,,,,,,,,,,sub-039,1.0,random_dot,60.14227255806711,
right,right,,4.0,0.0,8.0,1.0,,,,,,,,,83.14584849996027,,,,,,,,,83.13100069999928,83.49598750000587,84.29667879996123,84.2803847999894,84.28042209998239,84.29667879996123,84.29667879996123,84.29667879996123,,88.28238459996646,right,1.0,21.915385100001004,,88.28316979994997,88.29612529999577,88.78094749996671,88.79621749999933,,,,,,,,,,,,,,,,,,,,,,,,,,sub-039,1.0,random_dot,60.14227255806711,
left,left,,4.0,1.0,9.0,0.0,,,,,,,,,88.79621749999933,,,,,,,,,88.78162759996485,88.8965166999842,89.69709259999217,89.68086689995835,89.68090429995209,89.69709259999217,89.69709259999217,89.69709259999217,,92.9662221999606,left,1.0,21.192559199989773,,92.9670268999762,92.980223999999,93.46492179995404,93.48003679997056,,,,,,,,,,,,,,,,,,,,,,,,,,sub-039,1.0,random_dot,60.14227255806711,
left,left,,5.0,0.0,10.0,0.0,,,,,,,,,93.48003679997056,,,,,,,,,93.46553829999176,94.28026390000014,95.080945099995,95.06498249998548,95.06502189999446,95.080945099995,95.080945099995,95.080945099995,,99.74997999996413,left,1.0,22.59870129998308,,99.7508444999694,99.76426649995848,100.24876289995154,100.26421920000575,,,,,,,,,,,,,,,,,,,,,,,,,,sub-039,1.0,random_dot,60.14227255806711,
right,right,,5.0,1.0,11.0,1.0,,,,,,,,,100.26421920000575,,,,,,,,,100.24938860000113,101.46417120000116,102.2647403999581,102.24895879998805,102.24899539997568,102.2647403999581,102.2647403999581,102.2647403999581,,105.11715459998231,right,1.0,20.78455679997569,,105.11794959998224,105.13117509998848,105.61609639995731,105.6314339999808,,,,,,,,,,,,,,,,,,,,,,,,,,sub-039,1.0,random_dot,60.14227255806711,
right,right,,6.0,0.0,12.0,1.0,,,,,,,,,105.6314339999808,,,,,,,,,105.61670849996152,105.73130049998872,106.53202009998496,106.51610499998787,106.51614540000446,106.53202009998496,106.53202009998496,106.53202009998496,111.51579309999944,111.55097669997484,left,0.0,22.944601900002453,,111.55182180000702,111.56493880000198,112.04975969996303,112.06519509997452,,,,,,,,,,,,,,,,,,,,,,,,,,sub-039,1.0,random_dot,60.14227255806711,
left,left,,6.0,1.0,13.0,0.0,,,,,,,,,112.06519509997452,,,,,,,,,112.05044469999848,112.16517339996062,112.96593199996278,112.94976909999968,112.94980750000104,112.96593199996278,112.96593199996278,112.96593199996278,117.94956069998445,118.26851269998588,left,1.0,23.2347582000657,,118.26931489998242,118.28233279997949,118.76715239998884,118.78254719998222,,,,,,,,,,,,,,,,,,,,,,,,,,sub-039,1.0,random_dot,60.14227255806711,
left,left,,7.0,0.0,14.0,0.0,,,,,,,,,118.78254719998222,,,,,,,,,118.76779139996506,119.98250429995824,120.78329569997732,120.76732210000046,120.76735989999725,120.78329569997732,120.78329569997732,120.78329569997732,,125.35237079998478,right,0.0,22.48760360002052,,125.35321969998768,125.3664702999522,125.85089010000227,125.86643880000338,,,,,,,,,,,,,,,,,,,,,,,,,,sub-039,1.0,random_dot,60.14227255806711,
right,right,,7.0,1.0,15.0,1.0,,,,,,,,,125.86643880000338,,,,,,,,,125.85150539997268,127.06658439995954,127.8670737000066,127.85111190000316,127.85115219996078,127.8670737000066,127.8670737000066,127.8670737000066,,132.25306709995493,right,1.0,22.319973700039554,,132.25387379998574,132.26688119996106,132.75035319995368,132.7664624999743,,,,,,,,,,,,,,,,,,,,,,,,,,sub-039,1.0,random_dot,60.14227255806711,
right,right,,8.0,0.0,16.0,1.0,,,,,,,,,132.7664624999743,,,,,,,,,132.7506511999527,133.11688699998194,133.9173185999971,133.90072209999198,133.90073920000577,133.9173185999971,133.9173185999971,133.9173185999971,,135.920110499952,right,1.0,19.92790320003405,,135.92094749998068,135.93410589999985,136.4183565999847,136.43407219997607,,,,,,,,,,,,,,,,,,,,,,,,,,sub-039,1.0,random_dot,60.14227255806711,
left,left,,8.0,1.0,17.0,0.0,,,,,,,,,136.43407219997607,,,,,,,,,136.41904859995702,136.53411759994924,137.33437019999838,137.31879509997088,137.318837800005,137.33437019999838,137.33437019999838,137.33437019999838,,138.30410519998986,left,1.0,18.888972599990662,,138.3049777999986,138.31781599996611,138.8019379999605,138.81759809999494,,,,,,,,,,,,,,,,,,,,,,,,,,sub-039,1.0,random_dot,60.14227255806711,
right,right,,9.0,0.0,18.0,1.0,,,,,,,,,138.81759809999494,,,,,,,,,138.80263689998537,140.01773019996472,140.81838069995865,140.80216769996332,140.80220479995478,140.81838069995865,140.81838069995865,140.81838069995865,,141.88733909995062,right,1.0,18.991654900019057,,141.8881375999772,141.90111499995692,142.38576549995923,142.4011992999585,,,,,,,,,,,,,,,,,,,,,,,,,,sub-039,1.0,random_dot,60.14227255806711,
left,left,,9.0,1.0,19.0,0.0,,,,,,,,,142.4011992999585,,,,,,,,,142.3863752000034,142.75138739997055,143.5519687999622,143.5360040999949,143.53604119998636,143.5519687999622,143.5519687999622,143.5519687999622,,144.3542852999526,left,1.0,18.721295300056227,,144.35507439996582,144.36801119998563,144.85247719998006,144.86834960000124,,,,,,,,,,,,,,,,,,,,,,,,,,sub-039,1.0,random_dot,60.14227255806711,
,,,,,,,,,,,,,,,,,,,,,,,,,,,,,,,,,,,,,,,,,,144.8525798000046,144.86834960000124,144.86834960000124,157.62136869999813,space,30.685224800021388,,,,,,,,,,,,,,,,,,,,sub-039,1.0,random_dot,60.14227255806711,
,,,,,,,,,,,,,,,,,,,,,,,,,,,,,,,,,,,,,,,,,,,,,,,,,157.62143020000076,157.636044999992,157.636044999992,170.5059787999489,space,30.794893500045877,,,,,,,,,,,,,sub-039,1.0,random_dot,60.14227255806711,
right,right,speed,,,,,0.0,0.0,0.0,1.0,0.0,0.0,0.0,1.0,173.5713041999843,,,,,,,,,173.5677378999535,173.92088049999438,174.72140419995412,174.70556799997576,174.7056063999771,174.72140419995412,174.72140419995412,174.72140419995412,,175.4569522999809,right,1.0,18.66711979999673,,,,,,,,,,,,,,,,,,,,170.51254009996774,170.553602400003,170.553602400003,173.5563029999612,space,20.92161090002628,,,,,,sub-039,1.0,random_dot,60.14227255806711,
left,left,speed,,,,,0.0,0.0,0.0,1.0,0.0,1.0,1.0,0.0,175.47098159999587,,,,,,,,,175.45903779997025,176.6710189000005,177.4716867999523,177.45582129998365,177.45586069999263,177.4716867999523,177.4716867999523,177.4716867999523,,178.09078219998628,left,1.0,18.54902650002623,,,,,,,,,,,,,,,,,,,,,,,,,,,,,,,sub-039,1.0,random_dot,60.14227255806711,
right,right,speed,,,,,0.0,0.0,0.0,1.0,1.0,0.0,2.0,1.0,178.1044410999748,,,,,,,,,178.09243679995416,178.90454590000445,179.70530849997886,179.68932549998863,179.68936839996604,179.70530849997886,179.70530849997886,179.70530849997886,,180.4076548999874,right,1.0,18.623294100048952,,,,,,,,,,,,,,,,,,,,,,,,,,,,,,,sub-039,1.0,random_dot,60.14227255806711,
left,left,speed,,,,,0.0,0.0,0.0,1.0,1.0,1.0,3.0,0.0,180.42145369999344,,,,,,,,,180.4094095999608,181.6215438999934,182.422151799954,182.40608639997663,182.4061221999582,182.422151799954,182.422151799954,182.422151799954,,183.15773219999392,left,1.0,18.65473030001158,,,,,,,,,,,,,,,,,,,,,,,,,,,,,,,sub-039,1.0,random_dot,60.14227255806711,
right,right,speed,,,,,0.0,0.0,0.0,1.0,2.0,0.0,4.0,1.0,183.1716110999696,,,,,,,,,183.15943659999172,184.37173529999563,185.1723067999701,185.156162499974,185.15620839997428,185.1723067999701,185.1723067999701,185.1723067999701,,188.0584878999507,right,1.0,20.811917400045783,,,,,,,,,,,,,,,,,,,,,,,,,,,,,,,sub-039,1.0,random_dot,60.14227255806711,
left,left,speed,,,,,0.0,0.0,0.0,1.0,2.0,1.0,5.0,0.0,188.0721372999833,,,,,,,,,188.06016389996512,188.87211329996356,189.67276849999325,189.6568166999496,189.6568527999916,189.67276849999325,189.67276849999325,189.67276849999325,,190.39176939998288,left,1.0,18.64858979999553,,,,,,,,,,,,,,,,,,,,,,,,,,,,,,,sub-039,1.0,random_dot,60.14227255806711,
right,right,speed,,,,,0.0,0.0,0.0,1.0,3.0,0.0,6.0,1.0,190.4053961999598,,,,,,,,,190.39381929999217,190.75564859999577,191.55637109995587,191.5399661999545,191.54000569996424,191.55637109995587,191.55637109995587,191.55637109995587,,192.57531970000127,right,1.0,18.943613500043284,,,,,,,,,,,,,,,,,,,,,,,,,,,,,,,sub-039,1.0,random_dot,60.14227255806711,
left,left,speed,,,,,0.0,0.0,0.0,1.0,3.0,1.0,7.0,0.0,192.5892864000052,,,,,,,,,192.5769924999913,192.9392086999724,193.73996819998135,193.7236209999537,193.72365629998967,193.73996819998135,193.73996819998135,193.73996819998135,,194.692163300002,left,1.0,18.88247269997373,,,,,,,,,,,,,,,,,,,,,,,,,,,,,,,sub-039,1.0,random_dot,60.14227255806711,
right,right,speed,,,,,0.0,0.0,0.0,1.0,4.0,0.0,8.0,1.0,194.70608099998208,,,,,,,,,194.6938274999848,195.05603709997376,195.85679200000595,195.840648399957,195.8406858999515,195.85679200000595,195.85679200000595,195.85679200000595,,196.7089416999952,right,1.0,18.770732900011357,,,,,,,,,,,,,,,,,,,,,,,,,,,,,,,sub-039,1.0,random_dot,60.14227255806711,
left,left,speed,,,,,0.0,0.0,0.0,1.0,4.0,1.0,9.0,0.0,196.72285799996465,,,,,,,,,196.7106354999705,197.0736018999596,197.8735911999829,197.8572890999494,197.8573371999664,197.8735911999829,197.8735911999829,197.8735911999829,,198.77610069996445,left,1.0,18.821616500034,,,,,,,,,,,,,,,,,,,,,,,,,,,,,,,sub-039,1.0,random_dot,60.14227255806711,
right,right,speed,,,,,0.0,0.0,0.0,1.0,5.0,0.0,10.0,1.0,198.78993159998208,,,,,,,,,198.777773699956,199.989806699974,200.7905816999846,200.77433879999444,200.77437659999123,200.7905816999846,200.7905816999846,200.7905816999846,,201.6092851999565,left,0.0,18.75225280004088,,,,,,,,,,,,,,,,,,,,,,,,,,,,,,,sub-039,1.0,random_dot,60.14227255806711,
left,left,speed,,,,,0.0,0.0,0.0,1.0,5.0,1.0,11.0,0.0,201.6233183000004,,,,,,,,,201.6110545999836,202.42350089998217,203.22415249998448,203.20801060000667,203.2080480000004,203.22415249998448,203.22415249998448,203.22415249998448,,204.25964679999743,left,1.0,18.95411440002499,,,,,,,,,,,,,,,,,,,,,,,,,,,,,,,sub-039,1.0,random_dot,60.14227255806711,
left,left,speed,,,,,0.0,0.0,0.0,1.0,6.0,0.0,12.0,0.0,204.2737383999629,,,,,,,,,204.26132429996505,205.07340130000372,205.8742773999693,205.85802069999045,205.8580586999888,205.8742773999693,205.8742773999693,205.8742773999693,,207.17641339998227,left,1.0,19.222109900030773,,,,,,,,,,,,,,,,,,,,,,,,,,,,,,,sub-039,1.0,random_dot,60.14227255806711,
right,right,speed,,,,,0.0,0.0,0.0,1.0,6.0,1.0,13.0,1.0,207.19029909995152,,,,,,,,,207.1780512999976,207.990612900001,208.79141879995584,208.7754076999845,208.7754459999851,208.79141879995584,208.79141879995584,208.79141879995584,,209.36006279999856,right,1.0,18.50200710003264,,,,,,,,,,,,,,,,,,,,,,,,,,,,,,,sub-039,1.0,random_dot,60.14227255806711,
left,left,speed,,,,,0.0,0.0,0.0,1.0,7.0,0.0,14.0,0.0,209.37418459996115,,,,,,,,,209.36167909996584,210.17419130000053,210.97482790000504,210.95874729997013,210.95878579997225,210.97482790000504,210.97482790000504,210.97482790000504,,211.5939447999699,left,1.0,18.53864510002313,,,,,,,,,,,,,,,,,,,,,,,,,,,,,,,sub-039,1.0,random_dot,60.14227255806711,
right,right,speed,,,,,0.0,0.0,0.0,1.0,7.0,1.0,15.0,1.0,211.60808749997523,,,,,,,,,211.5955729999696,212.4076162999845,213.2083079000004,213.19213439995656,213.19217239995487,213.2083079000004,213.2083079000004,213.2083079000004,,213.76063189998968,right,1.0,18.479560300009325,,,,,,,,,,,,,,,,,,,,,,,,,,,,,,,sub-039,1.0,random_dot,60.14227255806711,
left,left,speed,,,,,0.0,0.0,0.0,1.0,8.0,0.0,16.0,0.0,213.77448679995723,,,,,,,,,213.7622638999601,214.57442199997604,215.37508189998331,215.35907889995724,215.35911580000536,215.37508189998331,215.37508189998331,215.37508189998331,,216.2110714999726,left,1.0,18.75760270003229,,,,,,,,,,,,,,,,,,,,,,,,,,,,,,,sub-039,1.0,random_dot,60.14227255806711,
right,right,speed,,,,,0.0,0.0,0.0,1.0,8.0,1.0,17.0,1.0,216.224596199987,,,,,,,,,216.2126954999985,217.0245727999718,217.82547369995157,217.80916149995755,217.8091979000019,217.82547369995157,217.82547369995157,217.82547369995157,,218.4778648999636,right,1.0,18.57183090003673,,,,,,,,,,,,,,,,,,,,,,,,,,,,,,,sub-039,1.0,random_dot,60.14227255806711,
left,left,speed,,,,,0.0,0.0,0.0,1.0,9.0,0.0,18.0,0.0,218.4915096999612,,,,,,,,,218.4795051999972,219.2916667999816,220.0921013999614,220.07618340000045,220.07622200000333,220.0921013999614,220.0921013999614,220.0921013999614,,220.76120029995215,left,1.0,18.58779369998956,,,,,,,,,,,,,,,,,,,,,,,,,,,,,,,sub-039,1.0,random_dot,60.14227255806711,
right,right,speed,,,,,0.0,0.0,0.0,1.0,9.0,1.0,19.0,1.0,220.77511359995697,,,,,,,,,220.7628200000036,220.8751290999935,221.67581419995983,221.65942009998253,221.65945809998084,221.67581419995983,221.67581419995983,221.67581419995983,,222.31139249994885,right,1.0,18.566223500063643,,,,,,,,,,,,,,,,,,,,,,,,,,,,,,,sub-039,1.0,random_dot,60.14227255806711,
left,left,speed,,,,,0.0,0.0,0.0,1.0,10.0,0.0,20.0,0.0,222.32518849999175,,,,,,,,,222.31301659997555,223.12525009998356,223.92606450000312,223.90992839995303,223.9099642999936,223.92606450000312,223.92606450000312,223.92606450000312,,224.6948012999492,left,1.0,18.694349400000647,,,,,,,,,,,,,,,,,,,,,,,,,,,,,,,sub-039,1.0,random_dot,60.14227255806711,
right,right,speed,,,,,0.0,0.0,0.0,1.0,10.0,1.0,21.0,1.0,224.7086971999961,,,,,,,,,224.6964613999589,224.8087060999824,225.60941579996145,225.59332449996143,225.59336179995444,225.60941579996145,225.60941579996145,225.60941579996145,,227.5285868999781,right,1.0,19.84320510004181,,,,,,,,,,,,,,,,,,,,,,,,,,,,,,,sub-039,1.0,random_dot,60.14227255806711,
left,left,speed,,,,,0.0,0.0,0.0,1.0,11.0,0.0,22.0,0.0,227.5424505999545,,,,,,,,,227.53019629995103,227.64243179996265,228.44305619999068,228.42705279996156,228.42709179996743,228.44305619999068,228.44305619999068,228.44305619999068,,229.61221649998333,left,1.0,19.102576600038446,,,,,,,,,,,,,,,,,,,,,,,,,,,,,,,sub-039,1.0,random_dot,60.14227255806711,
right,right,speed,,,,,0.0,0.0,0.0,1.0,11.0,1.0,23.0,1.0,229.62579159997404,,,,,,,,,229.6138646999607,230.82575639995048,231.62668649997795,231.6104524999973,231.6104906999972,231.62668649997795,231.62668649997795,231.62668649997795,,232.3789724999806,right,1.0,18.685072100022808,,,,,,,,,,,,,,,,,,,,,,,,,,,,,,,sub-039,1.0,random_dot,60.14227255806711,
right,right,speed,,,,,0.0,0.0,0.0,1.0,12.0,0.0,24.0,1.0,232.39282670000105,,,,,,,,,232.38058659998933,232.49275919998763,233.2935740999528,233.27746979997028,233.27750759996707,233.2935740999528,233.2935740999528,233.2935740999528,,234.7291861999547,right,1.0,19.367373100016263,,,,,,,,,,,,,,,,,,,,,,,,,,,,,,,sub-039,1.0,random_dot,60.14227255806711,
left,left,speed,,,,,0.0,0.0,0.0,1.0,12.0,1.0,25.0,0.0,234.74301839998225,,,,,,,,,234.7308263999876,235.09313930000644,235.8937247999711,235.8773859999492,235.8774231999996,235.8937247999711,235.8937247999711,235.8937247999711,,236.82955709996168,left,1.0,18.854588099988177,,,,,,,,,,,,,,,,,,,,,,,,,,,,,,,sub-039,1.0,random_dot,60.14227255806711,
left,left,speed,,,,,0.0,0.0,0.0,1.0,13.0,0.0,26.0,0.0,236.8432485999656,,,,,,,,,236.83125829999332,237.19324359996244,237.9939853999531,237.97782450000523,237.97786189999897,237.9939853999531,237.9939853999531,237.9939853999531,,239.59610119997524,left,1.0,19.524388400022872,,,,,,,,,,,,,,,,,,,,,,,,,,,,,,,sub-039,1.0,random_dot,60.14227255806711,
right,right,speed,,,,,0.0,0.0,0.0,1.0,13.0,1.0,27.0,1.0,239.61011409998173,,,,,,,,,239.5977763999836,239.71000029996503,240.51070619997336,240.4946732999524,240.49471689999336,240.51070619997336,240.51070619997336,240.51070619997336,,241.1299541000044,right,1.0,18.551350100024138,,,,,,,,,,,,,,,,,,,,,,,,,,,,,,,sub-039,1.0,random_dot,60.14227255806711,
left,left,speed,,,,,0.0,0.0,0.0,1.0,14.0,0.0,28.0,0.0,241.14365709997944,,,,,,,,,241.13160039996728,241.49377729999836,242.29434919997584,242.2782126999809,242.27825169998687,242.29434919997584,242.29434919997584,242.29434919997584,,242.81301619997248,left,1.0,18.44631060003303,,,,,,,,,,,,,,,,,,,,,,,,,,,,,,,sub-039,1.0,random_dot,60.14227255806711,
right,right,speed,,,,,0.0,0.0,0.0,1.0,14.0,1.0,29.0,1.0,242.8271681999904,,,,,,,,,242.81471459998284,244.0271276999847,244.82758179999652,244.8106461999705,244.8106637999881,244.82758179999652,244.82758179999652,244.82758179999652,,245.54684179998003,right,1.0,18.650822600058746,,,,,,,,,,,,,,,,,,,,,,,,,,,,,,,sub-039,1.0,random_dot,60.14227255806711,
left,left,speed,,,,,0.0,0.0,0.0,1.0,15.0,0.0,30.0,0.0,245.56061509996653,,,,,,,,,245.548478599987,245.66069659998172,246.46134709997568,246.4454801999964,246.4455168999848,246.46134709997568,246.46134709997568,246.46134709997568,,247.51361490000272,left,1.0,18.971172800054774,,,,,,,,,,,,,,,,,,,,,,,,,,,,,,,sub-039,1.0,random_dot,60.14227255806711,
right,right,speed,,,,,0.0,0.0,0.0,1.0,15.0,1.0,31.0,1.0,247.527448799985,,,,,,,,,247.51525699999183,248.7276048999629,249.52820080000677,249.51222459995188,249.5122794999625,249.52820080000677,249.52820080000677,249.52820080000677,,250.1137278999668,right,1.0,18.516732899995983,,,,,,,,,,,,,,,,,,,,,,,,,,,,,,,sub-039,1.0,random_dot,60.14227255806711,
right,right,speed,,,,,0.0,0.0,0.0,1.0,16.0,0.0,32.0,1.0,250.1277446000022,,,,,,,,,250.11535320000257,250.22780890000288,251.02844399999597,251.01239749998783,251.01243479998084,251.02844399999597,251.02844399999597,251.02844399999597,,252.18070189998247,right,1.0,19.075466500013132,,,,,,,,,,,,,,,,,,,,,,,,,,,,,,,sub-039,1.0,random_dot,60.14227255806711,
left,left,speed,,,,,0.0,0.0,0.0,1.0,16.0,1.0,33.0,0.0,252.19459769997047,,,,,,,,,252.18239879998143,252.5446159999701,253.34544069995167,253.3291132999584,253.32915089995367,253.34544069995167,253.34544069995167,253.34544069995167,,254.28106199996543,left,1.0,18.858040800027084,,,,,,,,,,,,,,,,,,,,,,,,,,,,,,,sub-039,1.0,random_dot,60.14227255806711,
left,left,speed,,,,,0.0,0.0,0.0,1.0,17.0,0.0,34.0,0.0,254.29490280000027,,,,,,,,,254.28268269996624,254.6449831000064,255.44558629998937,255.4295721999952,255.4296090999851,255.44558629998937,255.44558629998937,255.44558629998937,,257.71458019997226,left,1.0,20.19759910000721,,,,,,,,,,,,,,,,,,,,,,,,,,,,,,,sub-039,1.0,random_dot,60.14227255806711,
right,right,speed,,,,,0.0,0.0,0.0,1.0,17.0,1.0,35.0,1.0,257.72840789996553,,,,,,,,,257.7162604999612,258.5284894999932,259.32922129996587,259.3129527999554,259.3129901999491,259.32922129996587,259.32922129996587,259.32922129996587,,260.86468649999006,right,1.0,19.464986399980265,,,,,,,,,,,,,,,,,,,,,,,,,,,,,,,sub-039,1.0,random_dot,60.14227255806711,
left,left,speed,,,,,0.0,0.0,0.0,1.0,18.0,0.0,36.0,0.0,260.87852089997614,,,,,,,,,260.8663056999794,261.22878899995703,262.0293829999864,262.01344660000177,262.01348359999247,262.0293829999864,262.0293829999864,262.0293829999864,,263.13181890000124,left,1.0,19.03356289997464,,,,,,,,,,,,,,,,,,,,,,,,,,,,,,,sub-039,1.0,random_dot,60.14227255806711,
right,right,speed,,,,,0.0,0.0,0.0,1.0,18.0,1.0,37.0,1.0,263.14561179996235,,,,,,,,,263.13353269995423,264.3456275999779,265.1465069999685,265.1303045999957,265.13034129998414,265.1465069999685,265.1465069999685,265.1465069999685,,265.6651020999998,right,1.0,18.4435387000558,,,,,,,,,,,,,,,,,,,,,,,,,,,,,,,sub-039,1.0,random_dot,60.14227255806711,
right,right,speed,,,,,0.0,0.0,0.0,1.0,19.0,0.0,38.0,1.0,265.6790269999765,,,,,,,,,265.6667803999735,265.7790918999817,266.5799159999588,266.5635612999904,266.563599599991,266.5799159999588,266.5799159999588,266.5799159999588,,267.98216479999246,left,0.0,19.327076799992938,,,,,,,,,,,,,,,,,,,,,,,,,,,,,,,sub-039,1.0,random_dot,60.14227255806711,
left,left,speed,,,,,0.0,0.0,0.0,1.0,19.0,1.0,39.0,0.0,267.9960410000058,,,,,,,,,267.9838592999731,269.19619539997075,269.99689949996537,269.98100809997413,269.9810482999892,269.99689949996537,269.99689949996537,269.99689949996537,,272.0824293000041,left,1.0,20.005553799972404,,,,,,,,,,,,,,,,,,,,,,,,,,,,,,,sub-039,1.0,random_dot,60.14227255806711,
right,right,speed,,,,,0.0,0.0,0.0,1.0,20.0,0.0,40.0,1.0,272.0964696999872,,,,,,,,,272.0840616999776,272.19648649997544,272.99703440000303,272.98086889996193,272.98090869997395,272.99703440000303,272.99703440000303,272.99703440000303,,273.6825335999601,right,1.0,18.619071000022814,,,,,,,,,,,,,,,,,,,,,,,,,,,,,,,sub-039,1.0,random_dot,60.14227255806711,
left,left,speed,,,,,0.0,0.0,0.0,1.0,20.0,1.0,41.0,0.0,273.6964533999562,,,,,,,,,273.6841909999493,274.046710399969,274.8474301999668,274.8311972999945,274.8312319999677,274.8474301999668,274.8474301999668,274.8474301999668,,275.8494714999688,left,1.0,18.93504520005081,,,,,,,,,,,,,,,,,,,,,,,,,,,,,,,sub-039,1.0,random_dot,60.14227255806711,
left,left,speed,,,,,0.0,0.0,0.0,1.0,21.0,0.0,42.0,0.0,275.86344799998915,,,,,,,,,275.8510843999684,277.06298009998864,277.8642056999961,277.8481808999786,277.84821809997084,277.8642056999961,277.8642056999961,277.8642056999961,,279.0329871999565,left,1.0,19.09166430006735,,,,,,,,,,,,,,,,,,,,,,,,,,,,,,,sub-039,1.0,random_dot,60.14227255806711,
right,right,speed,,,,,0.0,0.0,0.0,1.0,21.0,1.0,43.0,1.0,279.0469965999946,,,,,,,,,279.034629999951,279.396983899991,280.19783799996367,280.181820400001,280.1818585000001,280.19783799996367,280.19783799996367,280.19783799996367,,281.01630629994906,right,1.0,18.747383400041144,,,,,,,,,,,,,,,,,,,,,,,,,,,,,,,sub-039,1.0,random_dot,60.14227255806711,
left,left,speed,,,,,0.0,0.0,0.0,1.0,22.0,0.0,44.0,0.0,281.0305435999762,,,,,,,,,281.01774229999864,281.3806828999659,282.18122159998165,282.1654494999675,282.16548819997115,282.18122159998165,282.18122159998165,282.18122159998165,,284.5504099999671,left,1.0,20.294867800024804,,,,,,,,,,,,,,,,,,,,,,,,,,,,,,,sub-039,1.0,random_dot,60.14227255806711,
right,right,speed,,,,,0.0,0.0,0.0,1.0,22.0,1.0,45.0,1.0,284.5641931999708,,,,,,,,,284.5521639999933,284.9142261999659,285.7149521999527,285.6990719999885,285.69910939998226,285.7149521999527,285.7149521999527,285.7149521999527,,286.6340600999538,right,1.0,18.84003560000565,,,,,,,,,,,,,,,,,,,,,,,,,,,,,,,sub-039,1.0,random_dot,60.14227255806711,
right,right,speed,,,,,0.0,0.0,0.0,1.0,23.0,0.0,46.0,1.0,286.64789119997295,,,,,,,,,286.6361321999575,286.7478352999897,287.5484899999574,287.5321557999705,287.532193299965,287.5484899999574,287.5484899999574,287.5484899999574,,289.3339804999996,right,1.0,19.71165860001929,,,,,,,,,,,,,,,,,,,,,,,,,,,,,,,sub-039,1.0,random_dot,60.14227255806711,
left,left,speed,,,,,0.0,0.0,0.0,1.0,23.0,1.0,47.0,0.0,289.3479508999735,,,,,,,,,289.3356194999651,290.5481129999971,291.3488948000013,291.3327600999619,291.3328001999762,291.3488948000013,291.3488948000013,291.3488948000013,,292.8508551999694,right,0.0,19.42071079998277,,,,,,,,,,,,,,,,,,,,,,,,,,,,,,,sub-039,1.0,random_dot,60.14227255806711,
right,right,speed,,,,,0.0,0.0,0.0,1.0,24.0,0.0,48.0,1.0,292.8647623999859,,,,,,,,,292.85278610000387,293.6650566000026,294.4656017999514,294.4497749999864,294.44981189997634,294.4656017999514,294.4656017999514,294.4656017999514,,296.0015417999821,right,1.0,19.46913050004514,,,,,,,,,,,,,,,,,,,,,,,,,,,,,,,sub-039,1.0,random_dot,60.14227255806711,
left,left,speed,,,,,0.0,0.0,0.0,1.0,24.0,1.0,49.0,0.0,296.0153716999921,,,,,,,,,296.0031881000032,297.215375699976,298.01614649995463,298.00004329998046,298.0000822999864,298.01614649995463,298.01614649995463,298.01614649995463,,299.3849532000022,left,1.0,19.292837600049097,,,,,,,,,,,,,,,,,,,,,,,,,,,,,,,sub-039,1.0,random_dot,60.14227255806711,
right,right,speed,,,,,0.0,0.0,0.0,1.0,25.0,0.0,50.0,1.0,299.39901669998653,,,,,,,,,299.3870055999723,300.1990297999582,300.9997622999945,300.98362689994974,300.9836643000017,300.9997622999945,300.9997622999945,300.9997622999945,,302.2187279999489,right,1.0,19.150633900018875,,,,,,,,,,,,,,,,,,,,,,,,,,,,,,,sub-039,1.0,random_dot,60.14227255806711,
left,left,speed,,,,,0.0,0.0,0.0,1.0,25.0,1.0,51.0,0.0,302.2324720000033,,,,,,,,,302.2206570999697,303.0326192000066,303.8332145999884,303.81712899997365,303.8171689999872,303.8332145999884,303.8332145999884,303.8332145999884,,305.3022360999603,left,1.0,19.39114590000827,,,,,,,,,,,,,,,,,,,,,,,,,,,,,,,sub-039,1.0,random_dot,60.14227255806711,
right,right,speed,,,,,0.0,0.0,0.0,1.0,26.0,0.0,52.0,1.0,305.3158337000059,,,,,,,,,305.3037697999971,306.1161226999829,306.9168028999702,306.900174099952,306.9001895999536,306.9168028999702,306.9168028999702,306.9168028999702,,307.73537670000223,right,1.0,18.742799500003457,,,,,,,,,,,,,,,,,,,,,,,,,,,,,,,sub-039,1.0,random_dot,60.14227255806711,
left,left,speed,,,,,0.0,0.0,0.0,1.0,26.0,1.0,53.0,0.0,307.7492864999804,,,,,,,,,307.7369932999718,307.8497302999604,308.6503274999559,308.63423719996354,308.63427419995423,308.6503274999559,308.6503274999559,308.6503274999559,,310.0027861999697,left,1.0,19.285787000029813,,,,,,,,,,,,,,,,,,,,,,,,,,,,,,,sub-039,1.0,random_dot,60.14227255806711,
left,left,speed,,,,,0.0,0.0,0.0,1.0,27.0,0.0,54.0,0.0,310.01643979997607,,,,,,,,,310.00439869996626,310.81655379995937,311.6172213999671,311.6012133999611,311.60125109995715,311.6172213999671,311.6172213999671,311.6172213999671,,313.9530856999918,left,1.0,20.26896090002265,,,,,,,,,,,,,,,,,,,,,,,,,,,,,,,sub-039,1.0,random_dot,60.14227255806711,
right,right,speed,,,,,0.0,0.0,0.0,1.0,27.0,1.0,55.0,1.0,313.96684670000104,,,,,,,,,313.95477189996745,314.316902999999,315.1175913999905,315.10166169999866,315.1017024999601,315.1175913999905,315.1175913999905,315.1175913999905,,315.986730399949,right,1.0,18.802670700009912,,,,,,,,,,,,,,,,,,,,,,,,,,,,,,,sub-039,1.0,random_dot,60.14227255806711,
right,right,speed,,,,,0.0,0.0,0.0,1.0,28.0,0.0,56.0,1.0,316.0003922999604,,,,,,,,,315.98836099996697,316.10048919997644,316.9010658999905,316.8850661999895,316.8851063000038,316.9010658999905,316.9010658999905,316.9010658999905,,320.820310399984,left,0.0,21.841783999989275,,,,,,,,,,,,,,,,,,,,,,,,,,,,,,,sub-039,1.0,random_dot,60.14227255806711,
left,left,speed,,,,,0.0,0.0,0.0,1.0,28.0,1.0,57.0,0.0,320.83418839995284,,,,,,,,,320.8219890999608,321.6342449999647,322.4349266999634,322.4186644000001,322.418704599957,322.4349266999634,322.4349266999634,322.4349266999634,,324.020515399985,left,1.0,19.518165200017396,,,,,,,,,,,,,,,,,,,,,,,,,,,,,,,sub-039,1.0,random_dot,60.14227255806711,
left,left,speed,,,,,0.0,0.0,0.0,1.0,29.0,0.0,58.0,0.0,324.0343626999529,,,,,,,,,324.02212300000247,325.2345009999699,326.0352835999802,326.01928219996626,326.0193215999752,326.0352835999802,326.0352835999802,326.0352835999802,,327.45419829996536,right,0.0,19.350588000030257,,,,,,,,,,,,,,,,,,,,,,,,,,,,,,,sub-039,1.0,random_dot,60.14227255806711,
right,right,speed,,,,,0.0,0.0,0.0,1.0,29.0,1.0,59.0,1.0,327.46815689996583,,,,,,,,,327.4566949,328.2681759999832,329.06891939998604,329.0527263999684,329.0527780999546,329.06891939998604,329.06891939998604,329.06891939998604,,329.7544261000003,right,1.0,18.61844360001851,,,,,,,,,,,,,,,,,,,,,,,,,,,,,,,sub-039,1.0,random_dot,60.14227255806711,
,,speed,,,,,0.0,0.0,0.0,1.0,,,,,,,,,,,,,,,,,,,,,,,,,,,,,,,,,,,,,,,,,,,,,,,,,,,,,,,,,sub-039,1.0,random_dot,60.14227255806711,
right,right,accuracy,,,,,0.0,1.0,1.0,0.0,0.0,0.0,0.0,1.0,337.6192352999933,,,,,,,,,337.6164966999786,338.81914759997744,339.6198437999701,339.60364099999424,339.60368109995034,339.6198437999701,339.6198437999701,339.6198437999701,,340.33834139996907,right,1.0,18.649048300052527,,,,,,,,,,,,,,,,,,,,329.75588379998226,329.78074529999867,329.78074529999867,337.6044174999697,space,25.74711490003392,,,,,,sub-039,1.0,random_dot,60.14227255806711,
left,left,accuracy,,,,,0.0,1.0,1.0,0.0,0.0,1.0,1.0,0.0,340.3526714000036,,,,,,,,,340.3405303999898,340.45266769995214,341.2533525999752,341.2371603999636,341.23719809995964,341.2533525999752,341.2533525999752,341.2533525999752,,341.80565629998455,left,1.0,18.476614200044423,,,,,,,,,,,,,,,,,,,,,,,,,,,,,,,sub-039,1.0,random_dot,60.14227255806711,
right,right,accuracy,,,,,0.0,1.0,1.0,0.0,1.0,0.0,2.0,1.0,341.81935299996985,,,,,,,,,341.80735429999186,342.1694051999948,342.9701776999864,342.95437529997434,342.9544114999589,342.9701776999864,342.9701776999864,342.9701776999864,,343.75591069995426,right,1.0,18.71349619998364,,,,,,,,,,,,,,,,,,,,,,,,,,,,,,,sub-039,1.0,random_dot,60.14227255806711,
left,left,accuracy,,,,,0.0,1.0,1.0,0.0,1.0,1.0,3.0,0.0,343.76956289995,,,,,,,,,343.7575899999938,344.9696314999601,345.7704559999984,345.7543181999936,345.7543568999972,345.7704559999984,345.7704559999984,345.7704559999984,,346.5225924999686,left,1.0,18.682193700049535,,,,,,,,,,,,,,,,,,,,,,,,,,,,,,,sub-039,1.0,random_dot,60.14227255806711,
left,left,accuracy,,,,,0.0,1.0,1.0,0.0,2.0,0.0,4.0,0.0,346.5363455999759,,,,,,,,,346.5242634000024,346.88661230000434,347.68726409995,347.6713109999546,347.67134859994985,347.68726409995,347.68726409995,347.68726409995,,351.3565016000066,left,1.0,21.590258500014897,,,,,,,,,,,,,,,,,,,,,,,,,,,,,,,sub-039,1.0,random_dot,60.14227255806711,
right,right,accuracy,,,,,0.0,1.0,1.0,0.0,2.0,1.0,5.0,1.0,351.37016299995594,,,,,,,,,351.35822479997296,351.72021319996566,352.5209865999641,352.50475809996715,352.5047928999993,352.5209865999641,352.5209865999641,352.5209865999641,,353.40670369996224,right,1.0,18.805218200024683,,,,,,,,,,,,,,,,,,,,,,,,,,,,,,,sub-039,1.0,random_dot,60.14227255806711,
right,right,accuracy,,,,,0.0,1.0,1.0,0.0,3.0,0.0,6.0,1.0,353.42042369995033,,,,,,,,,353.4083093999652,354.2204797999584,355.0212978000054,355.00521729997126,355.0052562999772,355.0212978000054,355.0212978000054,355.0212978000054,,358.1401625999715,right,1.0,21.0420464000199,,,,,,,,,,,,,,,,,,,,,,,,,,,,,,,sub-039,1.0,random_dot,60.14227255806711,
left,left,accuracy,,,,,0.0,1.0,1.0,0.0,3.0,1.0,7.0,0.0,358.154121199972,,,,,,,,,358.1417671999661,358.9543562000036,359.75505979999434,359.7388697999995,359.73890979995485,359.75505979999434,359.75505979999434,359.75505979999434,,360.6070561999804,left,1.0,18.779765100043733,,,,,,,,,,,,,,,,,,,,,,,,,,,,,,,sub-039,1.0,random_dot,60.14227255806711,
right,right,accuracy,,,,,0.0,1.0,1.0,0.0,4.0,0.0,8.0,1.0,360.6210373999784,,,,,,,,,360.6086875000037,360.9712845999748,361.7717335000052,361.75590449996525,361.75594329996966,361.7717335000052,361.7717335000052,361.7717335000052,,362.8741024999763,right,1.0,19.03005490003852,,,,,,,,,,,,,,,,,,,,,,,,,,,,,,,sub-039,1.0,random_dot,60.14227255806711,
left,left,accuracy,,,,,0.0,1.0,1.0,0.0,4.0,1.0,9.0,0.0,362.8880540999817,,,,,,,,,362.8757288999623,364.08821669995086,364.8887780999648,364.87240789999487,364.8724428999704,364.8887780999648,364.8887780999648,364.8887780999648,,365.8078249999671,left,1.0,18.84903420001501,,,,,,,,,,,,,,,,,,,,,,,,,,,,,,,sub-039,1.0,random_dot,60.14227255806711,
right,right,accuracy,,,,,0.0,1.0,1.0,0.0,5.0,0.0,10.0,1.0,365.82166649994906,,,,,,,,,365.8094476999832,366.6214471999556,367.4222110999981,367.4065094999969,367.4065472999937,367.4222110999981,367.4222110999981,367.4222110999981,,368.2247780999751,right,1.0,18.72664020000957,,,,,,,,,,,,,,,,,,,,,,,,,,,,,,,sub-039,1.0,random_dot,60.14227255806711,
left,left,accuracy,,,,,0.0,1.0,1.0,0.0,5.0,1.0,11.0,0.0,368.238603100006,,,,,,,,,368.22637809999287,368.5880127999699,369.3891196000041,369.3732758999686,369.3733137999661,369.3891196000041,369.3891196000041,369.3891196000041,,371.191652999958,left,1.0,19.734832599991933,,,,,,,,,,,,,,,,,,,,,,,,,,,,,,,sub-039,1.0,random_dot,60.14227255806711,
right,right,accuracy,,,,,0.0,1.0,1.0,0.0,6.0,0.0,12.0,1.0,371.2054647000041,,,,,,,,,371.1934235999943,372.0056036000024,372.80632430000696,372.7898861999856,372.7899237999809,372.80632430000696,372.80632430000696,372.80632430000696,,373.80804589996114,right,1.0,18.921396900026597,,,,,,,,,,,,,,,,,,,,,,,,,,,,,,,sub-039,1.0,random_dot,60.14227255806711,
left,left,accuracy,,,,,0.0,1.0,1.0,0.0,6.0,1.0,13.0,0.0,373.8223172999569,,,,,,,,,373.8096932999906,375.0224046999938,375.8231469999882,375.8072794000036,375.8073148999829,375.8231469999882,375.8231469999882,375.8231469999882,,377.1254184999853,left,1.0,19.22276780003449,,,,,,,,,,,,,,,,,,,,,,,,,,,,,,,sub-039,1.0,random_dot,60.14227255806711,
left,left,accuracy,,,,,0.0,1.0,1.0,0.0,7.0,0.0,14.0,0.0,377.1391942999908,,,,,,,,,377.127172199951,377.4893031999818,378.28996039996855,378.2739309999743,378.2739799999981,378.28996039996855,378.28996039996855,378.28996039996855,383.27382179995766,384.1758632999845,right,0.0,23.807288800016977,,,,,,,,,,,,,,,,,,,,,,,,,,,,,,,sub-039,1.0,random_dot,60.14227255806711,
right,right,accuracy,,,,,0.0,1.0,1.0,0.0,7.0,1.0,15.0,1.0,384.1896690999856,,,,,,,,,384.1775434999727,384.2899169999873,385.09071289998246,385.07468229997903,385.0747233000002,385.09071289998246,385.09071289998246,385.09071289998246,,386.45963289996143,right,1.0,19.29435199999716,,,,,,,,,,,,,,,,,,,,,,,,,,,,,,,sub-039,1.0,random_dot,60.14227255806711,
left,left,accuracy,,,,,0.0,1.0,1.0,0.0,8.0,0.0,16.0,0.0,386.4735019999789,,,,,,,,,386.46124729997246,386.573198899976,387.3741952999844,387.358031599957,387.35806889995,387.3741952999844,387.3741952999844,387.3741952999844,,390.4432800000068,left,1.0,20.98948210000526,,,,,,,,,,,,,,,,,,,,,,,,,,,,,,,sub-039,1.0,random_dot,60.14227255806711,
right,right,accuracy,,,,,0.0,1.0,1.0,0.0,8.0,1.0,17.0,1.0,390.457265199977,,,,,,,,,390.4449665999855,390.8071608999744,391.6079065999948,391.59164689999307,391.591683799983,391.6079065999948,391.6079065999948,391.6079065999948,,392.7103943999973,right,1.0,19.02364600001601,,,,,,,,,,,,,,,,,,,,,,,,,,,,,,,sub-039,1.0,random_dot,60.14227255806711,
left,left,accuracy,,,,,0.0,1.0,1.0,0.0,9.0,0.0,18.0,0.0,392.72401259996695,,,,,,,,,392.7120818999829,393.5241041999543,394.3248448999948,394.30843009997625,394.3084655999555,394.3248448999948,394.3248448999948,394.3248448999948,,398.72733439999865,left,1.0,22.33649429999059,,,,,,,,,,,,,,,,,,,,,,,,,,,,,,,sub-039,1.0,random_dot,60.14227255806711,
right,right,accuracy,,,,,0.0,1.0,1.0,0.0,9.0,1.0,19.0,1.0,398.741143399966,,,,,,,,,398.7290435999748,398.8411676999531,399.6419778999989,399.6258581999573,399.62589789996855,399.6419778999989,399.6419778999989,399.6419778999989,,401.19468939997023,right,1.0,19.476435100019444,,,,,,,,,,,,,,,,,,,,,,,,,,,,,,,sub-039,1.0,random_dot,60.14227255806711,
left,left,accuracy,,,,,0.0,1.0,1.0,0.0,10.0,0.0,20.0,0.0,401.20823569997447,,,,,,,,,401.19631489994936,402.00824559998,402.8088721999666,402.7928657999728,402.79290519998176,402.8088721999666,402.8088721999666,402.8088721999666,,404.0115251999814,left,1.0,19.121195400017317,,,,,,,,,,,,,,,,,,,,,,,,,,,,,,,sub-039,1.0,random_dot,60.14227255806711,
right,right,accuracy,,,,,0.0,1.0,1.0,0.0,10.0,1.0,21.0,1.0,404.0250736000016,,,,,,,,,404.0132322999998,404.3749132999801,405.17580959998304,405.1595929999603,405.1596306999563,405.17580959998304,405.17580959998304,405.17580959998304,,406.5614034999744,right,1.0,19.307499700051267,,,,,,,,,,,,,,,,,,,,,,,,,,,,,,,sub-039,1.0,random_dot,60.14227255806711,
right,right,accuracy,,,,,0.0,1.0,1.0,0.0,11.0,0.0,22.0,1.0,406.57524289999856,,,,,,,,,406.56294329999946,406.925369399949,407.7260677999584,407.7101347999997,407.7101739999489,407.7260677999584,407.7260677999584,407.7260677999584,,408.64488739997614,right,1.0,18.83904050005367,,,,,,,,,,,,,,,,,,,,,,,,,,,,,,,sub-039,1.0,random_dot,60.14227255806711,
left,left,accuracy,,,,,0.0,1.0,1.0,0.0,11.0,1.0,23.0,0.0,408.6587766999728,,,,,,,,,408.646520899958,409.4596713999636,410.25966999999946,410.243353799975,410.2433911999688,410.25966999999946,410.25966999999946,410.25966999999946,,413.2121329999645,left,1.0,20.878190300019924,,,,,,,,,,,,,,,,,,,,,,,,,,,,,,,sub-039,1.0,random_dot,60.14227255806711,
left,left,accuracy,,,,,0.0,1.0,1.0,0.0,12.0,0.0,24.0,0.0,413.2257766999537,,,,,,,,,413.2138079999713,414.0259051999892,414.8266175999888,414.8106948999921,414.81073349999497,414.8266175999888,414.8266175999888,414.8266175999888,,419.1291630999767,left,1.0,22.23383560002549,,,,,,,,,,,,,,,,,,,,,,,,,,,,,,,sub-039,1.0,random_dot,60.14227255806711,
right,right,accuracy,,,,,0.0,1.0,1.0,0.0,12.0,1.0,25.0,1.0,419.1431713000056,,,,,,,,,419.1307950000046,419.9430508999503,420.7438585999771,420.7278858999489,420.7279216999887,420.7438585999771,420.7438585999771,420.7438585999771,,422.8960905999993,right,1.0,20.071264500031248,,,,,,,,,,,,,,,,,,,,,,,,,,,,,,,sub-039,1.0,random_dot,60.14227255806711,
right,right,accuracy,,,,,0.0,1.0,1.0,0.0,13.0,0.0,26.0,1.0,422.90990849997615,,,,,,,,,422.8977140999632,423.26001719996566,424.0609462999855,424.0448390999809,424.0448764999746,424.0609462999855,424.0609462999855,424.0609462999855,,426.7632819999708,right,1.0,20.63436880003428,,,,,,,,,,,,,,,,,,,,,,,,,,,,,,,sub-039,1.0,random_dot,60.14227255806711,
left,left,accuracy,,,,,0.0,1.0,1.0,0.0,13.0,1.0,27.0,0.0,426.777225799975,,,,,,,,,426.76496279996354,426.87688880000496,427.677829799999,427.6617787999567,427.6618157000048,427.677829799999,427.677829799999,427.677829799999,,429.1469779000036,left,1.0,19.38762009999482,,,,,,,,,,,,,,,,,,,,,,,,,,,,,,,sub-039,1.0,random_dot,60.14227255806711,
left,left,accuracy,,,,,0.0,1.0,1.0,0.0,14.0,0.0,28.0,0.0,429.16071520000696,,,,,,,,,429.14860429998953,429.2608149999869,430.061398299993,430.045252299984,430.0452905999846,430.061398299993,430.061398299993,430.061398299993,435.0451497999602,435.14730749995215,right,0.0,23.018848600040656,,,,,,,,,,,,,,,,,,,,,,,,,,,,,,,sub-039,1.0,random_dot,60.14227255806711,
right,right,accuracy,,,,,0.0,1.0,1.0,0.0,14.0,1.0,29.0,1.0,435.1611065999605,,,,,,,,,435.14895719999913,435.51116130000446,436.3119930999819,436.2960324999876,436.29607099998975,436.3119930999819,436.3119930999819,436.3119930999819,,437.1642692000023,right,1.0,18.77147049998166,,,,,,,,,,,,,,,,,,,,,,,,,,,,,,,sub-039,1.0,random_dot,60.14227255806711,
left,left,accuracy,,,,,0.0,1.0,1.0,0.0,15.0,0.0,30.0,0.0,437.1781128000002,,,,,,,,,437.1658882999909,437.5280078999931,438.3288066999521,438.31295519997366,438.3129917999613,438.3288066999521,438.3288066999521,438.3288066999521,,440.4148538999725,left,1.0,20.005986000061966,,,,,,,,,,,,,,,,,,,,,,,,,,,,,,,sub-039,1.0,random_dot,60.14227255806711,
right,right,accuracy,,,,,0.0,1.0,1.0,0.0,15.0,1.0,31.0,1.0,440.42831069999374,,,,,,,,,440.4164982999792,441.6284155999893,442.4292833999498,442.4130489999661,442.413085499953,442.4292833999498,442.4292833999498,442.4292833999498,,443.79802149999887,right,1.0,19.29921720002312,,,,,,,,,,,,,,,,,,,,,,,,,,,,,,,sub-039,1.0,random_dot,60.14227255806711,
right,right,accuracy,,,,,0.0,1.0,1.0,0.0,16.0,0.0,32.0,1.0,443.8120758999721,,,,,,,,,443.7996287999558,445.012221699988,445.8129384999629,445.7968060999992,445.79684979998274,445.8129384999629,445.8129384999629,445.8129384999629,,447.4983550999896,right,1.0,19.606023100030143,,,,,,,,,,,,,,,,,,,,,,,,,,,,,,,sub-039,1.0,random_dot,60.14227255806711,
left,left,accuracy,,,,,0.0,1.0,1.0,0.0,16.0,1.0,33.0,0.0,447.51232139999047,,,,,,,,,447.49995719996514,448.3126142999972,449.1131834999542,449.09720619994914,449.0972458999604,449.1131834999542,449.1131834999542,449.1131834999542,,450.4655998999952,left,1.0,19.27260500000557,,,,,,,,,,,,,,,,,,,,,,,,,,,,,,,sub-039,1.0,random_dot,60.14227255806711,
right,right,accuracy,,,,,0.0,1.0,1.0,0.0,17.0,0.0,34.0,1.0,450.479244999995,,,,,,,,,450.4672379999538,450.8293066999759,451.6301165999612,451.61402699997416,451.6140618000063,451.6301165999612,451.6301165999612,451.6301165999612,,452.8821786000044,right,1.0,19.1805276000523,,,,,,,,,,,,,,,,,,,,,,,,,,,,,,,sub-039,1.0,random_dot,60.14227255806711,
left,left,accuracy,,,,,0.0,1.0,1.0,0.0,17.0,1.0,35.0,0.0,452.89616059995024,,,,,,,,,452.8839065999491,452.9961684999871,453.7966294999933,453.7807540000067,453.78079170000274,453.7966294999933,453.7966294999933,453.7966294999933,,455.032487199991,left,1.0,19.165932400035672,,,,,,,,,,,,,,,,,,,,,,,,,,,,,,,sub-039,1.0,random_dot,60.14227255806711,
right,right,accuracy,,,,,0.0,1.0,1.0,0.0,18.0,0.0,36.0,1.0,455.0465551999514,,,,,,,,,455.03409169998486,455.39612150000175,456.1970235999906,456.1807153999689,456.1807536999695,456.1970235999906,456.1970235999906,456.1970235999906,,457.48283619998256,right,1.0,19.21261520002736,,,,,,,,,,,,,,,,,,,,,,,,,,,,,,,sub-039,1.0,random_dot,60.14227255806711,
left,left,accuracy,,,,,0.0,1.0,1.0,0.0,18.0,1.0,37.0,0.0,457.4965037999791,,,,,,,,,457.4848282999592,458.6965339999879,459.49738669994986,459.4814492999576,459.48148749995744,459.49738669994986,459.49738669994986,459.49738669994986,,460.9664964999538,left,1.0,19.3940834000241,,,,,,,,,,,,,,,,,,,,,,,,,,,,,,,sub-039,1.0,random_dot,60.14227255806711,
left,left,accuracy,,,,,0.0,1.0,1.0,0.0,19.0,0.0,38.0,0.0,460.9802066999837,,,,,,,,,460.9681010000058,461.0803125999519,461.8808148999815,461.8648123999592,461.86485749995336,461.8808148999815,461.8808148999815,461.8808148999815,,463.3833079999895,left,1.0,19.428462000039872,,,,,,,,,,,,,,,,,,,,,,,,,,,,,,,sub-039,1.0,random_dot,60.14227255806711,
right,right,accuracy,,,,,0.0,1.0,1.0,0.0,19.0,1.0,39.0,1.0,463.39714319998166,,,,,,,,,463.3849994000048,464.59716139995726,465.3979643000057,465.38166409998666,465.3817035999964,465.3979643000057,465.3979643000057,465.3979643000057,,466.4502504999982,right,1.0,18.982652899983805,,,,,,,,,,,,,,,,,,,,,,,,,,,,,,,sub-039,1.0,random_dot,60.14227255806711,
right,right,accuracy,,,,,0.0,1.0,1.0,0.0,20.0,0.0,40.0,1.0,466.4641743999673,,,,,,,,,466.4518777999911,466.81417379999766,467.6149618999916,467.5989352999604,467.5989743999671,467.6149618999916,467.6149618999916,467.6149618999916,,470.9674069999601,right,1.0,21.28199370001676,,,,,,,,,,,,,,,,,,,,,,,,,,,,,,,sub-039,1.0,random_dot,60.14227255806711,
left,left,accuracy,,,,,0.0,1.0,1.0,0.0,20.0,1.0,41.0,0.0,470.98102019994985,,,,,,,,,470.96908650000114,471.7812927999767,472.5818094999995,472.5657627999899,472.5657989999745,472.5818094999995,472.5818094999995,472.5818094999995,,475.3011792000034,left,1.0,20.64593480003532,,,,,,,,,,,,,,,,,,,,,,,,,,,,,,,sub-039,1.0,random_dot,60.14227255806711,
right,right,accuracy,,,,,0.0,1.0,1.0,0.0,21.0,0.0,42.0,1.0,475.314884499996,,,,,,,,,475.3028201999841,475.4151396999951,476.2157030999661,476.1996691999957,476.1997167999507,476.2157030999661,476.2157030999661,476.2157030999661,,478.1009499999928,right,1.0,19.812362399999984,,,,,,,,,,,,,,,,,,,,,,,,,,,,,,,sub-039,1.0,random_dot,60.14227255806711,
left,left,accuracy,,,,,0.0,1.0,1.0,0.0,21.0,1.0,43.0,0.0,478.115621200006,,,,,,,,,478.10260549996747,478.9154678999912,479.71598019998055,479.7000283999951,479.7000657999888,479.71598019998055,479.71598019998055,479.71598019998055,,482.1019383999519,left,1.0,20.30606660002377,,,,,,,,,,,,,,,,,,,,,,,,,,,,,,,sub-039,1.0,random_dot,60.14227255806711,
left,left,accuracy,,,,,0.0,1.0,1.0,0.0,22.0,0.0,44.0,0.0,482.115791499964,,,,,,,,,482.1036060999613,483.3155683999648,484.1163363999804,484.1002554000006,484.10029179998673,484.1163363999804,484.1163363999804,484.1163363999804,,488.4357571000001,left,1.0,22.238873100024648,,,,,,,,,,,,,,,,,,,,,,,,,,,,,,,sub-039,1.0,random_dot,60.14227255806711,
right,right,accuracy,,,,,0.0,1.0,1.0,0.0,22.0,1.0,45.0,1.0,488.4493811999564,,,,,,,,,488.4375964999781,489.24932459997945,490.05005149997305,490.03411599999527,490.0341541999951,490.05005149997305,490.05005149997305,490.05005149997305,,491.78592090000166,right,1.0,19.66514029999962,,,,,,,,,,,,,,,,,,,,,,,,,,,,,,,sub-039,1.0,random_dot,60.14227255806711,
left,left,accuracy,,,,,0.0,1.0,1.0,0.0,23.0,0.0,46.0,0.0,491.7997377999709,,,,,,,,,491.7875269999495,491.8997095999657,492.7003875999944,492.6843267999938,492.68436569999903,492.7003875999944,492.7003875999944,492.7003875999944,,494.3693920999649,left,1.0,19.58788480004296,,,,,,,,,,,,,,,,,,,,,,,,,,,,,,,sub-039,1.0,random_dot,60.14227255806711,
right,right,accuracy,,,,,0.0,1.0,1.0,0.0,23.0,1.0,47.0,1.0,494.3832682999782,,,,,,,,,494.3710567999515,495.5833261999651,496.3840796999866,496.3681236999692,496.3681630999781,496.3840796999866,496.3840796999866,496.3840796999866,,498.5363830999704,right,1.0,20.07835810002871,,,,,,,,,,,,,,,,,,,,,,,,,,,,,,,sub-039,1.0,random_dot,60.14227255806711,
right,right,accuracy,,,,,0.0,1.0,1.0,0.0,24.0,0.0,48.0,1.0,498.5502768000006,,,,,,,,,498.5379772000015,499.7503313999623,500.551105099963,500.5348723999923,500.534909399983,500.551105099963,500.551105099963,500.551105099963,,505.0372264999896,right,1.0,22.404675400059205,,,,,,,,,,,,,,,,,,,,,,,,,,,,,,,sub-039,1.0,random_dot,60.14227255806711,
left,left,accuracy,,,,,0.0,1.0,1.0,0.0,24.0,1.0,49.0,0.0,505.0508137999568,,,,,,,,,505.0388520999695,505.85094529995695,506.65155629999936,506.63553669996327,506.6355730999494,506.65155629999936,506.65155629999936,506.65155629999936,,509.6374650999787,left,1.0,20.906547900056463,,,,,,,,,,,,,,,,,,,,,,,,,,,,,,,sub-039,1.0,random_dot,60.14227255806711,
right,right,accuracy,,,,,0.0,1.0,1.0,0.0,25.0,0.0,50.0,1.0,509.6513350000023,,,,,,,,,509.6391270000022,510.8514607999823,511.6521688000066,511.6361639999668,511.63619879999897,511.6521688000066,511.6521688000066,511.6521688000066,,516.5880009999964,left,0.0,22.85396999999648,,,,,,,,,,,,,,,,,,,,,,,,,,,,,,,sub-039,1.0,random_dot,60.14227255806711,
left,left,accuracy,,,,,0.0,1.0,1.0,0.0,25.0,1.0,51.0,0.0,516.6019361999934,,,,,,,,,516.5897339999792,516.9514974000049,517.7528359999997,517.7367373000016,517.7367762999493,517.7528359999997,517.7528359999997,517.7528359999997,,521.2049906000029,left,1.0,21.372531200002413,,,,,,,,,,,,,,,,,,,,,,,,,,,,,,,sub-039,1.0,random_dot,60.14227255806711,
left,left,accuracy,,,,,0.0,1.0,1.0,0.0,26.0,0.0,52.0,0.0,521.2190374999773,,,,,,,,,521.2066999999806,522.0191486999975,522.8199240999529,522.8036401999998,522.8036770999897,522.8199240999529,522.8199240999529,522.8199240999529,,525.6216375999502,left,1.0,20.72026230004849,,,,,,,,,,,,,,,,,,,,,,,,,,,,,,,sub-039,1.0,random_dot,60.14227255806711,
right,right,accuracy,,,,,0.0,1.0,1.0,0.0,26.0,1.0,53.0,1.0,525.6356657999568,,,,,,,,,525.6232290999615,526.8363294999581,527.6368010999868,527.6210643999511,527.6211043999647,527.6368010999868,527.6368010999868,527.6368010999868,,530.3557347999886,left,0.0,20.646893099998124,,,,,,,,,,,,,,,,,,,,,,,,,,,,,,,sub-039,1.0,random_dot,60.14227255806711,
left,left,accuracy,,,,,0.0,1.0,1.0,0.0,27.0,0.0,54.0,0.0,530.3697717000032,,,,,,,,,530.3573497000034,530.4696574999834,531.270377799985,531.2541893000016,531.2542222999618,531.270377799985,531.270377799985,531.270377799985,,535.5560741999652,left,1.0,22.210741100017916,,,,,,,,,,,,,,,,,,,,,,,,,,,,,,,sub-039,1.0,random_dot,60.14227255806711,
right,right,accuracy,,,,,0.0,1.0,1.0,0.0,27.0,1.0,55.0,1.0,535.5704464999726,,,,,,,,,535.5577037999756,535.6704771999503,536.4711168999784,536.4551636999822,536.4552000999684,536.4711168999784,536.4711168999784,536.4711168999784,,537.9898937999969,right,1.0,19.43941840005573,,,,,,,,,,,,,,,,,,,,,,,,,,,,,,,sub-039,1.0,random_dot,60.14227255806711,
left,left,accuracy,,,,,0.0,1.0,1.0,0.0,28.0,0.0,56.0,0.0,538.0038946999703,,,,,,,,,537.991506499995,539.2041279999539,540.0046849999926,539.9887108999537,539.9887471999973,540.0046849999926,540.0046849999926,540.0046849999926,544.9885159999831,545.7242631999543,right,0.0,23.645164900051896,,,,,,,,,,,,,,,,,,,,,,,,,,,,,,,sub-039,1.0,random_dot,60.14227255806711,
right,right,accuracy,,,,,0.0,1.0,1.0,0.0,28.0,1.0,57.0,1.0,545.7380025999737,,,,,,,,,545.7258657999919,545.8379732999601,546.6385679999948,546.6226228000014,546.6226604999974,546.6385679999948,546.6385679999948,546.6385679999948,551.6224980999832,551.9245618999703,right,1.0,23.219195700075943,,,,,,,,,,,,,,,,,,,,,,,,,,,,,,,sub-039,1.0,random_dot,60.14227255806711,
left,left,accuracy,,,,,0.0,1.0,1.0,0.0,29.0,0.0,58.0,0.0,551.9384464999894,,,,,,,,,551.9261807999574,552.2884923999663,553.0892708000029,553.073240800004,553.0732776999939,553.0892708000029,553.0892708000029,553.0892708000029,,555.8413924999768,left,1.0,20.682715200062376,,,,,,,,,,,,,,,,,,,,,,,,,,,,,,,sub-039,1.0,random_dot,60.14227255806711,
right,right,accuracy,,,,,0.0,1.0,1.0,0.0,29.0,1.0,59.0,1.0,555.8554684999981,,,,,,,,,555.8430484999553,556.6554543999955,557.4562754999497,557.4400523999939,557.4400884999777,557.4562754999497,557.4562754999497,557.4562754999497,,558.925213999988,right,1.0,19.39616499998374,,,,,,,,,,,,,,,,,,,,,,,,,,,,,,,sub-039,1.0,random_dot,60.14227255806711,
,,accuracy,,,,,0.0,1.0,1.0,0.0,,,,,,,,,,,,,,,,,,,,,,,,,,,,,,,,,,,,,,,,,,,,,,,,,,,,,,,,,sub-039,1.0,random_dot,60.14227255806711,
,,,,,,,,,,,,,,,,,,,,,,,,,,,,,,,,,,,,,,,,,,,,,,,,,,,,,,,,,,,,,,,558.9264465000015,558.939043099992,563.9396602999768,563.9242832000018,sub-039,,,,
