wordCTK,colorCTK,corrAnsCTK,congruentCTK,thisN,thisTrialN,thisRepN,keyResp_CTK.keys,keyResp_CTK.corr,keyResp_CTK.rt,keyResp_CTK.duration,wordPractice,colorPractice,corrAnsPractice,congruentPractice,respPractice.keys,respPractice.corr,respPractice.rt,respPractice.duration,word,color,corrAns,congruent,keyResp_test_run.keys,keyResp_test_run.corr,keyResp_test_run.rt,keyResp_test_run.duration,trials_CTK.thisRepN,trials_CTK.thisTrialN,trials_CTK.thisN,trials_CTK.thisIndex,trials_practice.thisRepN,trials_practice.thisTrialN,trials_practice.thisN,trials_practice.thisIndex,trials_test.thisRepN,trials_test.thisTrialN,trials_test.thisN,trials_test.thisIndex,thisRow.t,notes,instruction.started,instr_text.started,instr_image.started,instr_resp.started,instruction.stopped,instr_resp.keys,instr_resp.rt,instr_resp.duration,instr_color_to_key.started,instr_ctk.started,resp_ctk.started,instr_color_to_key.stopped,resp_ctk.keys,resp_ctk.rt,resp_ctk.duration,ITI.started,fixcross.started,fixcross.stopped,ITI.stopped,color_to_key_run.started,stimulus_CTK.started,keyResp_CTK.started,color_to_key_run.stopped,trials_CTK.keyResp_CTK.keys,trials_CTK.keyResp_CTK.corr,trials_CTK.keyResp_CTK.rt,trials_CTK.keyResp_CTK.duration,instr_practice.started,instr_practice_text.started,instr_practice_resp.started,instr_practice.stopped,instr_practice_resp.keys,instr_practice_resp.rt,instr_practice_resp.duration,practice_run.started,stimulus_practice.started,respPractice.started,practice_run.stopped,trials_practice.respPractice.keys,trials_practice.respPractice.corr,trials_practice.respPractice.rt,trials_practice.respPractice.duration,feedback.started,textFeedback.started,feedback.stopped,textFeedback.stopped,instr_test.started,instr_test_text.started,instr_test_resp.started,instr_test.stopped,instr_test_resp.keys,instr_test_resp.rt,instr_test_resp.duration,test_run.started,stimulus_test_run.started,keyResp_test_run.started,test_run.stopped,trials_test.keyResp_test_run.keys,trials_test.keyResp_test_run.corr,trials_test.keyResp_test_run.rt,trials_test.keyResp_test_run.duration,goodbye.started,textGoodbye.started,goodbye.stopped,participant,session,expName,frameRate,Unnamed: 112
,,,,,,,,,,,,,,,,,,,,,,,,,,,,,,,,,,,,,,,,,0.0169588590006242,0.0391853910005011,0.0391853910005011,0.0391853910005011,2.1827355070008707,space,2.109375600000021,,,,,,,,,,,,,,,,,,,,,,,,,,,,,,,,,,,,,,,,,,,,,,,,,,,,,,,,,,sub-102,1,stroop_test,59.53175169740823,
,,,,,,,,,,,,,,,,,,,,,,,,,,,,,,,,,,,,,,,,,,,,,,,,,2.182809542000541,2.21294522900007,2.21294522900007,6.383678478000547,space,4.161890297999889,,,,,,,,,,,,,,,,,,,,,,,,,,,,,,,,,,,,,,,,,,,,,,,,,,,sub-102,1,stroop_test,59.53175169740823,
test,blue,b,1.0,0.0,0.0,0.0,b,1.0,1.2973708079998687,,,,,,,,,,,,,,,,,,0.0,0.0,0.0,2.0,,,,,,,,,6.42174273100045,,,,,,,,,,,,,,,,,6.401491512000575,6.743560199000058,7.548898520000876,7.528870310000457,7.533704036000017,7.548898520000876,7.548898520000876,8.863018816000476,b,1.0,1.2973708079998687,,,,,,,,,,,,,,,,,,,,,,,,,,,,,,,,,,,,,,,sub-102,1,stroop_test,59.53175169740823,
test,yellow,g,1.0,1.0,1.0,0.0,g,1.0,0.718406203000086,,,,,,,,,,,,,,,,,,0.0,1.0,1.0,1.0,,,,,,,,,8.877916319000178,,,,,,,,,,,,,,,,,8.863276306000444,9.67885538000064,10.47880009400069,10.46277876900058,10.46314649100077,10.47880009400069,10.47880009400069,11.21440192099999,g,1.0,0.718406203000086,,,,,,,,,,,,,,,,,,,,,,,,,,,,,,,,,,,,,,,sub-102,1,stroop_test,59.53175169740823,
test,red,r,1.0,2.0,2.0,0.0,r,1.0,0.5399189330000809,,,,,,,,,,,,,,,,,,0.0,2.0,2.0,0.0,,,,,,,,,11.229054358000212,,,,,,,,,,,,,,,,,11.214674532000572,12.430118297000265,13.23087050200047,13.214395037000031,13.214792521000165,13.23087050200047,13.23087050200047,13.78168641800039,r,1.0,0.5399189330000809,,,,,,,,,,,,,,,,,,,,,,,,,,,,,,,,,,,,,,,sub-102,1,stroop_test,59.53175169740823,
test,yellow,g,1.0,3.0,0.0,1.0,g,1.0,0.569599398999344,,,,,,,,,,,,,,,,,,1.0,0.0,3.0,1.0,,,,,,,,,13.797319088000222,,,,,,,,,,,,,,,,,13.781945802000337,14.5810292390006,15.381146092000565,15.36516984500031,15.365524406000077,15.381146092000565,15.381146092000565,15.966640824000024,g,1.0,0.569599398999344,,,,,,,,,,,,,,,,,,,,,,,,,,,,,,,,,,,,,,,sub-102,1,stroop_test,59.53175169740823,
test,blue,b,1.0,4.0,1.0,1.0,b,1.0,0.4544432830007281,,,,,,,,,,,,,,,,,,1.0,1.0,4.0,2.0,,,,,,,,,15.983374635000471,,,,,,,,,,,,,,,,,15.966903414000626,16.33207023200066,17.132139708000068,17.116267650000736,17.116678401000172,17.132139708000068,17.132139708000068,17.600616826000078,b,1.0,0.4544432830007281,,,,,,,,,,,,,,,,,,,,,,,,,,,,,,,,,,,,,,,sub-102,1,stroop_test,59.53175169740823,
test,red,r,1.0,5.0,2.0,1.0,r,1.0,0.5059761519996755,,,,,,,,,,,,,,,,,,1.0,2.0,5.0,0.0,,,,,,,,,17.617313115000798,,,,,,,,,,,,,,,,,17.600853722000465,18.40184813900032,19.21712546900017,19.200604943000144,19.200983381000697,19.21712546900017,19.21712546900017,19.735166576000665,r,1.0,0.5059761519996755,,,,,,,,,,,,,,,,,,,,,,,,,,,,,,,,,,,,,,,sub-102,1,stroop_test,59.53175169740823,
test,red,r,1.0,6.0,0.0,2.0,r,1.0,0.5219383249996099,,,,,,,,,,,,,,,,,,2.0,0.0,6.0,0.0,,,,,,,,,19.75095711800077,,,,,,,,,,,,,,,,,19.73542703200019,20.93418249000024,21.734091048000664,21.71843462600009,21.71881854900039,21.734091048000664,21.734091048000664,22.26906251100081,r,1.0,0.5219383249996099,,,,,,,,,,,,,,,,,,,,,,,,,,,,,,,,,,,,,,,sub-102,1,stroop_test,59.53175169740823,
test,blue,b,1.0,7.0,1.0,2.0,b,1.0,0.6986271010000564,,,,,,,,,,,,,,,,,,2.0,1.0,7.0,2.0,,,,,,,,,22.28467849700064,,,,,,,,,,,,,,,,,22.26930781600004,22.384153200000583,23.184656777000782,23.168848788000105,23.169216125000275,23.184656777000782,23.184656777000782,23.887308302000747,b,1.0,0.6986271010000564,,,,,,,,,,,,,,,,,,,,,,,,,,,,,,,,,,,,,,,sub-102,1,stroop_test,59.53175169740823,
test,yellow,g,1.0,8.0,2.0,2.0,g,1.0,0.5172724930007462,,,,,,,,,,,,,,,,,,2.0,2.0,8.0,1.0,,,,,,,,,23.9029465600006,,,,,,,,,,,,,,,,,23.88757067000006,25.086014489000263,25.886029235000024,25.870177371000864,25.8705335500008,25.886029235000024,25.886029235000024,26.406287786000576,g,1.0,0.5172724930007462,,,,,,,,,,,,,,,,,,,,,,,,,,,,,,,,,,,,,,,sub-102,1,stroop_test,59.53175169740823,
test,blue,b,1.0,9.0,0.0,3.0,r,0.0,0.400645464000263,,,,,,,,,,,,,,,,,,3.0,0.0,9.0,2.0,,,,,,,,,26.422364122000545,,,,,,,,,,,,,,,,,26.40654626200012,26.76997097399999,27.57058328400035,27.554469243000312,27.554824898000334,27.57058328400035,27.57058328400035,27.97316637900076,r,0.0,0.400645464000263,,,,,,,,,,,,,,,,,,,,,,,,,,,,,,,,,,,,,,,sub-102,1,stroop_test,59.53175169740823,
test,yellow,g,1.0,10.0,1.0,3.0,g,1.0,0.8293137499995282,,,,,,,,,,,,,,,,,,3.0,1.0,10.0,1.0,,,,,,,,,27.988538171000076,,,,,,,,,,,,,,,,,27.973423432000345,28.33771002000049,29.13773805000073,29.121794137000503,29.122149997000637,29.13773805000073,29.13773805000073,29.97389820400076,g,1.0,0.8293137499995282,,,,,,,,,,,,,,,,,,,,,,,,,,,,,,,,,,,,,,,sub-102,1,stroop_test,59.53175169740823,
test,red,r,1.0,11.0,2.0,3.0,r,1.0,0.5430377259999659,,,,,,,,,,,,,,,,,,3.0,2.0,11.0,0.0,,,,,,,,,29.99000085100033,,,,,,,,,,,,,,,,,29.97415599800024,30.78872940100064,31.58943355000065,31.57308723300048,31.57346164200044,31.58943355000065,31.58943355000065,32.14064941600009,r,1.0,0.5430377259999659,,,,,,,,,,,,,,,,,,,,,,,,,,,,,,,,,,,,,,,sub-102,1,stroop_test,59.53175169740823,
,,,,,,,,,,,,,,,,,,,,,,,,,,,,,,,,,,,,,,,,,,,,,,,,,,,,,,,,,,,,,,,,,,,,32.14077173900023,32.157551969999986,32.157551969999986,35.27626025000063,space,3.1148466309996365,,,,,,,,,,,,,,,,,,,,,,,,,,,,,,,,sub-102,1,stroop_test,59.53175169740823,
,,,,0.0,0.0,0.0,,,,,blau,blue,b,1.0,b,1.0,0.6479287080001086,,,,,,,,,,,,,,0.0,0.0,0.0,6.0,,,,,35.30415329800053,,,,,,,,,,,,,,,,,35.2893261170002,35.641033565000726,36.44544870000027,36.4254566160007,,,,,,,,,,,,,,,,36.430061159000616,36.44544870000027,36.44544870000027,37.10954474100072,b,1.0,0.6479287080001086,,37.115067706000445,37.13061343000027,38.12518430400087,,,,,,,,,,,,,,,,,,,,sub-102,1,stroop_test,59.53175169740823,
,,,,1.0,1.0,0.0,,,,,blau,blue,b,1.0,b,1.0,0.6147498229993289,,,,,,,,,,,,,,0.0,1.0,1.0,5.0,,,,,38.14209218100041,,,,,,,,,,,,,,,,,38.12545544800014,38.4589369560008,39.25924297000074,39.24345390000053,,,,,,,,,,,,,,,,39.24385543900007,39.25924297000074,39.25924297000074,39.87874510600068,b,1.0,0.6147498229993289,,39.8791873400005,39.89456244900066,40.89355808000073,,,,,,,,,,,,,,,,,,,,sub-102,1,stroop_test,59.53175169740823,
,,,,2.0,2.0,0.0,,,,,rot,yellow,g,0.0,g,1.0,0.9475564519998444,,,,,,,,,,,,,,0.0,2.0,2.0,3.0,,,,,40.91067876300076,,,,,,,,,,,,,,,,,40.893798610000886,42.094057307000185,42.89695796200067,42.87839808800072,,,,,,,,,,,,,,,,42.8815009530008,42.89695796200067,42.89695796200067,43.84718698300003,g,1.0,0.9475564519998444,,43.84761918600088,43.86425532700014,44.86175935300071,,,,,,,,,,,,,,,,,,,,sub-102,1,stroop_test,59.53175169740823,
,,,,3.0,3.0,0.0,,,,,rot,red,r,1.0,r,1.0,0.6507797300000675,,,,,,,,,,,,,,0.0,3.0,3.0,1.0,,,,,44.87881932900018,,,,,,,,,,,,,,,,,44.86206619800032,45.2123437350001,46.01212367900007,45.99651988000005,,,,,,,,,,,,,,,,45.9968986870008,46.01212367900007,46.01212367900007,46.66450816500037,r,1.0,0.6507797300000675,,46.66490059900025,46.68126947700057,47.68023221200019,,,,,,,,,,,,,,,,,,,,sub-102,1,stroop_test,59.53175169740823,
,,,,4.0,4.0,0.0,,,,,rot,red,r,1.0,r,1.0,0.5921730589998333,,,,,,,,,,,,,,0.0,4.0,4.0,0.0,,,,,47.69677217700064,,,,,,,,,,,,,,,,,47.68056402900038,48.46396756800005,49.26318249800079,49.248097825000514,,,,,,,,,,,,,,,,49.24851955000031,49.26318249800079,49.26318249800079,49.86548827800016,r,1.0,0.5921730589998333,,49.86587725900063,49.882082397000886,50.86552645500069,50.88171976600006,,,,,,,,,,,,,,,,,,,sub-102,1,stroop_test,59.53175169740823,
,,,,5.0,5.0,0.0,,,,,blau,yellow,g,0.0,g,1.0,0.915787107000142,,,,,,,,,,,,,,0.0,5.0,5.0,7.0,,,,,50.88171976600006,,,,,,,,,,,,,,,,,50.86575591000019,51.66532403700057,52.46769905700057,52.44975733299998,,,,,,,,,,,,,,,,52.45196497900088,52.46769905700057,52.46769905700057,53.38540847100012,g,1.0,0.915787107000142,,53.38585034400057,53.40283778500088,54.40017170700048,,,,,,,,,,,,,,,,,,,,sub-102,1,stroop_test,59.53175169740823,
,,,,6.0,6.0,0.0,,,,,gelb,yellow,g,1.0,g,1.0,0.5735106580004867,,,,,,,,,,,,,,0.0,6.0,6.0,11.0,,,,,54.4166897820005,,,,,,,,,,,,,,,,,54.400427748000766,55.20044514700021,56.00207238600069,55.98451300700072,,,,,,,,,,,,,,,,55.98665393900046,56.00207238600069,56.00207238600069,56.58589207600016,g,1.0,0.5735106580004867,,56.58629542300059,56.60292796600061,57.60157718900064,,,,,,,,,,,,,,,,,,,,sub-102,1,stroop_test,59.53175169740823,
,,,,7.0,7.0,0.0,,,,,blau,red,r,0.0,r,1.0,0.7354350249997879,,,,,,,,,,,,,,0.0,7.0,7.0,4.0,,,,,57.61830295500022,,,,,,,,,,,,,,,,,57.60182044800058,57.93481381700076,58.7373766390001,58.71926516900021,,,,,,,,,,,,,,,,58.7215452570008,58.7373766390001,58.7373766390001,59.48788042200067,r,1.0,0.7354350249997879,,59.48827078500017,59.50450535000073,60.50306608700066,,,,,,,,,,,,,,,,,,,,sub-102,1,stroop_test,59.53175169740823,
,,,,8.0,8.0,0.0,,,,,gelb,yellow,g,1.0,g,1.0,0.5557832670001517,,,,,,,,,,,,,,0.0,8.0,8.0,10.0,,,,,60.51953075500023,,,,,,,,,,,,,,,,,60.503352254000674,61.70352787000047,62.5063009710002,62.48781614500058,,,,,,,,,,,,,,,,62.491131685000255,62.5063009710002,62.5063009710002,63.07190110800002,g,1.0,0.5557832670001517,,63.07236482000008,63.08704029,64.07155965000038,64.08781345400075,,,,,,,,,,,,,,,,,,,sub-102,1,stroop_test,59.53175169740823,
,,,,9.0,9.0,0.0,,,,,rot,blue,b,0.0,b,1.0,1.1161803289996897,,,,,,,,,,,,,,0.0,9.0,9.0,2.0,,,,,64.08781345400075,,,,,,,,,,,,,,,,,64.0717959120002,65.27177171100084,66.07433861700065,66.05618803200014,,,,,,,,,,,,,,,,66.05883161900056,66.07433861700065,66.07433861700065,67.20749203300056,b,1.0,1.1161803289996897,,67.20789668400084,67.22434861000056,68.22316742600015,,,,,,,,,,,,,,,,,,,,sub-102,1,stroop_test,59.53175169740823,
,,,,10.0,10.0,0.0,,,,,gelb,blue,b,0.0,b,1.0,1.6664649479998843,,,,,,,,,,,,,,0.0,10.0,10.0,9.0,,,,,68.24002206600017,,,,,,,,,,,,,,,,,68.22343809700033,68.3227468060004,69.12510123900029,69.10730259600041,,,,,,,,,,,,,,,,69.10944415100039,69.12510123900029,69.12510123900029,70.80859306500042,b,1.0,1.6664649479998843,,70.80903280100028,70.82428828800039,71.80862840100053,71.82491432400002,,,,,,,,,,,,,,,,,,,sub-102,1,stroop_test,59.53175169740823,
,,,,11.0,11.0,0.0,,,,,gelb,red,r,0.0,r,1.0,0.6003746980004507,,,,,,,,,,,,,,0.0,11.0,11.0,8.0,,,,,71.82491432400002,,,,,,,,,,,,,,,,,71.8088690350005,72.15831099100069,72.9588308300008,72.94271719300014,,,,,,,,,,,,,,,,72.94309565600088,72.9588308300008,72.9588308300008,73.56145013400055,r,1.0,0.6003746980004507,,73.56189162700048,73.57842245400025,74.57642118200056,,,,,,,,,,,,,,,,,,,,sub-102,1,stroop_test,59.53175169740823,
,,,,12.0,0.0,1.0,,,,,gelb,blue,b,0.0,b,1.0,0.6727462489998288,,,,,,,,,,,,,,1.0,0.0,12.0,9.0,,,,,74.59287259900066,,,,,,,,,,,,,,,,,74.57672130400078,74.6763164390004,75.47610860600071,75.46047942000041,,,,,,,,,,,,,,,,75.46085399200001,75.47610860600071,75.47610860600071,76.16106610300085,b,1.0,0.6727462489998288,,76.16148676400007,76.17771605600046,77.16082868600006,77.17753279600038,,,,,,,,,,,,,,,,,,,sub-102,1,stroop_test,59.53175169740823,
,,,,13.0,1.0,1.0,,,,,gelb,red,r,0.0,r,1.0,0.9534820610006136,,,,,,,,,,,,,,1.0,1.0,13.0,8.0,,,,,77.17753279600038,,,,,,,,,,,,,,,,,77.16108278800039,78.36138893500083,79.16158707700015,79.14552538700082,,,,,,,,,,,,,,,,79.14590727300038,79.16158707700015,79.16158707700015,80.12991223000063,r,1.0,0.9534820610006136,,80.1303223090008,80.14660455600006,81.12988273600058,81.14565933300037,,,,,,,,,,,,,,,,,,,sub-102,1,stroop_test,59.53175169740823,
,,,,14.0,2.0,1.0,,,,,blau,blue,b,1.0,b,1.0,0.5995954489999349,,,,,,,,,,,,,,1.0,2.0,14.0,6.0,,,,,81.14565933300037,,,,,,,,,,,,,,,,,81.1301286350008,81.92967961000068,82.73196788000041,82.71402888800003,,,,,,,,,,,,,,,,82.71629124600076,82.73196788000041,82.73196788000041,83.34887430600065,b,1.0,0.5995954489999349,,83.34930527100005,83.36457768500077,84.34751805800079,84.36433761100034,,,,,,,,,,,,,,,,,,,sub-102,1,stroop_test,59.53175169740823,
,,,,15.0,3.0,1.0,,,,,rot,red,r,1.0,r,1.0,0.5485554610004328,,,,,,,,,,,,,,1.0,3.0,15.0,1.0,,,,,84.36433761100034,,,,,,,,,,,,,,,,,84.34774738100077,85.16458140300074,85.96718976200009,85.94912103700062,,,,,,,,,,,,,,,,85.95149564900021,85.96718976200009,85.96718976200009,86.51772033200086,r,1.0,0.5485554610004328,,86.51815580400034,86.5345424850002,87.53216430700013,,,,,,,,,,,,,,,,,,,,sub-102,1,stroop_test,59.53175169740823,
,,,,16.0,4.0,1.0,,,,,rot,blue,b,0.0,b,1.0,1.2521220329999778,,,,,,,,,,,,,,1.0,4.0,16.0,2.0,,,,,87.54923847100054,,,,,,,,,,,,,,,,,87.5324321070002,88.33262362700043,89.1327919080004,89.1169821630001,,,,,,,,,,,,,,,,89.1173578200005,89.1327919080004,89.1327919080004,90.40135540900064,b,1.0,1.2521220329999778,,90.4017705440001,90.41809766400002,91.41747311900052,,,,,,,,,,,,,,,,,,,,sub-102,1,stroop_test,59.53175169740823,
,,,,17.0,5.0,1.0,,,,,rot,yellow,g,0.0,g,1.0,1.4185347760003424,,,,,,,,,,,,,,1.0,5.0,17.0,3.0,,,,,91.43411861700042,,,,,,,,,,,,,,,,,91.41774495100071,92.20123095000054,93.00123932400038,92.98551779600076,,,,,,,,,,,,,,,,92.9858853100004,93.00123932400038,93.00123932400038,94.4372695050006,g,1.0,1.4185347760003424,,94.43765938600065,94.4524306960002,95.43640756600053,95.4529686320002,,,,,,,,,,,,,,,,,,,sub-102,1,stroop_test,59.53175169740823,
,,,,18.0,6.0,1.0,,,,,rot,red,r,1.0,r,1.0,0.5981399180000153,,,,,,,,,,,,,,1.0,6.0,18.0,0.0,,,,,95.4529686320002,,,,,,,,,,,,,,,,,95.43664874600016,95.55298032300016,96.35315355000056,96.3368883360008,,,,,,,,,,,,,,,,96.33726491000016,96.35315355000056,96.35315355000056,96.95593311800076,r,1.0,0.5981399180000153,,96.95636236300015,96.97313279500032,97.97019419500066,,,,,,,,,,,,,,,,,,,,sub-102,1,stroop_test,59.53175169740823,
,,,,19.0,7.0,1.0,,,,,gelb,yellow,g,1.0,g,1.0,0.5657164719996217,,,,,,,,,,,,,,1.0,7.0,19.0,11.0,,,,,97.98717699000008,,,,,,,,,,,,,,,,,97.97043719000068,98.77122840500031,99.57349058400088,99.555456993,,,,,,,,,,,,,,,,99.55784792300074,99.57349058400088,99.57349058400088,100.15625226700011,g,1.0,0.5657164719996217,,100.15664815700076,100.172021976,101.15600737300063,101.17156379300012,,,,,,,,,,,,,,,,,,,sub-102,1,stroop_test,59.53175169740823,
,,,,20.0,8.0,1.0,,,,,blau,blue,b,1.0,b,1.0,0.4852307159999327,,,,,,,,,,,,,,1.0,8.0,20.0,5.0,,,,,101.17156379300012,,,,,,,,,,,,,,,,,101.15624974400087,102.35582799200074,103.158425437,103.14040959900012,,,,,,,,,,,,,,,,103.14256011700036,103.158425437,103.158425437,103.65813863900075,b,1.0,0.4852307159999327,,103.65853406400038,103.67499689400027,104.6736149970002,,,,,,,,,,,,,,,,,,,,sub-102,1,stroop_test,59.53175169740823,
,,,,21.0,9.0,1.0,,,,,blau,red,r,0.0,r,1.0,0.8648863750004239,,,,,,,,,,,,,,1.0,9.0,21.0,4.0,,,,,104.69056883900066,,,,,,,,,,,,,,,,,104.67385827400084,105.85788793900063,106.6583542970002,106.6421094820007,,,,,,,,,,,,,,,,106.64246739200009,106.6583542970002,106.6583542970002,107.52737978100048,r,1.0,0.8648863750004239,,107.52777149800022,107.54433607700048,108.54251363000004,,,,,,,,,,,,,,,,,,,,sub-102,1,stroop_test,59.53175169740823,
,,,,22.0,10.0,1.0,,,,,blau,yellow,g,0.0,g,1.0,0.5188664199995401,,,,,,,,,,,,,,1.0,10.0,22.0,7.0,,,,,108.55898460500066,,,,,,,,,,,,,,,,,108.542759811,108.64239670000006,109.44241348700052,109.42669250200017,,,,,,,,,,,,,,,,109.42706920100044,109.44241348700052,109.44241348700052,109.97790147100022,g,1.0,0.5188664199995401,,109.97829563800042,109.99447608900029,110.99362899400056,,,,,,,,,,,,,,,,,,,,sub-102,1,stroop_test,59.53175169740823,
,,,,23.0,11.0,1.0,,,,,gelb,yellow,g,1.0,g,1.0,0.5653981289997319,,,,,,,,,,,,,,1.0,11.0,23.0,10.0,,,,,111.010322954,,,,,,,,,,,,,,,,,110.99388510900008,111.7770865930006,112.57892408600036,112.56131742400066,,,,,,,,,,,,,,,,112.56344527100008,112.57892408600036,112.57892408600036,113.14593665400024,g,1.0,0.5653981289997319,,113.14633680600036,113.16257607600072,114.14545046200055,114.16197141800058,,,,,,,,,,,,,,,,,,,sub-102,1,stroop_test,59.53175169740823,
,,,,,,,,,,,,,,,,,,,,,,,,,,,,,,,,,,,,,,,,,,,,,,,,,,,,,,,,,,,,,,,,,,,,,,,,,,,,,,,,,,,,,,,114.14555531300084,114.16197141800058,114.16197141800058,117.36499979700056,space,3.1950206849996903,,,,,,,,,,,,,sub-102,1,stroop_test,59.53175169740823,
,,,,0.0,0.0,0.0,,,,,,,,,,,,,blau,yellow,g,0.0,g,1.0,1.066349691000141,,,,,,,,,,0.0,0.0,0.0,7.0,117.3909608240001,,,,,,,,,,,,,,,,,117.37748655800078,118.18002622900076,118.9823236250004,118.96450801000084,,,,,,,,,,,,,,,,,,,,,,,,,,,,,,,,,,,118.96662391000064,118.9823236250004,118.9823236250004,120.06592536000062,g,1.0,1.066349691000141,,,,,sub-102,1,stroop_test,59.53175169740823,
,,,,1.0,1.0,0.0,,,,,,,,,,,,,rot,red,r,1.0,r,1.0,0.5009619060001569,,,,,,,,,,0.0,1.0,1.0,0.0,120.0806037960001,,,,,,,,,,,,,,,,,120.0662199390008,120.86588925200068,121.66534055100055,121.64903823000076,,,,,,,,,,,,,,,,,,,,,,,,,,,,,,,,,,,121.65137066400077,121.66534055100055,121.66534055100055,122.1682812980007,r,1.0,0.5009619060001569,,,,,sub-102,1,stroop_test,59.53175169740823,
,,,,2.0,2.0,0.0,,,,,,,,,,,,,gelb,yellow,g,1.0,g,1.0,0.4847471630000655,,,,,,,,,,0.0,2.0,2.0,11.0,122.184044394,,,,,,,,,,,,,,,,,122.16857783500018,122.98254150200046,123.78354640600082,123.76628561600046,,,,,,,,,,,,,,,,,,,,,,,,,,,,,,,,,,,123.7683946140005,123.78354640600082,123.78354640600082,124.2840377980001,g,1.0,0.4847471630000655,,,,,sub-102,1,stroop_test,59.53175169740823,
,,,,3.0,3.0,0.0,,,,,,,,,,,,,gelb,blue,b,0.0,b,1.0,0.4084122880003633,,,,,,,,,,0.0,3.0,3.0,9.0,124.29967677900004,,,,,,,,,,,,,,,,,124.2843272930004,125.4835890230006,126.28346714200052,126.26738610200027,,,,,,,,,,,,,,,,,,,,,,,,,,,,,,,,,,,126.26779383900066,126.28346714200052,126.28346714200052,126.702838616,b,1.0,0.4084122880003633,,,,,sub-102,1,stroop_test,59.53175169740823,
,,,,4.0,4.0,0.0,,,,,,,,,,,,,blau,blue,b,1.0,b,1.0,0.5329364129993337,,,,,,,,,,0.0,4.0,4.0,5.0,126.71866169300029,,,,,,,,,,,,,,,,,126.70312202900004,127.91814459100078,128.7202929670002,128.70243633100017,,,,,,,,,,,,,,,,,,,,,,,,,,,,,,,,,,,128.7046761340007,128.7202929670002,128.7202929670002,129.27011207300075,b,1.0,0.5329364129993337,,,,,sub-102,1,stroop_test,59.53175169740823,
,,,,5.0,5.0,0.0,,,,,,,,,,,,,rot,yellow,g,0.0,g,1.0,0.4572003839994067,,,,,,,,,,0.0,5.0,5.0,3.0,129.28498218000004,,,,,,,,,,,,,,,,,129.27040083800057,130.08591493900076,130.88884577600038,130.87033969800086,,,,,,,,,,,,,,,,,,,,,,,,,,,,,,,,,,,130.8727396610002,130.88884577600038,130.88884577600038,131.3550970990009,g,1.0,0.4572003839994067,,,,,sub-102,1,stroop_test,59.53175169740823,
,,,,6.0,6.0,0.0,,,,,,,,,,,,,gelb,yellow,g,1.0,g,1.0,0.4922675379993961,,,,,,,,,,0.0,6.0,6.0,10.0,131.37060459800068,,,,,,,,,,,,,,,,,131.35537885200029,132.17001960500056,132.97268923400043,132.95483099500052,,,,,,,,,,,,,,,,,,,,,,,,,,,,,,,,,,,132.95719044500038,132.97268923400043,132.97268923400043,133.4726809670001,g,1.0,0.4922675379993961,,,,,sub-102,1,stroop_test,59.53175169740823,
,,,,7.0,7.0,0.0,,,,,,,,,,,,,blau,blue,b,1.0,b,1.0,0.5549165339998581,,,,,,,,,,0.0,7.0,7.0,6.0,133.48887203900085,,,,,,,,,,,,,,,,,133.4729969630007,134.2880100150005,135.08937159700054,135.0718442590005,,,,,,,,,,,,,,,,,,,,,,,,,,,,,,,,,,,135.0741185650004,135.08937159700054,135.08937159700054,135.6567240940003,b,1.0,0.5549165339998581,,,,,sub-102,1,stroop_test,59.53175169740823,
,,,,8.0,8.0,0.0,,,,,,,,,,,,,rot,red,r,1.0,r,1.0,0.5162456030002431,,,,,,,,,,0.0,8.0,8.0,1.0,135.67250032800075,,,,,,,,,,,,,,,,,135.65699736900024,136.85604984300062,137.65765027600082,137.63992975600013,,,,,,,,,,,,,,,,,,,,,,,,,,,,,,,,,,,137.64240349800002,137.65765027600082,137.65765027600082,138.1908925130001,r,1.0,0.5162456030002431,,,,,sub-102,1,stroop_test,59.53175169740823,
,,,,9.0,9.0,0.0,,,,,,,,,,,,,rot,blue,b,0.0,b,1.0,0.7640549679999822,,,,,,,,,,0.0,9.0,9.0,2.0,138.20587530300054,,,,,,,,,,,,,,,,,138.19118293100018,138.30651158,139.10660892400028,139.09070312400036,,,,,,,,,,,,,,,,,,,,,,,,,,,,,,,,,,,139.09112369600007,139.10660892400028,139.10660892400028,139.8762668700001,b,1.0,0.7640549679999822,,,,,sub-102,1,stroop_test,59.53175169740823,
,,,,10.0,10.0,0.0,,,,,,,,,,,,,blau,red,r,0.0,r,1.0,0.5646255430001474,,,,,,,,,,0.0,10.0,10.0,4.0,139.88992546999998,,,,,,,,,,,,,,,,,139.87654473800012,140.6914400300002,141.57795788800013,141.55706857100083,,,,,,,,,,,,,,,,,,,,,,,,,,,,,,,,,,,141.56100050000077,141.57795788800013,141.57795788800013,142.1465474760007,r,1.0,0.5646255430001474,,,,,sub-102,1,stroop_test,59.53175169740823,
,,,,11.0,11.0,0.0,,,,,,,,,,,,,gelb,red,r,0.0,r,1.0,0.4407546399997955,,,,,,,,,,0.0,11.0,11.0,8.0,142.16651458700017,,,,,,,,,,,,,,,,,142.1470475770002,142.24694342800012,143.05253640000046,143.03097827000056,,,,,,,,,,,,,,,,,,,,,,,,,,,,,,,,,,,143.0368694180006,143.05253640000046,143.05253640000046,143.49620856,r,1.0,0.4407546399997955,,,,,sub-102,1,stroop_test,59.53175169740823,
,,,,12.0,0.0,1.0,,,,,,,,,,,,,gelb,red,r,0.0,r,1.0,0.47649826199995,,,,,,,,,,1.0,0.0,12.0,8.0,143.51372920000085,,,,,,,,,,,,,,,,,143.49665252700015,144.7103772270002,145.51056638300088,145.49373366300006,,,,,,,,,,,,,,,,,,,,,,,,,,,,,,,,,,,145.49412894300076,145.51056638300088,145.51056638300088,145.99531589400067,r,1.0,0.47649826199995,,,,,sub-102,1,stroop_test,59.53175169740823,
,,,,13.0,1.0,1.0,,,,,,,,,,,,,gelb,yellow,g,1.0,g,1.0,0.6165866299998015,,,,,,,,,,1.0,1.0,13.0,11.0,146.01068174800002,,,,,,,,,,,,,,,,,145.9955871840002,146.10953451500063,146.91094445200088,146.89387994000026,,,,,,,,,,,,,,,,,,,,,,,,,,,,,,,,,,,146.89426658000048,146.91094445200088,146.91094445200088,147.5295074300002,g,1.0,0.6165866299998015,,,,,sub-102,1,stroop_test,59.53175169740823,
,,,,14.0,2.0,1.0,,,,,,,,,,,,,blau,blue,b,1.0,b,1.0,0.4277173239997864,,,,,,,,,,1.0,2.0,14.0,5.0,147.54488408600082,,,,,,,,,,,,,,,,,147.52979545200014,148.3277566530005,149.132444803,149.11340341800042,,,,,,,,,,,,,,,,,,,,,,,,,,,,,,,,,,,149.11594424000032,149.132444803,149.132444803,149.56405378400086,b,1.0,0.4277173239997864,,,,,sub-102,1,stroop_test,59.53175169740823,
,,,,15.0,3.0,1.0,,,,,,,,,,,,,gelb,blue,b,0.0,b,1.0,0.4635347779994845,,,,,,,,,,1.0,3.0,15.0,9.0,149.58123858600084,,,,,,,,,,,,,,,,,149.56448130100034,149.6785179160006,150.4833292380008,150.46339790100046,,,,,,,,,,,,,,,,,,,,,,,,,,,,,,,,,,,150.4670600040008,150.4833292380008,150.4833292380008,150.96432267600085,b,1.0,0.4635347779994845,,,,,sub-102,1,stroop_test,59.53175169740823,
,,,,16.0,4.0,1.0,,,,,,,,,,,,,blau,red,r,0.0,r,1.0,0.621349201999692,,,,,,,,,,1.0,4.0,16.0,4.0,150.9790650800005,,,,,,,,,,,,,,,,,150.96458924200033,151.0786207830006,151.88568936400043,151.86442145400088,,,,,,,,,,,,,,,,,,,,,,,,,,,,,,,,,,,151.86867456100026,151.88568936400043,151.88568936400043,152.51506503700057,r,1.0,0.621349201999692,,,,,sub-102,1,stroop_test,59.53175169740823,
,,,,17.0,5.0,1.0,,,,,,,,,,,,,rot,yellow,g,0.0,g,1.0,0.5095579910002925,,,,,,,,,,1.0,5.0,17.0,3.0,152.52911804900032,,,,,,,,,,,,,,,,,152.5153377380002,153.3296796100003,154.14483732200006,154.11503659100072,,,,,,,,,,,,,,,,,,,,,,,,,,,,,,,,,,,154.11908010300067,154.14483732200006,154.14483732200006,154.66549389800002,g,1.0,0.5095579910002925,,,,,sub-102,1,stroop_test,59.53175169740823,
,,,,18.0,6.0,1.0,,,,,,,,,,,,,gelb,yellow,g,1.0,g,1.0,0.5492888749995473,,,,,,,,,,1.0,6.0,18.0,10.0,154.68133787700026,,,,,,,,,,,,,,,,,154.66576500800056,155.03085807700063,155.83279609700003,155.81529932600006,,,,,,,,,,,,,,,,,,,,,,,,,,,,,,,,,,,155.8175175900005,155.83279609700003,155.83279609700003,156.39904411000043,g,1.0,0.5492888749995473,,,,,sub-102,1,stroop_test,59.53175169740823,
,,,,19.0,7.0,1.0,,,,,,,,,,,,,rot,red,r,1.0,b,0.0,0.382886530000178,,,,,,,,,,1.0,7.0,19.0,1.0,156.41346283700022,,,,,,,,,,,,,,,,,156.39932049300023,157.19845383400025,158.00022097800047,157.9826942150003,,,,,,,,,,,,,,,,,,,,,,,,,,,,,,,,,,,157.9848205390008,158.00022097800047,158.00022097800047,158.40002883800025,b,0.0,0.382886530000178,,,,,sub-102,1,stroop_test,59.53175169740823,
,,,,20.0,8.0,1.0,,,,,,,,,,,,,blau,yellow,g,0.0,g,1.0,0.6337672019999445,,,,,,,,,,1.0,8.0,20.0,7.0,158.41632459100038,,,,,,,,,,,,,,,,,158.4003139230008,158.74952293000024,159.55064123900047,159.53317500600042,,,,,,,,,,,,,,,,,,,,,,,,,,,,,,,,,,,159.5353166460009,159.55064123900047,159.55064123900047,160.2016664470002,g,1.0,0.6337672019999445,,,,,sub-102,1,stroop_test,59.53175169740823,
,,,,21.0,9.0,1.0,,,,,,,,,,,,,rot,red,r,1.0,r,1.0,0.5197228570004881,,,,,,,,,,1.0,9.0,21.0,0.0,160.2167161060006,,,,,,,,,,,,,,,,,160.20196044000022,161.0173312880006,161.8207548750006,161.80145461100074,,,,,,,,,,,,,,,,,,,,,,,,,,,,,,,,,,,161.8036908440008,161.8207548750006,161.8207548750006,162.35290934300065,r,1.0,0.5197228570004881,,,,,sub-102,1,stroop_test,59.53175169740823,
,,,,22.0,10.0,1.0,,,,,,,,,,,,,rot,blue,b,0.0,b,1.0,1.080766107999807,,,,,,,,,,1.0,10.0,22.0,2.0,162.36882520400013,,,,,,,,,,,,,,,,,162.3532041920007,163.5681542330003,164.3697183130007,164.3523801450001,,,,,,,,,,,,,,,,,,,,,,,,,,,,,,,,,,,164.35274840400052,164.3697183130007,164.3697183130007,165.45457233700017,b,1.0,1.080766107999807,,,,,sub-102,1,stroop_test,59.53175169740823,
,,,,23.0,11.0,1.0,,,,,,,,,,,,,blau,blue,b,1.0,b,1.0,0.442243112000142,,,,,,,,,,1.0,11.0,23.0,6.0,165.47007066600054,,,,,,,,,,,,,,,,,165.45484700000088,165.56996737400004,166.37100112200005,166.35341666000022,,,,,,,,,,,,,,,,,,,,,,,,,,,,,,,,,,,166.3557867210002,166.37100112200005,166.37100112200005,166.82175297200047,b,1.0,0.442243112000142,,,,,sub-102,1,stroop_test,59.53175169740823,
,,,,24.0,0.0,2.0,,,,,,,,,,,,,rot,blue,b,0.0,b,1.0,0.4981518129998221,,,,,,,,,,2.0,0.0,24.0,2.0,166.8384608160004,,,,,,,,,,,,,,,,,166.8221757250003,167.63706559100046,168.43853029900038,168.4210870730003,,,,,,,,,,,,,,,,,,,,,,,,,,,,,,,,,,,168.423189653,168.43853029900038,168.43853029900038,168.93986349700026,b,1.0,0.4981518129998221,,,,,sub-102,1,stroop_test,59.53175169740823,
,,,,25.0,1.0,2.0,,,,,,,,,,,,,rot,red,r,1.0,r,1.0,0.6690041800002291,,,,,,,,,,2.0,1.0,25.0,0.0,168.95562992300074,,,,,,,,,,,,,,,,,168.94016105400078,170.1548425180008,170.95537892100035,170.93910525400042,,,,,,,,,,,,,,,,,,,,,,,,,,,,,,,,,,,170.93947828,170.95537892100035,170.95537892100035,171.64038129300025,r,1.0,0.6690041800002291,,,,,sub-102,1,stroop_test,59.53175169740823,
,,,,26.0,2.0,2.0,,,,,,,,,,,,,gelb,yellow,g,1.0,g,1.0,0.4834254449997388,,,,,,,,,,2.0,2.0,26.0,11.0,171.65640288600025,,,,,,,,,,,,,,,,,171.64066262600045,172.00558622100016,172.8087543520005,172.79006547800054,,,,,,,,,,,,,,,,,,,,,,,,,,,,,,,,,,,172.7927178910004,172.8087543520005,172.8087543520005,173.3084963170004,g,1.0,0.4834254449997388,,,,,sub-102,1,stroop_test,59.53175169740823,
,,,,27.0,3.0,2.0,,,,,,,,,,,,,blau,yellow,g,0.0,g,1.0,0.4610783730004186,,,,,,,,,,2.0,3.0,27.0,7.0,173.32474368800013,,,,,,,,,,,,,,,,,173.3089866830005,173.42278193700076,174.2278075660006,174.20798627500062,,,,,,,,,,,,,,,,,,,,,,,,,,,,,,,,,,,174.2114022780006,174.2278075660006,174.2278075660006,174.6926264700005,g,1.0,0.4610783730004186,,,,,sub-102,1,stroop_test,59.53175169740823,
,,,,28.0,4.0,2.0,,,,,,,,,,,,,gelb,red,r,0.0,r,1.0,0.6114443340002254,,,,,,,,,,2.0,4.0,28.0,8.0,174.70886383800007,,,,,,,,,,,,,,,,,174.69291875600084,175.05761452500064,175.85876884000027,175.841364375,,,,,,,,,,,,,,,,,,,,,,,,,,,,,,,,,,,175.84351037600027,175.85876884000027,175.85876884000027,176.47789992400067,r,1.0,0.6114443340002254,,,,,sub-102,1,stroop_test,59.53175169740823,
,,,,29.0,5.0,2.0,,,,,,,,,,,,,blau,red,r,0.0,r,1.0,0.4149138740003764,,,,,,,,,,2.0,5.0,29.0,4.0,176.4934781740003,,,,,,,,,,,,,,,,,176.4782295240002,176.59124436800084,177.39277550000045,177.37541050600066,,,,,,,,,,,,,,,,,,,,,,,,,,,,,,,,,,,177.37756439200075,177.39277550000045,177.39277550000045,177.81001980100064,r,1.0,0.4149138740003764,,,,,sub-102,1,stroop_test,59.53175169740823,
,,,,30.0,6.0,2.0,,,,,,,,,,,,,gelb,blue,b,0.0,b,1.0,0.4336621789998389,,,,,,,,,,2.0,6.0,30.0,9.0,177.82545289900008,,,,,,,,,,,,,,,,,177.8103303150001,178.17514899300022,178.97617792800065,178.95896249500038,,,,,,,,,,,,,,,,,,,,,,,,,,,,,,,,,,,178.96109563000027,178.97617792800065,178.97617792800065,179.41192493700055,b,1.0,0.4336621789998389,,,,,sub-102,1,stroop_test,59.53175169740823,
,,,,31.0,7.0,2.0,,,,,,,,,,,,,blau,blue,b,1.0,b,1.0,0.4995044199995391,,,,,,,,,,2.0,7.0,31.0,6.0,179.42767962800008,,,,,,,,,,,,,,,,,179.4122384330003,180.22629298000084,181.02859600100052,181.010507813,,,,,,,,,,,,,,,,,,,,,,,,,,,,,,,,,,,181.01264245100083,181.02859600100052,181.02859600100052,181.54514226000083,b,1.0,0.4995044199995391,,,,,sub-102,1,stroop_test,59.53175169740823,
,,,,32.0,8.0,2.0,,,,,,,,,,,,,gelb,yellow,g,1.0,g,1.0,0.3887427359995854,,,,,,,,,,2.0,8.0,32.0,10.0,181.5596648110004,,,,,,,,,,,,,,,,,181.5454231390004,181.91054084900043,182.71342137300053,182.69550224500017,,,,,,,,,,,,,,,,,,,,,,,,,,,,,,,,,,,182.6978692100001,182.71342137300053,182.71342137300053,183.1120249500009,g,1.0,0.3887427359995854,,,,,sub-102,1,stroop_test,59.53175169740823,
,,,,33.0,9.0,2.0,,,,,,,,,,,,,rot,yellow,g,0.0,g,1.0,0.815938697999627,,,,,,,,,,2.0,9.0,33.0,3.0,183.12751168900013,,,,,,,,,,,,,,,,,183.1122983840005,183.9115349740005,184.7138670710001,184.6954972120002,,,,,,,,,,,,,,,,,,,,,,,,,,,,,,,,,,,184.6981954440007,184.7138670710001,184.7138670710001,185.54738695200007,g,1.0,0.815938697999627,,,,,sub-102,1,stroop_test,59.53175169740823,
,,,,34.0,10.0,2.0,,,,,,,,,,,,,rot,red,r,1.0,r,1.0,0.5839458000000377,,,,,,,,,,2.0,10.0,34.0,1.0,185.5617478060003,,,,,,,,,,,,,,,,,185.54765982900065,186.76273618200048,187.5628140000008,187.54681657700075,,,,,,,,,,,,,,,,,,,,,,,,,,,,,,,,,,,187.5471956200008,187.5628140000008,187.5628140000008,188.1485640840001,r,1.0,0.5839458000000377,,,,,sub-102,1,stroop_test,59.53175169740823,
,,,,35.0,11.0,2.0,,,,,,,,,,,,,blau,blue,b,1.0,b,1.0,0.5155577559999074,,,,,,,,,,2.0,11.0,35.0,5.0,188.16397286100076,,,,,,,,,,,,,,,,,188.1488473700001,188.26425036100045,189.065109055,189.04752734200065,,,,,,,,,,,,,,,,,,,,,,,,,,,,,,,,,,,189.0496655800007,189.065109055,189.065109055,189.58317024400003,b,1.0,0.5155577559999074,,,,,sub-102,1,stroop_test,59.53175169740823,
,,,,36.0,0.0,3.0,,,,,,,,,,,,,blau,blue,b,1.0,b,1.0,0.5210425729992494,,,,,,,,,,3.0,0.0,36.0,6.0,189.5988152940008,,,,,,,,,,,,,,,,,189.5834649410008,190.3977273890005,191.1985275290008,191.1819426900001,,,,,,,,,,,,,,,,,,,,,,,,,,,,,,,,,,,191.18233183100077,191.1985275290008,191.1985275290008,191.7334069160006,b,1.0,0.5210425729992494,,,,,sub-102,1,stroop_test,59.53175169740823,
,,,,37.0,1.0,3.0,,,,,,,,,,,,,gelb,blue,b,0.0,b,1.0,0.4749335699998482,,,,,,,,,,3.0,1.0,37.0,9.0,191.7496788430008,,,,,,,,,,,,,,,,,191.73368191400004,192.54877041100008,193.35056035800065,193.33320747000016,,,,,,,,,,,,,,,,,,,,,,,,,,,,,,,,,,,193.3353579010009,193.35056035800065,193.35056035800065,193.8339152840008,b,1.0,0.4749335699998482,,,,,sub-102,1,stroop_test,59.53175169740823,
,,,,38.0,2.0,3.0,,,,,,,,,,,,,rot,yellow,g,0.0,g,1.0,0.5975658440002007,,,,,,,,,,3.0,2.0,38.0,3.0,193.84955104300025,,,,,,,,,,,,,,,,,193.8341888140003,193.9495438820004,194.75108333500063,194.733688454,,,,,,,,,,,,,,,,,,,,,,,,,,,,,,,,,,,194.7358274840008,194.75108333500063,194.75108333500063,195.3524106730001,g,1.0,0.5975658440002007,,,,,sub-102,1,stroop_test,59.53175169740823,
,,,,39.0,3.0,3.0,,,,,,,,,,,,,gelb,yellow,g,1.0,g,1.0,0.4895178760007184,,,,,,,,,,3.0,3.0,39.0,10.0,195.36846102300024,,,,,,,,,,,,,,,,,195.35270403100003,195.46677350900063,196.2688556080002,196.25118249700063,,,,,,,,,,,,,,,,,,,,,,,,,,,,,,,,,,,196.25336589500057,196.2688556080002,196.2688556080002,196.76993514400056,g,1.0,0.4895178760007184,,,,,sub-102,1,stroop_test,59.53175169740823,
,,,,40.0,4.0,3.0,,,,,,,,,,,,,rot,red,r,1.0,r,1.0,0.5030858130003253,,,,,,,,,,3.0,4.0,40.0,1.0,196.7867608530005,,,,,,,,,,,,,,,,,196.7703254770004,196.88406834700072,197.68632844200056,197.6684942440006,,,,,,,,,,,,,,,,,,,,,,,,,,,,,,,,,,,197.6707314790001,197.68632844200056,197.68632844200056,198.20235321100063,r,1.0,0.5030858130003253,,,,,sub-102,1,stroop_test,59.53175169740823,
,,,,41.0,5.0,3.0,,,,,,,,,,,,,gelb,red,r,0.0,r,1.0,1.542875672000264,,,,,,,,,,3.0,5.0,41.0,8.0,198.21799125800044,,,,,,,,,,,,,,,,,198.20264469500037,199.00201352000025,199.8043938410001,199.78612195000005,,,,,,,,,,,,,,,,,,,,,,,,,,,,,,,,,,,199.78863984800049,199.8043938410001,199.8043938410001,201.3548329540008,r,1.0,1.542875672000264,,,,,sub-102,1,stroop_test,59.53175169740823,
,,,,42.0,6.0,3.0,,,,,,,,,,,,,rot,red,r,1.0,r,1.0,0.5113005020002674,,,,,,,,,,3.0,6.0,42.0,0.0,201.37196996000057,,,,,,,,,,,,,,,,,201.355129865,202.17036533600003,202.98069291200045,202.9629233400001,,,,,,,,,,,,,,,,,,,,,,,,,,,,,,,,,,,202.9673067820004,202.98069291200045,202.98069291200045,203.5056763210005,r,1.0,0.5113005020002674,,,,,sub-102,1,stroop_test,59.53175169740823,
,,,,43.0,7.0,3.0,,,,,,,,,,,,,rot,blue,b,0.0,b,1.0,1.1006346539998049,,,,,,,,,,3.0,7.0,43.0,2.0,203.521330001,,,,,,,,,,,,,,,,,203.5059624560008,204.7209361590003,205.5219770980002,205.50553947900065,,,,,,,,,,,,,,,,,,,,,,,,,,,,,,,,,,,205.5059558430003,205.5219770980002,205.5219770980002,206.6243598130004,b,1.0,1.1006346539998049,,,,,sub-102,1,stroop_test,59.53175169740823,
,,,,44.0,8.0,3.0,,,,,,,,,,,,,gelb,yellow,g,1.0,g,1.0,0.5460144589997071,,,,,,,,,,3.0,8.0,44.0,11.0,206.64005203500076,,,,,,,,,,,,,,,,,206.62465998000064,207.43923106800048,208.24130381300077,208.22344720400088,,,,,,,,,,,,,,,,,,,,,,,,,,,,,,,,,,,208.225613521,208.24130381300077,208.24130381300077,208.7922126800004,g,1.0,0.5460144589997071,,,,,sub-102,1,stroop_test,59.53175169740823,
,,,,45.0,9.0,3.0,,,,,,,,,,,,,blau,red,r,0.0,r,1.0,0.8172259799994208,,,,,,,,,,3.0,9.0,45.0,4.0,208.80833249600076,,,,,,,,,,,,,,,,,208.79250637300083,210.0072811460004,210.80881783300083,210.7913940590006,,,,,,,,,,,,,,,,,,,,,,,,,,,,,,,,,,,210.79350971500023,210.80881783300083,210.80881783300083,211.64274090300023,r,1.0,0.8172259799994208,,,,,sub-102,1,stroop_test,59.53175169740823,
,,,,46.0,10.0,3.0,,,,,,,,,,,,,blau,blue,b,1.0,b,1.0,0.819933306999701,,,,,,,,,,3.0,10.0,46.0,5.0,211.65731703000077,,,,,,,,,,,,,,,,,211.6430256870008,212.45819420800035,213.26977558200088,213.24874252800052,,,,,,,,,,,,,,,,,,,,,,,,,,,,,,,,,,,213.24936887900003,213.26977558200088,213.26977558200088,214.09457800900051,b,1.0,0.819933306999701,,,,,sub-102,1,stroop_test,59.53175169740823,
,,,,47.0,11.0,3.0,,,,,,,,,,,,,blau,yellow,g,0.0,g,1.0,0.6009230070003468,,,,,,,,,,3.0,11.0,47.0,7.0,214.1090631800007,,,,,,,,,,,,,,,,,214.09484601200077,214.9094936670008,215.70948609800053,215.6936733800003,,,,,,,,,,,,,,,,,,,,,,,,,,,,,,,,,,,215.69404800600023,215.70948609800053,215.70948609800053,216.31214334000012,g,1.0,0.6009230070003468,,,,,sub-102,1,stroop_test,59.53175169740823,
,,,,48.0,0.0,4.0,,,,,,,,,,,,,rot,blue,b,0.0,b,1.0,0.9580930270003593,,,,,,,,,,4.0,0.0,48.0,2.0,216.3262242820001,,,,,,,,,,,,,,,,,216.31245052900067,216.67695000000003,217.47857718400064,217.4613100030001,,,,,,,,,,,,,,,,,,,,,,,,,,,,,,,,,,,217.46360980000009,217.47857718400064,217.47857718400064,218.44565320900077,b,1.0,0.9580930270003593,,,,,sub-102,1,stroop_test,59.53175169740823,
,,,,49.0,1.0,4.0,,,,,,,,,,,,,blau,yellow,g,0.0,g,1.0,1.1377783100006127,,,,,,,,,,4.0,1.0,49.0,7.0,218.461109027,,,,,,,,,,,,,,,,,218.44592705800005,218.5612803410004,219.3627293900008,219.34523200700005,,,,,,,,,,,,,,,,,,,,,,,,,,,,,,,,,,,219.34747325300032,219.3627293900008,219.3627293900008,220.51346934000048,g,1.0,1.1377783100006127,,,,,sub-102,1,stroop_test,59.53175169740823,
,,,,50.0,2.0,4.0,,,,,,,,,,,,,blau,red,r,0.0,r,1.0,1.099527504999969,,,,,,,,,,4.0,2.0,50.0,4.0,220.5295507580004,,,,,,,,,,,,,,,,,220.5137718020005,220.6287185780002,221.42901168900065,221.41310463100035,,,,,,,,,,,,,,,,,,,,,,,,,,,,,,,,,,,221.4134660530008,221.42901168900065,221.42901168900065,222.53193920000007,r,1.0,1.099527504999969,,,,,sub-102,1,stroop_test,59.53175169740823,
,,,,51.0,3.0,4.0,,,,,,,,,,,,,rot,red,r,1.0,r,1.0,0.6267770640006347,,,,,,,,,,4.0,3.0,51.0,0.0,222.5481091090005,,,,,,,,,,,,,,,,,222.5322338020005,222.64637176200085,223.44983527900055,223.43050758000027,,,,,,,,,,,,,,,,,,,,,,,,,,,,,,,,,,,223.4334985150008,223.44983527900055,223.44983527900055,224.0827509770006,r,1.0,0.6267770640006347,,,,,sub-102,1,stroop_test,59.53175169740823,
,,,,52.0,4.0,4.0,,,,,,,,,,,,,rot,yellow,g,0.0,g,1.0,0.7269478839998555,,,,,,,,,,4.0,4.0,52.0,3.0,224.09859651100032,,,,,,,,,,,,,,,,,224.08305665600076,225.2976469060004,226.09785842300064,226.08181178500035,,,,,,,,,,,,,,,,,,,,,,,,,,,,,,,,,,,226.0821909190008,226.09785842300064,226.09785842300064,226.8339083890005,g,1.0,0.7269478839998555,,,,,sub-102,1,stroop_test,59.53175169740823,
,,,,53.0,5.0,4.0,,,,,,,,,,,,,gelb,yellow,g,1.0,g,1.0,0.6234816739997768,,,,,,,,,,4.0,5.0,53.0,10.0,226.85113110200015,,,,,,,,,,,,,,,,,226.83420667100015,227.19858915400076,228.0002730240003,227.9827131220009,,,,,,,,,,,,,,,,,,,,,,,,,,,,,,,,,,,227.9848333380005,228.0002730240003,228.0002730240003,228.6343011830004,g,1.0,0.6234816739997768,,,,,sub-102,1,stroop_test,59.53175169740823,
,,,,54.0,6.0,4.0,,,,,,,,,,,,,gelb,red,r,0.0,r,1.0,0.6291190339998138,,,,,,,,,,4.0,6.0,54.0,8.0,228.64986774000045,,,,,,,,,,,,,,,,,228.63458442200044,228.7491821700005,229.5495003220003,229.5336321040004,,,,,,,,,,,,,,,,,,,,,,,,,,,,,,,,,,,229.5339956110001,229.5495003220003,229.5495003220003,230.18545875100065,r,1.0,0.6291190339998138,,,,,sub-102,1,stroop_test,59.53175169740823,
,,,,55.0,7.0,4.0,,,,,,,,,,,,,rot,red,r,1.0,r,1.0,0.4964303569995536,,,,,,,,,,4.0,7.0,55.0,1.0,230.2016357750008,,,,,,,,,,,,,,,,,230.18575490500007,230.55018756400025,231.35167289700075,231.33427727600065,,,,,,,,,,,,,,,,,,,,,,,,,,,,,,,,,,,231.33638359700035,231.35167289700075,231.35167289700075,231.85195873400065,r,1.0,0.4964303569995536,,,,,sub-102,1,stroop_test,59.53175169740823,
,,,,56.0,8.0,4.0,,,,,,,,,,,,,gelb,blue,b,0.0,b,1.0,0.6024503549997462,,,,,,,,,,4.0,8.0,56.0,9.0,231.86750956700047,,,,,,,,,,,,,,,,,231.8522479360008,233.0512215840008,233.85683926300044,233.8375535580008,,,,,,,,,,,,,,,,,,,,,,,,,,,,,,,,,,,233.84017650100031,233.85683926300044,233.85683926300044,234.47044636400005,b,1.0,0.6024503549997462,,,,,sub-102,1,stroop_test,59.53175169740823,
,,,,57.0,9.0,4.0,,,,,,,,,,,,,gelb,yellow,g,1.0,g,1.0,0.4771260300003632,,,,,,,,,,4.0,9.0,57.0,11.0,234.48660457200003,,,,,,,,,,,,,,,,,234.47072335200028,234.58557696700063,235.38560706100088,235.36972956000045,,,,,,,,,,,,,,,,,,,,,,,,,,,,,,,,,,,235.3701683310001,235.38560706100088,235.38560706100088,235.871165175,g,1.0,0.4771260300003632,,,,,sub-102,1,stroop_test,59.53175169740823,
,,,,58.0,10.0,4.0,,,,,,,,,,,,,blau,blue,b,1.0,b,1.0,0.5871671109998715,,,,,,,,,,4.0,10.0,58.0,5.0,235.8867639150003,,,,,,,,,,,,,,,,,235.871457751,236.2361173420004,237.03837522900085,237.02041794600063,,,,,,,,,,,,,,,,,,,,,,,,,,,,,,,,,,,237.0229801080004,237.03837522900085,237.03837522900085,237.63826337200044,b,1.0,0.5871671109998715,,,,,sub-102,1,stroop_test,59.53175169740823,
,,,,59.0,11.0,4.0,,,,,,,,,,,,,blau,blue,b,1.0,b,1.0,0.5263392599999861,,,,,,,,,,4.0,11.0,59.0,6.0,237.65400918600065,,,,,,,,,,,,,,,,,237.63856066100016,238.43704896800045,239.2375287570003,239.2214420140008,,,,,,,,,,,,,,,,,,,,,,,,,,,,,,,,,,,239.22183259100075,239.2375287570003,239.2375287570003,239.7720277360004,b,1.0,0.5263392599999861,,,,,sub-102,1,stroop_test,59.53175169740823,
,,,,60.0,0.0,5.0,,,,,,,,,,,,,rot,red,r,1.0,r,1.0,0.6048070070000904,,,,,,,,,,5.0,0.0,60.0,1.0,239.78758904700044,,,,,,,,,,,,,,,,,239.77233594000063,240.1214656100001,240.92304685900035,240.9057679130001,,,,,,,,,,,,,,,,,,,,,,,,,,,,,,,,,,,240.90783963100057,240.92304685900035,240.92304685900035,241.54024797500009,r,1.0,0.6048070070000904,,,,,sub-102,1,stroop_test,59.53175169740823,
,,,,61.0,1.0,5.0,,,,,,,,,,,,,blau,blue,b,1.0,b,1.0,0.5060471830001916,,,,,,,,,,5.0,1.0,61.0,6.0,241.55595430500037,,,,,,,,,,,,,,,,,241.54053680300055,241.9055316140002,242.708043996,242.68984757900037,,,,,,,,,,,,,,,,,,,,,,,,,,,,,,,,,,,242.6925848850005,242.708043996,242.708043996,243.22389879,b,1.0,0.5060471830001916,,,,,sub-102,1,stroop_test,59.53175169740823,
,,,,62.0,2.0,5.0,,,,,,,,,,,,,blau,yellow,g,0.0,g,1.0,0.5055289820002145,,,,,,,,,,5.0,2.0,62.0,7.0,243.2394934850008,,,,,,,,,,,,,,,,,243.2241912810005,243.33978075100003,244.1423178470004,244.1249047300007,,,,,,,,,,,,,,,,,,,,,,,,,,,,,,,,,,,244.1255288350003,244.1423178470004,244.1423178470004,244.6580832540003,g,1.0,0.5055289820002145,,,,,sub-102,1,stroop_test,59.53175169740823,
,,,,63.0,3.0,5.0,,,,,,,,,,,,,rot,blue,b,0.0,b,1.0,1.1500275599992165,,,,,,,,,,5.0,3.0,63.0,2.0,244.6734288370008,,,,,,,,,,,,,,,,,244.65834302400071,245.02376795600048,245.8251802780005,245.8078295060004,,,,,,,,,,,,,,,,,,,,,,,,,,,,,,,,,,,245.8098672590004,245.8251802780005,245.8251802780005,246.9771557860004,b,1.0,1.1500275599992165,,,,,sub-102,1,stroop_test,59.53175169740823,
,,,,64.0,4.0,5.0,,,,,,,,,,,,,gelb,red,r,0.0,r,1.0,0.8392342910001389,,,,,,,,,,5.0,4.0,64.0,8.0,246.9928175780005,,,,,,,,,,,,,,,,,246.97746691800057,248.191734817,248.9939039440005,248.97610590000025,,,,,,,,,,,,,,,,,,,,,,,,,,,,,,,,,,,248.97852621100083,248.9939039440005,248.9939039440005,249.84378145500068,r,1.0,0.8392342910001389,,,,,sub-102,1,stroop_test,59.53175169740823,
,,,,65.0,5.0,5.0,,,,,,,,,,,,,gelb,yellow,g,1.0,g,1.0,0.451482821999889,,,,,,,,,,5.0,5.0,65.0,11.0,249.85912971300056,,,,,,,,,,,,,,,,,249.84405507000065,250.1923106990007,250.9927943750008,250.97710033300064,,,,,,,,,,,,,,,,,,,,,,,,,,,,,,,,,,,250.97749602800013,250.9927943750008,250.9927943750008,251.4459239330008,g,1.0,0.451482821999889,,,,,sub-102,1,stroop_test,59.53175169740823,
,,,,66.0,6.0,5.0,,,,,,,,,,,,,blau,blue,b,1.0,b,1.0,0.5232536319999781,,,,,,,,,,5.0,6.0,66.0,5.0,251.4616553300002,,,,,,,,,,,,,,,,,251.44623659900023,251.5599532740007,252.3616219340001,252.34416940900064,,,,,,,,,,,,,,,,,,,,,,,,,,,,,,,,,,,252.34627348400045,252.3616219340001,252.3616219340001,252.8955858090003,b,1.0,0.5232536319999781,,,,,sub-102,1,stroop_test,59.53175169740823,
,,,,67.0,7.0,5.0,,,,,,,,,,,,,rot,yellow,g,0.0,g,1.0,0.6141859119998117,,,,,,,,,,5.0,7.0,67.0,3.0,252.91116474700084,,,,,,,,,,,,,,,,,252.89588690800065,254.094549894,254.89680727700036,254.87894678200064,,,,,,,,,,,,,,,,,,,,,,,,,,,,,,,,,,,254.88106515300024,254.89680727700036,254.89680727700036,255.51395401800076,g,1.0,0.6141859119998117,,,,,sub-102,1,stroop_test,59.53175169740823,
,,,,68.0,8.0,5.0,,,,,,,,,,,,,gelb,yellow,g,1.0,g,1.0,0.4947127409996028,,,,,,,,,,5.0,8.0,68.0,10.0,255.52953276900007,,,,,,,,,,,,,,,,,255.51424882300037,256.7294154680003,257.53138551200027,257.51349214900074,,,,,,,,,,,,,,,,,,,,,,,,,,,,,,,,,,,257.5158947050004,257.53138551200027,257.53138551200027,258.0311578290002,g,1.0,0.4947127409996028,,,,,sub-102,1,stroop_test,59.53175169740823,
,,,,69.0,9.0,5.0,,,,,,,,,,,,,rot,red,r,1.0,r,1.0,0.5680701329993099,,,,,,,,,,5.0,9.0,69.0,0.0,258.04682639400016,,,,,,,,,,,,,,,,,258.03143010700023,258.3966723550002,259.1975435860004,259.1809376760002,,,,,,,,,,,,,,,,,,,,,,,,,,,,,,,,,,,259.18352037800014,259.1975435860004,259.1975435860004,259.78220227900056,r,1.0,0.5680701329993099,,,,,sub-102,1,stroop_test,59.53175169740823,
,,,,70.0,10.0,5.0,,,,,,,,,,,,,gelb,blue,b,0.0,g,0.0,0.5235776809995514,,,,,,,,,,5.0,10.0,70.0,9.0,259.7978234130005,,,,,,,,,,,,,,,,,259.7824887490005,260.99790537900026,261.7990505480002,261.78156728500016,,,,,,,,,,,,,,,,,,,,,,,,,,,,,,,,,,,261.78381552500014,261.7990505480002,261.7990505480002,262.33351613300056,g,0.0,0.5235776809995514,,,,,sub-102,1,stroop_test,59.53175169740823,
,,,,71.0,11.0,5.0,,,,,,,,,,,,,blau,red,r,0.0,r,1.0,0.9112637240004916,,,,,,,,,,5.0,11.0,71.0,4.0,262.3497221200005,,,,,,,,,,,,,,,,,262.33382449300007,263.54903037500026,264.3518361710003,264.3334848910008,,,,,,,,,,,,,,,,,,,,,,,,,,,,,,,,,,,264.3357562170004,264.3518361710003,264.3518361710003,265.2689023740004,r,1.0,0.9112637240004916,,,,,sub-102,1,stroop_test,59.53175169740823,
,,,,72.0,0.0,6.0,,,,,,,,,,,,,blau,blue,b,1.0,b,1.0,0.7629998139991585,,,,,,,,,,6.0,0.0,72.0,6.0,265.28510325800016,,,,,,,,,,,,,,,,,265.26919850800004,265.3834523580008,266.1838236860003,266.1676545490009,,,,,,,,,,,,,,,,,,,,,,,,,,,,,,,,,,,266.16806221300067,266.1838236860003,266.1838236860003,266.95307664900065,b,1.0,0.7629998139991585,,,,,sub-102,1,stroop_test,59.53175169740823,
,,,,73.0,1.0,6.0,,,,,,,,,,,,,gelb,yellow,g,1.0,g,1.0,0.5152911590002986,,,,,,,,,,6.0,1.0,73.0,11.0,266.96922807900046,,,,,,,,,,,,,,,,,266.9533659450008,267.31748584100023,268.120383726,268.102032881,,,,,,,,,,,,,,,,,,,,,,,,,,,,,,,,,,,268.1043160070003,268.120383726,268.120383726,268.63761920600064,g,1.0,0.5152911590002986,,,,,sub-102,1,stroop_test,59.53175169740823,
,,,,74.0,2.0,6.0,,,,,,,,,,,,,rot,yellow,g,0.0,g,1.0,0.4480068259999825,,,,,,,,,,6.0,2.0,74.0,3.0,268.6532977270008,,,,,,,,,,,,,,,,,268.6379199040002,269.0018622940006,269.80325354900015,269.78563505200054,,,,,,,,,,,,,,,,,,,,,,,,,,,,,,,,,,,269.7877263870005,269.80325354900015,269.80325354900015,270.25463326300087,g,1.0,0.4480068259999825,,,,,sub-102,1,stroop_test,59.53175169740823,
,,,,75.0,3.0,6.0,,,,,,,,,,,,,gelb,blue,b,0.0,b,1.0,0.4983239009998215,,,,,,,,,,6.0,3.0,75.0,9.0,270.2702914190004,,,,,,,,,,,,,,,,,270.254928845,271.06941782100057,271.87224634500035,271.8537791710005,,,,,,,,,,,,,,,,,,,,,,,,,,,,,,,,,,,271.85593093700027,271.87224634500035,271.87224634500035,272.3723569950007,b,1.0,0.4983239009998215,,,,,sub-102,1,stroop_test,59.53175169740823,
,,,,76.0,4.0,6.0,,,,,,,,,,,,,rot,red,r,1.0,r,1.0,0.5903273479998461,,,,,,,,,,6.0,4.0,76.0,1.0,272.38797735800017,,,,,,,,,,,,,,,,,272.3726571470006,272.4865562060004,273.28826581200065,273.2707117550008,,,,,,,,,,,,,,,,,,,,,,,,,,,,,,,,,,,273.27280198600056,273.28826581200065,273.28826581200065,273.88874161700005,r,1.0,0.5903273479998461,,,,,sub-102,1,stroop_test,59.53175169740823,
,,,,77.0,5.0,6.0,,,,,,,,,,,,,gelb,red,r,0.0,r,1.0,0.7296487699995851,,,,,,,,,,6.0,5.0,77.0,8.0,273.90434404700045,,,,,,,,,,,,,,,,,273.8890141520005,274.25427364200004,275.05788125100025,275.0387164820004,,,,,,,,,,,,,,,,,,,,,,,,,,,,,,,,,,,275.0420779600008,275.05788125100025,275.05788125100025,275.7904258640001,r,1.0,0.7296487699995851,,,,,sub-102,1,stroop_test,59.53175169740823,
,,,,78.0,6.0,6.0,,,,,,,,,,,,,blau,red,r,0.0,r,1.0,0.7311810660003175,,,,,,,,,,6.0,6.0,78.0,4.0,275.80611599700023,,,,,,,,,,,,,,,,,275.7907377770007,277.005169088,277.80783063000035,277.7900342210005,,,,,,,,,,,,,,,,,,,,,,,,,,,,,,,,,,,277.7921986380006,277.80783063000035,277.80783063000035,278.5416058630008,r,1.0,0.7311810660003175,,,,,sub-102,1,stroop_test,59.53175169740823,
,,,,79.0,7.0,6.0,,,,,,,,,,,,,blau,blue,b,1.0,b,1.0,0.9347731150000982,,,,,,,,,,6.0,7.0,79.0,5.0,278.5572381990005,,,,,,,,,,,,,,,,,278.5418999900003,279.35656858400034,280.1572415510009,280.140922777,,,,,,,,,,,,,,,,,,,,,,,,,,,,,,,,,,,280.1413028910001,280.1572415510009,280.1572415510009,281.108917003,b,1.0,0.9347731150000982,,,,,sub-102,1,stroop_test,59.53175169740823,
,,,,80.0,8.0,6.0,,,,,,,,,,,,,blau,yellow,g,0.0,g,1.0,0.9665022149993092,,,,,,,,,,6.0,8.0,80.0,7.0,281.1235772050004,,,,,,,,,,,,,,,,,281.10918753900023,281.9076750460008,282.70823881100023,282.6922675430005,,,,,,,,,,,,,,,,,,,,,,,,,,,,,,,,,,,282.69270252300066,282.70823881100023,282.70823881100023,283.67718576100015,g,1.0,0.9665022149993092,,,,,sub-102,1,stroop_test,59.53175169740823,
,,,,81.0,9.0,6.0,,,,,,,,,,,,,rot,blue,b,0.0,r,0.0,0.5797230970001692,,,,,,,,,,6.0,9.0,81.0,2.0,283.6927376910008,,,,,,,,,,,,,,,,,283.67747609400067,283.7922380400005,284.593309117,284.5761729810001,,,,,,,,,,,,,,,,,,,,,,,,,,,,,,,,,,,284.57825994200084,284.593309117,284.593309117,285.1791232760006,r,0.0,0.5797230970001692,,,,,sub-102,1,stroop_test,59.53175169740823,
,,,,82.0,10.0,6.0,,,,,,,,,,,,,rot,red,r,1.0,r,1.0,0.7084131370002069,,,,,,,,,,6.0,10.0,82.0,0.0,285.19512961800046,,,,,,,,,,,,,,,,,285.17960333800056,286.3933336700002,287.1938268210006,287.17753385500055,,,,,,,,,,,,,,,,,,,,,,,,,,,,,,,,,,,287.17794214100013,287.1938268210006,287.1938268210006,287.91262550600004,r,1.0,0.7084131370002069,,,,,sub-102,1,stroop_test,59.53175169740823,
,,,,83.0,11.0,6.0,,,,,,,,,,,,,gelb,yellow,g,1.0,g,1.0,0.4957095409999965,,,,,,,,,,6.0,11.0,83.0,10.0,287.92816947700067,,,,,,,,,,,,,,,,,287.9129121010001,288.72807014200043,289.54671279500053,289.5287055230001,,,,,,,,,,,,,,,,,,,,,,,,,,,,,,,,,,,289.5310868860006,289.54671279500053,289.54671279500053,290.04630041400014,g,1.0,0.4957095409999965,,,,,sub-102,1,stroop_test,59.53175169740823,
,,,,84.0,0.0,7.0,,,,,,,,,,,,,rot,red,r,1.0,r,1.0,1.003038875999664,,,,,,,,,,7.0,0.0,84.0,1.0,290.0617647120007,,,,,,,,,,,,,,,,,290.0465711810002,290.161777968,290.96466719600085,290.9461018230004,,,,,,,,,,,,,,,,,,,,,,,,,,,,,,,,,,,290.94837693500085,290.96466719600085,290.96466719600085,291.9811610980005,r,1.0,1.003038875999664,,,,,sub-102,1,stroop_test,59.53175169740823,
,,,,85.0,1.0,7.0,,,,,,,,,,,,,gelb,red,r,0.0,r,1.0,0.8177391730005183,,,,,,,,,,7.0,1.0,85.0,8.0,291.996907576,,,,,,,,,,,,,,,,,291.9814609600008,292.09588677300053,292.89789107400065,292.880162421,,,,,,,,,,,,,,,,,,,,,,,,,,,,,,,,,,,292.8822875360001,292.89789107400065,292.89789107400065,293.73208352800066,r,1.0,0.8177391730005183,,,,,sub-102,1,stroop_test,59.53175169740823,
,,,,86.0,2.0,7.0,,,,,,,,,,,,,gelb,blue,b,0.0,b,1.0,0.5505972869996185,,,,,,,,,,7.0,2.0,86.0,9.0,293.7482626350002,,,,,,,,,,,,,,,,,293.73239616500086,294.54656615300064,295.34845675700035,295.3338185400007,,,,,,,,,,,,,,,,,,,,,,,,,,,,,,,,,,,295.3342146570003,295.34845675700035,295.34845675700035,295.9158982000008,b,1.0,0.5505972869996185,,,,,sub-102,1,stroop_test,59.53175169740823,
,,,,87.0,3.0,7.0,,,,,,,,,,,,,blau,red,r,0.0,r,1.0,0.8486190080002416,,,,,,,,,,7.0,3.0,87.0,4.0,295.9315466200005,,,,,,,,,,,,,,,,,295.9161859300002,296.0313610660005,296.8336182280009,296.8155858330001,,,,,,,,,,,,,,,,,,,,,,,,,,,,,,,,,,,296.81825819700043,296.8336182280009,296.8336182280009,297.6842416720001,r,1.0,0.8486190080002416,,,,,sub-102,1,stroop_test,59.53175169740823,
,,,,88.0,4.0,7.0,,,,,,,,,,,,,blau,yellow,g,0.0,g,1.0,0.5109672469998259,,,,,,,,,,7.0,4.0,88.0,7.0,297.7001152310004,,,,,,,,,,,,,,,,,297.6845420000009,298.04897271200025,298.8491950360003,298.8332858290005,,,,,,,,,,,,,,,,,,,,,,,,,,,,,,,,,,,298.83364723200066,298.8491950360003,298.8491950360003,299.36810668900034,g,1.0,0.5109672469998259,,,,,sub-102,1,stroop_test,59.53175169740823,
,,,,89.0,5.0,7.0,,,,,,,,,,,,,blau,blue,b,1.0,b,1.0,0.3849687799993262,,,,,,,,,,7.0,5.0,89.0,6.0,299.3839402040003,,,,,,,,,,,,,,,,,299.3683806130002,300.58332281500043,301.3832418390002,301.3671383480005,,,,,,,,,,,,,,,,,,,,,,,,,,,,,,,,,,,301.3675133650004,301.3832418390002,301.3832418390002,301.78569883600085,b,1.0,0.3849687799993262,,,,,sub-102,1,stroop_test,59.53175169740823,
,,,,90.0,6.0,7.0,,,,,,,,,,,,,rot,blue,b,0.0,b,1.0,0.5912453390001247,,,,,,,,,,7.0,6.0,90.0,2.0,301.80026720500064,,,,,,,,,,,,,,,,,301.78599571200084,301.9006179530006,302.7034144010004,302.6849590820002,,,,,,,,,,,,,,,,,,,,,,,,,,,,,,,,,,,302.68726107600014,302.7034144010004,302.7034144010004,303.3024780630003,b,1.0,0.5912453390001247,,,,,sub-102,1,stroop_test,59.53175169740823,
,,,,91.0,7.0,7.0,,,,,,,,,,,,,gelb,yellow,g,1.0,g,1.0,0.5224519189996499,,,,,,,,,,7.0,7.0,91.0,11.0,303.31793542800006,,,,,,,,,,,,,,,,,303.30275217000053,303.65129969200007,304.4540908420004,304.4360620510006,,,,,,,,,,,,,,,,,,,,,,,,,,,,,,,,,,,304.43829245100005,304.4540908420004,304.4540908420004,304.9862047460001,g,1.0,0.5224519189996499,,,,,sub-102,1,stroop_test,59.53175169740823,
,,,,92.0,8.0,7.0,,,,,,,,,,,,,rot,yellow,g,0.0,g,1.0,0.5387944840003911,,,,,,,,,,7.0,8.0,92.0,3.0,305.0021850410003,,,,,,,,,,,,,,,,,304.9865503710007,306.1862334940006,306.98826847500004,306.97038471700034,,,,,,,,,,,,,,,,,,,,,,,,,,,,,,,,,,,306.9726310340002,306.98826847500004,306.98826847500004,307.5375363610001,g,1.0,0.5387944840003911,,,,,sub-102,1,stroop_test,59.53175169740823,
,,,,93.0,9.0,7.0,,,,,,,,,,,,,rot,red,r,1.0,r,1.0,0.4024649860002682,,,,,,,,,,7.0,9.0,93.0,0.0,307.55320792900056,,,,,,,,,,,,,,,,,307.5378538650002,307.63675397800034,308.43645505100085,308.4207396610009,,,,,,,,,,,,,,,,,,,,,,,,,,,,,,,,,,,308.4211353030005,308.43645505100085,308.43645505100085,308.8554637570005,r,1.0,0.4024649860002682,,,,,sub-102,1,stroop_test,59.53175169740823,
,,,,94.0,10.0,7.0,,,,,,,,,,,,,gelb,yellow,g,1.0,g,1.0,0.4390758979998281,,,,,,,,,,7.0,10.0,94.0,10.0,308.87151608600016,,,,,,,,,,,,,,,,,308.8557454610009,308.9706852450008,309.77327332800087,309.75491242000044,,,,,,,,,,,,,,,,,,,,,,,,,,,,,,,,,,,309.75716189600007,309.77327332800087,309.77327332800087,310.22250823000013,g,1.0,0.4390758979998281,,,,,sub-102,1,stroop_test,59.53175169740823,
,,,,95.0,11.0,7.0,,,,,,,,,,,,,blau,blue,b,1.0,b,1.0,0.4153854459991635,,,,,,,,,,7.0,11.0,95.0,5.0,310.2379020260005,,,,,,,,,,,,,,,,,310.22279394200086,310.33855132200006,311.1387237200006,311.121475809,,,,,,,,,,,,,,,,,,,,,,,,,,,,,,,,,,,311.1236270290001,311.1387237200006,311.1387237200006,311.5576459210006,b,1.0,0.4153854459991635,,,,,sub-102,1,stroop_test,59.53175169740823,
,,,,96.0,0.0,8.0,,,,,,,,,,,,,gelb,red,r,0.0,g,0.0,1.0738574510005492,,,,,,,,,,8.0,0.0,96.0,8.0,311.57402111900046,,,,,,,,,,,,,,,,,311.5579403230004,312.3722312690006,313.175430708,313.1565797210005,,,,,,,,,,,,,,,,,,,,,,,,,,,,,,,,,,,313.1592563740005,313.175430708,313.175430708,314.2575796410001,g,0.0,1.0738574510005492,,,,,sub-102,1,stroop_test,59.53175169740823,
,,,,97.0,1.0,8.0,,,,,,,,,,,,,blau,red,r,0.0,r,1.0,0.4165320590000192,,,,,,,,,,8.0,1.0,97.0,4.0,314.27359688600063,,,,,,,,,,,,,,,,,314.2578498360008,315.0566069650004,315.8715350600005,315.84122784600004,,,,,,,,,,,,,,,,,,,,,,,,,,,,,,,,,,,315.84489092700005,315.8715350600005,315.8715350600005,316.29202708700086,r,1.0,0.4165320590000192,,,,,sub-102,1,stroop_test,59.53175169740823,
,,,,98.0,2.0,8.0,,,,,,,,,,,,,gelb,yellow,g,1.0,b,0.0,0.5245823119994384,,,,,,,,,,8.0,2.0,98.0,10.0,316.3073957810002,,,,,,,,,,,,,,,,,316.2922894570001,316.657571879,317.45992118900085,317.44199508100064,,,,,,,,,,,,,,,,,,,,,,,,,,,,,,,,,,,317.44425345700074,317.45992118900085,317.45992118900085,317.99258351200024,b,0.0,0.5245823119994384,,,,,sub-102,1,stroop_test,59.53175169740823,
,,,,99.0,3.0,8.0,,,,,,,,,,,,,blau,blue,b,1.0,b,1.0,1.2307936189999964,,,,,,,,,,8.0,3.0,99.0,5.0,318.0083290340008,,,,,,,,,,,,,,,,,317.9928552350002,318.34176100900004,319.1437059540003,319.1258049000008,,,,,,,,,,,,,,,,,,,,,,,,,,,,,,,,,,,319.12798968400057,319.1437059540003,319.1437059540003,320.3781416690008,b,1.0,1.2307936189999964,,,,,sub-102,1,stroop_test,59.53175169740823,
,,,,100.0,4.0,8.0,,,,,,,,,,,,,gelb,yellow,g,1.0,g,1.0,0.5230144549996112,,,,,,,,,,8.0,4.0,100.0,11.0,320.39386895000007,,,,,,,,,,,,,,,,,320.3784336690005,320.4928749770006,321.294843226,321.2771759330008,,,,,,,,,,,,,,,,,,,,,,,,,,,,,,,,,,,321.27941870500035,321.294843226,321.294843226,321.82713672200043,g,1.0,0.5230144549996112,,,,,sub-102,1,stroop_test,59.53175169740823,
,,,,101.0,5.0,8.0,,,,,,,,,,,,,gelb,blue,b,0.0,b,1.0,1.1014306780007246,,,,,,,,,,8.0,5.0,101.0,9.0,321.8428711730003,,,,,,,,,,,,,,,,,321.82741616900057,322.1771683630004,322.9769767080006,322.9612294640001,,,,,,,,,,,,,,,,,,,,,,,,,,,,,,,,,,,322.9616105470004,322.9769767080006,322.9769767080006,324.0804881380009,b,1.0,1.1014306780007246,,,,,sub-102,1,stroop_test,59.53175169740823,
,,,,102.0,6.0,8.0,,,,,,,,,,,,,blau,blue,b,1.0,b,1.0,0.4844434110000293,,,,,,,,,,8.0,6.0,102.0,6.0,324.09614276400043,,,,,,,,,,,,,,,,,324.0807814200007,324.89482046100056,325.69732366800054,325.67921573200056,,,,,,,,,,,,,,,,,,,,,,,,,,,,,,,,,,,325.68169338000007,325.69732366800054,325.69732366800054,326.1969380640003,b,1.0,0.4844434110000293,,,,,sub-102,1,stroop_test,59.53175169740823,
,,,,103.0,7.0,8.0,,,,,,,,,,,,,rot,blue,b,0.0,r,0.0,0.7680914349994055,,,,,,,,,,8.0,7.0,103.0,2.0,326.21341708600085,,,,,,,,,,,,,,,,,326.1972291940001,326.295509261,327.0981912270008,327.0801190560005,,,,,,,,,,,,,,,,,,,,,,,,,,,,,,,,,,,327.0826181370003,327.0981912270008,327.0981912270008,327.88129003500035,r,0.0,0.7680914349994055,,,,,sub-102,1,stroop_test,59.53175169740823,
,,,,104.0,8.0,8.0,,,,,,,,,,,,,rot,yellow,g,0.0,g,1.0,1.3732488290006586,,,,,,,,,,8.0,8.0,104.0,3.0,327.896881568,,,,,,,,,,,,,,,,,327.8815599720001,328.69647535900003,329.49760788000003,329.4811672850001,,,,,,,,,,,,,,,,,,,,,,,,,,,,,,,,,,,329.4815755560003,329.49760788000003,329.49760788000003,330.8819597290003,g,1.0,1.3732488290006586,,,,,sub-102,1,stroop_test,59.53175169740823,
,,,,105.0,9.0,8.0,,,,,,,,,,,,,rot,red,r,1.0,r,1.0,0.5342624009999781,,,,,,,,,,8.0,9.0,105.0,0.0,330.89756295700045,,,,,,,,,,,,,,,,,330.8822567340003,331.23125492800045,332.0313413720005,332.01523386700046,,,,,,,,,,,,,,,,,,,,,,,,,,,,,,,,,,,332.01561456200034,332.0313413720005,332.0313413720005,332.58304684200084,r,1.0,0.5342624009999781,,,,,sub-102,1,stroop_test,59.53175169740823,
,,,,106.0,10.0,8.0,,,,,,,,,,,,,rot,red,r,1.0,r,1.0,0.5557357609995961,,,,,,,,,,8.0,10.0,106.0,1.0,332.598042093,,,,,,,,,,,,,,,,,332.5833469050003,332.69853039200007,333.4987520980003,333.4828320860006,,,,,,,,,,,,,,,,,,,,,,,,,,,,,,,,,,,333.4832117010001,333.4987520980003,333.4987520980003,334.0670918220003,r,1.0,0.5557357609995961,,,,,sub-102,1,stroop_test,59.53175169740823,
,,,,107.0,11.0,8.0,,,,,,,,,,,,,blau,yellow,g,0.0,b,0.0,0.7158046009999453,,,,,,,,,,8.0,11.0,107.0,7.0,334.08264089600016,,,,,,,,,,,,,,,,,334.06736245900083,335.2663714320006,336.0692101150007,336.05078596100066,,,,,,,,,,,,,,,,,,,,,,,,,,,,,,,,,,,336.0529565320003,336.0692101150007,336.0692101150007,336.8015211020001,b,0.0,0.7158046009999453,,,,,sub-102,1,stroop_test,59.53175169740823,
,,,,108.0,0.0,9.0,,,,,,,,,,,,,blau,blue,b,1.0,b,1.0,1.0806799290003255,,,,,,,,,,9.0,0.0,108.0,6.0,336.8171914220002,,,,,,,,,,,,,,,,,336.80179439400035,338.0010230730004,338.80144714200014,338.7852763360006,,,,,,,,,,,,,,,,,,,,,,,,,,,,,,,,,,,338.7856426000008,338.80144714200014,338.80144714200014,339.88655191200087,b,1.0,1.0806799290003255,,,,,sub-102,1,stroop_test,59.53175169740823,
,,,,109.0,1.0,9.0,,,,,,,,,,,,,gelb,yellow,g,1.0,g,1.0,0.6156920230005198,,,,,,,,,,9.0,1.0,109.0,11.0,339.90226548400005,,,,,,,,,,,,,,,,,339.88685435000025,341.08602819500084,341.8879805880006,341.87026787300056,,,,,,,,,,,,,,,,,,,,,,,,,,,,,,,,,,,341.8723871460006,341.8879805880006,341.8879805880006,342.5053639520001,g,1.0,0.6156920230005198,,,,,sub-102,1,stroop_test,59.53175169740823,
,,,,110.0,2.0,9.0,,,,,,,,,,,,,rot,red,r,1.0,r,1.0,0.7383136150001519,,,,,,,,,,9.0,2.0,110.0,1.0,342.52103875600005,,,,,,,,,,,,,,,,,342.5056807200008,342.62016536600004,343.42242874100066,343.4043357110004,,,,,,,,,,,,,,,,,,,,,,,,,,,,,,,,,,,343.40654788700067,343.42242874100066,343.42242874100066,344.1714681450003,r,1.0,0.7383136150001519,,,,,sub-102,1,stroop_test,59.53175169740823,
,,,,111.0,3.0,9.0,,,,,,,,,,,,,blau,yellow,g,0.0,g,1.0,1.5018988720003108,,,,,,,,,,9.0,3.0,111.0,7.0,344.18736548500056,,,,,,,,,,,,,,,,,344.1717631950005,344.9711100510003,345.7731805960002,345.7551922450002,,,,,,,,,,,,,,,,,,,,,,,,,,,,,,,,,,,345.75743218000025,345.7731805960002,345.7731805960002,347.28958121900087,g,1.0,1.5018988720003108,,,,,sub-102,1,stroop_test,59.53175169740823,
,,,,112.0,4.0,9.0,,,,,,,,,,,,,blau,blue,b,1.0,b,1.0,0.5913600139992923,,,,,,,,,,9.0,4.0,112.0,5.0,347.3054048390004,,,,,,,,,,,,,,,,,347.2898665390003,348.0891164330005,348.88930951900056,348.8734084300004,,,,,,,,,,,,,,,,,,,,,,,,,,,,,,,,,,,348.8737782320004,348.88930951900056,348.88930951900056,349.49042375500085,b,1.0,0.5913600139992923,,,,,sub-102,1,stroop_test,59.53175169740823,
,,,,113.0,5.0,9.0,,,,,,,,,,,,,rot,yellow,g,0.0,g,1.0,1.3269641619999677,,,,,,,,,,9.0,5.0,113.0,3.0,349.5061857280007,,,,,,,,,,,,,,,,,349.4907027200006,350.69025856700046,351.49125050600014,351.47492995000084,,,,,,,,,,,,,,,,,,,,,,,,,,,,,,,,,,,351.47714252600053,351.49125050600014,351.49125050600014,352.8267099530003,g,1.0,1.3269641619999677,,,,,sub-102,1,stroop_test,59.53175169740823,
,,,,114.0,6.0,9.0,,,,,,,,,,,,,rot,red,r,1.0,r,1.0,0.8749079170002005,,,,,,,,,,9.0,6.0,114.0,0.0,352.84219902600034,,,,,,,,,,,,,,,,,352.8270044210003,353.1914545490008,353.99214873000074,353.9758401730005,,,,,,,,,,,,,,,,,,,,,,,,,,,,,,,,,,,353.9762218650003,353.99214873000074,353.99214873000074,354.8768109080001,r,1.0,0.8749079170002005,,,,,sub-102,1,stroop_test,59.53175169740823,
,,,,115.0,7.0,9.0,,,,,,,,,,,,,gelb,blue,b,0.0,b,1.0,0.7661666529993454,,,,,,,,,,9.0,7.0,115.0,9.0,354.89225210100085,,,,,,,,,,,,,,,,,354.8770803950001,356.0765325550001,356.88236492600026,356.8609288890002,,,,,,,,,,,,,,,,,,,,,,,,,,,,,,,,,,,356.8654243850005,356.88236492600026,356.88236492600026,357.6618474710003,b,1.0,0.7661666529993454,,,,,sub-102,1,stroop_test,59.53175169740823,
,,,,116.0,8.0,9.0,,,,,,,,,,,,,blau,red,r,0.0,g,0.0,0.5679885179997655,,,,,,,,,,9.0,8.0,116.0,4.0,357.6776531120004,,,,,,,,,,,,,,,,,357.66212196800006,357.77720003000013,358.57754523100084,358.5614875660003,,,,,,,,,,,,,,,,,,,,,,,,,,,,,,,,,,,358.56364296300035,358.57754523100084,358.57754523100084,359.1631101180001,g,0.0,0.5679885179997655,,,,,sub-102,1,stroop_test,59.53175169740823,
,,,,117.0,9.0,9.0,,,,,,,,,,,,,gelb,red,r,0.0,r,1.0,1.3496861910007285,,,,,,,,,,9.0,9.0,117.0,8.0,359.1776432230008,,,,,,,,,,,,,,,,,359.1634479590002,360.3782846570002,361.1807539220008,361.162575759,,,,,,,,,,,,,,,,,,,,,,,,,,,,,,,,,,,361.1648407920002,361.1807539220008,361.1807539220008,362.5473701970004,r,1.0,1.3496861910007285,,,,,sub-102,1,stroop_test,59.53175169740823,
,,,,118.0,10.0,9.0,,,,,,,,,,,,,gelb,yellow,g,1.0,g,1.0,1.1599991000002774,,,,,,,,,,9.0,10.0,118.0,10.0,362.5621956200002,,,,,,,,,,,,,,,,,362.5476545370002,362.6626340360008,363.4633418060002,363.447097446,,,,,,,,,,,,,,,,,,,,,,,,,,,,,,,,,,,363.4474760270005,363.4633418060002,363.4633418060002,364.6311399060005,g,1.0,1.1599991000002774,,,,,sub-102,1,stroop_test,59.53175169740823,
,,,,119.0,11.0,9.0,,,,,,,,,,,,,rot,blue,b,0.0,b,1.0,1.2572528170003352,,,,,,,,,,9.0,11.0,119.0,2.0,364.64689977800026,,,,,,,,,,,,,,,,,364.631410336,365.8309730230003,366.6326726310008,366.6152569750002,,,,,,,,,,,,,,,,,,,,,,,,,,,,,,,,,,,366.6173558280007,366.6326726310008,366.6326726310008,367.8992167160004,b,1.0,1.2572528170003352,,,,,sub-102,1,stroop_test,59.53175169740823,
,,,,,,,,,,,,,,,,,,,,,,,,,,,,,,,,,,,,,,,,,,,,,,,,,,,,,,,,,,,,,,,,,,,,,,,,,,,,,,,,,,,,,,,,,,,,,,,,,,,,,,367.8993630560008,367.9158380490008,372.9011605870001,sub-102,1,stroop_test,59.53175169740823,
