wordCTK,colorCTK,corrAnsCTK,congruentCTK,thisN,thisTrialN,thisRepN,keyResp_CTK.keys,keyResp_CTK.corr,keyResp_CTK.rt,keyResp_CTK.duration,wordPractice,colorPractice,corrAnsPractice,congruentPractice,respPractice.keys,respPractice.corr,respPractice.rt,respPractice.duration,word,color,corrAns,congruent,keyResp_test_run.keys,keyResp_test_run.corr,keyResp_test_run.rt,keyResp_test_run.duration,trials_CTK.thisRepN,trials_CTK.thisTrialN,trials_CTK.thisN,trials_CTK.thisIndex,trials_practice.thisRepN,trials_practice.thisTrialN,trials_practice.thisN,trials_practice.thisIndex,trials_test.thisRepN,trials_test.thisTrialN,trials_test.thisN,trials_test.thisIndex,thisRow.t,notes,instruction.started,instr_text.started,instr_image.started,instr_resp.started,instruction.stopped,instr_resp.keys,instr_resp.rt,instr_resp.duration,instr_color_to_key.started,instr_ctk.started,resp_ctk.started,instr_color_to_key.stopped,resp_ctk.keys,resp_ctk.rt,resp_ctk.duration,ITI.started,fixcross.started,fixcross.stopped,ITI.stopped,color_to_key_run.started,stimulus_CTK.started,keyResp_CTK.started,color_to_key_run.stopped,trials_CTK.keyResp_CTK.keys,trials_CTK.keyResp_CTK.corr,trials_CTK.keyResp_CTK.rt,trials_CTK.keyResp_CTK.duration,instr_practice.started,instr_practice_text.started,instr_practice_resp.started,instr_practice.stopped,instr_practice_resp.keys,instr_practice_resp.rt,instr_practice_resp.duration,practice_run.started,stimulus_practice.started,respPractice.started,practice_run.stopped,trials_practice.respPractice.keys,trials_practice.respPractice.corr,trials_practice.respPractice.rt,trials_practice.respPractice.duration,feedback.started,textFeedback.started,feedback.stopped,textFeedback.stopped,instr_test.started,instr_test_text.started,instr_test_resp.started,instr_test.stopped,instr_test_resp.keys,instr_test_resp.rt,instr_test_resp.duration,test_run.started,stimulus_test_run.started,keyResp_test_run.started,test_run.stopped,trials_test.keyResp_test_run.keys,trials_test.keyResp_test_run.corr,trials_test.keyResp_test_run.rt,trials_test.keyResp_test_run.duration,goodbye.started,textGoodbye.started,textGoodbye.stopped,goodbye.stopped,participant,session,expName,frameRate,Unnamed: 113
,,,,,,,,,,,,,,,,,,,,,,,,,,,,,,,,,,,,,,,,,0.0078319649910554,0.021670414993423,0.021670414993423,0.021670414993423,7.995133246004116,space,7.947330026989221,,,,,,,,,,,,,,,,,,,,,,,,,,,,,,,,,,,,,,,,,,,,,,,,,,,,,,,,,,,sub-016,1,stroop_test,60.10022794905293,
,,,,,,,,,,,,,,,,,,,,,,,,,,,,,,,,,,,,,,,,,,,,,,,,,7.995234797999728,8.010174840004765,8.010174840004765,20.788122989994008,space,12.76258202099416,,,,,,,,,,,,,,,,,,,,,,,,,,,,,,,,,,,,,,,,,,,,,,,,,,,,sub-016,1,stroop_test,60.10022794905293,
test,yellow,g,1.0,0.0,0.0,0.0,g,1.0,1.0891240099881545,,,,,,,,,,,,,,,,,,0.0,0.0,0.0,1.0,,,,,,,,,20.814664196994272,,,,,,,,,,,,,,,,,20.803935310003,21.987079282000195,22.78638704300101,22.770673916995293,22.77576309099095,22.78638704300101,22.78638704300101,23.886985088000078,g,1.0,1.0891240099881545,,,,,,,,,,,,,,,,,,,,,,,,,,,,,,,,,,,,,,,,sub-016,1,stroop_test,60.10022794905293,
test,blue,b,1.0,1.0,1.0,0.0,b,1.0,0.5193689480074681,,,,,,,,,,,,,,,,,,0.0,1.0,1.0,2.0,,,,,,,,,23.90321988699725,,,,,,,,,,,,,,,,,23.88725339499069,23.986709852993958,24.786751371997525,24.770169918003376,24.770657853005105,24.786751371997525,24.786751371997525,25.32071284299309,b,1.0,0.5193689480074681,,,,,,,,,,,,,,,,,,,,,,,,,,,,,,,,,,,,,,,,sub-016,1,stroop_test,60.10022794905293,
test,red,r,1.0,2.0,2.0,0.0,r,1.0,0.4780468499957351,,,,,,,,,,,,,,,,,,0.0,2.0,2.0,0.0,,,,,,,,,25.3363370129955,,,,,,,,,,,,,,,,,25.32097339599568,26.11977310800285,26.92021808300342,26.90396418099408,26.90442544699181,26.92021808300342,26.92021808300342,27.40540507499827,r,1.0,0.4780468499957351,,,,,,,,,,,,,,,,,,,,,,,,,,,,,,,,,,,,,,,,sub-016,1,stroop_test,60.10022794905293,
test,red,r,1.0,3.0,0.0,1.0,r,1.0,0.5783966499875532,,,,,,,,,,,,,,,,,,1.0,0.0,3.0,0.0,,,,,,,,,27.420056845992804,,,,,,,,,,,,,,,,,27.405736253000214,27.52045542000269,28.320079070996144,28.303950728004565,28.30433415499283,28.320079070996144,28.320079070996144,28.90543821299798,r,1.0,0.5783966499875532,,,,,,,,,,,,,,,,,,,,,,,,,,,,,,,,,,,,,,,,sub-016,1,stroop_test,60.10022794905293,
test,blue,b,1.0,4.0,1.0,1.0,b,1.0,0.6029264190001413,,,,,,,,,,,,,,,,,,1.0,1.0,4.0,2.0,,,,,,,,,28.92021921899868,,,,,,,,,,,,,,,,,28.90589002099296,30.12123361800332,30.920464975992218,30.90433547599241,30.904925423004897,30.920464975992218,30.920464975992218,31.53905825599213,b,1.0,0.6029264190001413,,,,,,,,,,,,,,,,,,,,,,,,,,,,,,,,,,,,,,,,sub-016,1,stroop_test,60.10022794905293,
test,yellow,g,1.0,5.0,2.0,1.0,g,1.0,0.8692050090030534,,,,,,,,,,,,,,,,,,1.0,2.0,5.0,1.0,,,,,,,,,31.55363136799133,,,,,,,,,,,,,,,,,31.53938431899587,31.90368670599128,32.70365084700461,32.687715231993934,32.688200249001966,32.70365084700461,32.70365084700461,33.58892532599566,g,1.0,0.8692050090030534,,,,,,,,,,,,,,,,,,,,,,,,,,,,,,,,,,,,,,,,sub-016,1,stroop_test,60.10022794905293,
test,red,r,1.0,6.0,0.0,2.0,r,1.0,0.7840806649910519,,,,,,,,,,,,,,,,,,2.0,0.0,6.0,0.0,,,,,,,,,33.604364104001434,,,,,,,,,,,,,,,,,33.58917377599573,33.95464741799515,34.75389502399776,34.73777467299078,34.738165968999965,34.75389502399776,34.75389502399776,35.54019349000009,r,1.0,0.7840806649910519,,,,,,,,,,,,,,,,,,,,,,,,,,,,,,,,,,,,,,,,sub-016,1,stroop_test,60.10022794905293,
test,blue,b,1.0,7.0,1.0,2.0,b,1.0,0.7885555259999819,,,,,,,,,,,,,,,,,,2.0,1.0,7.0,2.0,,,,,,,,,35.55419551600062,,,,,,,,,,,,,,,,,35.54061228799401,36.3540279949957,37.154591469996376,37.138899986995966,37.13964412899804,37.154591469996376,37.154591469996376,37.95598020499165,b,1.0,0.7885555259999819,,,,,,,,,,,,,,,,,,,,,,,,,,,,,,,,,,,,,,,,sub-016,1,stroop_test,60.10022794905293,
test,yellow,g,1.0,8.0,2.0,2.0,g,1.0,0.7854861169907963,,,,,,,,,,,,,,,,,,2.0,2.0,8.0,1.0,,,,,,,,,37.97127070800343,,,,,,,,,,,,,,,,,37.95639022899559,38.77055498199479,39.57181379699614,39.55481161699572,39.55541598699347,39.57181379699614,39.57181379699614,40.37266806200205,g,1.0,0.7854861169907963,,,,,,,,,,,,,,,,,,,,,,,,,,,,,,,,,,,,,,,,sub-016,1,stroop_test,60.10022794905293,
test,blue,b,1.0,9.0,0.0,3.0,b,1.0,0.7640241490007611,,,,,,,,,,,,,,,,,,3.0,0.0,9.0,2.0,,,,,,,,,40.3877724519989,,,,,,,,,,,,,,,,,40.37299439299386,40.73769082799845,41.53764192199742,41.52180586000031,41.52229553500365,41.53764192199742,41.53764192199742,42.30640686900006,b,1.0,0.7640241490007611,,,,,,,,,,,,,,,,,,,,,,,,,,,,,,,,,,,,,,,,sub-016,1,stroop_test,60.10022794905293,
test,yellow,g,1.0,10.0,1.0,3.0,g,1.0,0.6859635060100118,,,,,,,,,,,,,,,,,,3.0,1.0,10.0,1.0,,,,,,,,,42.32112075500481,,,,,,,,,,,,,,,,,42.30669426899112,42.42080329899909,43.22205484600272,43.20593326399103,43.206667154998286,43.22205484600272,43.22205484600272,43.92238410699065,g,1.0,0.6859635060100118,,,,,,,,,,,,,,,,,,,,,,,,,,,,,,,,,,,,,,,,sub-016,1,stroop_test,60.10022794905293,
test,red,r,1.0,11.0,2.0,3.0,r,1.0,0.8873311030038167,,,,,,,,,,,,,,,,,,3.0,2.0,11.0,0.0,,,,,,,,,43.93723903500359,,,,,,,,,,,,,,,,,43.92272146699543,44.02187119799783,44.82223904499551,44.8065405489906,44.80766064899217,44.82223904499551,44.82223904499551,45.72203929600073,r,1.0,0.8873311030038167,,,,,,,,,,,,,,,,,,,,,,,,,,,,,,,,,,,,,,,,sub-016,1,stroop_test,60.10022794905293,
,,,,,,,,,,,,,,,,,,,,,,,,,,,,,,,,,,,,,,,,,,,,,,,,,,,,,,,,,,,,,,,,,,,,45.72217301999626,45.73776328099484,45.73776328099484,47.6728058729932,space,1.9191617720061915,,,,,,,,,,,,,,,,,,,,,,,,,,,,,,,,,sub-016,1,stroop_test,60.10022794905293,
,,,,0.0,0.0,0.0,,,,,blau,red,r,0.0,r,1.0,1.2100614859955383,,,,,,,,,,,,,,0.0,0.0,0.0,4.0,,,,,47.69419819400355,,,,,,,,,,,,,,,,,47.68660473699856,48.48743217000447,49.28757192099874,49.27191284399305,,,,,,,,,,,,,,,,49.27736850400106,49.28757192099874,49.28757192099874,50.5070501799928,r,1.0,1.2100614859955383,,50.516131779004354,50.52676527599397,51.521871258999454,,,,,,,,,,,,,,,,,,,,,sub-016,1,stroop_test,60.10022794905293,
,,,,1.0,1.0,0.0,,,,,blau,yellow,g,0.0,g,1.0,0.6828598239953863,,,,,,,,,,,,,,0.0,1.0,1.0,7.0,,,,,51.538280217995634,,,,,,,,,,,,,,,,,51.52220258700254,51.85495545699087,52.65626620799594,52.640089196997,,,,,,,,,,,,,,,,52.64081321399135,52.65626620799594,52.65626620799594,53.35661472700304,g,1.0,0.6828598239953863,,53.35714846699557,53.372132984004566,54.35713812999893,54.37284835099126,,,,,,,,,,,,,,,,,,,,sub-016,1,stroop_test,60.10022794905293,
,,,,2.0,2.0,0.0,,,,,rot,yellow,g,0.0,g,1.0,1.431543259997852,,,,,,,,,,,,,,0.0,2.0,2.0,3.0,,,,,54.37284835099126,,,,,,,,,,,,,,,,,54.35759246400266,55.55598799099971,56.35507427499397,56.33935200399719,,,,,,,,,,,,,,,,56.34346493399062,56.35507427499397,56.35507427499397,57.791209642004105,g,1.0,1.431543259997852,,57.79166850799811,57.80591296800412,58.78989347499737,58.80542041000445,,,,,,,,,,,,,,,,,,,,sub-016,1,stroop_test,60.10022794905293,
,,,,3.0,3.0,0.0,,,,,gelb,red,r,0.0,r,1.0,1.7094150909979362,,,,,,,,,,,,,,0.0,3.0,3.0,8.0,,,,,58.80542041000445,,,,,,,,,,,,,,,,,58.7902176380012,60.005905372003326,60.80505121999886,60.78968595599872,,,,,,,,,,,,,,,,60.793907468003454,60.80505121999886,60.80505121999886,62.52369783299218,r,1.0,1.7094150909979362,,62.524133739992976,62.53943239999353,63.52413740599877,63.53989143999934,,,,,,,,,,,,,,,,,,,,sub-016,1,stroop_test,60.10022794905293,
,,,,4.0,4.0,0.0,,,,,rot,blue,b,0.0,b,1.0,0.8258730130037293,,,,,,,,,,,,,,0.0,4.0,4.0,2.0,,,,,63.53989143999934,,,,,,,,,,,,,,,,,63.52459369999997,63.8893980379944,64.68892638900434,64.67294163200131,,,,,,,,,,,,,,,,64.67520896199858,64.68892638900434,64.68892638900434,65.52380139799789,b,1.0,0.8258730130037293,,65.52423284399265,65.53898076400219,66.524624475991,66.54025270500279,,,,,,,,,,,,,,,,,,,,sub-016,1,stroop_test,60.10022794905293,
,,,,5.0,5.0,0.0,,,,,blau,blue,b,1.0,b,1.0,1.0842359389935154,,,,,,,,,,,,,,0.0,5.0,5.0,6.0,,,,,66.54025270500279,,,,,,,,,,,,,,,,,66.52509224700043,66.62344171399309,67.42344192600285,67.40782493699226,,,,,,,,,,,,,,,,67.41221528599272,67.42344192600285,67.42344192600285,68.52457595699525,b,1.0,1.0842359389935154,,68.52511563600274,68.53953781900054,69.52488433399412,69.5404611559934,,,,,,,,,,,,,,,,,,,,sub-016,1,stroop_test,60.10022794905293,
,,,,6.0,6.0,0.0,,,,,gelb,blue,b,0.0,b,1.0,1.3063271670107497,,,,,,,,,,,,,,0.0,6.0,6.0,9.0,,,,,69.5404611559934,,,,,,,,,,,,,,,,,69.5253356280009,70.74432374999742,71.55670987399935,71.54149128300196,,,,,,,,,,,,,,,,71.5465631190018,71.55670987399935,71.55670987399935,72.87499047900201,b,1.0,1.3063271670107497,,72.87554809499125,72.88965446899238,73.8753780949919,73.89051361799648,,,,,,,,,,,,,,,,,,,,sub-016,1,stroop_test,60.10022794905293,
,,,,7.0,7.0,0.0,,,,,rot,red,r,1.0,r,1.0,0.8998147409874946,,,,,,,,,,,,,,0.0,7.0,7.0,1.0,,,,,73.89051361799648,,,,,,,,,,,,,,,,,73.8758279629983,74.6903779120039,75.49015991500346,75.47434477799106,,,,,,,,,,,,,,,,75.4771030510019,75.49015991500346,75.49015991500346,76.39274372099317,r,1.0,0.8998147409874946,,76.3932906449918,76.4062595449941,77.39065429499897,77.40681102199596,,,,,,,,,,,,,,,,,,,,sub-016,1,stroop_test,60.10022794905293,
,,,,8.0,8.0,0.0,,,,,blau,blue,b,1.0,b,1.0,0.7511219169973629,,,,,,,,,,,,,,0.0,8.0,8.0,5.0,,,,,77.40681102199596,,,,,,,,,,,,,,,,,77.39096362699638,78.20610494399443,79.00824639799248,78.99195377000433,,,,,,,,,,,,,,,,78.99630540100043,79.00824639799248,79.00824639799248,79.77587818499887,b,1.0,0.7511219169973629,,79.77641406300245,79.79047343999264,80.77535835299932,80.79135558199778,,,,,,,,,,,,,,,,,,,,sub-016,1,stroop_test,60.10022794905293,
,,,,9.0,9.0,0.0,,,,,rot,red,r,1.0,r,1.0,0.8876755490055075,,,,,,,,,,,,,,0.0,9.0,9.0,0.0,,,,,80.79135558199778,,,,,,,,,,,,,,,,,80.77581823599758,81.97464019700419,82.77404696799931,82.75775660100044,,,,,,,,,,,,,,,,82.76010231699911,82.77404696799931,82.77404696799931,83.67482466899673,r,1.0,0.8876755490055075,,83.67524773700279,83.69040896499064,84.6746199879999,84.69071614099084,,,,,,,,,,,,,,,,,,,,sub-016,1,stroop_test,60.10022794905293,
,,,,10.0,10.0,0.0,,,,,gelb,yellow,g,1.0,g,1.0,0.6906300160044339,,,,,,,,,,,,,,0.0,10.0,10.0,11.0,,,,,84.69071614099084,,,,,,,,,,,,,,,,,84.67492690299696,84.77384185299161,85.57386780499655,85.55810974599444,,,,,,,,,,,,,,,,85.56085872999392,85.57386780499655,85.57386780499655,86.27581721400202,g,1.0,0.6906300160044339,,86.2763500919973,86.29099415399833,87.27478883200092,87.29125284700422,,,,,,,,,,,,,,,,,,,,sub-016,1,stroop_test,60.10022794905293,
,,,,11.0,11.0,0.0,,,,,gelb,yellow,g,1.0,g,1.0,0.7392913949879585,,,,,,,,,,,,,,0.0,11.0,11.0,10.0,,,,,87.29125284700422,,,,,,,,,,,,,,,,,87.27511449099984,87.62539805300185,88.44017429699306,88.42386184800125,,,,,,,,,,,,,,,,88.42428192599618,88.44017429699306,88.44017429699306,89.19290765600454,g,1.0,0.7392913949879585,,89.19343491399195,89.20798129099421,90.19164654500491,90.20745685399744,,,,,,,,,,,,,,,,,,,,sub-016,1,stroop_test,60.10022794905293,
,,,,12.0,0.0,1.0,,,,,blau,blue,b,1.0,b,1.0,0.7854363719961839,,,,,,,,,,,,,,1.0,0.0,12.0,6.0,,,,,90.20745685399744,,,,,,,,,,,,,,,,,90.19197043399618,90.55800502699276,91.35782575499616,91.34209568500228,,,,,,,,,,,,,,,,91.34454353699402,91.35782575499616,91.35782575499616,92.1601958340034,b,1.0,0.7854363719961839,,92.1606268960022,92.17459896400396,93.15974442400328,93.17554332199506,,,,,,,,,,,,,,,,,,,,sub-016,1,stroop_test,60.10022794905293,
,,,,13.0,1.0,1.0,,,,,blau,yellow,g,0.0,g,1.0,1.300743607003824,,,,,,,,,,,,,,1.0,1.0,13.0,7.0,,,,,93.17554332199506,,,,,,,,,,,,,,,,,93.1601960160042,93.27442123700166,94.07473567199486,94.05860594699334,,,,,,,,,,,,,,,,94.059090292998,94.07473567199486,94.07473567199486,95.39248192700325,g,1.0,1.300743607003824,,95.39302217499062,95.4077023199934,96.39312501599488,96.40933629400388,,,,,,,,,,,,,,,,,,,,sub-016,1,stroop_test,60.10022794905293,
,,,,14.0,2.0,1.0,,,,,gelb,yellow,g,1.0,g,1.0,0.6180262660054723,,,,,,,,,,,,,,1.0,2.0,14.0,11.0,,,,,96.40933629400388,,,,,,,,,,,,,,,,,96.39358017299674,96.74116161299752,97.54132150299849,97.52552068300427,,,,,,,,,,,,,,,,97.52829600300174,97.54132150299849,97.54132150299849,98.17711417100509,g,1.0,0.6180262660054723,,98.1776394030021,98.19124132300205,99.17708967099315,99.19215827599692,,,,,,,,,,,,,,,,,,,,sub-016,1,stroop_test,60.10022794905293,
,,,,15.0,3.0,1.0,,,,,rot,yellow,g,0.0,g,1.0,0.5184699649980757,,,,,,,,,,,,,,1.0,3.0,15.0,3.0,,,,,99.19215827599692,,,,,,,,,,,,,,,,,99.17754125100328,100.39150575299573,101.19140909099951,101.17581983600394,,,,,,,,,,,,,,,,101.17822652199538,101.19140909099951,101.19140909099951,101.713849769003,g,1.0,0.5184699649980757,,101.71470653900178,101.72546584099472,102.70905536599456,102.72505135599933,,,,,,,,,,,,,,,,,,,,sub-016,1,stroop_test,60.10022794905293,
,,,,16.0,4.0,1.0,,,,,gelb,red,r,0.0,r,1.0,1.1462831139942864,,,,,,,,,,,,,,1.0,4.0,16.0,8.0,,,,,102.72505135599933,,,,,,,,,,,,,,,,,102.7094307840016,103.07575505100247,103.87691054599418,103.85999727499438,,,,,,,,,,,,,,,,103.86440890899394,103.87691054599418,103.87691054599418,105.02753814899188,r,1.0,1.1462831139942864,,105.02811615300016,105.04161455899884,106.02684019500155,106.04288788000122,,,,,,,,,,,,,,,,,,,,sub-016,1,stroop_test,60.10022794905293,
,,,,17.0,5.0,1.0,,,,,gelb,yellow,g,1.0,g,1.0,0.7393399180000415,,,,,,,,,,,,,,1.0,5.0,17.0,10.0,,,,,106.04288788000122,,,,,,,,,,,,,,,,,106.02729571699456,107.24295733599864,108.04301897599362,108.02727679300006,,,,,,,,,,,,,,,,108.02802222999162,108.04301897599362,108.04301897599362,108.79394077499455,g,1.0,0.7393399180000415,,108.79447083399282,108.80854078799894,109.7939105199912,109.809594285005,,,,,,,,,,,,,,,,,,,,sub-016,1,stroop_test,60.10022794905293,
,,,,18.0,6.0,1.0,,,,,gelb,blue,b,0.0,b,1.0,0.5845089330105111,,,,,,,,,,,,,,1.0,6.0,18.0,9.0,,,,,109.809594285005,,,,,,,,,,,,,,,,,109.79438686199136,110.9935305419931,111.80903637499432,111.7930340479943,,,,,,,,,,,,,,,,111.79350806000002,111.80903637499432,111.80903637499432,112.41036591499868,b,1.0,0.5845089330105111,,112.41090246000384,112.42619051100336,113.4103380470042,113.42617509199772,,,,,,,,,,,,,,,,,,,,sub-016,1,stroop_test,60.10022794905293,
,,,,19.0,7.0,1.0,,,,,rot,red,r,1.0,r,1.0,0.8210463050054386,,,,,,,,,,,,,,1.0,7.0,19.0,1.0,,,,,113.42617509199772,,,,,,,,,,,,,,,,,113.41066199199122,113.77633579699614,114.57641624599636,114.56049950300076,,,,,,,,,,,,,,,,114.5630742659996,114.57641624599636,114.57641624599636,115.4105350989994,r,1.0,0.8210463050054386,,115.4109579359938,115.42653328800225,116.41041518800192,116.42594619799638,,,,,,,,,,,,,,,,,,,,sub-016,1,stroop_test,60.10022794905293,
,,,,20.0,8.0,1.0,,,,,rot,blue,b,0.0,b,1.0,1.0028536079917103,,,,,,,,,,,,,,1.0,8.0,20.0,2.0,,,,,116.42594619799638,,,,,,,,,,,,,,,,,116.41075458099658,116.509809449999,117.30928166800004,117.29379397099548,,,,,,,,,,,,,,,,117.2942648199969,117.30928166800004,117.30928166800004,118.32736532599664,b,1.0,1.0028536079917103,,118.32778484700248,118.34282119099224,119.32684394399983,119.34281044299132,,,,,,,,,,,,,,,,,,,,sub-016,1,stroop_test,60.10022794905293,
,,,,21.0,9.0,1.0,,,,,blau,red,r,0.0,r,1.0,1.4888248839997686,,,,,,,,,,,,,,1.0,9.0,21.0,4.0,,,,,119.34281044299132,,,,,,,,,,,,,,,,,119.3271525309974,120.14384754699132,120.95953624800312,120.94410968999728,,,,,,,,,,,,,,,,120.94722672799251,120.95953624800312,120.95953624800312,122.46053750299323,r,1.0,1.4888248839997686,,122.4609594909998,122.4763188020006,123.4611347129976,,,,,,,,,,,,,,,,,,,,,sub-016,1,stroop_test,60.10022794905293,
,,,,22.0,10.0,1.0,,,,,blau,blue,b,1.0,b,1.0,0.6363590120017761,,,,,,,,,,,,,,1.0,10.0,22.0,5.0,,,,,123.47749246699097,,,,,,,,,,,,,,,,,123.46160013099144,123.56065164400206,124.35991698400176,124.34427955599676,,,,,,,,,,,,,,,,124.34478023699194,124.35991698400176,124.35991698400176,125.01103796099778,b,1.0,0.6363590120017761,,125.0114641209948,125.02674086600018,126.01087784999982,126.02665642999636,,,,,,,,,,,,,,,,,,,,sub-016,1,stroop_test,60.10022794905293,
,,,,23.0,11.0,1.0,,,,,rot,red,r,1.0,r,1.0,0.6639622290094849,,,,,,,,,,,,,,1.0,11.0,23.0,0.0,,,,,126.02665642999636,,,,,,,,,,,,,,,,,126.01118744999984,127.21097929499228,128.01236880099168,127.99518385800184,,,,,,,,,,,,,,,,128.0003023189929,128.01236880099168,128.01236880099168,128.68164189899107,r,1.0,0.6639622290094849,,128.6824012069992,128.69323620200157,129.67833110799256,129.6941268569935,,,,,,,,,,,,,,,,,,,,sub-016,1,stroop_test,60.10022794905293,
,,,,,,,,,,,,,,,,,,,,,,,,,,,,,,,,,,,,,,,,,,,,,,,,,,,,,,,,,,,,,,,,,,,,,,,,,,,,,,,,,,,,,,,129.6784669820045,129.6941268569935,129.6941268569935,141.37943154999812,space,11.678719012998044,,,,,,,,,,,,,,sub-016,1,stroop_test,60.10022794905293,
,,,,0.0,0.0,0.0,,,,,,,,,,,,,gelb,blue,b,0.0,b,1.0,1.4348903509962838,,,,,,,,,,0.0,0.0,0.0,9.0,141.40044026699616,,,,,,,,,,,,,,,,,141.39278214800288,142.1950175719976,142.99442155199358,142.9787693059916,,,,,,,,,,,,,,,,,,,,,,,,,,,,,,,,,,,142.9814708460035,142.99442155199358,142.99442155199358,144.4465058019996,b,1.0,1.4348903509962838,,,,,,sub-016,1,stroop_test,60.10022794905293,
,,,,1.0,1.0,0.0,,,,,,,,,,,,,gelb,yellow,g,1.0,g,1.0,1.8859753389988327,,,,,,,,,,0.0,1.0,1.0,11.0,144.46186076999584,,,,,,,,,,,,,,,,,144.44689264000044,145.26239917699422,146.06200833000185,146.04565967500093,,,,,,,,,,,,,,,,,,,,,,,,,,,,,,,,,,,146.046157468998,146.06200833000185,146.06200833000185,147.96365743799834,g,1.0,1.8859753389988327,,,,,,sub-016,1,stroop_test,60.10022794905293,
,,,,2.0,2.0,0.0,,,,,,,,,,,,,rot,red,r,1.0,r,1.0,0.5530775549996179,,,,,,,,,,0.0,2.0,2.0,1.0,147.97872792900307,,,,,,,,,,,,,,,,,147.96402671199758,148.32852058699063,149.12988544499967,149.11363830199116,,,,,,,,,,,,,,,,,,,,,,,,,,,,,,,,,,,149.11798456199176,149.12988544499967,149.12988544499967,149.69680279800377,r,1.0,0.5530775549996179,,,,,,sub-016,1,stroop_test,60.10022794905293,
,,,,3.0,3.0,0.0,,,,,,,,,,,,,rot,red,r,1.0,r,1.0,0.5363398170011351,,,,,,,,,,0.0,3.0,3.0,0.0,149.71181111500482,,,,,,,,,,,,,,,,,149.69717144500464,150.06231135199778,150.86205354100093,150.84564448599122,,,,,,,,,,,,,,,,,,,,,,,,,,,,,,,,,,,150.84606132899353,150.86205354100093,150.86205354100093,151.4128073509928,r,1.0,0.5363398170011351,,,,,,sub-016,1,stroop_test,60.10022794905293,
,,,,4.0,4.0,0.0,,,,,,,,,,,,,rot,yellow,g,0.0,g,1.0,0.7735663369967369,,,,,,,,,,0.0,4.0,4.0,3.0,151.42838929599384,,,,,,,,,,,,,,,,,151.41310186499322,151.76287690699974,152.56298978399718,152.54700303799473,,,,,,,,,,,,,,,,,,,,,,,,,,,,,,,,,,,152.54774663799617,152.56298978399718,152.56298978399718,153.34729435299232,g,1.0,0.7735663369967369,,,,,,sub-016,1,stroop_test,60.10022794905293,
,,,,5.0,5.0,0.0,,,,,,,,,,,,,blau,red,r,0.0,r,1.0,0.8886219970008824,,,,,,,,,,0.0,5.0,5.0,4.0,153.36182806600118,,,,,,,,,,,,,,,,,153.3476321759954,154.56237314399914,155.3623407129926,155.34604516900436,,,,,,,,,,,,,,,,,,,,,,,,,,,,,,,,,,,155.34857626300072,155.3623407129926,155.3623407129926,156.26382586799446,r,1.0,0.8886219970008824,,,,,,sub-016,1,stroop_test,60.10022794905293,
,,,,6.0,6.0,0.0,,,,,,,,,,,,,blau,blue,b,1.0,b,1.0,0.7549686759884935,,,,,,,,,,0.0,6.0,6.0,5.0,156.27867776599305,,,,,,,,,,,,,,,,,156.26432372299314,157.06310475300415,157.86248070899455,157.84679186399444,,,,,,,,,,,,,,,,,,,,,,,,,,,,,,,,,,,157.8472707059991,157.86248070899455,157.86248070899455,158.63019885899848,b,1.0,0.7549686759884935,,,,,,sub-016,1,stroop_test,60.10022794905293,
,,,,7.0,7.0,0.0,,,,,,,,,,,,,gelb,red,r,0.0,r,1.0,1.288166803002241,,,,,,,,,,0.0,7.0,7.0,8.0,158.64557413000148,,,,,,,,,,,,,,,,,158.63056945000426,158.97942808100197,159.79394662599952,159.76407399699383,,,,,,,,,,,,,,,,,,,,,,,,,,,,,,,,,,,159.76914706800017,159.79394662599952,159.79394662599952,161.09711377500207,r,1.0,1.288166803002241,,,,,,sub-016,1,stroop_test,60.10022794905293,
,,,,8.0,8.0,0.0,,,,,,,,,,,,,blau,yellow,g,0.0,g,1.0,0.661849231008091,,,,,,,,,,0.0,8.0,8.0,7.0,161.11244009499205,,,,,,,,,,,,,,,,,161.09748929999478,161.21260034499574,162.0120241370023,161.99772619300347,,,,,,,,,,,,,,,,,,,,,,,,,,,,,,,,,,,162.00147065399506,162.0120241370023,162.0120241370023,162.68309272699116,g,1.0,0.661849231008091,,,,,,sub-016,1,stroop_test,60.10022794905293,
,,,,9.0,9.0,0.0,,,,,,,,,,,,,rot,blue,b,0.0,b,1.0,0.7169053749967134,,,,,,,,,,0.0,9.0,9.0,2.0,162.69571195100434,,,,,,,,,,,,,,,,,162.68346315399685,163.04683678399306,163.8458313119918,163.82997160000377,,,,,,,,,,,,,,,,,,,,,,,,,,,,,,,,,,,163.8323013939953,163.8458313119918,163.8458313119918,164.56767827799194,b,1.0,0.7169053749967134,,,,,,sub-016,1,stroop_test,60.10022794905293,
,,,,10.0,10.0,0.0,,,,,,,,,,,,,gelb,yellow,g,1.0,g,1.0,0.739127113003633,,,,,,,,,,0.0,10.0,10.0,10.0,164.5788776449917,,,,,,,,,,,,,,,,,164.56805511799757,165.3794349700038,166.17931714799488,166.1637800000026,,,,,,,,,,,,,,,,,,,,,,,,,,,,,,,,,,,166.16707720499835,166.17931714799488,166.17931714799488,166.9302769569913,g,1.0,0.739127113003633,,,,,,sub-016,1,stroop_test,60.10022794905293,
,,,,11.0,11.0,0.0,,,,,,,,,,,,,blau,blue,b,1.0,b,1.0,0.8264962099929107,,,,,,,,,,0.0,11.0,11.0,6.0,166.945340552993,,,,,,,,,,,,,,,,,166.93068142999255,168.14558729900455,168.94628101499984,168.93035497800156,,,,,,,,,,,,,,,,,,,,,,,,,,,,,,,,,,,168.9339241389971,168.94628101499984,168.94628101499984,169.78138337499695,b,1.0,0.8264962099929107,,,,,,sub-016,1,stroop_test,60.10022794905293,
,,,,12.0,0.0,1.0,,,,,,,,,,,,,blau,yellow,g,0.0,r,0.0,0.8379892749944702,,,,,,,,,,1.0,0.0,12.0,7.0,169.79662748999544,,,,,,,,,,,,,,,,,169.78167691499402,170.99655902599625,171.79640405900136,171.78031919599744,,,,,,,,,,,,,,,,,,,,,,,,,,,,,,,,,,,171.7808145589952,171.79640405900136,171.79640405900136,172.64766817299824,r,0.0,0.8379892749944702,,,,,,sub-016,1,stroop_test,60.10022794905293,
,,,,13.0,1.0,1.0,,,,,,,,,,,,,gelb,red,r,0.0,r,1.0,0.8708274020027602,,,,,,,,,,1.0,1.0,13.0,8.0,172.6635411169991,,,,,,,,,,,,,,,,,172.64795881899772,173.46327817700512,174.2632603499951,174.24814453499857,,,,,,,,,,,,,,,,,,,,,,,,,,,,,,,,,,,174.2512472429953,174.2632603499951,174.2632603499951,175.14772163900489,r,1.0,0.8708274020027602,,,,,,sub-016,1,stroop_test,60.10022794905293,
,,,,14.0,2.0,1.0,,,,,,,,,,,,,rot,blue,b,0.0,b,1.0,0.7735490310005844,,,,,,,,,,1.0,2.0,14.0,2.0,175.16360984899802,,,,,,,,,,,,,,,,,175.14801195399195,175.51332111199736,176.3134597390017,176.29761288499867,,,,,,,,,,,,,,,,,,,,,,,,,,,,,,,,,,,176.3007485220005,176.3134597390017,176.3134597390017,177.0983045030007,b,1.0,0.7735490310005844,,,,,,sub-016,1,stroop_test,60.10022794905293,
,,,,15.0,3.0,1.0,,,,,,,,,,,,,blau,blue,b,1.0,b,1.0,2.02563272700354,,,,,,,,,,1.0,3.0,15.0,6.0,177.11361089399725,,,,,,,,,,,,,,,,,177.0986079580034,177.91389012399304,178.71363966699573,178.69772686400393,,,,,,,,,,,,,,,,,,,,,,,,,,,,,,,,,,,178.70082496399118,178.71363966699573,178.71363966699573,180.74933724899893,b,1.0,2.02563272700354,,,,,,sub-016,1,stroop_test,60.10022794905293,
,,,,16.0,4.0,1.0,,,,,,,,,,,,,gelb,yellow,g,1.0,g,1.0,0.9003708840027684,,,,,,,,,,1.0,4.0,16.0,11.0,180.76350880399696,,,,,,,,,,,,,,,,,180.74964926099344,181.56499710600477,182.36469834900345,182.3488272219984,,,,,,,,,,,,,,,,,,,,,,,,,,,,,,,,,,,182.35326042999804,182.36469834900345,182.36469834900345,183.28249364800288,g,1.0,0.9003708840027684,,,,,,sub-016,1,stroop_test,60.10022794905293,
,,,,17.0,5.0,1.0,,,,,,,,,,,,,gelb,yellow,g,1.0,g,1.0,0.7364200190058909,,,,,,,,,,1.0,5.0,17.0,10.0,183.2975099920004,,,,,,,,,,,,,,,,,183.28287708500284,184.49746674399648,185.29830258300356,185.28263653299652,,,,,,,,,,,,,,,,,,,,,,,,,,,,,,,,,,,185.28371046300165,185.29830258300356,185.29830258300356,186.0491592030012,g,1.0,0.7364200190058909,,,,,,sub-016,1,stroop_test,60.10022794905293,
,,,,18.0,6.0,1.0,,,,,,,,,,,,,blau,blue,b,1.0,b,1.0,0.7561463400052162,,,,,,,,,,1.0,6.0,18.0,5.0,186.064610935995,,,,,,,,,,,,,,,,,186.04952620799304,186.16440194299503,186.9652329560049,186.9496265869966,,,,,,,,,,,,,,,,,,,,,,,,,,,,,,,,,,,186.9540397950041,186.9652329560049,186.9652329560049,187.7326705059968,b,1.0,0.7561463400052162,,,,,,sub-016,1,stroop_test,60.10022794905293,
,,,,19.0,7.0,1.0,,,,,,,,,,,,,rot,yellow,g,0.0,r,0.0,1.1177649579913125,,,,,,,,,,1.0,7.0,19.0,3.0,187.7479079409968,,,,,,,,,,,,,,,,,187.732988438991,188.09758191299625,188.89808121600072,188.88178313500248,,,,,,,,,,,,,,,,,,,,,,,,,,,,,,,,,,,188.88441069799592,188.89808121600072,188.89808121600072,190.03329899300297,r,0.0,1.1177649579913125,,,,,,sub-016,1,stroop_test,60.10022794905293,
,,,,20.0,8.0,1.0,,,,,,,,,,,,,gelb,blue,b,0.0,b,1.0,0.6667439820012078,,,,,,,,,,1.0,8.0,20.0,9.0,190.0481463939941,,,,,,,,,,,,,,,,,190.0336662109912,191.2480237309937,192.04740660799143,192.03314023200076,,,,,,,,,,,,,,,,,,,,,,,,,,,,,,,,,,,192.03721147499164,192.04740660799143,192.04740660799143,192.7171159379941,b,1.0,0.6667439820012078,,,,,,sub-016,1,stroop_test,60.10022794905293,
,,,,21.0,9.0,1.0,,,,,,,,,,,,,blau,red,r,0.0,r,1.0,0.9058393110026371,,,,,,,,,,1.0,9.0,21.0,4.0,192.7315610009973,,,,,,,,,,,,,,,,,192.71744958800264,192.83140310099407,193.6312444229989,193.6151362560049,,,,,,,,,,,,,,,,,,,,,,,,,,,,,,,,,,,193.6179773329932,193.6312444229989,193.6312444229989,194.54983230399372,r,1.0,0.9058393110026371,,,,,,sub-016,1,stroop_test,60.10022794905293,
,,,,22.0,10.0,1.0,,,,,,,,,,,,,rot,red,r,1.0,r,1.0,0.6971338820003439,,,,,,,,,,1.0,10.0,22.0,1.0,194.5646484360041,,,,,,,,,,,,,,,,,194.55016956699544,194.6660967829957,195.4816210709978,195.46565934100363,,,,,,,,,,,,,,,,,,,,,,,,,,,,,,,,,,,195.4687572959956,195.4816210709978,195.4816210709978,196.18371372199908,r,1.0,0.6971338820003439,,,,,,sub-016,1,stroop_test,60.10022794905293,
,,,,23.0,11.0,1.0,,,,,,,,,,,,,rot,red,r,1.0,r,1.0,0.5721768200019142,,,,,,,,,,1.0,11.0,23.0,0.0,196.19821702600169,,,,,,,,,,,,,,,,,196.18399857799525,196.2976133149932,197.09849495699743,197.0820626670029,,,,,,,,,,,,,,,,,,,,,,,,,,,,,,,,,,,197.0825485169917,197.09849495699743,197.09849495699743,197.68282080299105,r,1.0,0.5721768200019142,,,,,,sub-016,1,stroop_test,60.10022794905293,
,,,,24.0,0.0,2.0,,,,,,,,,,,,,blau,red,r,0.0,r,1.0,0.6081938220013399,,,,,,,,,,2.0,0.0,24.0,4.0,197.6985391089984,,,,,,,,,,,,,,,,,197.68311244700453,198.04763689800168,198.8489114769909,198.83404943799545,,,,,,,,,,,,,,,,,,,,,,,,,,,,,,,,,,,198.83921935700343,198.8489114769909,198.8489114769909,199.4663507289952,r,1.0,0.6081938220013399,,,,,,sub-016,1,stroop_test,60.10022794905293,
,,,,25.0,1.0,2.0,,,,,,,,,,,,,rot,yellow,g,0.0,g,1.0,0.5949009350006236,,,,,,,,,,2.0,1.0,25.0,3.0,199.4817719790008,,,,,,,,,,,,,,,,,199.46667800599243,199.83193241400292,200.6320458019909,200.61586999999415,,,,,,,,,,,,,,,,,,,,,,,,,,,,,,,,,,,200.61864888000127,200.6320458019909,200.6320458019909,201.2339542410045,g,1.0,0.5949009350006236,,,,,,sub-016,1,stroop_test,60.10022794905293,
,,,,26.0,2.0,2.0,,,,,,,,,,,,,rot,red,r,1.0,r,1.0,1.2092331400053808,,,,,,,,,,2.0,2.0,26.0,0.0,201.2486045699916,,,,,,,,,,,,,,,,,201.2342532850016,201.348968078004,202.1491077929968,202.13304495999185,,,,,,,,,,,,,,,,,,,,,,,,,,,,,,,,,,,202.13355791999493,202.1491077929968,202.1491077929968,203.3687202269939,r,1.0,1.2092331400053808,,,,,,sub-016,1,stroop_test,60.10022794905293,
,,,,27.0,3.0,2.0,,,,,,,,,,,,,gelb,red,r,0.0,r,1.0,1.1079336469992995,,,,,,,,,,2.0,3.0,27.0,8.0,203.3818808299984,,,,,,,,,,,,,,,,,203.3690864999953,203.48249731799297,204.28424651999376,204.2671178879973,,,,,,,,,,,,,,,,,,,,,,,,,,,,,,,,,,,204.2715759199928,204.28424651999376,204.28424651999376,205.40209951699944,r,1.0,1.1079336469992995,,,,,,sub-016,1,stroop_test,60.10022794905293,
,,,,28.0,4.0,2.0,,,,,,,,,,,,,blau,blue,b,1.0,b,1.0,1.0897003400023095,,,,,,,,,,2.0,4.0,28.0,5.0,205.4155951559951,,,,,,,,,,,,,,,,,205.40237715900005,205.51581012600215,206.31540453000343,206.29990686099336,,,,,,,,,,,,,,,,,,,,,,,,,,,,,,,,,,,206.30266691699217,206.31540453000343,206.31540453000343,207.4174646850006,b,1.0,1.0897003400023095,,,,,,sub-016,1,stroop_test,60.10022794905293,
,,,,29.0,5.0,2.0,,,,,,,,,,,,,gelb,yellow,g,1.0,g,1.0,0.684705069012125,,,,,,,,,,2.0,5.0,29.0,10.0,207.4323950669932,,,,,,,,,,,,,,,,,207.41783868300263,207.53277879899545,208.3324303109985,208.3163964330015,,,,,,,,,,,,,,,,,,,,,,,,,,,,,,,,,,,208.3191113780049,208.3324303109985,208.3324303109985,209.03442027099663,g,1.0,0.684705069012125,,,,,,sub-016,1,stroop_test,60.10022794905293,
,,,,30.0,6.0,2.0,,,,,,,,,,,,,gelb,blue,b,0.0,b,1.0,1.4757155910047004,,,,,,,,,,2.0,6.0,30.0,9.0,209.04900325600465,,,,,,,,,,,,,,,,,209.03478782399907,209.1490617189993,209.9499318809976,209.9343978179968,,,,,,,,,,,,,,,,,,,,,,,,,,,,,,,,,,,209.9351111260039,209.9499318809976,209.9499318809976,211.43435397699068,b,1.0,1.4757155910047004,,,,,,sub-016,1,stroop_test,60.10022794905293,
,,,,31.0,7.0,2.0,,,,,,,,,,,,,blau,blue,b,1.0,b,1.0,0.6241340069973376,,,,,,,,,,2.0,7.0,31.0,6.0,211.4497204109939,,,,,,,,,,,,,,,,,211.4347032450023,211.7994342739985,212.6004424519924,212.58456691500032,,,,,,,,,,,,,,,,,,,,,,,,,,,,,,,,,,,212.58899405799457,212.6004424519924,212.6004424519924,213.23385903600135,b,1.0,0.6241340069973376,,,,,,sub-016,1,stroop_test,60.10022794905293,
,,,,32.0,8.0,2.0,,,,,,,,,,,,,rot,red,r,1.0,r,1.0,0.8233804519986734,,,,,,,,,,2.0,8.0,32.0,1.0,213.24928915299824,,,,,,,,,,,,,,,,,213.23416346700105,213.5829851419985,214.38466566900024,214.3677733020013,,,,,,,,,,,,,,,,,,,,,,,,,,,,,,,,,,,214.3721282129991,214.38466566900024,214.38466566900024,215.2172847979964,r,1.0,0.8233804519986734,,,,,,sub-016,1,stroop_test,60.10022794905293,
,,,,33.0,9.0,2.0,,,,,,,,,,,,,rot,blue,b,0.0,b,1.0,1.708065439001075,,,,,,,,,,2.0,9.0,33.0,2.0,215.23274831299204,,,,,,,,,,,,,,,,,215.2175783089915,215.56695925499665,216.36752640899795,216.3511978430033,,,,,,,,,,,,,,,,,,,,,,,,,,,,,,,,,,,216.3519693249982,216.36752640899795,216.36752640899795,218.08734669999103,b,1.0,1.708065439001075,,,,,,sub-016,1,stroop_test,60.10022794905293,
,,,,34.0,10.0,2.0,,,,,,,,,,,,,blau,yellow,g,0.0,g,1.0,1.1810299630014924,,,,,,,,,,2.0,10.0,34.0,7.0,218.09986129400204,,,,,,,,,,,,,,,,,218.0877256620006,218.4492259020044,219.2496310830029,219.23404790299537,,,,,,,,,,,,,,,,,,,,,,,,,,,,,,,,,,,219.23690050499863,219.2496310830029,219.2496310830029,220.43768149300013,g,1.0,1.1810299630014924,,,,,,sub-016,1,stroop_test,60.10022794905293,
,,,,35.0,11.0,2.0,,,,,,,,,,,,,gelb,yellow,g,1.0,g,1.0,0.6661388790089404,,,,,,,,,,2.0,11.0,35.0,11.0,220.4491859080008,,,,,,,,,,,,,,,,,220.4381920379965,221.2498087080021,222.0520522540028,222.03537441400115,,,,,,,,,,,,,,,,,,,,,,,,,,,,,,,,,,,222.03976466000316,222.0520522540028,222.0520522540028,222.73520555600408,g,1.0,0.6661388790089404,,,,,,sub-016,1,stroop_test,60.10022794905293,
,,,,36.0,0.0,3.0,,,,,,,,,,,,,blau,blue,b,1.0,b,1.0,1.0180783940013498,,,,,,,,,,3.0,0.0,36.0,6.0,222.75008583499584,,,,,,,,,,,,,,,,,222.73549276500125,222.85029873799067,223.65214915499385,223.63539793399104,,,,,,,,,,,,,,,,,,,,,,,,,,,,,,,,,,,223.63977496499135,223.65214915499385,223.65214915499385,224.68539456499275,b,1.0,1.0180783940013498,,,,,,sub-016,1,stroop_test,60.10022794905293,
,,,,37.0,1.0,3.0,,,,,,,,,,,,,rot,blue,b,0.0,b,1.0,0.6528068659972632,,,,,,,,,,3.0,1.0,37.0,2.0,224.70003874499525,,,,,,,,,,,,,,,,,224.68572566499645,225.05064452800437,225.8506400089973,225.8343069599941,,,,,,,,,,,,,,,,,,,,,,,,,,,,,,,,,,,225.8366721519997,225.8506400089973,225.8506400089973,226.5181491629919,b,1.0,0.6528068659972632,,,,,,sub-016,1,stroop_test,60.10022794905293,
,,,,38.0,2.0,3.0,,,,,,,,,,,,,blau,blue,b,1.0,b,1.0,0.6708915780036477,,,,,,,,,,3.0,2.0,38.0,5.0,226.5334106319933,,,,,,,,,,,,,,,,,226.518611987005,227.7348802839988,228.54970380899613,228.53349746999447,,,,,,,,,,,,,,,,,,,,,,,,,,,,,,,,,,,228.536907857997,228.54970380899613,228.54970380899613,229.23543963499836,b,1.0,0.6708915780036477,,,,,,sub-016,1,stroop_test,60.10022794905293,
,,,,39.0,3.0,3.0,,,,,,,,,,,,,gelb,yellow,g,1.0,g,1.0,1.20125230398844,,,,,,,,,,3.0,3.0,39.0,10.0,229.25080131199505,,,,,,,,,,,,,,,,,229.23574370899587,230.03482476399225,230.83409405399289,230.81789830399796,,,,,,,,,,,,,,,,,,,,,,,,,,,,,,,,,,,230.8205752840004,230.83409405399289,230.83409405399289,232.0528807219962,g,1.0,1.20125230398844,,,,,,sub-016,1,stroop_test,60.10022794905293,
,,,,40.0,4.0,3.0,,,,,,,,,,,,,gelb,red,r,0.0,r,1.0,1.0500364299950888,,,,,,,,,,3.0,4.0,40.0,8.0,232.06762233200425,,,,,,,,,,,,,,,,,232.05325238699152,232.4174571689946,233.2175432459917,233.2014957089996,,,,,,,,,,,,,,,,,,,,,,,,,,,,,,,,,,,233.20199132199923,233.2175432459917,233.2175432459917,234.2705144030042,r,1.0,1.0500364299950888,,,,,,sub-016,1,stroop_test,60.10022794905293,
,,,,41.0,5.0,3.0,,,,,,,,,,,,,gelb,yellow,g,1.0,g,1.0,6.052516404990456,,,,,,,,,,3.0,5.0,41.0,11.0,234.2842718890024,,,,,,,,,,,,,,,,,234.27083157699963,235.4851119959931,236.2842991100042,236.26833204299328,,,,,,,,,,,,,,,,,,,,,,,,,,,,,,,,,,,236.2688322479953,236.2842991100042,236.2842991100042,242.35283339199668,g,1.0,6.052516404990456,,,,,,sub-016,1,stroop_test,60.10022794905293,
,,,,42.0,6.0,3.0,,,,,,,,,,,,,rot,red,r,1.0,r,1.0,2.4693485539901303,,,,,,,,,,3.0,6.0,42.0,1.0,242.3675038579968,,,,,,,,,,,,,,,,,242.3533378150023,243.55137258900504,244.35152223300247,244.33545429899823,,,,,,,,,,,,,,,,,,,,,,,,,,,,,,,,,,,244.33818032499403,244.35152223300247,244.35152223300247,246.83560224599205,r,1.0,2.4693485539901303,,,,,,sub-016,1,stroop_test,60.10022794905293,
,,,,43.0,7.0,3.0,,,,,,,,,,,,,rot,yellow,g,0.0,g,1.0,0.7720846050069667,,,,,,,,,,3.0,7.0,43.0,3.0,246.85237469300048,,,,,,,,,,,,,,,,,246.8359204659937,247.1850867710018,247.9851249380008,247.96912768699983,,,,,,,,,,,,,,,,,,,,,,,,,,,,,,,,,,,247.96961115699375,247.9851249380008,247.9851249380008,248.77097307700024,g,1.0,0.7720846050069667,,,,,,sub-016,1,stroop_test,60.10022794905293,
,,,,44.0,8.0,3.0,,,,,,,,,,,,,blau,yellow,g,0.0,g,1.0,1.415089761998388,,,,,,,,,,3.0,8.0,44.0,7.0,248.7853954640013,,,,,,,,,,,,,,,,,248.7713362020004,249.1357288119907,249.93521251599304,249.9202712340048,,,,,,,,,,,,,,,,,,,,,,,,,,,,,,,,,,,249.9243958799925,249.93521251599304,249.93521251599304,251.3547787720017,g,1.0,1.415089761998388,,,,,,sub-016,1,stroop_test,60.10022794905293,
,,,,45.0,9.0,3.0,,,,,,,,,,,,,blau,red,r,0.0,r,1.0,0.9846469850017456,,,,,,,,,,3.0,9.0,45.0,4.0,251.36860628199065,,,,,,,,,,,,,,,,,251.3550962119916,252.56962749100057,253.369403677003,253.35267983899396,,,,,,,,,,,,,,,,,,,,,,,,,,,,,,,,,,,253.3531687569921,253.369403677003,253.369403677003,254.3705055419996,r,1.0,0.9846469850017456,,,,,,sub-016,1,stroop_test,60.10022794905293,
,,,,46.0,10.0,3.0,,,,,,,,,,,,,gelb,blue,b,0.0,b,1.0,1.7063780519965803,,,,,,,,,,3.0,10.0,46.0,9.0,254.38569003700104,,,,,,,,,,,,,,,,,254.3708690850035,254.73547889199108,255.535771209994,255.52003939800488,,,,,,,,,,,,,,,,,,,,,,,,,,,,,,,,,,,255.5226994190016,255.535771209994,255.535771209994,257.25357973299106,b,1.0,1.7063780519965803,,,,,,sub-016,1,stroop_test,60.10022794905293,
,,,,47.0,11.0,3.0,,,,,,,,,,,,,rot,red,r,1.0,r,1.0,0.9899824360036292,,,,,,,,,,3.0,11.0,47.0,0.0,257.2694725820038,,,,,,,,,,,,,,,,,257.2538992000045,257.6201707319997,258.4349946209986,258.4187627979991,,,,,,,,,,,,,,,,,,,,,,,,,,,,,,,,,,,258.4211215940013,258.4349946209986,258.4349946209986,259.4370301470044,r,1.0,0.9899824360036292,,,,,,sub-016,1,stroop_test,60.10022794905293,
,,,,48.0,0.0,4.0,,,,,,,,,,,,,gelb,red,r,0.0,r,1.0,0.9189050770073665,,,,,,,,,,4.0,0.0,48.0,8.0,259.4531318160007,,,,,,,,,,,,,,,,,259.4373215389933,260.63681364100194,261.43586518899247,261.4198553909955,,,,,,,,,,,,,,,,,,,,,,,,,,,,,,,,,,,261.42256021000503,261.43586518899247,261.43586518899247,262.35902698899736,r,1.0,0.9189050770073665,,,,,,sub-016,1,stroop_test,60.10022794905293,
,,,,49.0,1.0,4.0,,,,,,,,,,,,,blau,blue,b,1.0,b,1.0,0.7853115259931656,,,,,,,,,,4.0,1.0,49.0,5.0,262.3703661759937,,,,,,,,,,,,,,,,,262.35956351099594,263.5700423410017,264.3698948079982,264.35375038899656,,,,,,,,,,,,,,,,,,,,,,,,,,,,,,,,,,,264.3563897230051,264.3698948079982,264.3698948079982,265.17141027899925,b,1.0,0.7853115259931656,,,,,,sub-016,1,stroop_test,60.10022794905293,
,,,,50.0,2.0,4.0,,,,,,,,,,,,,blau,blue,b,1.0,b,1.0,0.8929981609981041,,,,,,,,,,4.0,2.0,50.0,6.0,265.18687391400454,,,,,,,,,,,,,,,,,265.17176251500496,265.5209029550024,266.33643267799926,266.32094319400494,,,,,,,,,,,,,,,,,,,,,,,,,,,,,,,,,,,266.3214190489962,266.33643267799926,266.33643267799926,267.2377520459995,b,1.0,0.8929981609981041,,,,,,sub-016,1,stroop_test,60.10022794905293,
,,,,51.0,3.0,4.0,,,,,,,,,,,,,rot,blue,b,0.0,b,1.0,0.921881862988812,,,,,,,,,,4.0,3.0,51.0,2.0,267.2532863579981,,,,,,,,,,,,,,,,,267.23805681099475,267.353235624003,268.1531633909908,268.1373687939922,,,,,,,,,,,,,,,,,,,,,,,,,,,,,,,,,,,268.14032161400246,268.1531633909908,268.1531633909908,269.08755688399833,b,1.0,0.921881862988812,,,,,,sub-016,1,stroop_test,60.10022794905293,
,,,,52.0,4.0,4.0,,,,,,,,,,,,,blau,yellow,g,0.0,r,0.0,1.565407733010943,,,,,,,,,,4.0,4.0,52.0,7.0,269.1036283799913,,,,,,,,,,,,,,,,,269.0879252540035,269.8874377780012,270.6885823499906,270.6719320980046,,,,,,,,,,,,,,,,,,,,,,,,,,,,,,,,,,,270.6763106720027,270.6885823499906,270.6885823499906,272.25860770000145,r,0.0,1.565407733010943,,,,,,sub-016,1,stroop_test,60.10022794905293,
,,,,53.0,5.0,4.0,,,,,,,,,,,,,blau,red,r,0.0,r,1.0,0.8519393369933823,,,,,,,,,,4.0,5.0,53.0,4.0,272.2699979829922,,,,,,,,,,,,,,,,,272.258976793004,273.0702782360022,273.8713336600049,273.85518341900024,,,,,,,,,,,,,,,,,,,,,,,,,,,,,,,,,,,273.8559052759956,273.8713336600049,273.8713336600049,274.73833858099533,r,1.0,0.8519393369933823,,,,,,sub-016,1,stroop_test,60.10022794905293,
,,,,54.0,6.0,4.0,,,,,,,,,,,,,rot,red,r,1.0,r,1.0,0.6535723819979466,,,,,,,,,,4.0,6.0,54.0,1.0,274.7545013499912,,,,,,,,,,,,,,,,,274.73863382700074,274.83704885299085,275.63678948600136,275.6214647349989,,,,,,,,,,,,,,,,,,,,,,,,,,,,,,,,,,,275.62406417899183,275.63678948600136,275.63678948600136,276.3051000599953,r,1.0,0.6535723819979466,,,,,,sub-016,1,stroop_test,60.10022794905293,
,,,,55.0,7.0,4.0,,,,,,,,,,,,,gelb,blue,b,0.0,b,1.0,0.7221413749939529,,,,,,,,,,4.0,7.0,55.0,9.0,276.320964212995,,,,,,,,,,,,,,,,,276.3054672339931,277.520754268,278.3202332609944,278.3048116629943,,,,,,,,,,,,,,,,,,,,,,,,,,,,,,,,,,,278.3076866509946,278.3202332609944,278.3202332609944,279.0546497019968,b,1.0,0.7221413749939529,,,,,,sub-016,1,stroop_test,60.10022794905293,
,,,,56.0,8.0,4.0,,,,,,,,,,,,,gelb,yellow,g,1.0,g,1.0,0.874165285989875,,,,,,,,,,4.0,8.0,56.0,10.0,279.070520416004,,,,,,,,,,,,,,,,,279.05495781799254,280.2553725769976,281.05526326700056,281.039105666001,,,,,,,,,,,,,,,,,,,,,,,,,,,,,,,,,,,281.0398256799963,281.05526326700056,281.05526326700056,281.93910731100186,g,1.0,0.874165285989875,,,,,,sub-016,1,stroop_test,60.10022794905293,
,,,,57.0,9.0,4.0,,,,,,,,,,,,,gelb,yellow,g,1.0,g,1.0,0.8182388190034544,,,,,,,,,,4.0,9.0,57.0,11.0,281.9541920740012,,,,,,,,,,,,,,,,,281.9393984979979,282.7541905660037,283.5541003370017,283.5391218510049,,,,,,,,,,,,,,,,,,,,,,,,,,,,,,,,,,,283.5399702559953,283.5541003370017,283.5541003370017,284.38915942599124,g,1.0,0.8182388190034544,,,,,,sub-016,1,stroop_test,60.10022794905293,
,,,,58.0,10.0,4.0,,,,,,,,,,,,,rot,red,r,1.0,r,1.0,0.9214404029917204,,,,,,,,,,4.0,10.0,58.0,0.0,284.4042303119932,,,,,,,,,,,,,,,,,284.38944460799394,284.73885255199275,285.55410492399824,285.5382236470032,,,,,,,,,,,,,,,,,,,,,,,,,,,,,,,,,,,285.5408894930006,285.55410492399824,285.55410492399824,286.489170329005,r,1.0,0.9214404029917204,,,,,,sub-016,1,stroop_test,60.10022794905293,
,,,,59.0,11.0,4.0,,,,,,,,,,,,,rot,yellow,g,0.0,g,1.0,1.7826218370028073,,,,,,,,,,4.0,11.0,59.0,3.0,286.503973592,,,,,,,,,,,,,,,,,286.4896435980045,287.6890470389917,288.50506437799777,288.48824096399767,,,,,,,,,,,,,,,,,,,,,,,,,,,,,,,,,,,288.4889077389962,288.50506437799777,288.50506437799777,290.2931328220002,g,1.0,1.7826218370028073,,,,,,sub-016,1,stroop_test,60.10022794905293,
,,,,60.0,0.0,5.0,,,,,,,,,,,,,blau,blue,b,1.0,b,1.0,1.0529745899984846,,,,,,,,,,5.0,0.0,60.0,5.0,290.3045082669996,,,,,,,,,,,,,,,,,290.2935875480034,290.40487302800466,291.205137662997,291.18868235699483,,,,,,,,,,,,,,,,,,,,,,,,,,,,,,,,,,,291.1910970040044,291.205137662997,291.205137662997,292.2737000449997,b,1.0,1.0529745899984846,,,,,,sub-016,1,stroop_test,60.10022794905293,
,,,,61.0,1.0,5.0,,,,,,,,,,,,,gelb,yellow,g,1.0,g,1.0,2.38536836100684,,,,,,,,,,5.0,1.0,61.0,10.0,292.2880112929997,,,,,,,,,,,,,,,,,292.2740661179996,292.6393813219911,293.4532062149956,293.42335678299423,,,,,,,,,,,,,,,,,,,,,,,,,,,,,,,,,,,293.4285874829948,293.4532062149956,293.4532062149956,295.8432304559974,g,1.0,2.38536836100684,,,,,,sub-016,1,stroop_test,60.10022794905293,
,,,,62.0,2.0,5.0,,,,,,,,,,,,,rot,red,r,1.0,r,1.0,0.7838457799953176,,,,,,,,,,5.0,2.0,62.0,1.0,295.854499352994,,,,,,,,,,,,,,,,,295.8436930780008,296.20584757799224,297.0051940830017,296.98907085700193,,,,,,,,,,,,,,,,,,,,,,,,,,,,,,,,,,,296.99135180099984,297.0051940830017,297.0051940830017,297.7914779769926,r,1.0,0.7838457799953176,,,,,,sub-016,1,stroop_test,60.10022794905293,
,,,,63.0,3.0,5.0,,,,,,,,,,,,,gelb,yellow,g,1.0,g,1.0,0.9773997110023628,,,,,,,,,,5.0,3.0,63.0,11.0,297.80507738799497,,,,,,,,,,,,,,,,,297.79182981800113,298.1552295110014,298.9553288180032,298.9394248710014,,,,,,,,,,,,,,,,,,,,,,,,,,,,,,,,,,,298.94197686399275,298.9553288180032,298.9553288180032,299.94077050600026,g,1.0,0.9773997110023628,,,,,,sub-016,1,stroop_test,60.10022794905293,
,,,,64.0,4.0,5.0,,,,,,,,,,,,,blau,yellow,g,0.0,g,1.0,3.234523510996951,,,,,,,,,,5.0,4.0,64.0,7.0,299.95534049600246,,,,,,,,,,,,,,,,,299.9410648299963,300.73897253899486,301.5405165669945,301.52388151499326,,,,,,,,,,,,,,,,,,,,,,,,,,,,,,,,,,,301.5282941979968,301.5405165669945,301.5405165669945,304.7905863469932,g,1.0,3.234523510996951,,,,,,sub-016,1,stroop_test,60.10022794905293,
,,,,65.0,5.0,5.0,,,,,,,,,,,,,blau,blue,b,1.0,b,1.0,1.2826176800008398,,,,,,,,,,5.0,5.0,65.0,6.0,304.80608055199264,,,,,,,,,,,,,,,,,304.7908808130014,305.6058741839952,306.4062324039988,306.3898410099937,,,,,,,,,,,,,,,,,,,,,,,,,,,,,,,,,,,306.3904202029953,306.4062324039988,306.4062324039988,307.69193305799854,b,1.0,1.2826176800008398,,,,,,sub-016,1,stroop_test,60.10022794905293,
,,,,66.0,6.0,5.0,,,,,,,,,,,,,rot,red,r,1.0,r,1.0,0.8614469380117953,,,,,,,,,,5.0,6.0,66.0,0.0,307.7060966220015,,,,,,,,,,,,,,,,,307.69234749399766,308.90725931999623,309.7226450820017,309.70689618200413,,,,,,,,,,,,,,,,,,,,,,,,,,,,,,,,,,,309.70928429400374,309.7226450820017,309.7226450820017,310.5913506819925,r,1.0,0.8614469380117953,,,,,,sub-016,1,stroop_test,60.10022794905293,
,,,,67.0,7.0,5.0,,,,,,,,,,,,,rot,blue,b,0.0,b,1.0,0.8012109549890738,,,,,,,,,,5.0,7.0,67.0,2.0,310.60602777299937,,,,,,,,,,,,,,,,,310.5917409929971,310.70625886900234,311.50669358999585,311.48974661299144,,,,,,,,,,,,,,,,,,,,,,,,,,,,,,,,,,,311.49017489999824,311.50669358999585,311.50669358999585,312.3113457040017,b,1.0,0.8012109549890738,,,,,,sub-016,1,stroop_test,60.10022794905293,
,,,,68.0,8.0,5.0,,,,,,,,,,,,,rot,yellow,g,0.0,g,1.0,0.9332101600011812,,,,,,,,,,5.0,8.0,68.0,3.0,312.3227357309952,,,,,,,,,,,,,,,,,312.3120743719919,313.52295514599246,314.3245652149926,314.3081446150027,,,,,,,,,,,,,,,,,,,,,,,,,,,,,,,,,,,314.3088597860042,314.3245652149926,314.3245652149926,315.2750946509914,g,1.0,0.9332101600011812,,,,,,sub-016,1,stroop_test,60.10022794905293,
,,,,69.0,9.0,5.0,,,,,,,,,,,,,gelb,red,r,0.0,r,1.0,0.958990821003681,,,,,,,,,,5.0,9.0,69.0,8.0,315.28983527599485,,,,,,,,,,,,,,,,,315.2754258179921,315.6399402120005,316.4395095869986,316.4234183939989,,,,,,,,,,,,,,,,,,,,,,,,,,,,,,,,,,,316.4268353919906,316.4395095869986,316.4395095869986,317.408339970003,r,1.0,0.958990821003681,,,,,,sub-016,1,stroop_test,60.10022794905293,
,,,,70.0,10.0,5.0,,,,,,,,,,,,,gelb,blue,b,0.0,b,1.0,0.8017064549931092,,,,,,,,,,5.0,10.0,70.0,9.0,317.42407942400314,,,,,,,,,,,,,,,,,317.40865791399847,318.2224601380003,319.02360555899213,319.0074263610004,,,,,,,,,,,,,,,,,,,,,,,,,,,,,,,,,,,319.0078865840041,319.02360555899213,319.02360555899213,319.8417671990028,b,1.0,0.8017064549931092,,,,,,sub-016,1,stroop_test,60.10022794905293,
,,,,71.0,11.0,5.0,,,,,,,,,,,,,blau,red,r,0.0,r,1.0,0.9119402549986262,,,,,,,,,,5.0,11.0,71.0,4.0,319.85722582899325,,,,,,,,,,,,,,,,,319.84205731099064,319.95718251199287,320.75960113099427,320.7417925990012,,,,,,,,,,,,,,,,,,,,,,,,,,,,,,,,,,,320.74820660999103,320.75960113099427,320.75960113099427,321.6761155370041,r,1.0,0.9119402549986262,,,,,,sub-016,1,stroop_test,60.10022794905293,
,,,,72.0,0.0,6.0,,,,,,,,,,,,,gelb,yellow,g,1.0,g,1.0,0.7757470299984561,,,,,,,,,,6.0,0.0,72.0,11.0,321.69067980100226,,,,,,,,,,,,,,,,,321.6764228730026,321.79063913699065,322.5902946529968,322.5742407240032,,,,,,,,,,,,,,,,,,,,,,,,,,,,,,,,,,,322.57680033099314,322.5902946529968,322.5902946529968,323.3769787839992,g,1.0,0.7757470299984561,,,,,,sub-016,1,stroop_test,60.10022794905293,
,,,,73.0,1.0,6.0,,,,,,,,,,,,,blau,blue,b,1.0,b,1.0,0.9194653839949752,,,,,,,,,,6.0,1.0,73.0,5.0,323.3907491150021,,,,,,,,,,,,,,,,,323.3773426620028,323.74103926499083,324.54059018200496,324.52459562900185,,,,,,,,,,,,,,,,,,,,,,,,,,,,,,,,,,,324.52775042499707,324.54059018200496,324.54059018200496,325.47501804700005,b,1.0,0.9194653839949752,,,,,,sub-016,1,stroop_test,60.10022794905293,
,,,,74.0,2.0,6.0,,,,,,,,,,,,,blau,red,r,0.0,r,1.0,1.4459112680051476,,,,,,,,,,6.0,2.0,74.0,4.0,325.4907649490051,,,,,,,,,,,,,,,,,325.475312716997,326.690589773003,327.49069229299494,327.4749236780044,,,,,,,,,,,,,,,,,,,,,,,,,,,,,,,,,,,327.47541567200096,327.49069229299494,327.49069229299494,328.94276892799826,r,1.0,1.4459112680051476,,,,,,sub-016,1,stroop_test,60.10022794905293,
,,,,75.0,3.0,6.0,,,,,,,,,,,,,rot,yellow,g,0.0,g,1.0,1.0164543260034409,,,,,,,,,,6.0,3.0,75.0,3.0,328.9573993539961,,,,,,,,,,,,,,,,,328.9430821089918,329.3072394339979,330.1098244439927,330.0926974229951,,,,,,,,,,,,,,,,,,,,,,,,,,,,,,,,,,,330.09709991099953,330.1098244439927,330.1098244439927,331.1418382779957,g,1.0,1.0164543260034409,,,,,,sub-016,1,stroop_test,60.10022794905293,
,,,,76.0,4.0,6.0,,,,,,,,,,,,,rot,blue,b,0.0,b,1.0,0.8086761190061225,,,,,,,,,,6.0,4.0,76.0,2.0,331.15784795999934,,,,,,,,,,,,,,,,,331.14211492499453,332.3412595150003,333.1405698239978,333.1253472309909,,,,,,,,,,,,,,,,,,,,,,,,,,,,,,,,,,,333.1257895470044,333.1405698239978,333.1405698239978,333.95952581199526,b,1.0,0.8086761190061225,,,,,,sub-016,1,stroop_test,60.10022794905293,
,,,,77.0,5.0,6.0,,,,,,,,,,,,,gelb,yellow,g,1.0,g,1.0,0.8131125689978944,,,,,,,,,,6.0,5.0,77.0,10.0,333.9739777240029,,,,,,,,,,,,,,,,,333.9598364179983,335.1749106859934,335.9752843229944,335.9599282919953,,,,,,,,,,,,,,,,,,,,,,,,,,,,,,,,,,,335.964645369997,335.9752843229944,335.9752843229944,336.79343873099424,g,1.0,0.8131125689978944,,,,,,sub-016,1,stroop_test,60.10022794905293,
,,,,78.0,6.0,6.0,,,,,,,,,,,,,gelb,red,r,0.0,r,1.0,0.9029681560059544,,,,,,,,,,6.0,6.0,78.0,8.0,336.807780668998,,,,,,,,,,,,,,,,,336.7937977469992,336.90810310099914,337.70793850100017,337.6918476290012,,,,,,,,,,,,,,,,,,,,,,,,,,,,,,,,,,,337.69233052899654,337.70793850100017,337.70793850100017,338.6265210870042,r,1.0,0.9029681560059544,,,,,,sub-016,1,stroop_test,60.10022794905293,
,,,,79.0,7.0,6.0,,,,,,,,,,,,,rot,red,r,1.0,r,1.0,0.6438886590040056,,,,,,,,,,6.0,7.0,79.0,0.0,338.6414231499948,,,,,,,,,,,,,,,,,338.626809303998,338.99162542399426,339.7922448320023,339.77591723199293,,,,,,,,,,,,,,,,,,,,,,,,,,,,,,,,,,,339.7785757719976,339.7922448320023,339.7922448320023,340.44551908399444,r,1.0,0.6438886590040056,,,,,,sub-016,1,stroop_test,60.10022794905293,
,,,,80.0,8.0,6.0,,,,,,,,,,,,,blau,blue,b,1.0,b,1.0,0.7018563739984529,,,,,,,,,,6.0,8.0,80.0,6.0,340.4584189019952,,,,,,,,,,,,,,,,,340.445896862002,341.25919276700006,342.0579583439976,342.0428599470033,,,,,,,,,,,,,,,,,,,,,,,,,,,,,,,,,,,342.0461207500048,342.0579583439976,342.0579583439976,342.77670633999514,b,1.0,0.7018563739984529,,,,,,sub-016,1,stroop_test,60.10022794905293,
,,,,81.0,9.0,6.0,,,,,,,,,,,,,rot,red,r,1.0,g,0.0,0.7248291169962613,,,,,,,,,,6.0,9.0,81.0,1.0,342.7918559690006,,,,,,,,,,,,,,,,,342.77701482499833,343.99162133999926,344.7917071569973,344.7758394669945,,,,,,,,,,,,,,,,,,,,,,,,,,,,,,,,,,,344.77809905199683,344.7917071569973,344.7917071569973,345.5269883269939,g,0.0,0.7248291169962613,,,,,,sub-016,1,stroop_test,60.10022794905293,
,,,,82.0,10.0,6.0,,,,,,,,,,,,,blau,yellow,g,0.0,g,1.0,0.8139897499931976,,,,,,,,,,6.0,10.0,82.0,7.0,345.5418284769985,,,,,,,,,,,,,,,,,345.5273184069956,345.8922179579968,346.69195711299835,346.6764126240014,,,,,,,,,,,,,,,,,,,,,,,,,,,,,,,,,,,346.6804531749949,346.69195711299835,346.69195711299835,347.5103141580039,g,1.0,0.8139897499931976,,,,,,sub-016,1,stroop_test,60.10022794905293,
,,,,83.0,11.0,6.0,,,,,,,,,,,,,gelb,blue,b,0.0,b,1.0,0.8681006859987974,,,,,,,,,,6.0,11.0,83.0,9.0,347.5256610399956,,,,,,,,,,,,,,,,,347.5105919199996,347.6257476079918,348.4413299369917,348.4251159620035,,,,,,,,,,,,,,,,,,,,,,,,,,,,,,,,,,,348.4280947990046,348.4413299369917,348.4413299369917,349.32699724099075,b,1.0,0.8681006859987974,,,,,,sub-016,1,stroop_test,60.10022794905293,
,,,,84.0,0.0,7.0,,,,,,,,,,,,,blau,blue,b,1.0,b,1.0,0.6311030110082356,,,,,,,,,,7.0,0.0,84.0,6.0,349.3427063889976,,,,,,,,,,,,,,,,,349.3274131459912,350.5421813809953,351.34212787100114,351.3269312159973,,,,,,,,,,,,,,,,,,,,,,,,,,,,,,,,,,,351.3296392439952,351.34212787100114,351.34212787100114,351.97769919199345,b,1.0,0.6311030110082356,,,,,,sub-016,1,stroop_test,60.10022794905293,
,,,,85.0,1.0,7.0,,,,,,,,,,,,,rot,blue,b,0.0,b,1.0,0.6555742850032402,,,,,,,,,,7.0,1.0,85.0,2.0,351.9922567629983,,,,,,,,,,,,,,,,,351.9780651549954,352.09270846399886,352.8942674889986,352.8778748420009,,,,,,,,,,,,,,,,,,,,,,,,,,,,,,,,,,,352.88327066799684,352.8942674889986,352.8942674889986,353.5604204959964,b,1.0,0.6555742850032402,,,,,,sub-016,1,stroop_test,60.10022794905293,
,,,,86.0,2.0,7.0,,,,,,,,,,,,,blau,yellow,g,0.0,g,1.0,0.798855638000532,,,,,,,,,,7.0,2.0,86.0,7.0,353.5757442960021,,,,,,,,,,,,,,,,,353.5607383409952,354.77588048100006,355.57573616599257,355.56006749799417,,,,,,,,,,,,,,,,,,,,,,,,,,,,,,,,,,,355.5631513660046,355.57573616599257,355.57573616599257,356.378578955002,g,1.0,0.798855638000532,,,,,,sub-016,1,stroop_test,60.10022794905293,
,,,,87.0,3.0,7.0,,,,,,,,,,,,,blau,blue,b,1.0,b,1.0,0.7837179060006747,,,,,,,,,,7.0,3.0,87.0,5.0,356.3925324989977,,,,,,,,,,,,,,,,,356.3788952629984,356.49297251200187,357.29266766799265,357.27726957100094,,,,,,,,,,,,,,,,,,,,,,,,,,,,,,,,,,,357.277772550995,357.29266766799265,357.29266766799265,358.0788271369965,b,1.0,0.7837179060006747,,,,,,sub-016,1,stroop_test,60.10022794905293,
,,,,88.0,4.0,7.0,,,,,,,,,,,,,rot,yellow,g,0.0,g,1.0,1.011333922011545,,,,,,,,,,7.0,4.0,88.0,3.0,358.0926515290048,,,,,,,,,,,,,,,,,358.0791188010044,358.89366782399884,359.69281984999543,359.6769195069937,,,,,,,,,,,,,,,,,,,,,,,,,,,,,,,,,,,359.68011938399286,359.69281984999543,359.69281984999543,360.7113370720035,g,1.0,1.011333922011545,,,,,,sub-016,1,stroop_test,60.10022794905293,
,,,,89.0,5.0,7.0,,,,,,,,,,,,,rot,red,r,1.0,r,1.0,1.2001460949977627,,,,,,,,,,7.0,5.0,89.0,1.0,360.7269369729911,,,,,,,,,,,,,,,,,360.711649385994,361.0763644449908,361.8769119979988,361.86053678199823,,,,,,,,,,,,,,,,,,,,,,,,,,,,,,,,,,,361.8610269799974,361.8769119979988,361.8769119979988,363.0790487289924,r,1.0,1.2001460949977627,,,,,,sub-016,1,stroop_test,60.10022794905293,
,,,,90.0,6.0,7.0,,,,,,,,,,,,,blau,red,r,0.0,r,1.0,0.9033056670014048,,,,,,,,,,7.0,6.0,90.0,4.0,363.0930665049964,,,,,,,,,,,,,,,,,363.0795184750023,364.2935374529916,365.09339652500057,365.077832016992,,,,,,,,,,,,,,,,,,,,,,,,,,,,,,,,,,,365.0807005609968,365.09339652500057,365.09339652500057,366.0118813959998,r,1.0,0.9033056670014048,,,,,,sub-016,1,stroop_test,60.10022794905293,
,,,,91.0,7.0,7.0,,,,,,,,,,,,,gelb,red,r,0.0,r,1.0,0.9248508860036964,,,,,,,,,,7.0,7.0,91.0,8.0,366.0271978259989,,,,,,,,,,,,,,,,,366.012234024005,367.2267521649919,368.0270751759963,368.0110190800042,,,,,,,,,,,,,,,,,,,,,,,,,,,,,,,,,,,368.0137538699928,368.0270751759963,368.0270751759963,368.9615538520011,r,1.0,0.9248508860036964,,,,,,sub-016,1,stroop_test,60.10022794905293,
,,,,92.0,8.0,7.0,,,,,,,,,,,,,gelb,yellow,g,1.0,g,1.0,0.7175758310040692,,,,,,,,,,7.0,8.0,92.0,10.0,368.977440748,,,,,,,,,,,,,,,,,368.9618571500032,369.076932173004,369.8768228160043,369.8616127080022,,,,,,,,,,,,,,,,,,,,,,,,,,,,,,,,,,,369.86213059899455,369.8768228160043,369.8768228160043,370.6118107759976,g,1.0,0.7175758310040692,,,,,,sub-016,1,stroop_test,60.10022794905293,
,,,,93.0,9.0,7.0,,,,,,,,,,,,,rot,red,r,1.0,r,1.0,0.902921465007239,,,,,,,,,,7.0,9.0,93.0,0.0,370.6275947629911,,,,,,,,,,,,,,,,,370.6121842040011,370.7318966439925,371.5441474209947,371.5277831179992,,,,,,,,,,,,,,,,,,,,,,,,,,,,,,,,,,,371.5304537119955,371.5441474209947,371.5441474209947,372.46190690300136,r,1.0,0.902921465007239,,,,,,sub-016,1,stroop_test,60.10022794905293,
,,,,94.0,10.0,7.0,,,,,,,,,,,,,gelb,yellow,g,1.0,g,1.0,0.7093034800054738,,,,,,,,,,7.0,10.0,94.0,11.0,372.4774830639944,,,,,,,,,,,,,,,,,372.4621966050036,373.26049991699983,374.0604286540038,374.0443444410048,,,,,,,,,,,,,,,,,,,,,,,,,,,,,,,,,,,374.04670387100487,374.0604286540038,374.0604286540038,374.7787079389964,g,1.0,0.7093034800054738,,,,,,sub-016,1,stroop_test,60.10022794905293,
,,,,95.0,11.0,7.0,,,,,,,,,,,,,gelb,blue,b,0.0,b,1.0,0.7165437670046231,,,,,,,,,,7.0,11.0,95.0,9.0,374.7939581139945,,,,,,,,,,,,,,,,,374.77900938800303,374.8941338339937,375.6948203310021,375.6794312589918,,,,,,,,,,,,,,,,,,,,,,,,,,,,,,,,,,,375.6801504250034,375.6948203310021,375.6948203310021,376.4287149939919,b,1.0,0.7165437670046231,,,,,,sub-016,1,stroop_test,60.10022794905293,
,,,,96.0,0.0,8.0,,,,,,,,,,,,,gelb,yellow,g,1.0,g,1.0,0.7014054460014449,,,,,,,,,,8.0,0.0,96.0,10.0,376.4437246220041,,,,,,,,,,,,,,,,,376.4291759350017,377.6445080949925,378.4438444679981,378.4275617950043,,,,,,,,,,,,,,,,,,,,,,,,,,,,,,,,,,,378.4280868490023,378.4438444679981,378.4438444679981,379.1616878049972,g,1.0,0.7014054460014449,,,,,,sub-016,1,stroop_test,60.10022794905293,
,,,,97.0,1.0,8.0,,,,,,,,,,,,,rot,red,r,1.0,r,1.0,0.6762250030005816,,,,,,,,,,8.0,1.0,97.0,1.0,379.1776414499909,,,,,,,,,,,,,,,,,379.1619892739982,379.9612496030022,380.7607033099921,380.74538523799856,,,,,,,,,,,,,,,,,,,,,,,,,,,,,,,,,,,380.7480642169976,380.7607033099921,380.7607033099921,381.4462086309941,r,1.0,0.6762250030005816,,,,,,sub-016,1,stroop_test,60.10022794905293,
,,,,98.0,2.0,8.0,,,,,,,,,,,,,rot,red,r,1.0,r,1.0,0.8089873119897675,,,,,,,,,,8.0,2.0,98.0,0.0,381.4614544979995,,,,,,,,,,,,,,,,,381.4466038209939,382.6611149230012,383.4609311829991,383.4455197909992,,,,,,,,,,,,,,,,,,,,,,,,,,,,,,,,,,,383.4460199250025,383.4609311829991,383.4609311829991,384.279575499997,r,1.0,0.8089873119897675,,,,,,sub-016,1,stroop_test,60.10022794905293,
,,,,99.0,3.0,8.0,,,,,,,,,,,,,gelb,red,r,0.0,r,1.0,0.883546811004635,,,,,,,,,,8.0,3.0,99.0,8.0,384.2944959400047,,,,,,,,,,,,,,,,,384.27987605999806,384.6286370099988,385.4276278659963,385.4131628670002,,,,,,,,,,,,,,,,,,,,,,,,,,,,,,,,,,,385.4179480629973,385.4276278659963,385.4276278659963,386.31526320999546,r,1.0,0.883546811004635,,,,,,sub-016,1,stroop_test,60.10022794905293,
,,,,100.0,4.0,8.0,,,,,,,,,,,,,gelb,blue,b,0.0,b,1.0,1.1666157039871905,,,,,,,,,,8.0,4.0,100.0,9.0,386.3279070099961,,,,,,,,,,,,,,,,,386.3157291050011,386.6778970479936,387.4779937139974,387.4624139939988,,,,,,,,,,,,,,,,,,,,,,,,,,,,,,,,,,,387.4629250989965,387.4779937139974,387.4779937139974,388.6477136059984,b,1.0,1.1666157039871905,,,,,,sub-016,1,stroop_test,60.10022794905293,
,,,,101.0,5.0,8.0,,,,,,,,,,,,,gelb,yellow,g,1.0,g,1.0,1.541515407996485,,,,,,,,,,8.0,5.0,101.0,11.0,388.6617168810044,,,,,,,,,,,,,,,,,388.6480331460043,388.761435805005,389.5627250749967,389.5468736740004,,,,,,,,,,,,,,,,,,,,,,,,,,,,,,,,,,,389.54759119400114,389.5627250749967,389.5627250749967,391.1139464269945,g,1.0,1.541515407996485,,,,,,sub-016,1,stroop_test,60.10022794905293,
,,,,102.0,6.0,8.0,,,,,,,,,,,,,blau,blue,b,1.0,b,1.0,0.855021076000412,,,,,,,,,,8.0,6.0,102.0,6.0,391.1281145919929,,,,,,,,,,,,,,,,,391.1142210520047,392.32932333799545,393.128236368997,393.1127094859985,,,,,,,,,,,,,,,,,,,,,,,,,,,,,,,,,,,393.1155483839975,393.128236368997,393.128236368997,393.996263508001,b,1.0,0.855021076000412,,,,,,sub-016,1,stroop_test,60.10022794905293,
,,,,103.0,7.0,8.0,,,,,,,,,,,,,blau,yellow,g,0.0,g,1.0,1.6447316400008276,,,,,,,,,,8.0,7.0,103.0,7.0,394.0117087129911,,,,,,,,,,,,,,,,,393.9965597419941,394.34560711200174,395.1452784440044,395.1295726870012,,,,,,,,,,,,,,,,,,,,,,,,,,,,,,,,,,,395.1300671219942,395.1452784440044,395.1452784440044,396.7980165560002,g,1.0,1.6447316400008276,,,,,,sub-016,1,stroop_test,60.10022794905293,
,,,,104.0,8.0,8.0,,,,,,,,,,,,,rot,blue,b,0.0,b,1.0,1.118122059997404,,,,,,,,,,8.0,8.0,104.0,2.0,396.8124348769925,,,,,,,,,,,,,,,,,396.798373054,397.16230519699457,397.9620020029979,397.9457663709909,,,,,,,,,,,,,,,,,,,,,,,,,,,,,,,,,,,397.9485740520031,397.9620020029979,397.9620020029979,399.0966341079911,b,1.0,1.118122059997404,,,,,,sub-016,1,stroop_test,60.10022794905293,
,,,,105.0,9.0,8.0,,,,,,,,,,,,,rot,yellow,g,0.0,g,1.0,1.225585220992798,,,,,,,,,,8.0,9.0,105.0,3.0,399.1125244629948,,,,,,,,,,,,,,,,,399.09694028100057,399.895953927,400.6953997730016,400.6800171850045,,,,,,,,,,,,,,,,,,,,,,,,,,,,,,,,,,,400.6807732180023,400.6953997730016,400.6953997730016,401.93108774299617,g,1.0,1.225585220992798,,,,,,sub-016,1,stroop_test,60.10022794905293,
,,,,106.0,10.0,8.0,,,,,,,,,,,,,blau,blue,b,1.0,b,1.0,0.5848409099999117,,,,,,,,,,8.0,10.0,106.0,5.0,401.9457484099985,,,,,,,,,,,,,,,,,401.9314068230015,402.2955595809908,403.0958469199977,403.080807336999,,,,,,,,,,,,,,,,,,,,,,,,,,,,,,,,,,,403.0845394759963,403.0958469199977,403.0958469199977,403.6985483430035,b,1.0,0.5848409099999117,,,,,,sub-016,1,stroop_test,60.10022794905293,
,,,,107.0,11.0,8.0,,,,,,,,,,,,,blau,red,r,0.0,r,1.0,0.7592900150048081,,,,,,,,,,8.0,11.0,107.0,4.0,403.7123438629933,,,,,,,,,,,,,,,,,403.6988429129997,404.0625866409973,404.8629093609925,404.8464636510034,,,,,,,,,,,,,,,,,,,,,,,,,,,,,,,,,,,404.8471717240027,404.8629093609925,404.8629093609925,405.6305572429992,r,1.0,0.7592900150048081,,,,,,sub-016,1,stroop_test,60.10022794905293,
,,,,108.0,0.0,9.0,,,,,,,,,,,,,blau,yellow,g,0.0,g,1.0,1.4850478260050295,,,,,,,,,,9.0,0.0,108.0,7.0,405.64601534599205,,,,,,,,,,,,,,,,,405.6308449969947,405.7454884909967,406.5464367239911,406.5300558210001,,,,,,,,,,,,,,,,,,,,,,,,,,,,,,,,,,,406.5305377439945,406.5464367239911,406.5464367239911,408.0474974489916,g,1.0,1.4850478260050295,,,,,,sub-016,1,stroop_test,60.10022794905293,
,,,,109.0,1.0,9.0,,,,,,,,,,,,,gelb,blue,b,0.0,b,1.0,0.7443412939901464,,,,,,,,,,9.0,1.0,109.0,9.0,408.0628363809956,,,,,,,,,,,,,,,,,408.0477874520002,409.262199372999,410.0631577960012,410.04807301099936,,,,,,,,,,,,,,,,,,,,,,,,,,,,,,,,,,,410.0521369729977,410.0631577960012,410.0631577960012,410.81477157300105,b,1.0,0.7443412939901464,,,,,,sub-016,1,stroop_test,60.10022794905293,
,,,,110.0,2.0,9.0,,,,,,,,,,,,,rot,blue,b,0.0,b,1.0,0.6308998169988627,,,,,,,,,,9.0,2.0,110.0,2.0,410.8295727939985,,,,,,,,,,,,,,,,,410.8152690979914,411.1802341369912,411.9797224840004,411.9640124970029,,,,,,,,,,,,,,,,,,,,,,,,,,,,,,,,,,,411.9669256060006,411.9797224840004,411.9797224840004,412.6171158299985,b,1.0,0.6308998169988627,,,,,,sub-016,1,stroop_test,60.10022794905293,
,,,,111.0,3.0,9.0,,,,,,,,,,,,,gelb,yellow,g,1.0,g,1.0,1.5077622730022997,,,,,,,,,,9.0,3.0,111.0,11.0,412.6295113749948,,,,,,,,,,,,,,,,,412.6175388239935,412.9799556039943,413.7796596370026,413.7638698249939,,,,,,,,,,,,,,,,,,,,,,,,,,,,,,,,,,,413.7665071149968,413.7796596370026,413.7796596370026,415.2975513069978,g,1.0,1.5077622730022997,,,,,,sub-016,1,stroop_test,60.10022794905293,
,,,,112.0,4.0,9.0,,,,,,,,,,,,,rot,yellow,g,0.0,g,1.0,0.9000546349998331,,,,,,,,,,9.0,4.0,112.0,3.0,415.3131142179918,,,,,,,,,,,,,,,,,415.2978451310046,416.0966573320038,416.8972235330002,416.8805450600048,,,,,,,,,,,,,,,,,,,,,,,,,,,,,,,,,,,416.8829830780014,416.8972235330002,416.8972235330002,417.7992556579993,g,1.0,0.9000546349998331,,,,,,sub-016,1,stroop_test,60.10022794905293,
,,,,113.0,5.0,9.0,,,,,,,,,,,,,gelb,red,r,0.0,r,1.0,0.8897375389933586,,,,,,,,,,9.0,5.0,113.0,8.0,417.8135067529947,,,,,,,,,,,,,,,,,417.79975838799146,418.6143743139983,419.413470939995,419.39789044999634,,,,,,,,,,,,,,,,,,,,,,,,,,,,,,,,,,,419.4003603559977,419.413470939995,419.413470939995,420.3153539890045,r,1.0,0.8897375389933586,,,,,,sub-016,1,stroop_test,60.10022794905293,
,,,,114.0,6.0,9.0,,,,,,,,,,,,,blau,red,r,0.0,r,1.0,1.2745660509972367,,,,,,,,,,9.0,6.0,114.0,4.0,420.33064779599954,,,,,,,,,,,,,,,,,420.3156584499957,420.6808910359978,421.480875483001,421.4644180759933,,,,,,,,,,,,,,,,,,,,,,,,,,,,,,,,,,,421.4668556260003,421.480875483001,421.480875483001,422.7669850989914,r,1.0,1.2745660509972367,,,,,,sub-016,1,stroop_test,60.10022794905293,
,,,,115.0,7.0,9.0,,,,,,,,,,,,,blau,blue,b,1.0,b,1.0,0.8677430680108955,,,,,,,,,,9.0,7.0,115.0,6.0,422.78042817200185,,,,,,,,,,,,,,,,,422.7672762180009,422.8803502009978,423.6804338590009,423.6644399929937,,,,,,,,,,,,,,,,,,,,,,,,,,,,,,,,,,,423.6649161039968,423.6804338590009,423.6804338590009,424.56502166599967,b,1.0,0.8677430680108955,,,,,,sub-016,1,stroop_test,60.10022794905293,
,,,,116.0,8.0,9.0,,,,,,,,,,,,,gelb,yellow,g,1.0,g,1.0,2.955496951995883,,,,,,,,,,9.0,8.0,116.0,10.0,424.5814962279983,,,,,,,,,,,,,,,,,424.5653720789997,425.7648334910045,426.5639205960033,426.548079493994,,,,,,,,,,,,,,,,,,,,,,,,,,,,,,,,,,,426.5506919519976,426.5639205960033,426.5639205960033,429.5323318689916,g,1.0,2.955496951995883,,,,,,sub-016,1,stroop_test,60.10022794905293,
,,,,117.0,9.0,9.0,,,,,,,,,,,,,rot,red,r,1.0,r,1.0,1.2064610050001647,,,,,,,,,,9.0,9.0,117.0,1.0,429.54757107999467,,,,,,,,,,,,,,,,,429.5326292279933,430.7354891790019,431.5479344670021,431.532397832998,,,,,,,,,,,,,,,,,,,,,,,,,,,,,,,,,,,431.53562138399866,431.5479344670021,431.5479344670021,432.7654761390004,r,1.0,1.2064610050001647,,,,,,sub-016,1,stroop_test,60.10022794905293,
,,,,118.0,10.0,9.0,,,,,,,,,,,,,rot,red,r,1.0,r,1.0,2.3827207340073078,,,,,,,,,,9.0,10.0,118.0,0.0,432.7816235619976,,,,,,,,,,,,,,,,,432.7657811389945,433.5646274799946,434.36473410300096,434.3484434940037,,,,,,,,,,,,,,,,,,,,,,,,,,,,,,,,,,,434.3488325149956,434.36473410300096,434.36473410300096,436.75060099999246,r,1.0,2.3827207340073078,,,,,,sub-016,1,stroop_test,60.10022794905293,
,,,,119.0,11.0,9.0,,,,,,,,,,,,,blau,blue,b,1.0,b,1.0,0.7247223919985117,,,,,,,,,,9.0,11.0,119.0,5.0,436.76471768099873,,,,,,,,,,,,,,,,,436.7510123200045,437.5648151100031,438.36407762499584,438.34804074600106,,,,,,,,,,,,,,,,,,,,,,,,,,,,,,,,,,,438.35103530599736,438.36407762499584,438.36407762499584,439.0997296150017,b,1.0,0.7247223919985117,,,,,,sub-016,1,stroop_test,60.10022794905293,
,,,,,,,,,,,,,,,,,,,,,,,,,,,,,,,,,,,,,,,,,,,,,,,,,,,,,,,,,,,,,,,,,,,,,,,,,,,,,,,,,,,,,,,,,,,,,,,,,,,,,,439.0998728269915,439.1153011749993,444.115523282002,444.09931596700335,sub-016,1,stroop_test,60.10022794905293,
