direction,corrAns,randomInstr,practice_trials.thisRepN,practice_trials.thisTrialN,practice_trials.thisN,practice_trials.thisIndex,instr_trials.thisRepN,instr_trials.thisTrialN,instr_trials.thisN,instr_trials.thisIndex,test_trials.thisRepN,test_trials.thisTrialN,test_trials.thisN,test_trials.thisIndex,thisRow.t,notes,general_instruction.started,textGeneralInstr.started,respGeneralInstr.started,general_instruction.stopped,respGeneralInstr.keys,respGeneralInstr.rt,respGeneralInstr.duration,ITI.started,fixcross.started,fixcross.stopped,ITI.stopped,dots.started,backgroundDots.started,stimulusDots.started,respDots.started,stimulusDots.stopped,dots.stopped,respDots.keys,respDots.corr,respDots.rt,respDots.duration,feedback.started,textFeedback.started,feedback.stopped,textFeedback.stopped,info.started,textInfo.started,keyRespInfo.started,info.stopped,keyRespInfo.keys,keyRespInfo.rt,keyRespInfo.duration,test_instruction.started,textTestInstr.started,respTestInstr.started,test_instruction.stopped,respTestInstr.keys,respTestInstr.rt,respTestInstr.duration,random_instruction.started,textRandomInstr.started,respRandomInstr.started,random_instruction.stopped,respRandomInstr.keys,respRandomInstr.rt,respRandomInstr.duration,goodbye.started,textGoodbye.started,goodbye.stopped,participant,session,expName,frameRate,Unnamed: 73
,,,,,,,,,,,,,,,,,0.0017719999996188,0.0051194000006944,0.0051194000006944,61.951179100000445,space,61.9413186999991,,,,,,,,,,,,,,,,,,,,,,,,,,,,,,,,,,,,,,,,,,,,sub-091,1.0,random_dot,60.09853756257559,
right,right,,0.0,0.0,0.0,1.0,,,,,,,,,62.00987489999898,,,,,,,,,62.006172099998366,62.766148700000485,63.56638419999945,63.54997039999944,63.54999769999995,63.56638419999945,63.56638419999945,63.56638419999945,68.56562029999986,80.99807539999892,right,1.0,17.423975699999573,,80.99930989999848,81.01429889999781,81.51337670000066,,,,,,,,,,,,,,,,,,,,,,,,,,sub-091,1.0,random_dot,60.09853756257559,
left,left,,0.0,1.0,1.0,0.0,,,,,,,,,81.52984880000076,,,,,,,,,81.51387840000098,81.86318089999986,82.66319099999964,82.64679559999786,82.64682230000108,82.66319099999964,82.66319099999964,82.66319099999964,87.6624899999988,88.96369269999923,left,1.0,6.298473300001206,,88.96434859999863,88.97865929999898,89.46257709999918,89.47844260000056,,,,,,,,,,,,,,,,,,,,,,,,,sub-091,1.0,random_dot,60.09853756257559,
left,left,,1.0,0.0,2.0,0.0,,,,,,,,,89.47844260000056,,,,,,,,,89.46305890000076,90.6782635999989,91.47852689999854,91.46216189999905,91.4621879999977,91.47852689999854,91.47852689999854,91.47852689999854,96.47761270000046,97.34528189999764,right,0.0,5.855776600001263,,97.3458059000004,97.36079919999976,97.84457299999848,97.86027049999755,,,,,,,,,,,,,,,,,,,,,,,,,sub-091,1.0,random_dot,60.09853756257559,
right,right,,1.0,1.0,3.0,1.0,,,,,,,,,97.86027049999755,,,,,,,,,97.84504829999788,99.06021309999778,99.86050429999888,99.84411999999791,99.84414620000098,99.86050429999888,99.86050429999888,99.86050429999888,104.85975929999768,105.66074970000044,right,1.0,5.787787500001286,,105.66141340000104,105.6759963000004,106.15990569999848,106.17579979999935,,,,,,,,,,,,,,,,,,,,,,,,,sub-091,1.0,random_dot,60.09853756257559,
left,left,,2.0,0.0,4.0,0.0,,,,,,,,,106.17579979999935,,,,,,,,,106.16038059999846,107.37543659999938,108.1758418999998,108.1594358000002,108.15946199999962,108.1758418999998,108.1758418999998,108.1758418999998,113.17495810000035,114.14263179999762,left,1.0,5.9509456000014325,,114.14333279999846,114.15782789999868,114.64174099999946,114.6577158,,,,,,,,,,,,,,,,,,,,,,,,,sub-091,1.0,random_dot,60.09853756257559,
right,right,,2.0,1.0,5.0,1.0,,,,,,,,,114.6577158,,,,,,,,,114.64223140000104,115.00768269999752,115.80769839999994,115.79153589999989,115.7915623000008,115.80769839999994,115.80769839999994,115.80769839999994,120.80712779999884,121.3583738999987,right,1.0,5.548788000000059,,121.35903039999904,121.37343119999788,121.85723270000015,121.87320999999793,,,,,,,,,,,,,,,,,,,,,,,,,sub-091,1.0,random_dot,60.09853756257559,
left,left,,3.0,0.0,6.0,0.0,,,,,,,,,121.87320999999793,,,,,,,,,121.85770820000108,123.07298099999753,123.87313709999944,123.85674540000036,123.85677170000054,123.87313709999944,123.87313709999944,123.87313709999944,,126.32441459999971,left,1.0,2.4390882999978203,,126.3250788999976,126.33904529999928,126.82308629999898,126.838917699999,,,,,,,,,,,,,,,,,,,,,,,,,sub-091,1.0,random_dot,60.09853756257559,
right,right,,3.0,1.0,7.0,1.0,,,,,,,,,126.838917699999,,,,,,,,,126.82356979999896,128.0387637999993,128.83910439999818,128.8227196000007,128.82274569999936,128.83910439999818,128.83910439999818,128.83910439999818,,130.0565901000009,right,1.0,1.213992299999518,,130.05724579999878,130.07194470000104,130.5557998999975,130.57165919999898,,,,,,,,,,,,,,,,,,,,,,,,,sub-091,1.0,random_dot,60.09853756257559,
left,left,,4.0,0.0,8.0,0.0,,,,,,,,,130.57165919999898,,,,,,,,,130.556287899999,130.9217131999976,131.72188190000088,131.70559660000072,131.7056229000009,131.72188190000088,131.72188190000088,131.72188190000088,,132.82289509999828,left,1.0,1.0893614000015075,,132.82355430000098,132.83807689999958,133.3221224000008,133.33797969999796,,,,,,,,,,,,,,,,,,,,,,,,,sub-091,1.0,random_dot,60.09853756257559,
right,right,,4.0,1.0,9.0,1.0,,,,,,,,,133.33797969999796,,,,,,,,,133.3226594000007,134.13789899999756,134.93799999999828,134.92163119999896,134.9216575999999,134.93799999999828,134.93799999999828,134.93799999999828,,135.82237130000067,right,1.0,0.8759143999996013,,135.82302999999956,135.83763610000096,136.32144659999904,136.3375761999996,,,,,,,,,,,,,,,,,,,,,,,,,sub-091,1.0,random_dot,60.09853756257559,
right,right,,5.0,0.0,10.0,1.0,,,,,,,,,136.3375761999996,,,,,,,,,136.32194660000096,136.4375043,137.23781360000066,137.22136920000048,137.22139559999778,137.23781360000066,137.23781360000066,137.23781360000066,,139.25531209999826,right,1.0,2.015628099998139,,139.25599189999775,139.27034219999769,139.75429359999907,139.7702031000008,,,,,,,,,,,,,,,,,,,,,,,,,sub-091,1.0,random_dot,60.09853756257559,
left,left,,5.0,1.0,11.0,0.0,,,,,,,,,139.7702031000008,,,,,,,,,139.75476949999938,140.57010889999947,141.37056780000057,141.35398179999902,141.3540095999997,141.37056780000057,141.37056780000057,141.37056780000057,,142.05466080000042,left,1.0,0.6740817999998399,,142.05532129999847,142.06983969999783,142.55374640000082,142.56963149999865,,,,,,,,,,,,,,,,,,,,,,,,,sub-091,1.0,random_dot,60.09853756257559,
left,left,,6.0,0.0,12.0,0.0,,,,,,,,,142.56963149999865,,,,,,,,,142.55421840000054,143.76952639999945,144.56986899999902,144.5535005999991,144.55352760000096,144.56986899999902,144.56986899999902,144.56986899999902,,145.4543902000005,left,1.0,0.874552199999016,,145.45506639999803,145.46935179999855,145.95326999999816,145.96931519999998,,,,,,,,,,,,,,,,,,,,,,,,,sub-091,1.0,random_dot,60.09853756257559,
right,right,,6.0,1.0,13.0,1.0,,,,,,,,,145.96931519999998,,,,,,,,,145.95376580000084,146.31911580000087,147.11963509999987,147.10292180000033,147.10293939999974,147.11963509999987,147.11963509999987,147.11963509999987,,147.75372419999985,right,1.0,0.619912199999817,,147.75409389999913,147.76878899999792,148.25258069999836,148.26867330000096,,,,,,,,,,,,,,,,,,,,,,,,,sub-091,1.0,random_dot,60.09853756257559,
left,left,,7.0,0.0,14.0,0.0,,,,,,,,,148.26867330000096,,,,,,,,,148.253027499999,149.06848919999902,149.86923380000007,149.8524486999995,149.85246449999977,149.86923380000007,149.86923380000007,149.86923380000007,,150.5868182999984,left,1.0,0.7008659999992233,,150.5874765999979,150.60186740000063,151.08577069999956,151.101805899998,,,,,,,,,,,,,,,,,,,,,,,,,sub-091,1.0,random_dot,60.09853756257559,
right,right,,7.0,1.0,15.0,1.0,,,,,,,,,151.101805899998,,,,,,,,,151.08625419999953,151.45170629999848,152.2519973999988,152.23560240000006,152.23562859999947,152.2519973999988,152.2519973999988,152.2519973999988,,152.8196495000011,right,1.0,0.5567731000010099,,152.82031310000093,152.83476149999842,153.31886949999898,153.334736599998,,,,,,,,,,,,,,,,,,,,,,,,,sub-091,1.0,random_dot,60.09853756257559,
right,right,,8.0,0.0,16.0,1.0,,,,,,,,,153.334736599998,,,,,,,,,153.31934550000005,153.43461820000084,154.2351325999989,154.2186901999994,154.21871679999822,154.2351325999989,154.2351325999989,154.2351325999989,,157.17076529999758,left,0.0,2.9330680999992182,,157.171437099998,157.18409429999883,157.66810559999794,157.68419209999774,,,,,,,,,,,,,,,,,,,,,,,,,sub-091,1.0,random_dot,60.09853756257559,
left,left,,8.0,1.0,17.0,0.0,,,,,,,,,157.68419209999774,,,,,,,,,157.66857979999986,158.8838799999976,159.68397320000076,159.66762969999763,159.66765569999916,159.68397320000076,159.68397320000076,159.68397320000076,,160.60167680000086,left,1.0,0.9010244999990392,,160.6023564999996,160.6169071999975,161.10073089999787,161.11684949999835,,,,,,,,,,,,,,,,,,,,,,,,,sub-091,1.0,random_dot,60.09853756257559,
right,right,,9.0,0.0,18.0,1.0,,,,,,,,,161.11684949999835,,,,,,,,,161.10121330000038,161.21671979999883,162.01724309999918,162.00073279999924,162.00076949999857,162.01724309999918,162.01724309999918,162.01724309999918,,164.10125189999962,right,1.0,2.067812400000548,,164.1019109000008,164.11639269999796,164.60024899999917,164.6163032000004,,,,,,,,,,,,,,,,,,,,,,,,,sub-091,1.0,random_dot,60.09853756257559,
left,left,,9.0,1.0,19.0,0.0,,,,,,,,,164.6163032000004,,,,,,,,,164.60073349999948,164.71614939999927,165.51660859999902,165.50021639999977,165.50024289999783,165.51660859999902,165.51660859999902,165.51660859999902,,166.36778520000007,left,1.0,0.846920100000716,,166.3686166999978,166.38266999999905,166.86660850000044,166.88267759999871,,,,,,,,,,,,,,,,,,,,,,,,,sub-091,1.0,random_dot,60.09853756257559,
,,,,,,,,,,,,,,,,,,,,,,,,,,,,,,,,,,,,,,,,,,166.86668830000053,166.88267759999871,166.88267759999871,172.0494805999988,space,5.153627800002141,,,,,,,,,,,,,,,,,,,sub-091,1.0,random_dot,60.09853756257559,
,,,,,,,,,,,,,,,,,,,,,,,,,,,,,,,,,,,,,,,,,,,,,,,,,172.04952570000023,172.06525359999796,172.06525359999796,179.4484588999985,space,7.365853700001026,,,,,,,,,,,,sub-091,1.0,random_dot,60.09853756257559,
left,left,accuracy,,,,,0.0,0.0,0.0,0.0,0.0,0.0,0.0,0.0,183.11343380000108,,,,,,,,,183.10794379999788,183.46309259999907,184.26335599999948,184.2471028,184.2471318999997,184.26335599999948,184.26335599999948,184.26335599999948,,185.0978862999982,left,1.0,0.8275857000007818,,,,,,,,,,,,,,,,,,,,179.45374169999923,179.48263589999988,179.48263589999988,183.0977095999988,space,3.605427899998176,,,,,sub-091,1.0,random_dot,60.09853756257559,
right,right,accuracy,,,,,0.0,0.0,0.0,0.0,0.0,1.0,1.0,1.0,185.11285449999923,,,,,,,,,185.0995948999989,185.2129673999989,186.01332629999888,185.9968674999982,185.9968936999976,186.01332629999888,186.01332629999888,186.01332629999888,,187.08068509999796,right,1.0,1.057882999997673,,,,,,,,,,,,,,,,,,,,,,,,,,,,,,sub-091,1.0,random_dot,60.09853756257559,
left,left,accuracy,,,,,0.0,0.0,0.0,0.0,1.0,0.0,2.0,0.0,187.0960128000006,,,,,,,,,187.08197690000088,187.19594589999903,187.99603449999995,187.97979889999988,187.97982520000005,187.99603449999995,187.99603449999995,187.99603449999995,,188.91377419999844,left,1.0,0.903103299999202,,,,,,,,,,,,,,,,,,,,,,,,,,,,,,sub-091,1.0,random_dot,60.09853756257559,
right,right,accuracy,,,,,0.0,0.0,0.0,0.0,1.0,1.0,3.0,1.0,188.9290035999984,,,,,,,,,188.91508840000097,189.72879699999976,190.5292965000008,190.51290890000016,190.51293499999883,190.5292965000008,190.5292965000008,190.5292965000008,,191.996699299998,right,1.0,1.4528735999992932,,,,,,,,,,,,,,,,,,,,,,,,,,,,,,sub-091,1.0,random_dot,60.09853756257559,
right,right,accuracy,,,,,0.0,0.0,0.0,0.0,2.0,0.0,4.0,1.0,192.01167970000097,,,,,,,,,191.99797860000035,192.11176839999823,192.91230019999784,192.89547540000055,192.895491700001,192.91230019999784,192.91230019999784,192.91230019999784,,195.8295400999996,left,0.0,2.9091559999978926,,,,,,,,,,,,,,,,,,,,,,,,,,,,,,sub-091,1.0,random_dot,60.09853756257559,
left,left,accuracy,,,,,0.0,0.0,0.0,0.0,2.0,1.0,5.0,0.0,195.84440130000075,,,,,,,,,195.83083500000063,197.0442229,197.844651899999,197.82815800000023,197.82818439999755,197.844651899999,197.844651899999,197.844651899999,,199.7787164000001,left,1.0,1.9284936000003652,,,,,,,,,,,,,,,,,,,,,,,,,,,,,,sub-091,1.0,random_dot,60.09853756257559,
right,right,accuracy,,,,,0.0,0.0,0.0,0.0,3.0,0.0,6.0,1.0,199.793890500001,,,,,,,,,199.78005399999893,199.89374899999893,200.6939816999984,200.67747120000055,200.67748669999852,200.6939816999984,200.6939816999984,200.6939816999984,,201.6783976000006,right,1.0,0.9748498000008112,,,,,,,,,,,,,,,,,,,,,,,,,,,,,,sub-091,1.0,random_dot,60.09853756257559,
left,left,accuracy,,,,,0.0,0.0,0.0,0.0,3.0,1.0,7.0,0.0,201.6936504999976,,,,,,,,,201.6796777999989,202.0435646999977,202.843791299998,202.8274051000008,202.82743140000093,202.843791299998,202.843791299998,202.843791299998,,204.7447364,left,1.0,1.8869931000008364,,,,,,,,,,,,,,,,,,,,,,,,,,,,,,sub-091,1.0,random_dot,60.09853756257559,
right,right,accuracy,,,,,0.0,0.0,0.0,0.0,4.0,0.0,8.0,1.0,204.7597781000004,,,,,,,,,204.7460226000003,204.8596639999996,205.6601413999997,205.64358749999883,205.6436135000004,205.6601413999997,205.6601413999997,205.6601413999997,,209.6605294000001,left,0.0,3.997164100001101,,,,,,,,,,,,,,,,,,,,,,,,,,,,,,sub-091,1.0,random_dot,60.09853756257559,
left,left,accuracy,,,,,0.0,0.0,0.0,0.0,4.0,1.0,9.0,0.0,209.6756867999975,,,,,,,,,209.66181779999897,209.77557890000023,210.5758504000005,210.55948309999803,210.55950930000108,210.5758504000005,210.5758504000005,210.5758504000005,,213.97659019999992,left,1.0,3.39615749999939,,,,,,,,,,,,,,,,,,,,,,,,,,,,,,sub-091,1.0,random_dot,60.09853756257559,
right,right,accuracy,,,,,0.0,0.0,0.0,0.0,5.0,0.0,10.0,1.0,213.9916095999979,,,,,,,,,213.9778856999983,214.09164460000105,214.8919879999994,214.875325099998,214.87535139999815,214.8919879999994,214.8919879999994,214.8919879999994,,216.0595011000005,right,1.0,1.1556448999981512,,,,,,,,,,,,,,,,,,,,,,,,,,,,,,sub-091,1.0,random_dot,60.09853756257559,
left,left,accuracy,,,,,0.0,0.0,0.0,0.0,5.0,1.0,11.0,0.0,216.07444889999897,,,,,,,,,216.0607901000003,216.17456540000055,216.9747499999976,216.95833029999997,216.95836580000105,216.9747499999976,216.9747499999976,216.9747499999976,,218.54257159999904,left,1.0,1.5611799999969662,,,,,,,,,,,,,,,,,,,,,,,,,,,,,,sub-091,1.0,random_dot,60.09853756257559,
right,right,accuracy,,,,,0.0,0.0,0.0,0.0,6.0,0.0,12.0,1.0,218.55770119999943,,,,,,,,,218.54386619999784,218.9074860000001,219.7077040000004,219.6912674999985,219.6912936999979,219.7077040000004,219.7077040000004,219.7077040000004,,221.3919457999982,right,1.0,1.6677514000002702,,,,,,,,,,,,,,,,,,,,,,,,,,,,,,sub-091,1.0,random_dot,60.09853756257559,
left,left,accuracy,,,,,0.0,0.0,0.0,0.0,6.0,1.0,13.0,0.0,221.40694710000025,,,,,,,,,221.39325090000057,222.60699290000048,223.4071416999977,223.3906347000011,223.39066190000085,223.4071416999977,223.4071416999977,223.4071416999977,,225.4079624000005,left,1.0,1.9844243000006827,,,,,,,,,,,,,,,,,,,,,,,,,,,,,,sub-091,1.0,random_dot,60.09853756257559,
left,left,accuracy,,,,,0.0,0.0,0.0,0.0,7.0,0.0,14.0,0.0,225.42300149999937,,,,,,,,,225.4092529000009,226.22301109999896,227.02317839999887,227.00683320000095,227.00685959999828,227.02317839999887,227.02317839999887,227.02317839999887,,229.94064539999815,right,0.0,2.914816000000428,,,,,,,,,,,,,,,,,,,,,,,,,,,,,,sub-091,1.0,random_dot,60.09853756257559,
right,right,accuracy,,,,,0.0,0.0,0.0,0.0,7.0,1.0,15.0,1.0,229.95576779999828,,,,,,,,,229.94192819999807,230.05561599999783,230.8558998000008,230.83958239999995,230.83960920000027,230.8558998000008,230.8558998000008,230.8558998000008,,232.97349349999783,right,1.0,2.102473999999347,,,,,,,,,,,,,,,,,,,,,,,,,,,,,,sub-091,1.0,random_dot,60.09853756257559,
left,left,accuracy,,,,,0.0,0.0,0.0,0.0,8.0,0.0,16.0,0.0,232.98854460000075,,,,,,,,,232.9747774999996,233.33854699999935,234.13883720000013,234.1223556999976,234.12238159999836,234.13883720000013,234.13883720000013,234.13883720000013,,235.8230565999984,left,1.0,1.681376299999101,,,,,,,,,,,,,,,,,,,,,,,,,,,,,,sub-091,1.0,random_dot,60.09853756257559,
right,right,accuracy,,,,,0.0,0.0,0.0,0.0,8.0,1.0,17.0,1.0,235.8380264999978,,,,,,,,,235.82437930000012,237.0378309000007,237.8381814999993,237.8218362999978,237.82186189999996,237.8381814999993,237.8381814999993,237.8381814999993,,238.83896439999808,right,1.0,0.984763299999031,,,,,,,,,,,,,,,,,,,,,,,,,,,,,,sub-091,1.0,random_dot,60.09853756257559,
right,right,accuracy,,,,,0.0,0.0,0.0,0.0,9.0,0.0,18.0,1.0,238.85423000000085,,,,,,,,,238.8402634999984,239.6540845999989,240.4543438000001,240.43811350000036,240.4381399999984,240.4543438000001,240.4543438000001,240.4543438000001,,241.77215169999909,right,1.0,1.309397799999715,,,,,,,,,,,,,,,,,,,,,,,,,,,,,,sub-091,1.0,random_dot,60.09853756257559,
left,left,accuracy,,,,,0.0,0.0,0.0,0.0,9.0,1.0,19.0,0.0,241.7870217999989,,,,,,,,,241.7734426999996,242.137116599999,242.93727109999963,242.9209465999993,242.9209725000001,242.93727109999963,242.93727109999963,242.93727109999963,,244.98809400000027,right,0.0,2.034702800003288,,,,,,,,,,,,,,,,,,,,,,,,,,,,,,sub-091,1.0,random_dot,60.09853756257559,
right,right,accuracy,,,,,0.0,0.0,0.0,0.0,10.0,0.0,20.0,1.0,245.00317789999824,,,,,,,,,244.989421899998,245.80314609999917,246.603553500001,246.58692689999955,246.58695290000105,246.603553500001,246.603553500001,246.603553500001,,247.5377612000011,right,1.0,0.919133100000181,,,,,,,,,,,,,,,,,,,,,,,,,,,,,,sub-091,1.0,random_dot,60.09853756257559,
left,left,accuracy,,,,,0.0,0.0,0.0,0.0,10.0,1.0,21.0,0.0,247.55281199999808,,,,,,,,,247.5390578999977,248.75260499999783,249.55283399999823,249.53656559999945,249.5365918999996,249.55283399999823,249.55283399999823,249.55283399999823,,251.886963099998,right,0.0,2.326604199999565,,,,,,,,,,,,,,,,,,,,,,,,,,,,,,sub-091,1.0,random_dot,60.09853756257559,
left,left,accuracy,,,,,0.0,0.0,0.0,0.0,11.0,0.0,22.0,0.0,251.901941600001,,,,,,,,,251.8882840999977,253.10190090000103,253.9020911999978,253.88589929999944,253.88593449999823,253.9020911999978,253.9020911999978,253.9020911999978,,256.2028720999988,right,0.0,2.285788400000456,,,,,,,,,,,,,,,,,,,,,,,,,,,,,,sub-091,1.0,random_dot,60.09853756257559,
right,right,accuracy,,,,,0.0,0.0,0.0,0.0,11.0,1.0,23.0,1.0,256.218065699999,,,,,,,,,256.2041563999992,256.31805130000066,257.11824089999936,257.1019493999993,257.10197609999886,257.11824089999936,257.11824089999936,257.11824089999936,262.11769450000065,263.0850804000001,right,1.0,5.952555600000778,,,,,,,,,,,,,,,,,,,,,,,,,,,,,,sub-091,1.0,random_dot,60.09853756257559,
left,left,accuracy,,,,,0.0,0.0,0.0,0.0,12.0,0.0,24.0,0.0,263.1003019999989,,,,,,,,,263.0863661000003,263.4502408999979,264.2504912000004,264.2340182000007,264.234044599998,264.2504912000004,264.2504912000004,264.2504912000004,,266.0848896999996,right,0.0,1.8277077000020652,,,,,,,,,,,,,,,,,,,,,,,,,,,,,,sub-091,1.0,random_dot,60.09853756257559,
right,right,accuracy,,,,,0.0,0.0,0.0,0.0,12.0,1.0,25.0,1.0,266.0997623000003,,,,,,,,,266.0861721000001,266.8996675999988,267.69981180000104,267.6834510999979,267.68347749999884,267.69981180000104,267.69981180000104,267.69981180000104,,269.8342506000008,right,1.0,2.1180647000001045,,,,,,,,,,,,,,,,,,,,,,,,,,,,,,sub-091,1.0,random_dot,60.09853756257559,
left,left,accuracy,,,,,0.0,0.0,0.0,0.0,13.0,0.0,26.0,0.0,269.8492913000009,,,,,,,,,269.835542599998,269.94929950000005,270.7494293999989,270.7330707000001,270.733096699998,270.7494293999989,270.7494293999989,270.7494293999989,,273.4503459999978,left,1.0,2.698968500000774,,,,,,,,,,,,,,,,,,,,,,,,,,,,,,sub-091,1.0,random_dot,60.09853756257559,
right,right,accuracy,,,,,0.0,0.0,0.0,0.0,13.0,1.0,27.0,1.0,273.4652829000006,,,,,,,,,273.4517326999994,274.26520399999936,275.0654016000008,275.0490033999995,275.0490300999991,275.0654016000008,275.0654016000008,275.0654016000008,,278.3996224000002,right,1.0,3.3190762999984145,,,,,,,,,,,,,,,,,,,,,,,,,,,,,,sub-091,1.0,random_dot,60.09853756257559,
right,right,accuracy,,,,,0.0,0.0,0.0,0.0,14.0,0.0,28.0,1.0,278.4145906999984,,,,,,,,,278.40090620000046,278.7643914,279.5645995999985,279.54822029999923,279.5482468000009,279.5645995999985,279.5645995999985,279.5645995999985,,282.4323814999989,right,1.0,2.862152699999569,,,,,,,,,,,,,,,,,,,,,,,,,,,,,,sub-091,1.0,random_dot,60.09853756257559,
left,left,accuracy,,,,,0.0,0.0,0.0,0.0,14.0,1.0,29.0,0.0,282.4472289999976,,,,,,,,,282.433668499998,282.5471381999996,283.34725310000067,283.3309848999997,283.33101089999764,283.34725310000067,283.34725310000067,283.34725310000067,,285.71491799999785,left,1.0,2.360129099997721,,,,,,,,,,,,,,,,,,,,,,,,,,,,,,sub-091,1.0,random_dot,60.09853756257559,
left,left,accuracy,,,,,0.0,0.0,0.0,0.0,15.0,0.0,30.0,0.0,285.73002260000067,,,,,,,,,285.7162017999981,286.5298402000008,287.33007409999846,287.31373539999913,287.3137695000005,287.33007409999846,287.33007409999846,287.33007409999846,,290.230872600001,left,1.0,2.890469200003281,,,,,,,,,,,,,,,,,,,,,,,,,,,,,,sub-091,1.0,random_dot,60.09853756257559,
right,right,accuracy,,,,,0.0,0.0,0.0,0.0,15.0,1.0,31.0,1.0,290.2458482000002,,,,,,,,,290.2321526999985,290.3459694999983,291.1461692999983,291.12971689999904,291.1297439000009,291.1461692999983,291.1461692999983,291.1461692999983,,293.29845339999883,right,1.0,2.1425530000014987,,,,,,,,,,,,,,,,,,,,,,,,,,,,,,sub-091,1.0,random_dot,60.09853756257559,
right,right,accuracy,,,,,0.0,0.0,0.0,0.0,16.0,0.0,32.0,1.0,293.3121156999987,,,,,,,,,293.2997510999994,294.1118308999976,294.9121983999976,294.8956938999981,294.8957197999989,294.9121983999976,294.9121983999976,294.9121983999976,,296.67976830000043,left,0.0,1.7535812000023725,,,,,,,,,,,,,,,,,,,,,,,,,,,,,,sub-091,1.0,random_dot,60.09853756257559,
left,left,accuracy,,,,,0.0,0.0,0.0,0.0,16.0,1.0,33.0,0.0,296.6948106999989,,,,,,,,,296.6810562999999,296.79473470000084,297.5951122000006,297.5787467000009,297.5787730000011,297.5951122000006,297.5951122000006,297.5951122000006,,301.37928779999856,left,1.0,3.782475899999554,,,,,,,,,,,,,,,,,,,,,,,,,,,,,,sub-091,1.0,random_dot,60.09853756257559,
left,left,accuracy,,,,,0.0,0.0,0.0,0.0,17.0,0.0,34.0,0.0,301.3940107999988,,,,,,,,,301.3805761000003,301.74405919999845,302.54433380000046,302.5279778000004,302.5280047999986,302.54433380000046,302.54433380000046,302.54433380000046,,304.37836740000057,right,0.0,1.8253497000005157,,,,,,,,,,,,,,,,,,,,,,,,,,,,,,sub-091,1.0,random_dot,60.09853756257559,
right,right,accuracy,,,,,0.0,0.0,0.0,0.0,17.0,1.0,35.0,1.0,304.3934554000007,,,,,,,,,304.37964419999844,304.4935695999993,305.2938725999993,305.2774786000009,305.2775055999992,305.2938725999993,305.2938725999993,305.2938725999993,,310.1444539000004,left,0.0,4.848606600000494,,,,,,,,,,,,,,,,,,,,,,,,,,,,,,sub-091,1.0,random_dot,60.09853756257559,
left,left,accuracy,,,,,0.0,0.0,0.0,0.0,18.0,0.0,36.0,0.0,310.15922409999985,,,,,,,,,310.14574580000044,311.3591223000003,312.15935510000054,312.1430026999988,312.1430292999976,312.15935510000054,312.15935510000054,312.15935510000054,,313.67674629999965,left,1.0,1.5081195999991903,,,,,,,,,,,,,,,,,,,,,,,,,,,,,,sub-091,1.0,random_dot,60.09853756257559,
right,right,accuracy,,,,,0.0,0.0,0.0,0.0,18.0,1.0,37.0,1.0,313.6919930999975,,,,,,,,,313.677469899998,313.79211919999943,314.59236379999857,314.57591749999847,314.57594379999864,314.59236379999857,314.59236379999857,314.59236379999857,,315.90995349999866,right,1.0,1.3127978999982588,,,,,,,,,,,,,,,,,,,,,,,,,,,,,,sub-091,1.0,random_dot,60.09853756257559,
left,left,accuracy,,,,,0.0,0.0,0.0,0.0,19.0,0.0,38.0,0.0,315.9249103000002,,,,,,,,,315.9112438000011,317.1247402000008,317.92518890000065,317.9086987999981,317.9087254000005,317.92518890000065,317.92518890000065,317.92518890000065,,319.20921330000056,left,1.0,1.2725618000004033,,,,,,,,,,,,,,,,,,,,,,,,,,,,,,sub-091,1.0,random_dot,60.09853756257559,
right,right,accuracy,,,,,0.0,0.0,0.0,0.0,19.0,1.0,39.0,1.0,319.2243669999989,,,,,,,,,319.2105424000001,320.0243742999992,320.8246493999977,320.80825019999975,320.8082762999984,320.8246493999977,320.8246493999977,320.8246493999977,,322.3757759,right,1.0,1.5368694999997388,,,,,,,,,,,,,,,,,,,,,,,,,,,,,,sub-091,1.0,random_dot,60.09853756257559,
right,right,accuracy,,,,,0.0,0.0,0.0,0.0,20.0,0.0,40.0,1.0,322.39068359999874,,,,,,,,,322.3770670999984,323.59051709999767,324.39072029999807,324.3743438999991,324.3743706999994,324.39072029999807,324.39072029999807,324.39072029999807,,326.025056399998,right,1.0,1.6284704000026975,,,,,,,,,,,,,,,,,,,,,,,,,,,,,,sub-091,1.0,random_dot,60.09853756257559,
left,left,accuracy,,,,,0.0,0.0,0.0,0.0,20.0,1.0,41.0,0.0,326.0400938999992,,,,,,,,,326.026341599998,326.83984399999827,327.64017369999783,327.62381240000104,327.6238384999997,327.64017369999783,327.64017369999783,327.64017369999783,,328.6244262,left,1.0,0.977104400000826,,,,,,,,,,,,,,,,,,,,,,,,,,,,,,sub-091,1.0,random_dot,60.09853756257559,
left,left,accuracy,,,,,0.0,0.0,0.0,0.0,21.0,0.0,42.0,0.0,328.6396204999983,,,,,,,,,328.62575559999823,329.4395713999984,330.23991340000066,330.22351870000057,330.2235455000009,330.23991340000066,330.23991340000066,330.23991340000066,,331.2908752000003,right,0.0,1.0490596999989066,,,,,,,,,,,,,,,,,,,,,,,,,,,,,,sub-091,1.0,random_dot,60.09853756257559,
right,right,accuracy,,,,,0.0,0.0,0.0,0.0,21.0,1.0,43.0,1.0,331.3058048999992,,,,,,,,,331.29218539999783,331.65569049999976,332.4560868999979,332.4396855999985,332.4397203999979,332.4560868999979,332.4560868999979,332.4560868999979,,333.82368439999846,left,0.0,1.3611345999997866,,,,,,,,,,,,,,,,,,,,,,,,,,,,,,sub-091,1.0,random_dot,60.09853756257559,
left,left,accuracy,,,,,0.0,0.0,0.0,0.0,22.0,0.0,44.0,0.0,333.8389599000002,,,,,,,,,333.82526789999974,334.6387385999988,335.4389497000011,335.4225684999983,335.422595,335.4389497000011,335.4389497000011,335.4389497000011,,338.85614989999885,left,1.0,3.4085424000004423,,,,,,,,,,,,,,,,,,,,,,,,,,,,,,sub-091,1.0,random_dot,60.09853756257559,
right,right,accuracy,,,,,0.0,0.0,0.0,0.0,22.0,1.0,45.0,1.0,338.8712048999987,,,,,,,,,338.8574429,339.6711909000005,340.47144489999846,340.45530320000034,340.4553297999992,340.47144489999846,340.47144489999846,340.47144489999846,,341.3553921999992,right,1.0,0.8798401999993075,,,,,,,,,,,,,,,,,,,,,,,,,,,,,,sub-091,1.0,random_dot,60.09853756257559,
right,right,accuracy,,,,,0.0,0.0,0.0,0.0,23.0,0.0,46.0,1.0,341.3707678999999,,,,,,,,,341.3562834000004,342.17111979999754,342.97108110000045,342.9545684000004,342.9545947999977,342.97108110000045,342.97108110000045,342.97108110000045,,344.4552917000001,right,1.0,1.4733077000018966,,,,,,,,,,,,,,,,,,,,,,,,,,,,,,sub-091,1.0,random_dot,60.09853756257559,
left,left,accuracy,,,,,0.0,0.0,0.0,0.0,23.0,1.0,47.0,0.0,344.4702705999989,,,,,,,,,344.45658919999914,345.27032060000056,346.07051149999825,346.0541596000003,346.0541868,346.07051149999825,346.07051149999825,346.07051149999825,,347.10482919999777,left,1.0,1.0182980999998108,,,,,,,,,,,,,,,,,,,,,,,,,,,,,,sub-091,1.0,random_dot,60.09853756257559,
right,right,accuracy,,,,,0.0,0.0,0.0,0.0,24.0,0.0,48.0,1.0,347.1199287999989,,,,,,,,,347.10611979999885,347.9197161000011,348.72038729999986,348.7036169999992,348.7036427999992,348.72038729999986,348.72038729999986,348.72038729999986,,349.4713014000008,right,1.0,0.7464214999999967,,,,,,,,,,,,,,,,,,,,,,,,,,,,,,sub-091,1.0,random_dot,60.09853756257559,
left,left,accuracy,,,,,0.0,0.0,0.0,0.0,24.0,1.0,49.0,0.0,349.4862887999989,,,,,,,,,349.4725947999977,349.5861542999992,350.3866162999984,350.3701254000007,350.37015210000027,350.3866162999984,350.3866162999984,350.3866162999984,,351.27064939999764,left,1.0,0.8697724000012386,,,,,,,,,,,,,,,,,,,,,,,,,,,,,,sub-091,1.0,random_dot,60.09853756257559,
right,right,accuracy,,,,,0.0,0.0,0.0,0.0,25.0,0.0,50.0,1.0,351.2860093999989,,,,,,,,,351.2719432999984,351.3859721999979,352.1862106000008,352.16970129999754,352.16972709999754,352.1862106000008,352.1862106000008,352.1862106000008,,353.07054779999817,right,1.0,0.8769711999993888,,,,,,,,,,,,,,,,,,,,,,,,,,,,,,sub-091,1.0,random_dot,60.09853756257559,
left,left,accuracy,,,,,0.0,0.0,0.0,0.0,25.0,1.0,51.0,0.0,353.0856906000008,,,,,,,,,353.0718514,353.18554890000087,353.98603079999884,353.96961699999883,353.9696430000004,353.98603079999884,353.98603079999884,353.98603079999884,,354.8869975999987,left,1.0,0.8900353999997606,,,,,,,,,,,,,,,,,,,,,,,,,,,,,,sub-091,1.0,random_dot,60.09853756257559,
left,left,accuracy,,,,,0.0,0.0,0.0,0.0,26.0,0.0,52.0,0.0,354.90209739999773,,,,,,,,,354.8882799999992,355.7017792000006,356.5022306999999,356.48579059999975,356.4858166999984,356.5022306999999,356.5022306999999,356.5022306999999,,359.03636379999807,left,1.0,2.52784260000044,,,,,,,,,,,,,,,,,,,,,,,,,,,,,,sub-091,1.0,random_dot,60.09853756257559,
right,right,accuracy,,,,,0.0,0.0,0.0,0.0,26.0,1.0,53.0,1.0,359.05135339999833,,,,,,,,,359.037650899998,360.2510392000004,361.05146819999936,361.0351014999978,361.0351281000003,361.05146819999936,361.05146819999936,361.05146819999936,,365.9517899999992,left,0.0,4.886704799999279,,,,,,,,,,,,,,,,,,,,,,,,,,,,,,sub-091,1.0,random_dot,60.09853756257559,
left,left,accuracy,,,,,0.0,0.0,0.0,0.0,27.0,0.0,54.0,0.0,365.9668743000002,,,,,,,,,365.9530859000006,367.1666951000007,367.9669942,367.950441500001,367.9504682000006,367.9669942,367.9669942,367.9669942,,372.1174771000005,left,1.0,4.146668299999874,,,,,,,,,,,,,,,,,,,,,,,,,,,,,,sub-091,1.0,random_dot,60.09853756257559,
right,right,accuracy,,,,,0.0,0.0,0.0,0.0,27.0,1.0,55.0,1.0,372.13261689999854,,,,,,,,,372.1187738000008,373.3323249999994,374.1327893999987,374.11617789999946,374.11620140000014,374.1327893999987,374.1327893999987,374.1327893999987,,376.2500199999995,left,0.0,2.107870299998467,,,,,,,,,,,,,,,,,,,,,,,,,,,,,,sub-091,1.0,random_dot,60.09853756257559,
left,left,accuracy,,,,,0.0,0.0,0.0,0.0,28.0,0.0,56.0,0.0,376.2652481999976,,,,,,,,,376.2513093999987,376.36524129999816,377.16553550000026,377.1490163999988,377.1490429000005,377.16553550000026,377.16553550000026,377.16553550000026,,381.4660889000006,left,1.0,4.298688400001993,,,,,,,,,,,,,,,,,,,,,,,,,,,,,,sub-091,1.0,random_dot,60.09853756257559,
right,right,accuracy,,,,,0.0,0.0,0.0,0.0,28.0,1.0,57.0,1.0,381.4810617000003,,,,,,,,,381.4673885000011,382.2810049,383.0812446999989,383.0646558000008,383.0646820000002,383.0812446999989,383.0812446999989,383.0812446999989,,384.0820406999992,right,1.0,0.995308199999272,,,,,,,,,,,,,,,,,,,,,,,,,,,,,,sub-091,1.0,random_dot,60.09853756257559,
right,right,accuracy,,,,,0.0,0.0,0.0,0.0,29.0,0.0,58.0,1.0,384.0973071999979,,,,,,,,,384.083309499998,385.2971929999985,386.0973617999989,386.0809960000006,386.08102289999806,386.0973617999989,386.0973617999989,386.0973617999989,,387.4821047999976,left,0.0,1.3833335999988776,,,,,,,,,,,,,,,,,,,,,,,,,,,,,,sub-091,1.0,random_dot,60.09853756257559,
left,left,accuracy,,,,,0.0,0.0,0.0,0.0,29.0,1.0,59.0,0.0,387.4967674,,,,,,,,,387.4833770000005,387.5967707999989,388.3969785000008,388.3806177000006,388.3806436999985,388.3969785000008,388.3969785000008,388.3969785000008,,390.4978709999996,left,1.0,2.088950500001374,,,,,,,,,,,,,,,,,,,,,,,,,,,,,,sub-091,1.0,random_dot,60.09853756257559,
,,accuracy,,,,,0.0,0.0,0.0,0.0,,,,,,,,,,,,,,,,,,,,,,,,,,,,,,,,,,,,,,,,,,,,,,,,,,,,,,,,sub-091,1.0,random_dot,60.09853756257559,
left,left,speed,,,,,0.0,1.0,1.0,1.0,0.0,0.0,0.0,0.0,394.5790038999985,,,,,,,,,394.5737994999981,394.6789467999988,395.4791817999976,395.4627518999987,395.46278560000064,395.4791817999976,395.4791817999976,395.4791817999976,,397.7633855999993,left,1.0,2.2727804999994987,,,,,,,,,,,,,,,,,,,,390.49908199999845,390.5133452000009,390.5133452000009,394.56361639999886,space,4.042540200000076,,,,,sub-091,1.0,random_dot,60.09853756257559,
right,right,speed,,,,,0.0,1.0,1.0,1.0,0.0,1.0,1.0,1.0,397.7785096000007,,,,,,,,,397.7650403999978,398.97808729999815,399.77848399999857,399.7620977999977,399.76212419999865,399.77848399999857,399.77848399999857,399.77848399999857,,401.81294369999887,left,0.0,2.0315241999996942,,,,,,,,,,,,,,,,,,,,,,,,,,,,,,sub-091,1.0,random_dot,60.09853756257559,
left,left,speed,,,,,0.0,1.0,1.0,1.0,1.0,0.0,2.0,0.0,401.8277552,,,,,,,,,401.8142387999978,402.62764099999913,403.4277717000005,403.4114631999983,403.4114897,403.4277717000005,403.4277717000005,403.4277717000005,,405.028646499999,left,1.0,1.5905031000002054,,,,,,,,,,,,,,,,,,,,,,,,,,,,,,sub-091,1.0,random_dot,60.09853756257559,
right,right,speed,,,,,0.0,1.0,1.0,1.0,1.0,1.0,3.0,1.0,405.0439162000002,,,,,,,,,405.0299236999999,405.1439062999998,405.9442325999989,405.9278812999983,405.927908499998,405.9442325999989,405.9442325999989,405.9442325999989,,406.9950826999993,right,1.0,1.042103700001462,,,,,,,,,,,,,,,,,,,,,,,,,,,,,,sub-091,1.0,random_dot,60.09853756257559,
right,right,speed,,,,,0.0,1.0,1.0,1.0,2.0,0.0,4.0,1.0,407.0101294999986,,,,,,,,,406.9963792999988,407.1103101000008,407.9103424999994,407.8941259999992,407.89416319999873,407.9103424999994,407.9103424999994,407.9103424999994,,409.37789619999967,left,0.0,1.4590669999997772,,,,,,,,,,,,,,,,,,,,,,,,,,,,,,sub-091,1.0,random_dot,60.09853756257559,
left,left,speed,,,,,0.0,1.0,1.0,1.0,2.0,1.0,5.0,0.0,409.39312009999776,,,,,,,,,409.3790654999975,410.5930877999999,411.3933369000006,411.37688799999887,411.3769150000008,411.3933369000006,411.3933369000006,411.3933369000006,,413.7273342000008,left,1.0,2.324088800000027,,,,,,,,,,,,,,,,,,,,,,,,,,,,,,sub-091,1.0,random_dot,60.09853756257559,
right,right,speed,,,,,0.0,1.0,1.0,1.0,3.0,0.0,6.0,1.0,413.7423993999983,,,,,,,,,413.7286271999983,414.94237209999847,415.74257099999886,415.7260516999995,415.7260783999991,415.74257099999886,415.74257099999886,415.74257099999886,,416.893424599999,left,0.0,1.1365613999987545,,,,,,,,,,,,,,,,,,,,,,,,,,,,,,sub-091,1.0,random_dot,60.09853756257559,
left,left,speed,,,,,0.0,1.0,1.0,1.0,3.0,1.0,7.0,0.0,416.9086935999985,,,,,,,,,416.8947062999978,417.25851599999805,418.0590416999985,418.0425703000001,418.0425972999983,418.0590416999985,418.0590416999985,418.0590416999985,,419.4764052999999,left,1.0,1.404049800003122,,,,,,,,,,,,,,,,,,,,,,,,,,,,,,sub-091,1.0,random_dot,60.09853756257559,
left,left,speed,,,,,0.0,1.0,1.0,1.0,4.0,0.0,8.0,0.0,419.49155379999866,,,,,,,,,419.4777474000002,419.5914583999984,420.3916663999989,420.3753648999991,420.3753913000001,420.3916663999989,420.3916663999989,420.3916663999989,,422.5594734999977,left,1.0,2.155798899999354,,,,,,,,,,,,,,,,,,,,,,,,,,,,,,sub-091,1.0,random_dot,60.09853756257559,
right,right,speed,,,,,0.0,1.0,1.0,1.0,4.0,1.0,9.0,1.0,422.5743834999994,,,,,,,,,422.5608371999988,422.6745320000009,423.4745750000002,423.4581483000002,423.4581751000005,423.4745750000002,423.4745750000002,423.4745750000002,,424.775630600001,left,0.0,1.290971600003104,,,,,,,,,,,,,,,,,,,,,,,,,,,,,,sub-091,1.0,random_dot,60.09853756257559,
left,left,speed,,,,,0.0,1.0,1.0,1.0,5.0,0.0,10.0,0.0,424.7906679999978,,,,,,,,,424.7769019999978,425.9905719999988,426.7907968,426.77436269999816,426.7743889999984,426.7907968,426.7907968,426.7907968,,429.1247655999978,left,1.0,2.32342509999944,,,,,,,,,,,,,,,,,,,,,,,,,,,,,,sub-091,1.0,random_dot,60.09853756257559,
right,right,speed,,,,,0.0,1.0,1.0,1.0,5.0,1.0,11.0,1.0,429.14002059999984,,,,,,,,,429.1260202999984,429.4900765999992,430.2903126999991,430.2739097999984,430.2739355999984,430.2903126999991,430.2903126999991,430.2903126999991,,433.4243972999975,right,1.0,3.1276713000006566,,,,,,,,,,,,,,,,,,,,,,,,,,,,,,sub-091,1.0,random_dot,60.09853756257559,
right,right,speed,,,,,0.0,1.0,1.0,1.0,6.0,0.0,12.0,1.0,433.43936440000107,,,,,,,,,433.4256859999987,433.5393439,434.33984679999776,434.3230961000008,434.3231123999976,434.33984679999776,434.33984679999776,434.33984679999776,,435.507249899998,right,1.0,1.16181399999914,,,,,,,,,,,,,,,,,,,,,,,,,,,,,,sub-091,1.0,random_dot,60.09853756257559,
left,left,speed,,,,,0.0,1.0,1.0,1.0,6.0,1.0,13.0,0.0,435.5223220000007,,,,,,,,,435.5085665999977,435.8720955999997,436.6724752999981,436.6561753999995,436.6562014999981,436.6724752999981,436.6724752999981,436.6724752999981,,441.2063178999997,left,1.0,4.527460900000733,,,,,,,,,,,,,,,,,,,,,,,,,,,,,,sub-091,1.0,random_dot,60.09853756257559,
right,right,speed,,,,,0.0,1.0,1.0,1.0,7.0,0.0,14.0,1.0,441.221254600001,,,,,,,,,441.2076068999995,442.0212188999976,442.82155599999896,442.8051271000004,442.80515340000056,442.82155599999896,442.82155599999896,442.82155599999896,,444.2890277000006,right,1.0,1.4639394000005268,,,,,,,,,,,,,,,,,,,,,,,,,,,,,,sub-091,1.0,random_dot,60.09853756257559,
left,left,speed,,,,,0.0,1.0,1.0,1.0,7.0,1.0,15.0,0.0,444.30423470000096,,,,,,,,,444.290303400001,445.5040375999997,446.3044115999983,446.2879900000007,446.2880167000003,446.3044115999983,446.3044115999983,446.3044115999983,,448.1384873999996,left,1.0,1.8301056000018436,,,,,,,,,,,,,,,,,,,,,,,,,,,,,,sub-091,1.0,random_dot,60.09853756257559,
left,left,speed,,,,,0.0,1.0,1.0,1.0,8.0,0.0,16.0,0.0,448.1534207999976,,,,,,,,,448.1397677999994,449.3534123999998,450.1536037000005,450.1372975999984,450.1373236,450.1536037000005,450.1536037000005,450.1536037000005,,454.0711142,left,1.0,3.9063873999984935,,,,,,,,,,,,,,,,,,,,,,,,,,,,,,sub-091,1.0,random_dot,60.09853756257559,
right,right,speed,,,,,0.0,1.0,1.0,1.0,8.0,1.0,17.0,1.0,454.0859071999985,,,,,,,,,454.0723876000011,454.8856732999993,455.68589249999786,455.6697276999985,455.6697543000009,455.68589249999786,455.68589249999786,455.68589249999786,,457.4369511000005,left,0.0,1.7431552999987616,,,,,,,,,,,,,,,,,,,,,,,,,,,,,,sub-091,1.0,random_dot,60.09853756257559,
right,right,speed,,,,,0.0,1.0,1.0,1.0,9.0,0.0,18.0,1.0,457.45210419999785,,,,,,,,,457.43822069999806,458.2520189999996,459.0521518999994,459.0356654999996,459.0356914000004,459.0521518999994,459.0521518999994,459.0521518999994,,462.1195642999992,left,0.0,3.054381800000556,,,,,,,,,,,,,,,,,,,,,,,,,,,,,,sub-091,1.0,random_dot,60.09853756257559,
left,left,speed,,,,,0.0,1.0,1.0,1.0,9.0,1.0,19.0,0.0,462.1346798999985,,,,,,,,,462.12086740000086,462.9345132999988,463.7347399999999,463.7183817999976,463.71840809999776,463.7347399999999,463.7347399999999,463.7347399999999,,466.38546679999854,left,1.0,2.641176600001927,,,,,,,,,,,,,,,,,,,,,,,,,,,,,,sub-091,1.0,random_dot,60.09853756257559,
right,right,speed,,,,,0.0,1.0,1.0,1.0,10.0,0.0,20.0,1.0,466.4005642999982,,,,,,,,,466.38674270000047,466.5005698999994,467.3008788000007,467.284472299998,467.28449829999954,467.3008788000007,467.3008788000007,467.3008788000007,,468.1850158999987,right,1.0,0.8717959999994491,,,,,,,,,,,,,,,,,,,,,,,,,,,,,,sub-091,1.0,random_dot,60.09853756257559,
left,left,speed,,,,,0.0,1.0,1.0,1.0,10.0,1.0,21.0,0.0,468.20033649999823,,,,,,,,,468.1862976999983,468.3003710999983,469.1005731000005,469.084156500001,469.0841842000009,469.1005731000005,469.1005731000005,469.1005731000005,,470.15164879999793,left,1.0,1.0472815000030096,,,,,,,,,,,,,,,,,,,,,,,,,,,,,,sub-091,1.0,random_dot,60.09853756257559,
right,right,speed,,,,,0.0,1.0,1.0,1.0,11.0,0.0,22.0,1.0,470.16662820000056,,,,,,,,,470.15292829999817,470.9665079999977,471.7667865000003,471.7504177999981,471.75044369999887,471.7667865000003,471.7667865000003,471.7667865000003,,472.53445529999954,right,1.0,0.7641108999996504,,,,,,,,,,,,,,,,,,,,,,,,,,,,,,sub-091,1.0,random_dot,60.09853756257559,
left,left,speed,,,,,0.0,1.0,1.0,1.0,11.0,1.0,23.0,0.0,472.549615699998,,,,,,,,,472.5357476999998,472.8994648000007,473.6998816999985,473.6834616999986,473.6834890999999,473.6998816999985,473.6998816999985,473.6998816999985,,475.567289300001,left,1.0,1.8636967999991607,,,,,,,,,,,,,,,,,,,,,,,,,,,,,,sub-091,1.0,random_dot,60.09853756257559,
right,right,speed,,,,,0.0,1.0,1.0,1.0,12.0,0.0,24.0,1.0,475.5823492999989,,,,,,,,,475.5685556999997,475.6823035999987,476.4825644999983,476.4663053000004,476.4663321000007,476.4825644999983,476.4825644999983,476.4825644999983,,477.1338292,right,1.0,0.6418892000001506,,,,,,,,,,,,,,,,,,,,,,,,,,,,,,sub-091,1.0,random_dot,60.09853756257559,
left,left,speed,,,,,0.0,1.0,1.0,1.0,12.0,1.0,25.0,0.0,477.1489173000009,,,,,,,,,477.1351133999997,477.49876569999833,478.2991852999985,478.2827995999978,478.2828262000003,478.2991852999985,478.2991852999985,478.2991852999985,,479.1833898999976,left,1.0,0.8731635999974969,,,,,,,,,,,,,,,,,,,,,,,,,,,,,,sub-091,1.0,random_dot,60.09853756257559,
right,right,speed,,,,,0.0,1.0,1.0,1.0,13.0,0.0,26.0,1.0,479.198573499998,,,,,,,,,479.1847099000006,480.398197399998,481.198913799999,481.18211209999936,481.1821386999982,481.198913799999,481.198913799999,481.198913799999,,482.1996207000011,right,1.0,0.9920739000008324,,,,,,,,,,,,,,,,,,,,,,,,,,,,,,sub-091,1.0,random_dot,60.09853756257559,
left,left,speed,,,,,0.0,1.0,1.0,1.0,13.0,1.0,27.0,0.0,482.21478849999767,,,,,,,,,482.2009208999989,483.01457479999954,483.814744299998,483.798479699999,483.7985063999986,483.814744299998,483.814744299998,483.814744299998,,484.5490566999979,left,1.0,0.7288303999994241,,,,,,,,,,,,,,,,,,,,,,,,,,,,,,sub-091,1.0,random_dot,60.09853756257559,
left,left,speed,,,,,0.0,1.0,1.0,1.0,14.0,0.0,28.0,0.0,484.5641938000008,,,,,,,,,484.5503276999989,484.9142394999981,485.7148125999993,485.6982070999984,485.69823339999857,485.7148125999993,485.7148125999993,485.7148125999993,,486.6991319999979,left,1.0,0.9822874999990744,,,,,,,,,,,,,,,,,,,,,,,,,,,,,,sub-091,1.0,random_dot,60.09853756257559,
right,right,speed,,,,,0.0,1.0,1.0,1.0,14.0,1.0,29.0,1.0,486.714020899999,,,,,,,,,486.70048979999774,486.8140910000002,487.61421269999846,487.5977620999984,487.5977882999978,487.61421269999846,487.61421269999846,487.61421269999846,,488.281955399998,right,1.0,0.6527268999998341,,,,,,,,,,,,,,,,,,,,,,,,,,,,,,sub-091,1.0,random_dot,60.09853756257559,
right,right,speed,,,,,0.0,1.0,1.0,1.0,15.0,0.0,30.0,1.0,488.2970099999984,,,,,,,,,488.2832294,488.3968609000003,489.1973316000003,489.1808734999977,489.18089899999904,489.1973316000003,489.1973316000003,489.1973316000003,,491.06471039999815,right,1.0,1.86583569999857,,,,,,,,,,,,,,,,,,,,,,,,,,,,,,sub-091,1.0,random_dot,60.09853756257559,
left,left,speed,,,,,0.0,1.0,1.0,1.0,15.0,1.0,31.0,0.0,491.0797170000005,,,,,,,,,491.0654032999992,491.8797029999987,492.6800750000002,492.6637167000008,492.66374319999886,492.6800750000002,492.6800750000002,492.6800750000002,,493.4650529999999,left,1.0,0.7827146999989054,,,,,,,,,,,,,,,,,,,,,,,,,,,,,,sub-091,1.0,random_dot,60.09853756257559,
left,left,speed,,,,,0.0,1.0,1.0,1.0,16.0,0.0,32.0,0.0,493.47948339999857,,,,,,,,,493.4663333999997,493.5794631999997,494.379912299999,494.3635289999984,494.3635560000002,494.379912299999,494.379912299999,494.379912299999,,494.96391030000086,left,1.0,0.5714346000022488,,,,,,,,,,,,,,,,,,,,,,,,,,,,,,sub-091,1.0,random_dot,60.09853756257559,
right,right,speed,,,,,0.0,1.0,1.0,1.0,16.0,1.0,33.0,1.0,494.97926109999753,,,,,,,,,494.9648540999988,495.3292748999993,496.12940309999976,496.11306719999993,496.1130938999995,496.12940309999976,496.12940309999976,496.12940309999976,,496.9304195999976,right,1.0,0.792564899998979,,,,,,,,,,,,,,,,,,,,,,,,,,,,,,sub-091,1.0,random_dot,60.09853756257559,
left,left,speed,,,,,0.0,1.0,1.0,1.0,17.0,0.0,34.0,0.0,496.9456738999979,,,,,,,,,496.9317828999992,497.2956345999992,498.095814100001,498.0795450000005,498.07957220000026,498.095814100001,498.095814100001,498.095814100001,,498.7804585999984,left,1.0,0.671430499998678,,,,,,,,,,,,,,,,,,,,,,,,,,,,,,sub-091,1.0,random_dot,60.09853756257559,
right,right,speed,,,,,0.0,1.0,1.0,1.0,17.0,1.0,35.0,1.0,498.79545750000034,,,,,,,,,498.7817327999983,498.89536840000073,499.6954693000007,499.6790956000005,499.6791234000011,499.6954693000007,499.6954693000007,499.6954693000007,,500.44677239999874,right,1.0,0.7497570000014093,,,,,,,,,,,,,,,,,,,,,,,,,,,,,,sub-091,1.0,random_dot,60.09853756257559,
left,left,speed,,,,,0.0,1.0,1.0,1.0,18.0,0.0,36.0,0.0,500.46175329999824,,,,,,,,,500.4480488000008,501.6616278000001,502.4618474999989,502.44540779999807,502.4454432999992,502.4618474999989,502.4618474999989,502.4618474999989,,503.1461444999986,left,1.0,0.6779143000021577,,,,,,,,,,,,,,,,,,,,,,,,,,,,,,sub-091,1.0,random_dot,60.09853756257559,
right,right,speed,,,,,0.0,1.0,1.0,1.0,18.0,1.0,37.0,1.0,503.1612978999983,,,,,,,,,503.1474491000008,504.3611177999992,505.1614038000007,505.14500580000094,505.1450318999996,505.1614038000007,505.1614038000007,505.1614038000007,,505.9791250999988,right,1.0,0.8090015999987372,,,,,,,,,,,,,,,,,,,,,,,,,,,,,,sub-091,1.0,random_dot,60.09853756257559,
left,left,speed,,,,,0.0,1.0,1.0,1.0,19.0,0.0,38.0,0.0,505.9941675999981,,,,,,,,,505.9804100000001,506.09407640000063,506.89462529999946,506.8780453,506.8780719999995,506.89462529999946,506.89462529999946,506.89462529999946,,507.9955004000003,left,1.0,1.0980122000000847,,,,,,,,,,,,,,,,,,,,,,,,,,,,,,sub-091,1.0,random_dot,60.09853756257559,
right,right,speed,,,,,0.0,1.0,1.0,1.0,19.0,1.0,39.0,1.0,508.0105154999983,,,,,,,,,507.9967875000002,508.8104400000011,509.61058929999854,509.5941684999998,509.59419530000014,509.61058929999854,509.61058929999854,509.61058929999854,,510.31186979999984,right,1.0,0.6862992999995186,,,,,,,,,,,,,,,,,,,,,,,,,,,,,,sub-091,1.0,random_dot,60.09853756257559,
left,left,speed,,,,,0.0,1.0,1.0,1.0,20.0,0.0,40.0,0.0,510.32676920000085,,,,,,,,,510.3131518000009,511.1265439999988,511.9268112999998,511.9105562000004,511.9105820999976,511.9268112999998,511.9268112999998,511.9268112999998,,512.5614291999991,left,1.0,0.6258291000012832,,,,,,,,,,,,,,,,,,,,,,,,,,,,,,sub-091,1.0,random_dot,60.09853756257559,
right,right,speed,,,,,0.0,1.0,1.0,1.0,20.0,1.0,41.0,1.0,512.5764382999987,,,,,,,,,512.5627034999998,513.7761494000006,514.5766700999993,514.5601380999979,514.5601645999996,514.5766700999993,514.5766700999993,514.5766700999993,,515.3943125000005,right,1.0,0.8147950999991735,,,,,,,,,,,,,,,,,,,,,,,,,,,,,,sub-091,1.0,random_dot,60.09853756257559,
right,right,speed,,,,,0.0,1.0,1.0,1.0,21.0,0.0,42.0,1.0,515.4092906999977,,,,,,,,,515.3955886000003,516.2091983999999,517.0094835999989,516.992957399998,516.9929837999989,517.0094835999989,517.0094835999989,517.0094835999989,,518.4938395999998,left,0.0,1.4702541000006022,,,,,,,,,,,,,,,,,,,,,,,,,,,,,,sub-091,1.0,random_dot,60.09853756257559,
left,left,speed,,,,,0.0,1.0,1.0,1.0,21.0,1.0,43.0,0.0,518.5089511999977,,,,,,,,,518.4951197000009,518.8589131999979,519.6590374999978,519.6425453000011,519.6425716999984,519.6590374999978,519.6590374999978,519.6590374999978,,520.4932721000005,left,1.0,0.8277635000013106,,,,,,,,,,,,,,,,,,,,,,,,,,,,,,sub-091,1.0,random_dot,60.09853756257559,
right,right,speed,,,,,0.0,1.0,1.0,1.0,22.0,0.0,44.0,1.0,520.5084786000007,,,,,,,,,520.4945692000001,520.608490300001,521.4088411999983,521.3923748999987,521.3924006999987,521.4088411999983,521.4088411999983,521.4088411999983,,522.2098968999999,right,1.0,0.7934969999987516,,,,,,,,,,,,,,,,,,,,,,,,,,,,,,sub-091,1.0,random_dot,60.09853756257559,
left,left,speed,,,,,0.0,1.0,1.0,1.0,22.0,1.0,45.0,0.0,522.2249714999998,,,,,,,,,522.2111722000009,523.0246177999979,523.8249987999989,523.8085964999991,523.8086225999978,523.8249987999989,523.8249987999989,523.8249987999989,,524.4594055999987,left,1.0,0.6183621999989555,,,,,,,,,,,,,,,,,,,,,,,,,,,,,,sub-091,1.0,random_dot,60.09853756257559,
left,left,speed,,,,,0.0,1.0,1.0,1.0,23.0,0.0,46.0,0.0,524.4745221999983,,,,,,,,,524.4606858999978,525.6742085000005,526.4745603999982,526.4581753999992,526.4582023000003,526.4745603999982,526.4745603999982,526.4745603999982,,527.0420434999978,left,1.0,0.554904799999349,,,,,,,,,,,,,,,,,,,,,,,,,,,,,,sub-091,1.0,random_dot,60.09853756257559,
right,right,speed,,,,,0.0,1.0,1.0,1.0,23.0,1.0,47.0,1.0,527.0573913999979,,,,,,,,,527.0427615999979,527.8573331999978,528.6575723999995,528.6413436000003,528.6413708,528.6575723999995,528.6575723999995,528.6575723999995,,529.341820499998,right,1.0,0.6777984000000288,,,,,,,,,,,,,,,,,,,,,,,,,,,,,,sub-091,1.0,random_dot,60.09853756257559,
right,right,speed,,,,,0.0,1.0,1.0,1.0,24.0,0.0,48.0,1.0,529.3570927000001,,,,,,,,,529.3430994000009,530.5569450000003,531.3571220999984,531.3406794000002,531.3407057000004,531.3571220999984,531.3571220999984,531.3571220999984,,533.8411632999996,right,1.0,2.47006379999948,,,,,,,,,,,,,,,,,,,,,,,,,,,,,,sub-091,1.0,random_dot,60.09853756257559,
left,left,speed,,,,,0.0,1.0,1.0,1.0,24.0,1.0,49.0,0.0,533.8562015999996,,,,,,,,,533.8424545999987,534.6563180999983,535.4566659999982,535.4400538000009,535.4400801000011,535.4566659999982,535.4566659999982,535.4566659999982,,536.1074547999997,left,1.0,0.6441145999997389,,,,,,,,,,,,,,,,,,,,,,,,,,,,,,sub-091,1.0,random_dot,60.09853756257559,
right,right,speed,,,,,0.0,1.0,1.0,1.0,25.0,0.0,50.0,1.0,536.1226327000004,,,,,,,,,536.1087241999994,536.9224929999982,537.7228303999982,537.7064180999987,537.7064451000006,537.7228303999982,537.7228303999982,537.7228303999982,,538.5905237000006,right,1.0,0.858051200000773,,,,,,,,,,,,,,,,,,,,,,,,,,,,,,sub-091,1.0,random_dot,60.09853756257559,
left,left,speed,,,,,0.0,1.0,1.0,1.0,25.0,1.0,51.0,0.0,538.6056503,,,,,,,,,538.5917941000007,539.4054512000002,540.205674599998,540.1892281,540.1892546999989,540.205674599998,540.205674599998,540.205674599998,,541.0898495000001,left,1.0,0.8780554000004486,,,,,,,,,,,,,,,,,,,,,,,,,,,,,,sub-091,1.0,random_dot,60.09853756257559,
left,left,speed,,,,,0.0,1.0,1.0,1.0,26.0,0.0,52.0,0.0,541.1051492000006,,,,,,,,,541.0911746999991,542.3049069000008,543.105217100001,543.0888238000007,543.0888507999989,543.105217100001,543.105217100001,543.105217100001,,544.1229983999983,left,1.0,1.015795799998159,,,,,,,,,,,,,,,,,,,,,,,,,,,,,,sub-091,1.0,random_dot,60.09853756257559,
right,right,speed,,,,,0.0,1.0,1.0,1.0,26.0,1.0,53.0,1.0,544.1379659999984,,,,,,,,,544.1242758000008,544.2380453999976,545.0380781999993,545.0217630999978,545.0217894999987,545.0380781999993,545.0380781999993,545.0380781999993,,545.7558511999996,right,1.0,0.7051315999997314,,,,,,,,,,,,,,,,,,,,,,,,,,,,,,sub-091,1.0,random_dot,60.09853756257559,
right,right,speed,,,,,0.0,1.0,1.0,1.0,27.0,0.0,54.0,1.0,545.7710182999981,,,,,,,,,545.7571313000008,546.1210500999987,546.9214747000005,546.9049226999996,546.9049491999976,546.9214747000005,546.9214747000005,546.9214747000005,,547.6556151999976,right,1.0,0.7312152999984391,,,,,,,,,,,,,,,,,,,,,,,,,,,,,,sub-091,1.0,random_dot,60.09853756257559,
left,left,speed,,,,,0.0,1.0,1.0,1.0,27.0,1.0,55.0,0.0,547.6707395999983,,,,,,,,,547.6568942999984,548.4706054999988,549.2708942999998,549.2545430999999,549.2545690000006,549.2708942999998,549.2708942999998,549.2708942999998,,550.1551507999975,left,1.0,0.8727995000008377,,,,,,,,,,,,,,,,,,,,,,,,,,,,,,sub-091,1.0,random_dot,60.09853756257559,
left,left,speed,,,,,0.0,1.0,1.0,1.0,28.0,0.0,56.0,0.0,550.1704236000005,,,,,,,,,550.1564311000002,550.970362,551.7706469000004,551.7540399999998,551.7540664000007,551.7706469000004,551.7706469000004,551.7706469000004,,552.554748999999,left,1.0,0.7699486999990768,,,,,,,,,,,,,,,,,,,,,,,,,,,,,,sub-091,1.0,random_dot,60.09853756257559,
right,right,speed,,,,,0.0,1.0,1.0,1.0,28.0,1.0,57.0,1.0,552.5699574999999,,,,,,,,,552.5560571999995,553.3698686999996,554.1701556999978,554.1536444999983,554.153671,554.1701556999978,554.1701556999978,554.1701556999978,,555.1872760999977,right,1.0,1.0075371000020823,,,,,,,,,,,,,,,,,,,,,,,,,,,,,,sub-091,1.0,random_dot,60.09853756257559,
left,left,speed,,,,,0.0,1.0,1.0,1.0,29.0,0.0,58.0,0.0,555.202809800001,,,,,,,,,555.1880084000004,555.3028381999975,556.1029774999988,556.0867241999986,556.0867503000009,556.1029774999988,556.1029774999988,556.1029774999988,,556.7872701999986,left,1.0,0.6789236000004166,,,,,,,,,,,,,,,,,,,,,,,,,,,,,,sub-091,1.0,random_dot,60.09853756257559,
right,right,speed,,,,,0.0,1.0,1.0,1.0,29.0,1.0,59.0,1.0,556.8026043999998,,,,,,,,,556.7885600000009,556.9026014999981,557.7028432999978,557.6863959000002,557.6864220999996,557.7028432999978,557.7028432999978,557.7028432999978,,558.7039394999993,right,1.0,0.9934838000008313,,,,,,,,,,,,,,,,,,,,,,,,,,,,,,sub-091,1.0,random_dot,60.09853756257559,
,,speed,,,,,0.0,1.0,1.0,1.0,,,,,,,,,,,,,,,,,,,,,,,,,,,,,,,,,,,,,,,,,,,,,,,,,,,,,,,,sub-091,1.0,random_dot,60.09853756257559,
,,,,,,,,,,,,,,,,,,,,,,,,,,,,,,,,,,,,,,,,,,,,,,,,,,,,,,,,,,,,,,,558.7049005000008,558.7190679999985,563.7183215999976,sub-091,,,,
