wordCTK,colorCTK,corrAnsCTK,congruentCTK,thisN,thisTrialN,thisRepN,keyResp_CTK.keys,keyResp_CTK.corr,keyResp_CTK.rt,keyResp_CTK.duration,wordPractice,colorPractice,corrAnsPractice,congruentPractice,respPractice.keys,respPractice.corr,respPractice.rt,respPractice.duration,word,color,corrAns,congruent,keyResp_test_run.keys,keyResp_test_run.corr,keyResp_test_run.rt,keyResp_test_run.duration,trials_CTK.thisRepN,trials_CTK.thisTrialN,trials_CTK.thisN,trials_CTK.thisIndex,trials_practice.thisRepN,trials_practice.thisTrialN,trials_practice.thisN,trials_practice.thisIndex,trials_test.thisRepN,trials_test.thisTrialN,trials_test.thisN,trials_test.thisIndex,thisRow.t,notes,instruction.started,instr_text.started,instr_image.started,instr_resp.started,instruction.stopped,instr_resp.keys,instr_resp.rt,instr_resp.duration,instr_color_to_key.started,instr_ctk.started,resp_ctk.started,instr_color_to_key.stopped,resp_ctk.keys,resp_ctk.rt,resp_ctk.duration,ITI.started,fixcross.started,fixcross.stopped,ITI.stopped,color_to_key_run.started,stimulus_CTK.started,keyResp_CTK.started,color_to_key_run.stopped,trials_CTK.keyResp_CTK.keys,trials_CTK.keyResp_CTK.corr,trials_CTK.keyResp_CTK.rt,trials_CTK.keyResp_CTK.duration,instr_practice.started,instr_practice_text.started,instr_practice_resp.started,instr_practice.stopped,instr_practice_resp.keys,instr_practice_resp.rt,instr_practice_resp.duration,practice_run.started,stimulus_practice.started,respPractice.started,practice_run.stopped,trials_practice.respPractice.keys,trials_practice.respPractice.corr,trials_practice.respPractice.rt,trials_practice.respPractice.duration,feedback.started,textFeedback.started,feedback.stopped,textFeedback.stopped,instr_test.started,instr_test_text.started,instr_test_resp.started,instr_test.stopped,instr_test_resp.keys,instr_test_resp.rt,instr_test_resp.duration,test_run.started,stimulus_test_run.started,keyResp_test_run.started,test_run.stopped,trials_test.keyResp_test_run.keys,trials_test.keyResp_test_run.corr,trials_test.keyResp_test_run.rt,trials_test.keyResp_test_run.duration,goodbye.started,textGoodbye.started,goodbye.stopped,participant,session,date,expName,psychopyVersion,frameRate,expStart
,,,,,,,,,,,,,,,,,,,,,,,,,,,,,,,,,,,,,,,,,0.0210888,0.0388603,0.0388603,0.0388603,39.2154122,space,39.0556669,None,,,,,,,,,,,,,,,,,,,,,,,,,,,,,,,,,,,,,,,,,,,,,,,,,,,,,,,,,sub-156,1,2025-03-12_12h48.17.947,stroop_test,04.02.2024,60.08431034,2025-03-12 12h49.23.986215 +0100
,,,,,,,,,,,,,,,,,,,,,,,,,,,,,,,,,,,,,,,,,,,,,,,,,39.2154926,39.2357198,39.2357198,48.3300976,space,9.0845932,None,,,,,,,,,,,,,,,,,,,,,,,,,,,,,,,,,,,,,,,,,,,,,,,,,,sub-156,1,2025-03-12_12h48.17.947,stroop_test,04.02.2024,60.08431034,2025-03-12 12h49.23.986215 +0100
test,blue,b,1,0,0,0,b,1,0.9804999,None,,,,,,,,,,,,,,,,,0,0,0,2,,,,,,,,,48.3627108,,,,,,,,,,,,,,,,,48.3548662,48.431717,49.2610708,49.2317284,49.2421926,49.2610708,49.2610708,50.2452705,b,1,0.9804999,None,,,,,,,,,,,,,,,,,,,,,,,,,,,,,,,,,,,,,,sub-156,1,2025-03-12_12h48.17.947,stroop_test,04.02.2024,60.08431034,2025-03-12 12h49.23.986215 +0100
test,yellow,g,1,1,1,0,g,1,1.0148017,None,,,,,,,,,,,,,,,,,0,1,1,1,,,,,,,,,50.2599454,,,,,,,,,,,,,,,,,50.2457871,50.3604838,51.1761316,51.1601604,51.1609333,51.1761316,51.1761316,52.1934704,g,1,1.0148017,None,,,,,,,,,,,,,,,,,,,,,,,,,,,,,,,,,,,,,,sub-156,1,2025-03-12_12h48.17.947,stroop_test,04.02.2024,60.08431034,2025-03-12 12h49.23.986215 +0100
test,red,r,1,2,2,0,r,1,0.5251245,None,,,,,,,,,,,,,,,,,0,2,2,0,,,,,,,,,52.2084603,,,,,,,,,,,,,,,,,52.1939737,52.5579123,53.3571077,53.341467,53.3422291,53.3571077,53.3571077,53.8917765,r,1,0.5251245,None,,,,,,,,,,,,,,,,,,,,,,,,,,,,,,,,,,,,,,sub-156,1,2025-03-12_12h48.17.947,stroop_test,04.02.2024,60.08431034,2025-03-12 12h49.23.986215 +0100
test,red,r,1,3,0,1,r,1,1.1044325,None,,,,,,,,,,,,,,,,,1,0,3,0,,,,,,,,,53.9066941,,,,,,,,,,,,,,,,,53.8922836,54.0066906,54.8058283,54.7902896,54.791112,54.8058283,54.8058283,55.9235617,r,1,1.1044325,None,,,,,,,,,,,,,,,,,,,,,,,,,,,,,,,,,,,,,,sub-156,1,2025-03-12_12h48.17.947,stroop_test,04.02.2024,60.08431034,2025-03-12 12h49.23.986215 +0100
test,blue,b,1,4,1,1,b,1,0.8403577,None,,,,,,,,,,,,,,,,,1,1,4,2,,,,,,,,,55.9385658,,,,,,,,,,,,,,,,,55.9240757,57.137693,57.9363677,57.9215172,57.9224487,57.9363677,57.9363677,58.7877062,b,1,0.8403577,None,,,,,,,,,,,,,,,,,,,,,,,,,,,,,,,,,,,,,,sub-156,1,2025-03-12_12h48.17.947,stroop_test,04.02.2024,60.08431034,2025-03-12 12h49.23.986215 +0100
test,yellow,g,1,5,2,1,g,1,0.7787265,None,,,,,,,,,,,,,,,,,1,2,5,1,,,,,,,,,58.8026854,,,,,,,,,,,,,,,,,58.7882232,60.0013683,60.8005874,60.7849429,60.7857203,60.8005874,60.8005874,61.585934,g,1,0.7787265,None,,,,,,,,,,,,,,,,,,,,,,,,,,,,,,,,,,,,,,sub-156,1,2025-03-12_12h48.17.947,stroop_test,04.02.2024,60.08431034,2025-03-12 12h49.23.986215 +0100
test,blue,b,1,6,0,2,b,1,0.8519618,None,,,,,,,,,,,,,,,,,2,0,6,2,,,,,,,,,61.5999181,,,,,,,,,,,,,,,,,61.5864403,61.9497711,62.7493773,62.7332198,62.7339903,62.7493773,62.7493773,63.6157987,b,1,0.8519618,None,,,,,,,,,,,,,,,,,,,,,,,,,,,,,,,,,,,,,,sub-156,1,2025-03-12_12h48.17.947,stroop_test,04.02.2024,60.08431034,2025-03-12 12h49.23.986215 +0100
test,yellow,g,1,7,1,2,g,1,0.8718059,None,,,,,,,,,,,,,,,,,2,1,7,1,,,,,,,,,63.6312599,,,,,,,,,,,,,,,,,63.6161541,64.8308771,65.6462743,65.6306363,65.6314152,65.6462743,65.6462743,66.5306017,g,1,0.8718059,None,,,,,,,,,,,,,,,,,,,,,,,,,,,,,,,,,,,,,,sub-156,1,2025-03-12_12h48.17.947,stroop_test,04.02.2024,60.08431034,2025-03-12 12h49.23.986215 +0100
test,red,r,1,8,2,2,r,1,0.8918108,None,,,,,,,,,,,,,,,,,2,2,8,0,,,,,,,,,66.5456304,,,,,,,,,,,,,,,,,66.5311282,67.7444613,68.5437489,68.5280987,68.5288866,68.5437489,68.5437489,69.4446883,r,1,0.8918108,None,,,,,,,,,,,,,,,,,,,,,,,,,,,,,,,,,,,,,,sub-156,1,2025-03-12_12h48.17.947,stroop_test,04.02.2024,60.08431034,2025-03-12 12h49.23.986215 +0100
test,red,r,1,9,0,3,r,1,1.0172851,None,,,,,,,,,,,,,,,,,3,0,9,0,,,,,,,,,69.4595783,,,,,,,,,,,,,,,,,69.4451998,70.6583285,71.4578617,71.442229,71.4429975,71.4578617,71.4578617,72.4919378,r,1,1.0172851,None,,,,,,,,,,,,,,,,,,,,,,,,,,,,,,,,,,,,,,sub-156,1,2025-03-12_12h48.17.947,stroop_test,04.02.2024,60.08431034,2025-03-12 12h49.23.986215 +0100
test,yellow,g,1,10,1,3,g,1,0.6946251,None,,,,,,,,,,,,,,,,,3,1,10,1,,,,,,,,,72.5067892,,,,,,,,,,,,,,,,,72.49244,73.3061769,74.1054399,74.0899577,74.0907493,74.1054399,74.1054399,74.8071528,g,1,0.6946251,None,,,,,,,,,,,,,,,,,,,,,,,,,,,,,,,,,,,,,,sub-156,1,2025-03-12_12h48.17.947,stroop_test,04.02.2024,60.08431034,2025-03-12 12h49.23.986215 +0100
test,blue,b,1,11,2,3,b,1,0.5626203,None,,,,,,,,,,,,,,,,,3,2,11,2,,,,,,,,,74.8217108,,,,,,,,,,,,,,,,,74.8076654,75.6213058,76.4367665,76.4211332,76.4219131,76.4367665,76.4367665,77.0047349,b,1,0.5626203,None,,,,,,,,,,,,,,,,,,,,,,,,,,,,,,,,,,,,,,sub-156,1,2025-03-12_12h48.17.947,stroop_test,04.02.2024,60.08431034,2025-03-12 12h49.23.986215 +0100
,,,,,,,,,,,,,,,,,,,,,,,,,,,,,,,,,,,,,,,,,,,,,,,,,,,,,,,,,,,,,,,,,,,,77.0049837,77.0195933,77.0195933,78.6699626,space,1.6432432,None,,,,,,,,,,,,,,,,,,,,,,,,,,,,,,,sub-156,1,2025-03-12_12h48.17.947,stroop_test,04.02.2024,60.08431034,2025-03-12 12h49.23.986215 +0100
,,,,0,0,0,,,,,blau,yellow,g,0,g,1,1.5504188,None,,,,,,,,,,,,,0,0,0,7,,,,,78.7014093,,,,,,,,,,,,,,,,,78.6878554,79.4839953,80.300053,80.2676931,,,,,,,,,,,,,,,,80.2803795,80.300053,80.300053,81.8674991,g,1,1.5504188,None,81.8832982,81.8985902,82.8818179,,,,,,,,,,,,,,,,,,,,sub-156,1,2025-03-12_12h48.17.947,stroop_test,04.02.2024,60.08431034,2025-03-12 12h49.23.986215 +0100
,,,,1,1,0,,,,,gelb,yellow,g,1,g,1,1.1899941,None,,,,,,,,,,,,,0,1,1,11,,,,,82.8978766,,,,,,,,,,,,,,,,,82.8823162,82.9809695,83.7813414,83.7646538,,,,,,,,,,,,,,,,83.7695111,83.7813414,83.7813414,84.9810417,g,1,1.1899941,None,84.9818773,84.9961389,85.9951581,,,,,,,,,,,,,,,,,,,,sub-156,1,2025-03-12_12h48.17.947,stroop_test,04.02.2024,60.08431034,2025-03-12 12h49.23.986215 +0100
,,,,2,2,0,,,,,blau,blue,b,1,b,1,0.6077884,None,,,,,,,,,,,,,0,2,2,6,,,,,86.0116007,,,,,,,,,,,,,,,,,85.9956596,87.1939404,87.9932161,87.977544,,,,,,,,,,,,,,,,87.9819157,87.9932161,87.9932161,88.61111,b,1,0.6077884,None,88.6119223,88.6260569,89.6095723,89.6251667,,,,,,,,,,,,,,,,,,,sub-156,1,2025-03-12_12h48.17.947,stroop_test,04.02.2024,60.08431034,2025-03-12 12h49.23.986215 +0100
,,,,3,3,0,,,,,blau,blue,b,1,b,1,0.6601597,None,,,,,,,,,,,,,0,3,3,5,,,,,89.6251667,,,,,,,,,,,,,,,,,89.6100673,89.725007,90.5243081,90.5092942,,,,,,,,,,,,,,,,90.5105432,90.5243081,90.5243081,91.1926779,b,1,0.6601597,None,91.1935029,91.2070111,92.1906285,92.206143,,,,,,,,,,,,,,,,,,,sub-156,1,2025-03-12_12h48.17.947,stroop_test,04.02.2024,60.08431034,2025-03-12 12h49.23.986215 +0100
,,,,4,4,0,,,,,blau,red,r,0,r,1,1.6462347,None,,,,,,,,,,,,,0,4,4,4,,,,,92.206143,,,,,,,,,,,,,,,,,92.19113,92.5558789,93.355203,93.339772,,,,,,,,,,,,,,,,93.3405592,93.355203,93.355203,95.006261,r,1,1.6462347,None,95.0071099,95.0203989,96.0039974,96.0199595,,,,,,,,,,,,,,,,,,,sub-156,1,2025-03-12_12h48.17.947,stroop_test,04.02.2024,60.08431034,2025-03-12 12h49.23.986215 +0100
,,,,5,5,0,,,,,rot,red,r,1,r,1,0.8876437,None,,,,,,,,,,,,,0,5,5,1,,,,,96.0199595,,,,,,,,,,,,,,,,,96.004491,97.2188975,98.0355239,98.0188294,,,,,,,,,,,,,,,,98.0262259,98.0355239,98.0355239,98.938353,r,1,0.8876437,None,98.9391886,98.9539453,99.9525996,,,,,,,,,,,,,,,,,,,,sub-156,1,2025-03-12_12h48.17.947,stroop_test,04.02.2024,60.08431034,2025-03-12 12h49.23.986215 +0100
,,,,6,6,0,,,,,gelb,blue,b,0,g,0,0.8606117,None,,,,,,,,,,,,,0,6,6,9,,,,,99.9692647,,,,,,,,,,,,,,,,,99.9529439,100.3022715,101.1016505,101.0859408,,,,,,,,,,,,,,,,101.0913604,101.1016505,101.1016505,101.9690205,g,0,0.8606117,None,101.9771178,101.9979942,102.980398,,,,,,,,,,,,,,,,,,,,sub-156,1,2025-03-12_12h48.17.947,stroop_test,04.02.2024,60.08431034,2025-03-12 12h49.23.986215 +0100
,,,,7,7,0,,,,,rot,yellow,g,0,g,1,0.9829518,None,,,,,,,,,,,,,0,7,7,3,,,,,102.9966315,,,,,,,,,,,,,,,,,102.9808935,103.0799291,103.8806139,103.8643125,,,,,,,,,,,,,,,,103.8711123,103.8806139,103.8806139,104.8665356,g,1,0.9829518,None,104.8723065,104.8953674,105.8775729,,,,,,,,,,,,,,,,,,,,sub-156,1,2025-03-12_12h48.17.947,stroop_test,04.02.2024,60.08431034,2025-03-12 12h49.23.986215 +0100
,,,,8,8,0,,,,,rot,red,r,1,r,1,1.8296375,None,,,,,,,,,,,,,0,8,8,0,,,,,105.8940399,,,,,,,,,,,,,,,,,105.8780857,105.9774489,106.7935695,106.7770902,,,,,,,,,,,,,,,,106.7776503,106.7935695,106.7935695,108.6269674,r,1,1.8296375,None,108.6277843,108.641583,109.6251211,109.6407461,,,,,,,,,,,,,,,,,,,sub-156,1,2025-03-12_12h48.17.947,stroop_test,04.02.2024,60.08431034,2025-03-12 12h49.23.986215 +0100
,,,,9,9,0,,,,,gelb,yellow,g,1,g,1,1.4217548,None,,,,,,,,,,,,,0,9,9,10,,,,,109.6407461,,,,,,,,,,,,,,,,,109.6256098,110.440102,111.2397044,111.2237246,,,,,,,,,,,,,,,,111.2285429,111.2397044,111.2397044,112.6735918,g,1,1.4217548,None,112.6746253,112.6882662,113.6716338,113.6871902,,,,,,,,,,,,,,,,,,,sub-156,1,2025-03-12_12h48.17.947,stroop_test,04.02.2024,60.08431034,2025-03-12 12h49.23.986215 +0100
,,,,10,10,0,,,,,gelb,red,r,0,r,1,1.0466599,None,,,,,,,,,,,,,0,10,10,8,,,,,113.6871902,,,,,,,,,,,,,,,,,113.6721201,114.0370831,114.8362312,114.8205647,,,,,,,,,,,,,,,,114.8213127,114.8362312,114.8362312,115.8868913,r,1,1.0466599,None,115.8875212,115.9016953,116.8854031,116.9013132,,,,,,,,,,,,,,,,,,,sub-156,1,2025-03-12_12h48.17.947,stroop_test,04.02.2024,60.08431034,2025-03-12 12h49.23.986215 +0100
,,,,11,11,0,,,,,rot,blue,b,0,b,1,1.0955209,None,,,,,,,,,,,,,0,11,11,2,,,,,116.9013132,,,,,,,,,,,,,,,,,116.8859089,118.0999513,118.9000058,118.8840053,,,,,,,,,,,,,,,,118.8894474,118.9000058,118.9000058,120.0004937,b,1,1.0955209,None,120.0013401,120.0151751,120.9987461,121.0140663,,,,,,,,,,,,,,,,,,,sub-156,1,2025-03-12_12h48.17.947,stroop_test,04.02.2024,60.08431034,2025-03-12 12h49.23.986215 +0100
,,,,12,0,1,,,,,gelb,blue,b,0,b,1,0.7486426,None,,,,,,,,,,,,,1,0,12,9,,,,,121.0140663,,,,,,,,,,,,,,,,,120.9992438,121.3637607,122.16327,122.1476326,,,,,,,,,,,,,,,,122.1525654,122.16327,122.16327,122.9144927,b,1,0.7486426,None,122.915321,122.9290267,123.9125128,123.9281636,,,,,,,,,,,,,,,,,,,sub-156,1,2025-03-12_12h48.17.947,stroop_test,04.02.2024,60.08431034,2025-03-12 12h49.23.986215 +0100
,,,,13,1,1,,,,,rot,blue,b,0,b,1,0.6766378,None,,,,,,,,,,,,,1,1,13,2,,,,,123.9281636,,,,,,,,,,,,,,,,,123.9130103,124.7276149,125.52685,125.5111237,,,,,,,,,,,,,,,,125.5159031,125.52685,125.52685,126.2117224,b,1,0.6766378,None,126.2125497,126.2261061,127.2097221,127.2253593,,,,,,,,,,,,,,,,,,,sub-156,1,2025-03-12_12h48.17.947,stroop_test,04.02.2024,60.08431034,2025-03-12 12h49.23.986215 +0100
,,,,14,2,1,,,,,gelb,red,r,0,r,1,1.2735647,None,,,,,,,,,,,,,1,2,14,8,,,,,127.2253593,,,,,,,,,,,,,,,,,127.2102444,127.3256767,128.1418489,128.1256417,,,,,,,,,,,,,,,,128.1303731,128.1418489,128.1418489,129.4250954,r,1,1.2735647,None,129.4259214,129.4402391,130.4391505,,,,,,,,,,,,,,,,,,,,sub-156,1,2025-03-12_12h48.17.947,stroop_test,04.02.2024,60.08431034,2025-03-12 12h49.23.986215 +0100
,,,,15,3,1,,,,,rot,red,r,1,r,1,1.1007356,None,,,,,,,,,,,,,1,3,15,0,,,,,130.4560223,,,,,,,,,,,,,,,,,130.4395721,131.6380465,132.4375052,132.4217479,,,,,,,,,,,,,,,,132.4265555,132.4375052,132.4375052,133.5547884,r,1,1.1007356,None,133.5556031,133.569648,134.5530983,134.5688195,,,,,,,,,,,,,,,,,,,sub-156,1,2025-03-12_12h48.17.947,stroop_test,04.02.2024,60.08431034,2025-03-12 12h49.23.986215 +0100
,,,,16,4,1,,,,,gelb,yellow,g,1,g,1,1.2688243,None,,,,,,,,,,,,,1,4,16,10,,,,,134.5688195,,,,,,,,,,,,,,,,,134.5536028,134.918508,135.7180493,135.7021203,,,,,,,,,,,,,,,,135.707544,135.7180493,135.7180493,137.0016855,g,1,1.2688243,None,137.0025116,137.016607,138.0001476,138.0157735,,,,,,,,,,,,,,,,,,,sub-156,1,2025-03-12_12h48.17.947,stroop_test,04.02.2024,60.08431034,2025-03-12 12h49.23.986215 +0100
,,,,17,5,1,,,,,blau,yellow,g,0,g,1,0.970105,None,,,,,,,,,,,,,1,5,17,7,,,,,138.0157735,,,,,,,,,,,,,,,,,138.000646,138.1161909,138.9315905,138.9161027,,,,,,,,,,,,,,,,138.9203794,138.9315905,138.9315905,139.9161556,g,1,0.970105,None,139.9169755,139.9309883,140.9301656,,,,,,,,,,,,,,,,,,,,sub-156,1,2025-03-12_12h48.17.947,stroop_test,04.02.2024,60.08431034,2025-03-12 12h49.23.986215 +0100
,,,,18,6,1,,,,,blau,blue,b,1,b,1,1.4346605,None,,,,,,,,,,,,,1,6,18,5,,,,,140.9467128,,,,,,,,,,,,,,,,,140.9306842,141.0298221,141.8290091,141.8133323,,,,,,,,,,,,,,,,141.8140857,141.8290091,141.8290091,143.279549,b,1,1.4346605,None,143.2803734,143.2943417,144.2778974,144.2935513,,,,,,,,,,,,,,,,,,,sub-156,1,2025-03-12_12h48.17.947,stroop_test,04.02.2024,60.08431034,2025-03-12 12h49.23.986215 +0100
,,,,19,7,1,,,,,rot,red,r,1,r,1,1.0786765,None,,,,,,,,,,,,,1,7,19,1,,,,,144.2935513,,,,,,,,,,,,,,,,,144.2783889,144.6432214,145.4426434,145.4269997,,,,,,,,,,,,,,,,145.4318305,145.4426434,145.4426434,146.5274059,r,1,1.0786765,None,146.5282499,146.5415081,147.5250587,147.5406648,,,,,,,,,,,,,,,,,,,sub-156,1,2025-03-12_12h48.17.947,stroop_test,04.02.2024,60.08431034,2025-03-12 12h49.23.986215 +0100
,,,,20,8,1,,,,,blau,red,r,0,r,1,1.3158644,None,,,,,,,,,,,,,1,8,20,4,,,,,147.5406648,,,,,,,,,,,,,,,,,147.5255464,148.3399834,149.1392557,149.123602,,,,,,,,,,,,,,,,149.1279176,149.1392557,149.1392557,150.4571866,r,1,1.3158644,None,150.4580109,150.4714927,151.4549882,151.4709273,,,,,,,,,,,,,,,,,,,sub-156,1,2025-03-12_12h48.17.947,stroop_test,04.02.2024,60.08431034,2025-03-12 12h49.23.986215 +0100
,,,,21,9,1,,,,,rot,yellow,g,0,g,1,1.0721855,None,,,,,,,,,,,,,1,9,21,3,,,,,151.4709273,,,,,,,,,,,,,,,,,151.4554791,151.5704281,152.3699413,152.354076,,,,,,,,,,,,,,,,152.3588479,152.3699413,152.3699413,153.4538807,g,1,1.0721855,None,153.4547091,153.4687733,154.4522493,154.467831,,,,,,,,,,,,,,,,,,,sub-156,1,2025-03-12_12h48.17.947,stroop_test,04.02.2024,60.08431034,2025-03-12 12h49.23.986215 +0100
,,,,22,10,1,,,,,gelb,yellow,g,1,g,1,1.0931531,None,,,,,,,,,,,,,1,10,22,11,,,,,154.467831,,,,,,,,,,,,,,,,,154.4527362,155.6668458,156.4662587,156.4505175,,,,,,,,,,,,,,,,156.4552925,156.4662587,156.4662587,157.5670631,g,1,1.0931531,None,157.5679459,157.5817355,158.5658971,158.5808993,,,,,,,,,,,,,,,,,,,sub-156,1,2025-03-12_12h48.17.947,stroop_test,04.02.2024,60.08431034,2025-03-12 12h49.23.986215 +0100
,,,,23,11,1,,,,,blau,blue,b,1,b,1,0.9383383,None,,,,,,,,,,,,,1,11,23,6,,,,,158.5808993,,,,,,,,,,,,,,,,,158.5663983,158.9309105,159.7301298,159.7146605,,,,,,,,,,,,,,,,159.7203994,159.7301298,159.7301298,160.6810835,b,1,0.9383383,None,160.681906,160.6957272,161.6792194,161.6948102,,,,,,,,,,,,,,,,,,,sub-156,1,2025-03-12_12h48.17.947,stroop_test,04.02.2024,60.08431034,2025-03-12 12h49.23.986215 +0100
,,,,,,,,,,,,,,,,,,,,,,,,,,,,,,,,,,,,,,,,,,,,,,,,,,,,,,,,,,,,,,,,,,,,,,,,,,,,,,,,,,,,,,,161.6794251,161.6948102,161.6948102,167.2750937,space,5.5694938,None,,,,,,,,,,,,sub-156,1,2025-03-12_12h48.17.947,stroop_test,04.02.2024,60.08431034,2025-03-12 12h49.23.986215 +0100
,,,,0,0,0,,,,,,,,,,,,,gelb,red,r,0,r,1,1.4239999,None,,,,,,,,,0,0,0,8,167.306598,,,,,,,,,,,,,,,,,167.296765,168.0887735,168.8887934,168.8731094,,,,,,,,,,,,,,,,,,,,,,,,,,,,,,,,,,,168.8781185,168.8887934,168.8887934,170.3224351,r,1,1.4239999,None,,,,sub-156,1,2025-03-12_12h48.17.947,stroop_test,04.02.2024,60.08431034,2025-03-12 12h49.23.986215 +0100
,,,,1,1,0,,,,,,,,,,,,,blau,blue,b,1,b,1,0.7904239,None,,,,,,,,,0,1,1,6,170.3377106,,,,,,,,,,,,,,,,,170.3230062,170.4370954,171.2363707,171.2208947,,,,,,,,,,,,,,,,,,,,,,,,,,,,,,,,,,,171.2251844,171.2363707,171.2363707,172.038077,b,1,0.7904239,None,,,,sub-156,1,2025-03-12_12h48.17.947,stroop_test,04.02.2024,60.08431034,2025-03-12 12h49.23.986215 +0100
,,,,2,2,0,,,,,,,,,,,,,blau,blue,b,1,b,1,0.5387053,None,,,,,,,,,0,2,2,5,172.0522935,,,,,,,,,,,,,,,,,172.0386413,173.251291,174.0506363,174.0358157,,,,,,,,,,,,,,,,,,,,,,,,,,,,,,,,,,,174.0366189,174.0506363,174.0506363,174.6018865,b,1,0.5387053,None,,,,sub-156,1,2025-03-12_12h48.17.947,stroop_test,04.02.2024,60.08431034,2025-03-12 12h49.23.986215 +0100
,,,,3,3,0,,,,,,,,,,,,,gelb,blue,b,0,b,1,0.6849811,None,,,,,,,,,0,3,3,9,174.6168993,,,,,,,,,,,,,,,,,174.6024406,174.7166733,175.5162019,175.5007077,,,,,,,,,,,,,,,,,,,,,,,,,,,,,,,,,,,175.5054307,175.5162019,175.5162019,176.2172142,b,1,0.6849811,None,,,,sub-156,1,2025-03-12_12h48.17.947,stroop_test,04.02.2024,60.08431034,2025-03-12 12h49.23.986215 +0100
,,,,4,4,0,,,,,,,,,,,,,gelb,yellow,g,1,g,1,0.6797499,None,,,,,,,,,0,4,4,10,176.2316839,,,,,,,,,,,,,,,,,176.2177933,177.4309446,178.230259,178.2156463,,,,,,,,,,,,,,,,,,,,,,,,,,,,,,,,,,,178.216416,178.230259,178.230259,178.9151972,g,1,0.6797499,None,,,,sub-156,1,2025-03-12_12h48.17.947,stroop_test,04.02.2024,60.08431034,2025-03-12 12h49.23.986215 +0100
,,,,5,5,0,,,,,,,,,,,,,rot,red,r,1,r,1,1.2242366,None,,,,,,,,,0,5,5,0,178.9296446,,,,,,,,,,,,,,,,,178.9157518,179.0299116,179.82916,179.8136348,,,,,,,,,,,,,,,,,,,,,,,,,,,,,,,,,,,179.8192924,179.82916,179.82916,181.0629961,r,1,1.2242366,None,,,,sub-156,1,2025-03-12_12h48.17.947,stroop_test,04.02.2024,60.08431034,2025-03-12 12h49.23.986215 +0100
,,,,6,6,0,,,,,,,,,,,,,blau,yellow,g,0,g,1,0.9428646,None,,,,,,,,,0,6,6,7,181.0782266,,,,,,,,,,,,,,,,,181.0635575,181.4272293,182.2269861,182.2110229,,,,,,,,,,,,,,,,,,,,,,,,,,,,,,,,,,,182.2160374,182.2269861,182.2269861,183.1781411,g,1,0.9428646,None,,,,sub-156,1,2025-03-12_12h48.17.947,stroop_test,04.02.2024,60.08431034,2025-03-12 12h49.23.986215 +0100
,,,,7,7,0,,,,,,,,,,,,,rot,blue,b,0,b,1,1.2330565,None,,,,,,,,,0,7,7,2,183.1926072,,,,,,,,,,,,,,,,,183.1787046,183.5422105,184.3416883,184.3259268,,,,,,,,,,,,,,,,,,,,,,,,,,,,,,,,,,,184.3307884,184.3416883,184.3416883,185.5919799,b,1,1.2330565,None,,,,sub-156,1,2025-03-12_12h48.17.947,stroop_test,04.02.2024,60.08431034,2025-03-12 12h49.23.986215 +0100
,,,,8,8,0,,,,,,,,,,,,,rot,yellow,g,0,g,1,1.9211133,None,,,,,,,,,0,8,8,3,185.607072,,,,,,,,,,,,,,,,,185.5925452,186.8059947,187.6055383,187.5896698,,,,,,,,,,,,,,,,,,,,,,,,,,,,,,,,,,,187.5904484,187.6055383,187.6055383,189.5388828,g,1,1.9211133,None,,,,sub-156,1,2025-03-12_12h48.17.947,stroop_test,04.02.2024,60.08431034,2025-03-12 12h49.23.986215 +0100
,,,,9,9,0,,,,,,,,,,,,,gelb,yellow,g,1,g,1,0.6253151,None,,,,,,,,,0,9,9,11,189.5535899,,,,,,,,,,,,,,,,,189.5394678,189.6535899,190.4529796,190.4375528,,,,,,,,,,,,,,,,,,,,,,,,,,,,,,,,,,,190.4423109,190.4529796,190.4529796,191.087274,g,1,0.6253151,None,,,,sub-156,1,2025-03-12_12h48.17.947,stroop_test,04.02.2024,60.08431034,2025-03-12 12h49.23.986215 +0100
,,,,10,10,0,,,,,,,,,,,,,blau,red,r,0,r,1,0.8506078,None,,,,,,,,,0,10,10,4,191.102196,,,,,,,,,,,,,,,,,191.0878411,191.2022586,192.0015415,191.9857662,,,,,,,,,,,,,,,,,,,,,,,,,,,,,,,,,,,191.9901759,192.0015415,192.0015415,192.8692205,r,1,0.8506078,None,,,,sub-156,1,2025-03-12_12h48.17.947,stroop_test,04.02.2024,60.08431034,2025-03-12 12h49.23.986215 +0100
,,,,11,11,0,,,,,,,,,,,,,rot,red,r,1,r,1,0.3934977,None,,,,,,,,,0,11,11,1,192.8839731,,,,,,,,,,,,,,,,,192.8697852,194.0828996,194.8825367,194.8666554,,,,,,,,,,,,,,,,,,,,,,,,,,,,,,,,,,,194.8714376,194.8825367,194.8825367,195.2836028,r,1,0.3934977,None,,,,sub-156,1,2025-03-12_12h48.17.947,stroop_test,04.02.2024,60.08431034,2025-03-12 12h49.23.986215 +0100
,,,,12,0,1,,,,,,,,,,,,,rot,yellow,g,0,g,1,0.7781181,None,,,,,,,,,1,0,12,3,195.2984654,,,,,,,,,,,,,,,,,195.2841734,195.6484539,196.4480214,196.4318337,,,,,,,,,,,,,,,,,,,,,,,,,,,,,,,,,,,196.4325924,196.4480214,196.4480214,197.2318566,g,1,0.7781181,None,,,,sub-156,1,2025-03-12_12h48.17.947,stroop_test,04.02.2024,60.08431034,2025-03-12 12h49.23.986215 +0100
,,,,13,1,1,,,,,,,,,,,,,blau,blue,b,1,b,1,0.5965283,None,,,,,,,,,1,1,13,6,197.2468174,,,,,,,,,,,,,,,,,197.2324309,198.0462328,198.8465502,198.8304969,,,,,,,,,,,,,,,,,,,,,,,,,,,,,,,,,,,198.8352309,198.8465502,198.8465502,199.4501858,b,1,0.5965283,None,,,,sub-156,1,2025-03-12_12h48.17.947,stroop_test,04.02.2024,60.08431034,2025-03-12 12h49.23.986215 +0100
,,,,14,2,1,,,,,,,,,,,,,rot,red,r,1,r,1,0.7325166,None,,,,,,,,,1,2,14,0,199.4650631,,,,,,,,,,,,,,,,,199.4507529,200.2638539,201.0770612,201.0474438,,,,,,,,,,,,,,,,,,,,,,,,,,,,,,,,,,,201.0529678,201.0770612,201.0770612,201.826989,r,1,0.7325166,None,,,,sub-156,1,2025-03-12_12h48.17.947,stroop_test,04.02.2024,60.08431034,2025-03-12 12h49.23.986215 +0100
,,,,15,3,1,,,,,,,,,,,,,gelb,blue,b,0,b,1,0.7650017,None,,,,,,,,,1,3,15,9,201.8426402,,,,,,,,,,,,,,,,,201.82736,201.9259743,202.7254358,202.7098647,,,,,,,,,,,,,,,,,,,,,,,,,,,,,,,,,,,202.7146359,202.7254358,202.7254358,203.4932466,b,1,0.7650017,None,,,,sub-156,1,2025-03-12_12h48.17.947,stroop_test,04.02.2024,60.08431034,2025-03-12 12h49.23.986215 +0100
,,,,16,4,1,,,,,,,,,,,,,blau,yellow,g,0,g,1,0.6363097,None,,,,,,,,,1,4,16,7,203.5079356,,,,,,,,,,,,,,,,,203.49381,203.6078594,204.4072233,204.3918148,,,,,,,,,,,,,,,,,,,,,,,,,,,,,,,,,,,204.3963311,204.4072233,204.4072233,205.0573267,g,1,0.6363097,None,,,,sub-156,1,2025-03-12_12h48.17.947,stroop_test,04.02.2024,60.08431034,2025-03-12 12h49.23.986215 +0100
,,,,17,5,1,,,,,,,,,,,,,rot,blue,b,0,r,0,1.0946469,None,,,,,,,,,1,5,17,2,205.0730625,,,,,,,,,,,,,,,,,205.0577101,206.2725121,207.088462,207.0725568,,,,,,,,,,,,,,,,,,,,,,,,,,,,,,,,,,,207.0773327,207.088462,207.088462,208.1891024,r,0,1.0946469,None,,,,sub-156,1,2025-03-12_12h48.17.947,stroop_test,04.02.2024,60.08431034,2025-03-12 12h49.23.986215 +0100
,,,,18,6,1,,,,,,,,,,,,,blau,red,r,0,r,1,1.158515,None,,,,,,,,,1,6,18,4,208.2037699,,,,,,,,,,,,,,,,,208.1896747,208.5535175,209.3528745,209.3374393,,,,,,,,,,,,,,,,,,,,,,,,,,,,,,,,,,,209.3417001,209.3528745,209.3528745,210.520185,r,1,1.158515,None,,,,sub-156,1,2025-03-12_12h48.17.947,stroop_test,04.02.2024,60.08431034,2025-03-12 12h49.23.986215 +0100
,,,,19,7,1,,,,,,,,,,,,,gelb,red,r,0,r,1,0.8482631,None,,,,,,,,,1,7,19,8,210.5352716,,,,,,,,,,,,,,,,,210.5207543,211.7339365,212.5333824,212.5176681,,,,,,,,,,,,,,,,,,,,,,,,,,,,,,,,,,,212.522404,212.5333824,212.5333824,213.3851632,r,1,0.8482631,None,,,,sub-156,1,2025-03-12_12h48.17.947,stroop_test,04.02.2024,60.08431034,2025-03-12 12h49.23.986215 +0100
,,,,20,8,1,,,,,,,,,,,,,rot,red,r,1,r,1,0.531544,None,,,,,,,,,1,8,20,1,213.3992084,,,,,,,,,,,,,,,,,213.386117,213.7490409,214.5477252,214.5322063,,,,,,,,,,,,,,,,,,,,,,,,,,,,,,,,,,,214.5357554,214.5477252,214.5477252,215.0830298,r,1,0.531544,None,,,,sub-156,1,2025-03-12_12h48.17.947,stroop_test,04.02.2024,60.08431034,2025-03-12 12h49.23.986215 +0100
,,,,21,9,1,,,,,,,,,,,,,gelb,yellow,g,1,g,1,0.4824854,None,,,,,,,,,1,9,21,11,215.0977116,,,,,,,,,,,,,,,,,215.0835912,216.2966698,217.112159,217.0966004,,,,,,,,,,,,,,,,,,,,,,,,,,,,,,,,,,,217.0999995,217.112159,217.112159,217.5976066,g,1,0.4824854,None,,,,sub-156,1,2025-03-12_12h48.17.947,stroop_test,04.02.2024,60.08431034,2025-03-12 12h49.23.986215 +0100
,,,,22,10,1,,,,,,,,,,,,,blau,blue,b,1,b,1,0.6005137,None,,,,,,,,,1,10,22,5,217.6129528,,,,,,,,,,,,,,,,,217.598198,217.9618144,218.7611116,218.7454368,,,,,,,,,,,,,,,,,,,,,,,,,,,,,,,,,,,218.7496906,218.7611116,218.7611116,219.3789183,b,1,0.6005137,None,,,,sub-156,1,2025-03-12_12h48.17.947,stroop_test,04.02.2024,60.08431034,2025-03-12 12h49.23.986215 +0100
,,,,23,11,1,,,,,,,,,,,,,gelb,yellow,g,1,g,1,0.5881775,None,,,,,,,,,1,11,23,10,219.3938834,,,,,,,,,,,,,,,,,219.3794775,220.5928904,221.3928978,221.3768497,,,,,,,,,,,,,,,,,,,,,,,,,,,,,,,,,,,221.3816284,221.3928978,221.3928978,221.9937682,g,1,0.5881775,None,,,,sub-156,1,2025-03-12_12h48.17.947,stroop_test,04.02.2024,60.08431034,2025-03-12 12h49.23.986215 +0100
,,,,24,0,2,,,,,,,,,,,,,gelb,blue,b,0,b,1,0.6443803,None,,,,,,,,,2,0,24,9,222.008526,,,,,,,,,,,,,,,,,221.9943666,222.108758,222.9241473,222.9084197,,,,,,,,,,,,,,,,,,,,,,,,,,,,,,,,,,,222.9092162,222.9241473,222.9241473,223.575386,b,1,0.6443803,None,,,,sub-156,1,2025-03-12_12h48.17.947,stroop_test,04.02.2024,60.08431034,2025-03-12 12h49.23.986215 +0100
,,,,25,1,2,,,,,,,,,,,,,gelb,yellow,g,1,g,1,0.674301,None,,,,,,,,,2,1,25,11,223.5901907,,,,,,,,,,,,,,,,,223.5759576,223.6901405,224.4897695,224.4738657,,,,,,,,,,,,,,,,,,,,,,,,,,,,,,,,,,,224.4746506,224.4897695,224.4897695,225.1747664,g,1,0.674301,None,,,,sub-156,1,2025-03-12_12h48.17.947,stroop_test,04.02.2024,60.08431034,2025-03-12 12h49.23.986215 +0100
,,,,26,2,2,,,,,,,,,,,,,blau,blue,b,1,b,1,0.5691634,None,,,,,,,,,2,2,26,5,225.188802,,,,,,,,,,,,,,,,,225.1753404,225.9882855,226.7873609,226.7718059,,,,,,,,,,,,,,,,,,,,,,,,,,,,,,,,,,,226.7760678,226.7873609,226.7873609,227.3711711,b,1,0.5691634,None,,,,sub-156,1,2025-03-12_12h48.17.947,stroop_test,04.02.2024,60.08431034,2025-03-12 12h49.23.986215 +0100
,,,,27,3,2,,,,,,,,,,,,,blau,red,r,0,r,1,0.3963649,None,,,,,,,,,2,3,27,4,227.3869266,,,,,,,,,,,,,,,,,227.3715817,228.1861983,228.9853969,228.9697804,,,,,,,,,,,,,,,,,,,,,,,,,,,,,,,,,,,228.9705448,228.9853969,228.9853969,229.3870347,r,1,0.3963649,None,,,,sub-156,1,2025-03-12_12h48.17.947,stroop_test,04.02.2024,60.08431034,2025-03-12 12h49.23.986215 +0100
,,,,28,4,2,,,,,,,,,,,,,blau,blue,b,1,b,1,0.5942272,None,,,,,,,,,2,4,28,6,229.4016759,,,,,,,,,,,,,,,,,229.3875943,229.5016398,230.3009382,230.2853056,,,,,,,,,,,,,,,,,,,,,,,,,,,,,,,,,,,230.2860658,230.3009382,230.3009382,230.9024009,b,1,0.5942272,None,,,,sub-156,1,2025-03-12_12h48.17.947,stroop_test,04.02.2024,60.08431034,2025-03-12 12h49.23.986215 +0100
,,,,29,5,2,,,,,,,,,,,,,rot,blue,b,0,b,1,0.4718659,None,,,,,,,,,2,5,29,2,230.9174529,,,,,,,,,,,,,,,,,230.9029624,231.7163378,232.5159134,232.5008036,,,,,,,,,,,,,,,,,,,,,,,,,,,,,,,,,,,232.5058075,232.5159134,232.5159134,233.0002786,b,1,0.4718659,None,,,,sub-156,1,2025-03-12_12h48.17.947,stroop_test,04.02.2024,60.08431034,2025-03-12 12h49.23.986215 +0100
,,,,30,6,2,,,,,,,,,,,,,gelb,yellow,g,1,g,1,0.6447184,None,,,,,,,,,2,6,30,10,233.0157202,,,,,,,,,,,,,,,,,233.0008474,234.2141339,235.0138092,234.9978909,,,,,,,,,,,,,,,,,,,,,,,,,,,,,,,,,,,235.0035737,235.0138092,235.0138092,235.6647768,g,1,0.6447184,None,,,,sub-156,1,2025-03-12_12h48.17.947,stroop_test,04.02.2024,60.08431034,2025-03-12 12h49.23.986215 +0100
,,,,31,7,2,,,,,,,,,,,,,rot,red,r,1,r,1,0.5634001,None,,,,,,,,,2,7,31,0,235.6795841,,,,,,,,,,,,,,,,,235.6653438,236.4788072,237.2785437,237.2626372,,,,,,,,,,,,,,,,,,,,,,,,,,,,,,,,,,,237.2673986,237.2785437,237.2785437,237.8461472,r,1,0.5634001,None,,,,sub-156,1,2025-03-12_12h48.17.947,stroop_test,04.02.2024,60.08431034,2025-03-12 12h49.23.986215 +0100
,,,,32,8,2,,,,,,,,,,,,,gelb,red,r,0,r,1,0.5429019,None,,,,,,,,,2,8,32,8,237.8609065,,,,,,,,,,,,,,,,,237.8467225,239.0598687,239.8598199,239.8439732,,,,,,,,,,,,,,,,,,,,,,,,,,,,,,,,,,,239.8486878,239.8598199,239.8598199,240.4115257,r,1,0.5429019,None,,,,sub-156,1,2025-03-12_12h48.17.947,stroop_test,04.02.2024,60.08431034,2025-03-12 12h49.23.986215 +0100
,,,,33,9,2,,,,,,,,,,,,,blau,yellow,g,0,g,1,0.8896749,None,,,,,,,,,2,9,33,7,240.425265,,,,,,,,,,,,,,,,,240.4123964,241.6242394,242.4250716,242.4084422,,,,,,,,,,,,,,,,,,,,,,,,,,,,,,,,,,,242.4128217,242.4250716,242.4250716,243.327606,g,1,0.8896749,None,,,,sub-156,1,2025-03-12_12h48.17.947,stroop_test,04.02.2024,60.08431034,2025-03-12 12h49.23.986215 +0100
,,,,34,10,2,,,,,,,,,,,,,rot,yellow,g,0,g,1,0.6071065,None,,,,,,,,,2,10,34,3,243.3423384,,,,,,,,,,,,,,,,,243.3281336,244.5412232,245.3405162,245.3250348,,,,,,,,,,,,,,,,,,,,,,,,,,,,,,,,,,,245.3291741,245.3405162,245.3405162,245.959452,g,1,0.6071065,None,,,,sub-156,1,2025-03-12_12h48.17.947,stroop_test,04.02.2024,60.08431034,2025-03-12 12h49.23.986215 +0100
,,,,35,11,2,,,,,,,,,,,,,rot,red,r,1,r,1,0.8192029,None,,,,,,,,,2,11,35,1,245.9736707,,,,,,,,,,,,,,,,,245.9601422,246.772608,247.5721906,247.557798,,,,,,,,,,,,,,,,,,,,,,,,,,,,,,,,,,,247.5587603,247.5721906,247.5721906,248.4058213,r,1,0.8192029,None,,,,sub-156,1,2025-03-12_12h48.17.947,stroop_test,04.02.2024,60.08431034,2025-03-12 12h49.23.986215 +0100
,,,,36,0,3,,,,,,,,,,,,,blau,blue,b,1,b,1,1.5687095,None,,,,,,,,,3,0,36,6,248.4211642,,,,,,,,,,,,,,,,,248.4062331,248.7709599,249.5709669,249.5547245,,,,,,,,,,,,,,,,,,,,,,,,,,,,,,,,,,,249.5578289,249.5709669,249.5709669,251.1535736,b,1,1.5687095,None,,,,sub-156,1,2025-03-12_12h48.17.947,stroop_test,04.02.2024,60.08431034,2025-03-12 12h49.23.986215 +0100
,,,,37,1,3,,,,,,,,,,,,,gelb,red,r,0,r,1,0.6017484,None,,,,,,,,,3,1,37,8,251.1688257,,,,,,,,,,,,,,,,,251.1539401,252.3680274,253.1671107,253.1512436,,,,,,,,,,,,,,,,,,,,,,,,,,,,,,,,,,,253.1558473,253.1671107,253.1671107,253.785188,r,1,0.6017484,None,,,,sub-156,1,2025-03-12_12h48.17.947,stroop_test,04.02.2024,60.08431034,2025-03-12 12h49.23.986215 +0100
,,,,38,2,3,,,,,,,,,,,,,rot,red,r,1,r,1,1.0417596,None,,,,,,,,,3,2,38,0,253.8002186,,,,,,,,,,,,,,,,,253.7857481,254.5991434,255.3984616,255.3830543,,,,,,,,,,,,,,,,,,,,,,,,,,,,,,,,,,,255.3878105,255.3984616,255.3984616,256.4492649,r,1,1.0417596,None,,,,sub-156,1,2025-03-12_12h48.17.947,stroop_test,04.02.2024,60.08431034,2025-03-12 12h49.23.986215 +0100
,,,,39,3,3,,,,,,,,,,,,,gelb,yellow,g,1,g,1,0.5355965,None,,,,,,,,,3,3,39,10,256.4642451,,,,,,,,,,,,,,,,,256.4498201,256.5641586,257.3634284,257.3476182,,,,,,,,,,,,,,,,,,,,,,,,,,,,,,,,,,,257.3524066,257.3634284,257.3634284,257.9147233,g,1,0.5355965,None,,,,sub-156,1,2025-03-12_12h48.17.947,stroop_test,04.02.2024,60.08431034,2025-03-12 12h49.23.986215 +0100
,,,,40,4,3,,,,,,,,,,,,,rot,blue,b,0,b,1,1.1365015,None,,,,,,,,,3,4,40,2,257.9295409,,,,,,,,,,,,,,,,,257.9153617,258.279348,259.0920815,259.0632668,,,,,,,,,,,,,,,,,,,,,,,,,,,,,,,,,,,259.0717194,259.0920815,259.0920815,260.2430913,b,1,1.1365015,None,,,,sub-156,1,2025-03-12_12h48.17.947,stroop_test,04.02.2024,60.08431034,2025-03-12 12h49.23.986215 +0100
,,,,41,5,3,,,,,,,,,,,,,gelb,blue,b,0,b,1,0.5168172,None,,,,,,,,,3,5,41,9,260.2587741,,,,,,,,,,,,,,,,,260.2436423,260.3577567,261.1573696,261.1413555,,,,,,,,,,,,,,,,,,,,,,,,,,,,,,,,,,,261.1460235,261.1573696,261.1573696,261.6762955,b,1,0.5168172,None,,,,sub-156,1,2025-03-12_12h48.17.947,stroop_test,04.02.2024,60.08431034,2025-03-12 12h49.23.986215 +0100
,,,,42,6,3,,,,,,,,,,,,,blau,red,r,0,r,1,0.9041509,None,,,,,,,,,3,6,42,4,261.6898637,,,,,,,,,,,,,,,,,261.6768633,262.0395251,262.8391236,262.8233292,,,,,,,,,,,,,,,,,,,,,,,,,,,,,,,,,,,262.827751,262.8391236,262.8391236,263.7565024,r,1,0.9041509,None,,,,sub-156,1,2025-03-12_12h48.17.947,stroop_test,04.02.2024,60.08431034,2025-03-12 12h49.23.986215 +0100
,,,,43,7,3,,,,,,,,,,,,,rot,yellow,g,0,g,1,1.1775955,None,,,,,,,,,3,7,43,3,263.7714116,,,,,,,,,,,,,,,,,263.7570761,264.9702877,265.7699506,265.7539183,,,,,,,,,,,,,,,,,,,,,,,,,,,,,,,,,,,265.7594636,265.7699506,265.7699506,266.9538002,g,1,1.1775955,None,,,,sub-156,1,2025-03-12_12h48.17.947,stroop_test,04.02.2024,60.08431034,2025-03-12 12h49.23.986215 +0100
,,,,44,8,3,,,,,,,,,,,,,rot,red,r,1,r,1,0.9008754,None,,,,,,,,,3,8,44,1,266.9686056,,,,,,,,,,,,,,,,,266.9543503,268.1671102,268.9668412,268.9514631,,,,,,,,,,,,,,,,,,,,,,,,,,,,,,,,,,,268.9522082,268.9668412,268.9668412,269.8834886,r,1,0.9008754,None,,,,sub-156,1,2025-03-12_12h48.17.947,stroop_test,04.02.2024,60.08431034,2025-03-12 12h49.23.986215 +0100
,,,,45,9,3,,,,,,,,,,,,,blau,yellow,g,0,g,1,0.717307,None,,,,,,,,,3,9,45,7,269.8990497,,,,,,,,,,,,,,,,,269.8838549,271.0982174,271.897479,271.8819319,,,,,,,,,,,,,,,,,,,,,,,,,,,,,,,,,,,271.8861969,271.897479,271.897479,272.6319787,g,1,0.717307,None,,,,sub-156,1,2025-03-12_12h48.17.947,stroop_test,04.02.2024,60.08431034,2025-03-12 12h49.23.986215 +0100
,,,,46,10,3,,,,,,,,,,,,,gelb,yellow,g,1,g,1,0.5312722,None,,,,,,,,,3,10,46,11,272.6469329,,,,,,,,,,,,,,,,,272.63254,273.4461968,274.2457236,274.2303276,,,,,,,,,,,,,,,,,,,,,,,,,,,,,,,,,,,274.2349896,274.2457236,274.2457236,274.7795124,g,1,0.5312722,None,,,,sub-156,1,2025-03-12_12h48.17.947,stroop_test,04.02.2024,60.08431034,2025-03-12 12h49.23.986215 +0100
,,,,47,11,3,,,,,,,,,,,,,blau,blue,b,1,b,1,0.5713,None,,,,,,,,,3,11,47,5,274.7951758,,,,,,,,,,,,,,,,,274.7798833,275.1441467,275.9440778,275.9285068,,,,,,,,,,,,,,,,,,,,,,,,,,,,,,,,,,,275.9327521,275.9440778,275.9440778,276.5288604,b,1,0.5713,None,,,,sub-156,1,2025-03-12_12h48.17.947,stroop_test,04.02.2024,60.08431034,2025-03-12 12h49.23.986215 +0100
,,,,48,0,4,,,,,,,,,,,,,gelb,red,r,0,r,1,0.6934022,None,,,,,,,,,4,0,48,8,276.5433655,,,,,,,,,,,,,,,,,276.5294202,277.342436,278.1421779,278.126448,,,,,,,,,,,,,,,,,,,,,,,,,,,,,,,,,,,278.1311207,278.1421779,278.1421779,278.843155,r,1,0.6934022,None,,,,sub-156,1,2025-03-12_12h48.17.947,stroop_test,04.02.2024,60.08431034,2025-03-12 12h49.23.986215 +0100
,,,,49,1,4,,,,,,,,,,,,,blau,blue,b,1,b,1,0.5779722,None,,,,,,,,,4,1,49,6,278.8581721,,,,,,,,,,,,,,,,,278.8437211,278.9581182,279.758539,279.7417083,,,,,,,,,,,,,,,,,,,,,,,,,,,,,,,,,,,279.7478761,279.758539,279.758539,280.3450914,b,1,0.5779722,None,,,,sub-156,1,2025-03-12_12h48.17.947,stroop_test,04.02.2024,60.08431034,2025-03-12 12h49.23.986215 +0100
,,,,50,2,4,,,,,,,,,,,,,gelb,yellow,g,1,g,1,0.5583603,None,,,,,,,,,4,2,50,11,280.3597234,,,,,,,,,,,,,,,,,280.3456526,280.7095473,281.5088113,281.4934724,,,,,,,,,,,,,,,,,,,,,,,,,,,,,,,,,,,281.4982586,281.5088113,281.5088113,282.0769092,g,1,0.5583603,None,,,,sub-156,1,2025-03-12_12h48.17.947,stroop_test,04.02.2024,60.08431034,2025-03-12 12h49.23.986215 +0100
,,,,51,3,4,,,,,,,,,,,,,rot,red,r,1,r,1,1.007345,None,,,,,,,,,4,3,51,0,282.0920262,,,,,,,,,,,,,,,,,282.0774618,282.8915317,283.7068943,283.6911654,,,,,,,,,,,,,,,,,,,,,,,,,,,,,,,,,,,283.6966996,283.7068943,283.7068943,284.7248182,r,1,1.007345,None,,,,sub-156,1,2025-03-12_12h48.17.947,stroop_test,04.02.2024,60.08431034,2025-03-12 12h49.23.986215 +0100
,,,,52,4,4,,,,,,,,,,,,,rot,red,r,1,r,1,0.679047,None,,,,,,,,,4,4,52,1,284.7392887,,,,,,,,,,,,,,,,,284.7253873,285.5390443,286.3378728,286.3226839,,,,,,,,,,,,,,,,,,,,,,,,,,,,,,,,,,,286.3234455,286.3378728,286.3378728,287.0222862,r,1,0.679047,None,,,,sub-156,1,2025-03-12_12h48.17.947,stroop_test,04.02.2024,60.08431034,2025-03-12 12h49.23.986215 +0100
,,,,53,5,4,,,,,,,,,,,,,rot,blue,b,0,b,1,0.4867401,None,,,,,,,,,4,5,53,2,287.0374126,,,,,,,,,,,,,,,,,287.0228381,287.3869299,288.1863928,288.1705491,,,,,,,,,,,,,,,,,,,,,,,,,,,,,,,,,,,288.1712963,288.1863928,288.1863928,288.6876018,b,1,0.4867401,None,,,,sub-156,1,2025-03-12_12h48.17.947,stroop_test,04.02.2024,60.08431034,2025-03-12 12h49.23.986215 +0100
,,,,54,6,4,,,,,,,,,,,,,blau,blue,b,1,b,1,0.7243415,None,,,,,,,,,4,6,54,5,288.7025848,,,,,,,,,,,,,,,,,288.6881828,289.9013066,290.7009277,290.6850373,,,,,,,,,,,,,,,,,,,,,,,,,,,,,,,,,,,290.68929,290.7009277,290.7009277,291.4355537,b,1,0.7243415,None,,,,sub-156,1,2025-03-12_12h48.17.947,stroop_test,04.02.2024,60.08431034,2025-03-12 12h49.23.986215 +0100
,,,,55,7,4,,,,,,,,,,,,,gelb,yellow,g,1,g,1,0.7195394,None,,,,,,,,,4,7,55,10,291.4499851,,,,,,,,,,,,,,,,,291.4361147,291.7997681,292.5992738,292.5833965,,,,,,,,,,,,,,,,,,,,,,,,,,,,,,,,,,,292.5881396,292.5992738,292.5992738,293.3342863,g,1,0.7195394,None,,,,sub-156,1,2025-03-12_12h48.17.947,stroop_test,04.02.2024,60.08431034,2025-03-12 12h49.23.986215 +0100
,,,,56,8,4,,,,,,,,,,,,,gelb,blue,b,0,b,1,0.9716767,None,,,,,,,,,4,8,56,9,293.3486106,,,,,,,,,,,,,,,,,293.335149,293.4483134,294.2478954,294.2318762,,,,,,,,,,,,,,,,,,,,,,,,,,,,,,,,,,,294.232786,294.2478954,294.2478954,295.2320745,b,1,0.9716767,None,,,,sub-156,1,2025-03-12_12h48.17.947,stroop_test,04.02.2024,60.08431034,2025-03-12 12h49.23.986215 +0100
,,,,57,9,4,,,,,,,,,,,,,blau,yellow,g,0,g,1,0.6185127,None,,,,,,,,,4,9,57,7,295.2467407,,,,,,,,,,,,,,,,,295.2326619,295.5963202,296.3956912,296.3800132,,,,,,,,,,,,,,,,,,,,,,,,,,,,,,,,,,,296.3843118,296.3956912,296.3956912,297.0301586,g,1,0.6185127,None,,,,sub-156,1,2025-03-12_12h48.17.947,stroop_test,04.02.2024,60.08431034,2025-03-12 12h49.23.986215 +0100
,,,,58,10,4,,,,,,,,,,,,,blau,red,r,0,r,1,0.5864617,None,,,,,,,,,4,10,58,4,297.0454415,,,,,,,,,,,,,,,,,297.030713,297.8443299,298.6445028,298.6280567,,,,,,,,,,,,,,,,,,,,,,,,,,,,,,,,,,,298.62882,298.6445028,298.6445028,299.2453528,r,1,0.5864617,None,,,,sub-156,1,2025-03-12_12h48.17.947,stroop_test,04.02.2024,60.08431034,2025-03-12 12h49.23.986215 +0100
,,,,59,11,4,,,,,,,,,,,,,rot,yellow,g,0,g,1,0.5922392,None,,,,,,,,,4,11,59,3,299.2596496,,,,,,,,,,,,,,,,,299.2459023,299.3597039,300.1593676,300.1438135,,,,,,,,,,,,,,,,,,,,,,,,,,,,,,,,,,,300.1485672,300.1593676,300.1593676,300.7601483,g,1,0.5922392,None,,,,sub-156,1,2025-03-12_12h48.17.947,stroop_test,04.02.2024,60.08431034,2025-03-12 12h49.23.986215 +0100
,,,,60,0,5,,,,,,,,,,,,,blau,red,r,0,r,1,0.6944228,None,,,,,,,,,5,0,60,4,300.7755356,,,,,,,,,,,,,,,,,300.7606987,300.8750129,301.6743348,301.6591515,,,,,,,,,,,,,,,,,,,,,,,,,,,,,,,,,,,301.6633864,301.6743348,301.6743348,302.3756902,r,1,0.6944228,None,,,,sub-156,1,2025-03-12_12h48.17.947,stroop_test,04.02.2024,60.08431034,2025-03-12 12h49.23.986215 +0100
,,,,61,1,5,,,,,,,,,,,,,gelb,yellow,g,1,g,1,0.4319702,None,,,,,,,,,5,1,61,11,302.3904106,,,,,,,,,,,,,,,,,302.3762488,302.7400415,303.5395485,303.5237382,,,,,,,,,,,,,,,,,,,,,,,,,,,,,,,,,,,303.5294254,303.5395485,303.5395485,303.9742282,g,1,0.4319702,None,,,,sub-156,1,2025-03-12_12h48.17.947,stroop_test,04.02.2024,60.08431034,2025-03-12 12h49.23.986215 +0100
,,,,62,2,5,,,,,,,,,,,,,rot,red,r,1,r,1,0.526994,None,,,,,,,,,5,2,62,1,303.9889007,,,,,,,,,,,,,,,,,303.9750711,304.0888002,304.8882094,304.8725838,,,,,,,,,,,,,,,,,,,,,,,,,,,,,,,,,,,304.8772901,304.8882094,304.8882094,305.4228374,r,1,0.526994,None,,,,sub-156,1,2025-03-12_12h48.17.947,stroop_test,04.02.2024,60.08431034,2025-03-12 12h49.23.986215 +0100
,,,,63,3,5,,,,,,,,,,,,,rot,blue,b,0,b,1,0.6638832,None,,,,,,,,,5,3,63,2,305.4376499,,,,,,,,,,,,,,,,,305.423386,306.6367678,307.4361783,307.4206729,,,,,,,,,,,,,,,,,,,,,,,,,,,,,,,,,,,307.4214242,307.4361783,307.4361783,308.1042608,b,1,0.6638832,None,,,,sub-156,1,2025-03-12_12h48.17.947,stroop_test,04.02.2024,60.08431034,2025-03-12 12h49.23.986215 +0100
,,,,64,4,5,,,,,,,,,,,,,gelb,yellow,g,1,g,1,0.5225554,None,,,,,,,,,5,4,64,10,308.1186547,,,,,,,,,,,,,,,,,308.1048164,309.3178198,310.1305122,310.101337,,,,,,,,,,,,,,,,,,,,,,,,,,,,,,,,,,,310.1060099,310.1305122,310.1305122,310.6650069,g,1,0.5225554,None,,,,sub-156,1,2025-03-12_12h48.17.947,stroop_test,04.02.2024,60.08431034,2025-03-12 12h49.23.986215 +0100
,,,,65,5,5,,,,,,,,,,,,,blau,blue,b,1,b,1,0.4274601,None,,,,,,,,,5,5,65,6,310.6800636,,,,,,,,,,,,,,,,,310.6654265,311.4792659,312.2785165,312.2629535,,,,,,,,,,,,,,,,,,,,,,,,,,,,,,,,,,,312.2672599,312.2785165,312.2785165,312.7132568,b,1,0.4274601,None,,,,sub-156,1,2025-03-12_12h48.17.947,stroop_test,04.02.2024,60.08431034,2025-03-12 12h49.23.986215 +0100
,,,,66,6,5,,,,,,,,,,,,,blau,blue,b,1,b,1,0.47774,None,,,,,,,,,5,6,66,5,312.728204,,,,,,,,,,,,,,,,,312.7138132,312.8281039,313.6273804,313.6119267,,,,,,,,,,,,,,,,,,,,,,,,,,,,,,,,,,,313.6126963,313.6273804,313.6273804,314.1112491,b,1,0.47774,None,,,,sub-156,1,2025-03-12_12h48.17.947,stroop_test,04.02.2024,60.08431034,2025-03-12 12h49.23.986215 +0100
,,,,67,7,5,,,,,,,,,,,,,gelb,red,r,0,r,1,0.7915075,None,,,,,,,,,5,7,67,8,314.1267922,,,,,,,,,,,,,,,,,314.1116529,315.3259033,316.125576,316.1098347,,,,,,,,,,,,,,,,,,,,,,,,,,,,,,,,,,,316.1149712,316.125576,316.125576,316.9262083,r,1,0.7915075,None,,,,sub-156,1,2025-03-12_12h48.17.947,stroop_test,04.02.2024,60.08431034,2025-03-12 12h49.23.986215 +0100
,,,,68,8,5,,,,,,,,,,,,,gelb,blue,b,0,b,1,0.618669,None,,,,,,,,,5,8,68,9,316.9410362,,,,,,,,,,,,,,,,,316.9267592,317.0410534,317.8403136,317.8246744,,,,,,,,,,,,,,,,,,,,,,,,,,,,,,,,,,,317.8254225,317.8403136,317.8403136,318.4750658,b,1,0.618669,None,,,,sub-156,1,2025-03-12_12h48.17.947,stroop_test,04.02.2024,60.08431034,2025-03-12 12h49.23.986215 +0100
,,,,69,9,5,,,,,,,,,,,,,rot,yellow,g,0,g,1,0.497499,None,,,,,,,,,5,9,69,3,318.4902217,,,,,,,,,,,,,,,,,318.4756308,318.5896965,319.3891051,319.373288,,,,,,,,,,,,,,,,,,,,,,,,,,,,,,,,,,,319.3792761,319.3891051,319.3891051,319.8904451,g,1,0.497499,None,,,,sub-156,1,2025-03-12_12h48.17.947,stroop_test,04.02.2024,60.08431034,2025-03-12 12h49.23.986215 +0100
,,,,70,10,5,,,,,,,,,,,,,blau,yellow,g,0,g,1,0.6811273,None,,,,,,,,,5,10,70,7,319.9052689,,,,,,,,,,,,,,,,,319.8910095,320.0050747,320.8043708,320.7888609,,,,,,,,,,,,,,,,,,,,,,,,,,,,,,,,,,,320.7930946,320.8043708,320.8043708,321.4890313,g,1,0.6811273,None,,,,sub-156,1,2025-03-12_12h48.17.947,stroop_test,04.02.2024,60.08431034,2025-03-12 12h49.23.986215 +0100
,,,,71,11,5,,,,,,,,,,,,,rot,red,r,1,r,1,0.8262789,None,,,,,,,,,5,11,71,0,321.504075,,,,,,,,,,,,,,,,,321.4895879,321.8535447,322.6529964,322.6371063,,,,,,,,,,,,,,,,,,,,,,,,,,,,,,,,,,,322.6430936,322.6529964,322.6529964,323.4873492,r,1,0.8262789,None,,,,sub-156,1,2025-03-12_12h48.17.947,stroop_test,04.02.2024,60.08431034,2025-03-12 12h49.23.986215 +0100
,,,,72,0,6,,,,,,,,,,,,,blau,yellow,g,0,g,1,0.937419,None,,,,,,,,,6,0,72,7,323.5019692,,,,,,,,,,,,,,,,,323.4879014,323.8516745,324.6519373,324.635336,,,,,,,,,,,,,,,,,,,,,,,,,,,,,,,,,,,324.6396366,324.6519373,324.6519373,325.6020079,g,1,0.937419,None,,,,sub-156,1,2025-03-12_12h48.17.947,stroop_test,04.02.2024,60.08431034,2025-03-12 12h49.23.986215 +0100
,,,,73,1,6,,,,,,,,,,,,,rot,yellow,g,0,g,1,0.5409113,None,,,,,,,,,6,1,73,3,325.616796,,,,,,,,,,,,,,,,,325.6025521,326.8157422,327.615402,327.5994973,,,,,,,,,,,,,,,,,,,,,,,,,,,,,,,,,,,327.6043356,327.615402,327.615402,328.1663648,g,1,0.5409113,None,,,,sub-156,1,2025-03-12_12h48.17.947,stroop_test,04.02.2024,60.08431034,2025-03-12 12h49.23.986215 +0100
,,,,74,2,6,,,,,,,,,,,,,blau,red,r,0,r,1,1.4052845,None,,,,,,,,,6,2,74,4,328.1811806,,,,,,,,,,,,,,,,,328.1669144,328.2816239,329.096926,329.0813777,,,,,,,,,,,,,,,,,,,,,,,,,,,,,,,,,,,329.0856636,329.096926,329.096926,330.5145029,r,1,1.4052845,None,,,,sub-156,1,2025-03-12_12h48.17.947,stroop_test,04.02.2024,60.08431034,2025-03-12 12h49.23.986215 +0100
,,,,75,3,6,,,,,,,,,,,,,rot,red,r,1,r,1,0.5366205,None,,,,,,,,,6,3,75,0,330.5292907,,,,,,,,,,,,,,,,,330.5150447,331.7280763,332.5276176,332.5119403,,,,,,,,,,,,,,,,,,,,,,,,,,,,,,,,,,,332.5168031,332.5276176,332.5276176,333.078765,r,1,0.5366205,None,,,,sub-156,1,2025-03-12_12h48.17.947,stroop_test,04.02.2024,60.08431034,2025-03-12 12h49.23.986215 +0100
,,,,76,4,6,,,,,,,,,,,,,blau,blue,b,1,b,1,0.3759231,None,,,,,,,,,6,4,76,6,333.0935996,,,,,,,,,,,,,,,,,333.07932,334.2924839,335.0920315,335.0763431,,,,,,,,,,,,,,,,,,,,,,,,,,,,,,,,,,,335.0814634,335.0920315,335.0920315,335.4769389,b,1,0.3759231,None,,,,sub-156,1,2025-03-12_12h48.17.947,stroop_test,04.02.2024,60.08431034,2025-03-12 12h49.23.986215 +0100
,,,,77,5,6,,,,,,,,,,,,,rot,red,r,1,r,1,0.8797671,None,,,,,,,,,6,5,77,1,335.4915299,,,,,,,,,,,,,,,,,335.4775077,335.5916966,336.39088,336.3750481,,,,,,,,,,,,,,,,,,,,,,,,,,,,,,,,,,,336.3798021,336.39088,336.39088,337.275591,r,1,0.8797671,None,,,,sub-156,1,2025-03-12_12h48.17.947,stroop_test,04.02.2024,60.08431034,2025-03-12 12h49.23.986215 +0100
,,,,78,6,6,,,,,,,,,,,,,gelb,red,r,0,r,1,0.8345009,None,,,,,,,,,6,6,78,8,337.2897783,,,,,,,,,,,,,,,,,337.2761695,337.6399834,338.4563035,338.440245,,,,,,,,,,,,,,,,,,,,,,,,,,,,,,,,,,,338.4450795,338.4563035,338.4563035,339.3070828,r,1,0.8345009,None,,,,sub-156,1,2025-03-12_12h48.17.947,stroop_test,04.02.2024,60.08431034,2025-03-12 12h49.23.986215 +0100
,,,,79,7,6,,,,,,,,,,,,,gelb,blue,b,0,b,1,0.6546762,None,,,,,,,,,6,7,79,9,339.3222262,,,,,,,,,,,,,,,,,339.3076868,339.6709435,340.4705172,340.4547621,,,,,,,,,,,,,,,,,,,,,,,,,,,,,,,,,,,340.4555075,340.4705172,340.4705172,341.1384656,b,1,0.6546762,None,,,,sub-156,1,2025-03-12_12h48.17.947,stroop_test,04.02.2024,60.08431034,2025-03-12 12h49.23.986215 +0100
,,,,80,8,6,,,,,,,,,,,,,gelb,yellow,g,1,g,1,0.5092814,None,,,,,,,,,6,8,80,11,341.1537159,,,,,,,,,,,,,,,,,341.1390161,341.9523391,342.7517086,342.7361255,,,,,,,,,,,,,,,,,,,,,,,,,,,,,,,,,,,342.7368862,342.7517086,342.7517086,343.2699895,g,1,0.5092814,None,,,,sub-156,1,2025-03-12_12h48.17.947,stroop_test,04.02.2024,60.08431034,2025-03-12 12h49.23.986215 +0100
,,,,81,9,6,,,,,,,,,,,,,blau,blue,b,1,b,1,0.4996631,None,,,,,,,,,6,9,81,5,343.2843393,,,,,,,,,,,,,,,,,343.2703588,344.0838521,344.8838236,344.8675774,,,,,,,,,,,,,,,,,,,,,,,,,,,,,,,,,,,344.8728387,344.8838236,344.8838236,345.4010183,b,1,0.4996631,None,,,,sub-156,1,2025-03-12_12h48.17.947,stroop_test,04.02.2024,60.08431034,2025-03-12 12h49.23.986215 +0100
,,,,82,10,6,,,,,,,,,,,,,rot,blue,b,0,b,1,0.6144313,None,,,,,,,,,6,10,82,2,345.4165533,,,,,,,,,,,,,,,,,345.4015861,346.2153339,347.014704,346.9989667,,,,,,,,,,,,,,,,,,,,,,,,,,,,,,,,,,,347.0037266,347.014704,347.014704,347.6327083,b,1,0.6144313,None,,,,sub-156,1,2025-03-12_12h48.17.947,stroop_test,04.02.2024,60.08431034,2025-03-12 12h49.23.986215 +0100
,,,,83,11,6,,,,,,,,,,,,,gelb,yellow,g,1,g,1,0.6078314,None,,,,,,,,,6,11,83,10,347.6474816,,,,,,,,,,,,,,,,,347.6332617,347.9971956,348.7964674,348.7806968,,,,,,,,,,,,,,,,,,,,,,,,,,,,,,,,,,,348.7854386,348.7964674,348.7964674,349.4143488,g,1,0.6078314,None,,,,sub-156,1,2025-03-12_12h48.17.947,stroop_test,04.02.2024,60.08431034,2025-03-12 12h49.23.986215 +0100
,,,,84,0,7,,,,,,,,,,,,,blau,yellow,g,0,g,1,0.5906583,None,,,,,,,,,7,0,84,7,349.4291789,,,,,,,,,,,,,,,,,349.4149119,350.6281549,351.4276013,351.4118566,,,,,,,,,,,,,,,,,,,,,,,,,,,,,,,,,,,351.4169008,351.4276013,351.4276013,352.028921,g,1,0.5906583,None,,,,sub-156,1,2025-03-12_12h48.17.947,stroop_test,04.02.2024,60.08431034,2025-03-12 12h49.23.986215 +0100
,,,,85,1,7,,,,,,,,,,,,,rot,blue,b,0,b,1,0.9589897,None,,,,,,,,,7,1,85,2,352.0441287,,,,,,,,,,,,,,,,,352.0294716,353.2424465,354.0425435,354.0266338,,,,,,,,,,,,,,,,,,,,,,,,,,,,,,,,,,,354.0314234,354.0425435,354.0425435,355.0093539,b,1,0.9589897,None,,,,sub-156,1,2025-03-12_12h48.17.947,stroop_test,04.02.2024,60.08431034,2025-03-12 12h49.23.986215 +0100
,,,,86,2,7,,,,,,,,,,,,,gelb,yellow,g,1,g,1,0.5477618,None,,,,,,,,,7,2,86,11,355.0241995,,,,,,,,,,,,,,,,,355.0099067,355.3745089,356.1902689,356.1741981,,,,,,,,,,,,,,,,,,,,,,,,,,,,,,,,,,,356.1788826,356.1902689,356.1902689,356.7444256,g,1,0.5477618,None,,,,sub-156,1,2025-03-12_12h48.17.947,stroop_test,04.02.2024,60.08431034,2025-03-12 12h49.23.986215 +0100
,,,,87,3,7,,,,,,,,,,,,,gelb,blue,b,0,b,1,0.6681718,None,,,,,,,,,7,3,87,9,356.7589586,,,,,,,,,,,,,,,,,356.7449881,356.8592569,357.6583632,357.6427085,,,,,,,,,,,,,,,,,,,,,,,,,,,,,,,,,,,357.643453,357.6583632,357.6583632,358.3428049,b,1,0.6681718,None,,,,sub-156,1,2025-03-12_12h48.17.947,stroop_test,04.02.2024,60.08431034,2025-03-12 12h49.23.986215 +0100
,,,,88,4,7,,,,,,,,,,,,,blau,red,r,0,r,1,0.4875513,None,,,,,,,,,7,4,88,4,358.3578981,,,,,,,,,,,,,,,,,358.343358,359.1570748,359.9562892,359.9406809,,,,,,,,,,,,,,,,,,,,,,,,,,,,,,,,,,,359.9452828,359.9562892,359.9562892,360.4575395,r,1,0.4875513,None,,,,sub-156,1,2025-03-12_12h48.17.947,stroop_test,04.02.2024,60.08431034,2025-03-12 12h49.23.986215 +0100
,,,,89,5,7,,,,,,,,,,,,,rot,red,r,1,r,1,0.563612,None,,,,,,,,,7,5,89,1,360.4723426,,,,,,,,,,,,,,,,,360.4581528,361.6714709,362.4710501,362.4551361,,,,,,,,,,,,,,,,,,,,,,,,,,,,,,,,,,,362.4598527,362.4710501,362.4710501,363.0389602,r,1,0.563612,None,,,,sub-156,1,2025-03-12_12h48.17.947,stroop_test,04.02.2024,60.08431034,2025-03-12 12h49.23.986215 +0100
,,,,90,6,7,,,,,,,,,,,,,gelb,red,r,0,r,1,0.4036825,None,,,,,,,,,7,6,90,8,363.0534232,,,,,,,,,,,,,,,,,363.039518,363.8528006,364.652133,364.6367463,,,,,,,,,,,,,,,,,,,,,,,,,,,,,,,,,,,364.6414466,364.652133,364.652133,365.0704262,r,1,0.4036825,None,,,,sub-156,1,2025-03-12_12h48.17.947,stroop_test,04.02.2024,60.08431034,2025-03-12 12h49.23.986215 +0100
,,,,91,7,7,,,,,,,,,,,,,rot,red,r,1,r,1,0.5868986,None,,,,,,,,,7,7,91,0,365.0848792,,,,,,,,,,,,,,,,,365.0709915,365.1852867,365.998342,365.9689612,,,,,,,,,,,,,,,,,,,,,,,,,,,,,,,,,,,365.9764047,365.998342,365.998342,366.5991602,r,1,0.5868986,None,,,,sub-156,1,2025-03-12_12h48.17.947,stroop_test,04.02.2024,60.08431034,2025-03-12 12h49.23.986215 +0100
,,,,92,8,7,,,,,,,,,,,,,blau,blue,b,1,b,1,0.6048296,None,,,,,,,,,7,8,92,5,366.6139488,,,,,,,,,,,,,,,,,366.5997253,366.9637072,367.7629838,367.7476847,,,,,,,,,,,,,,,,,,,,,,,,,,,,,,,,,,,367.7519321,367.7629838,367.7629838,368.3808802,b,1,0.6048296,None,,,,sub-156,1,2025-03-12_12h48.17.947,stroop_test,04.02.2024,60.08431034,2025-03-12 12h49.23.986215 +0100
,,,,93,9,7,,,,,,,,,,,,,blau,blue,b,1,b,1,0.6044906,None,,,,,,,,,7,9,93,6,368.3958486,,,,,,,,,,,,,,,,,368.3814322,368.7453775,369.5447629,369.5292604,,,,,,,,,,,,,,,,,,,,,,,,,,,,,,,,,,,369.5300101,369.5447629,369.5447629,370.1629632,b,1,0.6044906,None,,,,sub-156,1,2025-03-12_12h48.17.947,stroop_test,04.02.2024,60.08431034,2025-03-12 12h49.23.986215 +0100
,,,,94,10,7,,,,,,,,,,,,,rot,yellow,g,0,g,1,0.5885614,None,,,,,,,,,7,10,94,3,370.1782342,,,,,,,,,,,,,,,,,370.1635154,370.2774024,371.0933471,371.0615457,,,,,,,,,,,,,,,,,,,,,,,,,,,,,,,,,,,371.0697208,371.0933471,371.0933471,371.6946,g,1,0.5885614,None,,,,sub-156,1,2025-03-12_12h48.17.947,stroop_test,04.02.2024,60.08431034,2025-03-12 12h49.23.986215 +0100
,,,,95,11,7,,,,,,,,,,,,,gelb,yellow,g,1,g,1,0.5731299,None,,,,,,,,,7,11,95,10,371.7096855,,,,,,,,,,,,,,,,,371.6951641,371.80936,372.608956,372.5932579,,,,,,,,,,,,,,,,,,,,,,,,,,,,,,,,,,,372.5989068,372.608956,372.608956,373.1946108,g,1,0.5731299,None,,,,sub-156,1,2025-03-12_12h48.17.947,stroop_test,04.02.2024,60.08431034,2025-03-12 12h49.23.986215 +0100
,,,,96,0,8,,,,,,,,,,,,,blau,blue,b,1,b,1,0.6984784,None,,,,,,,,,8,0,96,6,373.2084869,,,,,,,,,,,,,,,,,373.1952847,373.3080834,374.1073484,374.0917501,,,,,,,,,,,,,,,,,,,,,,,,,,,,,,,,,,,374.0961827,374.1073484,374.1073484,374.808642,b,1,0.6984784,None,,,,sub-156,1,2025-03-12_12h48.17.947,stroop_test,04.02.2024,60.08431034,2025-03-12 12h49.23.986215 +0100
,,,,97,1,8,,,,,,,,,,,,,gelb,yellow,g,1,g,1,0.6402891,None,,,,,,,,,8,1,97,10,374.823559,,,,,,,,,,,,,,,,,374.8091973,374.923248,375.7226566,375.7069299,,,,,,,,,,,,,,,,,,,,,,,,,,,,,,,,,,,375.7116435,375.7226566,375.7226566,376.3741732,g,1,0.6402891,None,,,,sub-156,1,2025-03-12_12h48.17.947,stroop_test,04.02.2024,60.08431034,2025-03-12 12h49.23.986215 +0100
,,,,98,2,8,,,,,,,,,,,,,blau,blue,b,1,b,1,0.5524459,None,,,,,,,,,8,2,98,5,376.3886016,,,,,,,,,,,,,,,,,376.3750913,377.5876149,378.3871298,378.3714252,,,,,,,,,,,,,,,,,,,,,,,,,,,,,,,,,,,378.3763968,378.3871298,378.3871298,378.9545846,b,1,0.5524459,None,,,,sub-156,1,2025-03-12_12h48.17.947,stroop_test,04.02.2024,60.08431034,2025-03-12 12h49.23.986215 +0100
,,,,99,3,8,,,,,,,,,,,,,rot,yellow,g,0,g,1,1.1113095,None,,,,,,,,,8,3,99,3,378.9697916,,,,,,,,,,,,,,,,,378.9551411,379.3199334,380.1353334,380.1193278,,,,,,,,,,,,,,,,,,,,,,,,,,,,,,,,,,,380.1223447,380.1353334,380.1353334,381.2535641,g,1,1.1113095,None,,,,sub-156,1,2025-03-12_12h48.17.947,stroop_test,04.02.2024,60.08431034,2025-03-12 12h49.23.986215 +0100
,,,,100,4,8,,,,,,,,,,,,,rot,red,r,1,r,1,0.9825192,None,,,,,,,,,8,4,100,0,381.2676864,,,,,,,,,,,,,,,,,381.2541259,382.0673356,382.8834483,382.8675501,,,,,,,,,,,,,,,,,,,,,,,,,,,,,,,,,,,382.8683528,382.8834483,382.8834483,383.8678806,r,1,0.9825192,None,,,,sub-156,1,2025-03-12_12h48.17.947,stroop_test,04.02.2024,60.08431034,2025-03-12 12h49.23.986215 +0100
,,,,101,5,8,,,,,,,,,,,,,rot,red,r,1,r,1,0.4845658,None,,,,,,,,,8,5,101,1,383.8820647,,,,,,,,,,,,,,,,,383.8684528,384.6814007,385.4809265,385.4652207,,,,,,,,,,,,,,,,,,,,,,,,,,,,,,,,,,,385.466555,385.4809265,385.4809265,385.9820203,r,1,0.4845658,None,,,,sub-156,1,2025-03-12_12h48.17.947,stroop_test,04.02.2024,60.08431034,2025-03-12 12h49.23.986215 +0100
,,,,102,6,8,,,,,,,,,,,,,rot,blue,b,0,b,1,0.5271423,None,,,,,,,,,8,6,102,2,385.996848,,,,,,,,,,,,,,,,,385.9825643,386.3465218,387.1458202,387.1301907,,,,,,,,,,,,,,,,,,,,,,,,,,,,,,,,,,,387.1309323,387.1458202,387.1458202,387.6804491,b,1,0.5271423,None,,,,sub-156,1,2025-03-12_12h48.17.947,stroop_test,04.02.2024,60.08431034,2025-03-12 12h49.23.986215 +0100
,,,,103,7,8,,,,,,,,,,,,,gelb,blue,b,0,b,1,0.5554497,None,,,,,,,,,8,7,103,9,387.6953238,,,,,,,,,,,,,,,,,387.6810002,388.8943213,389.6938417,389.6780565,,,,,,,,,,,,,,,,,,,,,,,,,,,,,,,,,,,389.6831036,389.6938417,389.6938417,390.2618135,b,1,0.5554497,None,,,,sub-156,1,2025-03-12_12h48.17.947,stroop_test,04.02.2024,60.08431034,2025-03-12 12h49.23.986215 +0100
,,,,104,8,8,,,,,,,,,,,,,blau,red,r,0,r,1,0.6353306,None,,,,,,,,,8,8,104,4,390.2763583,,,,,,,,,,,,,,,,,390.2623696,390.3764799,391.1756061,391.1599741,,,,,,,,,,,,,,,,,,,,,,,,,,,,,,,,,,,391.1642089,391.1756061,391.1756061,391.8269866,r,1,0.6353306,None,,,,sub-156,1,2025-03-12_12h48.17.947,stroop_test,04.02.2024,60.08431034,2025-03-12 12h49.23.986215 +0100
,,,,105,9,8,,,,,,,,,,,,,gelb,red,r,0,r,1,0.4984791,None,,,,,,,,,8,9,105,8,391.8419155,,,,,,,,,,,,,,,,,391.8275431,391.9416056,392.7411043,392.725409,,,,,,,,,,,,,,,,,,,,,,,,,,,,,,,,,,,392.7302006,392.7411043,392.7411043,393.2425829,r,1,0.4984791,None,,,,sub-156,1,2025-03-12_12h48.17.947,stroop_test,04.02.2024,60.08431034,2025-03-12 12h49.23.986215 +0100
,,,,106,10,8,,,,,,,,,,,,,gelb,yellow,g,1,g,1,0.5315387,None,,,,,,,,,8,10,106,11,393.2571327,,,,,,,,,,,,,,,,,393.2431557,394.056406,394.8557029,394.8402423,,,,,,,,,,,,,,,,,,,,,,,,,,,,,,,,,,,394.8410538,394.8557029,394.8557029,395.3913288,g,1,0.5315387,None,,,,sub-156,1,2025-03-12_12h48.17.947,stroop_test,04.02.2024,60.08431034,2025-03-12 12h49.23.986215 +0100
,,,,107,11,8,,,,,,,,,,,,,blau,yellow,g,0,g,1,0.4216014,None,,,,,,,,,8,11,107,7,395.4052545,,,,,,,,,,,,,,,,,395.3918873,395.7544556,396.5544441,396.5386356,,,,,,,,,,,,,,,,,,,,,,,,,,,,,,,,,,,396.5436637,396.5544441,396.5544441,396.9889708,g,1,0.4216014,None,,,,sub-156,1,2025-03-12_12h48.17.947,stroop_test,04.02.2024,60.08431034,2025-03-12 12h49.23.986215 +0100
,,,,108,0,9,,,,,,,,,,,,,gelb,red,r,0,r,1,0.5094929,None,,,,,,,,,9,0,108,8,397.0041911,,,,,,,,,,,,,,,,,396.9895319,397.3534937,398.1528732,398.1371413,,,,,,,,,,,,,,,,,,,,,,,,,,,,,,,,,,,398.1418984,398.1528732,398.1528732,398.6709103,r,1,0.5094929,None,,,,sub-156,1,2025-03-12_12h48.17.947,stroop_test,04.02.2024,60.08431034,2025-03-12 12h49.23.986215 +0100
,,,,109,1,9,,,,,,,,,,,,,blau,yellow,g,0,g,1,0.7749711,None,,,,,,,,,9,1,109,7,398.6859607,,,,,,,,,,,,,,,,,398.6714645,399.4849589,400.2844535,400.2686164,,,,,,,,,,,,,,,,,,,,,,,,,,,,,,,,,,,400.2728683,400.2844535,400.2844535,401.0697815,g,1,0.7749711,None,,,,sub-156,1,2025-03-12_12h48.17.947,stroop_test,04.02.2024,60.08431034,2025-03-12 12h49.23.986215 +0100
,,,,110,2,9,,,,,,,,,,,,,gelb,blue,b,0,b,1,0.6303728,None,,,,,,,,,9,2,110,9,401.0835,,,,,,,,,,,,,,,,,401.070366,401.4332818,402.2326925,402.2168714,,,,,,,,,,,,,,,,,,,,,,,,,,,,,,,,,,,402.2218135,402.2326925,402.2326925,402.8671937,b,1,0.6303728,None,,,,sub-156,1,2025-03-12_12h48.17.947,stroop_test,04.02.2024,60.08431034,2025-03-12 12h49.23.986215 +0100
,,,,111,3,9,,,,,,,,,,,,,blau,red,r,0,r,1,0.611064,None,,,,,,,,,9,3,111,4,402.8819747,,,,,,,,,,,,,,,,,402.8677471,404.0808995,404.8800948,404.8644929,,,,,,,,,,,,,,,,,,,,,,,,,,,,,,,,,,,404.8687433,404.8800948,404.8800948,405.4981802,r,1,0.611064,None,,,,sub-156,1,2025-03-12_12h48.17.947,stroop_test,04.02.2024,60.08431034,2025-03-12 12h49.23.986215 +0100
,,,,112,4,9,,,,,,,,,,,,,gelb,yellow,g,1,g,1,0.5560459,None,,,,,,,,,9,4,112,10,405.5128997,,,,,,,,,,,,,,,,,405.498745,405.8626134,406.662257,406.6465221,,,,,,,,,,,,,,,,,,,,,,,,,,,,,,,,,,,406.6512131,406.662257,406.662257,407.2303163,g,1,0.5560459,None,,,,sub-156,1,2025-03-12_12h48.17.947,stroop_test,04.02.2024,60.08431034,2025-03-12 12h49.23.986215 +0100
,,,,113,5,9,,,,,,,,,,,,,blau,blue,b,1,b,1,0.5455977,None,,,,,,,,,9,5,113,6,407.2449483,,,,,,,,,,,,,,,,,407.2308682,408.0440994,408.8432891,408.8277289,,,,,,,,,,,,,,,,,,,,,,,,,,,,,,,,,,,408.8319789,408.8432891,408.8432891,409.394636,b,1,0.5455977,None,,,,sub-156,1,2025-03-12_12h48.17.947,stroop_test,04.02.2024,60.08431034,2025-03-12 12h49.23.986215 +0100
,,,,114,6,9,,,,,,,,,,,,,rot,red,r,1,r,1,0.8899266,None,,,,,,,,,9,6,114,1,409.4095159,,,,,,,,,,,,,,,,,409.3951924,409.7592039,410.5594537,410.5429632,,,,,,,,,,,,,,,,,,,,,,,,,,,,,,,,,,,410.548449,410.5594537,410.5594537,411.4594453,r,1,0.8899266,None,,,,sub-156,1,2025-03-12_12h48.17.947,stroop_test,04.02.2024,60.08431034,2025-03-12 12h49.23.986215 +0100
,,,,115,7,9,,,,,,,,,,,,,rot,yellow,g,0,g,1,0.6003754,None,,,,,,,,,9,7,115,3,411.4743954,,,,,,,,,,,,,,,,,411.4600047,411.5744706,412.3739494,412.357944,,,,,,,,,,,,,,,,,,,,,,,,,,,,,,,,,,,412.3587014,412.3739494,412.3739494,412.9914415,g,1,0.6003754,None,,,,sub-156,1,2025-03-12_12h48.17.947,stroop_test,04.02.2024,60.08431034,2025-03-12 12h49.23.986215 +0100
,,,,116,8,9,,,,,,,,,,,,,rot,blue,b,0,b,1,0.434648,None,,,,,,,,,9,8,116,2,413.0063536,,,,,,,,,,,,,,,,,412.9919868,414.2052513,415.0045783,414.9889275,,,,,,,,,,,,,,,,,,,,,,,,,,,,,,,,,,,414.9896771,415.0045783,415.0045783,415.4559977,b,1,0.434648,None,,,,sub-156,1,2025-03-12_12h48.17.947,stroop_test,04.02.2024,60.08431034,2025-03-12 12h49.23.986215 +0100
,,,,117,9,9,,,,,,,,,,,,,rot,red,r,1,r,1,0.7627379,None,,,,,,,,,9,9,117,0,415.4708835,,,,,,,,,,,,,,,,,415.4565639,415.8207182,416.619864,416.6042311,,,,,,,,,,,,,,,,,,,,,,,,,,,,,,,,,,,416.6049854,416.619864,416.619864,417.387721,r,1,0.7627379,None,,,,sub-156,1,2025-03-12_12h48.17.947,stroop_test,04.02.2024,60.08431034,2025-03-12 12h49.23.986215 +0100
,,,,118,10,9,,,,,,,,,,,,,blau,blue,b,1,b,1,0.5105824,None,,,,,,,,,9,10,118,5,417.4025696,,,,,,,,,,,,,,,,,417.388286,418.2020265,419.0013837,418.9855638,,,,,,,,,,,,,,,,,,,,,,,,,,,,,,,,,,,418.9900669,419.0013837,419.0013837,419.5189849,b,1,0.5105824,None,,,,sub-156,1,2025-03-12_12h48.17.947,stroop_test,04.02.2024,60.08431034,2025-03-12 12h49.23.986215 +0100
,,,,119,11,9,,,,,,,,,,,,,gelb,yellow,g,1,g,1,0.7626137,None,,,,,,,,,9,11,119,11,419.5338687,,,,,,,,,,,,,,,,,419.519544,419.6339875,420.4351666,420.4185658,,,,,,,,,,,,,,,,,,,,,,,,,,,,,,,,,,,420.4253885,420.4351666,420.4351666,421.2042897,g,1,0.7626137,None,,,,sub-156,1,2025-03-12_12h48.17.947,stroop_test,04.02.2024,60.08431034,2025-03-12 12h49.23.986215 +0100
,,,,,,,,,,,,,,,,,,,,,,,,,,,,,,,,,,,,,,,,,,,,,,,,,,,,,,,,,,,,,,,,,,,,,,,,,,,,,,,,,,,,,,,,,,,,,,,,,,,,,,421.2046209,421.219158,426.214657,sub-156,1,2025-03-12_12h48.17.947,stroop_test,04.02.2024,60.08431034,2025-03-12 12h49.23.986215 +0100
