direction,corrAns,thisN,thisTrialN,thisRepN,respDots.keys,respDots.corr,respDots.rt,respDots.duration,randomInstr,respRandomInstr.keys,respRandomInstr.rt,respRandomInstr.duration,practice_trials.thisRepN,practice_trials.thisTrialN,practice_trials.thisN,practice_trials.thisIndex,instr_trials.thisRepN,instr_trials.thisTrialN,instr_trials.thisN,instr_trials.thisIndex,test_trials.thisRepN,test_trials.thisTrialN,test_trials.thisN,test_trials.thisIndex,thisRow.t,notes,general_instruction.started,textGeneralInstr.started,respGeneralInstr.started,general_instruction.stopped,respGeneralInstr.keys,respGeneralInstr.rt,respGeneralInstr.duration,ITI.started,fixcross.started,fixcross.stopped,ITI.stopped,dots.started,backgroundDots.started,stimulusDots.started,respDots.started,dots.stopped,practice_trials.respDots.keys,practice_trials.respDots.corr,practice_trials.respDots.rt,practice_trials.respDots.duration,feedback.started,textFeedback.started,feedback.stopped,textFeedback.stopped,info.started,textInfo.started,keyRespInfo.started,info.stopped,keyRespInfo.keys,keyRespInfo.rt,keyRespInfo.duration,test_instruction.started,textTestInstr.started,respTestInstr.started,test_instruction.stopped,respTestInstr.keys,respTestInstr.rt,respTestInstr.duration,random_instruction.started,textRandomInstr.started,respRandomInstr.started,random_instruction.stopped,instr_trials.respRandomInstr.keys,instr_trials.respRandomInstr.rt,instr_trials.respRandomInstr.duration,test_trials.respDots.keys,test_trials.respDots.corr,test_trials.respDots.rt,test_trials.respDots.duration,stimulusDots.stopped,goodbye.started,textGoodbye.started,goodbye.stopped,participant,session,expName,frameRate,Unnamed: 87
,,,,,,,,,,,,,,,,,,,,,,,,,,,0.0130704339999283,0.0363082999997459,0.0363082999997459,1.5893582999997309,space,1.5278152639998552,,,,,,,,,,,,,,,,,,,,,,,,,,,,,,,,,,,,,,,,,,,,,,,,sub-062,1,random_dot,59.60465792048754,
right,right,0.0,0.0,0.0,right,1.0,2.3387161320001724,,,,,,0.0,0.0,0.0,1.0,,,,,,,,,1.6202473250000369,,,,,,,,,1.5983529739996811,2.792376389999845,3.603126831999816,3.577854577999915,3.578296235999914,3.603126831999816,3.603126831999816,3.603126831999816,5.949542645999827,right,1.0,2.3387161320001724,,5.959008684999844,5.994884924999951,6.465789935999965,,,,,,,,,,,,,,,,,,,,,,,,,,,,,,,sub-062,1,random_dot,59.60465792048754,
left,left,1.0,1.0,0.0,left,1.0,1.4448948479998762,,,,,,0.0,1.0,1.0,0.0,,,,,,,,,6.480504325999846,,,,,,,,,6.466081537999799,6.812257102999865,7.631056276999971,7.61186635499962,7.6121690549998675,7.631056276999971,7.631056276999971,7.631056276999971,9.08540858599963,left,1.0,1.4448948479998762,,9.08557767000002,9.100168455999665,9.59539919200006,,,,,,,,,,,,,,,,,,,,,,,,,,,,,,,sub-062,1,random_dot,59.60465792048754,
left,left,2.0,0.0,1.0,right,0.0,0.7358760810002423,,,,,,1.0,0.0,2.0,0.0,,,,,,,,,9.611955231999673,,,,,,,,,9.595766431999891,9.695317917000011,10.498451845999623,10.480227761999686,10.480527666999931,10.498451845999623,10.498451845999623,10.498451845999623,11.251133542999924,right,0.0,0.7358760810002423,,11.258162243999775,11.27093993499966,11.763186603999657,,,,,,,,,,,,,,,,,,,,,,,,,,,,,,,sub-062,1,random_dot,59.60465792048754,
right,right,3.0,1.0,1.0,right,1.0,1.596132158999808,,,,,,1.0,1.0,3.0,1.0,,,,,,,,,11.7796610649998,,,,,,,,,11.763450513999942,11.863126724999802,12.665953958000046,12.647612065999963,12.647898457999872,12.665953958000046,12.665953958000046,12.665953958000046,14.286688263999622,right,1.0,1.596132158999808,,14.28943361599977,14.30006461899984,14.79788398599976,,,,,,,,,,,,,,,,,,,,,,,,,,,,,,,sub-062,1,random_dot,59.60465792048754,
right,right,4.0,0.0,2.0,right,1.0,1.5704621459999544,,,,,,2.0,0.0,4.0,1.0,,,,,,,,,14.814944837999974,,,,,,,,,14.798152761999972,14.897698829999626,15.69866960399986,15.68206532899967,15.682339820999914,15.69866960399986,15.69866960399986,15.69866960399986,17.287064451999868,right,1.0,1.5704621459999544,,17.28715986899988,17.30212152599961,17.79935502599983,,,,,,,,,,,,,,,,,,,,,,,,,,,,,,,sub-062,1,random_dot,59.60465792048754,
left,left,5.0,1.0,2.0,left,1.0,1.0299403579997488,,,,,,2.0,1.0,5.0,0.0,,,,,,,,,17.81605833200001,,,,,,,,,17.79962392399966,18.99982551799985,19.8022233329998,19.784061946999827,19.7843473009998,19.8022233329998,19.8022233329998,19.8022233329998,20.83548164800004,left,1.0,1.0299403579997488,,20.83558642699973,20.850333156000037,21.33480470599989,21.35091501099987,,,,,,,,,,,,,,,,,,,,,,,,,,,,,,sub-062,1,random_dot,59.60465792048754,
right,right,6.0,0.0,3.0,right,1.0,1.5130723209999817,,,,,,3.0,0.0,6.0,1.0,,,,,,,,,21.35091501099987,,,,,,,,,21.33505267800001,21.70108970000001,22.503596821999963,22.485365375999663,22.48564788999965,22.503596821999963,22.503596821999963,22.503596821999963,24.02032370500001,right,1.0,1.5130723209999817,,24.02041705199963,24.034556474000052,24.51968382699988,24.535763883999607,,,,,,,,,,,,,,,,,,,,,,,,,,,,,,sub-062,1,random_dot,59.60465792048754,
left,left,7.0,1.0,3.0,left,1.0,1.181804940999882,,,,,,3.0,1.0,7.0,0.0,,,,,,,,,24.535763883999607,,,,,,,,,24.51992640899971,25.319480032999763,26.12184218099992,26.10365357000001,26.103926293999848,26.12184218099992,26.12184218099992,26.12184218099992,27.315712489999896,left,1.0,1.181804940999882,,27.315813737999637,27.328363300999627,27.82127329800005,,,,,,,,,,,,,,,,,,,,,,,,,,,,,,,sub-062,1,random_dot,59.60465792048754,
left,left,8.0,0.0,4.0,right,0.0,1.9367321919999083,,,,,,4.0,0.0,8.0,0.0,,,,,,,,,27.838157569000032,,,,,,,,,27.821517085999854,29.021333530999986,29.823654932999943,29.805457085999933,29.805723987999954,29.823654932999943,29.823654932999943,29.823654932999943,31.781573125999785,right,0.0,1.9367321919999083,,31.785537230000045,31.79759048400001,32.289666289999786,,,,,,,,,,,,,,,,,,,,,,,,,,,,,,,sub-062,1,random_dot,59.60465792048754,
right,right,9.0,1.0,4.0,right,1.0,1.8192261839999448,,,,,,4.0,1.0,9.0,1.0,,,,,,,,,32.30609225599983,,,,,,,,,32.28995269699999,33.08985020199998,33.89362749899965,33.87400079300005,33.874338857999646,33.89362749899965,33.89362749899965,33.89362749899965,35.72500330699995,right,1.0,1.8192261839999448,,35.72783411199998,35.74471632699988,36.241437934999794,,,,,,,,,,,,,,,,,,,,,,,,,,,,,,,sub-062,1,random_dot,59.60465792048754,
right,right,10.0,0.0,5.0,right,1.0,0.9875916620003408,,,,,,5.0,0.0,10.0,1.0,,,,,,,,,36.258049969999774,,,,,,,,,36.24170204899974,37.42507196099996,38.225959146999685,38.20944152999982,38.20973358099991,38.225959146999685,38.225959146999685,38.225959146999685,39.234868861,right,1.0,0.9875916620003408,,39.23512191199961,39.24844455399989,39.742918632000055,,,,,,,,,,,,,,,,,,,,,,,,,,,,,,,sub-062,1,random_dot,59.60465792048754,
left,left,11.0,1.0,5.0,left,1.0,0.7614983009998468,,,,,,5.0,1.0,11.0,0.0,,,,,,,,,39.75958617399965,,,,,,,,,39.74317501399992,40.543385041999954,41.34585642000002,41.327656158999616,41.32794581400003,41.34585642000002,41.34585642000002,41.34585642000002,42.12859602299977,left,1.0,0.7614983009998468,,42.12869088399975,42.139853011000014,42.628125098000055,42.64427757299973,,,,,,,,,,,,,,,,,,,,,,,,,,,,,,sub-062,1,random_dot,59.60465792048754,
left,left,12.0,0.0,6.0,left,1.0,1.0616372199997386,,,,,,6.0,0.0,12.0,0.0,,,,,,,,,42.64427757299973,,,,,,,,,42.628366706999714,43.428110080999886,44.23103184399997,44.21262392899962,44.21291190399961,44.23103184399997,44.23103184399997,44.23103184399997,45.30944516599993,left,1.0,1.0616372199997386,,45.30953981099992,45.3215753479999,45.81263833899993,,,,,,,,,,,,,,,,,,,,,,,,,,,,,,,sub-062,1,random_dot,59.60465792048754,
right,right,13.0,1.0,6.0,left,0.0,0.981384466000236,,,,,,6.0,1.0,13.0,1.0,,,,,,,,,45.82927351799981,,,,,,,,,45.81298095600005,47.01305090999995,47.81513621499971,47.79699017799976,47.797265047999645,47.81513621499971,47.81513621499971,47.81513621499971,48.8166464599999,left,0.0,0.981384466000236,,48.81940208699962,48.83310141099992,49.33102244099973,,,,,,,,,,,,,,,,,,,,,,,,,,,,,,,sub-062,1,random_dot,59.60465792048754,
right,right,14.0,0.0,7.0,right,1.0,4.850439572000141,,,,,,7.0,0.0,14.0,1.0,,,,,,,,,49.34600104099991,,,,,,,,,49.33135134700024,50.5318359060002,51.33387318199948,51.31566070499957,51.31594836000022,51.33387318199948,51.33387318199948,51.33387318199948,56.19316301300023,right,1.0,4.850439572000141,,56.19747646299948,56.21201461199962,56.701036595000005,,,,,,,,,,,,,,,,,,,,,,,,,,,,,,,sub-062,1,random_dot,59.60465792048754,
left,left,15.0,1.0,7.0,left,1.0,1.6479659729993728,,,,,,7.0,1.0,15.0,0.0,,,,,,,,,56.71814306400029,,,,,,,,,56.70136639999964,57.90154106299997,58.70405901899994,58.68578309900022,58.68607312599943,58.70405901899994,58.70405901899994,58.70405901899994,60.35479367799962,left,1.0,1.6479659729993728,,60.35489134299951,60.36879452299945,60.85372102099973,60.86969712900009,,,,,,,,,,,,,,,,,,,,,,,,,,,,,,sub-062,1,random_dot,59.60465792048754,
left,left,16.0,0.0,8.0,left,1.0,0.8948265140006697,,,,,,8.0,0.0,16.0,0.0,,,,,,,,,60.86969712900009,,,,,,,,,60.85395600299944,62.070189002000006,62.87322242499977,62.854540774999805,62.85481922700001,62.87322242499977,62.87322242499977,62.87322242499977,63.788519882999935,left,1.0,0.8948265140006697,,63.78861866900024,63.80253979200006,64.28916291599944,64.30418797499988,,,,,,,,,,,,,,,,,,,,,,,,,,,,,,sub-062,1,random_dot,59.60465792048754,
right,right,17.0,1.0,8.0,right,1.0,1.2601017480001246,,,,,,8.0,1.0,17.0,1.0,,,,,,,,,64.30418797499988,,,,,,,,,64.28943703599998,65.08827304199986,65.89104394999958,65.87270794300002,65.8729887999998,65.89104394999958,65.89104394999958,65.89104394999958,67.17029275799996,right,1.0,1.2601017480001246,,67.1704513679997,67.18623118899995,67.67285714900027,,,,,,,,,,,,,,,,,,,,,,,,,,,,,,,sub-062,1,random_dot,59.60465792048754,
left,left,18.0,0.0,9.0,left,1.0,0.9811179439993792,,,,,,9.0,0.0,18.0,0.0,,,,,,,,,67.68962171099975,,,,,,,,,67.67311280800004,68.87344257299992,69.67672488700009,69.658057439,69.65833703899989,69.67672488700009,69.67672488700009,69.67672488700009,70.66955712500021,left,1.0,0.9811179439993792,,70.66976205499941,70.68277927100007,71.17458712400003,,,,,,,,,,,,,,,,,,,,,,,,,,,,,,,sub-062,1,random_dot,59.60465792048754,
right,right,19.0,1.0,9.0,right,1.0,1.9086351590003687,,,,,,9.0,1.0,19.0,1.0,,,,,,,,,71.19111868100026,,,,,,,,,71.17485073199987,71.97489031399982,72.78266347699991,72.76232501199956,72.76272593799968,72.78266347699991,72.78266347699991,72.78266347699991,74.71373574300014,right,1.0,1.9086351590003687,,74.71384319800018,74.72913236299974,75.22713564300011,,,,,,,,,,,,,,,,,,,,,,,,,,,,,,,sub-062,1,random_dot,59.60465792048754,
,,,,,,,,,,,,,,,,,,,,,,,,,,,,,,,,,,,,,,,,,,,,,,,,,,,75.22725533299945,75.24465013999998,75.24465013999998,77.99611738600015,space,2.7428500850001,,,,,,,,,,,,,,,,,,,,,,,,sub-062,1,random_dot,59.60465792048754,
,,,,,,,,,,,,,,,,,,,,,,,,,,,,,,,,,,,,,,,,,,,,,,,,,,,,,,,,,,77.99618781899972,78.01415266599997,78.01415266599997,82.56382306700016,space,4.53959691,,,,,,,,,,,,,,,,,sub-062,1,random_dot,59.60465792048754,
left,left,0.0,0.0,0.0,left,1.0,1.110419949000061,,accuracy,space,5.880379952999647,,,,,,0.0,0.0,0.0,0.0,0.0,0.0,0.0,0.0,88.50444843199966,,,,,,,,,88.49014485999942,88.8496797910002,89.6518443240002,89.63357234599971,89.63385091999953,89.6518443240002,89.6518443240002,89.6518443240002,90.78260637999938,,,,,,,,,,,,,,,,,,,,,,,82.58582743700026,82.602399548,82.602399548,88.48518934299955,space,5.880379952999647,,left,1.0,1.110419949000061,,,,,,sub-062,1,random_dot,59.60465792048754,
right,right,1.0,1.0,0.0,right,1.0,0.7800282669995795,,accuracy,space,5.880379952999647,,,,,,0.0,0.0,0.0,0.0,0.0,1.0,1.0,1.0,90.79484439299996,,,,,,,,,90.78290223000022,91.13399618399944,91.93640517099992,91.91823573500004,91.91850856400016,91.93640517099992,91.93640517099992,91.93640517099992,92.72040815800028,,,,,,,,,,,,,,,,,,,,,,,,,,,,,,right,1.0,0.7800282669995795,,,,,,sub-062,1,random_dot,59.60465792048754,
left,left,2.0,0.0,1.0,left,1.0,0.796665030999975,,accuracy,space,5.880379952999647,,,,,,0.0,0.0,0.0,0.0,1.0,0.0,2.0,0.0,92.73416723900029,,,,,,,,,92.72071059900009,92.83438450299946,93.63586127999952,93.61911581200002,93.61939538200022,93.63586127999952,93.63586127999952,93.63586127999952,94.44950740999955,,,,,,,,,,,,,,,,,,,,,,,,,,,,,,left,1.0,0.796665030999975,,,,,,sub-062,1,random_dot,59.60465792048754,
right,right,3.0,1.0,1.0,right,1.0,1.3461636029996953,,accuracy,space,5.880379952999647,,,,,,0.0,0.0,0.0,0.0,1.0,1.0,3.0,1.0,94.4605769969994,,,,,,,,,94.44982886300022,94.80246221000016,95.60481173799964,95.586575153,95.58685713199976,95.60481173799964,95.60481173799964,95.60481173799964,96.97236524399976,,,,,,,,,,,,,,,,,,,,,,,,,,,,,,right,1.0,1.3461636029996953,,,,,,sub-062,1,random_dot,59.60465792048754,
right,right,4.0,0.0,2.0,left,0.0,0.9116973990003316,,accuracy,space,5.880379952999647,,,,,,0.0,0.0,0.0,0.0,2.0,0.0,4.0,1.0,96.98512319499967,,,,,,,,,96.9726668229996,97.78718168599973,98.58955373800018,98.57139451700004,98.57165304299996,98.58955373800018,98.58955373800018,98.58955373800018,99.50419183400028,,,,,,,,,,,,,,,,,,,,,,,,,,,,,,left,0.0,0.9116973990003316,,,,,,sub-062,1,random_dot,59.60465792048754,
left,left,5.0,1.0,2.0,left,1.0,1.4293714340001316,,accuracy,space,5.880379952999647,,,,,,0.0,0.0,0.0,0.0,2.0,1.0,5.0,0.0,99.51812054399944,,,,,,,,,99.5044984219994,100.30457233600008,101.10735905699948,101.0890912670002,101.08937477200016,101.10735905699948,101.10735905699948,101.10735905699948,102.54124643799967,,,,,,,,,,,,,,,,,,,,,,,,,,,,,,left,1.0,1.4293714340001316,,,,,,sub-062,1,random_dot,59.60465792048754,
left,left,6.0,0.0,3.0,left,1.0,1.5261920490002012,,accuracy,space,5.880379952999647,,,,,,0.0,0.0,0.0,0.0,3.0,0.0,6.0,0.0,102.55503510800008,,,,,,,,,102.5415623990002,103.75672988899989,104.55942039999992,104.5410237219994,104.54130878999968,104.55942039999992,104.55942039999992,104.55942039999992,106.10286976499992,,,,,,,,,,,,,,,,,,,,,,,,,,,,,,left,1.0,1.5261920490002012,,,,,,sub-062,1,random_dot,59.60465792048754,
right,right,7.0,1.0,3.0,right,1.0,4.901294493999558,,accuracy,space,5.880379952999647,,,,,,0.0,0.0,0.0,0.0,3.0,1.0,7.0,1.0,106.11521191599968,,,,,,,,,106.10321590399964,106.45796474999952,107.26101089700023,107.24231168999997,107.24259731799977,107.26101089700023,107.26101089700023,107.26101089700023,112.1735634079996,,,,,,,,,,,,,,,,,,,,,,,,,,,,,,right,1.0,4.901294493999558,,,,,,sub-062,1,random_dot,59.60465792048754,
right,right,8.0,0.0,4.0,left,0.0,1.7942700539997531,,accuracy,space,5.880379952999647,,,,,,0.0,0.0,0.0,0.0,4.0,0.0,8.0,1.0,112.18639073099985,,,,,,,,,112.17389726100008,112.97734556700016,113.78351784899952,113.76407662400015,113.76449171500008,113.78351784899952,113.78351784899952,113.78351784899952,115.59805988700008,,,,,,,,,,,,,,,,,,,,,,,,,,,,,,left,0.0,1.7942700539997531,,,,,,sub-062,1,random_dot,59.60465792048754,
left,left,9.0,1.0,4.0,left,1.0,1.2607621930001187,,accuracy,space,5.880379952999647,,,,,,0.0,0.0,0.0,0.0,4.0,1.0,9.0,0.0,115.61302369399982,,,,,,,,,115.59836721200008,115.71280084499996,116.5149140980002,116.49660208899968,116.49688496699946,116.5149140980002,116.5149140980002,116.5149140980002,117.78406389199972,,,,,,,,,,,,,,,,,,,,,,,,,,,,,,left,1.0,1.2607621930001187,,,,,,sub-062,1,random_dot,59.60465792048754,
left,left,10.0,0.0,5.0,left,1.0,1.01175771599992,,accuracy,space,5.880379952999647,,,,,,0.0,0.0,0.0,0.0,5.0,0.0,10.0,0.0,117.79721200299991,,,,,,,,,117.78436098800012,117.89700416699998,118.6994154899994,118.6810832729998,118.6813718100002,118.6994154899994,118.6994154899994,118.6994154899994,119.71912881499976,,,,,,,,,,,,,,,,,,,,,,,,,,,,,,left,1.0,1.01175771599992,,,,,,sub-062,1,random_dot,59.60465792048754,
right,right,11.0,1.0,5.0,right,1.0,0.6945855629992366,,accuracy,space,5.880379952999647,,,,,,0.0,0.0,0.0,0.0,5.0,1.0,11.0,1.0,119.73467076799987,,,,,,,,,119.71943888500029,120.080988015,120.88355291900008,120.8654521059998,120.86573496300024,120.88355291900008,120.88355291900008,120.88355291900008,121.59842420699988,,,,,,,,,,,,,,,,,,,,,,,,,,,,,,right,1.0,0.6945855629992366,,,,,,sub-062,1,random_dot,59.60465792048754,
right,right,12.0,0.0,6.0,left,0.0,0.9156104499998036,,accuracy,space,5.880379952999647,,,,,,0.0,0.0,0.0,0.0,6.0,0.0,12.0,1.0,121.61118960299972,,,,,,,,,121.59873809500004,122.7990633319996,123.59986825499982,123.58282004400009,123.583116195,123.59986825499982,123.59986825499982,123.59986825499982,124.53514940700006,,,,,,,,,,,,,,,,,,,,,,,,,,,,,,left,0.0,0.9156104499998036,,,,,,sub-062,1,random_dot,59.60465792048754,
left,left,13.0,1.0,6.0,left,1.0,1.0362564389997715,,accuracy,space,5.880379952999647,,,,,,0.0,0.0,0.0,0.0,6.0,1.0,13.0,0.0,124.54805546199988,,,,,,,,,124.53544910399978,124.64990827299972,125.45265554700018,125.43421151799976,125.4344970789998,125.45265554700018,125.45265554700018,125.45265554700018,126.50727786100016,,,,,,,,,,,,,,,,,,,,,,,,,,,,,,left,1.0,1.0362564389997715,,,,,,sub-062,1,random_dot,59.60465792048754,
right,right,14.0,0.0,7.0,left,0.0,0.7983544620001339,,accuracy,space,5.880379952999647,,,,,,0.0,0.0,0.0,0.0,7.0,0.0,14.0,1.0,126.52170914099952,,,,,,,,,126.50758177199988,127.31777481900008,128.1201168990001,128.1020223989999,128.10228747899964,128.1201168990001,128.1201168990001,128.1201168990001,128.93979104899972,,,,,,,,,,,,,,,,,,,,,,,,,,,,,,left,0.0,0.7983544620001339,,,,,,sub-062,1,random_dot,59.60465792048754,
left,left,15.0,1.0,7.0,left,1.0,1.3796013620003578,,accuracy,space,5.880379952999647,,,,,,0.0,0.0,0.0,0.0,7.0,1.0,15.0,0.0,128.95439411299958,,,,,,,,,128.94008710300022,130.1524437299995,130.9549317809997,130.9367087139999,130.93699168799958,130.9549317809997,130.9549317809997,130.9549317809997,132.34330324100029,,,,,,,,,,,,,,,,,,,,,,,,,,,,,,left,1.0,1.3796013620003578,,,,,,sub-062,1,random_dot,59.60465792048754,
left,left,16.0,0.0,8.0,left,1.0,2.922201395999764,,accuracy,space,5.880379952999647,,,,,,0.0,0.0,0.0,0.0,8.0,0.0,16.0,0.0,132.35630502799995,,,,,,,,,132.34359915599998,132.4540626930002,133.25491281499944,133.2379736189996,133.23825585899976,133.25491281499944,133.25491281499944,133.25491281499944,136.19611551799971,,,,,,,,,,,,,,,,,,,,,,,,,,,,,,left,1.0,2.922201395999764,,,,,,sub-062,1,random_dot,59.60465792048754,
right,right,17.0,1.0,8.0,right,1.0,3.191606168999897,,accuracy,space,5.880379952999647,,,,,,0.0,0.0,0.0,0.0,8.0,1.0,17.0,1.0,136.21038296999996,,,,,,,,,136.1964978619999,136.55553800399957,137.3630796259995,137.33957934299997,137.33985549699992,137.3630796259995,137.3630796259995,137.3630796259995,140.562968661,,,,,,,,,,,,,,,,,,,,,,,,,,,,,,right,1.0,3.191606168999897,,,,,,sub-062,1,random_dot,59.60465792048754,
right,right,18.0,0.0,9.0,left,0.0,0.9799439439993876,,accuracy,space,5.880379952999647,,,,,,0.0,0.0,0.0,0.0,9.0,0.0,18.0,1.0,140.57678394899995,,,,,,,,,140.56327221900028,140.92421306100005,141.72695469100017,141.70855847300027,141.70884497799943,141.72695469100017,141.72695469100017,141.72695469100017,142.71573451299992,,,,,,,,,,,,,,,,,,,,,,,,,,,,,,left,0.0,0.9799439439993876,,,,,,sub-062,1,random_dot,59.60465792048754,
left,left,19.0,1.0,9.0,left,1.0,1.0195301379999364,,accuracy,space,5.880379952999647,,,,,,0.0,0.0,0.0,0.0,9.0,1.0,19.0,0.0,142.7304946409995,,,,,,,,,142.71614727999986,143.925729433,144.727883003,144.70958366800005,144.7098742930002,144.727883003,144.727883003,144.727883003,145.7639550570002,,,,,,,,,,,,,,,,,,,,,,,,,,,,,,left,1.0,1.0195301379999364,,,,,,sub-062,1,random_dot,59.60465792048754,
left,left,20.0,0.0,10.0,left,1.0,0.8835820619997321,,accuracy,space,5.880379952999647,,,,,,0.0,0.0,0.0,0.0,10.0,0.0,20.0,0.0,145.77693346399974,,,,,,,,,145.76424434799992,145.87649336399954,146.67776312600017,146.6609537839995,146.66122497800006,146.67776312600017,146.67776312600017,146.67776312600017,147.57382031499947,,,,,,,,,,,,,,,,,,,,,,,,,,,,,,left,1.0,0.8835820619997321,,,,,,sub-062,1,random_dot,59.60465792048754,
right,right,21.0,1.0,10.0,right,1.0,0.7557690409994393,,accuracy,space,5.880379952999647,,,,,,0.0,0.0,0.0,0.0,10.0,1.0,21.0,1.0,147.5846519810002,,,,,,,,,147.57413300899952,147.9275202429999,148.72911022900007,148.71210454799984,148.71238593399994,148.72911022900007,148.72911022900007,148.72911022900007,149.4965048189997,,,,,,,,,,,,,,,,,,,,,,,,,,,,,,right,1.0,0.7557690409994393,,,,,,sub-062,1,random_dot,59.60465792048754,
left,left,22.0,0.0,11.0,left,1.0,0.7935051419999581,,accuracy,space,5.880379952999647,,,,,,0.0,0.0,0.0,0.0,11.0,0.0,22.0,0.0,149.51029222499983,,,,,,,,,149.49679102000027,149.86201157300002,150.66409612200005,150.64598239099996,150.64626631099964,150.66409612200005,150.66409612200005,150.66409612200005,151.47825774400008,,,,,,,,,,,,,,,,,,,,,,,,,,,,,,left,1.0,0.7935051419999581,,,,,,sub-062,1,random_dot,59.60465792048754,
right,right,23.0,1.0,11.0,right,1.0,1.3729444390000936,,accuracy,space,5.880379952999647,,,,,,0.0,0.0,0.0,0.0,11.0,1.0,23.0,1.0,151.48829217499951,,,,,,,,,151.4785486789997,151.82942641799946,152.63071695899998,152.6137345850002,152.6140186120001,152.63071695899998,152.63071695899998,152.63071695899998,154.02611755199996,,,,,,,,,,,,,,,,,,,,,,,,,,,,,,right,1.0,1.3729444390000936,,,,,,sub-062,1,random_dot,59.60465792048754,
right,right,24.0,0.0,12.0,left,0.0,0.8934606579996398,,accuracy,space,5.880379952999647,,,,,,0.0,0.0,0.0,0.0,12.0,0.0,24.0,1.0,154.03770057600013,,,,,,,,,154.02642729800027,154.38056639499973,155.18314331300007,155.1650449480003,155.16532304700013,155.18314331300007,155.18314331300007,155.18314331300007,156.08315028499965,,,,,,,,,,,,,,,,,,,,,,,,,,,,,,left,0.0,0.8934606579996398,,,,,,sub-062,1,random_dot,59.60465792048754,
left,left,25.0,1.0,12.0,right,0.0,1.3332318900002065,,accuracy,space,5.880379952999647,,,,,,0.0,0.0,0.0,0.0,12.0,1.0,25.0,0.0,156.09694804599985,,,,,,,,,156.08345198200004,157.29873604800014,158.0995261649996,158.08293846000015,158.08321027500006,158.0995261649996,158.0995261649996,158.0995261649996,159.43951750899942,,,,,,,,,,,,,,,,,,,,,,,,,,,,,,right,0.0,1.3332318900002065,,,,,,sub-062,1,random_dot,59.60465792048754,
right,right,26.0,0.0,13.0,right,1.0,1.0356205380003305,,accuracy,space,5.880379952999647,,,,,,0.0,0.0,0.0,0.0,13.0,0.0,26.0,1.0,159.45437775499977,,,,,,,,,159.43982341099945,160.65053814800012,161.4531596449997,161.4345326799994,161.43481556699953,161.4531596449997,161.4531596449997,161.4531596449997,162.49209952,,,,,,,,,,,,,,,,,,,,,,,,,,,,,,right,1.0,1.0356205380003305,,,,,,sub-062,1,random_dot,59.60465792048754,
left,left,27.0,1.0,13.0,left,1.0,0.7223762929997974,,accuracy,space,5.880379952999647,,,,,,0.0,0.0,0.0,0.0,13.0,1.0,27.0,0.0,162.50527069100008,,,,,,,,,162.49244950699995,163.70179092800026,164.50296747599987,164.48598506500002,164.48627219399987,164.50296747599987,164.50296747599987,164.50296747599987,165.2368017789995,,,,,,,,,,,,,,,,,,,,,,,,,,,,,,left,1.0,0.7223762929997974,,,,,,sub-062,1,random_dot,59.60465792048754,
right,right,28.0,0.0,14.0,right,1.0,0.6654261020003105,,accuracy,space,5.880379952999647,,,,,,0.0,0.0,0.0,0.0,14.0,0.0,28.0,1.0,165.25094731700028,,,,,,,,,165.23709829699965,165.33552365600008,166.13836440500015,166.11994569299986,166.1202145669995,166.13836440500015,166.13836440500015,166.13836440500015,166.81164524499945,,,,,,,,,,,,,,,,,,,,,,,,,,,,,,right,1.0,0.6654261020003105,,,,,,sub-062,1,random_dot,59.60465792048754,
left,left,29.0,1.0,14.0,left,1.0,0.6941845789997387,,accuracy,space,5.880379952999647,,,,,,0.0,0.0,0.0,0.0,14.0,1.0,29.0,0.0,166.8259674760002,,,,,,,,,166.81294916000024,167.6202707479997,168.4231532240001,168.40456227399957,168.40485064899983,168.4231532240001,168.4231532240001,168.4231532240001,169.13767673500024,,,,,,,,,,,,,,,,,,,,,,,,,,,,,,left,1.0,0.6941845789997387,,,,,,sub-062,1,random_dot,59.60465792048754,
right,right,30.0,0.0,15.0,right,1.0,0.6142122699993706,,accuracy,space,5.880379952999647,,,,,,0.0,0.0,0.0,0.0,15.0,0.0,30.0,1.0,169.15040037000017,,,,,,,,,169.13796749199992,169.93802560599943,170.74049400999957,170.72215496399986,170.72244080200016,170.74049400999957,170.74049400999957,170.74049400999957,171.36132296100004,,,,,,,,,,,,,,,,,,,,,,,,,,,,,,right,1.0,0.6142122699993706,,,,,,sub-062,1,random_dot,59.60465792048754,
left,left,31.0,1.0,15.0,left,1.0,0.7787899220002146,,accuracy,space,5.880379952999647,,,,,,0.0,0.0,0.0,0.0,15.0,1.0,31.0,0.0,171.37423043699982,,,,,,,,,171.36164669400023,172.5724643220001,173.37504810799965,173.35662426199997,173.3569050899996,173.37504810799965,173.37504810799965,173.37504810799965,174.15821622899966,,,,,,,,,,,,,,,,,,,,,,,,,,,,,,left,1.0,0.7787899220002146,,,,,,sub-062,1,random_dot,59.60465792048754,
left,left,32.0,0.0,16.0,left,1.0,0.6888447020000967,,accuracy,space,5.880379952999647,,,,,,0.0,0.0,0.0,0.0,16.0,0.0,32.0,0.0,174.17202167699998,,,,,,,,,174.1585208609995,175.3729717189999,176.177269797,176.15852336599983,176.1588168549997,176.177269797,176.177269797,176.177269797,176.8712463719994,,,,,,,,,,,,,,,,,,,,,,,,,,,,,,left,1.0,0.6888447020000967,,,,,,sub-062,1,random_dot,59.60465792048754,
right,right,33.0,1.0,16.0,right,1.0,1.9541696830001456,,accuracy,space,5.880379952999647,,,,,,0.0,0.0,0.0,0.0,16.0,1.0,33.0,1.0,176.8842796230001,,,,,,,,,176.87154532800014,177.67496203500014,178.4775607040001,178.45927750699957,178.45955878599943,178.4775607040001,178.4775607040001,178.4775607040001,180.44301694499973,,,,,,,,,,,,,,,,,,,,,,,,,,,,,,right,1.0,1.9541696830001456,,,,,,sub-062,1,random_dot,59.60465792048754,
left,left,34.0,0.0,17.0,left,1.0,0.7551008410000577,,accuracy,space,5.880379952999647,,,,,,0.0,0.0,0.0,0.0,17.0,0.0,34.0,0.0,180.4548570970001,,,,,,,,,180.4433210569996,180.54304868500003,181.34565673199995,181.3274208519997,181.327719508,181.34565673199995,181.34565673199995,181.34565673199995,182.1101370309998,,,,,,,,,,,,,,,,,,,,,,,,,,,,,,left,1.0,0.7551008410000577,,,,,,sub-062,1,random_dot,59.60465792048754,
right,right,35.0,1.0,17.0,right,1.0,0.6288677800002915,,accuracy,space,5.880379952999647,,,,,,0.0,0.0,0.0,0.0,17.0,1.0,35.0,1.0,182.12390746100027,,,,,,,,,182.11043127799985,182.4606891759995,183.263108741,183.244940992,183.24522025700023,183.263108741,183.263108741,183.263108741,183.90344685800028,,,,,,,,,,,,,,,,,,,,,,,,,,,,,,right,1.0,0.6288677800002915,,,,,,sub-062,1,random_dot,59.60465792048754,
right,right,36.0,0.0,18.0,right,1.0,1.481285109000055,,accuracy,space,5.880379952999647,,,,,,0.0,0.0,0.0,0.0,18.0,0.0,36.0,1.0,183.9177906699997,,,,,,,,,183.90498865799964,184.26146537000025,185.0643060120001,185.0458113719997,185.04609426200025,185.0643060120001,185.0643060120001,185.0643060120001,186.5486095010001,,,,,,,,,,,,,,,,,,,,,,,,,,,,,,right,1.0,1.481285109000055,,,,,,sub-062,1,random_dot,59.60465792048754,
left,left,37.0,1.0,18.0,left,1.0,0.6997507060004864,,accuracy,space,5.880379952999647,,,,,,0.0,0.0,0.0,0.0,18.0,1.0,37.0,0.0,186.5620096699995,,,,,,,,,186.54897841,186.912843262,187.7151438479996,187.69701149199955,187.69728377199957,187.7151438479996,187.7151438479996,187.7151438479996,188.42781049099997,,,,,,,,,,,,,,,,,,,,,,,,,,,,,,left,1.0,0.6997507060004864,,,,,,sub-062,1,random_dot,59.60465792048754,
right,right,38.0,0.0,19.0,right,1.0,0.8379452130002392,,accuracy,space,5.880379952999647,,,,,,0.0,0.0,0.0,0.0,19.0,0.0,38.0,1.0,188.44083590099945,,,,,,,,,188.42812169700028,188.78026711700025,189.5827728679997,189.5645051020001,189.56478489100027,189.5827728679997,189.5827728679997,189.5827728679997,190.4392676970001,,,,,,,,,,,,,,,,,,,,,,,,,,,,,,right,1.0,0.8379452130002392,,,,,,sub-062,1,random_dot,59.60465792048754,
left,left,39.0,1.0,19.0,left,1.0,0.93783008399987,,accuracy,space,5.880379952999647,,,,,,0.0,0.0,0.0,0.0,19.0,1.0,39.0,0.0,190.4538361449995,,,,,,,,,190.439926905,190.5484268399996,191.35051505899992,191.33198834199996,191.33226821599965,191.35051505899992,191.35051505899992,191.35051505899992,192.29596305699943,,,,,,,,,,,,,,,,,,,,,,,,,,,,,,left,1.0,0.93783008399987,,,,,,sub-062,1,random_dot,59.60465792048754,
left,left,40.0,0.0,20.0,left,1.0,1.6817066510002403,,accuracy,space,5.880379952999647,,,,,,0.0,0.0,0.0,0.0,20.0,0.0,40.0,0.0,192.30988413100025,,,,,,,,,192.29626316299985,192.64887328799975,193.44983176699952,193.4330845349996,193.43336660899968,193.44983176699952,193.44983176699952,193.44983176699952,195.14738790899992,,,,,,,,,,,,,,,,,,,,,,,,,,,,,,left,1.0,1.6817066510002403,,,,,,sub-062,1,random_dot,59.60465792048754,
right,right,41.0,1.0,20.0,right,1.0,0.8274566280006184,,accuracy,space,5.880379952999647,,,,,,0.0,0.0,0.0,0.0,20.0,1.0,41.0,1.0,195.16074489899984,,,,,,,,,195.14768234500025,195.24965000500012,196.0530084639995,196.03422568399947,196.034495805,196.0530084639995,196.0530084639995,196.0530084639995,196.88943989699965,,,,,,,,,,,,,,,,,,,,,,,,,,,,,,right,1.0,0.8274566280006184,,,,,,sub-062,1,random_dot,59.60465792048754,
left,left,42.0,0.0,21.0,left,1.0,0.9265157030004048,,accuracy,space,5.880379952999647,,,,,,0.0,0.0,0.0,0.0,21.0,0.0,42.0,0.0,196.9050795080002,,,,,,,,,196.88975532599943,197.000788503,197.8035237690001,197.78520070299965,197.7854845539996,197.8035237690001,197.8035237690001,197.8035237690001,198.73407648400007,,,,,,,,,,,,,,,,,,,,,,,,,,,,,,left,1.0,0.9265157030004048,,,,,,sub-062,1,random_dot,59.60465792048754,
right,right,43.0,1.0,21.0,right,1.0,0.6967988229998809,,accuracy,space,5.880379952999647,,,,,,0.0,0.0,0.0,0.0,21.0,1.0,43.0,1.0,198.74771902999964,,,,,,,,,198.7343764769994,199.5353387369996,200.33650476799997,200.3197437459994,200.3200281239997,200.33650476799997,200.33650476799997,200.33650476799997,201.04961199399983,,,,,,,,,,,,,,,,,,,,,,,,,,,,,,right,1.0,0.6967988229998809,,,,,,sub-062,1,random_dot,59.60465792048754,
right,right,44.0,0.0,22.0,left,0.0,1.0311084229997505,,accuracy,space,5.880379952999647,,,,,,0.0,0.0,0.0,0.0,22.0,0.0,44.0,1.0,201.06261777100008,,,,,,,,,201.04992186900017,201.402743828,202.20531833899983,202.1871044239997,202.18736337300012,202.20531833899983,202.20531833899983,202.20531833899983,203.2542495979997,,,,,,,,,,,,,,,,,,,,,,,,,,,,,,left,0.0,1.0311084229997505,,,,,,sub-062,1,random_dot,59.60465792048754,
left,left,45.0,1.0,22.0,left,1.0,5.707318871999632,,accuracy,space,5.880379952999647,,,,,,0.0,0.0,0.0,0.0,22.0,1.0,45.0,0.0,203.2681213059996,,,,,,,,,203.2545476919995,204.454317017,205.25686912899985,205.23862890500004,205.2389001800002,205.25686912899985,205.25686912899985,205.25686912899985,210.9724284670001,,,,,,,,,,,,,,,,,,,,,,,,,,,,,,left,1.0,5.707318871999632,,210.2386168869998,,,,sub-062,1,random_dot,59.60465792048754,
right,right,46.0,0.0,23.0,right,1.0,1.0105983010007549,,accuracy,space,5.880379952999647,,,,,,0.0,0.0,0.0,0.0,23.0,0.0,46.0,1.0,210.9838212719997,,,,,,,,,210.97273262099952,211.77416739299952,212.57699413999944,212.5588089639996,212.5590958289995,212.57699413999944,212.57699413999944,212.57699413999944,213.59518271199977,,,,,,,,,,,,,,,,,,,,,,,,,,,,,,right,1.0,1.0105983010007549,,,,,,sub-062,1,random_dot,59.60465792048754,
left,left,47.0,1.0,23.0,left,1.0,0.7037563359999695,,accuracy,space,5.880379952999647,,,,,,0.0,0.0,0.0,0.0,23.0,1.0,47.0,0.0,213.6109289879996,,,,,,,,,213.59547599799956,214.80929248400025,215.61185392100012,215.593623879,215.593909622,215.61185392100012,215.61185392100012,215.61185392100012,216.32681238700025,,,,,,,,,,,,,,,,,,,,,,,,,,,,,,left,1.0,0.7037563359999695,,,,,,sub-062,1,random_dot,59.60465792048754,
right,right,48.0,0.0,24.0,right,1.0,0.7759735629997522,,accuracy,space,5.880379952999647,,,,,,0.0,0.0,0.0,0.0,24.0,0.0,48.0,1.0,216.3395690389998,,,,,,,,,216.32711313500025,216.67676060699975,217.4797122,217.4610675280001,217.46135582399984,217.4797122,217.4797122,217.4797122,218.27399234599943,,,,,,,,,,,,,,,,,,,,,,,,,,,,,,right,1.0,0.7759735629997522,,,,,,sub-062,1,random_dot,59.60465792048754,
left,left,49.0,1.0,24.0,left,1.0,1.512496287000431,,accuracy,space,5.880379952999647,,,,,,0.0,0.0,0.0,0.0,24.0,1.0,49.0,0.0,218.2850202239997,,,,,,,,,218.2742978010001,219.4780970820002,220.28068420599996,220.26240019899976,220.26268721999983,220.28068420599996,220.28068420599996,220.28068420599996,221.80248819400003,,,,,,,,,,,,,,,,,,,,,,,,,,,,,,left,1.0,1.512496287000431,,,,,,sub-062,1,random_dot,59.60465792048754,
right,right,50.0,0.0,25.0,right,1.0,0.9557738829998924,,accuracy,space,5.880379952999647,,,,,,0.0,0.0,0.0,0.0,25.0,0.0,50.0,1.0,221.8156394950001,,,,,,,,,221.80279047899967,222.16266882499983,222.96550606500023,222.9471629310001,222.9474503729998,222.96550606500023,222.96550606500023,222.96550606500023,223.93385414899967,,,,,,,,,,,,,,,,,,,,,,,,,,,,,,right,1.0,0.9557738829998924,,,,,,sub-062,1,random_dot,59.60465792048754,
left,left,51.0,1.0,25.0,left,1.0,0.6365849350004282,,accuracy,space,5.880379952999647,,,,,,0.0,0.0,0.0,0.0,25.0,1.0,51.0,0.0,223.94959957399988,,,,,,,,,223.9341471649996,224.747373014,225.5500090739997,225.5316826529997,225.53196201599985,225.5500090739997,225.5500090739997,225.5500090739997,226.20884372299952,,,,,,,,,,,,,,,,,,,,,,,,,,,,,,left,1.0,0.6365849350004282,,,,,,sub-062,1,random_dot,59.60465792048754,
left,left,52.0,0.0,26.0,left,1.0,0.7837103370002296,,accuracy,space,5.880379952999647,,,,,,0.0,0.0,0.0,0.0,26.0,0.0,52.0,0.0,226.2206993780001,,,,,,,,,226.2094075770001,227.41490425499975,228.2160632240002,228.19958171999951,228.1998474439997,228.2160632240002,228.2160632240002,228.2160632240002,229.00563530399995,,,,,,,,,,,,,,,,,,,,,,,,,,,,,,left,1.0,0.7837103370002296,,,,,,sub-062,1,random_dot,59.60465792048754,
right,right,53.0,1.0,26.0,right,1.0,0.6018613340002048,,accuracy,space,5.880379952999647,,,,,,0.0,0.0,0.0,0.0,26.0,1.0,53.0,1.0,229.01831727099943,,,,,,,,,229.0059271,230.21658064099935,231.01976021799965,231.00098194400016,231.0012572229998,231.01976021799965,231.01976021799965,231.01976021799965,231.6397038679997,,,,,,,,,,,,,,,,,,,,,,,,,,,,,,right,1.0,0.6018613340002048,,,,,,sub-062,1,random_dot,59.60465792048754,
left,left,54.0,0.0,27.0,left,1.0,0.6527099610002551,,accuracy,space,5.880379952999647,,,,,,0.0,0.0,0.0,0.0,27.0,0.0,54.0,0.0,231.65444266800023,,,,,,,,,231.64001097599976,231.75063616599985,232.5534719819998,232.53494886599947,232.53523450600005,232.5534719819998,232.5534719819998,232.5534719819998,233.224198033,,,,,,,,,,,,,,,,,,,,,,,,,,,,,,left,1.0,0.6527099610002551,,,,,,sub-062,1,random_dot,59.60465792048754,
right,right,55.0,1.0,27.0,right,1.0,0.8697924530006276,,accuracy,space,5.880379952999647,,,,,,0.0,0.0,0.0,0.0,27.0,1.0,55.0,1.0,233.24886336300003,,,,,,,,,233.22449948800025,233.33493089700005,234.13765424699977,234.11895331599956,234.1192382979998,234.13765424699977,234.13765424699977,234.13765424699977,235.01585035599965,,,,,,,,,,,,,,,,,,,,,,,,,,,,,,right,1.0,0.8697924530006276,,,,,,sub-062,1,random_dot,59.60465792048754,
right,right,56.0,0.0,28.0,left,0.0,0.6286554660000547,,accuracy,space,5.880379952999647,,,,,,0.0,0.0,0.0,0.0,28.0,0.0,56.0,1.0,235.02919344400016,,,,,,,,,235.0161631760002,235.8188755989995,236.62187309599997,236.60363817300004,236.60392608100028,236.62187309599997,236.62187309599997,236.62187309599997,237.25895101700007,,,,,,,,,,,,,,,,,,,,,,,,,,,,,,left,0.0,0.6286554660000547,,,,,,sub-062,1,random_dot,59.60465792048754,
left,left,57.0,1.0,28.0,left,1.0,0.8282562989998041,,accuracy,space,5.880379952999647,,,,,,0.0,0.0,0.0,0.0,28.0,1.0,57.0,0.0,237.2741583420002,,,,,,,,,237.25925791200007,238.0702921709999,238.87206740500005,238.8550442899996,238.85533236299943,238.87206740500005,238.87206740500005,238.87206740500005,239.7210825759994,,,,,,,,,,,,,,,,,,,,,,,,,,,,,,left,1.0,0.8282562989998041,,,,,,sub-062,1,random_dot,59.60465792048754,
left,left,58.0,0.0,29.0,left,1.0,1.8015210120001937,,accuracy,space,5.880379952999647,,,,,,0.0,0.0,0.0,0.0,29.0,0.0,58.0,0.0,239.73378204300025,,,,,,,,,239.72137653400023,240.0711361249996,240.8739254410002,240.8554723569996,240.855745674,240.8739254410002,240.8739254410002,240.8739254410002,242.695433072,,,,,,,,,,,,,,,,,,,,,,,,,,,,,,left,1.0,1.8015210120001937,,,,,,sub-062,1,random_dot,59.60465792048754,
right,right,59.0,1.0,29.0,right,1.0,0.6527863219998835,,accuracy,space,5.880379952999647,,,,,,0.0,0.0,0.0,0.0,29.0,1.0,59.0,1.0,242.70757949299968,,,,,,,,,242.69574056500005,243.05600604400024,243.8587556940001,243.8402790259997,243.84056230199985,243.8587556940001,243.8587556940001,243.8587556940001,244.53017233699936,,,,,,,,,,,,,,,,,,,,,,,,,,,,,,right,1.0,0.6527863219998835,,,,,,sub-062,1,random_dot,59.60465792048754,
,,0.0,0.0,0.0,,,,,accuracy,space,5.880379952999647,,,,,,0.0,0.0,0.0,0.0,,,,,,,,,,,,,,,,,,,,,,,,,,,,,,,,,,,,,,,,,,,,,,,,,,,,,,,,,,,,sub-062,1,random_dot,59.60465792048754,
left,left,0.0,0.0,0.0,left,1.0,0.6786852049999652,,speed,space,3.026697539000452,,,,,,0.0,1.0,1.0,1.0,0.0,0.0,0.0,0.0,247.61148220999985,,,,,,,,,247.59740805899943,248.79202162299956,249.59494573400025,249.57642519699948,249.57672566400012,249.59494573400025,249.59494573400025,249.59494573400025,250.28419019400008,,,,,,,,,,,,,,,,,,,,,,,244.54165968599955,244.556114469,244.556114469,247.5925102459996,space,3.026697539000452,,left,1.0,0.6786852049999652,,,,,,sub-062,1,random_dot,59.60465792048754,
right,right,1.0,1.0,0.0,right,1.0,0.4703723920001721,,speed,space,3.026697539000452,,,,,,0.0,1.0,1.0,1.0,0.0,1.0,1.0,1.0,250.2987470500002,,,,,,,,,250.28481049199945,251.09326272,251.8958737430003,251.87741195499984,251.87769779799964,251.8958737430003,251.8958737430003,251.8958737430003,252.3684758359996,,,,,,,,,,,,,,,,,,,,,,,,,,,,,,right,1.0,0.4703723920001721,,,,,,sub-062,1,random_dot,59.60465792048754,
left,left,2.0,0.0,1.0,left,1.0,0.5118989200000215,,speed,space,3.026697539000452,,,,,,0.0,1.0,1.0,1.0,1.0,0.0,2.0,0.0,252.38284247399952,,,,,,,,,252.36884384099997,252.47716522599967,253.27959204499984,253.26132596200023,253.26162232099975,253.27959204499984,253.27959204499984,253.27959204499984,253.81074919299957,,,,,,,,,,,,,,,,,,,,,,,,,,,,,,left,1.0,0.5118989200000215,,,,,,sub-062,1,random_dot,59.60465792048754,
right,right,3.0,1.0,1.0,right,1.0,0.5097227890000795,,speed,space,3.026697539000452,,,,,,0.0,1.0,1.0,1.0,1.0,1.0,3.0,1.0,253.82320660499957,,,,,,,,,253.81104170399976,254.16121070899956,254.9638844379997,254.9455564689997,254.9458372979998,254.9638844379997,254.9638844379997,254.9638844379997,255.49374554299996,,,,,,,,,,,,,,,,,,,,,,,,,,,,,,right,1.0,0.5097227890000795,,,,,,sub-062,1,random_dot,59.60465792048754,
left,left,4.0,0.0,2.0,left,1.0,0.4651140349997149,,speed,space,3.026697539000452,,,,,,0.0,1.0,1.0,1.0,2.0,0.0,4.0,0.0,255.5060794009996,,,,,,,,,255.4940433829997,256.295335926,257.0979008439999,257.0798303849997,257.0800994069996,257.0979008439999,257.0979008439999,257.0979008439999,257.58008136599983,,,,,,,,,,,,,,,,,,,,,,,,,,,,,,left,1.0,0.4651140349997149,,,,,,sub-062,1,random_dot,59.60465792048754,
right,right,5.0,1.0,2.0,right,1.0,0.7812083539993182,,speed,space,3.026697539000452,,,,,,0.0,1.0,1.0,1.0,2.0,1.0,5.0,1.0,257.5950662679997,,,,,,,,,257.5804100539999,257.9296551039997,258.7330689250002,258.71520728499945,258.71548403999986,258.7330689250002,258.7330689250002,258.7330689250002,259.5301197729996,,,,,,,,,,,,,,,,,,,,,,,,,,,,,,right,1.0,0.7812083539993182,,,,,,sub-062,1,random_dot,59.60465792048754,
left,left,6.0,0.0,3.0,left,1.0,0.7198593709999841,,speed,space,3.026697539000452,,,,,,0.0,1.0,1.0,1.0,3.0,0.0,6.0,0.0,259.54391100199973,,,,,,,,,259.53040777000024,260.3307604880001,261.1361833000001,261.11757147299977,261.11784852100027,261.1361833000001,261.1361833000001,261.1361833000001,261.8778036200001,,,,,,,,,,,,,,,,,,,,,,,,,,,,,,left,1.0,0.7198593709999841,,,,,,sub-062,1,random_dot,59.60465792048754,
right,right,7.0,1.0,3.0,right,1.0,0.5876181349995022,,speed,space,3.026697539000452,,,,,,0.0,1.0,1.0,1.0,3.0,1.0,7.0,1.0,261.8905214099996,,,,,,,,,261.87809714299965,262.68161280299955,263.48500980599965,263.46593414400013,263.46623396499945,263.48500980599965,263.48500980599965,263.48500980599965,264.0884951709995,,,,,,,,,,,,,,,,,,,,,,,,,,,,,,right,1.0,0.5876181349995022,,,,,,sub-062,1,random_dot,59.60465792048754,
left,left,8.0,0.0,4.0,left,1.0,0.5346891829995002,,speed,space,3.026697539000452,,,,,,0.0,1.0,1.0,1.0,4.0,0.0,8.0,0.0,264.10466824299965,,,,,,,,,264.0887946849998,264.1995951399995,265.00208153899985,264.9834043689998,264.983701485,265.00208153899985,265.00208153899985,265.00208153899985,265.5558186669996,,,,,,,,,,,,,,,,,,,,,,,,,,,,,,left,1.0,0.5346891829995002,,,,,,sub-062,1,random_dot,59.60465792048754,
right,right,9.0,1.0,4.0,right,1.0,1.4526554770000075,,speed,space,3.026697539000452,,,,,,0.0,1.0,1.0,1.0,4.0,1.0,9.0,1.0,265.57044575500004,,,,,,,,,265.5561269339996,265.66683637499955,266.470212964,266.4512296969997,266.4515139309997,266.470212964,266.470212964,266.470212964,267.94134077299987,,,,,,,,,,,,,,,,,,,,,,,,,,,,,,right,1.0,1.4526554770000075,,,,,,sub-062,1,random_dot,59.60465792048754,
left,left,10.0,0.0,5.0,right,0.0,1.913749992000703,,speed,space,3.026697539000452,,,,,,0.0,1.0,1.0,1.0,5.0,0.0,10.0,0.0,267.9575448380001,,,,,,,,,267.94170329200006,268.0515357489994,268.8552172809996,268.83550781600024,268.8358476599997,268.8552172809996,268.8552172809996,268.8552172809996,270.7742170399997,,,,,,,,,,,,,,,,,,,,,,,,,,,,,,right,0.0,1.913749992000703,,,,,,sub-062,1,random_dot,59.60465792048754,
right,right,11.0,1.0,5.0,right,1.0,0.7311185479993583,,speed,space,3.026697539000452,,,,,,0.0,1.0,1.0,1.0,5.0,1.0,11.0,1.0,270.78998529899945,,,,,,,,,270.77450297199994,271.98632144899966,272.7874374140001,272.770706626,272.77098846900026,272.7874374140001,272.7874374140001,272.7874374140001,273.52735698299966,,,,,,,,,,,,,,,,,,,,,,,,,,,,,,right,1.0,0.7311185479993583,,,,,,sub-062,1,random_dot,59.60465792048754,
right,right,12.0,0.0,6.0,right,1.0,0.6726294830004917,,speed,space,3.026697539000452,,,,,,0.0,1.0,1.0,1.0,6.0,0.0,12.0,1.0,273.54218011099965,,,,,,,,,273.52782006100006,273.6372432019998,274.439669505,274.42134438999983,274.42163487200014,274.439669505,274.439669505,274.439669505,275.1225712249998,,,,,,,,,,,,,,,,,,,,,,,,,,,,,,right,1.0,0.6726294830004917,,,,,,sub-062,1,random_dot,59.60465792048754,
left,left,13.0,1.0,6.0,left,1.0,0.5139973810000811,,speed,space,3.026697539000452,,,,,,0.0,1.0,1.0,1.0,6.0,1.0,13.0,0.0,275.13643207899986,,,,,,,,,275.1228672850002,276.32143835199986,277.1228682809997,277.10623276499973,277.1065136520001,277.1228682809997,277.1228682809997,277.1228682809997,277.63989836200017,,,,,,,,,,,,,,,,,,,,,,,,,,,,,,left,1.0,0.5139973810000811,,,,,,sub-062,1,random_dot,59.60465792048754,
right,right,14.0,0.0,7.0,right,1.0,0.6941760230001819,,speed,space,3.026697539000452,,,,,,0.0,1.0,1.0,1.0,7.0,0.0,14.0,1.0,277.65374055600023,,,,,,,,,277.6401913009995,277.7391144409994,278.54197178399954,278.52372351899976,278.52399417299966,278.54197178399954,278.54197178399954,278.54197178399954,279.2541944879995,,,,,,,,,,,,,,,,,,,,,,,,,,,,,,right,1.0,0.6941760230001819,,,,,,sub-062,1,random_dot,59.60465792048754,
left,left,15.0,1.0,7.0,left,1.0,0.5003608119995988,,speed,space,3.026697539000452,,,,,,0.0,1.0,1.0,1.0,7.0,1.0,15.0,0.0,279.2675550309996,,,,,,,,,279.25448647400026,279.6066102140003,280.4089330380002,280.3907733719998,280.3910571870001,280.4089330380002,280.4089330380002,280.4089330380002,280.92112577399985,,,,,,,,,,,,,,,,,,,,,,,,,,,,,,left,1.0,0.5003608119995988,,,,,,sub-062,1,random_dot,59.60465792048754,
right,right,16.0,0.0,8.0,right,1.0,0.711181055000452,,speed,space,3.026697539000452,,,,,,0.0,1.0,1.0,1.0,8.0,0.0,16.0,1.0,280.93471957600013,,,,,,,,,280.9214220140002,281.27399066899943,282.0767346920002,282.05831926799965,282.0585983909996,282.0767346920002,282.0767346920002,282.0767346920002,282.80875281799945,,,,,,,,,,,,,,,,,,,,,,,,,,,,,,right,1.0,0.711181055000452,,,,,,sub-062,1,random_dot,59.60465792048754,
left,left,17.0,1.0,8.0,right,0.0,0.6672329480006738,,speed,space,3.026697539000452,,,,,,0.0,1.0,1.0,1.0,8.0,1.0,17.0,0.0,282.821816658,,,,,,,,,282.8090566519995,283.60869223899954,284.4112290769999,284.3927713940002,284.3930557069998,284.4112290769999,284.4112290769999,284.4112290769999,285.08225746900007,,,,,,,,,,,,,,,,,,,,,,,,,,,,,,right,0.0,0.6672329480006738,,,,,,sub-062,1,random_dot,59.60465792048754,
right,right,18.0,0.0,9.0,right,1.0,0.6819452500003536,,speed,space,3.026697539000452,,,,,,0.0,1.0,1.0,1.0,9.0,0.0,18.0,1.0,285.0971463670003,,,,,,,,,285.08254138699976,286.29280144899985,287.096001033,287.077629159,287.0779083939997,287.096001033,287.096001033,287.096001033,287.7901994570002,,,,,,,,,,,,,,,,,,,,,,,,,,,,,,right,1.0,0.6819452500003536,,,,,,sub-062,1,random_dot,59.60465792048754,
left,left,19.0,1.0,9.0,left,1.0,0.7468323460007014,,speed,space,3.026697539000452,,,,,,0.0,1.0,1.0,1.0,9.0,1.0,19.0,0.0,287.80294636300005,,,,,,,,,287.7905000519995,288.1437046310002,288.9464802980001,288.92831743399984,288.9285963779994,288.9464802980001,288.9464802980001,288.9464802980001,289.69602174400006,,,,,,,,,,,,,,,,,,,,,,,,,,,,,,left,1.0,0.7468323460007014,,,,,,sub-062,1,random_dot,59.60465792048754,
left,left,20.0,0.0,10.0,left,1.0,1.1941669769994403,,speed,space,3.026697539000452,,,,,,0.0,1.0,1.0,1.0,10.0,0.0,20.0,0.0,289.70984881499953,,,,,,,,,289.6963293709996,290.895195868,291.6978547789995,291.67968715000006,291.67996685100024,291.6978547789995,291.6978547789995,291.6978547789995,292.9116899139999,,,,,,,,,,,,,,,,,,,,,,,,,,,,,,left,1.0,1.1941669769994403,,,,,,sub-062,1,random_dot,59.60465792048754,
right,right,21.0,1.0,10.0,right,1.0,0.6202264190005735,,speed,space,3.026697539000452,,,,,,0.0,1.0,1.0,1.0,10.0,1.0,21.0,1.0,292.9243415359997,,,,,,,,,292.9119842579994,293.0136816590002,293.815505951,293.7973165739995,293.7975749010002,293.815505951,293.815505951,293.815505951,294.453652061,,,,,,,,,,,,,,,,,,,,,,,,,,,,,,right,1.0,0.6202264190005735,,,,,,sub-062,1,random_dot,59.60465792048754,
left,left,22.0,0.0,11.0,left,1.0,1.4196465380000518,,speed,space,3.026697539000452,,,,,,0.0,1.0,1.0,1.0,11.0,0.0,22.0,0.0,294.46798067799955,,,,,,,,,294.45394498899987,294.56333991999963,295.36502607999955,295.3481699799995,295.3486238179994,295.36502607999955,295.36502607999955,295.36502607999955,296.7963056179997,,,,,,,,,,,,,,,,,,,,,,,,,,,,,,left,1.0,1.4196465380000518,,,,,,sub-062,1,random_dot,59.60465792048754,
right,right,23.0,1.0,11.0,right,1.0,0.5889297630001238,,speed,space,3.026697539000452,,,,,,0.0,1.0,1.0,1.0,11.0,1.0,23.0,1.0,296.8095932649994,,,,,,,,,296.7965937939998,296.8982545099998,297.7008735270001,297.682287222,297.6825754579995,297.7008735270001,297.7008735270001,297.7008735270001,298.3027264809998,,,,,,,,,,,,,,,,,,,,,,,,,,,,,,right,1.0,0.5889297630001238,,,,,,sub-062,1,random_dot,59.60465792048754,
left,left,24.0,0.0,12.0,left,1.0,1.7346965179995095,,speed,space,3.026697539000452,,,,,,0.0,1.0,1.0,1.0,12.0,0.0,24.0,0.0,298.3159999310001,,,,,,,,,298.3030195450001,299.11555082499945,299.91828967499987,299.9001743560002,299.9004531800001,299.91828967499987,299.91828967499987,299.91828967499987,301.6725514969994,,,,,,,,,,,,,,,,,,,,,,,,,,,,,,left,1.0,1.7346965179995095,,,,,,sub-062,1,random_dot,59.60465792048754,
right,right,25.0,1.0,12.0,right,1.0,0.5945744740001828,,speed,space,3.026697539000452,,,,,,0.0,1.0,1.0,1.0,12.0,1.0,25.0,1.0,301.68493422400024,,,,,,,,,301.67287602099987,301.78396371300005,302.58653313299965,302.5682799939996,302.5685632519999,302.58653313299965,302.58653313299965,302.58653313299965,303.187136089,,,,,,,,,,,,,,,,,,,,,,,,,,,,,,right,1.0,0.5945744740001828,,,,,,sub-062,1,random_dot,59.60465792048754,
right,right,26.0,0.0,13.0,right,1.0,0.6580240999992384,,speed,space,3.026697539000452,,,,,,0.0,1.0,1.0,1.0,13.0,0.0,26.0,1.0,303.2026944769996,,,,,,,,,303.1874296619999,303.3011807889998,304.1040623959998,304.0856132170002,304.0858968829998,304.1040623959998,304.1040623959998,304.1040623959998,304.7800128199997,,,,,,,,,,,,,,,,,,,,,,,,,,,,,,right,1.0,0.6580240999992384,,,,,,sub-062,1,random_dot,59.60465792048754,
left,left,27.0,1.0,13.0,left,1.0,0.6938625579996369,,speed,space,3.026697539000452,,,,,,0.0,1.0,1.0,1.0,13.0,1.0,27.0,0.0,304.790896818,,,,,,,,,304.78034992799985,305.5857673969995,306.3879575809997,306.3694884819997,306.3697700969997,306.3879575809997,306.3879575809997,306.3879575809997,307.1024539379996,,,,,,,,,,,,,,,,,,,,,,,,,,,,,,left,1.0,0.6938625579996369,,,,,,sub-062,1,random_dot,59.60465792048754,
left,left,28.0,0.0,14.0,right,0.0,0.487115883000115,,speed,space,3.026697539000452,,,,,,0.0,1.0,1.0,1.0,14.0,0.0,28.0,0.0,307.11510999500024,,,,,,,,,307.10274582999955,307.9034088849994,308.70593112999995,308.6876188589995,308.687907906,308.70593112999995,308.70593112999995,308.70593112999995,309.20495478799967,,,,,,,,,,,,,,,,,,,,,,,,,,,,,,right,0.0,0.487115883000115,,,,,,sub-062,1,random_dot,59.60465792048754,
right,right,29.0,1.0,14.0,right,1.0,0.7872384900001634,,speed,space,3.026697539000452,,,,,,0.0,1.0,1.0,1.0,14.0,1.0,29.0,1.0,309.21883256099954,,,,,,,,,309.2052523149996,310.40448484099943,311.2074480909996,311.18908658500004,311.18935957899976,311.2074480909996,311.2074480909996,311.2074480909996,312.0059602699994,,,,,,,,,,,,,,,,,,,,,,,,,,,,,,right,1.0,0.7872384900001634,,,,,,sub-062,1,random_dot,59.60465792048754,
right,right,30.0,0.0,15.0,right,1.0,0.5988110509997568,,speed,space,3.026697539000452,,,,,,0.0,1.0,1.0,1.0,15.0,0.0,30.0,1.0,312.019703297,,,,,,,,,312.00627046999944,313.20593679099966,314.00876337799946,313.990253815,313.99054304499987,314.00876337799946,314.00876337799946,314.00876337799946,314.61059392900006,,,,,,,,,,,,,,,,,,,,,,,,,,,,,,right,1.0,0.5988110509997568,,,,,,sub-062,1,random_dot,59.60465792048754,
left,left,31.0,1.0,15.0,right,0.0,0.5124385879998954,,speed,space,3.026697539000452,,,,,,0.0,1.0,1.0,1.0,15.0,1.0,31.0,0.0,314.6236714019997,,,,,,,,,314.6108830679996,314.973470596,315.7760642610001,315.75776366599985,315.7580480159995,315.7760642610001,315.7760642610001,315.7760642610001,316.30621035700005,,,,,,,,,,,,,,,,,,,,,,,,,,,,,,right,0.0,0.5124385879998954,,,,,,sub-062,1,random_dot,59.60465792048754,
left,left,32.0,0.0,16.0,left,1.0,0.5312056550001216,,speed,space,3.026697539000452,,,,,,0.0,1.0,1.0,1.0,16.0,0.0,32.0,0.0,316.32004467000024,,,,,,,,,316.306513814,317.5079518530001,318.31060466799954,318.2922310849999,318.292533799,318.31060466799954,318.31060466799954,318.31060466799954,318.8597348149997,,,,,,,,,,,,,,,,,,,,,,,,,,,,,,left,1.0,0.5312056550001216,,,,,,sub-062,1,random_dot,59.60465792048754,
right,right,33.0,1.0,16.0,right,1.0,0.5217885060001208,,speed,space,3.026697539000452,,,,,,0.0,1.0,1.0,1.0,16.0,1.0,33.0,1.0,318.87354256900016,,,,,,,,,318.86002506099976,319.65871908899953,320.4599991220002,320.44336555599966,320.4436353499996,320.4599991220002,320.4599991220002,320.4599991220002,320.9932129839999,,,,,,,,,,,,,,,,,,,,,,,,,,,,,,right,1.0,0.5217885060001208,,,,,,sub-062,1,random_dot,59.60465792048754,
right,right,34.0,0.0,17.0,right,1.0,0.4815495849998115,,speed,space,3.026697539000452,,,,,,0.0,1.0,1.0,1.0,17.0,0.0,34.0,1.0,321.0071819799996,,,,,,,,,320.99351305100026,321.0929692889995,321.89555833099985,321.8773485639995,321.8776368409999,321.89555833099985,321.89555833099985,321.89555833099985,322.38914072399984,,,,,,,,,,,,,,,,,,,,,,,,,,,,,,right,1.0,0.4815495849998115,,,,,,sub-062,1,random_dot,59.60465792048754,
left,left,35.0,1.0,17.0,right,0.0,0.4524751279996053,,speed,space,3.026697539000452,,,,,,0.0,1.0,1.0,1.0,17.0,1.0,35.0,0.0,322.4018017689996,,,,,,,,,322.3894593240002,322.7438977800002,323.5465620160003,323.5280947679994,323.52837821899993,323.5465620160003,323.5465620160003,323.5465620160003,324.0018532260001,,,,,,,,,,,,,,,,,,,,,,,,,,,,,,right,0.0,0.4524751279996053,,,,,,sub-062,1,random_dot,59.60465792048754,
left,left,36.0,0.0,18.0,right,0.0,0.4577427450003597,,speed,space,3.026697539000452,,,,,,0.0,1.0,1.0,1.0,18.0,0.0,36.0,0.0,324.01657669499946,,,,,,,,,324.0021989999996,324.3612614699996,325.1646568469996,325.1456391439997,325.14593217199945,325.1646568469996,325.1646568469996,325.1646568469996,325.64230339999995,,,,,,,,,,,,,,,,,,,,,,,,,,,,,,right,0.0,0.4577427450003597,,,,,,sub-062,1,random_dot,59.60465792048754,
right,right,37.0,1.0,18.0,right,1.0,0.7650709270001244,,speed,space,3.026697539000452,,,,,,0.0,1.0,1.0,1.0,18.0,1.0,37.0,1.0,325.65215517399974,,,,,,,,,325.6425953749995,326.4456319339997,327.2483732370001,327.2299839899997,327.2302664150002,327.2483732370001,327.2483732370001,327.2483732370001,328.0331759599994,,,,,,,,,,,,,,,,,,,,,,,,,,,,,,right,1.0,0.7650709270001244,,,,,,sub-062,1,random_dot,59.60465792048754,
right,right,38.0,0.0,19.0,right,1.0,0.6118462599997656,,speed,space,3.026697539000452,,,,,,0.0,1.0,1.0,1.0,19.0,0.0,38.0,1.0,328.044385233,,,,,,,,,328.0334719269995,329.24698921300023,330.049263807,330.03110325499983,330.031376471,330.049263807,330.049263807,330.049263807,330.6704539459997,,,,,,,,,,,,,,,,,,,,,,,,,,,,,,right,1.0,0.6118462599997656,,,,,,sub-062,1,random_dot,59.60465792048754,
left,left,39.0,1.0,19.0,right,0.0,0.771882643999561,,speed,space,3.026697539000452,,,,,,0.0,1.0,1.0,1.0,19.0,1.0,39.0,0.0,330.6833811709994,,,,,,,,,330.67074941899955,331.03115925099974,331.83201472200017,331.8153282389994,331.81560686800003,331.83201472200017,331.83201472200017,331.83201472200017,332.60726822299966,,,,,,,,,,,,,,,,,,,,,,,,,,,,,,right,0.0,0.771882643999561,,,,,,sub-062,1,random_dot,59.60465792048754,
right,right,40.0,0.0,20.0,right,1.0,0.6607929829997374,,speed,space,3.026697539000452,,,,,,0.0,1.0,1.0,1.0,20.0,0.0,40.0,1.0,332.6211110329996,,,,,,,,,332.60810444900017,332.9651843880001,333.7679874879996,333.7496627889996,333.74993584799995,333.7679874879996,333.7679874879996,333.7679874879996,334.4486866010002,,,,,,,,,,,,,,,,,,,,,,,,,,,,,,right,1.0,0.6607929829997374,,,,,,sub-062,1,random_dot,59.60465792048754,
left,left,41.0,1.0,20.0,right,0.0,0.7770201789999192,,speed,space,3.026697539000452,,,,,,0.0,1.0,1.0,1.0,20.0,1.0,41.0,0.0,334.4614121300001,,,,,,,,,334.44898988800014,334.5496412169996,335.3519920540002,335.3337253330001,335.3340117329999,335.3519920540002,335.3519920540002,335.3519920540002,336.1327260239996,,,,,,,,,,,,,,,,,,,,,,,,,,,,,,right,0.0,0.7770201789999192,,,,,,sub-062,1,random_dot,59.60465792048754,
right,right,42.0,0.0,21.0,right,1.0,0.6513416010002402,,speed,space,3.026697539000452,,,,,,0.0,1.0,1.0,1.0,21.0,0.0,42.0,1.0,336.1464845669998,,,,,,,,,336.1330179850001,337.33406423699944,338.1360482230002,338.11782647899963,338.118100058,338.1360482230002,338.1360482230002,338.1360482230002,338.79093438400014,,,,,,,,,,,,,,,,,,,,,,,,,,,,,,right,1.0,0.6513416010002402,,,,,,sub-062,1,random_dot,59.60465792048754,
left,left,43.0,1.0,21.0,right,0.0,1.2150804029997744,,speed,space,3.026697539000452,,,,,,0.0,1.0,1.0,1.0,21.0,1.0,43.0,0.0,338.8058936339994,,,,,,,,,338.79121833799945,340.00209166399964,340.804903061,340.7863608870002,340.78664484099954,340.804903061,340.804903061,340.804903061,342.0412414069997,,,,,,,,,,,,,,,,,,,,,,,,,,,,,,right,0.0,1.2150804029997744,,,,,,sub-062,1,random_dot,59.60465792048754,
right,right,44.0,0.0,22.0,right,1.0,1.4125528990007297,,speed,space,3.026697539000452,,,,,,0.0,1.0,1.0,1.0,22.0,0.0,44.0,1.0,342.05346659799943,,,,,,,,,342.0415596120001,343.2535127909996,344.05590965899955,344.0375812510001,344.0378563079994,344.05590965899955,344.05590965899955,344.05590965899955,345.4890586929996,,,,,,,,,,,,,,,,,,,,,,,,,,,,,,right,1.0,1.4125528990007297,,,,,,sub-062,1,random_dot,59.60465792048754,
left,left,45.0,1.0,22.0,right,0.0,3.012135216000388,,speed,space,3.026697539000452,,,,,,0.0,1.0,1.0,1.0,22.0,1.0,45.0,0.0,345.501808604,,,,,,,,,345.4893708809996,345.60452005000025,346.40758095599995,346.3890382130003,346.389320192,346.40758095599995,346.40758095599995,346.40758095599995,349.44024315299976,,,,,,,,,,,,,,,,,,,,,,,,,,,,,,right,0.0,3.012135216000388,,,,,,sub-062,1,random_dot,59.60465792048754,
left,left,46.0,0.0,23.0,left,1.0,1.7886724679992767,,speed,space,3.026697539000452,,,,,,0.0,1.0,1.0,1.0,23.0,0.0,46.0,0.0,349.450946465,,,,,,,,,349.44055083700005,350.2400976990002,351.0423071229998,351.02404436100005,351.0243284319995,351.0423071229998,351.0423071229998,351.0423071229998,352.837890498,,,,,,,,,,,,,,,,,,,,,,,,,,,,,,left,1.0,1.7886724679992767,,,,,,sub-062,1,random_dot,59.60465792048754,
right,right,47.0,1.0,23.0,right,1.0,1.1460320159994808,,speed,space,3.026697539000452,,,,,,0.0,1.0,1.0,1.0,23.0,1.0,47.0,1.0,352.8506799099996,,,,,,,,,352.8381928660001,352.9414891999995,353.74420372199984,353.7259224849995,353.7262018800002,353.74420372199984,353.74420372199984,353.74420372199984,354.9095287149994,,,,,,,,,,,,,,,,,,,,,,,,,,,,,,right,1.0,1.1460320159994808,,,,,,sub-062,1,random_dot,59.60465792048754,
right,right,48.0,0.0,24.0,right,1.0,0.9801273639995998,,speed,space,3.026697539000452,,,,,,0.0,1.0,1.0,1.0,24.0,0.0,48.0,1.0,354.92236335300004,,,,,,,,,354.90983606200007,355.7095409499998,356.5104645629999,356.4937358139996,356.4940156599996,356.5104645629999,356.5104645629999,356.5104645629999,357.51005090299986,,,,,,,,,,,,,,,,,,,,,,,,,,,,,,right,1.0,0.9801273639995998,,,,,,sub-062,1,random_dot,59.60465792048754,
left,left,49.0,1.0,24.0,right,0.0,1.5156272699996407,,speed,space,3.026697539000452,,,,,,0.0,1.0,1.0,1.0,24.0,1.0,49.0,0.0,357.523060083,,,,,,,,,357.5103547029994,357.6102481600001,358.41294406499946,358.39453696999954,358.39482016999955,358.41294406499946,358.41294406499946,358.41294406499946,359.93388922400027,,,,,,,,,,,,,,,,,,,,,,,,,,,,,,right,0.0,1.5156272699996407,,,,,,sub-062,1,random_dot,59.60465792048754,
right,right,50.0,0.0,25.0,right,1.0,1.2495370159995218,,speed,space,3.026697539000452,,,,,,0.0,1.0,1.0,1.0,25.0,0.0,50.0,1.0,359.94931588500003,,,,,,,,,359.9341738430003,360.2950216290001,361.0973046549998,361.0791660549994,361.0794484299995,361.0973046549998,361.0973046549998,361.0973046549998,362.352278456,,,,,,,,,,,,,,,,,,,,,,,,,,,,,,right,1.0,1.2495370159995218,,,,,,sub-062,1,random_dot,59.60465792048754,
left,left,51.0,1.0,25.0,left,1.0,1.4702807639996536,,speed,space,3.026697539000452,,,,,,0.0,1.0,1.0,1.0,25.0,1.0,51.0,0.0,362.3652923809996,,,,,,,,,362.3525698269996,363.56317828400006,364.36618668699975,364.3478931259997,364.3481812049995,364.36618668699975,364.36618668699975,364.36618668699975,365.8591104979996,,,,,,,,,,,,,,,,,,,,,,,,,,,,,,left,1.0,1.4702807639996536,,,,,,sub-062,1,random_dot,59.60465792048754,
right,right,52.0,0.0,26.0,left,0.0,1.1355556700000309,,speed,space,3.026697539000452,,,,,,0.0,1.0,1.0,1.0,26.0,0.0,52.0,1.0,365.8689773189999,,,,,,,,,365.8594361149999,366.6646317280001,367.46731091899983,367.4488682760002,367.44916113599993,367.46731091899983,367.46731091899983,367.46731091899983,368.6156375689998,,,,,,,,,,,,,,,,,,,,,,,,,,,,,,left,0.0,1.1355556700000309,,,,,,sub-062,1,random_dot,59.60465792048754,
left,left,53.0,1.0,26.0,left,1.0,1.050810007999644,,speed,space,3.026697539000452,,,,,,0.0,1.0,1.0,1.0,26.0,1.0,53.0,0.0,368.62930518400026,,,,,,,,,368.6159337660001,368.71558975900007,369.5181112499995,369.4999061819999,369.50018936299966,369.5181112499995,369.5181112499995,369.5181112499995,370.5797127019996,,,,,,,,,,,,,,,,,,,,,,,,,,,,,,left,1.0,1.050810007999644,,,,,,sub-062,1,random_dot,59.60465792048754,
left,left,54.0,0.0,27.0,left,1.0,1.0809501969997657,,speed,space,3.026697539000452,,,,,,0.0,1.0,1.0,1.0,27.0,0.0,54.0,0.0,370.5924703370001,,,,,,,,,370.5800069099996,371.7837762310001,372.5859623449997,372.5677327459998,372.5679961799997,372.5859623449997,372.5859623449997,372.5859623449997,373.67428828799984,,,,,,,,,,,,,,,,,,,,,,,,,,,,,,left,1.0,1.0809501969997657,,,,,,sub-062,1,random_dot,59.60465792048754,
right,right,55.0,1.0,27.0,left,0.0,1.1305087559994718,,speed,space,3.026697539000452,,,,,,0.0,1.0,1.0,1.0,27.0,1.0,55.0,1.0,373.6889375179999,,,,,,,,,373.6745844569996,374.885113927,375.6876994180002,375.66939489800006,375.6696783899997,375.6876994180002,375.6876994180002,375.6876994180002,376.8385643949996,,,,,,,,,,,,,,,,,,,,,,,,,,,,,,left,0.0,1.1305087559994718,,,,,,sub-062,1,random_dot,59.60465792048754,
left,left,56.0,0.0,28.0,left,1.0,1.355570765000266,,speed,space,3.026697539000452,,,,,,0.0,1.0,1.0,1.0,28.0,0.0,56.0,0.0,376.8533147079997,,,,,,,,,376.8388669850001,376.95283518,377.7563857509994,377.737266358,377.73755454799993,377.7563857509994,377.7563857509994,377.7563857509994,379.11668053,,,,,,,,,,,,,,,,,,,,,,,,,,,,,,left,1.0,1.355570765000266,,,,,,sub-062,1,random_dot,59.60465792048754,
right,right,57.0,1.0,28.0,right,1.0,1.5447928900002807,,speed,space,3.026697539000452,,,,,,0.0,1.0,1.0,1.0,28.0,1.0,57.0,1.0,379.1294922649995,,,,,,,,,379.1169964259998,379.2204249079996,380.0229876429994,380.00536301400007,380.0056634960001,380.0229876429994,380.0229876429994,380.0229876429994,381.5843708880002,,,,,,,,,,,,,,,,,,,,,,,,,,,,,,right,1.0,1.5447928900002807,,,,,,sub-062,1,random_dot,59.60465792048754,
left,left,58.0,0.0,29.0,left,1.0,0.8353288460002659,,speed,space,3.026697539000452,,,,,,0.0,1.0,1.0,1.0,29.0,0.0,58.0,0.0,381.5971213309994,,,,,,,,,381.5846898640002,381.9386177209999,382.7396311209996,382.7229654069997,382.7232566989997,382.7396311209996,382.7396311209996,382.7396311209996,383.5783771839997,,,,,,,,,,,,,,,,,,,,,,,,,,,,,,left,1.0,0.8353288460002659,,,,,,sub-062,1,random_dot,59.60465792048754,
right,right,59.0,1.0,29.0,right,1.0,0.578470295000443,,speed,space,3.026697539000452,,,,,,0.0,1.0,1.0,1.0,29.0,1.0,59.0,1.0,383.5913330670001,,,,,,,,,383.57868458699977,384.78994537000017,385.5926139799994,385.57427335400007,385.57455786799983,385.5926139799994,385.5926139799994,385.5926139799994,386.1745386779994,,,,,,,,,,,,,,,,,,,,,,,,,,,,,,right,1.0,0.578470295000443,,,,,,sub-062,1,random_dot,59.60465792048754,
,,1.0,1.0,0.0,,,,,speed,space,3.026697539000452,,,,,,0.0,1.0,1.0,1.0,,,,,,,,,,,,,,,,,,,,,,,,,,,,,,,,,,,,,,,,,,,,,,,,,,,,,,,,,,,,sub-062,1,random_dot,59.60465792048754,
,,,,,,,,,,,,,,,,,,,,,,,,,,,,,,,,,,,,,,,,,,,,,,,,,,,,,,,,,,,,,,,,,,,,,,,,,,,,,386.1783380329998,386.19264262900015,391.1758618019994,sub-062,1,random_dot,59.60465792048754,
