wordCTK,colorCTK,corrAnsCTK,congruentCTK,thisN,thisTrialN,thisRepN,keyResp_CTK.keys,keyResp_CTK.corr,keyResp_CTK.rt,keyResp_CTK.duration,wordPractice,colorPractice,corrAnsPractice,congruentPractice,respPractice.keys,respPractice.corr,respPractice.rt,respPractice.duration,word,color,corrAns,congruent,keyResp_test_run.keys,keyResp_test_run.corr,keyResp_test_run.rt,keyResp_test_run.duration,trials_CTK.thisRepN,trials_CTK.thisTrialN,trials_CTK.thisN,trials_CTK.thisIndex,trials_practice.thisRepN,trials_practice.thisTrialN,trials_practice.thisN,trials_practice.thisIndex,trials_test.thisRepN,trials_test.thisTrialN,trials_test.thisN,trials_test.thisIndex,thisRow.t,notes,instruction.started,instr_text.started,instr_image.started,instr_resp.started,instruction.stopped,instr_resp.keys,instr_resp.rt,instr_resp.duration,instr_color_to_key.started,instr_ctk.started,resp_ctk.started,instr_color_to_key.stopped,resp_ctk.keys,resp_ctk.rt,resp_ctk.duration,ITI.started,fixcross.started,fixcross.stopped,ITI.stopped,color_to_key_run.started,stimulus_CTK.started,keyResp_CTK.started,color_to_key_run.stopped,trials_CTK.keyResp_CTK.keys,trials_CTK.keyResp_CTK.corr,trials_CTK.keyResp_CTK.rt,trials_CTK.keyResp_CTK.duration,instr_practice.started,instr_practice_text.started,instr_practice_resp.started,instr_practice.stopped,instr_practice_resp.keys,instr_practice_resp.rt,instr_practice_resp.duration,practice_run.started,stimulus_practice.started,respPractice.started,practice_run.stopped,trials_practice.respPractice.keys,trials_practice.respPractice.corr,trials_practice.respPractice.rt,trials_practice.respPractice.duration,feedback.started,textFeedback.started,feedback.stopped,textFeedback.stopped,instr_test.started,instr_test_text.started,instr_test_resp.started,instr_test.stopped,instr_test_resp.keys,instr_test_resp.rt,instr_test_resp.duration,test_run.started,stimulus_test_run.started,keyResp_test_run.started,test_run.stopped,trials_test.keyResp_test_run.keys,trials_test.keyResp_test_run.corr,trials_test.keyResp_test_run.rt,trials_test.keyResp_test_run.duration,goodbye.started,textGoodbye.started,goodbye.stopped,participant,session,expName,frameRate,Unnamed: 112
,,,,,,,,,,,,,,,,,,,,,,,,,,,,,,,,,,,,,,,,,0.012353209000139,0.0449030990002938,0.0449030990002938,0.0449030990002938,8.286652429000242,space,8.067423659998894,,,,,,,,,,,,,,,,,,,,,,,,,,,,,,,,,,,,,,,,,,,,,,,,,,,,,,,,,,sub-029,1,stroop_test,60.294906730034,
,,,,,,,,,,,,,,,,,,,,,,,,,,,,,,,,,,,,,,,,,,,,,,,,,8.286705468000946,8.303170675999354,8.303170675999354,9.559148653999728,space,1.2388106210000842,,,,,,,,,,,,,,,,,,,,,,,,,,,,,,,,,,,,,,,,,,,,,,,,,,,sub-029,1,stroop_test,60.294906730034,
test,red,r,1.0,0.0,0.0,0.0,r,1.0,1.1252287080005772,,,,,,,,,,,,,,,,,,0.0,0.0,0.0,0.0,,,,,,,,,9.592337582000257,,,,,,,,,,,,,,,,,9.575646518000212,10.77575433200036,11.578858266999305,11.558477337999648,11.56571047199941,11.578858266999305,11.578858266999305,12.708990529999936,r,1.0,1.1252287080005772,,,,,,,,,,,,,,,,,,,,,,,,,,,,,,,,,,,,,,,sub-029,1,stroop_test,60.294906730034,
test,blue,b,1.0,1.0,1.0,0.0,b,1.0,0.6238197130005574,,,,,,,,,,,,,,,,,,0.0,1.0,1.0,2.0,,,,,,,,,12.724602943999344,,,,,,,,,,,,,,,,,12.70926650399997,12.808287064999604,13.607971557999916,13.591765254001077,13.592443239000204,13.607971557999916,13.607971557999916,14.241406323000774,b,1.0,0.6238197130005574,,,,,,,,,,,,,,,,,,,,,,,,,,,,,,,,,,,,,,,sub-029,1,stroop_test,60.294906730034,
test,yellow,g,1.0,2.0,2.0,0.0,g,1.0,0.4047220009997545,,,,,,,,,,,,,,,,,,0.0,2.0,2.0,1.0,,,,,,,,,14.257110415999705,,,,,,,,,,,,,,,,,14.2416711019996,14.591240723000736,15.39136841599975,15.374983387000611,15.375708919000315,15.39136841599975,15.39136841599975,15.809305565000614,g,1.0,0.4047220009997545,,,,,,,,,,,,,,,,,,,,,,,,,,,,,,,,,,,,,,,sub-029,1,stroop_test,60.294906730034,
test,red,r,1.0,3.0,0.0,1.0,r,1.0,0.4562560180002037,,,,,,,,,,,,,,,,,,1.0,0.0,3.0,0.0,,,,,,,,,15.825681747001,,,,,,,,,,,,,,,,,15.80976272999942,16.623790474000998,17.424634921999314,17.408619547000853,17.40932492200045,17.424634921999314,17.424634921999314,17.891964001000815,r,1.0,0.4562560180002037,,,,,,,,,,,,,,,,,,,,,,,,,,,,,,,,,,,,,,,sub-029,1,stroop_test,60.294906730034,
test,blue,b,1.0,4.0,1.0,1.0,b,1.0,0.4117744049999601,,,,,,,,,,,,,,,,,,1.0,1.0,4.0,2.0,,,,,,,,,17.908080768000218,,,,,,,,,,,,,,,,,17.892287511000177,18.24129438899945,19.04121718600072,19.02493401100037,19.02560732500024,19.04121718600072,19.04121718600072,19.459054826000283,b,1.0,0.4117744049999601,,,,,,,,,,,,,,,,,,,,,,,,,,,,,,,,,,,,,,,sub-029,1,stroop_test,60.294906730034,
test,yellow,g,1.0,5.0,2.0,1.0,g,1.0,0.2453443089998472,,,,,,,,,,,,,,,,,,1.0,2.0,5.0,1.0,,,,,,,,,19.474561061000717,,,,,,,,,,,,,,,,,19.45933213600074,19.82458897800097,20.624470177001054,20.60776887599968,20.608170384000918,20.624470177001054,20.624470177001054,20.874872865000725,g,1.0,0.2453443089998472,,,,,,,,,,,,,,,,,,,,,,,,,,,,,,,,,,,,,,,sub-029,1,stroop_test,60.294906730034,
test,blue,b,1.0,6.0,0.0,2.0,b,1.0,0.6929712359997211,,,,,,,,,,,,,,,,,,2.0,0.0,6.0,2.0,,,,,,,,,20.89321289700092,,,,,,,,,,,,,,,,,20.875243004000367,21.22485737399984,22.024680243001058,22.00825764900037,22.008927627999583,22.024680243001058,22.024680243001058,22.72550075199979,b,1.0,0.6929712359997211,,,,,,,,,,,,,,,,,,,,,,,,,,,,,,,,,,,,,,,sub-029,1,stroop_test,60.294906730034,
test,red,r,1.0,7.0,1.0,2.0,r,1.0,0.541868673000863,,,,,,,,,,,,,,,,,,2.0,1.0,7.0,0.0,,,,,,,,,22.740848769999506,,,,,,,,,,,,,,,,,22.725912555999457,23.09041713700026,23.891028005000408,23.874470879,23.87486263900064,23.891028005000408,23.891028005000408,24.441756276999516,r,1.0,0.541868673000863,,,,,,,,,,,,,,,,,,,,,,,,,,,,,,,,,,,,,,,sub-029,1,stroop_test,60.294906730034,
test,yellow,g,1.0,8.0,2.0,2.0,g,1.0,0.3463046349988872,,,,,,,,,,,,,,,,,,2.0,2.0,8.0,1.0,,,,,,,,,24.45763716700094,,,,,,,,,,,,,,,,,24.44202607800071,25.240346569000398,26.042355655999927,26.025493135000943,26.02624148200084,26.042355655999927,26.042355655999927,26.39277032800055,g,1.0,0.3463046349988872,,,,,,,,,,,,,,,,,,,,,,,,,,,,,,,,,,,,,,,sub-029,1,stroop_test,60.294906730034,
test,blue,b,1.0,9.0,0.0,3.0,b,1.0,0.4043686370005162,,,,,,,,,,,,,,,,,,3.0,0.0,9.0,2.0,,,,,,,,,26.40867520599932,,,,,,,,,,,,,,,,,26.39320824599963,26.50810445299976,27.308465449999854,27.29195359400001,27.29263280499981,27.308465449999854,27.308465449999854,27.7257993660005,b,1.0,0.4043686370005162,,,,,,,,,,,,,,,,,,,,,,,,,,,,,,,,,,,,,,,sub-029,1,stroop_test,60.294906730034,
test,red,r,1.0,10.0,1.0,3.0,r,1.0,0.4355989550003869,,,,,,,,,,,,,,,,,,3.0,1.0,10.0,0.0,,,,,,,,,27.74172756400003,,,,,,,,,,,,,,,,,27.72606386699954,28.524790945999484,29.32505929800027,29.308495127999777,29.30942572300046,29.32505929800027,29.32505929800027,29.774995163999847,r,1.0,0.4355989550003869,,,,,,,,,,,,,,,,,,,,,,,,,,,,,,,,,,,,,,,sub-029,1,stroop_test,60.294906730034,
test,yellow,g,1.0,11.0,2.0,3.0,g,1.0,0.2958430919989041,,,,,,,,,,,,,,,,,,3.0,2.0,11.0,1.0,,,,,,,,,29.79095001300084,,,,,,,,,,,,,,,,,29.775267402999816,30.125324431999616,30.92570720399999,30.90907486499964,30.91001836800024,30.92570720399999,30.92570720399999,31.22584911800004,g,1.0,0.2958430919989041,,,,,,,,,,,,,,,,,,,,,,,,,,,,,,,,,,,,,,,sub-029,1,stroop_test,60.294906730034,
,,,,,,,,,,,,,,,,,,,,,,,,,,,,,,,,,,,,,,,,,,,,,,,,,,,,,,,,,,,,,,,,,,,,31.22603415500089,31.24261821899927,31.24261821899927,32.72618029499972,space,1.481852869001159,,,,,,,,,,,,,,,,,,,,,,,,,,,,,,,,sub-029,1,stroop_test,60.294906730034,
,,,,0.0,0.0,0.0,,,,,gelb,blue,b,0.0,b,1.0,0.6933463069999561,,,,,,,,,,,,,,0.0,0.0,0.0,9.0,,,,,32.748746810999364,,,,,,,,,,,,,,,,,32.73782691800079,33.091016394999315,33.89422379899952,33.87466618700091,,,,,,,,,,,,,,,,33.880274659999486,33.89422379899952,33.89422379899952,34.59213884900055,b,1.0,0.6933463069999561,,34.597021812000094,34.61208870399969,35.60795886300002,,,,,,,,,,,,,,,,,,,,sub-029,1,stroop_test,60.294906730034,
,,,,1.0,1.0,0.0,,,,,rot,red,r,1.0,g,0.0,0.529717907000304,,,,,,,,,,,,,,0.0,1.0,1.0,1.0,,,,,35.62440651699944,,,,,,,,,,,,,,,,,35.60842857699936,36.790788771000734,37.59416218300066,37.57453319100023,,,,,,,,,,,,,,,,37.58007714300038,37.59416218300066,37.59416218300066,38.125603327000135,g,0.0,0.529717907000304,,38.129641638000976,38.14357064400065,39.14124804200037,,,,,,,,,,,,,,,,,,,,sub-029,1,stroop_test,60.294906730034,
,,,,2.0,2.0,0.0,,,,,rot,yellow,g,0.0,g,1.0,0.8583053450001898,,,,,,,,,,,,,,0.0,2.0,2.0,3.0,,,,,39.15694993199941,,,,,,,,,,,,,,,,,39.14155382200079,39.49078897000072,40.29105518799952,40.27489294000043,,,,,,,,,,,,,,,,40.27575519700076,40.29105518799952,40.29105518799952,41.15809031000026,g,1.0,0.8583053450001898,,41.16113798399965,41.17738410600032,42.17444494399933,,,,,,,,,,,,,,,,,,,,sub-029,1,stroop_test,60.294906730034,
,,,,3.0,3.0,0.0,,,,,gelb,red,r,0.0,r,1.0,1.1305114349997891,,,,,,,,,,,,,,0.0,3.0,3.0,8.0,,,,,42.19044639800086,,,,,,,,,,,,,,,,,42.17497637300039,42.50748537300024,43.308627028000046,43.29145682700073,,,,,,,,,,,,,,,,43.29452322200086,43.308627028000046,43.308627028000046,44.44175494299998,r,1.0,1.1305114349997891,,44.44224918799955,44.45829373699962,45.4416203109995,45.45748285400077,,,,,,,,,,,,,,,,,,,sub-029,1,stroop_test,60.294906730034,
,,,,4.0,4.0,0.0,,,,,blau,yellow,g,0.0,g,1.0,1.3542377850008052,,,,,,,,,,,,,,0.0,4.0,4.0,7.0,,,,,45.45748285400077,,,,,,,,,,,,,,,,,45.442058149999866,46.64071155599959,47.44321779600068,47.423784300999614,,,,,,,,,,,,,,,,47.42823711600067,47.44321779600068,47.44321779600068,48.80801464199976,g,1.0,1.3542377850008052,,48.8085386290004,48.82517676300085,49.82419880499947,,,,,,,,,,,,,,,,,,,,sub-029,1,stroop_test,60.294906730034,
,,,,5.0,5.0,0.0,,,,,blau,red,r,0.0,r,1.0,1.1395856470007857,,,,,,,,,,,,,,0.0,5.0,5.0,4.0,,,,,49.84065718000056,,,,,,,,,,,,,,,,,49.82471050000095,50.60754543099938,51.40752013100064,51.39084872400053,,,,,,,,,,,,,,,,51.39167956200072,51.40752013100064,51.40752013100064,52.55926128099964,r,1.0,1.1395856470007857,,52.56000952199975,52.576674183999785,53.57427723000001,,,,,,,,,,,,,,,,,,,,sub-029,1,stroop_test,60.294906730034,
,,,,6.0,6.0,0.0,,,,,blau,blue,b,1.0,b,1.0,0.4809809739999764,,,,,,,,,,,,,,0.0,6.0,6.0,6.0,,,,,53.59074854000028,,,,,,,,,,,,,,,,,53.57475504300055,54.374331899000026,55.173906975000136,55.15686368599927,,,,,,,,,,,,,,,,55.15724982900065,55.173906975000136,55.173906975000136,55.65841859000102,b,1.0,0.4809809739999764,,55.65893870400032,55.6749379970006,56.65804161900087,56.67429979900044,,,,,,,,,,,,,,,,,,,sub-029,1,stroop_test,60.294906730034,
,,,,7.0,7.0,0.0,,,,,blau,blue,b,1.0,b,1.0,0.5899268100001791,,,,,,,,,,,,,,0.0,7.0,7.0,5.0,,,,,56.67429979900044,,,,,,,,,,,,,,,,,56.65847312200094,57.47397148699929,58.273977725000805,58.25781407700015,,,,,,,,,,,,,,,,58.258475710999846,58.273977725000805,58.273977725000805,58.874679515000025,b,1.0,0.5899268100001791,,58.87520367800062,58.89122624999982,59.8743966410002,59.89063052799975,,,,,,,,,,,,,,,,,,,sub-029,1,stroop_test,60.294906730034,
,,,,8.0,8.0,0.0,,,,,gelb,yellow,g,1.0,g,1.0,0.7559224979995633,,,,,,,,,,,,,,0.0,8.0,8.0,11.0,,,,,59.89063052799975,,,,,,,,,,,,,,,,,59.874832514000445,60.224107598000046,61.02420191999954,61.007648413000425,,,,,,,,,,,,,,,,61.01073891799933,61.02420191999954,61.02420191999954,61.79111060000105,g,1.0,0.7559224979995633,,61.79173850799998,61.80906505100029,62.80790553900079,,,,,,,,,,,,,,,,,,,,sub-029,1,stroop_test,60.294906730034,
,,,,9.0,9.0,0.0,,,,,rot,red,r,1.0,r,1.0,0.4638710990002437,,,,,,,,,,,,,,0.0,9.0,9.0,0.0,,,,,62.82331185700059,,,,,,,,,,,,,,,,,62.80832957200073,63.59066431199972,64.3928233330007,64.37434572100028,,,,,,,,,,,,,,,,64.37870603600095,64.3928233330007,64.3928233330007,64.85834904399962,r,1.0,0.4638710990002437,,64.85881535100089,64.87482138700034,65.85761540000021,65.87435151300087,,,,,,,,,,,,,,,,,,,sub-029,1,stroop_test,60.294906730034,
,,,,10.0,10.0,0.0,,,,,gelb,yellow,g,1.0,r,0.0,0.6001921779989061,,,,,,,,,,,,,,0.0,10.0,10.0,10.0,,,,,65.87435151300087,,,,,,,,,,,,,,,,,65.85809539699949,66.67417590500008,67.48999003000063,67.47330314999999,,,,,,,,,,,,,,,,67.47580265400029,67.48999003000063,67.48999003000063,68.09169591700083,r,0.0,0.6001921779989061,,68.09507624300022,68.10915698999997,69.10704569500012,,,,,,,,,,,,,,,,,,,,sub-029,1,stroop_test,60.294906730034,
,,,,11.0,11.0,0.0,,,,,rot,blue,b,0.0,b,1.0,1.1000701170014509,,,,,,,,,,,,,,0.0,11.0,11.0,2.0,,,,,69.12391161400046,,,,,,,,,,,,,,,,,69.10738566600048,70.30721872300091,71.10721312699934,71.09056160799992,,,,,,,,,,,,,,,,71.09286002199951,71.10721312699934,71.10721312699934,72.22480743699998,b,1.0,1.1000701170014509,,72.2272976460008,72.24288670200076,73.24002426300103,,,,,,,,,,,,,,,,,,,,sub-029,1,stroop_test,60.294906730034,
,,,,12.0,0.0,1.0,,,,,rot,red,r,1.0,r,1.0,1.0258356129997992,,,,,,,,,,,,,,1.0,0.0,12.0,0.0,,,,,73.2565084809994,,,,,,,,,,,,,,,,,73.24031401700086,73.34069753900076,74.13971246700021,74.12331501799963,,,,,,,,,,,,,,,,74.1237161680001,74.13971246700021,74.13971246700021,75.17439827700036,r,1.0,1.0258356129997992,,75.17481354899974,75.1903927479998,76.17427918999965,76.18983637299971,,,,,,,,,,,,,,,,,,,sub-029,1,stroop_test,60.294906730034,
,,,,13.0,1.0,1.0,,,,,rot,red,r,1.0,r,1.0,0.498880625998936,,,,,,,,,,,,,,1.0,1.0,13.0,1.0,,,,,76.18983637299971,,,,,,,,,,,,,,,,,76.17471893400034,76.97389520800061,77.77360833800049,77.75686099099948,,,,,,,,,,,,,,,,77.75725034400057,77.77360833800049,77.77360833800049,78.27397188400028,r,1.0,0.498880625998936,,78.27455748800094,78.29149349100044,79.27417052000055,79.2896931739997,,,,,,,,,,,,,,,,,,,sub-029,1,stroop_test,60.294906730034,
,,,,14.0,2.0,1.0,,,,,gelb,yellow,g,1.0,g,1.0,0.6101805460002652,,,,,,,,,,,,,,1.0,2.0,14.0,11.0,,,,,79.2896931739997,,,,,,,,,,,,,,,,,79.27460592699936,79.37381416000062,80.17598085300051,80.15756879500077,,,,,,,,,,,,,,,,80.1615606409996,80.17598085300051,80.17598085300051,80.79139814500013,g,1.0,0.6101805460002652,,80.79203666000103,80.80809290999969,81.7913539000001,81.80735631599964,,,,,,,,,,,,,,,,,,,sub-029,1,stroop_test,60.294906730034,
,,,,15.0,3.0,1.0,,,,,blau,blue,b,1.0,b,1.0,0.4534962010002346,,,,,,,,,,,,,,1.0,3.0,15.0,6.0,,,,,81.80735631599964,,,,,,,,,,,,,,,,,81.79180931399969,83.00706893300048,83.80885098600083,83.79105562900077,,,,,,,,,,,,,,,,83.79535619300077,83.80885098600083,83.80885098600083,84.27387138800077,b,1.0,0.4534962010002346,,84.27429821499936,84.29057052200005,85.27375423400008,85.29042468999978,,,,,,,,,,,,,,,,,,,sub-029,1,stroop_test,60.294906730034,
,,,,16.0,4.0,1.0,,,,,blau,blue,b,1.0,b,1.0,0.4842186739988392,,,,,,,,,,,,,,1.0,4.0,16.0,5.0,,,,,85.29042468999978,,,,,,,,,,,,,,,,,85.27407018799931,86.07369393299996,86.87375310900097,86.85729440700015,,,,,,,,,,,,,,,,86.85819920500035,86.87375310900097,86.87375310900097,87.37380529999973,b,1.0,0.4842186739988392,,87.37429181399966,87.39066093499969,88.37408845199934,88.39018800899976,,,,,,,,,,,,,,,,,,,sub-029,1,stroop_test,60.294906730034,
,,,,17.0,5.0,1.0,,,,,gelb,red,r,0.0,r,1.0,0.6887309880003158,,,,,,,,,,,,,,1.0,5.0,17.0,8.0,,,,,88.39018800899976,,,,,,,,,,,,,,,,,88.37454731300022,89.57310455700099,90.3744001720006,90.35716947000036,,,,,,,,,,,,,,,,90.36012768600084,90.3744001720006,90.3744001720006,91.07453965199966,r,1.0,0.6887309880003158,,91.07496315800016,91.09145407300092,92.09045880200028,,,,,,,,,,,,,,,,,,,,sub-029,1,stroop_test,60.294906730034,
,,,,18.0,6.0,1.0,,,,,rot,yellow,g,0.0,g,1.0,0.6629756840011396,,,,,,,,,,,,,,1.0,6.0,18.0,3.0,,,,,92.10702098699949,,,,,,,,,,,,,,,,,92.090929375001,93.27366485899984,94.07296815500013,94.05684416199983,,,,,,,,,,,,,,,,94.05905352300032,94.07296815500013,94.07296815500013,94.7412886080001,g,1.0,0.6629756840011396,,94.74186177900084,94.75770616000044,95.74070784300056,95.75697041700003,,,,,,,,,,,,,,,,,,,sub-029,1,stroop_test,60.294906730034,
,,,,19.0,7.0,1.0,,,,,gelb,yellow,g,1.0,g,1.0,0.4734148110001115,,,,,,,,,,,,,,1.0,7.0,19.0,10.0,,,,,95.75697041700003,,,,,,,,,,,,,,,,,95.74118836100024,96.55692367899974,97.35846218299956,97.34057142500023,,,,,,,,,,,,,,,,97.34488731199964,97.35846218299956,97.35846218299956,97.84096242300076,g,1.0,0.4734148110001115,,97.84137849400032,97.85785700899942,98.84079227800066,98.85710168100012,,,,,,,,,,,,,,,,,,,sub-029,1,stroop_test,60.294906730034,
,,,,20.0,8.0,1.0,,,,,blau,yellow,g,0.0,g,1.0,0.6648589420001372,,,,,,,,,,,,,,1.0,8.0,20.0,7.0,,,,,98.85710168100012,,,,,,,,,,,,,,,,,98.84122786999978,100.04059119200063,100.84279902100025,100.82431500100029,,,,,,,,,,,,,,,,100.82821763399988,100.84279902100025,100.84279902100025,101.52395867499943,g,1.0,0.6648589420001372,,101.5244743940002,101.54078784900048,102.5239802039996,102.54004641400024,,,,,,,,,,,,,,,,,,,sub-029,1,stroop_test,60.294906730034,
,,,,21.0,9.0,1.0,,,,,gelb,blue,b,0.0,b,1.0,0.4117522929991537,,,,,,,,,,,,,,1.0,9.0,21.0,9.0,,,,,102.54004641400024,,,,,,,,,,,,,,,,,102.52441980100048,103.32350544200015,104.12494317799974,104.10749170300004,,,,,,,,,,,,,,,,104.11142371800088,104.12494317799974,104.12494317799974,104.54122026500043,b,1.0,0.4117522929991537,,104.54184814600012,104.5569784620002,105.54042772600042,105.5565542380009,,,,,,,,,,,,,,,,,,,sub-029,1,stroop_test,60.294906730034,
,,,,22.0,10.0,1.0,,,,,blau,red,r,0.0,r,1.0,0.7365445420000469,,,,,,,,,,,,,,1.0,10.0,22.0,4.0,,,,,105.5565542380009,,,,,,,,,,,,,,,,,105.54088871600106,106.75690109700008,107.55817193300028,107.54022172499936,,,,,,,,,,,,,,,,107.54470201299956,107.55817193300028,107.55817193300028,108.3079429190002,r,1.0,0.7365445420000469,,108.30836434400044,108.32459345499956,109.3233828329994,,,,,,,,,,,,,,,,,,,,sub-029,1,stroop_test,60.294906730034,
,,,,23.0,11.0,1.0,,,,,rot,blue,b,0.0,b,1.0,1.1346939080012817,,,,,,,,,,,,,,1.0,11.0,23.0,2.0,,,,,109.33915350000098,,,,,,,,,,,,,,,,,109.32377494700086,109.67341303899956,110.47483609899972,110.45701564299998,,,,,,,,,,,,,,,,110.46120049000092,110.47483609899972,110.47483609899972,111.62334445399938,b,1.0,1.1346939080012817,,111.6237755309994,111.6400777580002,112.6235402830007,,,,,,,,,,,,,,,,,,,,sub-029,1,stroop_test,60.294906730034,
,,,,,,,,,,,,,,,,,,,,,,,,,,,,,,,,,,,,,,,,,,,,,,,,,,,,,,,,,,,,,,,,,,,,,,,,,,,,,,,,,,,,,,,112.6237341720007,112.64054005900108,112.64054005900108,113.49178136199951,space,0.8343960500005778,,,,,,,,,,,,,sub-029,1,stroop_test,60.294906730034,
,,,,0.0,0.0,0.0,,,,,,,,,,,,,gelb,yellow,g,1.0,g,1.0,0.6097036459996161,,,,,,,,,,0.0,0.0,0.0,10.0,113.51499445400076,,,,,,,,,,,,,,,,,113.504540078,114.3067238019994,115.1087754729997,115.09030820599946,,,,,,,,,,,,,,,,,,,,,,,,,,,,,,,,,,,115.09430755200084,115.1087754729997,115.1087754729997,115.7241328580003,g,1.0,0.6097036459996161,,,,,sub-029,1,stroop_test,60.294906730034,
,,,,1.0,1.0,0.0,,,,,,,,,,,,,gelb,red,r,0.0,r,1.0,0.5230653629987501,,,,,,,,,,0.0,1.0,1.0,8.0,115.73986740600049,,,,,,,,,,,,,,,,,115.72444493500008,115.8233185450008,116.62320877000091,116.60693589100084,,,,,,,,,,,,,,,,,,,,,,,,,,,,,,,,,,,116.60761490200092,116.62320877000091,116.62320877000091,117.15817475599944,r,1.0,0.5230653629987501,,,,,sub-029,1,stroop_test,60.294906730034,
,,,,2.0,2.0,0.0,,,,,,,,,,,,,rot,yellow,g,0.0,g,1.0,1.6830248049991496,,,,,,,,,,0.0,2.0,2.0,3.0,117.17442188099994,,,,,,,,,,,,,,,,,117.15869597100028,117.2733723450001,118.0750196299996,118.05698275599934,,,,,,,,,,,,,,,,,,,,,,,,,,,,,,,,,,,118.06090236499948,118.0750196299996,118.0750196299996,119.77458210000076,g,1.0,1.6830248049991496,,,,,sub-029,1,stroop_test,60.294906730034,
,,,,3.0,3.0,0.0,,,,,,,,,,,,,blau,yellow,g,0.0,g,1.0,0.6998511159999907,,,,,,,,,,0.0,3.0,3.0,7.0,119.79096795700023,,,,,,,,,,,,,,,,,119.77511065900036,119.8730930340007,120.67526214600002,120.65692577499976,,,,,,,,,,,,,,,,,,,,,,,,,,,,,,,,,,,120.6613098960006,120.67526214600002,120.67526214600002,121.3911702130008,g,1.0,0.6998511159999907,,,,,sub-029,1,stroop_test,60.294906730034,
,,,,4.0,4.0,0.0,,,,,,,,,,,,,gelb,yellow,g,1.0,g,1.0,0.4960108870000113,,,,,,,,,,0.0,4.0,4.0,11.0,121.40841847699994,,,,,,,,,,,,,,,,,121.39169215400034,122.60587708899948,123.40896347700073,123.39018984299946,,,,,,,,,,,,,,,,,,,,,,,,,,,,,,,,,,,123.39416644499944,123.40896347700073,123.40896347700073,123.90843246300028,g,1.0,0.4960108870000113,,,,,sub-029,1,stroop_test,60.294906730034,
,,,,5.0,5.0,0.0,,,,,,,,,,,,,rot,blue,b,0.0,b,1.0,1.1472059970001285,,,,,,,,,,0.0,5.0,5.0,2.0,123.9231175090008,,,,,,,,,,,,,,,,,123.90879563999988,124.27310984900032,125.07477237199964,125.05696621100104,,,,,,,,,,,,,,,,,,,,,,,,,,,,,,,,,,,125.06088237100084,125.07477237199964,125.07477237199964,126.2240830390001,b,1.0,1.1472059970001285,,,,,sub-029,1,stroop_test,60.294906730034,
,,,,6.0,6.0,0.0,,,,,,,,,,,,,rot,red,r,1.0,r,1.0,0.4948721020009543,,,,,,,,,,0.0,6.0,6.0,0.0,126.239745537001,,,,,,,,,,,,,,,,,126.22445533700012,127.42354490700018,128.2231615719993,128.20681709699966,,,,,,,,,,,,,,,,,,,,,,,,,,,,,,,,,,,128.20749399799934,128.2231615719993,128.2231615719993,128.72398151800007,r,1.0,0.4948721020009543,,,,,sub-029,1,stroop_test,60.294906730034,
,,,,7.0,7.0,0.0,,,,,,,,,,,,,blau,blue,b,1.0,b,1.0,0.3346539999984088,,,,,,,,,,0.0,7.0,7.0,5.0,128.73966329200084,,,,,,,,,,,,,,,,,128.72436170999936,129.92304687599972,130.72430132999943,130.7067639550005,,,,,,,,,,,,,,,,,,,,,,,,,,,,,,,,,,,130.7107924310003,130.72430132999943,130.72430132999943,131.0747183120002,b,1.0,0.3346539999984088,,,,,sub-029,1,stroop_test,60.294906730034,
,,,,8.0,8.0,0.0,,,,,,,,,,,,,blau,blue,b,1.0,b,1.0,0.4831006659987906,,,,,,,,,,0.0,8.0,8.0,6.0,131.0907725140005,,,,,,,,,,,,,,,,,131.0752425139999,131.18965170500087,131.98967660000017,131.97367876700082,,,,,,,,,,,,,,,,,,,,,,,,,,,,,,,,,,,131.97434723700098,131.98967660000017,131.98967660000017,132.4741258060003,b,1.0,0.4831006659987906,,,,,sub-029,1,stroop_test,60.294906730034,
,,,,9.0,9.0,0.0,,,,,,,,,,,,,rot,red,r,1.0,r,1.0,0.8020679809997091,,,,,,,,,,0.0,9.0,9.0,1.0,132.48956831100077,,,,,,,,,,,,,,,,,132.4745163610005,133.68897436100087,134.49098706100085,134.4731734220004,,,,,,,,,,,,,,,,,,,,,,,,,,,,,,,,,,,134.4773040250002,134.49098706100085,134.49098706100085,135.3072235189993,r,1.0,0.8020679809997091,,,,,sub-029,1,stroop_test,60.294906730034,
,,,,10.0,10.0,0.0,,,,,,,,,,,,,blau,red,r,0.0,r,1.0,0.6828164149992517,,,,,,,,,,0.0,10.0,10.0,4.0,135.3225940070006,,,,,,,,,,,,,,,,,135.3075882030007,135.6563921020006,136.4588628370002,136.4402262599997,,,,,,,,,,,,,,,,,,,,,,,,,,,,,,,,,,,136.44421835600042,136.4588628370002,136.4588628370002,137.1572718869993,r,1.0,0.6828164149992517,,,,,sub-029,1,stroop_test,60.294906730034,
,,,,11.0,11.0,0.0,,,,,,,,,,,,,gelb,blue,b,0.0,b,1.0,0.4446246730003622,,,,,,,,,,0.0,11.0,11.0,9.0,137.172690591,,,,,,,,,,,,,,,,,137.15764424500048,138.35626572799993,139.15811126399967,139.14021608599978,,,,,,,,,,,,,,,,,,,,,,,,,,,,,,,,,,,139.1459745989996,139.15811126399967,139.15811126399967,139.6070383919996,b,1.0,0.4446246730003622,,,,,sub-029,1,stroop_test,60.294906730034,
,,,,12.0,0.0,1.0,,,,,,,,,,,,,gelb,yellow,g,1.0,g,1.0,0.3463127499999245,,,,,,,,,,1.0,0.0,12.0,11.0,139.6224241079999,,,,,,,,,,,,,,,,,139.60736762399938,140.40639328399993,141.20643627400025,141.18984046300102,,,,,,,,,,,,,,,,,,,,,,,,,,,,,,,,,,,141.19051683500038,141.20643627400025,141.20643627400025,141.55718427099964,g,1.0,0.3463127499999245,,,,,sub-029,1,stroop_test,60.294906730034,
,,,,13.0,1.0,1.0,,,,,,,,,,,,,blau,blue,b,1.0,g,0.0,0.5190546219982934,,,,,,,,,,1.0,1.0,13.0,5.0,141.57282599599966,,,,,,,,,,,,,,,,,141.55748361000042,141.6563270250008,142.45544819099996,142.43898949100003,,,,,,,,,,,,,,,,,,,,,,,,,,,,,,,,,,,142.44120746800036,142.45544819099996,142.45544819099996,142.99106572100027,g,0.0,0.5190546219982934,,,,,sub-029,1,stroop_test,60.294906730034,
,,,,14.0,2.0,1.0,,,,,,,,,,,,,blau,red,r,0.0,r,1.0,0.6920141150003474,,,,,,,,,,1.0,2.0,14.0,4.0,143.00712290800038,,,,,,,,,,,,,,,,,142.99158885299948,144.20614201399985,145.00637217199983,144.9899384700002,,,,,,,,,,,,,,,,,,,,,,,,,,,,,,,,,,,144.99060602899954,145.00637217199983,145.00637217199983,145.7067600270002,r,1.0,0.6920141150003474,,,,,sub-029,1,stroop_test,60.294906730034,
,,,,15.0,3.0,1.0,,,,,,,,,,,,,rot,blue,b,0.0,b,1.0,1.7381869229993754,,,,,,,,,,1.0,3.0,15.0,2.0,145.72254940700077,,,,,,,,,,,,,,,,,145.70706849899943,145.80621854200035,146.60827289600093,146.58990751900092,,,,,,,,,,,,,,,,,,,,,,,,,,,,,,,,,,,146.59379891299977,146.60827289600093,146.60827289600093,148.357144652,b,1.0,1.7381869229993754,,,,,sub-029,1,stroop_test,60.294906730034,
,,,,16.0,4.0,1.0,,,,,,,,,,,,,blau,yellow,g,0.0,g,1.0,0.5848810449988378,,,,,,,,,,1.0,4.0,16.0,7.0,148.37286859900087,,,,,,,,,,,,,,,,,148.35756345200025,148.70666612900095,149.50755705700067,149.49006842500057,,,,,,,,,,,,,,,,,,,,,,,,,,,,,,,,,,,149.49342284700106,149.50755705700067,149.50755705700067,150.10732350800026,g,1.0,0.5848810449988378,,,,,sub-029,1,stroop_test,60.294906730034,
,,,,17.0,5.0,1.0,,,,,,,,,,,,,gelb,red,r,0.0,r,1.0,0.7882835529999284,,,,,,,,,,1.0,5.0,17.0,8.0,150.12331205900043,,,,,,,,,,,,,,,,,150.1076248949994,151.32242154900086,152.12495635599953,152.10660162500062,,,,,,,,,,,,,,,,,,,,,,,,,,,,,,,,,,,152.11055378899982,152.12495635599953,152.12495635599953,152.92430376499942,r,1.0,0.7882835529999284,,,,,sub-029,1,stroop_test,60.294906730034,
,,,,18.0,6.0,1.0,,,,,,,,,,,,,gelb,yellow,g,1.0,g,1.0,0.8908672390007268,,,,,,,,,,1.0,6.0,18.0,10.0,152.94061217700073,,,,,,,,,,,,,,,,,152.92466989199966,153.28989515600006,154.08947195400106,154.07303930799935,,,,,,,,,,,,,,,,,,,,,,,,,,,,,,,,,,,154.07372251000015,154.08947195400106,154.08947195400106,154.98983011200107,g,1.0,0.8908672390007268,,,,,sub-029,1,stroop_test,60.294906730034,
,,,,19.0,7.0,1.0,,,,,,,,,,,,,gelb,blue,b,0.0,b,1.0,0.7822958470005688,,,,,,,,,,1.0,7.0,19.0,9.0,155.00588407500072,,,,,,,,,,,,,,,,,154.99013449300037,155.3394165970003,156.13917916500031,156.1228266140006,,,,,,,,,,,,,,,,,,,,,,,,,,,,,,,,,,,156.1232312789998,156.13917916500031,156.13917916500031,156.92332785399958,b,1.0,0.7822958470005688,,,,,sub-029,1,stroop_test,60.294906730034,
,,,,20.0,8.0,1.0,,,,,,,,,,,,,blau,blue,b,1.0,b,1.0,0.4902165539988345,,,,,,,,,,1.0,8.0,20.0,6.0,156.939523559,,,,,,,,,,,,,,,,,156.92378502000065,157.27202010600013,158.07483960399986,158.0562637210005,,,,,,,,,,,,,,,,,,,,,,,,,,,,,,,,,,,158.06060815000092,158.07483960399986,158.07483960399986,158.57331813400015,b,1.0,0.4902165539988345,,,,,sub-029,1,stroop_test,60.294906730034,
,,,,21.0,9.0,1.0,,,,,,,,,,,,,rot,red,r,1.0,r,1.0,0.6863811740004166,,,,,,,,,,1.0,9.0,21.0,1.0,158.58893412200086,,,,,,,,,,,,,,,,,158.57361822699932,159.7893078979996,160.59084201000042,160.5731329040009,,,,,,,,,,,,,,,,,,,,,,,,,,,,,,,,,,,160.57762898300098,160.59084201000042,160.59084201000042,161.2903050799996,r,1.0,0.6863811740004166,,,,,sub-029,1,stroop_test,60.294906730034,
,,,,22.0,10.0,1.0,,,,,,,,,,,,,rot,yellow,g,0.0,g,1.0,0.5339174330001697,,,,,,,,,,1.0,10.0,22.0,3.0,161.30663985499996,,,,,,,,,,,,,,,,,161.29063869200036,161.655387144001,162.45605267199971,162.43942613699983,,,,,,,,,,,,,,,,,,,,,,,,,,,,,,,,,,,162.43991499000003,162.45605267199971,162.45605267199971,163.00647387299978,g,1.0,0.5339174330001697,,,,,sub-029,1,stroop_test,60.294906730034,
,,,,23.0,11.0,1.0,,,,,,,,,,,,,rot,red,r,1.0,r,1.0,1.0707649559990386,,,,,,,,,,1.0,11.0,23.0,0.0,163.02247180999984,,,,,,,,,,,,,,,,,163.0067665890001,163.80599421599982,164.60548190699956,164.58920956700058,,,,,,,,,,,,,,,,,,,,,,,,,,,,,,,,,,,164.58968802900017,164.60548190699956,164.60548190699956,165.69073323200064,r,1.0,1.0707649559990386,,,,,sub-029,1,stroop_test,60.294906730034,
,,,,24.0,0.0,2.0,,,,,,,,,,,,,blau,red,r,0.0,r,1.0,0.7306042349991912,,,,,,,,,,2.0,0.0,24.0,4.0,165.70715674699932,,,,,,,,,,,,,,,,,165.69124702299996,166.505929981,167.3076508890008,167.2896544239993,,,,,,,,,,,,,,,,,,,,,,,,,,,,,,,,,,,167.29363871699934,167.3076508890008,167.3076508890008,168.040196897,r,1.0,0.7306042349991912,,,,,sub-029,1,stroop_test,60.294906730034,
,,,,25.0,1.0,2.0,,,,,,,,,,,,,blau,yellow,g,0.0,b,0.0,0.5825758099999803,,,,,,,,,,2.0,1.0,25.0,7.0,168.05566440700022,,,,,,,,,,,,,,,,,168.04055317600069,168.3891714679994,169.1892189379996,169.17290481599957,,,,,,,,,,,,,,,,,,,,,,,,,,,,,,,,,,,169.1735844800005,169.1892189379996,169.1892189379996,169.77352666700062,b,0.0,0.5825758099999803,,,,,sub-029,1,stroop_test,60.294906730034,
,,,,26.0,2.0,2.0,,,,,,,,,,,,,blau,blue,b,1.0,b,1.0,0.5584215290000429,,,,,,,,,,2.0,2.0,26.0,5.0,169.78924728700076,,,,,,,,,,,,,,,,,169.77389039000082,170.1224369219999,170.92249337000067,170.90596916200047,,,,,,,,,,,,,,,,,,,,,,,,,,,,,,,,,,,170.9063692769996,170.92249337000067,170.92249337000067,171.48965093600054,b,1.0,0.5584215290000429,,,,,sub-029,1,stroop_test,60.294906730034,
,,,,27.0,3.0,2.0,,,,,,,,,,,,,gelb,red,r,0.0,r,1.0,0.7168434659997729,,,,,,,,,,2.0,3.0,27.0,8.0,171.50565297899993,,,,,,,,,,,,,,,,,171.48997968000003,172.28922788199998,173.0908314820008,173.07285437500104,,,,,,,,,,,,,,,,,,,,,,,,,,,,,,,,,,,173.07714060500075,173.0908314820008,173.0908314820008,173.82414463500027,r,1.0,0.7168434659997729,,,,,sub-029,1,stroop_test,60.294906730034,
,,,,28.0,4.0,2.0,,,,,,,,,,,,,rot,blue,b,0.0,b,1.0,2.955492023000261,,,,,,,,,,2.0,4.0,28.0,2.0,173.84097898400069,,,,,,,,,,,,,,,,,173.8246684429996,174.6392101830006,175.43838074499945,175.42195214599997,,,,,,,,,,,,,,,,,,,,,,,,,,,,,,,,,,,175.42413068399946,175.43838074499945,175.43838074499945,178.4064160550006,b,1.0,2.955492023000261,,,,,sub-029,1,stroop_test,60.294906730034,
,,,,29.0,5.0,2.0,,,,,,,,,,,,,gelb,yellow,g,1.0,g,1.0,0.5471795430003112,,,,,,,,,,2.0,5.0,29.0,11.0,178.42283226499967,,,,,,,,,,,,,,,,,178.40675185100008,179.6058885780003,180.40779452199968,180.3893573500009,,,,,,,,,,,,,,,,,,,,,,,,,,,,,,,,,,,180.3933637930004,180.40779452199968,180.40779452199968,180.95676829900003,g,1.0,0.5471795430003112,,,,,sub-029,1,stroop_test,60.294906730034,
,,,,30.0,6.0,2.0,,,,,,,,,,,,,blau,blue,b,1.0,b,1.0,0.6287565359998553,,,,,,,,,,2.0,6.0,30.0,6.0,180.9724939320004,,,,,,,,,,,,,,,,,180.95713667100063,181.77231328699963,182.5738035510003,182.5560549590009,,,,,,,,,,,,,,,,,,,,,,,,,,,,,,,,,,,182.56007169300028,182.5738035510003,182.5738035510003,183.2066250099997,b,1.0,0.6287565359998553,,,,,sub-029,1,stroop_test,60.294906730034,
,,,,31.0,7.0,2.0,,,,,,,,,,,,,rot,yellow,g,0.0,g,1.0,0.8983688649987016,,,,,,,,,,2.0,7.0,31.0,3.0,183.22249712700068,,,,,,,,,,,,,,,,,183.2069962200003,183.57243370200013,184.37331478300075,184.35513847999937,,,,,,,,,,,,,,,,,,,,,,,,,,,,,,,,,,,184.35942017600064,184.37331478300075,184.37331478300075,185.27334182900088,g,1.0,0.8983688649987016,,,,,sub-029,1,stroop_test,60.294906730034,
,,,,32.0,8.0,2.0,,,,,,,,,,,,,rot,red,r,1.0,r,1.0,0.3382393530009722,,,,,,,,,,2.0,8.0,32.0,0.0,185.28865076200051,,,,,,,,,,,,,,,,,185.27367376700025,185.622220018,186.4214419639993,186.40683090099992,,,,,,,,,,,,,,,,,,,,,,,,,,,,,,,,,,,186.407261493001,186.4214419639993,186.4214419639993,186.7733169940002,r,1.0,0.3382393530009722,,,,,sub-029,1,stroop_test,60.294906730034,
,,,,33.0,9.0,2.0,,,,,,,,,,,,,rot,red,r,1.0,r,1.0,0.5776782489992911,,,,,,,,,,2.0,9.0,33.0,1.0,186.78879043100096,,,,,,,,,,,,,,,,,186.77367108100043,187.12244501399985,187.9227192420003,187.90703338499952,,,,,,,,,,,,,,,,,,,,,,,,,,,,,,,,,,,187.90771817099997,187.9227192420003,187.9227192420003,188.50655698300037,r,1.0,0.5776782489992911,,,,,sub-029,1,stroop_test,60.294906730034,
,,,,34.0,10.0,2.0,,,,,,,,,,,,,gelb,yellow,g,1.0,g,1.0,0.9767280429987296,,,,,,,,,,2.0,10.0,34.0,10.0,188.52256074400063,,,,,,,,,,,,,,,,,188.50696099000012,188.6215926700006,189.42469841000093,189.4068043999996,,,,,,,,,,,,,,,,,,,,,,,,,,,,,,,,,,,189.4108246970009,189.42469841000093,189.42469841000093,190.40756914300076,g,1.0,0.9767280429987296,,,,,sub-029,1,stroop_test,60.294906730034,
,,,,35.0,11.0,2.0,,,,,,,,,,,,,gelb,blue,b,0.0,r,0.0,0.496099491001587,,,,,,,,,,2.0,11.0,35.0,9.0,190.4226274499997,,,,,,,,,,,,,,,,,190.40787666799952,191.22249007000028,192.022293774,192.005995937001,,,,,,,,,,,,,,,,,,,,,,,,,,,,,,,,,,,192.0066768249999,192.022293774,192.022293774,192.5232822500002,r,0.0,0.496099491001587,,,,,sub-029,1,stroop_test,60.294906730034,
,,,,36.0,0.0,3.0,,,,,,,,,,,,,rot,red,r,1.0,r,1.0,0.6069314449996455,,,,,,,,,,3.0,0.0,36.0,1.0,192.53885081299995,,,,,,,,,,,,,,,,,192.5235874749997,192.6388867629994,193.44037901199957,193.4224714060001,,,,,,,,,,,,,,,,,,,,,,,,,,,,,,,,,,,193.42641930900027,193.44037901199957,193.44037901199957,194.05614303400037,r,1.0,0.6069314449996455,,,,,sub-029,1,stroop_test,60.294906730034,
,,,,37.0,1.0,3.0,,,,,,,,,,,,,rot,red,r,1.0,r,1.0,0.6412077000004501,,,,,,,,,,3.0,1.0,37.0,0.0,194.0720196580005,,,,,,,,,,,,,,,,,194.05645935900063,194.4059577829994,195.20607859200027,195.1892547959997,,,,,,,,,,,,,,,,,,,,,,,,,,,,,,,,,,,195.18993167400004,195.20607859200027,195.20607859200027,195.85588740300045,r,1.0,0.6412077000004501,,,,,sub-029,1,stroop_test,60.294906730034,
,,,,38.0,2.0,3.0,,,,,,,,,,,,,rot,blue,b,0.0,b,1.0,0.6753231640013837,,,,,,,,,,3.0,2.0,38.0,2.0,195.87204263500095,,,,,,,,,,,,,,,,,195.85618002500087,196.20558273499955,197.00567345200037,196.98903886600056,,,,,,,,,,,,,,,,,,,,,,,,,,,,,,,,,,,196.9897058879997,197.00567345200037,197.00567345200037,197.68932787999984,b,1.0,0.6753231640013837,,,,,sub-029,1,stroop_test,60.294906730034,
,,,,39.0,3.0,3.0,,,,,,,,,,,,,blau,yellow,g,0.0,g,1.0,0.4445268750005198,,,,,,,,,,3.0,3.0,39.0,7.0,197.7056924290009,,,,,,,,,,,,,,,,,197.68962951399956,198.03886715500084,198.84156481799985,198.8224193900005,,,,,,,,,,,,,,,,,,,,,,,,,,,,,,,,,,,198.82695086100105,198.84156481799985,198.84156481799985,199.2898171720008,g,1.0,0.4445268750005198,,,,,sub-029,1,stroop_test,60.294906730034,
,,,,40.0,4.0,3.0,,,,,,,,,,,,,gelb,yellow,g,1.0,g,1.0,0.7038179569990461,,,,,,,,,,3.0,4.0,40.0,10.0,199.30542399499973,,,,,,,,,,,,,,,,,199.290187255001,200.50537251100104,201.3070317540005,201.28916709700025,,,,,,,,,,,,,,,,,,,,,,,,,,,,,,,,,,,201.29317215899937,201.3070317540005,201.3070317540005,202.02303093699996,g,1.0,0.7038179569990461,,,,,sub-029,1,stroop_test,60.294906730034,
,,,,41.0,5.0,3.0,,,,,,,,,,,,,blau,red,r,0.0,r,1.0,1.0342154699992534,,,,,,,,,,3.0,5.0,41.0,4.0,202.0386159410009,,,,,,,,,,,,,,,,,202.0234113980005,202.13903546800063,202.94078576900029,202.92245181600083,,,,,,,,,,,,,,,,,,,,,,,,,,,,,,,,,,,202.92643096199936,202.94078576900029,202.94078576900029,203.98980824700084,r,1.0,1.0342154699992534,,,,,sub-029,1,stroop_test,60.294906730034,
,,,,42.0,6.0,3.0,,,,,,,,,,,,,gelb,yellow,g,1.0,g,1.0,0.9883351070002392,,,,,,,,,,3.0,6.0,42.0,11.0,204.005324926,,,,,,,,,,,,,,,,,203.99011274700024,204.08796900800007,204.8905108260005,204.8723181589994,,,,,,,,,,,,,,,,,,,,,,,,,,,,,,,,,,,204.87684467799957,204.8905108260005,204.8905108260005,205.88957192899943,g,1.0,0.9883351070002392,,,,,sub-029,1,stroop_test,60.294906730034,
,,,,43.0,7.0,3.0,,,,,,,,,,,,,blau,blue,b,1.0,b,1.0,0.3696768219997466,,,,,,,,,,3.0,7.0,43.0,5.0,205.90548667599975,,,,,,,,,,,,,,,,,205.8898920440006,206.2547351409994,207.0571971089994,207.0391909570008,,,,,,,,,,,,,,,,,,,,,,,,,,,,,,,,,,,207.04335153300053,207.0571971089994,207.0571971089994,207.43957629800025,b,1.0,0.3696768219997466,,,,,sub-029,1,stroop_test,60.294906730034,
,,,,44.0,8.0,3.0,,,,,,,,,,,,,blau,blue,b,1.0,b,1.0,0.4778166369997052,,,,,,,,,,3.0,8.0,44.0,6.0,207.45522766500108,,,,,,,,,,,,,,,,,207.4399046069993,208.23917449200053,209.03907170999992,209.0226349860004,,,,,,,,,,,,,,,,,,,,,,,,,,,,,,,,,,,209.0233020880005,209.03907170999992,209.03907170999992,209.5233350390008,b,1.0,0.4778166369997052,,,,,sub-029,1,stroop_test,60.294906730034,
,,,,45.0,9.0,3.0,,,,,,,,,,,,,gelb,blue,b,0.0,b,1.0,0.5650680489998194,,,,,,,,,,3.0,9.0,45.0,9.0,209.53931739499967,,,,,,,,,,,,,,,,,209.52363976800007,209.889185,210.6901531479998,210.67200351599968,,,,,,,,,,,,,,,,,,,,,,,,,,,,,,,,,,,210.67489391299927,210.6901531479998,210.6901531479998,211.25685210600025,b,1.0,0.5650680489998194,,,,,sub-029,1,stroop_test,60.294906730034,
,,,,46.0,10.0,3.0,,,,,,,,,,,,,rot,yellow,g,0.0,g,1.0,0.7270249889988918,,,,,,,,,,3.0,10.0,46.0,3.0,211.2724291859995,,,,,,,,,,,,,,,,,211.2571701880006,211.37222801200005,212.17462832400088,212.15608799999973,,,,,,,,,,,,,,,,,,,,,,,,,,,,,,,,,,,212.160017057,212.17462832400088,212.17462832400088,212.90644077499928,g,1.0,0.7270249889988918,,,,,sub-029,1,stroop_test,60.294906730034,
,,,,47.0,11.0,3.0,,,,,,,,,,,,,gelb,red,r,0.0,r,1.0,0.5307394949995796,,,,,,,,,,3.0,11.0,47.0,8.0,212.92261888400023,,,,,,,,,,,,,,,,,212.90674378699987,213.0216504420005,213.823880598,213.80564790100107,,,,,,,,,,,,,,,,,,,,,,,,,,,,,,,,,,,213.80991266300043,213.823880598,213.823880598,214.3562875730004,r,1.0,0.5307394949995796,,,,,sub-029,1,stroop_test,60.294906730034,
,,,,48.0,0.0,4.0,,,,,,,,,,,,,rot,red,r,1.0,r,1.0,0.5823808509994706,,,,,,,,,,4.0,0.0,48.0,1.0,214.3719192490007,,,,,,,,,,,,,,,,,214.35663710600056,215.57198213300035,216.37326619799933,216.3556924530003,,,,,,,,,,,,,,,,,,,,,,,,,,,,,,,,,,,216.359609946001,216.37326619799933,216.37326619799933,216.9724746560005,r,1.0,0.5823808509994706,,,,,sub-029,1,stroop_test,60.294906730034,
,,,,49.0,1.0,4.0,,,,,,,,,,,,,blau,red,r,0.0,r,1.0,0.4794715030002408,,,,,,,,,,4.0,1.0,49.0,4.0,216.98819071400067,,,,,,,,,,,,,,,,,216.97278248400107,217.0719576270003,217.87309561800063,217.85555749100055,,,,,,,,,,,,,,,,,,,,,,,,,,,,,,,,,,,217.8595723039998,217.87309561800063,217.87309561800063,218.35620293300053,r,1.0,0.4794715030002408,,,,,sub-029,1,stroop_test,60.294906730034,
,,,,50.0,2.0,4.0,,,,,,,,,,,,,blau,blue,b,1.0,b,1.0,0.7965780049999012,,,,,,,,,,4.0,2.0,50.0,5.0,218.37207443999975,,,,,,,,,,,,,,,,,218.35652811600085,219.57128156699943,220.37202978700043,220.3555662939998,,,,,,,,,,,,,,,,,,,,,,,,,,,,,,,,,,,220.3562329640008,220.37202978700043,220.37202978700043,221.17283781900005,b,1.0,0.7965780049999012,,,,,sub-029,1,stroop_test,60.294906730034,
,,,,51.0,3.0,4.0,,,,,,,,,,,,,gelb,red,r,0.0,r,1.0,0.8151309089989809,,,,,,,,,,4.0,3.0,51.0,8.0,221.18875281700093,,,,,,,,,,,,,,,,,221.17319743400003,221.27203754900077,222.07429700099965,222.05565501099957,,,,,,,,,,,,,,,,,,,,,,,,,,,,,,,,,,,222.06032227099968,222.07429700099965,222.07429700099965,222.9059143760005,r,1.0,0.8151309089989809,,,,,sub-029,1,stroop_test,60.294906730034,
,,,,52.0,4.0,4.0,,,,,,,,,,,,,blau,blue,b,1.0,b,1.0,0.638882774999729,,,,,,,,,,4.0,4.0,52.0,6.0,222.9211450019993,,,,,,,,,,,,,,,,,222.90621046900011,223.7052837089996,224.5066895420005,224.48882705100004,,,,,,,,,,,,,,,,,,,,,,,,,,,,,,,,,,,224.49316136299967,224.5066895420005,224.5066895420005,225.1561336499999,b,1.0,0.638882774999729,,,,,sub-029,1,stroop_test,60.294906730034,
,,,,53.0,5.0,4.0,,,,,,,,,,,,,gelb,yellow,g,1.0,g,1.0,0.3044024999999237,,,,,,,,,,4.0,5.0,53.0,11.0,225.17172085499988,,,,,,,,,,,,,,,,,225.1564385040001,226.3550748329999,227.1543879370001,227.13819836999937,,,,,,,,,,,,,,,,,,,,,,,,,,,,,,,,,,,227.14036381699952,227.1543879370001,227.1543879370001,227.47229592300027,g,1.0,0.3044024999999237,,,,,sub-029,1,stroop_test,60.294906730034,
,,,,54.0,6.0,4.0,,,,,,,,,,,,,rot,yellow,g,0.0,g,1.0,0.3943948159994761,,,,,,,,,,4.0,6.0,54.0,3.0,227.487526162,,,,,,,,,,,,,,,,,227.4725948640007,228.6717794190008,229.4733288290008,229.45561804300087,,,,,,,,,,,,,,,,,,,,,,,,,,,,,,,,,,,229.4595691480008,229.4733288290008,229.4733288290008,229.8726253490004,g,1.0,0.3943948159994761,,,,,sub-029,1,stroop_test,60.294906730034,
,,,,55.0,7.0,4.0,,,,,,,,,,,,,gelb,yellow,g,1.0,g,1.0,0.4706585969997832,,,,,,,,,,4.0,7.0,55.0,10.0,229.88774358699996,,,,,,,,,,,,,,,,,229.872939248,229.97104071800092,230.77094904800103,230.7546190289995,,,,,,,,,,,,,,,,,,,,,,,,,,,,,,,,,,,230.75695055100005,230.77094904800103,230.77094904800103,231.25608882400047,g,1.0,0.4706585969997832,,,,,sub-029,1,stroop_test,60.294906730034,
,,,,56.0,8.0,4.0,,,,,,,,,,,,,rot,blue,b,0.0,b,1.0,0.5273823470015486,,,,,,,,,,4.0,8.0,56.0,2.0,231.2714684729999,,,,,,,,,,,,,,,,,231.25645089499997,232.0720048660005,232.8716947550001,232.8548723189997,,,,,,,,,,,,,,,,,,,,,,,,,,,,,,,,,,,232.85794370099936,232.8716947550001,232.8716947550001,233.40697628599992,b,1.0,0.5273823470015486,,,,,sub-029,1,stroop_test,60.294906730034,
,,,,57.0,9.0,4.0,,,,,,,,,,,,,gelb,blue,b,0.0,b,1.0,0.3754390519989101,,,,,,,,,,4.0,9.0,57.0,9.0,233.4228131029995,,,,,,,,,,,,,,,,,233.40733336000085,233.7718075060002,234.57388152299973,234.5554585940008,,,,,,,,,,,,,,,,,,,,,,,,,,,,,,,,,,,234.55944032600016,234.57388152299973,234.57388152299973,234.9559959369999,b,1.0,0.3754390519989101,,,,,sub-029,1,stroop_test,60.294906730034,
,,,,58.0,10.0,4.0,,,,,,,,,,,,,rot,red,r,1.0,r,1.0,0.7241798309987644,,,,,,,,,,4.0,10.0,58.0,0.0,234.97267114600072,,,,,,,,,,,,,,,,,234.9564940300006,236.15551854600017,236.957074811,236.9391774630003,,,,,,,,,,,,,,,,,,,,,,,,,,,,,,,,,,,236.94426802999988,236.957074811,236.957074811,237.689249766001,r,1.0,0.7241798309987644,,,,,sub-029,1,stroop_test,60.294906730034,
,,,,59.0,11.0,4.0,,,,,,,,,,,,,blau,yellow,g,0.0,g,1.0,0.6986239550005848,,,,,,,,,,4.0,11.0,59.0,7.0,237.7047422859996,,,,,,,,,,,,,,,,,237.6895472010001,238.0384078139996,238.84139017500087,238.8222109170001,,,,,,,,,,,,,,,,,,,,,,,,,,,,,,,,,,,238.82683000399996,238.84139017500087,238.84139017500087,239.5563045529998,g,1.0,0.6986239550005848,,,,,sub-029,1,stroop_test,60.294906730034,
,,,,60.0,0.0,5.0,,,,,,,,,,,,,blau,red,r,0.0,b,0.0,1.2313986770004703,,,,,,,,,,5.0,0.0,60.0,4.0,239.57250402300087,,,,,,,,,,,,,,,,,239.55682288299977,239.6716807859993,240.4714681000005,240.45542155300063,,,,,,,,,,,,,,,,,,,,,,,,,,,,,,,,,,,240.4561008969995,240.4714681000005,240.4714681000005,241.7053838020001,b,0.0,1.2313986770004703,,,,,sub-029,1,stroop_test,60.294906730034,
,,,,61.0,1.0,5.0,,,,,,,,,,,,,blau,blue,b,1.0,b,1.0,0.4452469939988077,,,,,,,,,,5.0,1.0,61.0,6.0,241.72204967400103,,,,,,,,,,,,,,,,,241.7058254269996,242.0550158030001,242.8547931009998,242.83862755200064,,,,,,,,,,,,,,,,,,,,,,,,,,,,,,,,,,,242.83934015900013,242.8547931009998,242.8547931009998,243.30583239500083,b,1.0,0.4452469939988077,,,,,sub-029,1,stroop_test,60.294906730034,
,,,,62.0,2.0,5.0,,,,,,,,,,,,,gelb,yellow,g,1.0,g,1.0,0.7598075260011683,,,,,,,,,,5.0,2.0,62.0,10.0,243.3212442750009,,,,,,,,,,,,,,,,,243.30612919799933,243.40574597700103,244.2071506869997,244.1885862199997,,,,,,,,,,,,,,,,,,,,,,,,,,,,,,,,,,,244.19268700500103,244.2071506869997,244.2071506869997,244.97283213300037,g,1.0,0.7598075260011683,,,,,sub-029,1,stroop_test,60.294906730034,
,,,,63.0,3.0,5.0,,,,,,,,,,,,,rot,yellow,g,0.0,g,1.0,1.2230737320005574,,,,,,,,,,5.0,3.0,63.0,3.0,244.9888598510006,,,,,,,,,,,,,,,,,244.97313319900056,246.1887103589997,246.9905694959998,246.97236094599972,,,,,,,,,,,,,,,,,,,,,,,,,,,,,,,,,,,246.97626555100032,246.9905694959998,246.9905694959998,248.22237709600088,g,1.0,1.2230737320005574,,,,,sub-029,1,stroop_test,60.294906730034,
,,,,64.0,4.0,5.0,,,,,,,,,,,,,gelb,blue,b,0.0,r,0.0,0.6641399910004111,,,,,,,,,,5.0,4.0,64.0,9.0,248.23820433900076,,,,,,,,,,,,,,,,,248.22282525899936,248.571794933001,249.37448901800053,249.3556365320001,,,,,,,,,,,,,,,,,,,,,,,,,,,,,,,,,,,249.35989139999947,249.37448901800053,249.37448901800053,250.0400170539997,r,0.0,0.6641399910004111,,,,,sub-029,1,stroop_test,60.294906730034,
,,,,65.0,5.0,5.0,,,,,,,,,,,,,rot,red,r,1.0,r,1.0,0.5056625199995324,,,,,,,,,,5.0,5.0,65.0,0.0,250.05527360499943,,,,,,,,,,,,,,,,,250.04033526400053,250.40442973500103,251.2071836369996,251.18886156900044,,,,,,,,,,,,,,,,,,,,,,,,,,,,,,,,,,,251.19273659700048,251.2071836369996,251.2071836369996,251.72234902899984,r,1.0,0.5056625199995324,,,,,sub-029,1,stroop_test,60.294906730034,
,,,,66.0,6.0,5.0,,,,,,,,,,,,,rot,red,r,1.0,r,1.0,0.4595533940009773,,,,,,,,,,5.0,6.0,66.0,1.0,251.73848191900103,,,,,,,,,,,,,,,,,251.72266172700077,252.5219223000004,253.32197657100005,253.30556670999977,,,,,,,,,,,,,,,,,,,,,,,,,,,,,,,,,,,253.30624167899987,253.32197657100005,253.32197657100005,253.78940435100048,r,1.0,0.4595533940009773,,,,,sub-029,1,stroop_test,60.294906730034,
,,,,67.0,7.0,5.0,,,,,,,,,,,,,blau,yellow,g,0.0,g,1.0,0.6153357990006043,,,,,,,,,,5.0,7.0,67.0,7.0,253.8053893050001,,,,,,,,,,,,,,,,,253.7897064709996,254.58854192699985,255.39119751399997,255.3720967299996,,,,,,,,,,,,,,,,,,,,,,,,,,,,,,,,,,,255.3766314950008,255.39119751399997,255.39119751399997,256.0228790700003,g,1.0,0.6153357990006043,,,,,sub-029,1,stroop_test,60.294906730034,
,,,,68.0,8.0,5.0,,,,,,,,,,,,,gelb,red,r,0.0,r,1.0,0.9978097820003312,,,,,,,,,,5.0,8.0,68.0,8.0,256.03936131999944,,,,,,,,,,,,,,,,,256.02339768599995,256.8382247749996,257.6396608340001,257.62174798900014,,,,,,,,,,,,,,,,,,,,,,,,,,,,,,,,,,,257.62573265799983,257.6396608340001,257.6396608340001,258.63906186200074,r,1.0,0.9978097820003312,,,,,sub-029,1,stroop_test,60.294906730034,
,,,,69.0,9.0,5.0,,,,,,,,,,,,,rot,blue,b,0.0,b,1.0,0.8556081189999531,,,,,,,,,,5.0,9.0,69.0,2.0,258.6545145609998,,,,,,,,,,,,,,,,,258.639402017001,258.75471633300003,259.5559142250004,259.53821753600096,,,,,,,,,,,,,,,,,,,,,,,,,,,,,,,,,,,259.5421678019993,259.5559142250004,259.5559142250004,260.42291898499934,b,1.0,0.8556081189999531,,,,,sub-029,1,stroop_test,60.294906730034,
,,,,70.0,10.0,5.0,,,,,,,,,,,,,blau,blue,b,1.0,b,1.0,0.4919943770000827,,,,,,,,,,5.0,10.0,70.0,5.0,260.43923780099976,,,,,,,,,,,,,,,,,260.42346973500025,260.5378788950002,261.3405188300003,261.3215587850009,,,,,,,,,,,,,,,,,,,,,,,,,,,,,,,,,,,261.32570224899973,261.3405188300003,261.3405188300003,261.8393814760002,b,1.0,0.4919943770000827,,,,,sub-029,1,stroop_test,60.294906730034,
,,,,71.0,11.0,5.0,,,,,,,,,,,,,gelb,yellow,g,1.0,r,0.0,0.537774148000608,,,,,,,,,,5.0,11.0,71.0,11.0,261.8552637240009,,,,,,,,,,,,,,,,,261.839685717001,262.1885124519995,262.99155302799954,262.9722463470007,,,,,,,,,,,,,,,,,,,,,,,,,,,,,,,,,,,262.97640024999964,262.99155302799954,262.99155302799954,263.5391038230009,r,0.0,0.537774148000608,,,,,sub-029,1,stroop_test,60.294906730034,
,,,,72.0,0.0,6.0,,,,,,,,,,,,,blau,blue,b,1.0,b,1.0,1.8681634679996928,,,,,,,,,,6.0,0.0,72.0,6.0,263.5553743679993,,,,,,,,,,,,,,,,,263.53941762700015,264.3384469579996,265.14049524099937,265.1220409350008,,,,,,,,,,,,,,,,,,,,,,,,,,,,,,,,,,,265.126024313,265.14049524099937,265.14049524099937,267.02276916899973,b,1.0,1.8681634679996928,,,,,sub-029,1,stroop_test,60.294906730034,
,,,,73.0,1.0,6.0,,,,,,,,,,,,,gelb,blue,b,0.0,b,1.0,0.4644872909993864,,,,,,,,,,6.0,1.0,73.0,9.0,267.03874950700083,,,,,,,,,,,,,,,,,267.0231416170009,268.2384238240011,269.0406665549999,269.0220297779997,,,,,,,,,,,,,,,,,,,,,,,,,,,,,,,,,,,269.0262587119996,269.0406665549999,269.0406665549999,269.52226335900014,b,1.0,0.4644872909993864,,,,,sub-029,1,stroop_test,60.294906730034,
,,,,74.0,2.0,6.0,,,,,,,,,,,,,rot,red,r,1.0,g,0.0,0.3557355440007086,,,,,,,,,,6.0,2.0,74.0,0.0,269.5389093819995,,,,,,,,,,,,,,,,,269.5227102429999,270.33740422200026,271.14138976600043,271.12184633000106,,,,,,,,,,,,,,,,,,,,,,,,,,,,,,,,,,,271.12680234800064,271.14138976600043,271.14138976600043,271.5055571539997,g,0.0,0.3557355440007086,,,,,sub-029,1,stroop_test,60.294906730034,
,,,,75.0,3.0,6.0,,,,,,,,,,,,,rot,yellow,g,0.0,g,1.0,0.5242225309993955,,,,,,,,,,6.0,3.0,75.0,3.0,271.52204043500024,,,,,,,,,,,,,,,,,271.50585815500017,271.6048403799996,272.4048527619998,272.3890224530005,,,,,,,,,,,,,,,,,,,,,,,,,,,,,,,,,,,272.38946262100035,272.4048527619998,272.4048527619998,272.938785028,g,1.0,0.5242225309993955,,,,,sub-029,1,stroop_test,60.294906730034,
,,,,76.0,4.0,6.0,,,,,,,,,,,,,blau,blue,b,1.0,b,1.0,0.4621737840006972,,,,,,,,,,6.0,4.0,76.0,5.0,272.95488005300103,,,,,,,,,,,,,,,,,272.9390781260008,274.1382284850006,274.94072543400034,274.9219022340003,,,,,,,,,,,,,,,,,,,,,,,,,,,,,,,,,,,274.9261430099996,274.94072543400034,274.94072543400034,275.40675632999955,b,1.0,0.4621737840006972,,,,,sub-029,1,stroop_test,60.294906730034,
,,,,77.0,5.0,6.0,,,,,,,,,,,,,rot,red,r,1.0,r,1.0,1.1684963369989418,,,,,,,,,,6.0,5.0,77.0,1.0,275.4216234480009,,,,,,,,,,,,,,,,,275.40712501500093,276.2214851059998,277.0236854680006,277.0069494550007,,,,,,,,,,,,,,,,,,,,,,,,,,,,,,,,,,,277.0091277720003,277.0236854680006,277.0236854680006,278.20556891399974,r,1.0,1.1684963369989418,,,,,sub-029,1,stroop_test,60.294906730034,
,,,,78.0,6.0,6.0,,,,,,,,,,,,,blau,yellow,g,0.0,g,1.0,0.5431829779990949,,,,,,,,,,6.0,6.0,78.0,7.0,278.2224266280009,,,,,,,,,,,,,,,,,278.2058745810009,278.5550547950006,279.35690412199983,279.3385076939994,,,,,,,,,,,,,,,,,,,,,,,,,,,,,,,,,,,279.3424763639996,279.35690412199983,279.35690412199983,279.9066571780004,g,1.0,0.5431829779990949,,,,,sub-029,1,stroop_test,60.294906730034,
,,,,79.0,7.0,6.0,,,,,,,,,,,,,gelb,yellow,g,1.0,g,1.0,0.3867929819989513,,,,,,,,,,6.0,7.0,79.0,11.0,279.92258852399937,,,,,,,,,,,,,,,,,279.9069504729996,280.7215918290003,281.5242239140007,281.5051402810004,,,,,,,,,,,,,,,,,,,,,,,,,,,,,,,,,,,281.5091610849995,281.5242239140007,281.5242239140007,281.9221115119999,g,1.0,0.3867929819989513,,,,,sub-029,1,stroop_test,60.294906730034,
,,,,80.0,8.0,6.0,,,,,,,,,,,,,rot,blue,b,0.0,b,1.0,1.0189214780002658,,,,,,,,,,6.0,8.0,80.0,2.0,281.9373675170009,,,,,,,,,,,,,,,,,281.922405972,282.2876657100005,283.0892002649998,283.07133315099964,,,,,,,,,,,,,,,,,,,,,,,,,,,,,,,,,,,283.075565299001,283.0892002649998,283.0892002649998,284.12250126300023,b,1.0,1.0189214780002658,,,,,sub-029,1,stroop_test,60.294906730034,
,,,,81.0,9.0,6.0,,,,,,,,,,,,,gelb,yellow,g,1.0,g,1.0,0.776710317000834,,,,,,,,,,6.0,9.0,81.0,10.0,284.1394280780005,,,,,,,,,,,,,,,,,284.1230189230009,284.48781472300107,285.2891392620004,285.2715455540001,,,,,,,,,,,,,,,,,,,,,,,,,,,,,,,,,,,285.27468796500034,285.2891392620004,285.2891392620004,286.07235302200024,g,1.0,0.776710317000834,,,,,sub-029,1,stroop_test,60.294906730034,
,,,,82.0,10.0,6.0,,,,,,,,,,,,,blau,red,r,0.0,r,1.0,0.3494656250004482,,,,,,,,,,6.0,10.0,82.0,4.0,286.0883437680004,,,,,,,,,,,,,,,,,286.0726933950009,287.27138307300083,288.07418817300095,288.0549635560001,,,,,,,,,,,,,,,,,,,,,,,,,,,,,,,,,,,288.0597622570004,288.07418817300095,288.07418817300095,288.43839299700085,r,1.0,0.3494656250004482,,,,,sub-029,1,stroop_test,60.294906730034,
,,,,83.0,11.0,6.0,,,,,,,,,,,,,gelb,red,r,0.0,r,1.0,0.6635263960015436,,,,,,,,,,6.0,11.0,83.0,8.0,288.4537384840005,,,,,,,,,,,,,,,,,288.4387500060002,288.8045001949995,289.60811648600065,289.58848088500054,,,,,,,,,,,,,,,,,,,,,,,,,,,,,,,,,,,289.5929930929997,289.60811648600065,289.60811648600065,290.2891718310002,r,1.0,0.6635263960015436,,,,,sub-029,1,stroop_test,60.294906730034,
,,,,84.0,0.0,7.0,,,,,,,,,,,,,gelb,yellow,g,1.0,g,1.0,0.4733244429990009,,,,,,,,,,7.0,0.0,84.0,10.0,290.3053139519998,,,,,,,,,,,,,,,,,290.2896670129994,291.10484360900045,291.9061250520008,291.8883086340011,,,,,,,,,,,,,,,,,,,,,,,,,,,,,,,,,,,291.8889843809993,291.9061250520008,291.9061250520008,292.3885663929996,g,1.0,0.4733244429990009,,,,,sub-029,1,stroop_test,60.294906730034,
,,,,85.0,1.0,7.0,,,,,,,,,,,,,rot,red,r,1.0,r,1.0,0.6097277789995132,,,,,,,,,,7.0,1.0,85.0,1.0,292.4048552610002,,,,,,,,,,,,,,,,,292.3890620020011,292.73797696899965,293.53995861300064,293.5216711430003,,,,,,,,,,,,,,,,,,,,,,,,,,,,,,,,,,,293.5255064949997,293.53995861300064,293.53995861300064,294.15520124900104,r,1.0,0.6097277789995132,,,,,sub-029,1,stroop_test,60.294906730034,
,,,,86.0,2.0,7.0,,,,,,,,,,,,,rot,blue,b,0.0,b,1.0,0.6458772679998219,,,,,,,,,,7.0,2.0,86.0,2.0,294.17152806500053,,,,,,,,,,,,,,,,,294.1554981120007,294.5212679119996,295.32166372900065,295.30481034399963,,,,,,,,,,,,,,,,,,,,,,,,,,,,,,,,,,,295.3054743470002,295.32166372900065,295.32166372900065,295.97195905899935,b,1.0,0.6458772679998219,,,,,sub-029,1,stroop_test,60.294906730034,
,,,,87.0,3.0,7.0,,,,,,,,,,,,,gelb,blue,b,0.0,b,1.0,0.5739795730005426,,,,,,,,,,7.0,3.0,87.0,9.0,295.98791118900044,,,,,,,,,,,,,,,,,295.9723309109995,296.07126504000007,296.87146339799983,296.85441546400034,,,,,,,,,,,,,,,,,,,,,,,,,,,,,,,,,,,296.85738676300025,296.87146339799983,296.87146339799983,297.4549606399996,b,1.0,0.5739795730005426,,,,,sub-029,1,stroop_test,60.294906730034,
,,,,88.0,4.0,7.0,,,,,,,,,,,,,rot,red,r,1.0,r,1.0,0.8620234310001251,,,,,,,,,,7.0,4.0,88.0,0.0,297.4710517599997,,,,,,,,,,,,,,,,,297.45525738700053,298.6550970219996,299.4565202569993,299.43833727200035,,,,,,,,,,,,,,,,,,,,,,,,,,,,,,,,,,,299.4421929170003,299.4565202569993,299.4565202569993,300.3221763069996,r,1.0,0.8620234310001251,,,,,sub-029,1,stroop_test,60.294906730034,
,,,,89.0,5.0,7.0,,,,,,,,,,,,,gelb,yellow,g,1.0,g,1.0,0.5518543210000644,,,,,,,,,,7.0,5.0,89.0,11.0,300.3375502990002,,,,,,,,,,,,,,,,,300.3227498359993,301.5380579190005,302.34054427000046,302.3216729830001,,,,,,,,,,,,,,,,,,,,,,,,,,,,,,,,,,,302.3259603669994,302.34054427000046,302.34054427000046,302.90567290800027,g,1.0,0.5518543210000644,,,,,sub-029,1,stroop_test,60.294906730034,
,,,,90.0,6.0,7.0,,,,,,,,,,,,,rot,yellow,g,0.0,g,1.0,0.8100367370007007,,,,,,,,,,7.0,6.0,90.0,3.0,302.92207826400045,,,,,,,,,,,,,,,,,302.9061467320007,304.121232331001,304.92342306200044,304.90534940200087,,,,,,,,,,,,,,,,,,,,,,,,,,,,,,,,,,,304.90922591900016,304.92342306200044,304.92342306200044,305.7393282619996,g,1.0,0.8100367370007007,,,,,sub-029,1,stroop_test,60.294906730034,
,,,,91.0,7.0,7.0,,,,,,,,,,,,,blau,red,r,0.0,r,1.0,1.303547150000668,,,,,,,,,,7.0,7.0,91.0,4.0,305.7555340220006,,,,,,,,,,,,,,,,,305.7397721190009,306.5537603320008,307.3558058010003,307.3377176890008,,,,,,,,,,,,,,,,,,,,,,,,,,,,,,,,,,,307.34172590399976,307.3558058010003,307.3558058010003,308.6716533969993,r,1.0,1.303547150000668,,,,,sub-029,1,stroop_test,60.294906730034,
,,,,92.0,8.0,7.0,,,,,,,,,,,,,gelb,red,r,0.0,r,1.0,0.4681522629998653,,,,,,,,,,7.0,8.0,92.0,8.0,308.6868703029995,,,,,,,,,,,,,,,,,308.6719876799998,309.48758394000106,310.2891132479999,310.27100549900024,,,,,,,,,,,,,,,,,,,,,,,,,,,,,,,,,,,310.27496582800086,310.2891132479999,310.2891132479999,310.77253651700084,r,1.0,0.4681522629998653,,,,,sub-029,1,stroop_test,60.294906730034,
,,,,93.0,9.0,7.0,,,,,,,,,,,,,blau,blue,b,1.0,b,1.0,0.585720584000228,,,,,,,,,,7.0,9.0,93.0,5.0,310.7892044559994,,,,,,,,,,,,,,,,,310.7730869799998,311.13779817999966,311.939568369,311.92136831599964,,,,,,,,,,,,,,,,,,,,,,,,,,,,,,,,,,,311.925326423001,311.939568369,311.939568369,312.53908959600085,b,1.0,0.585720584000228,,,,,sub-029,1,stroop_test,60.294906730034,
,,,,94.0,10.0,7.0,,,,,,,,,,,,,blau,yellow,g,0.0,g,1.0,1.2351898739998433,,,,,,,,,,7.0,10.0,94.0,7.0,312.5557400540001,,,,,,,,,,,,,,,,,312.5396284460003,313.7542907879997,314.5537573700003,314.53742599900033,,,,,,,,,,,,,,,,,,,,,,,,,,,,,,,,,,,314.537841284,314.5537573700003,314.5537573700003,315.80512512300083,g,1.0,1.2351898739998433,,,,,sub-029,1,stroop_test,60.294906730034,
,,,,95.0,11.0,7.0,,,,,,,,,,,,,blau,blue,b,1.0,b,1.0,0.6757619630006957,,,,,,,,,,7.0,11.0,95.0,6.0,315.8210298800004,,,,,,,,,,,,,,,,,315.8054290359996,317.0044123179996,317.8035201929997,317.78758469900094,,,,,,,,,,,,,,,,,,,,,,,,,,,,,,,,,,,317.78797080000004,317.8035201929997,317.8035201929997,318.4882153710005,b,1.0,0.6757619630006957,,,,,sub-029,1,stroop_test,60.294906730034,
,,,,96.0,0.0,8.0,,,,,,,,,,,,,gelb,blue,b,0.0,b,1.0,0.4188721190002979,,,,,,,,,,8.0,0.0,96.0,9.0,318.5042084100005,,,,,,,,,,,,,,,,,318.4885071129993,319.68750812600047,320.49016873300025,320.4713246190004,,,,,,,,,,,,,,,,,,,,,,,,,,,,,,,,,,,320.4756510170009,320.49016873300025,320.49016873300025,320.9229122729994,b,1.0,0.4188721190002979,,,,,sub-029,1,stroop_test,60.294906730034,
,,,,97.0,1.0,8.0,,,,,,,,,,,,,blau,yellow,g,0.0,g,1.0,0.7979801239998778,,,,,,,,,,8.0,1.0,97.0,7.0,320.9392741009997,,,,,,,,,,,,,,,,,320.9234243940009,321.0367862170005,321.8397630319996,321.82120669600044,,,,,,,,,,,,,,,,,,,,,,,,,,,,,,,,,,,321.8251886729995,321.8397630319996,321.8397630319996,322.65440001500065,g,1.0,0.7979801239998778,,,,,sub-029,1,stroop_test,60.294906730034,
,,,,98.0,2.0,8.0,,,,,,,,,,,,,rot,yellow,g,0.0,g,1.0,0.5859328540009301,,,,,,,,,,8.0,2.0,98.0,3.0,322.6707583110001,,,,,,,,,,,,,,,,,322.6548271850006,322.7545713870004,323.5570883290002,323.53788274600083,,,,,,,,,,,,,,,,,,,,,,,,,,,,,,,,,,,323.54236418000073,323.5570883290002,323.5570883290002,324.155259258001,g,1.0,0.5859328540009301,,,,,sub-029,1,stroop_test,60.294906730034,
,,,,99.0,3.0,8.0,,,,,,,,,,,,,gelb,yellow,g,1.0,g,1.0,0.4235112599999411,,,,,,,,,,8.0,3.0,99.0,10.0,324.17158167900016,,,,,,,,,,,,,,,,,324.1558915429996,324.52055344400105,325.32032770800106,325.304262388001,,,,,,,,,,,,,,,,,,,,,,,,,,,,,,,,,,,325.3064469790006,325.32032770800106,325.32032770800106,325.7541617980005,g,1.0,0.4235112599999411,,,,,sub-029,1,stroop_test,60.294906730034,
,,,,100.0,4.0,8.0,,,,,,,,,,,,,rot,red,r,1.0,r,1.0,0.4557767579990468,,,,,,,,,,8.0,4.0,100.0,1.0,325.77028173100007,,,,,,,,,,,,,,,,,325.7544650460004,326.1039020240005,326.904079326001,326.8871597819998,,,,,,,,,,,,,,,,,,,,,,,,,,,,,,,,,,,326.8897886449995,326.904079326001,326.904079326001,327.37111748400093,r,1.0,0.4557767579990468,,,,,sub-029,1,stroop_test,60.294906730034,
,,,,101.0,5.0,8.0,,,,,,,,,,,,,rot,blue,b,0.0,b,1.0,0.3829171010002028,,,,,,,,,,8.0,5.0,101.0,2.0,327.38667114300006,,,,,,,,,,,,,,,,,327.3715258379998,328.5705839000002,329.3706017879995,329.3542381879997,,,,,,,,,,,,,,,,,,,,,,,,,,,,,,,,,,,329.3552412810004,329.3706017879995,329.3706017879995,329.7707838860006,b,1.0,0.3829171010002028,,,,,sub-029,1,stroop_test,60.294906730034,
,,,,102.0,6.0,8.0,,,,,,,,,,,,,rot,red,r,1.0,r,1.0,0.5496416699988913,,,,,,,,,,8.0,6.0,102.0,0.0,329.7861725570001,,,,,,,,,,,,,,,,,329.7710799279994,329.8866309080004,330.6868740350001,330.6704945399997,,,,,,,,,,,,,,,,,,,,,,,,,,,,,,,,,,,330.67118079600004,330.6868740350001,330.6868740350001,331.23805524400086,r,1.0,0.5496416699988913,,,,,sub-029,1,stroop_test,60.294906730034,
,,,,103.0,7.0,8.0,,,,,,,,,,,,,blau,blue,b,1.0,b,1.0,0.8236168769999495,,,,,,,,,,8.0,7.0,103.0,6.0,331.25406713899974,,,,,,,,,,,,,,,,,331.2384708669997,332.4537494239994,333.25464196900066,333.2375280810011,,,,,,,,,,,,,,,,,,,,,,,,,,,,,,,,,,,333.2404084480004,333.25464196900066,333.25464196900066,334.0876621440002,b,1.0,0.8236168769999495,,,,,sub-029,1,stroop_test,60.294906730034,
,,,,104.0,8.0,8.0,,,,,,,,,,,,,gelb,red,r,0.0,r,1.0,0.6149916150006902,,,,,,,,,,8.0,8.0,104.0,8.0,334.1036901309999,,,,,,,,,,,,,,,,,334.0879720459998,334.453656261001,335.2554081779999,335.2378606929997,,,,,,,,,,,,,,,,,,,,,,,,,,,,,,,,,,,335.2409987890005,335.2554081779999,335.2554081779999,335.88791685400065,r,1.0,0.6149916150006902,,,,,sub-029,1,stroop_test,60.294906730034,
,,,,105.0,9.0,8.0,,,,,,,,,,,,,blau,blue,b,1.0,b,1.0,0.682292272000268,,,,,,,,,,8.0,9.0,105.0,5.0,335.90436555499946,,,,,,,,,,,,,,,,,335.8882075309993,335.9873131690001,336.78897781399974,336.7714652939994,,,,,,,,,,,,,,,,,,,,,,,,,,,,,,,,,,,336.7761632189995,336.78897781399974,336.78897781399974,337.48846453199985,b,1.0,0.682292272000268,,,,,sub-029,1,stroop_test,60.294906730034,
,,,,106.0,10.0,8.0,,,,,,,,,,,,,gelb,yellow,g,1.0,g,1.0,0.2711218479998933,,,,,,,,,,8.0,10.0,106.0,11.0,337.5038845630006,,,,,,,,,,,,,,,,,337.4888469689995,338.702775664,339.5062673249995,339.48737226199955,,,,,,,,,,,,,,,,,,,,,,,,,,,,,,,,,,,339.4922803549998,339.5062673249995,339.5062673249995,339.7876521870003,g,1.0,0.2711218479998933,,,,,sub-029,1,stroop_test,60.294906730034,
,,,,107.0,11.0,8.0,,,,,,,,,,,,,blau,red,r,0.0,r,1.0,0.6737571560006472,,,,,,,,,,8.0,11.0,107.0,4.0,339.80322385699947,,,,,,,,,,,,,,,,,339.7879475089994,341.0032660720008,341.8046579900001,341.7871857459995,,,,,,,,,,,,,,,,,,,,,,,,,,,,,,,,,,,341.79113081499963,341.8046579900001,341.8046579900001,342.487416295,r,1.0,0.6737571560006472,,,,,sub-029,1,stroop_test,60.294906730034,
,,,,108.0,0.0,9.0,,,,,,,,,,,,,rot,blue,b,0.0,b,1.0,0.3437035259994445,,,,,,,,,,9.0,0.0,108.0,2.0,342.5033568550007,,,,,,,,,,,,,,,,,342.4877121770005,342.8536453270008,343.654732473,343.6371872870004,,,,,,,,,,,,,,,,,,,,,,,,,,,,,,,,,,,343.6415164770005,343.654732473,343.654732473,344.004556033,b,1.0,0.3437035259994445,,,,,sub-029,1,stroop_test,60.294906730034,
,,,,109.0,1.0,9.0,,,,,,,,,,,,,blau,red,r,0.0,r,1.0,0.540056096000626,,,,,,,,,,9.0,1.0,109.0,4.0,344.0201985019994,,,,,,,,,,,,,,,,,344.00489443600054,345.20393054799933,346.0060530840001,345.9874680360008,,,,,,,,,,,,,,,,,,,,,,,,,,,,,,,,,,,345.99144855300074,346.0060530840001,346.0060530840001,346.554735959,r,1.0,0.540056096000626,,,,,sub-029,1,stroop_test,60.294906730034,
,,,,110.0,2.0,9.0,,,,,,,,,,,,,blau,blue,b,1.0,b,1.0,0.5850452730010147,,,,,,,,,,9.0,2.0,110.0,5.0,346.5708814080008,,,,,,,,,,,,,,,,,346.5550623649997,347.3708689670002,348.17093318300067,348.1542682729996,,,,,,,,,,,,,,,,,,,,,,,,,,,,,,,,,,,348.1549340500005,348.17093318300067,348.17093318300067,348.77079749599943,b,1.0,0.5850452730010147,,,,,sub-029,1,stroop_test,60.294906730034,
,,,,111.0,3.0,9.0,,,,,,,,,,,,,blau,yellow,g,0.0,r,0.0,0.6445814180005982,,,,,,,,,,9.0,3.0,111.0,7.0,348.7872555470003,,,,,,,,,,,,,,,,,348.77109152900084,349.571088910001,350.370669205,350.35421978200065,,,,,,,,,,,,,,,,,,,,,,,,,,,,,,,,,,,350.3548967200004,350.370669205,350.370669205,351.0212638510002,r,0.0,0.6445814180005982,,,,,sub-029,1,stroop_test,60.294906730034,
,,,,112.0,4.0,9.0,,,,,,,,,,,,,rot,yellow,g,0.0,r,0.0,0.5769005809997907,,,,,,,,,,9.0,4.0,112.0,3.0,351.0358327610011,,,,,,,,,,,,,,,,,351.0215578570005,351.37059701600083,352.1732611970001,352.1543764830003,,,,,,,,,,,,,,,,,,,,,,,,,,,,,,,,,,,352.1584598089994,352.1732611970001,352.1732611970001,352.75463191200106,r,0.0,0.5769005809997907,,,,,sub-029,1,stroop_test,60.294906730034,
,,,,113.0,5.0,9.0,,,,,,,,,,,,,gelb,red,r,0.0,r,1.0,0.6695320580001862,,,,,,,,,,9.0,5.0,113.0,8.0,352.7707669949996,,,,,,,,,,,,,,,,,352.75499985399983,353.95392735099995,354.7546852380001,354.73768788100097,,,,,,,,,,,,,,,,,,,,,,,,,,,,,,,,,,,354.7400240620009,354.7546852380001,354.7546852380001,355.4382568309993,r,1.0,0.6695320580001862,,,,,sub-029,1,stroop_test,60.294906730034,
,,,,114.0,6.0,9.0,,,,,,,,,,,,,rot,red,r,1.0,r,1.0,0.5147592980010813,,,,,,,,,,9.0,6.0,114.0,1.0,355.4540260550002,,,,,,,,,,,,,,,,,355.4385549130002,355.80428718999974,356.6050961580004,356.5874163009994,,,,,,,,,,,,,,,,,,,,,,,,,,,,,,,,,,,356.59273354700053,356.6050961580004,356.6050961580004,357.12155447400073,r,1.0,0.5147592980010813,,,,,sub-029,1,stroop_test,60.294906730034,
,,,,115.0,7.0,9.0,,,,,,,,,,,,,rot,red,r,1.0,r,1.0,0.6391217869986576,,,,,,,,,,9.0,7.0,115.0,0.0,357.13694826900064,,,,,,,,,,,,,,,,,357.1219499180006,357.4870711530002,358.287195754001,358.2706452729999,,,,,,,,,,,,,,,,,,,,,,,,,,,,,,,,,,,358.2713182820007,358.287195754001,358.287195754001,358.9371998759998,r,1.0,0.6391217869986576,,,,,sub-029,1,stroop_test,60.294906730034,
,,,,116.0,8.0,9.0,,,,,,,,,,,,,gelb,yellow,g,1.0,g,1.0,0.5887523059991508,,,,,,,,,,9.0,8.0,116.0,11.0,358.9532996590005,,,,,,,,,,,,,,,,,358.9375139040003,359.28667116699944,360.08803821900074,360.0704679499995,,,,,,,,,,,,,,,,,,,,,,,,,,,,,,,,,,,360.0744311239996,360.08803821900074,360.08803821900074,360.687017092001,g,1.0,0.5887523059991508,,,,,sub-029,1,stroop_test,60.294906730034,
,,,,117.0,9.0,9.0,,,,,,,,,,,,,gelb,yellow,g,1.0,g,1.0,0.9133296109994262,,,,,,,,,,9.0,9.0,117.0,10.0,360.70245731199975,,,,,,,,,,,,,,,,,360.6873185519999,361.4866940650009,362.28657253299934,362.2702686650009,,,,,,,,,,,,,,,,,,,,,,,,,,,,,,,,,,,362.27096053700006,362.28657253299934,362.28657253299934,363.20477940899946,g,1.0,0.9133296109994262,,,,,sub-029,1,stroop_test,60.294906730034,
,,,,118.0,10.0,9.0,,,,,,,,,,,,,blau,blue,b,1.0,b,1.0,0.4135539420003624,,,,,,,,,,9.0,10.0,118.0,6.0,363.2205258310005,,,,,,,,,,,,,,,,,363.2052134679998,364.4204238980001,365.220175157001,365.20322187500096,,,,,,,,,,,,,,,,,,,,,,,,,,,,,,,,,,,365.20545079300064,365.220175157001,365.220175157001,365.6379742259997,b,1.0,0.4135539420003624,,,,,sub-029,1,stroop_test,60.294906730034,
,,,,119.0,11.0,9.0,,,,,,,,,,,,,gelb,blue,b,0.0,b,1.0,0.4141367560005164,,,,,,,,,,9.0,11.0,119.0,9.0,365.653639903001,,,,,,,,,,,,,,,,,365.6383416459994,365.9869304000004,366.788967890001,366.77076209500046,,,,,,,,,,,,,,,,,,,,,,,,,,,,,,,,,,,366.7751183620003,366.788967890001,366.788967890001,367.20464508400073,b,1.0,0.4141367560005164,,,,,sub-029,1,stroop_test,60.294906730034,
,,,,,,,,,,,,,,,,,,,,,,,,,,,,,,,,,,,,,,,,,,,,,,,,,,,,,,,,,,,,,,,,,,,,,,,,,,,,,,,,,,,,,,,,,,,,,,,,,,,,,,367.2048073980004,367.222290578,372.21992831100033,sub-029,1,stroop_test,60.294906730034,
