direction,corrAns,thisN,thisTrialN,thisRepN,respDots.keys,respDots.corr,respDots.rt,respDots.duration,randomInstr,respRandomInstr.keys,respRandomInstr.rt,respRandomInstr.duration,practice_trials.thisRepN,practice_trials.thisTrialN,practice_trials.thisN,practice_trials.thisIndex,instr_trials.thisRepN,instr_trials.thisTrialN,instr_trials.thisN,instr_trials.thisIndex,test_trials.thisRepN,test_trials.thisTrialN,test_trials.thisN,test_trials.thisIndex,thisRow.t,notes,general_instruction.started,textGeneralInstr.started,respGeneralInstr.started,general_instruction.stopped,respGeneralInstr.keys,respGeneralInstr.rt,respGeneralInstr.duration,ITI.started,fixcross.started,fixcross.stopped,ITI.stopped,dots.started,backgroundDots.started,stimulusDots.started,respDots.started,dots.stopped,practice_trials.respDots.keys,practice_trials.respDots.corr,practice_trials.respDots.rt,practice_trials.respDots.duration,feedback.started,textFeedback.started,feedback.stopped,textFeedback.stopped,info.started,textInfo.started,keyRespInfo.started,info.stopped,keyRespInfo.keys,keyRespInfo.rt,keyRespInfo.duration,test_instruction.started,textTestInstr.started,respTestInstr.started,test_instruction.stopped,respTestInstr.keys,respTestInstr.rt,respTestInstr.duration,random_instruction.started,textRandomInstr.started,respRandomInstr.started,random_instruction.stopped,instr_trials.respRandomInstr.keys,instr_trials.respRandomInstr.rt,instr_trials.respRandomInstr.duration,test_trials.respDots.keys,test_trials.respDots.corr,test_trials.respDots.rt,test_trials.respDots.duration,stimulusDots.stopped,goodbye.started,textGoodbye.started,textGoodbye.stopped,goodbye.stopped,participant,session,expName,frameRate,Unnamed: 88
,,,,,,,,,,,,,,,,,,,,,,,,,,,0.0181769430000713,0.0308686380000153,0.0308686380000153,20.49545178300002,space,20.44670630099995,,,,,,,,,,,,,,,,,,,,,,,,,,,,,,,,,,,,,,,,,,,,,,,,,sub-144,1,random_dot,,
right,right,0.0,0.0,0.0,right,1.0,3.176822205000008,,,,,,0.0,0.0,0.0,1.0,,,,,,,,,20.514154040999983,,,,,,,,,20.505022465000025,20.842308699,21.657803059000003,21.63612929099997,21.63645843100005,21.657803059000003,21.657803059000003,21.657803059000003,24.837512113000003,right,1.0,3.176822205000008,,24.84221027700005,24.88594557900001,25.341077098000028,,,,,,,,,,,,,,,,,,,,,,,,,,,,,,,,sub-144,1,random_dot,,
left,left,1.0,1.0,0.0,left,1.0,2.33112599399999,,,,,,0.0,1.0,1.0,0.0,,,,,,,,,25.352635950000035,,,,,,,,,25.341370160999983,26.13564238000004,26.926542022000035,26.91983968600005,26.920179029999986,26.926542022000035,26.926542022000035,26.926542022000035,29.26090694000004,left,1.0,2.33112599399999,,29.260993912999997,29.26909720900005,29.753125350000005,29.758393013000045,,,,,,,,,,,,,,,,,,,,,,,,,,,,,,,sub-144,1,random_dot,,
left,left,2.0,0.0,1.0,right,0.0,3.4398859389999643,,,,,,1.0,0.0,2.0,0.0,,,,,,,,,29.758393013000045,,,,,,,,,29.75341123999999,29.857855503,30.652405015,30.641341579000027,30.641609924000026,30.652405015,30.652405015,30.652405015,34.09388818500008,right,0.0,3.4398859389999643,,34.09708303100001,34.103403032000074,34.59343650000005,34.62506818999998,,,,,,,,,,,,,,,,,,,,,,,,,,,,,,,sub-144,1,random_dot,,
right,right,3.0,1.0,1.0,right,1.0,1.599527308000006,,,,,,1.0,1.0,3.0,1.0,,,,,,,,,34.62506818999998,,,,,,,,,34.594662502999995,34.72228718200006,35.519040034,35.50831562000008,35.50864930700004,35.519040034,35.519040034,35.519040034,37.119999432999975,right,1.0,1.599527308000006,,37.12208691600006,37.13138514000002,37.61974585100006,37.62484808800002,,,,,,,,,,,,,,,,,,,,,,,,,,,,,,,sub-144,1,random_dot,,
left,left,4.0,0.0,2.0,left,1.0,0.7957169339999837,,,,,,2.0,0.0,4.0,0.0,,,,,,,,,37.62484808800002,,,,,,,,,37.620037136000064,37.95748241500007,38.75248526799999,38.741807694000045,38.742140705,38.75248526799999,38.75248526799999,38.75248526799999,39.553978192000045,left,1.0,0.7957169339999837,,39.55406671200001,39.56022537199999,40.05301551000002,40.05827737000004,,,,,,,,,,,,,,,,,,,,,,,,,,,,,,,sub-144,1,random_dot,,
right,right,5.0,1.0,2.0,right,1.0,0.8423158790000116,,,,,,2.0,1.0,5.0,1.0,,,,,,,,,40.05827737000004,,,,,,,,,40.05331838900008,41.252652635,42.04336888800003,42.036708789000045,42.03704982099998,42.04336888800003,42.04336888800003,42.04336888800003,42.88729954500002,right,1.0,0.8423158790000116,,42.88738625000008,42.89336377000007,43.38668331400004,43.39188496200006,,,,,,,,,,,,,,,,,,,,,,,,,,,,,,,sub-144,1,random_dot,,
right,right,6.0,0.0,3.0,right,1.0,0.8287195950000523,,,,,,3.0,0.0,6.0,1.0,,,,,,,,,43.39188496200006,,,,,,,,,43.38697034400002,44.18608506800001,44.97617483400006,44.96971814200003,44.97003552700005,44.97617483400006,44.97617483400006,44.97617483400006,45.811193390000085,right,1.0,0.8287195950000523,,45.81129916400005,45.819099107000056,46.30307131400002,46.30827384300005,,,,,,,,,,,,,,,,,,,,,,,,,,,,,,,sub-144,1,random_dot,,
left,left,7.0,1.0,3.0,left,1.0,0.5674947299999076,,,,,,3.0,1.0,7.0,0.0,,,,,,,,,46.30827384300005,,,,,,,,,46.303354669999976,46.65756541200005,47.45248721899998,47.442047074000016,47.44237200600003,47.45248721899998,47.45248721899998,47.45248721899998,48.02820769800008,left,1.0,0.5674947299999076,,48.02829279299999,48.03582978700001,48.51976362200003,48.52501793400006,,,,,,,,,,,,,,,,,,,,,,,,,,,,,,,sub-144,1,random_dot,,
left,left,8.0,0.0,4.0,right,0.0,0.7079774570000836,,,,,,4.0,0.0,8.0,0.0,,,,,,,,,48.52501793400006,,,,,,,,,48.520049726000025,48.874266258000034,49.66922321499999,49.65817826700004,49.65845112700004,49.66922321499999,49.66922321499999,49.66922321499999,50.38769406799997,right,0.0,0.7079774570000836,,50.390169857000046,50.39661443300008,50.88646696600006,50.89179890700007,,,,,,,,,,,,,,,,,,,,,,,,,,,,,,,sub-144,1,random_dot,,
right,right,9.0,1.0,4.0,left,0.0,1.5502935590000106,,,,,,4.0,1.0,9.0,1.0,,,,,,,,,50.89179890700007,,,,,,,,,50.88688654700002,51.23591687099997,52.02686735100008,52.02000877099999,52.02034553200008,52.02686735100008,52.02686735100008,52.02686735100008,53.588104144,left,0.0,1.5502935590000106,,53.588210796,53.59469029600007,54.08650788300008,54.09171406100006,,,,,,,,,,,,,,,,,,,,,,,,,,,,,,,sub-144,1,random_dot,,
left,left,10.0,0.0,5.0,right,0.0,1.661771208999994,,,,,,5.0,0.0,10.0,0.0,,,,,,,,,54.09171406100006,,,,,,,,,54.086790812,54.435845481,55.22690402199999,55.21990724400007,55.22039637600005,55.22690402199999,55.22690402199999,55.22690402199999,56.89463546299999,right,0.0,1.661771208999994,,56.89473785400003,56.90233083700002,57.38655745400001,57.39160435100007,,,,,,,,,,,,,,,,,,,,,,,,,,,,,,,sub-144,1,random_dot,,
right,right,11.0,1.0,5.0,right,1.0,0.948303405000047,,,,,,5.0,1.0,11.0,1.0,,,,,,,,,57.39160435100007,,,,,,,,,57.38683944299999,58.19067590899999,58.98582900700001,58.97506660099998,58.97539207800003,58.98582900700001,58.98582900700001,58.98582900700001,59.93696367100006,right,1.0,0.948303405000047,,59.93903232399998,59.94531726900004,60.43652186899999,60.44150608300004,,,,,,,,,,,,,,,,,,,,,,,,,,,,,,,sub-144,1,random_dot,,
right,right,12.0,0.0,6.0,left,0.0,0.7268732660000978,,,,,,6.0,0.0,12.0,1.0,,,,,,,,,60.44150608300004,,,,,,,,,60.436810087000026,60.78586541499999,61.576778804000014,61.56998217600005,61.57031577800001,61.576778804000014,61.576778804000014,61.576778804000014,62.311113620000015,left,0.0,0.7268732660000978,,62.31336418199999,62.32015106100005,62.80326342500007,62.808217743,,,,,,,,,,,,,,,,,,,,,,,,,,,,,,,sub-144,1,random_dot,,
left,left,13.0,1.0,6.0,right,0.0,0.7414370300000428,,,,,,6.0,1.0,13.0,0.0,,,,,,,,,62.808217743,,,,,,,,,62.80354799300005,63.15799802599997,63.95252235200008,63.94182270099998,63.942160221,63.95252235200008,63.95252235200008,63.95252235200008,64.70425666900007,right,0.0,0.7414370300000428,,64.70434555600002,64.71064243000001,65.20308495200004,65.20770005600002,,,,,,,,,,,,,,,,,,,,,,,,,,,,,,,sub-144,1,random_dot,,
left,left,14.0,0.0,7.0,left,1.0,2.0952372740000555,,,,,,7.0,0.0,14.0,0.0,,,,,,,,,65.20770005600002,,,,,,,,,65.20335456700002,66.40251302299998,67.19325316499999,67.18649730000004,67.18683126799999,67.19325316499999,67.19325316499999,67.19325316499999,69.29461748200004,left,1.0,2.0952372740000555,,69.297147988,69.30337140200004,69.79099625499998,69.80257167600007,,,,,,,,,,,,,,,,,,,,,,,,,,,,,,,sub-144,1,random_dot,,
right,right,15.0,1.0,7.0,right,1.0,1.120451150000008,,,,,,7.0,1.0,15.0,1.0,,,,,,,,,69.80257167600007,,,,,,,,,69.79127900000003,69.89083694400006,70.68586767,70.67519186700008,70.67552769500003,70.68586767,70.68586767,70.68586767,71.81105909200005,right,1.0,1.120451150000008,,71.81114650699999,71.81910262999997,72.30318511600001,72.30838786900006,,,,,,,,,,,,,,,,,,,,,,,,,,,,,,,sub-144,1,random_dot,,
left,left,16.0,0.0,8.0,left,1.0,1.6932465819999152,,,,,,8.0,0.0,16.0,0.0,,,,,,,,,72.30838786900006,,,,,,,,,72.30347058100006,73.50665502599998,74.30257677700001,74.29171714200004,74.29204664999997,74.30257677700001,74.30257677700001,74.30257677700001,76.00401441600002,left,1.0,1.6932465819999152,,76.00410107200003,76.01012628600006,76.50327839200008,76.50858064900001,,,,,,,,,,,,,,,,,,,,,,,,,,,,,,,sub-144,1,random_dot,,
right,right,17.0,1.0,8.0,right,1.0,1.5867196919999742,,,,,,8.0,1.0,17.0,1.0,,,,,,,,,76.50858064900001,,,,,,,,,76.503574394,76.60245335100001,77.39323045000003,77.38681539000004,77.38714960100003,77.39323045000003,77.39323045000003,77.39323045000003,78.98745000600002,right,1.0,1.5867196919999742,,78.98753717400007,78.99364939899999,79.48684761300001,79.49204827200003,,,,,,,,,,,,,,,,,,,,,,,,,,,,,,,sub-144,1,random_dot,,
left,left,18.0,0.0,9.0,left,1.0,1.9680339399999407,,,,,,9.0,0.0,18.0,0.0,,,,,,,,,79.49204827200003,,,,,,,,,79.487141458,79.83593224000003,80.62685228800001,80.61992682699997,80.62026529500008,80.62685228800001,80.62685228800001,80.62685228800001,82.60472019899998,left,1.0,1.9680339399999407,,82.60480674200005,82.61092857699998,83.10347648700008,83.10872969100001,,,,,,,,,,,,,,,,,,,,,,,,,,,,,,,sub-144,1,random_dot,,
right,right,19.0,1.0,9.0,left,0.0,1.550754477000055,,,,,,9.0,1.0,19.0,1.0,,,,,,,,,83.10872969100001,,,,,,,,,83.10375973500004,84.30252217400005,85.09319359699998,85.08648439700005,85.08681565300003,85.09319359699998,85.09319359699998,85.09319359699998,86.65432336200001,left,0.0,1.550754477000055,,86.65691989100003,86.66234247500006,87.15340251500004,87.16003601800003,,,,,,,,,,,,,,,,,,,,,,,,,,,,,,,sub-144,1,random_dot,,
,,,,,,,,,,,,,,,,,,,,,,,,,,,,,,,,,,,,,,,,,,,,,,,,,,,87.15351931500004,87.16003601800003,87.16003601800003,91.37156202100005,space,4.1997905900000205,,,,,,,,,,,,,,,,,,,,,,,,,sub-144,1,random_dot,,
,,,,,,,,,,,,,,,,,,,,,,,,,,,,,,,,,,,,,,,,,,,,,,,,,,,,,,,,,,91.37163099500005,91.38005627300004,91.38005627300004,99.42667848899998,space,8.042785740999989,,,,,,,,,,,,,,,,,,sub-144,1,random_dot,,
left,left,0.0,0.0,0.0,left,1.0,2.017219480999984,,accuracy,space,4.607731720999936,,,,,,0.0,0.0,0.0,0.0,0.0,0.0,0.0,0.0,104.08770149400004,,,,,,,,,104.06426160400008,104.85787371599996,105.65282388800006,105.641796472,105.642135466,105.65282388800006,105.65282388800006,105.65282388800006,107.67856466,,,,,,,,,,,,,,,,,,,,,,,99.44122504300005,99.448985385,99.448985385,104.05966673800005,space,4.607731720999936,,left,1.0,2.017219480999984,,,,,,,sub-144,1,random_dot,,
right,right,1.0,1.0,0.0,left,0.0,4.57180882900002,,accuracy,space,4.607731720999936,,,,,,0.0,0.0,0.0,0.0,0.0,1.0,1.0,1.0,107.68608154700009,,,,,,,,,107.678862589,108.02458604800006,108.81912497299992,108.80880349100003,108.80912927800011,108.81912497299992,108.81912497299992,108.81912497299992,113.394684213,,,,,,,,,,,,,,,,,,,,,,,,,,,,,,left,0.0,4.57180882900002,,,,,,,sub-144,1,random_dot,,
left,left,2.0,0.0,1.0,right,0.0,5.098660537000114,,accuracy,space,4.607731720999936,,,,,,0.0,0.0,0.0,0.0,1.0,0.0,2.0,0.0,113.40263832700008,,,,,,,,,113.39499373499996,113.741592727,114.53566783100008,114.52547954699992,114.52582384799996,114.53566783100008,114.53566783100008,114.53566783100008,119.63736078900013,,,,,,,,,,,,,,,,,,,,,,,,,,,,,,right,0.0,5.098660537000114,,119.51917959800004,,,,,sub-144,1,random_dot,,
right,right,3.0,1.0,1.0,left,0.0,2.5087366689999726,,accuracy,space,4.607731720999936,,,,,,0.0,0.0,0.0,0.0,1.0,1.0,3.0,1.0,119.643410753,,,,,,,,,119.63766376,120.83595257900004,121.62685934900004,121.62004802600006,121.62038187600012,121.62685934900004,121.62685934900004,121.62685934900004,124.137267276,,,,,,,,,,,,,,,,,,,,,,,,,,,,,,left,0.0,2.5087366689999726,,,,,,,sub-144,1,random_dot,,
right,right,4.0,0.0,2.0,right,1.0,1.6295617050000146,,accuracy,space,4.607731720999936,,,,,,0.0,0.0,0.0,0.0,2.0,0.0,4.0,1.0,124.14344121700005,,,,,,,,,124.13756187699994,124.486100814,125.27690048400008,125.270319179,125.27064599099992,125.27690048400008,125.27690048400008,125.27690048400008,126.910909092,,,,,,,,,,,,,,,,,,,,,,,,,,,,,,right,1.0,1.6295617050000146,,,,,,,sub-144,1,random_dot,,
left,left,5.0,1.0,2.0,left,1.0,2.5347870840000724,,accuracy,space,4.607731720999936,,,,,,0.0,0.0,0.0,0.0,2.0,1.0,5.0,0.0,126.91910804399993,,,,,,,,,126.91119100799996,128.10807740400003,128.90285490500003,128.8922495160001,128.89259201200014,128.90285490500003,128.90285490500003,128.90285490500003,131.44371429499995,,,,,,,,,,,,,,,,,,,,,,,,,,,,,,left,1.0,2.5347870840000724,,,,,,,sub-144,1,random_dot,,
right,right,6.0,0.0,3.0,right,1.0,0.9385617220000312,,accuracy,space,4.607731720999936,,,,,,0.0,0.0,0.0,0.0,3.0,0.0,6.0,1.0,131.45284552300006,,,,,,,,,131.44405235400006,132.2412327180001,133.03605533000007,133.0253105810001,133.02564988200004,133.03605533000007,133.03605533000007,133.03605533000007,133.97775440399994,,,,,,,,,,,,,,,,,,,,,,,,,,,,,,right,1.0,0.9385617220000312,,,,,,,sub-144,1,random_dot,,
left,left,7.0,1.0,3.0,right,0.0,5.514355238999997,,accuracy,space,4.607731720999936,,,,,,0.0,0.0,0.0,0.0,3.0,1.0,7.0,0.0,133.98597207699993,,,,,,,,,133.978053316,134.77474600400012,135.569327046,135.5585629190001,135.55889311299995,135.569327046,135.569327046,135.569327046,141.08796568100013,,,,,,,,,,,,,,,,,,,,,,,,,,,,,,right,0.0,5.514355238999997,,140.5527897820001,,,,,sub-144,1,random_dot,,
left,left,8.0,0.0,4.0,right,0.0,2.483656967999877,,accuracy,space,4.607731720999936,,,,,,0.0,0.0,0.0,0.0,4.0,0.0,8.0,0.0,141.0941833180001,,,,,,,,,141.08826923599997,142.28615982600002,143.0769750610001,143.07025415200008,143.07059199599996,143.0769750610001,143.0769750610001,143.0769750610001,145.570702739,,,,,,,,,,,,,,,,,,,,,,,,,,,,,,right,0.0,2.483656967999877,,,,,,,sub-144,1,random_dot,,
right,right,9.0,1.0,4.0,right,1.0,4.064072463999992,,accuracy,space,4.607731720999936,,,,,,0.0,0.0,0.0,0.0,4.0,1.0,9.0,1.0,145.576462097,,,,,,,,,145.57099525599995,145.66930911499992,146.46014483700003,146.4534879050001,146.45383097699994,146.46014483700003,146.46014483700003,146.46014483700003,150.5276570100001,,,,,,,,,,,,,,,,,,,,,,,,,,,,,,right,1.0,4.064072463999992,,,,,,,sub-144,1,random_dot,,
right,right,10.0,0.0,5.0,right,1.0,1.654954005000036,,accuracy,space,4.607731720999936,,,,,,0.0,0.0,0.0,0.0,5.0,0.0,10.0,1.0,150.53596790500012,,,,,,,,,150.5279349650001,151.72465289900003,152.5194197520001,152.50858526100012,152.50891500900013,152.5194197520001,152.5194197520001,152.5194197520001,154.17780372899995,,,,,,,,,,,,,,,,,,,,,,,,,,,,,,right,1.0,1.654954005000036,,,,,,,sub-144,1,random_dot,,
left,left,11.0,1.0,5.0,right,0.0,4.1881557399999565,,accuracy,space,4.607731720999936,,,,,,0.0,0.0,0.0,0.0,5.0,1.0,11.0,0.0,154.18590686899995,,,,,,,,,154.17808247999994,154.52449383200008,155.319575032,155.30852278100008,155.30885686,155.319575032,155.319575032,155.319575032,159.51124517100004,,,,,,,,,,,,,,,,,,,,,,,,,,,,,,right,0.0,4.1881557399999565,,,,,,,sub-144,1,random_dot,,
left,left,12.0,0.0,6.0,right,0.0,3.8368622130001313,,accuracy,space,4.607731720999936,,,,,,0.0,0.0,0.0,0.0,6.0,0.0,12.0,0.0,159.51926764300003,,,,,,,,,159.51155908800013,159.85847410600002,160.6527360670001,160.64209739,160.64242956600003,160.6527360670001,160.6527360670001,160.6527360670001,164.49446593899995,,,,,,,,,,,,,,,,,,,,,,,,,,,,,,right,0.0,3.8368622130001313,,,,,,,sub-144,1,random_dot,,
right,right,13.0,1.0,6.0,left,0.0,2.5878186819998064,,accuracy,space,4.607731720999936,,,,,,0.0,0.0,0.0,0.0,6.0,1.0,13.0,1.0,164.50272577700014,,,,,,,,,164.49483305,165.291217223,166.0861070340001,166.075513677,166.07584205799992,166.0861070340001,166.0861070340001,166.0861070340001,168.678032746,,,,,,,,,,,,,,,,,,,,,,,,,,,,,,left,0.0,2.5878186819998064,,,,,,,sub-144,1,random_dot,,
right,right,14.0,0.0,7.0,right,1.0,4.449136769999996,,accuracy,space,4.607731720999936,,,,,,0.0,0.0,0.0,0.0,7.0,0.0,14.0,1.0,168.68604383800005,,,,,,,,,168.67834634000008,169.4747493860001,170.26952157800008,170.25889313100004,170.2592237130001,170.26952157800008,170.26952157800008,170.26952157800008,174.72064720800006,,,,,,,,,,,,,,,,,,,,,,,,,,,,,,right,1.0,4.449136769999996,,,,,,,sub-144,1,random_dot,,
left,left,15.0,1.0,7.0,right,0.0,1.6218813320001573,,accuracy,space,4.607731720999936,,,,,,0.0,0.0,0.0,0.0,7.0,1.0,15.0,0.0,174.726389134,,,,,,,,,174.72094758800006,175.9194340540001,176.7083637060001,176.70273813300005,176.702946322,176.7083637060001,176.7083637060001,176.7083637060001,178.33738438900002,,,,,,,,,,,,,,,,,,,,,,,,,,,,,,right,0.0,1.6218813320001573,,,,,,,sub-144,1,random_dot,,
right,right,16.0,0.0,8.0,right,1.0,4.936443031999943,,accuracy,space,4.607731720999936,,,,,,0.0,0.0,0.0,0.0,8.0,0.0,16.0,1.0,178.34358244800012,,,,,,,,,178.33767228299996,178.686031651,179.47704869999995,179.47021843799996,179.47055002500008,179.47704869999995,179.47704869999995,179.47704869999995,184.421323721,,,,,,,,,,,,,,,,,,,,,,,,,,,,,,right,1.0,4.936443031999943,,,,,,,sub-144,1,random_dot,,
left,left,17.0,1.0,8.0,right,0.0,2.2753008730001056,,accuracy,space,4.607731720999936,,,,,,0.0,0.0,0.0,0.0,8.0,1.0,17.0,0.0,184.42777598400005,,,,,,,,,184.42169907000005,184.51942603600003,185.310249278,185.303464533,185.30383838499995,185.310249278,185.310249278,185.310249278,187.587480798,,,,,,,,,,,,,,,,,,,,,,,,,,,,,,right,0.0,2.2753008730001056,,,,,,,sub-144,1,random_dot,,
left,left,18.0,0.0,9.0,left,1.0,2.4378432020000678,,accuracy,space,4.607731720999936,,,,,,0.0,0.0,0.0,0.0,9.0,0.0,18.0,0.0,187.593653649,,,,,,,,,187.58777937799996,187.68618447999995,188.477066969,188.47009014699995,188.4704246370001,188.477066969,188.477066969,188.477066969,190.92113739400008,,,,,,,,,,,,,,,,,,,,,,,,,,,,,,left,1.0,2.4378432020000678,,,,,,,sub-144,1,random_dot,,
right,right,19.0,1.0,9.0,right,1.0,3.408447489000082,,accuracy,space,4.607731720999936,,,,,,0.0,0.0,0.0,0.0,9.0,1.0,19.0,1.0,190.9277230870001,,,,,,,,,190.92149910499995,191.26951897700008,192.0602302210001,192.0535282050001,192.05387985899995,192.0602302210001,192.0602302210001,192.0602302210001,195.470770881,,,,,,,,,,,,,,,,,,,,,,,,,,,,,,right,1.0,3.408447489000082,,,,,,,sub-144,1,random_dot,,
right,right,20.0,0.0,10.0,right,1.0,2.668790718000082,,accuracy,space,4.607731720999936,,,,,,0.0,0.0,0.0,0.0,10.0,0.0,20.0,1.0,195.476742339,,,,,,,,,195.4710649,195.819404041,196.61056965799992,196.6040045410001,196.60433116,196.61056965799992,196.61056965799992,196.61056965799992,199.2880202,,,,,,,,,,,,,,,,,,,,,,,,,,,,,,right,1.0,2.668790718000082,,,,,,,sub-144,1,random_dot,,
left,left,21.0,1.0,10.0,left,1.0,1.4254841439999382,,accuracy,space,4.607731720999936,,,,,,0.0,0.0,0.0,0.0,10.0,1.0,21.0,0.0,199.29438896399995,,,,,,,,,199.2883832620001,200.486246137,201.27691769,201.27014386300004,201.2704753250001,201.27691769,201.27691769,201.27691769,202.70431187600013,,,,,,,,,,,,,,,,,,,,,,,,,,,,,,left,1.0,1.4254841439999382,,,,,,,sub-144,1,random_dot,,
left,left,22.0,0.0,11.0,right,0.0,2.033379996000121,,accuracy,space,4.607731720999936,,,,,,0.0,0.0,0.0,0.0,11.0,0.0,22.0,0.0,202.710495529,,,,,,,,,202.704606249,203.05302323400008,203.843802063,203.8369996780001,203.837364612,203.843802063,203.843802063,203.843802063,205.88776990500003,,,,,,,,,,,,,,,,,,,,,,,,,,,,,,right,0.0,2.033379996000121,,,,,,,sub-144,1,random_dot,,
right,right,23.0,1.0,11.0,left,0.0,2.2772636259999217,,accuracy,space,4.607731720999936,,,,,,0.0,0.0,0.0,0.0,11.0,1.0,23.0,1.0,205.893963032,,,,,,,,,205.8880681500001,207.08609298599995,207.87721432599997,207.870203928,207.870549074,207.87721432599997,207.87721432599997,207.87721432599997,210.160979164,,,,,,,,,,,,,,,,,,,,,,,,,,,,,,left,0.0,2.2772636259999217,,,,,,,sub-144,1,random_dot,,
left,left,24.0,0.0,12.0,right,0.0,2.853846317000034,,accuracy,space,4.607731720999936,,,,,,0.0,0.0,0.0,0.0,12.0,0.0,24.0,0.0,210.1694665230001,,,,,,,,,210.161309385,211.35833972400007,212.1528515440001,212.142090385,212.14242708900008,212.1528515440001,212.1528515440001,212.1528515440001,215.011044084,,,,,,,,,,,,,,,,,,,,,,,,,,,,,,right,0.0,2.853846317000034,,,,,,,sub-144,1,random_dot,,
right,right,25.0,1.0,12.0,right,1.0,2.865838315000019,,accuracy,space,4.607731720999936,,,,,,0.0,0.0,0.0,0.0,12.0,1.0,25.0,1.0,215.01944627699996,,,,,,,,,215.0113194920001,215.108458693,215.902769597,215.891744076,215.892043232,215.902769597,215.902769597,215.902769597,218.7704461520001,,,,,,,,,,,,,,,,,,,,,,,,,,,,,,right,1.0,2.865838315000019,,,,,,,sub-144,1,random_dot,,
left,left,26.0,0.0,13.0,right,0.0,3.5957911890000105,,accuracy,space,4.607731720999936,,,,,,0.0,0.0,0.0,0.0,13.0,0.0,26.0,0.0,218.77604611100003,,,,,,,,,218.77069154799997,219.95827632299995,220.75283096500004,220.74220151700013,220.74253258200008,220.75283096500004,220.75283096500004,220.75283096500004,224.35437172900004,,,,,,,,,,,,,,,,,,,,,,,,,,,,,,right,0.0,3.5957911890000105,,,,,,,sub-144,1,random_dot,,
right,right,27.0,1.0,13.0,left,0.0,2.15977365699996,,accuracy,space,4.607731720999936,,,,,,0.0,0.0,0.0,0.0,13.0,1.0,27.0,1.0,224.360519879,,,,,,,,,224.35466850699996,225.55292487000008,226.34373264499996,226.337118049,226.337454804,226.34373264499996,226.34373264499996,226.34373264499996,228.511680703,,,,,,,,,,,,,,,,,,,,,,,,,,,,,,left,0.0,2.15977365699996,,,,,,,sub-144,1,random_dot,,
left,left,28.0,0.0,14.0,right,0.0,3.116428036999878,,accuracy,space,4.607731720999936,,,,,,0.0,0.0,0.0,0.0,14.0,0.0,28.0,0.0,228.519408348,,,,,,,,,228.51195334200008,228.60822480800005,229.40289121500007,229.39202318500008,229.39235716099995,229.40289121500007,229.40289121500007,229.40289121500007,232.52126912100005,,,,,,,,,,,,,,,,,,,,,,,,,,,,,,right,0.0,3.116428036999878,,,,,,,sub-144,1,random_dot,,
right,right,29.0,1.0,14.0,right,1.0,1.8422653410000291,,accuracy,space,4.607731720999936,,,,,,0.0,0.0,0.0,0.0,14.0,1.0,29.0,1.0,232.527458463,,,,,,,,,232.521563532,233.3195571540001,234.110197933,234.103528448,234.103906854,234.110197933,234.110197933,234.110197933,235.95425635999996,,,,,,,,,,,,,,,,,,,,,,,,,,,,,,right,1.0,1.8422653410000291,,,,,,,sub-144,1,random_dot,,
left,left,30.0,0.0,15.0,left,1.0,1.375029411000014,,accuracy,space,4.607731720999936,,,,,,0.0,0.0,0.0,0.0,15.0,0.0,30.0,0.0,235.9604428060001,,,,,,,,,235.95455099799997,236.05307213799995,236.8437011280001,236.83693648,236.837268357,236.8437011280001,236.8437011280001,236.8437011280001,238.22086252499992,,,,,,,,,,,,,,,,,,,,,,,,,,,,,,left,1.0,1.375029411000014,,,,,,,sub-144,1,random_dot,,
right,right,31.0,1.0,15.0,right,1.0,2.2218658050001068,,accuracy,space,4.607731720999936,,,,,,0.0,0.0,0.0,0.0,15.0,1.0,31.0,1.0,238.226822362,,,,,,,,,238.221163804,238.31956872700005,239.11039267500007,239.10374164000007,239.1040777540001,239.11039267500007,239.11039267500007,239.11039267500007,241.338014909,,,,,,,,,,,,,,,,,,,,,,,,,,,,,,right,1.0,2.2218658050001068,,,,,,,sub-144,1,random_dot,,
right,right,32.0,0.0,16.0,right,1.0,3.3200837890001367,,accuracy,space,4.607731720999936,,,,,,0.0,0.0,0.0,0.0,16.0,0.0,32.0,1.0,241.34430360399995,,,,,,,,,241.338372715,242.1364507070001,242.92691377900007,242.920247722,242.920578804,242.92691377900007,242.92691377900007,242.92691377900007,246.254203804,,,,,,,,,,,,,,,,,,,,,,,,,,,,,,right,1.0,3.3200837890001367,,,,,,,sub-144,1,random_dot,,
left,left,33.0,1.0,16.0,left,1.0,1.612819744000035,,accuracy,space,4.607731720999936,,,,,,0.0,0.0,0.0,0.0,16.0,1.0,33.0,0.0,246.2603142480001,,,,,,,,,246.25448912900004,246.602965405,247.39420127999995,247.3873658690001,247.3877008400001,247.39420127999995,247.39420127999995,247.39420127999995,249.01160823399997,,,,,,,,,,,,,,,,,,,,,,,,,,,,,,left,1.0,1.612819744000035,,,,,,,sub-144,1,random_dot,,
right,right,34.0,0.0,17.0,right,1.0,2.0233805329999086,,accuracy,space,4.607731720999936,,,,,,0.0,0.0,0.0,0.0,17.0,0.0,34.0,1.0,249.01970637700003,,,,,,,,,249.01192038600004,250.2082309870001,251.00317896800004,250.992072785,250.99241250700004,251.00317896800004,251.00317896800004,251.00317896800004,253.02837199299995,,,,,,,,,,,,,,,,,,,,,,,,,,,,,,right,1.0,2.0233805329999086,,,,,,,sub-144,1,random_dot,,
left,left,35.0,1.0,17.0,right,0.0,2.0593328190000197,,accuracy,space,4.607731720999936,,,,,,0.0,0.0,0.0,0.0,17.0,1.0,35.0,0.0,253.03604643000008,,,,,,,,,253.02866286000005,254.22495527400008,255.01972196500003,255.00893076900013,255.00926379400005,255.01972196500003,255.01972196500003,255.01972196500003,257.08809349499995,,,,,,,,,,,,,,,,,,,,,,,,,,,,,,right,0.0,2.0593328190000197,,,,,,,sub-144,1,random_dot,,
right,right,36.0,0.0,18.0,left,0.0,1.7446937730001082,,accuracy,space,4.607731720999936,,,,,,0.0,0.0,0.0,0.0,18.0,0.0,36.0,1.0,257.09430086200007,,,,,,,,,257.0883879080001,257.88645857400013,258.6770250840001,258.67031442099994,258.670644853,258.6770250840001,258.6770250840001,258.6770250840001,260.42750572700004,,,,,,,,,,,,,,,,,,,,,,,,,,,,,,left,0.0,1.7446937730001082,,,,,,,sub-144,1,random_dot,,
left,left,37.0,1.0,18.0,left,1.0,4.211106510000036,,accuracy,space,4.607731720999936,,,,,,0.0,0.0,0.0,0.0,18.0,1.0,37.0,0.0,260.43620583099994,,,,,,,,,260.4278039889999,261.6248820750001,262.41982401100006,262.40939378,262.4097231070001,262.41982401100006,262.41982401100006,262.41982401100006,266.63805943900013,,,,,,,,,,,,,,,,,,,,,,,,,,,,,,left,1.0,4.211106510000036,,,,,,,sub-144,1,random_dot,,
left,left,38.0,0.0,19.0,right,0.0,4.035223072999997,,accuracy,space,4.607731720999936,,,,,,0.0,0.0,0.0,0.0,19.0,0.0,38.0,0.0,266.644342103,,,,,,,,,266.63836039,267.83631318899995,268.6271185470001,268.620416652,268.6207486710001,268.6271185470001,268.6271185470001,268.6271185470001,272.67191771,,,,,,,,,,,,,,,,,,,,,,,,,,,,,,right,0.0,4.035223072999997,,,,,,,sub-144,1,random_dot,,
right,right,39.0,1.0,19.0,left,0.0,1.5989748469999086,,accuracy,space,4.607731720999936,,,,,,0.0,0.0,0.0,0.0,19.0,1.0,39.0,1.0,272.67848325500006,,,,,,,,,272.67228489699994,273.86962926700005,274.660812944,274.6538947370001,274.6542272560001,274.660812944,274.660812944,274.660812944,276.261497288,,,,,,,,,,,,,,,,,,,,,,,,,,,,,,left,0.0,1.5989748469999086,,,,,,,sub-144,1,random_dot,,
right,right,40.0,0.0,20.0,right,1.0,1.2412852789998396,,accuracy,space,4.607731720999936,,,,,,0.0,0.0,0.0,0.0,20.0,0.0,40.0,1.0,276.26953246999994,,,,,,,,,276.26179121100006,276.3591325420001,277.15306486199995,277.1425666409999,277.1429097680001,277.15306486199995,277.15306486199995,277.15306486199995,278.404834739,,,,,,,,,,,,,,,,,,,,,,,,,,,,,,right,1.0,1.2412852789998396,,,,,,,sub-144,1,random_dot,,
left,left,41.0,1.0,20.0,left,1.0,1.4339650419999543,,accuracy,space,4.607731720999936,,,,,,0.0,0.0,0.0,0.0,20.0,1.0,41.0,0.0,278.4099823,,,,,,,,,278.4051946810001,278.503052508,279.2938202060001,279.287149245,279.287485251,279.2938202060001,279.2938202060001,279.2938202060001,280.738414114,,,,,,,,,,,,,,,,,,,,,,,,,,,,,,left,1.0,1.4339650419999543,,,,,,,sub-144,1,random_dot,,
right,right,42.0,0.0,21.0,right,1.0,3.025700878999942,,accuracy,space,4.607731720999936,,,,,,0.0,0.0,0.0,0.0,21.0,0.0,42.0,1.0,280.74470372300004,,,,,,,,,280.738724486,281.93642099600004,282.72730051500014,282.720412542,282.720744887,282.72730051500014,282.72730051500014,282.72730051500014,285.7548117790001,,,,,,,,,,,,,,,,,,,,,,,,,,,,,,right,1.0,3.025700878999942,,,,,,,sub-144,1,random_dot,,
left,left,43.0,1.0,21.0,left,1.0,1.249339899000006,,accuracy,space,4.607731720999936,,,,,,0.0,0.0,0.0,0.0,21.0,1.0,43.0,0.0,285.760762645,,,,,,,,,285.75510703700013,286.953155717,287.7439477670001,287.737119192,287.737455805,287.7439477670001,287.7439477670001,287.7439477670001,288.99516122400007,,,,,,,,,,,,,,,,,,,,,,,,,,,,,,left,1.0,1.249339899000006,,,,,,,sub-144,1,random_dot,,
left,left,44.0,0.0,22.0,right,0.0,2.1989792280000984,,accuracy,space,4.607731720999936,,,,,,0.0,0.0,0.0,0.0,22.0,0.0,44.0,0.0,289.00293897400013,,,,,,,,,288.995456406,289.091843588,289.8866014040001,289.87547843999994,289.875812594,289.8866014040001,289.8866014040001,289.8866014040001,292.08758941300005,,,,,,,,,,,,,,,,,,,,,,,,,,,,,,right,0.0,2.1989792280000984,,,,,,,sub-144,1,random_dot,,
right,right,45.0,1.0,22.0,left,0.0,1.223342861999981,,accuracy,space,4.607731720999936,,,,,,0.0,0.0,0.0,0.0,22.0,1.0,45.0,1.0,292.09339574800003,,,,,,,,,292.08788853,292.1861138570001,292.9769953420001,292.97031932900006,292.970653921,292.9769953420001,292.9769953420001,292.9769953420001,294.2045038770001,,,,,,,,,,,,,,,,,,,,,,,,,,,,,,left,0.0,1.223342861999981,,,,,,,sub-144,1,random_dot,,
left,left,46.0,0.0,23.0,right,0.0,5.36370411300004,,accuracy,space,4.607731720999936,,,,,,0.0,0.0,0.0,0.0,23.0,0.0,46.0,0.0,294.2105860570001,,,,,,,,,294.204796975,295.00303303700014,295.793877509,295.7870844309999,295.787419462,295.793877509,295.793877509,295.793877509,301.16056885900014,,,,,,,,,,,,,,,,,,,,,,,,,,,,,,right,0.0,5.36370411300004,,300.77587711500007,,,,,sub-144,1,random_dot,,
right,right,47.0,1.0,23.0,left,0.0,0.9632314319999296,,accuracy,space,4.607731720999936,,,,,,0.0,0.0,0.0,0.0,23.0,1.0,47.0,1.0,301.16985173900014,,,,,,,,,301.1608743150001,302.35826368100004,303.1531209190001,303.14240702400014,303.142740573,303.1531209190001,303.1531209190001,303.1531209190001,304.1212611520001,,,,,,,,,,,,,,,,,,,,,,,,,,,,,,left,0.0,0.9632314319999296,,,,,,,sub-144,1,random_dot,,
left,left,48.0,0.0,24.0,right,0.0,4.355810158000168,,accuracy,space,4.607731720999936,,,,,,0.0,0.0,0.0,0.0,24.0,0.0,48.0,0.0,304.12748906900003,,,,,,,,,304.121558252,304.9198029160001,305.7107614570001,305.703897217,305.704233828,305.7107614570001,305.7107614570001,305.7107614570001,310.071836639,,,,,,,,,,,,,,,,,,,,,,,,,,,,,,right,0.0,4.355810158000168,,,,,,,sub-144,1,random_dot,,
right,right,49.0,1.0,24.0,right,1.0,2.946256636000044,,accuracy,space,4.607731720999936,,,,,,0.0,0.0,0.0,0.0,24.0,1.0,49.0,1.0,310.07776873900013,,,,,,,,,310.0721362790001,310.4198377460001,311.2107753240001,311.204157091,311.20448039,311.2107753240001,311.2107753240001,311.2107753240001,314.161439377,,,,,,,,,,,,,,,,,,,,,,,,,,,,,,right,1.0,2.946256636000044,,,,,,,sub-144,1,random_dot,,
left,left,50.0,0.0,25.0,right,0.0,3.5729780100000426,,accuracy,space,4.607731720999936,,,,,,0.0,0.0,0.0,0.0,25.0,0.0,50.0,0.0,314.169612346,,,,,,,,,314.161710775,314.258630833,315.05320619299994,315.04240489100005,315.04274170199994,315.05320619299994,315.05320619299994,315.05320619299994,318.627962336,,,,,,,,,,,,,,,,,,,,,,,,,,,,,,right,0.0,3.5729780100000426,,,,,,,sub-144,1,random_dot,,
right,right,51.0,1.0,25.0,left,0.0,2.431021886000053,,accuracy,space,4.607731720999936,,,,,,0.0,0.0,0.0,0.0,25.0,1.0,51.0,1.0,318.63652414699993,,,,,,,,,318.628253554,319.42495986000006,320.21996283300007,320.209235315,320.2095696729999,320.21996283300007,320.21996283300007,320.21996283300007,322.654683763,,,,,,,,,,,,,,,,,,,,,,,,,,,,,,left,0.0,2.431021886000053,,,,,,,sub-144,1,random_dot,,
right,right,52.0,0.0,26.0,right,1.0,2.5365076379998754,,accuracy,space,4.607731720999936,,,,,,0.0,0.0,0.0,0.0,26.0,0.0,52.0,1.0,322.66074529800005,,,,,,,,,322.654975351,322.7531059460001,323.5439180469999,323.53720735800005,323.537548829,323.5439180469999,323.5439180469999,323.5439180469999,326.088922583,,,,,,,,,,,,,,,,,,,,,,,,,,,,,,right,1.0,2.5365076379998754,,,,,,,sub-144,1,random_dot,,
left,left,53.0,1.0,26.0,right,0.0,3.274798217000125,,accuracy,space,4.607731720999936,,,,,,0.0,0.0,0.0,0.0,26.0,1.0,53.0,0.0,326.0954001900001,,,,,,,,,326.0892815420001,326.1865646760001,326.97718311200003,326.97055791000014,326.97089447500014,326.97718311200003,326.97718311200003,326.97718311200003,330.2548365660001,,,,,,,,,,,,,,,,,,,,,,,,,,,,,,right,0.0,3.274798217000125,,,,,,,sub-144,1,random_dot,,
right,right,54.0,0.0,27.0,right,1.0,4.137997891000168,,accuracy,space,4.607731720999936,,,,,,0.0,0.0,0.0,0.0,27.0,0.0,54.0,1.0,330.26115226000013,,,,,,,,,330.2551293580001,330.35320660900004,331.144220022,331.1375844390001,331.13791660000004,331.144220022,331.144220022,331.144220022,335.288056598,,,,,,,,,,,,,,,,,,,,,,,,,,,,,,right,1.0,4.137997891000168,,,,,,,sub-144,1,random_dot,,
left,left,55.0,1.0,27.0,right,0.0,5.5496774579999055,,accuracy,space,4.607731720999936,,,,,,0.0,0.0,0.0,0.0,27.0,1.0,55.0,0.0,335.29415845999995,,,,,,,,,335.288356167,336.48655973000007,337.27746930900014,337.270830438,337.271163346,337.27746930900014,337.27746930900014,337.27746930900014,342.83858949600005,,,,,,,,,,,,,,,,,,,,,,,,,,,,,,right,0.0,5.5496774579999055,,342.25939861099994,,,,,sub-144,1,random_dot,,
right,right,56.0,0.0,28.0,left,0.0,1.6986208239998175,,accuracy,space,4.607731720999936,,,,,,0.0,0.0,0.0,0.0,28.0,0.0,56.0,1.0,342.8448175120001,,,,,,,,,342.83891416099993,344.036582436,344.8276924380001,344.8206138700001,344.8211102260001,344.8276924380001,344.8276924380001,344.8276924380001,346.5279802430001,,,,,,,,,,,,,,,,,,,,,,,,,,,,,,left,0.0,1.6986208239998175,,,,,,,sub-144,1,random_dot,,
left,left,57.0,1.0,28.0,right,0.0,2.5355596609999798,,accuracy,space,4.607731720999936,,,,,,0.0,0.0,0.0,0.0,28.0,1.0,57.0,0.0,346.5366586020001,,,,,,,,,346.52827036099995,346.8752776980001,347.66997740399995,347.659317538,347.65965201100005,347.66997740399995,347.66997740399995,347.66997740399995,350.2117849929999,,,,,,,,,,,,,,,,,,,,,,,,,,,,,,right,0.0,2.5355596609999798,,,,,,,sub-144,1,random_dot,,
left,left,58.0,0.0,29.0,left,1.0,1.1240422480000234,,accuracy,space,4.607731720999936,,,,,,0.0,0.0,0.0,0.0,29.0,0.0,58.0,0.0,350.21973837300004,,,,,,,,,350.21214148599995,351.408490594,352.20340084199995,352.1924532470001,352.192795054,352.20340084199995,352.20340084199995,352.20340084199995,353.338941761,,,,,,,,,,,,,,,,,,,,,,,,,,,,,,left,1.0,1.1240422480000234,,,,,,,sub-144,1,random_dot,,
right,right,59.0,1.0,29.0,left,0.0,2.008610469999894,,accuracy,space,4.607731720999936,,,,,,0.0,0.0,0.0,0.0,29.0,1.0,59.0,1.0,353.3440291800001,,,,,,,,,353.33926117299995,353.686746812,354.4772327050001,354.4706431620001,354.470975606,354.4772327050001,354.4772327050001,354.4772327050001,356.48783635000007,,,,,,,,,,,,,,,,,,,,,,,,,,,,,,left,0.0,2.008610469999894,,,,,,,sub-144,1,random_dot,,
,,0.0,0.0,0.0,,,,,accuracy,space,4.607731720999936,,,,,,0.0,0.0,0.0,0.0,,,,,,,,,,,,,,,,,,,,,,,,,,,,,,,,,,,,,,,,,,,,,,,,,,,,,,,,,,,,,sub-144,1,random_dot,,
left,left,0.0,0.0,0.0,left,1.0,0.7689665860000332,,speed,space,4.062415175000069,,,,,,0.0,1.0,1.0,1.0,0.0,0.0,0.0,0.0,360.582444995,,,,,,,,,360.575973822,361.7695987380001,362.560597216,362.55392501,362.554264406,362.560597216,362.560597216,362.560597216,363.338381484,,,,,,,,,,,,,,,,,,,,,,,356.4968317710001,356.5068177730001,356.5068177730001,360.57146169200007,space,4.062415175000069,,left,1.0,0.7689665860000332,,,,,,,sub-144,1,random_dot,,
right,right,1.0,1.0,0.0,left,0.0,1.348570344000109,,speed,space,4.062415175000069,,,,,,0.0,1.0,1.0,1.0,0.0,1.0,1.0,1.0,363.34460675,,,,,,,,,363.3387406830001,364.5367732369999,365.327322624,365.32064466200006,365.32098136799993,365.327322624,365.327322624,365.327322624,366.6877557660001,,,,,,,,,,,,,,,,,,,,,,,,,,,,,,left,0.0,1.348570344000109,,,,,,,sub-144,1,random_dot,,
right,right,2.0,0.0,1.0,right,1.0,1.165803465999943,,speed,space,4.062415175000069,,,,,,0.0,1.0,1.0,1.0,1.0,0.0,2.0,1.0,366.6925619320001,,,,,,,,,366.688049582,366.7864951410001,367.577325351,367.570669093,367.5710045560001,367.577325351,367.577325351,367.577325351,368.7447851200001,,,,,,,,,,,,,,,,,,,,,,,,,,,,,,right,1.0,1.165803465999943,,,,,,,sub-144,1,random_dot,,
left,left,3.0,1.0,1.0,left,1.0,1.122790428000144,,speed,space,4.062415175000069,,,,,,0.0,1.0,1.0,1.0,1.0,1.0,3.0,0.0,368.753379292,,,,,,,,,368.7450769000001,368.8422936620001,369.63683214800005,369.6261154320001,369.626450719,369.63683214800005,369.63683214800005,369.63683214800005,370.7613915400001,,,,,,,,,,,,,,,,,,,,,,,,,,,,,,left,1.0,1.122790428000144,,,,,,,sub-144,1,random_dot,,
left,left,4.0,0.0,2.0,left,1.0,1.1493617730000096,,speed,space,4.062415175000069,,,,,,0.0,1.0,1.0,1.0,2.0,0.0,4.0,0.0,370.7701028089999,,,,,,,,,370.761682643,370.858680788,371.65356459,371.6428491109999,371.643183305,371.65356459,371.65356459,371.65356459,372.8047168930001,,,,,,,,,,,,,,,,,,,,,,,,,,,,,,left,1.0,1.1493617730000096,,,,,,,sub-144,1,random_dot,,
right,right,5.0,1.0,2.0,right,1.0,1.0644006269999409,,speed,space,4.062415175000069,,,,,,0.0,1.0,1.0,1.0,2.0,1.0,5.0,1.0,372.8108604739999,,,,,,,,,372.8050045660001,373.60325240300006,374.39409796100006,374.3874567460001,374.38779396100006,374.39409796100006,374.39409796100006,374.39409796100006,375.4617708730001,,,,,,,,,,,,,,,,,,,,,,,,,,,,,,right,1.0,1.0644006269999409,,,,,,,sub-144,1,random_dot,,
left,left,6.0,0.0,3.0,left,1.0,1.1831668009999703,,speed,space,4.062415175000069,,,,,,0.0,1.0,1.0,1.0,3.0,0.0,6.0,0.0,375.4699218510001,,,,,,,,,375.462125788,376.25880499200014,377.0534703249999,377.042913892,377.0432751060001,377.0534703249999,377.0534703249999,377.0534703249999,378.238444432,,,,,,,,,,,,,,,,,,,,,,,,,,,,,,left,1.0,1.1831668009999703,,,,,,,sub-144,1,random_dot,,
right,right,7.0,1.0,3.0,right,1.0,2.23489913100002,,speed,space,4.062415175000069,,,,,,0.0,1.0,1.0,1.0,3.0,1.0,7.0,1.0,378.2445534980001,,,,,,,,,378.2387332080001,379.4366691260001,380.2276738439999,380.220768093,380.2212652459999,380.2276738439999,380.2276738439999,380.2276738439999,382.4718975520001,,,,,,,,,,,,,,,,,,,,,,,,,,,,,,right,1.0,2.23489913100002,,,,,,,sub-144,1,random_dot,,
left,left,8.0,0.0,4.0,right,0.0,2.229227463999905,,speed,space,4.062415175000069,,,,,,0.0,1.0,1.0,1.0,4.0,0.0,8.0,0.0,382.478425011,,,,,,,,,382.472251844,383.67030757300006,384.460950646,384.454211204,384.454547707,384.460950646,384.460950646,384.460950646,386.694942511,,,,,,,,,,,,,,,,,,,,,,,,,,,,,,right,0.0,2.229227463999905,,,,,,,sub-144,1,random_dot,,
right,right,9.0,1.0,4.0,right,1.0,2.0798168809999424,,speed,space,4.062415175000069,,,,,,0.0,1.0,1.0,1.0,4.0,1.0,9.0,1.0,386.703256597,,,,,,,,,386.695284302,387.04207961300006,387.836750181,387.826290221,387.8266176600001,387.836750181,387.836750181,387.836750181,389.92172479700014,,,,,,,,,,,,,,,,,,,,,,,,,,,,,,right,1.0,2.0798168809999424,,,,,,,sub-144,1,random_dot,,
left,left,10.0,0.0,5.0,right,0.0,1.8809185950001392,,speed,space,4.062415175000069,,,,,,0.0,1.0,1.0,1.0,5.0,0.0,10.0,0.0,389.927893531,,,,,,,,,389.922027539,390.0201142110001,390.810695672,390.8040311860001,390.804362875,390.810695672,390.810695672,390.810695672,392.69548641300014,,,,,,,,,,,,,,,,,,,,,,,,,,,,,,right,0.0,1.8809185950001392,,,,,,,sub-144,1,random_dot,,
right,right,11.0,1.0,5.0,left,0.0,0.951638340000045,,speed,space,4.062415175000069,,,,,,0.0,1.0,1.0,1.0,5.0,1.0,11.0,1.0,392.7034360440001,,,,,,,,,392.69578108100006,393.8919649170001,394.686797645,394.6762123110001,394.67654231099993,394.686797645,394.686797645,394.686797645,395.6444743640001,,,,,,,,,,,,,,,,,,,,,,,,,,,,,,left,0.0,0.951638340000045,,,,,,,sub-144,1,random_dot,,
right,right,12.0,0.0,6.0,right,1.0,0.92244335700002,,speed,space,4.062415175000069,,,,,,0.0,1.0,1.0,1.0,6.0,0.0,12.0,1.0,395.65353217,,,,,,,,,395.6448273540001,396.4420909240001,397.236883617,397.2264032080001,397.2267317930001,397.236883617,397.236883617,397.236883617,398.1609769130001,,,,,,,,,,,,,,,,,,,,,,,,,,,,,,right,1.0,0.92244335700002,,,,,,,sub-144,1,random_dot,,
left,left,13.0,1.0,6.0,left,1.0,0.9827859670001544,,speed,space,4.062415175000069,,,,,,0.0,1.0,1.0,1.0,6.0,1.0,13.0,0.0,398.1698368200001,,,,,,,,,398.161217874,398.259854428,399.0607485290001,399.054044783,399.05438263100007,399.0607485290001,399.0607485290001,399.0607485290001,400.04524948000005,,,,,,,,,,,,,,,,,,,,,,,,,,,,,,left,1.0,0.9827859670001544,,,,,,,sub-144,1,random_dot,,
right,right,14.0,0.0,7.0,right,1.0,0.7357216160000917,,speed,space,4.062415175000069,,,,,,0.0,1.0,1.0,1.0,7.0,0.0,14.0,1.0,400.05328888,,,,,,,,,400.04553599100007,400.142283524,400.9368269560001,400.926099939,400.9264340440001,400.9368269560001,400.9368269560001,400.9368269560001,401.678693788,,,,,,,,,,,,,,,,,,,,,,,,,,,,,,right,1.0,0.7357216160000917,,,,,,,sub-144,1,random_dot,,
left,left,15.0,1.0,7.0,right,0.0,3.568927299000052,,speed,space,4.062415175000069,,,,,,0.0,1.0,1.0,1.0,7.0,1.0,15.0,0.0,401.686835464,,,,,,,,,401.6789893040001,402.4755626940001,403.2700179080001,403.2592042540001,403.259538553,403.2700179080001,403.2700179080001,403.2700179080001,406.8451664380001,,,,,,,,,,,,,,,,,,,,,,,,,,,,,,right,0.0,3.568927299000052,,,,,,,sub-144,1,random_dot,,
left,left,16.0,0.0,8.0,left,1.0,1.649657975999844,,speed,space,4.062415175000069,,,,,,0.0,1.0,1.0,1.0,8.0,0.0,16.0,0.0,406.8533830980001,,,,,,,,,406.8454576580001,406.942289532,407.736790348,407.72642715,407.726757608,407.736790348,407.736790348,407.736790348,409.3885272410001,,,,,,,,,,,,,,,,,,,,,,,,,,,,,,left,1.0,1.649657975999844,,,,,,,sub-144,1,random_dot,,
right,right,17.0,1.0,8.0,right,1.0,0.7402415770000061,,speed,space,4.062415175000069,,,,,,0.0,1.0,1.0,1.0,8.0,1.0,17.0,1.0,409.3945271250001,,,,,,,,,409.388834511,409.4868081180001,410.277311126,410.2708343590001,410.27117124300014,410.277311126,410.277311126,410.277311126,411.021947694,,,,,,,,,,,,,,,,,,,,,,,,,,,,,,right,1.0,0.7402415770000061,,,,,,,sub-144,1,random_dot,,
left,left,18.0,0.0,9.0,right,0.0,1.0999383600001238,,speed,space,4.062415175000069,,,,,,0.0,1.0,1.0,1.0,9.0,0.0,18.0,0.0,411.028196097,,,,,,,,,411.02224051,411.820217349,412.6110003970001,412.6042801760001,412.60461394900005,412.6110003970001,412.6110003970001,412.6110003970001,413.72079761399993,,,,,,,,,,,,,,,,,,,,,,,,,,,,,,right,0.0,1.0999383600001238,,,,,,,sub-144,1,random_dot,,
right,right,19.0,1.0,9.0,right,1.0,2.049732576999986,,speed,space,4.062415175000069,,,,,,0.0,1.0,1.0,1.0,9.0,1.0,19.0,1.0,413.725791342,,,,,,,,,413.72109913,414.5088594340001,415.3035943599999,415.292721721,415.293056416,415.3035943599999,415.3035943599999,415.3035943599999,417.3552125590001,,,,,,,,,,,,,,,,,,,,,,,,,,,,,,right,1.0,2.049732576999986,,,,,,,sub-144,1,random_dot,,
left,left,20.0,0.0,10.0,right,0.0,1.753826269000001,,speed,space,4.062415175000069,,,,,,0.0,1.0,1.0,1.0,10.0,0.0,20.0,0.0,417.3615299540001,,,,,,,,,417.3555031469999,417.7035189710001,418.4947283980001,418.48775027599993,418.4880858590001,418.4947283980001,418.4947283980001,418.4947283980001,420.255075186,,,,,,,,,,,,,,,,,,,,,,,,,,,,,,right,0.0,1.753826269000001,,,,,,,sub-144,1,random_dot,,
right,right,21.0,1.0,10.0,right,1.0,2.324597672999971,,speed,space,4.062415175000069,,,,,,0.0,1.0,1.0,1.0,10.0,1.0,21.0,1.0,420.26111617,,,,,,,,,420.2553637710001,420.353539519,421.144360502,421.137490252,421.137825746,421.144360502,421.144360502,421.144360502,423.4720086850001,,,,,,,,,,,,,,,,,,,,,,,,,,,,,,right,1.0,2.324597672999971,,,,,,,sub-144,1,random_dot,,
left,left,22.0,0.0,11.0,left,1.0,0.899168058999976,,speed,space,4.062415175000069,,,,,,0.0,1.0,1.0,1.0,11.0,0.0,22.0,0.0,423.478326869,,,,,,,,,423.4723021640001,423.82016767900006,424.611059858,424.604077439,424.60442766,424.611059858,424.611059858,424.611059858,425.5119425490001,,,,,,,,,,,,,,,,,,,,,,,,,,,,,,left,1.0,0.899168058999976,,,,,,,sub-144,1,random_dot,,
right,right,23.0,1.0,11.0,right,1.0,0.925818276999962,,speed,space,4.062415175000069,,,,,,0.0,1.0,1.0,1.0,11.0,1.0,23.0,1.0,425.5200762400001,,,,,,,,,425.512231973,425.858996393,426.653667742,426.64317949200006,426.643515437,426.653667742,426.653667742,426.653667742,427.5886507240001,,,,,,,,,,,,,,,,,,,,,,,,,,,,,,right,1.0,0.925818276999962,,,,,,,sub-144,1,random_dot,,
left,left,24.0,0.0,12.0,right,0.0,1.2796407989999352,,speed,space,4.062415175000069,,,,,,0.0,1.0,1.0,1.0,12.0,0.0,24.0,0.0,427.59497961599993,,,,,,,,,427.58895453899993,428.7867827440001,429.577640697,429.5709262859999,429.571258004,429.577640697,429.577640697,429.577640697,430.8621865670001,,,,,,,,,,,,,,,,,,,,,,,,,,,,,,right,0.0,1.2796407989999352,,,,,,,sub-144,1,random_dot,,
right,right,25.0,1.0,12.0,right,1.0,1.7152724299999136,,speed,space,4.062415175000069,,,,,,0.0,1.0,1.0,1.0,12.0,1.0,25.0,1.0,430.87008881300005,,,,,,,,,430.862477047,432.0589127940001,432.8534278359999,432.843048309,432.843379583,432.8534278359999,432.8534278359999,432.8534278359999,434.5715189240001,,,,,,,,,,,,,,,,,,,,,,,,,,,,,,right,1.0,1.7152724299999136,,,,,,,sub-144,1,random_dot,,
left,left,26.0,0.0,13.0,right,0.0,1.515903243999901,,speed,space,4.062415175000069,,,,,,0.0,1.0,1.0,1.0,13.0,0.0,26.0,0.0,434.577439945,,,,,,,,,434.57181676200014,435.770360955,436.560809851,436.5542072290001,436.554537378,436.560809851,436.560809851,436.560809851,438.078347279,,,,,,,,,,,,,,,,,,,,,,,,,,,,,,right,0.0,1.515903243999901,,,,,,,sub-144,1,random_dot,,
right,right,27.0,1.0,13.0,left,0.0,1.9855612290000408,,speed,space,4.062415175000069,,,,,,0.0,1.0,1.0,1.0,13.0,1.0,27.0,1.0,438.0870187250001,,,,,,,,,438.07863602300006,439.275557065,440.0702043520001,440.0599050270001,440.0602311010001,440.0702043520001,440.0702043520001,440.0702043520001,442.06188375,,,,,,,,,,,,,,,,,,,,,,,,,,,,,,left,0.0,1.9855612290000408,,,,,,,sub-144,1,random_dot,,
right,right,28.0,0.0,14.0,right,1.0,1.0909783940001034,,speed,space,4.062415175000069,,,,,,0.0,1.0,1.0,1.0,14.0,0.0,28.0,1.0,442.07042107,,,,,,,,,442.062213219,442.408854095,443.203494799,443.19324736300007,443.193574513,443.203494799,443.203494799,443.203494799,444.305292421,,,,,,,,,,,,,,,,,,,,,,,,,,,,,,right,1.0,1.0909783940001034,,,,,,,sub-144,1,random_dot,,
left,left,29.0,1.0,14.0,right,0.0,1.1574014780001107,,speed,space,4.062415175000069,,,,,,0.0,1.0,1.0,1.0,14.0,1.0,29.0,0.0,444.3101435080001,,,,,,,,,444.305582138,445.1035165920001,445.89439853400006,445.8876412160001,445.8879940119999,445.89439853400006,445.89439853400006,445.89439853400006,447.05480150000005,,,,,,,,,,,,,,,,,,,,,,,,,,,,,,right,0.0,1.1574014780001107,,,,,,,sub-144,1,random_dot,,
right,right,30.0,0.0,15.0,left,0.0,1.4202644500001045,,speed,space,4.062415175000069,,,,,,0.0,1.0,1.0,1.0,15.0,0.0,30.0,1.0,447.060764839,,,,,,,,,447.055091975,448.253482385,449.044542068,449.0377869790001,449.0381222720001,449.044542068,449.044542068,449.044542068,450.4722807,,,,,,,,,,,,,,,,,,,,,,,,,,,,,,left,0.0,1.4202644500001045,,,,,,,sub-144,1,random_dot,,
left,left,31.0,1.0,15.0,right,0.0,1.184154984000088,,speed,space,4.062415175000069,,,,,,0.0,1.0,1.0,1.0,15.0,1.0,31.0,0.0,450.47857164,,,,,,,,,450.47265818300014,450.570384046,451.361279784,451.3543807550001,451.354717562,451.361279784,451.361279784,451.361279784,452.5553025420001,,,,,,,,,,,,,,,,,,,,,,,,,,,,,,right,0.0,1.184154984000088,,,,,,,sub-144,1,random_dot,,
left,left,32.0,0.0,16.0,left,1.0,3.084171069000149,,speed,space,4.062415175000069,,,,,,0.0,1.0,1.0,1.0,16.0,0.0,32.0,0.0,452.5614274139999,,,,,,,,,452.55557842299993,453.753741031,454.545103711,454.537840348,454.538202267,454.545103711,454.545103711,454.545103711,457.6391385620001,,,,,,,,,,,,,,,,,,,,,,,,,,,,,,left,1.0,3.084171069000149,,,,,,,sub-144,1,random_dot,,
right,right,33.0,1.0,16.0,right,1.0,0.7198276379999697,,speed,space,4.062415175000069,,,,,,0.0,1.0,1.0,1.0,16.0,1.0,33.0,1.0,457.6453266750001,,,,,,,,,457.63944276199993,457.987117197,458.776467775,458.770291042,458.7705050999999,458.776467775,458.776467775,458.776467775,459.5054299320001,,,,,,,,,,,,,,,,,,,,,,,,,,,,,,right,1.0,0.7198276379999697,,,,,,,sub-144,1,random_dot,,
right,right,34.0,0.0,17.0,left,0.0,0.8299899450000794,,speed,space,4.062415175000069,,,,,,0.0,1.0,1.0,1.0,17.0,0.0,34.0,1.0,459.511576476,,,,,,,,,459.505725848,460.303615441,461.094332737,461.08769868799993,461.088029189,461.094332737,461.094332737,461.094332737,461.928851559,,,,,,,,,,,,,,,,,,,,,,,,,,,,,,left,0.0,0.8299899450000794,,,,,,,sub-144,1,random_dot,,
left,left,35.0,1.0,17.0,right,0.0,0.828684960000146,,speed,space,4.062415175000069,,,,,,0.0,1.0,1.0,1.0,17.0,1.0,35.0,0.0,461.93684363800014,,,,,,,,,461.9291548990001,462.025810387,462.8205008169999,462.809421178,462.809777651,462.8205008169999,462.8205008169999,462.8205008169999,463.65533124900014,,,,,,,,,,,,,,,,,,,,,,,,,,,,,,right,0.0,0.828684960000146,,,,,,,sub-144,1,random_dot,,
right,right,36.0,0.0,18.0,right,1.0,1.447214170000052,,speed,space,4.062415175000069,,,,,,0.0,1.0,1.0,1.0,18.0,0.0,36.0,1.0,463.661478484,,,,,,,,,463.655625901,464.8535886630001,465.64372645700007,465.6375337170001,465.637797582,465.64372645700007,465.64372645700007,465.64372645700007,467.095042415,,,,,,,,,,,,,,,,,,,,,,,,,,,,,,right,1.0,1.447214170000052,,,,,,,sub-144,1,random_dot,,
left,left,37.0,1.0,18.0,right,0.0,0.9456171480001104,,speed,space,4.062415175000069,,,,,,0.0,1.0,1.0,1.0,18.0,1.0,37.0,0.0,467.103541158,,,,,,,,,467.09532022299993,467.8923169200001,468.687011872,468.67602160600006,468.67632563400014,468.687011872,468.687011872,468.687011872,469.6385784380001,,,,,,,,,,,,,,,,,,,,,,,,,,,,,,right,0.0,0.9456171480001104,,,,,,,sub-144,1,random_dot,,
left,left,38.0,0.0,19.0,right,0.0,0.9013223459999152,,speed,space,4.062415175000069,,,,,,0.0,1.0,1.0,1.0,19.0,0.0,38.0,0.0,469.644768384,,,,,,,,,469.6388803440001,469.737118208,470.52761377700006,470.520957656,470.521288392,470.52761377700006,470.52761377700006,470.52761377700006,471.4382232429999,,,,,,,,,,,,,,,,,,,,,,,,,,,,,,right,0.0,0.9013223459999152,,,,,,,sub-144,1,random_dot,,
right,right,39.0,1.0,19.0,right,1.0,3.613713284999904,,speed,space,4.062415175000069,,,,,,0.0,1.0,1.0,1.0,19.0,1.0,39.0,1.0,471.44405058199993,,,,,,,,,471.438502655,472.236808899,473.0270495200001,473.020681182,473.02098960699993,473.0270495200001,473.0270495200001,473.0270495200001,476.645841978,,,,,,,,,,,,,,,,,,,,,,,,,,,,,,right,1.0,3.613713284999904,,,,,,,sub-144,1,random_dot,,
right,right,40.0,0.0,20.0,right,1.0,1.5557345439999608,,speed,space,4.062415175000069,,,,,,0.0,1.0,1.0,1.0,20.0,0.0,40.0,1.0,476.653623351,,,,,,,,,476.646140796,477.8423320390001,478.637053717,478.6264940580001,478.626837058,478.637053717,478.637053717,478.637053717,480.195829763,,,,,,,,,,,,,,,,,,,,,,,,,,,,,,right,1.0,1.5557345439999608,,,,,,,sub-144,1,random_dot,,
left,left,41.0,1.0,20.0,left,1.0,0.8831547910001518,,speed,space,4.062415175000069,,,,,,0.0,1.0,1.0,1.0,20.0,1.0,41.0,0.0,480.2037225780001,,,,,,,,,480.1961223270001,481.392427781,482.187115112,482.17675932300006,482.1771039409999,482.187115112,482.187115112,482.187115112,483.07227628700014,,,,,,,,,,,,,,,,,,,,,,,,,,,,,,left,1.0,0.8831547910001518,,,,,,,sub-144,1,random_dot,,
right,right,42.0,0.0,21.0,right,1.0,1.1529108140000517,,speed,space,4.062415175000069,,,,,,0.0,1.0,1.0,1.0,21.0,0.0,42.0,1.0,483.0783915840001,,,,,,,,,483.0725746920001,483.1704266140001,483.961298376,483.9543589599999,483.954696725,483.961298376,483.961298376,483.961298376,485.1221763520001,,,,,,,,,,,,,,,,,,,,,,,,,,,,,,right,1.0,1.1529108140000517,,,,,,,sub-144,1,random_dot,,
left,left,43.0,1.0,21.0,left,1.0,1.9837034649999623,,speed,space,4.062415175000069,,,,,,0.0,1.0,1.0,1.0,21.0,1.0,43.0,0.0,485.1284269050001,,,,,,,,,485.122532277,485.9204107890001,486.711237529,486.7043692410001,486.70470662700006,486.711237529,486.711237529,486.711237529,488.7055422310001,,,,,,,,,,,,,,,,,,,,,,,,,,,,,,left,1.0,1.9837034649999623,,,,,,,sub-144,1,random_dot,,
left,left,44.0,0.0,22.0,right,0.0,1.8380904000000555,,speed,space,4.062415175000069,,,,,,0.0,1.0,1.0,1.0,22.0,0.0,44.0,0.0,488.71060341200007,,,,,,,,,488.7059191320001,488.803606066,489.594512709,489.5877614510001,489.588113254,489.594512709,489.594512709,489.594512709,491.4385414280001,,,,,,,,,,,,,,,,,,,,,,,,,,,,,,right,0.0,1.8380904000000555,,,,,,,sub-144,1,random_dot,,
right,right,45.0,1.0,22.0,right,1.0,1.131058266000082,,speed,space,4.062415175000069,,,,,,0.0,1.0,1.0,1.0,22.0,1.0,45.0,1.0,491.444319806,,,,,,,,,491.4388392039999,491.5371650190001,492.32783569700007,492.3211075780001,492.321444884,492.32783569700007,492.32783569700007,492.32783569700007,493.462131526,,,,,,,,,,,,,,,,,,,,,,,,,,,,,,right,1.0,1.131058266000082,,,,,,,sub-144,1,random_dot,,
left,left,46.0,0.0,23.0,left,1.0,4.385665166999843,,speed,space,4.062415175000069,,,,,,0.0,1.0,1.0,1.0,23.0,0.0,46.0,0.0,493.470568825,,,,,,,,,493.462423826,493.809107509,494.60385357100006,494.593254772,494.5935849250001,494.60385357100006,494.60385357100006,494.60385357100006,498.9956620500001,,,,,,,,,,,,,,,,,,,,,,,,,,,,,,left,1.0,4.385665166999843,,,,,,,sub-144,1,random_dot,,
right,right,47.0,1.0,23.0,right,1.0,0.9662660980000056,,speed,space,4.062415175000069,,,,,,0.0,1.0,1.0,1.0,23.0,1.0,47.0,1.0,499.003694656,,,,,,,,,498.995966841,500.1925165220001,500.98722570100006,500.9764403200001,500.9767673320001,500.98722570100006,500.98722570100006,500.98722570100006,501.9554411560001,,,,,,,,,,,,,,,,,,,,,,,,,,,,,,right,1.0,0.9662660980000056,,,,,,,sub-144,1,random_dot,,
right,right,48.0,0.0,24.0,right,1.0,1.4527689770000052,,speed,space,4.062415175000069,,,,,,0.0,1.0,1.0,1.0,24.0,0.0,48.0,1.0,501.9616891260001,,,,,,,,,501.955736921,502.3037973040001,503.095126495,503.0880730729999,503.0884027149999,503.095126495,503.095126495,503.095126495,504.555660055,,,,,,,,,,,,,,,,,,,,,,,,,,,,,,right,1.0,1.4527689770000052,,,,,,,sub-144,1,random_dot,,
left,left,49.0,1.0,24.0,left,1.0,1.283870085999979,,speed,space,4.062415175000069,,,,,,0.0,1.0,1.0,1.0,24.0,1.0,49.0,0.0,504.56206063799993,,,,,,,,,504.55602081400014,504.9038102610001,505.6947178460001,505.6878238580001,505.688159363,505.6947178460001,505.6947178460001,505.6947178460001,506.988909997,,,,,,,,,,,,,,,,,,,,,,,,,,,,,,left,1.0,1.283870085999979,,,,,,,sub-144,1,random_dot,,
left,left,50.0,0.0,25.0,right,0.0,1.89433950800003,,speed,space,4.062415175000069,,,,,,0.0,1.0,1.0,1.0,25.0,0.0,50.0,0.0,506.9952011040001,,,,,,,,,506.989210454,507.0871179679999,507.87795476200006,507.871246155,507.8715870580001,507.87795476200006,507.87795476200006,507.87795476200006,509.778806679,,,,,,,,,,,,,,,,,,,,,,,,,,,,,,right,0.0,1.89433950800003,,,,,,,sub-144,1,random_dot,,
right,right,51.0,1.0,25.0,right,1.0,1.187579372000073,,speed,space,4.062415175000069,,,,,,0.0,1.0,1.0,1.0,25.0,1.0,51.0,1.0,509.78705543600006,,,,,,,,,509.7791114160001,510.975772877,511.7705135279999,511.7595615080001,511.759890876,511.7705135279999,511.7705135279999,511.7705135279999,512.9619587590001,,,,,,,,,,,,,,,,,,,,,,,,,,,,,,right,1.0,1.187579372000073,,,,,,,sub-144,1,random_dot,,
left,left,52.0,0.0,26.0,right,0.0,1.042464502999792,,speed,space,4.062415175000069,,,,,,0.0,1.0,1.0,1.0,26.0,0.0,52.0,0.0,512.970527218,,,,,,,,,512.962231395,513.059180607,513.8538267,513.8429807020001,513.843311772,513.8538267,513.8538267,513.8538267,514.905782573,,,,,,,,,,,,,,,,,,,,,,,,,,,,,,right,0.0,1.042464502999792,,,,,,,sub-144,1,random_dot,,
right,right,53.0,1.0,26.0,left,0.0,0.8127179830000841,,speed,space,4.062415175000069,,,,,,0.0,1.0,1.0,1.0,26.0,1.0,53.0,1.0,514.911840762,,,,,,,,,514.9061246730001,515.0038047890001,515.794593079,515.787766345,515.788130285,515.794593079,515.794593079,515.794593079,516.6119775630001,,,,,,,,,,,,,,,,,,,,,,,,,,,,,,left,0.0,0.8127179830000841,,,,,,,sub-144,1,random_dot,,
left,left,54.0,0.0,27.0,left,1.0,1.083971298000051,,speed,space,4.062415175000069,,,,,,0.0,1.0,1.0,1.0,27.0,0.0,54.0,0.0,516.6204704390001,,,,,,,,,516.6122566320001,517.4094216750001,518.2038295010001,518.1930809920001,518.1934156400001,518.2038295010001,518.2038295010001,518.2038295010001,519.2961592820001,,,,,,,,,,,,,,,,,,,,,,,,,,,,,,left,1.0,1.083971298000051,,,,,,,sub-144,1,random_dot,,
right,right,55.0,1.0,27.0,right,1.0,0.999869930000159,,speed,space,4.062415175000069,,,,,,0.0,1.0,1.0,1.0,27.0,1.0,55.0,1.0,519.303771472,,,,,,,,,519.2964878000001,520.092615061,520.8871881210001,520.877161772,520.8774892590001,520.8871881210001,520.8871881210001,520.8871881210001,521.8887371760001,,,,,,,,,,,,,,,,,,,,,,,,,,,,,,right,1.0,0.999869930000159,,,,,,,sub-144,1,random_dot,,
right,right,56.0,0.0,28.0,left,0.0,1.4078505759998734,,speed,space,4.062415175000069,,,,,,0.0,1.0,1.0,1.0,28.0,0.0,56.0,1.0,521.8950240959999,,,,,,,,,521.8890372019999,523.0873123530001,523.878054615,523.871381328,523.871723547,523.878054615,523.878054615,523.878054615,525.288922048,,,,,,,,,,,,,,,,,,,,,,,,,,,,,,left,0.0,1.4078505759998734,,,,,,,sub-144,1,random_dot,,
left,left,57.0,1.0,28.0,right,0.0,1.0614671319999616,,speed,space,4.062415175000069,,,,,,0.0,1.0,1.0,1.0,28.0,1.0,57.0,0.0,525.2950364239999,,,,,,,,,525.289213355,526.087166655,526.878047088,526.8711503430001,526.871483257,526.878047088,526.878047088,526.878047088,527.9457528070001,,,,,,,,,,,,,,,,,,,,,,,,,,,,,,right,0.0,1.0614671319999616,,,,,,,sub-144,1,random_dot,,
left,left,58.0,0.0,29.0,right,0.0,1.958916219999992,,speed,space,4.062415175000069,,,,,,0.0,1.0,1.0,1.0,29.0,0.0,58.0,0.0,527.953861656,,,,,,,,,527.9461202870001,529.142571129,529.93716529,529.9264722440001,529.926801409,529.93716529,529.93716529,529.93716529,531.9052681920001,,,,,,,,,,,,,,,,,,,,,,,,,,,,,,right,0.0,1.958916219999992,,,,,,,sub-144,1,random_dot,,
right,right,59.0,1.0,29.0,right,1.0,1.7182626869998785,,speed,space,4.062415175000069,,,,,,0.0,1.0,1.0,1.0,29.0,1.0,59.0,1.0,531.9113294520001,,,,,,,,,531.905556868,532.2538847080001,533.0446959469999,533.037962906,533.0383003630001,533.0446959469999,533.0446959469999,533.0446959469999,534.772695557,,,,,,,,,,,,,,,,,,,,,,,,,,,,,,right,1.0,1.7182626869998785,,,,,,,sub-144,1,random_dot,,
,,1.0,1.0,0.0,,,,,speed,space,4.062415175000069,,,,,,0.0,1.0,1.0,1.0,,,,,,,,,,,,,,,,,,,,,,,,,,,,,,,,,,,,,,,,,,,,,,,,,,,,,,,,,,,,,sub-144,1,random_dot,,
,,,,,,,,,,,,,,,,,,,,,,,,,,,,,,,,,,,,,,,,,,,,,,,,,,,,,,,,,,,,,,,,,,,,,,,,,,,,,534.7772063169999,534.7842588049999,539.7755183590001,539.7712232160001,sub-144,1,random_dot,,
