direction,corrAns,thisN,thisTrialN,thisRepN,respDots.keys,respDots.corr,respDots.rt,respDots.duration,randomInstr,respRandomInstr.keys,respRandomInstr.rt,respRandomInstr.duration,practice_trials.thisRepN,practice_trials.thisTrialN,practice_trials.thisN,practice_trials.thisIndex,instr_trials.thisRepN,instr_trials.thisTrialN,instr_trials.thisN,instr_trials.thisIndex,test_trials.thisRepN,test_trials.thisTrialN,test_trials.thisN,test_trials.thisIndex,thisRow.t,notes,general_instruction.started,textGeneralInstr.started,respGeneralInstr.started,general_instruction.stopped,respGeneralInstr.keys,respGeneralInstr.rt,respGeneralInstr.duration,ITI.started,fixcross.started,fixcross.stopped,ITI.stopped,dots.started,backgroundDots.started,stimulusDots.started,respDots.started,dots.stopped,practice_trials.respDots.keys,practice_trials.respDots.corr,practice_trials.respDots.rt,practice_trials.respDots.duration,feedback.started,textFeedback.started,feedback.stopped,textFeedback.stopped,info.started,textInfo.started,keyRespInfo.started,info.stopped,keyRespInfo.keys,keyRespInfo.rt,keyRespInfo.duration,test_instruction.started,textTestInstr.started,respTestInstr.started,test_instruction.stopped,respTestInstr.keys,respTestInstr.rt,respTestInstr.duration,random_instruction.started,textRandomInstr.started,respRandomInstr.started,random_instruction.stopped,instr_trials.respRandomInstr.keys,instr_trials.respRandomInstr.rt,instr_trials.respRandomInstr.duration,test_trials.respDots.keys,test_trials.respDots.corr,test_trials.respDots.rt,test_trials.respDots.duration,stimulusDots.stopped,goodbye.started,textGoodbye.started,participant,session,expName,frameRate,Unnamed: 86
,,,,,,,,,,,,,,,,,,,,,,,,,,,0.0081172199861612,0.0230902670009527,0.0230902670009527,25.386896951997187,space,25.19122998398961,,,,,,,,,,,,,,,,,,,,,,,,,,,,,,,,,,,,,,,,,,,,,,,sub-088,1.0,random_dot,120.96078672052772,
left,left,0.0,0.0,0.0,left,1.0,1.821182857005624,,,,,,0.0,0.0,0.0,0.0,,,,,,,,,25.411556848004693,,,,,,,,,25.396317053004168,26.585134717985056,27.394161378004355,27.37017439497868,27.37067751999712,27.394161378004355,27.394161378004355,27.394161378004355,29.221416258980756,left,1.0,1.821182857005624,,29.226114566990876,29.25427047398989,29.724879582994618,,,,,,,,,,,,,,,,,,,,,,,,,,,,,,sub-088,1.0,random_dot,120.96078672052772,
right,right,1.0,1.0,0.0,right,1.0,0.9726089749892708,,,,,,0.0,1.0,1.0,1.0,,,,,,,,,29.736559192999263,,,,,,,,,29.72561518597649,30.0695384760038,30.86878337597591,30.85539307098952,30.85596664098557,30.86878337597591,30.86878337597591,30.86878337597591,31.85330910998164,right,1.0,0.9726089749892708,,31.85343257797649,31.86139580199961,32.35233786798199,32.358496765984455,,,,,,,,,,,,,,,,,,,,,,,,,,,,,sub-088,1.0,random_dot,120.96078672052772,
right,right,2.0,0.0,1.0,right,1.0,1.1036767800105736,,,,,,1.0,0.0,2.0,1.0,,,,,,,,,32.358496765984455,,,,,,,,,32.352728750993265,32.44319807598367,33.236631768988445,33.22636339298333,33.2270511489769,33.236631768988445,33.236631768988445,33.236631768988445,34.346603828977095,right,1.0,1.1036767800105736,,34.34668100599083,34.35804020499927,34.84208288197988,34.85295355098788,,,,,,,,,,,,,,,,,,,,,,,,,,,,,sub-088,1.0,random_dot,120.96078672052772,
left,left,3.0,1.0,1.0,right,0.0,1.5426927359949332,,,,,,1.0,1.0,3.0,0.0,,,,,,,,,34.85295355098788,,,,,,,,,34.84259373397799,36.04293610699824,36.85242101098993,36.82669585998519,36.82737730597728,36.85242101098993,36.85242101098993,36.85242101098993,38.40231784398202,right,0.0,1.5426927359949332,,38.40681210000184,38.41376541199861,38.90259011599119,38.908864354976686,,,,,,,,,,,,,,,,,,,,,,,,,,,,,sub-088,1.0,random_dot,120.96078672052772,
right,right,4.0,0.0,2.0,right,1.0,1.908878921007272,,,,,,2.0,0.0,4.0,1.0,,,,,,,,,38.908864354976686,,,,,,,,,38.90310115000466,38.990781489992514,39.78638891398441,39.77544783198391,39.77625863999128,39.78638891398441,39.78638891398441,39.78638891398441,41.70343651098665,right,1.0,1.908878921007272,,41.70822275697719,41.71693452398176,42.20216375598102,42.20820965699386,,,,,,,,,,,,,,,,,,,,,,,,,,,,,sub-088,1.0,random_dot,120.96078672052772,
left,left,5.0,1.0,2.0,left,1.0,1.0885233769949991,,,,,,2.0,1.0,5.0,0.0,,,,,,,,,42.20820965699386,,,,,,,,,42.202555790980114,43.00187120898045,43.79489851900144,43.786630839982536,43.78699551898171,43.79489851900144,43.79489851900144,43.79489851900144,44.90362126898253,left,1.0,1.0885233769949991,,44.90373104499304,44.91225242899964,45.40207004599506,45.40817231099936,,,,,,,,,,,,,,,,,,,,,,,,,,,,,sub-088,1.0,random_dot,120.96078672052772,
right,right,6.0,0.0,3.0,left,0.0,2.118818871997064,,,,,,3.0,0.0,6.0,1.0,,,,,,,,,45.40817231099936,,,,,,,,,45.402488352992805,46.20195337900077,46.99389055898064,46.98572809799225,46.98619709699415,46.99389055898064,46.99389055898064,46.99389055898064,49.119028585992055,left,0.0,2.118818871997064,,49.12067867899896,49.12737326399656,49.61911162600154,49.62512496797717,,,,,,,,,,,,,,,,,,,,,,,,,,,,,sub-088,1.0,random_dot,120.96078672052772,
left,left,7.0,1.0,3.0,right,0.0,3.138822049018927,,,,,,3.0,1.0,7.0,0.0,,,,,,,,,49.62512496797717,,,,,,,,,49.61950182399596,50.40933363899239,51.21837616400444,51.20474841899704,51.205408747977344,51.21837616400444,51.21837616400444,51.21837616400444,54.36162546498235,right,0.0,3.138822049018927,,54.36174087098334,54.371021432976704,54.85805624298519,54.8681015750044,,,,,,,,,,,,,,,,,,,,,,,,,,,,,sub-088,1.0,random_dot,120.96078672052772,
right,right,8.0,0.0,4.0,right,1.0,3.432737980998354,,,,,,4.0,0.0,8.0,1.0,,,,,,,,,54.8681015750044,,,,,,,,,54.85873338198871,55.20939941497636,56.00311389999115,55.992781320994254,55.99349167899345,56.00311389999115,56.00311389999115,56.00311389999115,59.43924139399314,right,1.0,3.432737980998354,,59.44097550900187,59.45116856798995,59.93577816998004,59.9418876869895,,,,,,,,,,,,,,,,,,,,,,,,,,,,,sub-088,1.0,random_dot,120.96078672052772,
left,left,9.0,1.0,4.0,right,0.0,1.4743233659828547,,,,,,4.0,1.0,9.0,0.0,,,,,,,,,59.9418876869895,,,,,,,,,59.93616839699098,60.28491298199515,61.07672743298463,61.0685039399832,61.06916437798645,61.07672743298463,61.07672743298463,61.07672743298463,62.55245540998294,right,0.0,1.4743233659828547,,62.55442774298717,62.56783946699579,63.054075650987215,,,,,,,,,,,,,,,,,,,,,,,,,,,,,,sub-088,1.0,random_dot,120.96078672052772,
right,right,10.0,0.0,5.0,right,1.0,1.3334754859970417,,,,,,5.0,0.0,10.0,1.0,,,,,,,,,63.069624648982426,,,,,,,,,63.05468395000207,63.14229050200083,63.94587631398463,63.93642568797805,63.93703216098948,63.94587631398463,63.94587631398463,63.94587631398463,65.28554996199091,right,1.0,1.3334754859970417,,65.28730912899482,65.30114284399315,65.78535048497724,65.7913132859976,,,,,,,,,,,,,,,,,,,,,,,,,,,,,sub-088,1.0,random_dot,120.96078672052772,
left,left,11.0,1.0,5.0,left,1.0,1.2138901310099754,,,,,,5.0,1.0,11.0,0.0,,,,,,,,,65.7913132859976,,,,,,,,,65.78573964899988,66.58487875299761,67.37701400899095,67.36861478097853,67.36909234299674,67.37701400899095,67.37701400899095,67.37701400899095,68.6018138169893,left,1.0,1.2138901310099754,,68.60189169397927,68.60847457600175,69.09170718697715,69.10144450797816,,,,,,,,,,,,,,,,,,,,,,,,,,,,,sub-088,1.0,random_dot,120.96078672052772,
left,left,12.0,0.0,6.0,right,0.0,1.62051710599917,,,,,,6.0,0.0,12.0,0.0,,,,,,,,,69.10144450797816,,,,,,,,,69.09233037297963,70.3015192799794,71.09206940198783,71.08490617599455,71.08523368497845,71.09206940198783,71.09206940198783,71.09206940198783,72.71857545999228,right,0.0,1.62051710599917,,72.72020805298234,72.72671154199634,73.21968711799127,,,,,,,,,,,,,,,,,,,,,,,,,,,,,,sub-088,1.0,random_dot,120.96078672052772,
right,right,13.0,1.0,6.0,right,1.0,2.428256840998074,,,,,,6.0,1.0,13.0,1.0,,,,,,,,,73.2258371609787,,,,,,,,,73.22029259198462,74.0088098019769,74.81090775100165,74.80285176000325,74.80330888798926,74.81090775100165,74.81090775100165,74.81090775100165,77.24194734098273,right,1.0,2.428256840998074,,77.24402417198871,77.26726582000265,77.75282448899816,,,,,,,,,,,,,,,,,,,,,,,,,,,,,,sub-088,1.0,random_dot,120.96078672052772,
left,left,14.0,0.0,7.0,right,0.0,1.0462303799868096,,,,,,7.0,0.0,14.0,0.0,,,,,,,,,77.75885031500366,,,,,,,,,77.75324616298894,78.5419883459981,79.34425785500207,79.3361047069775,79.33657673199195,79.34425785500207,79.34425785500207,79.34425785500207,80.39557610999327,right,0.0,1.0462303799868096,,80.3978112039913,80.40487091499381,80.89129217900336,80.90134620698518,,,,,,,,,,,,,,,,,,,,,,,,,,,,,sub-088,1.0,random_dot,120.96078672052772,
right,right,15.0,1.0,7.0,left,0.0,1.3550683939829469,,,,,,7.0,1.0,15.0,1.0,,,,,,,,,80.90134620698518,,,,,,,,,80.89196059497772,81.2403457609762,82.0375966889842,82.02609788099653,82.02689164399635,82.0375966889842,82.0375966889842,82.0375966889842,83.4183474079764,left,0.0,1.3550683939829469,,83.41841145599028,83.42558666499099,83.9179969279794,83.92384408798534,,,,,,,,,,,,,,,,,,,,,,,,,,,,,sub-088,1.0,random_dot,120.96078672052772,
left,left,16.0,0.0,8.0,right,0.0,1.1385790319764055,,,,,,8.0,0.0,16.0,0.0,,,,,,,,,83.92384408798534,,,,,,,,,83.91821269699722,84.25760706199799,85.0519592219789,85.04127053599223,85.04206244199304,85.0519592219789,85.0519592219789,85.0519592219789,86.19442958099535,right,0.0,1.1385790319764055,,86.19450871000299,86.20154466998065,86.6870003749791,86.70107464498142,,,,,,,,,,,,,,,,,,,,,,,,,,,,,sub-088,1.0,random_dot,120.96078672052772,
right,right,17.0,1.0,8.0,left,0.0,3.938322592002805,,,,,,8.0,1.0,17.0,1.0,,,,,,,,,86.70107464498142,,,,,,,,,86.68732801597798,87.49179957297747,88.28589118100354,88.27497183298692,88.27576230699196,88.28589118100354,88.28589118100354,88.28589118100354,92.23506496899064,left,0.0,3.938322592002805,,92.23513196298154,92.24267003498971,92.7346902579884,92.74083900099504,,,,,,,,,,,,,,,,,,,,,,,,,,,,,sub-088,1.0,random_dot,120.96078672052772,
left,left,18.0,0.0,9.0,right,0.0,1.6831198770087212,,,,,,9.0,0.0,18.0,0.0,,,,,,,,,92.74083900099504,,,,,,,,,92.73493606300326,93.07509061699966,93.86960379200173,93.85971940899616,93.86033110300195,93.86960379200173,93.86960379200173,93.86960379200173,95.56188556499546,right,0.0,1.6831198770087212,,95.5619609139976,95.57102405899786,96.0578668009839,96.06785782598308,,,,,,,,,,,,,,,,,,,,,,,,,,,,,sub-088,1.0,random_dot,120.96078672052772,
right,right,19.0,1.0,9.0,right,1.0,1.3140902619925328,,,,,,9.0,1.0,19.0,1.0,,,,,,,,,96.06785782598308,,,,,,,,,96.05834718499682,96.16049776299042,96.96764823500416,96.95417774000089,96.95483422800316,96.96764823500416,96.96764823500416,96.96764823500416,98.28859790897695,right,1.0,1.3140902619925328,,98.29031581399612,98.30113804299616,98.7851809639833,98.7955348249816,,,,,,,,,,,,,,,,,,,,,,,,,,,,,sub-088,1.0,random_dot,120.96078672052772,
,,,,,,,,,,,,,,,,,,,,,,,,,,,,,,,,,,,,,,,,,,,,,,,,,,,98.7854074240022,98.7955348249816,98.7955348249816,101.86790536399349,space,3.0654421290091705,,,,,,,,,,,,,,,,,,,,,,,sub-088,1.0,random_dot,120.96078672052772,
,,,,,,,,,,,,,,,,,,,,,,,,,,,,,,,,,,,,,,,,,,,,,,,,,,,,,,,,,,101.86797244398622,101.87688134500058,101.87688134500058,106.29368707697722,space,4.414778926002327,,,,,,,,,,,,,,,,sub-088,1.0,random_dot,120.96078672052772,
left,left,0.0,0.0,0.0,right,0.0,3.494847677997313,,accuracy,space,3.823796948010568,,,,,,0.0,0.0,0.0,0.0,0.0,0.0,0.0,0.0,110.16386784199858,,,,,,,,,110.1560965559911,110.94167052899138,111.74264413199852,111.73454601797856,111.73501519599812,111.74264413199852,111.74264413199852,111.74264413199852,115.25233808197665,,,,,,,,,,,,,,,,,,,,,,,106.30855010799132,106.31733210399398,106.31733210399398,110.15107943999465,space,3.823796948010568,,right,0.0,3.494847677997313,,,,,sub-088,1.0,random_dot,120.96078672052772,
right,right,1.0,1.0,0.0,left,0.0,2.214412023982732,,accuracy,space,3.823796948010568,,,,,,0.0,0.0,0.0,0.0,0.0,1.0,1.0,1.0,115.25957012499566,,,,,,,,,115.25265148299512,116.04165205199388,116.8358303909772,116.82483070497985,116.8254659389786,116.8358303909772,116.8358303909772,116.8358303909772,119.05221432200052,,,,,,,,,,,,,,,,,,,,,,,,,,,,,,left,0.0,2.214412023982732,,,,,sub-088,1.0,random_dot,120.96078672052772,
left,left,2.0,0.0,1.0,left,1.0,4.136327844986226,,accuracy,space,3.823796948010568,,,,,,0.0,0.0,0.0,0.0,1.0,0.0,2.0,0.0,119.059410922986,,,,,,,,,119.05253101099515,119.4003073189815,120.192267669976,120.1842225069995,120.1846897279902,120.192267669976,120.192267669976,120.192267669976,124.33518233700306,,,,,,,,,,,,,,,,,,,,,,,,,,,,,,left,1.0,4.136327844986226,,,,,sub-088,1.0,random_dot,120.96078672052772,
right,right,3.0,1.0,1.0,right,1.0,1.08557270799065,,accuracy,space,3.823796948010568,,,,,,0.0,0.0,0.0,0.0,1.0,1.0,3.0,1.0,124.34362194797724,,,,,,,,,124.3354321049992,124.67548386598357,125.46813706899412,125.45842948398786,125.4591214969987,125.46813706899412,125.46813706899412,125.46813706899412,126.566205946001,,,,,,,,,,,,,,,,,,,,,,,,,,,,,,right,1.0,1.08557270799065,,,,,sub-088,1.0,random_dot,120.96078672052772,
right,right,4.0,0.0,2.0,right,1.0,0.8528876999916974,,accuracy,space,3.823796948010568,,,,,,0.0,0.0,0.0,0.0,2.0,0.0,4.0,1.0,126.57473493998988,,,,,,,,,126.56647210899972,127.35976514799404,128.15962630699505,128.15179019697823,128.15224097800092,128.15962630699505,128.15962630699505,128.15962630699505,129.01702840899816,,,,,,,,,,,,,,,,,,,,,,,,,,,,,,right,1.0,0.8528876999916974,,,,,sub-088,1.0,random_dot,120.96078672052772,
left,left,5.0,1.0,2.0,left,1.0,0.7805121300043538,,accuracy,space,3.823796948010568,,,,,,0.0,0.0,0.0,0.0,2.0,1.0,5.0,0.0,129.02362951799296,,,,,,,,,129.01742773599108,129.35687832298572,130.16712895198725,130.14201047900133,130.14281141199172,130.16712895198725,130.16712895198725,130.16712895198725,130.9517290329968,,,,,,,,,,,,,,,,,,,,,,,,,,,,,,left,1.0,0.7805121300043538,,,,,sub-088,1.0,random_dot,120.96078672052772,
right,right,6.0,0.0,3.0,left,0.0,1.1585398530005475,,accuracy,space,3.823796948010568,,,,,,0.0,0.0,0.0,0.0,3.0,0.0,6.0,1.0,130.95930796698667,,,,,,,,,130.95199622298242,131.04144235499552,131.84345687599853,131.8354356130003,131.8358929969836,131.84345687599853,131.84345687599853,131.84345687599853,133.01812893798342,,,,,,,,,,,,,,,,,,,,,,,,,,,,,,left,0.0,1.1585398530005475,,,,,sub-088,1.0,random_dot,120.96078672052772,
left,left,7.0,1.0,3.0,right,0.0,2.7761271210038103,,accuracy,space,3.823796948010568,,,,,,0.0,0.0,0.0,0.0,3.0,1.0,7.0,0.0,133.033848209976,,,,,,,,,133.01847597199958,133.8077794709825,134.6014583959768,134.5911992949841,134.59200277598575,134.6014583959768,134.6014583959768,134.6014583959768,137.38588179799262,,,,,,,,,,,,,,,,,,,,,,,,,,,,,,right,0.0,2.7761271210038103,,,,,sub-088,1.0,random_dot,120.96078672052772,
left,left,8.0,0.0,4.0,left,1.0,1.3366851629980374,,accuracy,space,3.823796948010568,,,,,,0.0,0.0,0.0,0.0,4.0,0.0,8.0,0.0,137.39398112997878,,,,,,,,,137.3865612569789,137.73375153599773,138.52701936400263,138.51875381197897,138.51940607998404,138.52701936400263,138.52701936400263,138.52701936400263,139.87278718999005,,,,,,,,,,,,,,,,,,,,,,,,,,,,,,left,1.0,1.3366851629980374,,,,,sub-088,1.0,random_dot,120.96078672052772,
right,right,9.0,1.0,4.0,right,1.0,0.9111277969786896,,accuracy,space,3.823796948010568,,,,,,0.0,0.0,0.0,0.0,4.0,1.0,9.0,1.0,139.8831454530009,,,,,,,,,139.87302112198086,140.2237253439962,141.01741559198126,141.0068336459808,141.00747301298543,141.01741559198126,141.01741559198126,141.01741559198126,141.9372186609835,,,,,,,,,,,,,,,,,,,,,,,,,,,,,,right,1.0,0.9111277969786896,,,,,sub-088,1.0,random_dot,120.96078672052772,
left,left,10.0,0.0,5.0,left,1.0,4.445300137973391,,accuracy,space,3.823796948010568,,,,,,0.0,0.0,0.0,0.0,5.0,0.0,10.0,0.0,141.94448773399927,,,,,,,,,141.93757189597818,142.284962101985,143.08424358197954,143.0737892499892,143.0744649079861,143.08424358197954,143.08424358197954,143.08424358197954,147.5387762610044,,,,,,,,,,,,,,,,,,,,,,,,,,,,,,left,1.0,4.445300137973391,,,,,sub-088,1.0,random_dot,120.96078672052772,
right,right,11.0,1.0,5.0,left,0.0,1.6808313109795563,,accuracy,space,3.823796948010568,,,,,,0.0,0.0,0.0,0.0,5.0,1.0,11.0,1.0,147.5496569169918,,,,,,,,,147.53910326797632,147.6335398159863,148.4247915649903,148.4168516639911,148.41723293697578,148.4247915649903,148.4247915649903,148.4247915649903,150.1104917670018,,,,,,,,,,,,,,,,,,,,,,,,,,,,,,left,0.0,1.6808313109795563,,,,,sub-088,1.0,random_dot,120.96078672052772,
right,right,12.0,0.0,6.0,right,1.0,0.7512513319961727,,accuracy,space,3.823796948010568,,,,,,0.0,0.0,0.0,0.0,6.0,0.0,12.0,1.0,150.1190023419913,,,,,,,,,150.11076174100162,150.20684000998153,151.00226228899555,150.99073791198316,150.99174426298123,151.00226228899555,151.00226228899555,151.00226228899555,151.76715513097588,,,,,,,,,,,,,,,,,,,,,,,,,,,,,,right,1.0,0.7512513319961727,,,,,sub-088,1.0,random_dot,120.96078672052772,
left,left,13.0,1.0,6.0,left,1.0,0.769967464992078,,accuracy,space,3.823796948010568,,,,,,0.0,0.0,0.0,0.0,6.0,1.0,13.0,0.0,151.77483347299858,,,,,,,,,151.7674093550013,152.56842836897704,153.36816218899912,153.35725517600076,153.35805927898036,153.36816218899912,153.36816218899912,153.36816218899912,154.1509446639975,,,,,,,,,,,,,,,,,,,,,,,,,,,,,,left,1.0,0.769967464992078,,,,,sub-088,1.0,random_dot,120.96078672052772,
left,left,14.0,0.0,7.0,left,1.0,0.8038639390142635,,accuracy,space,3.823796948010568,,,,,,0.0,0.0,0.0,0.0,7.0,0.0,14.0,0.0,154.15767210899503,,,,,,,,,154.15118411698495,154.491259057977,155.28620121898712,155.27484403699054,155.27562129299622,155.28620121898712,155.28620121898712,155.28620121898712,156.10113030899083,,,,,,,,,,,,,,,,,,,,,,,,,,,,,,left,1.0,0.8038639390142635,,,,,sub-088,1.0,random_dot,120.96078672052772,
right,right,15.0,1.0,7.0,right,1.0,0.7286171659943648,,accuracy,space,3.823796948010568,,,,,,0.0,0.0,0.0,0.0,7.0,1.0,15.0,1.0,156.11676605499815,,,,,,,,,156.1015024019871,156.1910047569836,156.9849464209983,156.97387927598902,156.9746775739768,156.9849464209983,156.9849464209983,156.9849464209983,157.7185595530027,,,,,,,,,,,,,,,,,,,,,,,,,,,,,,right,1.0,0.7286171659943648,,,,,sub-088,1.0,random_dot,120.96078672052772,
left,left,16.0,0.0,8.0,left,1.0,1.697455575020285,,accuracy,space,3.823796948010568,,,,,,0.0,0.0,0.0,0.0,8.0,0.0,16.0,0.0,157.72514315298758,,,,,,,,,157.71880130199133,157.80785065499367,158.6164247529814,158.5913907829963,158.5921736479795,158.6164247529814,158.6164247529814,158.6164247529814,160.3177865369944,,,,,,,,,,,,,,,,,,,,,,,,,,,,,,left,1.0,1.697455575020285,,,,,sub-088,1.0,random_dot,120.96078672052772,
right,right,17.0,1.0,8.0,left,0.0,1.3198579869931564,,accuracy,space,3.823796948010568,,,,,,0.0,0.0,0.0,0.0,8.0,1.0,17.0,1.0,160.3244222829817,,,,,,,,,160.31808874799754,160.40771122797742,161.2069696749968,161.19990214699646,161.20016361499438,161.2069696749968,161.2069696749968,161.2069696749968,162.5369948259904,,,,,,,,,,,,,,,,,,,,,,,,,,,,,,left,0.0,1.3198579869931564,,,,,sub-088,1.0,random_dot,120.96078672052772,
right,right,18.0,0.0,9.0,left,0.0,0.9526594229973852,,accuracy,space,3.823796948010568,,,,,,0.0,0.0,0.0,0.0,9.0,0.0,18.0,1.0,162.5445875239966,,,,,,,,,162.53722659198684,163.33321355798398,164.12413504399592,164.11707796898554,164.11731410599896,164.12413504399592,164.12413504399592,164.12413504399592,165.08667305400013,,,,,,,,,,,,,,,,,,,,,,,,,,,,,,left,0.0,0.9526594229973852,,,,,sub-088,1.0,random_dot,120.96078672052772,
left,left,19.0,1.0,9.0,right,0.0,4.295723943010671,,accuracy,space,3.823796948010568,,,,,,0.0,0.0,0.0,0.0,9.0,1.0,19.0,0.0,165.0940256199974,,,,,,,,,165.08689104099176,166.2846285989799,167.08501580898883,167.0733961359947,167.07417571000406,167.08501580898883,167.08501580898883,167.08501580898883,171.38381552998908,,,,,,,,,,,,,,,,,,,,,,,,,,,,,,right,0.0,4.295723943010671,,,,,sub-088,1.0,random_dot,120.96078672052772,
left,left,20.0,0.0,10.0,left,1.0,1.5268675969855394,,accuracy,space,3.823796948010568,,,,,,0.0,0.0,0.0,0.0,10.0,0.0,20.0,0.0,171.40042878498207,,,,,,,,,171.38406392998877,171.72304357399116,172.51669461498386,172.50649279600475,172.5072137649986,172.51669461498386,172.51669461498386,172.51669461498386,174.05258727099863,,,,,,,,,,,,,,,,,,,,,,,,,,,,,,left,1.0,1.5268675969855394,,,,,sub-088,1.0,random_dot,120.96078672052772,
right,right,21.0,1.0,10.0,left,0.0,4.129810360987904,,accuracy,space,3.823796948010568,,,,,,0.0,0.0,0.0,0.0,10.0,1.0,21.0,1.0,174.0590335750021,,,,,,,,,174.0528055909963,175.2514913569903,176.05096375697758,176.0403260779858,176.04097436598386,176.05096375697758,176.05096375697758,176.05096375697758,180.2012291699939,,,,,,,,,,,,,,,,,,,,,,,,,,,,,,left,0.0,4.129810360987904,,,,,sub-088,1.0,random_dot,120.96078672052772,
left,left,22.0,0.0,11.0,left,1.0,2.4163953289971687,,accuracy,space,3.823796948010568,,,,,,0.0,0.0,0.0,0.0,11.0,0.0,22.0,0.0,180.21644599098363,,,,,,,,,180.2017633819778,181.00242525400245,181.80108964798276,181.7904223939986,181.79124803299783,181.80108964798276,181.80108964798276,181.80108964798276,184.2274184309936,,,,,,,,,,,,,,,,,,,,,,,,,,,,,,left,1.0,2.4163953289971687,,,,,sub-088,1.0,random_dot,120.96078672052772,
right,right,23.0,1.0,11.0,left,0.0,1.3761250219831709,,accuracy,space,3.823796948010568,,,,,,0.0,0.0,0.0,0.0,11.0,1.0,23.0,1.0,184.23598119898816,,,,,,,,,184.22768710300443,184.32112395999135,185.11551539599893,185.10607001397875,185.1065978109837,185.11551539599893,185.11551539599893,185.11551539599893,186.49355312398984,,,,,,,,,,,,,,,,,,,,,,,,,,,,,,left,0.0,1.3761250219831709,,,,,sub-088,1.0,random_dot,120.96078672052772,
right,right,24.0,0.0,12.0,left,0.0,5.308784586988622,,accuracy,space,3.823796948010568,,,,,,0.0,0.0,0.0,0.0,12.0,0.0,24.0,1.0,186.5019310670032,,,,,,,,,186.4938050569908,186.59119141299743,187.39194332199983,187.38379165998776,187.3842529289832,187.39194332199983,187.39194332199983,187.39194332199983,192.70838178598208,,,,,,,,,,,,,,,,,,,,,,,,,,,,,,left,0.0,5.308784586988622,,192.3759684909892,,,sub-088,1.0,random_dot,120.96078672052772,
left,left,25.0,1.0,12.0,left,1.0,0.8490794089739211,,accuracy,space,3.823796948010568,,,,,,0.0,0.0,0.0,0.0,12.0,1.0,25.0,0.0,192.71837396197952,,,,,,,,,192.70862687699264,193.5057214499975,194.29984230198895,194.2894650009985,194.2899415009888,194.29984230198895,194.29984230198895,194.29984230198895,195.15277489298023,,,,,,,,,,,,,,,,,,,,,,,,,,,,,,left,1.0,0.8490794089739211,,,,,sub-088,1.0,random_dot,120.96078672052772,
right,right,26.0,0.0,13.0,left,0.0,1.6354263560206164,,accuracy,space,3.823796948010568,,,,,,0.0,0.0,0.0,0.0,13.0,0.0,26.0,1.0,195.1602564719797,,,,,,,,,195.1531683619833,195.95061852497747,196.74940982100088,196.7392417989904,196.73974443998304,196.74940982100088,196.74940982100088,196.74940982100088,198.40054423199035,,,,,,,,,,,,,,,,,,,,,,,,,,,,,,left,0.0,1.6354263560206164,,,,,sub-088,1.0,random_dot,120.96078672052772,
left,left,27.0,1.0,13.0,right,0.0,0.9398895970080048,,accuracy,space,3.823796948010568,,,,,,0.0,0.0,0.0,0.0,13.0,1.0,27.0,0.0,198.40850138300448,,,,,,,,,198.40093789299132,198.74062629998664,199.54296738898847,199.53354949998905,199.53401377398404,199.54296738898847,199.54296738898847,199.54296738898847,200.48824766799223,,,,,,,,,,,,,,,,,,,,,,,,,,,,,,right,0.0,0.9398895970080048,,,,,sub-088,1.0,random_dot,120.96078672052772,
left,left,28.0,0.0,14.0,left,1.0,2.119508923002286,,accuracy,space,3.823796948010568,,,,,,0.0,0.0,0.0,0.0,14.0,0.0,28.0,0.0,200.4990901949932,,,,,,,,,200.4884696189838,200.83425312599863,201.6325515659992,201.62239832198247,201.62300027298625,201.6325515659992,201.6325515659992,201.6325515659992,203.7534517179884,,,,,,,,,,,,,,,,,,,,,,,,,,,,,,left,1.0,2.119508923002286,,,,,sub-088,1.0,random_dot,120.96078672052772,
right,right,29.0,1.0,14.0,right,1.0,1.4553761839924846,,accuracy,space,3.823796948010568,,,,,,0.0,0.0,0.0,0.0,14.0,1.0,29.0,1.0,203.76565826899605,,,,,,,,,203.75370944300084,203.84929400598048,204.64266967398,204.6333294879878,204.63383255997903,204.64266967398,204.64266967398,204.64266967398,206.102489582001,,,,,,,,,,,,,,,,,,,,,,,,,,,,,,right,1.0,1.4553761839924846,,,,,sub-088,1.0,random_dot,120.96078672052772,
left,left,30.0,0.0,15.0,right,0.0,0.9257057690119836,,accuracy,space,3.823796948010568,,,,,,0.0,0.0,0.0,0.0,15.0,0.0,30.0,0.0,206.1099223379861,,,,,,,,,206.10276402099407,207.2997614920023,208.091084152984,208.08308315798055,208.08353382500357,208.091084152984,208.091084152984,208.091084152984,209.0256973489886,,,,,,,,,,,,,,,,,,,,,,,,,,,,,,right,0.0,0.9257057690119836,,,,,sub-088,1.0,random_dot,120.96078672052772,
right,right,31.0,1.0,15.0,left,0.0,2.5615270850248635,,accuracy,space,3.823796948010568,,,,,,0.0,0.0,0.0,0.0,15.0,1.0,31.0,1.0,209.03443805599815,,,,,,,,,209.02592417100092,209.824148566986,210.62584780098405,210.6177288159961,210.6181830659916,210.62584780098405,210.62584780098405,210.62584780098405,213.1992787809868,,,,,,,,,,,,,,,,,,,,,,,,,,,,,,left,0.0,2.5615270850248635,,,,,sub-088,1.0,random_dot,120.96078672052772,
left,left,32.0,0.0,16.0,right,0.0,1.1562751660239885,,accuracy,space,3.823796948010568,,,,,,0.0,0.0,0.0,0.0,16.0,0.0,32.0,0.0,213.2167515679903,,,,,,,,,213.1996017859783,213.29073089797748,214.09250474299188,214.0844499550003,214.08490610000445,214.09250474299188,214.09250474299188,214.09250474299188,215.26715118499123,,,,,,,,,,,,,,,,,,,,,,,,,,,,,,right,0.0,1.1562751660239885,,,,,sub-088,1.0,random_dot,120.96078672052772,
right,right,33.0,1.0,16.0,left,0.0,3.301718795992201,,accuracy,space,3.823796948010568,,,,,,0.0,0.0,0.0,0.0,16.0,1.0,33.0,1.0,215.2759731409897,,,,,,,,,215.2675648320001,215.6073968299897,216.4162030319858,216.4024476420018,216.4029066539952,216.4162030319858,216.4162030319858,216.4162030319858,219.71916569198947,,,,,,,,,,,,,,,,,,,,,,,,,,,,,,left,0.0,3.301718795992201,,,,,sub-088,1.0,random_dot,120.96078672052772,
right,right,34.0,0.0,17.0,right,1.0,1.4074944859894458,,accuracy,space,3.823796948010568,,,,,,0.0,0.0,0.0,0.0,17.0,0.0,34.0,1.0,219.72620304097651,,,,,,,,,219.71941480899116,220.06583477999084,220.85892113100272,220.8496168339916,220.850075253984,220.85892113100272,220.85892113100272,220.85892113100272,222.2715625809797,,,,,,,,,,,,,,,,,,,,,,,,,,,,,,right,1.0,1.4074944859894458,,,,,sub-088,1.0,random_dot,120.96078672052772,
left,left,35.0,1.0,17.0,left,1.0,2.364408797002397,,accuracy,space,3.823796948010568,,,,,,0.0,0.0,0.0,0.0,17.0,1.0,35.0,0.0,222.28259148899812,,,,,,,,,222.27182292198995,223.06582957599312,223.8590878599789,223.849772630987,223.85026523697888,223.8590878599789,223.8590878599789,223.8590878599789,226.23340693599312,,,,,,,,,,,,,,,,,,,,,,,,,,,,,,left,1.0,2.364408797002397,,,,,sub-088,1.0,random_dot,120.96078672052772,
right,right,36.0,0.0,18.0,right,1.0,3.122448248992441,,accuracy,space,3.823796948010568,,,,,,0.0,0.0,0.0,0.0,18.0,0.0,36.0,1.0,226.2409350409871,,,,,,,,,226.2336822089856,226.3228503669961,227.1320565789938,227.10755011899164,227.1082271039777,227.1320565789938,227.1320565789938,227.1320565789938,230.26651852097712,,,,,,,,,,,,,,,,,,,,,,,,,,,,,,right,1.0,3.122448248992441,,,,,sub-088,1.0,random_dot,120.96078672052772,
left,left,37.0,1.0,18.0,left,1.0,0.97320406298968,,accuracy,space,3.823796948010568,,,,,,0.0,0.0,0.0,0.0,18.0,1.0,37.0,0.0,230.27309497399256,,,,,,,,,230.26675134297693,230.60673700799816,231.4002617469814,231.39014244498685,231.3909489159996,231.4002617469814,231.4002617469814,231.4002617469814,232.3827608729771,,,,,,,,,,,,,,,,,,,,,,,,,,,,,,left,1.0,0.97320406298968,,,,,sub-088,1.0,random_dot,120.96078672052772,
left,left,38.0,0.0,19.0,left,1.0,1.823142382025253,,accuracy,space,3.823796948010568,,,,,,0.0,0.0,0.0,0.0,19.0,0.0,38.0,0.0,232.3903621979989,,,,,,,,,232.3830641839886,233.1737670470029,233.97534206698765,233.9673682699795,233.96783246597624,233.97534206698765,233.97534206698765,233.97534206698765,235.8000627399888,,,,,,,,,,,,,,,,,,,,,,,,,,,,,,left,1.0,1.823142382025253,,,,,sub-088,1.0,random_dot,120.96078672052772,
right,right,39.0,1.0,19.0,right,1.0,1.4934234009997454,,accuracy,space,3.823796948010568,,,,,,0.0,0.0,0.0,0.0,19.0,1.0,39.0,1.0,235.80585440297727,,,,,,,,,235.80038247897755,235.88975375299924,236.6911908479815,236.6836750179937,236.68410477499128,236.6911908479815,236.6911908479815,236.6911908479815,238.1860727960011,,,,,,,,,,,,,,,,,,,,,,,,,,,,,,right,1.0,1.4934234009997454,,,,,sub-088,1.0,random_dot,120.96078672052772,
right,right,40.0,0.0,20.0,right,1.0,1.2014161229890306,,accuracy,space,3.823796948010568,,,,,,0.0,0.0,0.0,0.0,20.0,0.0,40.0,1.0,238.19935354599147,,,,,,,,,238.18632009098656,238.5323498740036,239.3242083289952,239.3161169779778,239.3165958499885,239.3242083289952,239.3242083289952,239.3242083289952,240.52777434297604,,,,,,,,,,,,,,,,,,,,,,,,,,,,,,right,1.0,1.2014161229890306,,,,,sub-088,1.0,random_dot,120.96078672052772,
left,left,41.0,1.0,20.0,left,1.0,1.6098855920135977,,accuracy,space,3.823796948010568,,,,,,0.0,0.0,0.0,0.0,20.0,1.0,41.0,0.0,240.53510574798565,,,,,,,,,240.5280459850037,241.7223095399968,242.51783293200424,242.50729538899031,242.50795865099644,242.51783293200424,242.51783293200424,242.51783293200424,244.1374371349812,,,,,,,,,,,,,,,,,,,,,,,,,,,,,,left,1.0,1.6098855920135977,,,,,sub-088,1.0,random_dot,120.96078672052772,
left,left,42.0,0.0,21.0,left,1.0,0.9728661559929606,,accuracy,space,3.823796948010568,,,,,,0.0,0.0,0.0,0.0,21.0,0.0,42.0,0.0,244.14864805698744,,,,,,,,,244.1376911419793,244.93382790198663,245.7329785909969,245.72088761397757,245.72135926698684,245.7329785909969,245.7329785909969,245.7329785909969,246.71110239898556,,,,,,,,,,,,,,,,,,,,,,,,,,,,,,left,1.0,0.9728661559929606,,,,,sub-088,1.0,random_dot,120.96078672052772,
right,right,43.0,1.0,21.0,right,1.0,0.7134383810043801,,accuracy,space,3.823796948010568,,,,,,0.0,0.0,0.0,0.0,21.0,1.0,43.0,1.0,246.71935665499768,,,,,,,,,246.711402535002,247.05635189497843,247.85909238198656,247.8508407310001,247.85141240697703,247.85909238198656,247.85909238198656,247.85909238198656,248.5772182639921,,,,,,,,,,,,,,,,,,,,,,,,,,,,,,right,1.0,0.7134383810043801,,,,,sub-088,1.0,random_dot,120.96078672052772,
left,left,44.0,0.0,22.0,left,1.0,0.6861434720049147,,accuracy,space,3.823796948010568,,,,,,0.0,0.0,0.0,0.0,22.0,0.0,44.0,0.0,248.58462454000252,,,,,,,,,248.57759308398815,249.3728047479817,250.17392905100127,250.1659052729956,250.16639574899452,250.17392905100127,250.17392905100127,250.17392905100127,250.86573552299524,,,,,,,,,,,,,,,,,,,,,,,,,,,,,,left,1.0,0.6861434720049147,,,,,sub-088,1.0,random_dot,120.96078672052772,
right,right,45.0,1.0,22.0,right,1.0,0.7260369370051194,,accuracy,space,3.823796948010568,,,,,,0.0,0.0,0.0,0.0,22.0,1.0,45.0,1.0,250.88185448400327,,,,,,,,,250.8660733059805,250.9554680470028,251.7485913799901,251.7383103210013,251.7386106589984,251.7485913799901,251.7485913799901,251.7485913799901,252.48367702699036,,,,,,,,,,,,,,,,,,,,,,,,,,,,,,right,1.0,0.7260369370051194,,,,,sub-088,1.0,random_dot,120.96078672052772,
left,left,46.0,0.0,23.0,left,1.0,1.0552260400145317,,accuracy,space,3.823796948010568,,,,,,0.0,0.0,0.0,0.0,23.0,0.0,46.0,0.0,252.4910933490028,,,,,,,,,252.4839065279812,252.8230948869896,253.6253545509826,253.61733939798432,253.617800899985,253.6253545509826,253.6253545509826,253.6253545509826,254.6833110989828,,,,,,,,,,,,,,,,,,,,,,,,,,,,,,left,1.0,1.0552260400145317,,,,,sub-088,1.0,random_dot,120.96078672052772,
right,right,47.0,1.0,23.0,left,0.0,2.912580936012091,,accuracy,space,3.823796948010568,,,,,,0.0,0.0,0.0,0.0,23.0,1.0,47.0,1.0,254.6898402889783,,,,,,,,,254.68356601300184,254.7830716269964,255.57402684900444,255.56601708498783,255.5664701139904,255.57402684900444,255.57402684900444,255.57402684900444,258.4922144640004,,,,,,,,,,,,,,,,,,,,,,,,,,,,,,left,0.0,2.912580936012091,,,,,sub-088,1.0,random_dot,120.96078672052772,
left,left,48.0,0.0,24.0,right,0.0,2.2873708859842736,,accuracy,space,3.823796948010568,,,,,,0.0,0.0,0.0,0.0,24.0,0.0,48.0,0.0,258.50089092500275,,,,,,,,,258.4924658809905,258.8381023319962,259.63324893597746,259.6229560280044,259.6237530459766,259.63324893597746,259.63324893597746,259.63324893597746,261.9270262209757,,,,,,,,,,,,,,,,,,,,,,,,,,,,,,right,0.0,2.2873708859842736,,,,,sub-088,1.0,random_dot,120.96078672052772,
right,right,49.0,1.0,24.0,right,1.0,10.655386810016353,,accuracy,space,3.823796948010568,,,,,,0.0,0.0,0.0,0.0,24.0,1.0,49.0,1.0,261.9342568299908,,,,,,,,,261.92751476800186,262.7235316129809,263.51754036700004,263.5066714529821,263.5074792189989,263.51754036700004,263.51754036700004,263.51754036700004,274.1831768580014,,,,,,,,,,,,,,,,,,,,,,,,,,,,,,right,1.0,10.655386810016353,,268.5058889499924,,,sub-088,1.0,random_dot,120.96078672052772,
left,left,50.0,0.0,25.0,left,1.0,0.8508360399864614,,accuracy,space,3.823796948010568,,,,,,0.0,0.0,0.0,0.0,25.0,0.0,50.0,0.0,274.18988441998954,,,,,,,,,274.1833986979909,275.38289047498256,276.1749668609991,276.1667118469777,276.1673046149954,276.1749668609991,276.1749668609991,276.1749668609991,277.0323103349947,,,,,,,,,,,,,,,,,,,,,,,,,,,,,,left,1.0,0.8508360399864614,,,,,sub-088,1.0,random_dot,120.96078672052772,
right,right,51.0,1.0,25.0,left,0.0,1.166667340992717,,accuracy,space,3.823796948010568,,,,,,0.0,0.0,0.0,0.0,25.0,1.0,51.0,1.0,277.03929166699527,,,,,,,,,277.0326472989982,278.2226903879782,279.022750795004,279.0155410110019,279.015870135976,279.022750795004,279.022750795004,279.022750795004,280.1911079879792,,,,,,,,,,,,,,,,,,,,,,,,,,,,,,left,0.0,1.166667340992717,,,,,sub-088,1.0,random_dot,120.96078672052772,
left,left,52.0,0.0,26.0,left,1.0,1.6632017670199275,,accuracy,space,3.823796948010568,,,,,,0.0,0.0,0.0,0.0,26.0,0.0,52.0,0.0,280.19881437398726,,,,,,,,,280.19136386798345,280.54007384498254,281.33634579897625,281.323596563976,281.3243918889784,281.33634579897625,281.33634579897625,281.33634579897625,283.0166554989992,,,,,,,,,,,,,,,,,,,,,,,,,,,,,,left,1.0,1.6632017670199275,,,,,sub-088,1.0,random_dot,120.96078672052772,
right,right,53.0,1.0,26.0,right,1.0,1.2127366499917116,,accuracy,space,3.823796948010568,,,,,,0.0,0.0,0.0,0.0,26.0,1.0,53.0,1.0,283.0249761379964,,,,,,,,,283.0170502459805,283.1062161989976,283.89975618798053,283.88992927997606,283.89071994498954,283.89975618798053,283.89975618798053,283.89975618798053,285.1164660739887,,,,,,,,,,,,,,,,,,,,,,,,,,,,,,right,1.0,1.2127366499917116,,,,,sub-088,1.0,random_dot,120.96078672052772,
left,left,54.0,0.0,27.0,left,1.0,2.786078125005588,,accuracy,space,3.823796948010568,,,,,,0.0,0.0,0.0,0.0,27.0,0.0,54.0,0.0,285.1236811389972,,,,,,,,,285.1168023179925,286.30624360998627,287.1153632789792,287.1006149530004,287.1010701349878,287.1153632789792,287.1153632789792,287.1153632789792,289.9041477519786,,,,,,,,,,,,,,,,,,,,,,,,,,,,,,left,1.0,2.786078125005588,,,,,sub-088,1.0,random_dot,120.96078672052772,
right,right,55.0,1.0,27.0,left,0.0,2.614195836998988,,accuracy,space,3.823796948010568,,,,,,0.0,0.0,0.0,0.0,27.0,1.0,55.0,1.0,289.91441504997783,,,,,,,,,289.90444384198054,289.9984665669908,290.7901762870024,290.7821433299978,290.78259573099785,290.7901762870024,290.7901762870024,290.7901762870024,293.4154856679961,,,,,,,,,,,,,,,,,,,,,,,,,,,,,,left,0.0,2.614195836998988,,,,,sub-088,1.0,random_dot,120.96078672052772,
right,right,56.0,0.0,28.0,right,1.0,1.7431573560170364,,accuracy,space,3.823796948010568,,,,,,0.0,0.0,0.0,0.0,28.0,0.0,56.0,1.0,293.4231380959973,,,,,,,,,293.4157261590008,293.5070221659844,294.30920169499586,294.29977206900367,294.30022923697834,294.30920169499586,294.30920169499586,294.30920169499586,296.0583579169761,,,,,,,,,,,,,,,,,,,,,,,,,,,,,,right,1.0,1.7431573560170364,,,,,sub-088,1.0,random_dot,120.96078672052772,
left,left,57.0,1.0,28.0,right,0.0,1.29754179000156,,accuracy,space,3.823796948010568,,,,,,0.0,0.0,0.0,0.0,28.0,1.0,57.0,0.0,296.06702725598007,,,,,,,,,296.05861888598884,296.15614235500107,296.9488132989791,296.9389810979774,296.939585701999,296.9488132989791,296.9488132989791,296.9488132989791,298.25373058300465,,,,,,,,,,,,,,,,,,,,,,,,,,,,,,right,0.0,1.29754179000156,,,,,sub-088,1.0,random_dot,120.96078672052772,
right,right,58.0,0.0,29.0,left,0.0,2.5588390739867464,,accuracy,space,3.823796948010568,,,,,,0.0,0.0,0.0,0.0,29.0,0.0,58.0,1.0,298.26435592299094,,,,,,,,,298.2539790009905,298.3492037469987,299.14254013999016,299.1331204099988,299.13358755098307,299.14254013999016,299.14254013999016,299.14254013999016,301.71553997998126,,,,,,,,,,,,,,,,,,,,,,,,,,,,,,left,0.0,2.5588390739867464,,,,,sub-088,1.0,random_dot,120.96078672052772,
left,left,59.0,1.0,29.0,right,0.0,0.834768909990089,,accuracy,space,3.823796948010568,,,,,,0.0,0.0,0.0,0.0,29.0,1.0,59.0,0.0,301.7233240949863,,,,,,,,,301.71578969899565,302.50489344997914,303.2996925649932,303.2899094479799,303.2904079409782,303.2996925649932,303.2996925649932,303.2996925649932,304.140989653999,,,,,,,,,,,,,,,,,,,,,,,,,,,,,,right,0.0,0.834768909990089,,,,,sub-088,1.0,random_dot,120.96078672052772,
,,0.0,0.0,0.0,,,,,accuracy,space,3.823796948010568,,,,,,0.0,0.0,0.0,0.0,,,,,,,,,,,,,,,,,,,,,,,,,,,,,,,,,,,,,,,,,,,,,,,,,,,,,,,,,,,sub-088,1.0,random_dot,120.96078672052772,
left,left,0.0,0.0,0.0,right,0.0,1.7196698629995808,,speed,space,3.289343581011053,,,,,,0.0,1.0,1.0,1.0,0.0,0.0,0.0,0.0,307.46283573500114,,,,,,,,,307.4544924100046,308.63848335298826,309.43264800999896,309.4214517319924,309.4224299530033,309.43264800999896,309.43264800999896,309.43264800999896,311.16046075799386,,,,,,,,,,,,,,,,,,,,,,,304.15004797599977,304.1580248879909,304.1580248879909,307.4487646469788,space,3.289343581011053,,right,0.0,1.7196698629995808,,,,,sub-088,1.0,random_dot,120.96078672052772,
right,right,1.0,1.0,0.0,left,0.0,0.7670834110176656,,speed,space,3.289343581011053,,,,,,0.0,1.0,1.0,1.0,0.0,1.0,1.0,1.0,311.16786837700056,,,,,,,,,311.1607532280032,312.35583786899224,313.1644030989846,313.13926343998173,313.1400493569963,313.1644030989846,313.1644030989846,313.1644030989846,313.933821462997,,,,,,,,,,,,,,,,,,,,,,,,,,,,,,left,0.0,0.7670834110176656,,,,,sub-088,1.0,random_dot,120.96078672052772,
right,right,2.0,0.0,1.0,right,1.0,0.61163514200598,,speed,space,3.289343581011053,,,,,,0.0,1.0,1.0,1.0,1.0,0.0,2.0,1.0,313.9394806929922,,,,,,,,,313.93413816799875,314.2839519669942,315.0810940229858,315.0711204299878,315.071714619,315.0810940229858,315.0810940229858,315.0810940229858,315.6988084439945,,,,,,,,,,,,,,,,,,,,,,,,,,,,,,right,1.0,0.61163514200598,,,,,sub-088,1.0,random_dot,120.96078672052772,
left,left,3.0,1.0,1.0,left,1.0,0.5253512299968861,,speed,space,3.289343581011053,,,,,,0.0,1.0,1.0,1.0,1.0,1.0,3.0,0.0,315.70559496298665,,,,,,,,,315.69902833900414,316.8889688169875,317.69745141800377,317.6724709830014,317.6733282489877,317.69745141800377,317.69745141800377,317.69745141800377,318.2318007029826,,,,,,,,,,,,,,,,,,,,,,,,,,,,,,left,1.0,0.5253512299968861,,,,,sub-088,1.0,random_dot,120.96078672052772,
right,right,4.0,0.0,2.0,left,0.0,0.6100521729968023,,speed,space,3.289343581011053,,,,,,0.0,1.0,1.0,1.0,2.0,0.0,4.0,1.0,318.23942599998554,,,,,,,,,318.23203988198657,319.42300731898285,320.2233276369807,320.2149794519937,320.2154610089783,320.2233276369807,320.2233276369807,320.2233276369807,320.8486387360026,,,,,,,,,,,,,,,,,,,,,,,,,,,,,,left,0.0,0.6100521729968023,,,,,sub-088,1.0,random_dot,120.96078672052772,
left,left,5.0,1.0,2.0,left,1.0,0.6348510370007716,,speed,space,3.289343581011053,,,,,,0.0,1.0,1.0,1.0,2.0,1.0,5.0,0.0,320.8558843990031,,,,,,,,,320.8489820770046,320.9476801299897,321.741528027982,321.73166535198106,321.73212973598856,321.741528027982,321.741528027982,321.741528027982,322.3822439459909,,,,,,,,,,,,,,,,,,,,,,,,,,,,,,left,1.0,0.6348510370007716,,,,,sub-088,1.0,random_dot,120.96078672052772,
left,left,6.0,0.0,3.0,right,0.0,0.5478424320172053,,speed,space,3.289343581011053,,,,,,0.0,1.0,1.0,1.0,3.0,0.0,6.0,0.0,322.3978188250039,,,,,,,,,322.3824810379883,323.5807029819989,324.37064508898766,324.3641840189812,324.3644032900047,324.37064508898766,324.37064508898766,324.37064508898766,324.9315892729792,,,,,,,,,,,,,,,,,,,,,,,,,,,,,,right,0.0,0.5478424320172053,,,,,sub-088,1.0,random_dot,120.96078672052772,
right,right,7.0,1.0,3.0,right,1.0,0.5996957079914864,,speed,space,3.289343581011053,,,,,,0.0,1.0,1.0,1.0,3.0,1.0,7.0,1.0,324.93806194799254,,,,,,,,,324.93183961499017,325.0226381190005,325.8259880050027,325.8163544719864,325.81702675900306,325.8259880050027,325.8259880050027,325.8259880050027,326.43225692299893,,,,,,,,,,,,,,,,,,,,,,,,,,,,,,right,1.0,0.5996957079914864,,,,,sub-088,1.0,random_dot,120.96078672052772,
right,right,8.0,0.0,4.0,left,0.0,0.6926147539925296,,speed,space,3.289343581011053,,,,,,0.0,1.0,1.0,1.0,4.0,0.0,8.0,1.0,326.44001448497875,,,,,,,,,326.432513673004,326.7721129819984,327.57182813299005,327.56467599098687,327.5649272809969,327.57182813299005,327.57182813299005,327.57182813299005,328.265751672996,,,,,,,,,,,,,,,,,,,,,,,,,,,,,,left,0.0,0.6926147539925296,,,,,sub-088,1.0,random_dot,120.96078672052772,
left,left,9.0,1.0,4.0,right,0.0,0.7008592479978688,,speed,space,3.289343581011053,,,,,,0.0,1.0,1.0,1.0,4.0,1.0,9.0,0.0,328.27141415598453,,,,,,,,,328.26602150898543,328.35545656998875,329.1487093339965,329.13849731799564,329.139306224999,329.1487093339965,329.1487093339965,329.1487093339965,329.85334292799234,,,,,,,,,,,,,,,,,,,,,,,,,,,,,,right,0.0,0.7008592479978688,,,,,sub-088,1.0,random_dot,120.96078672052772,
left,left,10.0,0.0,5.0,left,1.0,0.7267863099987153,,speed,space,3.289343581011053,,,,,,0.0,1.0,1.0,1.0,5.0,0.0,10.0,0.0,329.860964366002,,,,,,,,,329.8537170679774,330.19781825400423,330.9897214569792,330.9817425819929,330.98224107100395,330.9897214569792,330.9897214569792,330.9897214569792,331.7321151130018,,,,,,,,,,,,,,,,,,,,,,,,,,,,,,left,1.0,0.7267863099987153,,,,,sub-088,1.0,random_dot,120.96078672052772,
right,right,11.0,1.0,5.0,left,0.0,0.7198628989863209,,speed,space,3.289343581011053,,,,,,0.0,1.0,1.0,1.0,5.0,1.0,11.0,1.0,331.7389127489878,,,,,,,,,331.7324175440008,332.5225180039997,333.3225861309911,333.3143445199821,333.3145905220008,333.3225861309911,333.3225861309911,333.3225861309911,334.0481173419976,,,,,,,,,,,,,,,,,,,,,,,,,,,,,,left,0.0,0.7198628989863209,,,,,sub-088,1.0,random_dot,120.96078672052772,
right,right,12.0,0.0,6.0,left,0.0,0.7952745959919412,,speed,space,3.289343581011053,,,,,,0.0,1.0,1.0,1.0,6.0,0.0,12.0,1.0,334.05518344198936,,,,,,,,,334.0485570149904,334.8382702989911,335.63326234099804,335.62266193298274,335.623377477983,335.63326234099804,335.63326234099804,335.63326234099804,336.43181667200406,,,,,,,,,,,,,,,,,,,,,,,,,,,,,,left,0.0,0.7952745959919412,,,,,sub-088,1.0,random_dot,120.96078672052772,
left,left,13.0,1.0,6.0,left,1.0,0.8564833459968213,,speed,space,3.289343581011053,,,,,,0.0,1.0,1.0,1.0,6.0,1.0,13.0,0.0,336.4396959839796,,,,,,,,,336.4320956879819,336.5207962419954,337.3149704389798,337.3043212899938,337.3050487389846,337.3149704389798,337.3149704389798,337.3149704389798,338.1743347719894,,,,,,,,,,,,,,,,,,,,,,,,,,,,,,left,1.0,0.8564833459968213,,,,,sub-088,1.0,random_dot,120.96078672052772,
right,right,14.0,0.0,7.0,right,1.0,0.509725380979944,,speed,space,3.289343581011053,,,,,,0.0,1.0,1.0,1.0,7.0,0.0,14.0,1.0,338.1824540919916,,,,,,,,,338.1746262449888,338.5207477409858,339.31479961797595,339.3041980259877,339.3048164130014,339.31479961797595,339.31479961797595,339.31479961797595,339.8347914379847,,,,,,,,,,,,,,,,,,,,,,,,,,,,,,right,1.0,0.509725380979944,,,,,sub-088,1.0,random_dot,120.96078672052772,
left,left,15.0,1.0,7.0,left,1.0,0.5100679680181202,,speed,space,3.289343581011053,,,,,,0.0,1.0,1.0,1.0,7.0,1.0,15.0,0.0,339.8428033689852,,,,,,,,,339.8352098049945,339.931170233991,340.72458796799765,340.71499415900325,340.71566324000014,340.72458796799765,340.72458796799765,340.72458796799765,341.2364225029887,,,,,,,,,,,,,,,,,,,,,,,,,,,,,,left,1.0,0.5100679680181202,,,,,sub-088,1.0,random_dot,120.96078672052772,
right,right,16.0,0.0,8.0,right,1.0,0.642818685999373,,speed,space,3.289343581011053,,,,,,0.0,1.0,1.0,1.0,8.0,0.0,16.0,1.0,341.24726550097694,,,,,,,,,341.23667213198496,342.43213093999657,343.2308866639796,343.2205771000008,343.22137217997806,343.2308866639796,343.2308866639796,343.2308866639796,343.88406724698143,,,,,,,,,,,,,,,,,,,,,,,,,,,,,,right,1.0,0.642818685999373,,,,,sub-088,1.0,random_dot,120.96078672052772,
left,left,17.0,1.0,8.0,left,1.0,0.7485638270154595,,speed,space,3.289343581011053,,,,,,0.0,1.0,1.0,1.0,8.0,1.0,17.0,0.0,343.89197535900166,,,,,,,,,343.88434426498134,344.68396389798727,345.4922053999908,345.48158357598004,345.4822818609828,345.4922053999908,345.4922053999908,345.4922053999908,346.2472568549856,,,,,,,,,,,,,,,,,,,,,,,,,,,,,,left,1.0,0.7485638270154595,,,,,sub-088,1.0,random_dot,120.96078672052772,
right,right,18.0,0.0,9.0,left,0.0,2.67632960199262,,speed,space,3.289343581011053,,,,,,0.0,1.0,1.0,1.0,9.0,0.0,18.0,1.0,346.2638129859988,,,,,,,,,346.24747124599526,347.4373884149827,348.2328000589914,348.2219580480014,348.2226981409767,348.2328000589914,348.2328000589914,348.2328000589914,350.9162712539837,,,,,,,,,,,,,,,,,,,,,,,,,,,,,,left,0.0,2.67632960199262,,,,,sub-088,1.0,random_dot,120.96078672052772,
left,left,19.0,1.0,9.0,right,0.0,0.8290745050180703,,speed,space,3.289343581011053,,,,,,0.0,1.0,1.0,1.0,9.0,1.0,19.0,0.0,350.9246687589912,,,,,,,,,350.9166854609793,352.115429825004,352.9144704649807,352.90402414798154,352.9047989259998,352.9144704649807,352.9144704649807,352.9144704649807,353.75162898999406,,,,,,,,,,,,,,,,,,,,,,,,,,,,,,right,0.0,0.8290745050180703,,,,,sub-088,1.0,random_dot,120.96078672052772,
left,left,20.0,0.0,10.0,left,1.0,0.670054386020638,,speed,space,3.289343581011053,,,,,,0.0,1.0,1.0,1.0,10.0,0.0,20.0,0.0,353.763956048002,,,,,,,,,353.7519002289919,354.94874140198226,355.74933573199087,355.7375778629794,355.7383759539807,355.74933573199087,355.74933573199087,355.74933573199087,356.42482044399367,,,,,,,,,,,,,,,,,,,,,,,,,,,,,,left,1.0,0.670054386020638,,,,,sub-088,1.0,random_dot,120.96078672052772,
right,right,21.0,1.0,10.0,right,1.0,0.6659437190101016,,speed,space,3.289343581011053,,,,,,0.0,1.0,1.0,1.0,10.0,1.0,21.0,1.0,356.432426112995,,,,,,,,,356.4250572779856,356.77077171299607,357.5638502209913,357.55367597399163,357.5542476659757,357.5638502209913,357.5638502209913,357.5638502209913,358.23178726798506,,,,,,,,,,,,,,,,,,,,,,,,,,,,,,right,1.0,0.6659437190101016,,,,,sub-088,1.0,random_dot,120.96078672052772,
right,right,22.0,0.0,11.0,left,0.0,0.9746843750181142,,speed,space,3.289343581011053,,,,,,0.0,1.0,1.0,1.0,11.0,0.0,22.0,1.0,358.23733750899555,,,,,,,,,358.2320390550012,358.3218615730002,359.11494688497623,359.1051801129943,359.1058546639979,359.11494688497623,359.11494688497623,359.11494688497623,360.0986192470009,,,,,,,,,,,,,,,,,,,,,,,,,,,,,,left,0.0,0.9746843750181142,,,,,sub-088,1.0,random_dot,120.96078672052772,
left,left,23.0,1.0,11.0,right,0.0,0.814155104017118,,speed,space,3.289343581011053,,,,,,0.0,1.0,1.0,1.0,11.0,1.0,23.0,0.0,360.10546404798515,,,,,,,,,360.0990929969994,361.2886309589958,362.0832987089816,362.0724535039917,362.0732202579966,362.0832987089816,362.0832987089816,362.0832987089816,362.8987586899893,,,,,,,,,,,,,,,,,,,,,,,,,,,,,,right,0.0,0.814155104017118,,,,,sub-088,1.0,random_dot,120.96078672052772,
left,left,24.0,0.0,12.0,left,1.0,0.7321594129898585,,speed,space,3.289343581011053,,,,,,0.0,1.0,1.0,1.0,12.0,0.0,24.0,0.0,362.9049999959825,,,,,,,,,362.899050062988,363.2486674329848,364.0484240700025,364.0374568379775,364.03824926397647,364.0484240700025,364.0484240700025,364.0484240700025,364.79798221497913,,,,,,,,,,,,,,,,,,,,,,,,,,,,,,left,1.0,0.7321594129898585,,,,,sub-088,1.0,random_dot,120.96078672052772,
right,right,25.0,1.0,12.0,right,1.0,1.2881688300112728,,speed,space,3.289343581011053,,,,,,0.0,1.0,1.0,1.0,12.0,1.0,25.0,1.0,364.80495930899633,,,,,,,,,364.7982602019911,365.1382390100043,365.9395270340028,365.9314160469803,365.93187406499055,365.9395270340028,365.9395270340028,365.9395270340028,367.2320557349885,,,,,,,,,,,,,,,,,,,,,,,,,,,,,,right,1.0,1.2881688300112728,,,,,sub-088,1.0,random_dot,120.96078672052772,
left,left,26.0,0.0,13.0,left,1.0,1.1493445169762708,,speed,space,3.289343581011053,,,,,,0.0,1.0,1.0,1.0,13.0,0.0,26.0,0.0,367.23867162299575,,,,,,,,,367.23235950199887,367.3314357420022,368.1242713009997,368.1157952839858,368.1164571769768,368.1242713009997,368.1242713009997,368.1242713009997,369.2811405529792,,,,,,,,,,,,,,,,,,,,,,,,,,,,,,left,1.0,1.1493445169762708,,,,,sub-088,1.0,random_dot,120.96078672052772,
right,right,27.0,1.0,13.0,right,1.0,0.638655172981089,,speed,space,3.289343581011053,,,,,,0.0,1.0,1.0,1.0,13.0,1.0,27.0,1.0,369.287566391984,,,,,,,,,369.2813595589832,370.0701643459906,370.8649625969993,370.8541314549802,370.8549118549854,370.8649625969993,370.8649625969993,370.8649625969993,371.51472032198217,,,,,,,,,,,,,,,,,,,,,,,,,,,,,,right,1.0,0.638655172981089,,,,,sub-088,1.0,random_dot,120.96078672052772,
right,right,28.0,0.0,14.0,right,1.0,0.876273966016015,,speed,space,3.289343581011053,,,,,,0.0,1.0,1.0,1.0,14.0,0.0,28.0,1.0,371.5221498309984,,,,,,,,,371.5149577359844,372.31593252997845,373.114300606976,373.1037161120039,373.1044179579767,373.114300606976,373.114300606976,373.114300606976,374.00002990697976,,,,,,,,,,,,,,,,,,,,,,,,,,,,,,right,1.0,0.876273966016015,,,,,sub-088,1.0,random_dot,120.96078672052772,
left,left,29.0,1.0,14.0,right,0.0,0.8221513290191069,,speed,space,3.289343581011053,,,,,,0.0,1.0,1.0,1.0,14.0,1.0,29.0,0.0,374.0069684599876,,,,,,,,,374.0004601099936,375.1986700870039,375.9904307370016,375.98232385198935,375.9827891469759,375.9904307370016,375.9904307370016,375.9904307370016,376.8194899889932,,,,,,,,,,,,,,,,,,,,,,,,,,,,,,right,0.0,0.8221513290191069,,,,,sub-088,1.0,random_dot,120.96078672052772,
left,left,30.0,0.0,15.0,left,1.0,0.6630794700176921,,speed,space,3.289343581011053,,,,,,0.0,1.0,1.0,1.0,15.0,0.0,30.0,0.0,376.8301686389896,,,,,,,,,376.8198055179964,377.61379588997806,378.4077992370003,378.3981161800039,378.39874980199966,378.4077992370003,378.4077992370003,378.4077992370003,379.0806079619797,,,,,,,,,,,,,,,,,,,,,,,,,,,,,,left,1.0,0.6630794700176921,,,,,sub-088,1.0,random_dot,120.96078672052772,
right,right,31.0,1.0,15.0,right,1.0,0.7760051309887785,,speed,space,3.289343581011053,,,,,,0.0,1.0,1.0,1.0,15.0,1.0,31.0,1.0,379.0870807739848,,,,,,,,,379.08084518197575,380.2712064859807,381.0665428380016,381.05550192299415,381.05629455298185,381.0665428380016,381.0665428380016,381.0665428380016,381.8498615499993,,,,,,,,,,,,,,,,,,,,,,,,,,,,,,right,1.0,0.7760051309887785,,,,,sub-088,1.0,random_dot,120.96078672052772,
left,left,32.0,0.0,16.0,right,0.0,0.7572121809935197,,speed,space,3.289343581011053,,,,,,0.0,1.0,1.0,1.0,16.0,0.0,32.0,0.0,381.85682178798015,,,,,,,,,381.850088014995,382.1998548499832,382.9974554849905,382.9871702539968,382.9877897889819,382.9974554849905,382.9974554849905,382.9974554849905,383.7661819009809,,,,,,,,,,,,,,,,,,,,,,,,,,,,,,right,0.0,0.7572121809935197,,,,,sub-088,1.0,random_dot,120.96078672052772,
right,right,33.0,1.0,16.0,right,1.0,1.1591079120116774,,speed,space,3.289343581011053,,,,,,0.0,1.0,1.0,1.0,16.0,1.0,33.0,1.0,383.7732033990033,,,,,,,,,383.7664165599854,384.563891607977,385.3545610969886,385.34711607100326,385.34748970498913,385.3545610969886,385.3545610969886,385.3545610969886,386.5159588959941,,,,,,,,,,,,,,,,,,,,,,,,,,,,,,right,1.0,1.1591079120116774,,,,,sub-088,1.0,random_dot,120.96078672052772,
left,left,34.0,0.0,17.0,left,1.0,0.6138372300192714,,speed,space,3.289343581011053,,,,,,0.0,1.0,1.0,1.0,17.0,0.0,34.0,0.0,386.5235981919977,,,,,,,,,386.5164728339878,386.6139375779894,387.4068740539951,387.3987082959793,387.3991634720005,387.4068740539951,387.4068740539951,387.4068740539951,388.0240935609909,,,,,,,,,,,,,,,,,,,,,,,,,,,,,,left,1.0,0.6138372300192714,,,,,sub-088,1.0,random_dot,120.96078672052772,
right,right,35.0,1.0,17.0,left,0.0,0.9244774680119008,,speed,space,3.289343581011053,,,,,,0.0,1.0,1.0,1.0,17.0,1.0,35.0,1.0,388.031209023,,,,,,,,,388.0243438500038,389.2193798369845,390.0135717079975,390.0033834849892,390.00399424898205,390.0135717079975,390.0135717079975,390.0135717079975,390.9458786339965,,,,,,,,,,,,,,,,,,,,,,,,,,,,,,left,0.0,0.9244774680119008,,,,,sub-088,1.0,random_dot,120.96078672052772,
right,right,36.0,0.0,18.0,left,0.0,0.7278756469895598,,speed,space,3.289343581011053,,,,,,0.0,1.0,1.0,1.0,18.0,0.0,36.0,1.0,390.9633315169776,,,,,,,,,390.9461629379948,391.7475293059833,392.5417808629864,392.53220440799487,392.5328051300021,392.5417808629864,392.5417808629864,392.5417808629864,393.2806891509972,,,,,,,,,,,,,,,,,,,,,,,,,,,,,,left,0.0,0.7278756469895598,,,,,sub-088,1.0,random_dot,120.96078672052772,
left,left,37.0,1.0,18.0,left,1.0,1.7525215159985237,,speed,space,3.289343581011053,,,,,,0.0,1.0,1.0,1.0,18.0,1.0,37.0,0.0,393.2873980719887,,,,,,,,,393.2809587349766,394.4707063869864,395.2715879769821,395.2640970229986,395.26439783899696,395.2715879769821,395.2715879769821,395.2715879769821,397.03007136599626,,,,,,,,,,,,,,,,,,,,,,,,,,,,,,left,1.0,1.7525215159985237,,,,,sub-088,1.0,random_dot,120.96078672052772,
left,left,38.0,0.0,19.0,right,0.0,0.6266012339910958,,speed,space,3.289343581011053,,,,,,0.0,1.0,1.0,1.0,19.0,0.0,38.0,0.0,397.0474921819987,,,,,,,,,397.03040854699793,397.11987502500415,397.9143648949976,397.9036977289943,397.90431889198953,397.9143648949976,397.9143648949976,397.9143648949976,398.5431049710023,,,,,,,,,,,,,,,,,,,,,,,,,,,,,,right,0.0,0.6266012339910958,,,,,sub-088,1.0,random_dot,120.96078672052772,
right,right,39.0,1.0,19.0,right,1.0,0.7695741460192949,,speed,space,3.289343581011053,,,,,,0.0,1.0,1.0,1.0,19.0,1.0,39.0,1.0,398.5500688269967,,,,,,,,,398.54336963797687,398.6378360539966,399.4401093819761,399.4320043339976,399.4325908529863,399.4401093819761,399.4401093819761,399.4401093819761,400.2169866359909,,,,,,,,,,,,,,,,,,,,,,,,,,,,,,right,1.0,0.7695741460192949,,,,,sub-088,1.0,random_dot,120.96078672052772,
left,left,40.0,0.0,20.0,left,1.0,0.6272175520134624,,speed,space,3.289343581011053,,,,,,0.0,1.0,1.0,1.0,20.0,0.0,40.0,0.0,400.22452569397865,,,,,,,,,400.2172045100015,401.0148166109866,401.8144054489967,401.80341625699657,401.8042188999825,401.8144054489967,401.8144054489967,401.8144054489967,402.44981542698224,,,,,,,,,,,,,,,,,,,,,,,,,,,,,,left,1.0,0.6272175520134624,,,,,sub-088,1.0,random_dot,120.96078672052772,
right,right,41.0,1.0,20.0,left,0.0,0.7228304320015013,,speed,space,3.289343581011053,,,,,,0.0,1.0,1.0,1.0,20.0,1.0,41.0,1.0,402.45766830598586,,,,,,,,,402.4500551989768,403.6477072659764,404.4389104919974,404.4306359079783,404.4310875669762,404.4389104919974,404.4389104919974,404.4389104919974,405.1700199359912,,,,,,,,,,,,,,,,,,,,,,,,,,,,,,left,0.0,0.7228304320015013,,,,,sub-088,1.0,random_dot,120.96078672052772,
right,right,42.0,0.0,21.0,left,0.0,1.3373967499937862,,speed,space,3.289343581011053,,,,,,0.0,1.0,1.0,1.0,21.0,0.0,42.0,1.0,405.1797280309838,,,,,,,,,405.1702548949979,405.5134707379912,406.3062792769924,406.2972248889855,406.2976841669879,406.3062792769924,406.3062792769924,406.3062792769924,407.64787112898193,,,,,,,,,,,,,,,,,,,,,,,,,,,,,,left,0.0,1.3373967499937862,,,,,sub-088,1.0,random_dot,120.96078672052772,
left,left,43.0,1.0,21.0,left,1.0,1.0571221429854631,,speed,space,3.289343581011053,,,,,,0.0,1.0,1.0,1.0,21.0,1.0,43.0,0.0,407.65596008999273,,,,,,,,,407.6481246659823,408.8463283049932,409.6405417450005,409.6322592749784,409.6328160089906,409.6405417450005,409.6405417450005,409.6405417450005,410.7055749470019,,,,,,,,,,,,,,,,,,,,,,,,,,,,,,left,1.0,1.0571221429854631,,,,,sub-088,1.0,random_dot,120.96078672052772,
right,right,44.0,0.0,22.0,right,1.0,0.8525630579970311,,speed,space,3.289343581011053,,,,,,0.0,1.0,1.0,1.0,22.0,0.0,44.0,1.0,410.7143194929813,,,,,,,,,410.705867386976,411.90176145598525,412.69913905498106,412.6883034039929,412.6891017029993,412.69913905498106,412.69913905498106,412.69913905498106,413.563684083987,,,,,,,,,,,,,,,,,,,,,,,,,,,,,,right,1.0,0.8525630579970311,,,,,sub-088,1.0,random_dot,120.96078672052772,
left,left,45.0,1.0,22.0,left,1.0,1.2883064599882346,,speed,space,3.289343581011053,,,,,,0.0,1.0,1.0,1.0,22.0,1.0,45.0,0.0,413.5712517929787,,,,,,,,,413.5639723519853,413.9140338829893,414.705529267987,414.6973363469879,414.6977938329801,414.705529267987,414.705529267987,414.705529267987,415.9978191329865,,,,,,,,,,,,,,,,,,,,,,,,,,,,,,left,1.0,1.2883064599882346,,,,,sub-088,1.0,random_dot,120.96078672052772,
right,right,46.0,0.0,23.0,left,0.0,2.0842063190066256,,speed,space,3.289343581011053,,,,,,0.0,1.0,1.0,1.0,23.0,0.0,46.0,1.0,416.0045155549888,,,,,,,,,415.998069038993,416.0876341759868,416.8904643849819,416.88189514898113,416.88248683098936,416.8904643849819,416.8904643849819,416.8904643849819,418.9821974039951,,,,,,,,,,,,,,,,,,,,,,,,,,,,,,left,0.0,2.0842063190066256,,,,,sub-088,1.0,random_dot,120.96078672052772,
left,left,47.0,1.0,23.0,right,0.0,0.6292181160242762,,speed,space,3.289343581011053,,,,,,0.0,1.0,1.0,1.0,23.0,1.0,47.0,0.0,418.9891014589812,,,,,,,,,418.9824387219851,419.7812008629844,420.5803739239928,420.5697378049954,420.5704178570013,420.5803739239928,420.5803739239928,420.5803739239928,421.2147774559853,,,,,,,,,,,,,,,,,,,,,,,,,,,,,,right,0.0,0.6292181160242762,,,,,sub-088,1.0,random_dot,120.96078672052772,
right,right,48.0,0.0,24.0,right,1.0,0.7410782229853794,,speed,space,3.289343581011053,,,,,,0.0,1.0,1.0,1.0,24.0,0.0,48.0,1.0,421.2213315379922,,,,,,,,,421.2150106199842,421.5661304349778,422.36492023599567,422.35392683398095,422.35471207500086,422.36492023599567,422.36492023599567,422.36492023599567,423.10914841498015,,,,,,,,,,,,,,,,,,,,,,,,,,,,,,right,1.0,0.7410782229853794,,,,,sub-088,1.0,random_dot,120.96078672052772,
left,left,49.0,1.0,24.0,right,0.0,0.7283171009912621,,speed,space,3.289343581011053,,,,,,0.0,1.0,1.0,1.0,24.0,1.0,49.0,0.0,423.1172007409914,,,,,,,,,423.10968518597656,423.4544256170048,424.25645774797886,424.2481086349872,424.2485654169868,424.25645774797886,424.25645774797886,424.25645774797886,424.99028341899975,,,,,,,,,,,,,,,,,,,,,,,,,,,,,,right,0.0,0.7283171009912621,,,,,sub-088,1.0,random_dot,120.96078672052772,
right,right,50.0,0.0,25.0,right,1.0,1.1029952690005302,,speed,space,3.289343581011053,,,,,,0.0,1.0,1.0,1.0,25.0,0.0,50.0,1.0,424.99893719598185,,,,,,,,,424.9905071349931,425.0860396439966,425.8807658509759,425.8706068059837,425.8713021059812,425.8807658509759,425.8807658509759,425.8807658509759,426.9975302469975,,,,,,,,,,,,,,,,,,,,,,,,,,,,,,right,1.0,1.1029952690005302,,,,,sub-088,1.0,random_dot,120.96078672052772,
left,left,51.0,1.0,25.0,left,1.0,0.6491191299865022,,speed,space,3.289343581011053,,,,,,0.0,1.0,1.0,1.0,25.0,1.0,51.0,0.0,427.005288891989,,,,,,,,,426.9977823349764,427.7873756009794,428.5885890539794,428.5804693709943,428.58093792398,428.5885890539794,428.5885890539794,428.5885890539794,429.2469892569934,,,,,,,,,,,,,,,,,,,,,,,,,,,,,,left,1.0,0.6491191299865022,,,,,sub-088,1.0,random_dot,120.96078672052772,
left,left,52.0,0.0,26.0,right,0.0,0.3935251559887547,,speed,space,3.289343581011053,,,,,,0.0,1.0,1.0,1.0,26.0,0.0,52.0,0.0,429.25563456400414,,,,,,,,,429.24720733999857,429.5874763629981,430.3961662449874,430.37112858498585,430.37192010798026,430.3961662449874,430.3961662449874,430.3961662449874,430.79707867797697,,,,,,,,,,,,,,,,,,,,,,,,,,,,,,right,0.0,0.3935251559887547,,,,,sub-088,1.0,random_dot,120.96078672052772,
right,right,53.0,1.0,26.0,left,0.0,0.6484796129807364,,speed,space,3.289343581011053,,,,,,0.0,1.0,1.0,1.0,26.0,1.0,53.0,1.0,430.8038773429871,,,,,,,,,430.7973777609877,431.9878689379839,432.7962669839908,432.7712497789762,432.7720577509899,432.7962669839908,432.7962669839908,432.7962669839908,433.4502461469965,,,,,,,,,,,,,,,,,,,,,,,,,,,,,,left,0.0,0.6484796129807364,,,,,sub-088,1.0,random_dot,120.96078672052772,
right,right,54.0,0.0,27.0,right,1.0,0.8894901640014723,,speed,space,3.289343581011053,,,,,,0.0,1.0,1.0,1.0,27.0,0.0,54.0,1.0,433.46263720598654,,,,,,,,,433.4504592019948,433.7966135219904,434.5966209229955,434.5831143399992,434.5837637069926,434.5966209229955,434.5966209229955,434.5966209229955,435.4980104540009,,,,,,,,,,,,,,,,,,,,,,,,,,,,,,right,1.0,0.8894901640014723,,,,,sub-088,1.0,random_dot,120.96078672052772,
left,left,55.0,1.0,27.0,left,1.0,0.9320097849995364,,speed,space,3.289343581011053,,,,,,0.0,1.0,1.0,1.0,27.0,1.0,55.0,0.0,435.51295564498287,,,,,,,,,435.49850823599263,436.6873261239962,437.4888408090046,437.48032338998746,437.48054575998685,437.4888408090046,437.4888408090046,437.4888408090046,438.42381300599664,,,,,,,,,,,,,,,,,,,,,,,,,,,,,,left,1.0,0.9320097849995364,,,,,sub-088,1.0,random_dot,120.96078672052772,
right,right,56.0,0.0,28.0,right,1.0,0.7059347860049456,,speed,space,3.289343581011053,,,,,,0.0,1.0,1.0,1.0,28.0,0.0,56.0,1.0,438.44764338000095,,,,,,,,,438.4240652529989,439.2207563440024,440.0238810970041,440.0144701989775,440.0149241469917,440.0238810970041,440.0238810970041,440.0238810970041,440.7308868669789,,,,,,,,,,,,,,,,,,,,,,,,,,,,,,right,1.0,0.7059347860049456,,,,,sub-088,1.0,random_dot,120.96078672052772,
left,left,57.0,1.0,28.0,right,0.0,0.9620351170015056,,speed,space,3.289343581011053,,,,,,0.0,1.0,1.0,1.0,28.0,1.0,57.0,0.0,440.7365241909865,,,,,,,,,440.7311404259817,440.8206806340022,441.628700309986,441.6040331989934,441.604984081001,441.628700309986,441.628700309986,441.628700309986,442.61278441897593,,,,,,,,,,,,,,,,,,,,,,,,,,,,,,right,0.0,0.9620351170015056,,,,,sub-088,1.0,random_dot,120.96078672052772,
right,right,58.0,0.0,29.0,left,0.0,0.7252179339993745,,speed,space,3.289343581011053,,,,,,0.0,1.0,1.0,1.0,29.0,0.0,58.0,1.0,442.6298270649859,,,,,,,,,442.6131653699849,443.4025615519786,444.2125402239908,444.187613541988,444.188396529993,444.2125402239908,444.2125402239908,444.2125402239908,444.9463954829844,,,,,,,,,,,,,,,,,,,,,,,,,,,,,,left,0.0,0.7252179339993745,,,,,sub-088,1.0,random_dot,120.96078672052772,
left,left,59.0,1.0,29.0,right,0.0,0.5681582569959573,,speed,space,3.289343581011053,,,,,,0.0,1.0,1.0,1.0,29.0,1.0,59.0,0.0,444.9539778629842,,,,,,,,,444.9466892489872,445.7355161889864,446.5297082629986,446.5193801400019,446.5199473589892,446.5297082629986,446.5297082629986,446.5297082629986,447.1060078049777,,,,,,,,,,,,,,,,,,,,,,,,,,,,,,right,0.0,0.5681582569959573,,,,,sub-088,1.0,random_dot,120.96078672052772,
,,1.0,1.0,0.0,,,,,speed,space,3.289343581011053,,,,,,0.0,1.0,1.0,1.0,,,,,,,,,,,,,,,,,,,,,,,,,,,,,,,,,,,,,,,,,,,,,,,,,,,,,,,,,,,sub-088,1.0,random_dot,120.96078672052772,
,,,,,,,,,,,,,,,,,,,,,,,,,,,,,,,,,,,,,,,,,,,,,,,,,,,,,,,,,,,,,,,,,,,,,,,,,,,,,447.1107570989989,447.1187396419991,sub-088,,,,
