direction,corrAns,randomInstr,practice_trials.thisRepN,practice_trials.thisTrialN,practice_trials.thisN,practice_trials.thisIndex,instr_trials.thisRepN,instr_trials.thisTrialN,instr_trials.thisN,instr_trials.thisIndex,test_trials.thisRepN,test_trials.thisTrialN,test_trials.thisN,test_trials.thisIndex,thisRow.t,notes,general_instruction.started,textGeneralInstr.started,respGeneralInstr.started,general_instruction.stopped,respGeneralInstr.keys,respGeneralInstr.rt,respGeneralInstr.duration,ITI.started,fixcross.started,fixcross.stopped,ITI.stopped,dots.started,backgroundDots.started,stimulusDots.started,respDots.started,stimulusDots.stopped,dots.stopped,respDots.keys,respDots.corr,respDots.rt,respDots.duration,feedback.started,textFeedback.started,feedback.stopped,textFeedback.stopped,info.started,textInfo.started,keyRespInfo.started,info.stopped,keyRespInfo.keys,keyRespInfo.rt,keyRespInfo.duration,test_instruction.started,textTestInstr.started,respTestInstr.started,test_instruction.stopped,respTestInstr.keys,respTestInstr.rt,respTestInstr.duration,random_instruction.started,textRandomInstr.started,respRandomInstr.started,random_instruction.stopped,respRandomInstr.keys,respRandomInstr.rt,respRandomInstr.duration,goodbye.started,textGoodbye.started,textGoodbye.stopped,goodbye.stopped,participant,session,expName,frameRate,Unnamed: 74
,,,,,,,,,,,,,,,,,0.004559600027278,0.0132869000080972,0.0132869000080972,37.993181800004095,space,51.968636599951424,,,,,,,,,,,,,,,,,,,,,,,,,,,,,,,,,,,,,,,,,,,,,sub-096,1.0,random_dot,59.66263168387997,
right,right,,0.0,0.0,0.0,1.0,,,,,,,,,38.03510610002559,,,,,,,,,38.03101830009837,38.106040699989535,38.91566709999461,38.89247100008652,38.89251480007079,38.91566709999461,38.91566709999461,38.91566709999461,43.89445090002846,48.91621930000838,right,1.0,23.99606949998997,,48.91786889999639,48.93981470004656,49.43183760007378,,,,,,,,,,,,,,,,,,,,,,,,,,,sub-096,1.0,random_dot,59.66263168387997,
left,left,,0.0,1.0,1.0,0.0,,,,,,,,,49.44788790005259,,,,,,,,,49.43287880008575,49.78194820007775,50.58274630003143,50.56718070001807,50.56722510000691,50.58274630003143,50.58274630003143,50.58274630003143,,53.9874315999914,right,0.0,17.39951600006316,,53.98851250007283,54.013112000073306,54.50189170008525,,,,,,,,,,,,,,,,,,,,,,,,,,,sub-096,1.0,random_dot,59.66263168387997,
right,right,,1.0,0.0,2.0,1.0,,,,,,,,,54.51812080002856,,,,,,,,,54.50273589999415,55.30215970007703,56.102135300054215,56.08741630008444,56.087461100076325,56.102135300054215,56.102135300054215,56.102135300054215,,58.24057160003576,left,0.0,16.14069470006507,,58.241550100035965,58.25370560004376,58.739434999995865,58.75465170003008,,,,,,,,,,,,,,,,,,,,,,,,,,sub-096,1.0,random_dot,59.66263168387997,
left,left,,1.0,1.0,3.0,0.0,,,,,,,,,58.75465170003008,,,,,,,,,58.74020860006567,58.85473850008566,59.65492030000314,59.63995039998554,59.63999570009764,59.65492030000314,59.65492030000314,59.65492030000314,,64.56095569999889,right,0.0,18.90698880003765,,64.56206590007059,64.57533290004358,65.06063760002144,65.07550160004757,,,,,,,,,,,,,,,,,,,,,,,,,,sub-096,1.0,random_dot,59.66263168387997,
left,left,,2.0,0.0,4.0,0.0,,,,,,,,,65.07550160004757,,,,,,,,,65.06143220001832,65.87620729999617,66.6772551999893,66.66100630001165,66.6610450000735,66.6772551999893,66.6772551999893,66.6772551999893,71.66352150007151,73.95071070000995,right,0.0,21.27450860000681,,73.95174540008884,73.9648448000662,74.45015110005625,74.46532830002252,,,,,,,,,,,,,,,,,,,,,,,,,,sub-096,1.0,random_dot,59.66263168387997,
right,right,,2.0,1.0,5.0,1.0,,,,,,,,,74.46532830002252,,,,,,,,,74.45093530009035,74.81560329999775,75.61583260004409,75.60080590005964,75.60084309999365,75.61583260004409,75.61583260004409,75.61583260004409,80.60273260006215,81.92272420006339,left,0.0,20.30590810009744,,81.92376919998787,81.93717819999438,82.42242170008831,82.4377273999853,,,,,,,,,,,,,,,,,,,,,,,,,,sub-096,1.0,random_dot,59.66263168387997,
left,left,,3.0,0.0,6.0,0.0,,,,,,,,,82.4377273999853,,,,,,,,,82.42323399998713,82.53756730002351,83.33847300009802,83.32412310002837,83.32417000003625,83.33847300009802,83.33847300009802,83.33847300009802,88.32584669999778,89.64464090007823,right,0.0,20.30364729999565,,89.64570130000357,89.65887749998365,90.1442573000677,90.15985649998764,,,,,,,,,,,,,,,,,,,,,,,,,,sub-096,1.0,random_dot,59.66263168387997,
right,right,,3.0,1.0,7.0,1.0,,,,,,,,,90.15985649998764,,,,,,,,,90.14503140002488,90.25951460003851,91.0602060999954,91.04438960005064,91.04443060001358,91.0602060999954,91.0602060999954,91.0602060999954,96.04755900008604,98.43190369999502,right,1.0,21.36080710007809,,98.43256520002616,98.4471492000157,98.93375580001155,98.9486232000636,,,,,,,,,,,,,,,,,,,,,,,,,,sub-096,1.0,random_dot,59.66263168387997,
right,right,,4.0,0.0,8.0,1.0,,,,,,,,,98.9486232000636,,,,,,,,,98.9347456000978,99.28147140005603,100.08240740001202,100.067536400049,100.06758700008504,100.08240740001202,100.08240740001202,100.08240740001202,105.06971920002252,106.04003490007015,right,1.0,19.959525399957784,,106.04109980002976,106.05371500004549,106.5387880000053,106.55382550007198,,,,,,,,,,,,,,,,,,,,,,,,,,sub-096,1.0,random_dot,59.66263168387997,
left,left,,4.0,1.0,9.0,0.0,,,,,,,,,106.55382550007198,,,,,,,,,106.53954500006512,107.35459200001787,108.15439380006865,108.13975299999584,108.13978990004398,108.15439380006865,108.15439380006865,108.15439380006865,,112.74313120008446,left,1.0,18.587607899913564,,112.74419360002504,112.75724450009876,113.24315009999556,113.25863619998565,,,,,,,,,,,,,,,,,,,,,,,,,,sub-096,1.0,random_dot,59.66263168387997,
left,left,,5.0,0.0,10.0,0.0,,,,,,,,,113.25863619998565,,,,,,,,,113.24398660007864,113.35894300008658,114.15969630004838,114.14380870002788,114.14385280001444,114.15969630004838,114.15969630004838,114.15969630004838,119.14621680008712,120.03116660006344,right,0.0,19.87302510009613,,120.0315667000832,120.0463988999836,120.53114980005194,120.54686080000828,,,,,,,,,,,,,,,,,,,,,,,,,,sub-096,1.0,random_dot,59.66263168387997,
right,right,,5.0,1.0,11.0,1.0,,,,,,,,,120.54686080000828,,,,,,,,,120.53194800007624,121.347534700064,122.14804340002593,122.13159800006542,122.13166960002854,122.14804340002593,122.14804340002593,122.14804340002593,,126.01881030004006,left,0.0,17.87362490000669,,126.0194979000371,126.0338523000246,126.51826200005598,126.53412750002462,,,,,,,,,,,,,,,,,,,,,,,,,,sub-096,1.0,random_dot,59.66263168387997,
left,left,,6.0,0.0,12.0,0.0,,,,,,,,,126.53412750002462,,,,,,,,,126.5189124000026,126.88427849998698,127.6852990000043,127.66883300000336,127.66885580006056,127.6852990000043,127.6852990000043,127.6852990000043,,132.6214375999989,left,1.0,18.936820600065403,,132.62185150000732,132.6370127000846,133.12237790005747,,,,,,,,,,,,,,,,,,,,,,,,,,,sub-096,1.0,random_dot,59.66263168387997,
right,right,,6.0,1.0,13.0,1.0,,,,,,,,,133.13849320006557,,,,,,,,,133.1230857000919,134.3234889000887,135.1238650000887,135.10801379999612,135.10805660008918,135.1238650000887,135.1238650000887,135.1238650000887,,137.47720120009035,right,1.0,16.34826110000722,,137.4781467000721,137.49160270008724,137.9764272000175,137.99218220007606,,,,,,,,,,,,,,,,,,,,,,,,,,sub-096,1.0,random_dot,59.66263168387997,
left,left,,7.0,0.0,14.0,0.0,,,,,,,,,137.99218220007606,,,,,,,,,137.9771633000346,138.0921477000229,138.893093300052,138.87763530004304,138.87767710001208,138.893093300052,138.893093300052,138.893093300052,,142.447857900057,right,0.0,17.559076600009575,,142.44884770002682,142.4628058000235,142.94659050006885,142.96221110003535,,,,,,,,,,,,,,,,,,,,,,,,,,sub-096,1.0,random_dot,59.66263168387997,
right,right,,7.0,1.0,15.0,1.0,,,,,,,,,142.96221110003535,,,,,,,,,142.94703839998692,143.3111303000478,144.1120922000846,144.09655270003714,144.09656890004408,144.1120922000846,144.1120922000846,144.1120922000846,149.09914020006545,150.80177990009545,right,1.0,20.67940010002349,,150.80228770000394,150.81652610003948,151.30239970004186,151.31800259999,,,,,,,,,,,,,,,,,,,,,,,,,,sub-096,1.0,random_dot,59.66263168387997,
right,right,,8.0,0.0,16.0,1.0,,,,,,,,,151.31800259999,,,,,,,,,151.30321500007994,151.41806280007586,152.2187192999991,152.20230370003264,152.2023227000609,152.2187192999991,152.2187192999991,152.2187192999991,,155.23720530001447,right,1.0,17.012371400021948,,155.23787950002588,155.2537107000826,155.73745710006915,155.75381760008167,,,,,,,,,,,,,,,,,,,,,,,,,,sub-096,1.0,random_dot,59.66263168387997,
left,left,,8.0,1.0,17.0,0.0,,,,,,,,,155.75381760008167,,,,,,,,,155.73814150004182,156.08720360009465,156.88755790004507,156.87256200006232,156.87259210005868,156.88755790004507,156.88755790004507,156.88755790004507,,160.79295160004403,left,1.0,17.893874100060202,,160.79390350007452,160.80738340003882,161.29216479999013,161.307699099998,,,,,,,,,,,,,,,,,,,,,,,,,,sub-096,1.0,random_dot,59.66263168387997,
right,right,,9.0,0.0,18.0,1.0,,,,,,,,,161.307699099998,,,,,,,,,161.29251050006133,162.50828539999202,163.30874520004727,163.29381689999718,163.29385640006512,163.30874520004727,163.30874520004727,163.30874520004727,,167.4300554000074,right,1.0,18.112640500068665,,167.43065130000468,167.44537090009544,167.9305338000413,167.9461489000823,,,,,,,,,,,,,,,,,,,,,,,,,,sub-096,1.0,random_dot,59.66263168387997,
left,left,,9.0,1.0,19.0,0.0,,,,,,,,,167.9461489000823,,,,,,,,,167.9312678000424,169.12960890005343,169.92987660004292,169.91365930007305,169.91367760009598,169.92987660004292,169.92987660004292,169.92987660004292,,173.0161731999833,left,1.0,17.082322499947622,,173.01657079998404,173.0320161000127,173.5163595000049,173.5321284000529,,,,,,,,,,,,,,,,,,,,,,,,,,sub-096,1.0,random_dot,59.66263168387997,
,,,,,,,,,,,,,,,,,,,,,,,,,,,,,,,,,,,,,,,,,,173.51641340006609,173.5321284000529,173.5321284000529,179.0716214000713,space,19.529119799961336,,,,,,,,,,,,,,,,,,,,sub-096,1.0,random_dot,59.66263168387997,
,,,,,,,,,,,,,,,,,,,,,,,,,,,,,,,,,,,,,,,,,,,,,,,,,179.0717091000406,179.08719330001622,179.08719330001622,185.4428101000376,space,20.343914999975823,,,,,,,,,,,,,sub-096,1.0,random_dot,59.66263168387997,
left,left,speed,,,,,0.0,0.0,0.0,1.0,0.0,0.0,0.0,0.0,191.34976520005148,,,,,,,,,191.34361980005636,191.44577570003457,192.24514100002125,192.23041359998751,192.2304496000288,192.24514100002125,192.24514100002125,192.24514100002125,,194.4808467000257,right,0.0,16.2263096999377,,,,,,,,,,,,,,,,,,,,185.44623420003336,185.4775162000442,185.4775162000442,191.3307035000762,space,19.84480540000368,,,,,,sub-096,1.0,random_dot,59.66263168387997,
right,right,speed,,,,,0.0,0.0,0.0,1.0,0.0,1.0,1.0,1.0,194.4961775999982,,,,,,,,,194.48297990008723,195.29716650000773,196.09724270005245,196.084849899984,196.08487770007923,196.09724270005245,196.09724270005245,196.09724270005245,,199.67006410006437,right,1.0,17.57395870005712,,,,,,,,,,,,,,,,,,,,,,,,,,,,,,,sub-096,1.0,random_dot,59.66263168387997,
left,left,speed,,,,,0.0,0.0,0.0,1.0,1.0,0.0,2.0,0.0,199.684482300072,,,,,,,,,199.67188520007767,199.7836673000129,200.58468570001423,200.56892069999597,200.56896569998932,200.58468570001423,200.58468570001423,200.58468570001423,,203.25540780008305,left,1.0,16.66712840006221,,,,,,,,,,,,,,,,,,,,,,,,,,,,,,,sub-096,1.0,random_dot,59.66263168387997,
right,right,speed,,,,,0.0,0.0,0.0,1.0,1.0,1.0,3.0,1.0,203.26919900008943,,,,,,,,,203.25752650003412,203.37020510004368,204.16995910007967,204.1546328000259,204.15466930007096,204.16995910007967,204.16995910007967,204.16995910007967,,208.50856530002784,right,1.0,18.33177980000619,,,,,,,,,,,,,,,,,,,,,,,,,,,,,,,sub-096,1.0,random_dot,59.66263168387997,
left,left,speed,,,,,0.0,0.0,0.0,1.0,2.0,0.0,4.0,0.0,208.52363660000265,,,,,,,,,208.5108316000551,209.3238625000231,210.12467570009176,210.10871100006625,210.10875210003,210.12467570009176,210.12467570009176,210.12467570009176,,213.0444795000367,left,1.0,16.91682370007038,,,,,,,,,,,,,,,,,,,,,,,,,,,,,,,sub-096,1.0,random_dot,59.66263168387997,
right,right,speed,,,,,0.0,0.0,0.0,1.0,2.0,1.0,5.0,1.0,213.0600294000469,,,,,,,,,213.04636230005417,213.40973730001133,214.2111498999875,214.1955637000501,214.1956022999948,214.2111498999875,214.2111498999875,214.2111498999875,,218.5154659000691,right,1.0,18.29995790007524,,,,,,,,,,,,,,,,,,,,,,,,,,,,,,,sub-096,1.0,random_dot,59.66263168387997,
left,left,speed,,,,,0.0,0.0,0.0,1.0,3.0,0.0,6.0,0.0,218.5308006000705,,,,,,,,,218.51772130001336,218.6305978000164,219.4308681000257,219.41508460009936,219.4151178000029,219.4308681000257,219.4308681000257,219.4308681000257,,224.1345684000989,right,0.0,18.700703399954364,,,,,,,,,,,,,,,,,,,,,,,,,,,,,,,sub-096,1.0,random_dot,59.66263168387997,
right,right,speed,,,,,0.0,0.0,0.0,1.0,3.0,1.0,7.0,1.0,224.15049730008468,,,,,,,,,224.13550700002816,224.95172410004307,225.75246780004815,225.7364371999865,225.73647960007656,225.75246780004815,225.75246780004815,225.75246780004815,,230.22327890002637,right,1.0,18.46850760001689,,,,,,,,,,,,,,,,,,,,,,,,,,,,,,,sub-096,1.0,random_dot,59.66263168387997,
right,right,speed,,,,,0.0,0.0,0.0,1.0,4.0,0.0,8.0,1.0,230.23828250006773,,,,,,,,,230.224894199986,231.03937600005884,231.83921390003525,231.8240281000035,231.8240714999847,231.83921390003525,231.83921390003525,231.83921390003525,236.8264164000284,237.8621597000165,left,0.0,20.02243789995555,,,,,,,,,,,,,,,,,,,,,,,,,,,,,,,sub-096,1.0,random_dot,59.66263168387997,
left,left,speed,,,,,0.0,0.0,0.0,1.0,4.0,1.0,9.0,0.0,237.8764490000904,,,,,,,,,237.86381330003496,238.22680820000824,239.02854600001592,239.01226770004723,239.01229530002456,239.02854600001592,239.02854600001592,239.02854600001592,,242.6479574000696,right,0.0,17.612212600070052,,,,,,,,,,,,,,,,,,,,,,,,,,,,,,,sub-096,1.0,random_dot,59.66263168387997,
left,left,speed,,,,,0.0,0.0,0.0,1.0,5.0,0.0,10.0,0.0,242.663060800056,,,,,,,,,242.64873910008464,243.8476972000208,244.64816149999388,244.63341270003,244.63349420006853,244.64816149999388,244.64816149999388,244.64816149999388,249.6347999999998,250.7880673999898,left,1.0,20.134998800000176,,,,,,,,,,,,,,,,,,,,,,,,,,,,,,,sub-096,1.0,random_dot,59.66263168387997,
right,right,speed,,,,,0.0,0.0,0.0,1.0,5.0,1.0,11.0,1.0,250.80291620001665,,,,,,,,,250.7896850000834,251.60308430006265,252.4033836000599,252.38748290005609,252.38750150008127,252.4033836000599,252.4033836000599,252.4033836000599,,257.2920308000175,left,0.0,18.887862700037655,,,,,,,,,,,,,,,,,,,,,,,,,,,,,,,sub-096,1.0,random_dot,59.66263168387997,
left,left,speed,,,,,0.0,0.0,0.0,1.0,6.0,0.0,12.0,0.0,257.30668400006834,,,,,,,,,257.2930886000395,257.6570192000363,258.45769250008743,258.44126540003344,258.4412834000541,258.45769250008743,258.45769250008743,258.45769250008743,,262.2435953000095,right,0.0,17.78445889998693,,,,,,,,,,,,,,,,,,,,,,,,,,,,,,,sub-096,1.0,random_dot,59.66263168387997,
right,right,speed,,,,,0.0,0.0,0.0,1.0,6.0,1.0,13.0,1.0,262.2594454000937,,,,,,,,,262.24433790007606,263.4436414000811,264.24444760009646,264.2284282000037,264.2284468000289,264.24444760009646,264.24444760009646,264.24444760009646,,268.93339810008183,left,0.0,18.678375600022264,,,,,,,,,,,,,,,,,,,,,,,,,,,,,,,sub-096,1.0,random_dot,59.66263168387997,
right,right,speed,,,,,0.0,0.0,0.0,1.0,7.0,0.0,14.0,1.0,268.94841380009893,,,,,,,,,268.9350890000351,269.7475292000454,270.5493982000044,270.53260770009365,270.53264700004365,270.5493982000044,270.5493982000044,270.5493982000044,,274.3691428999882,left,0.0,17.812255700002424,,,,,,,,,,,,,,,,,,,,,,,,,,,,,,,sub-096,1.0,random_dot,59.66263168387997,
left,left,speed,,,,,0.0,0.0,0.0,1.0,7.0,1.0,15.0,0.0,274.38508859998547,,,,,,,,,274.37063540006056,275.1864274000982,275.98598990007304,275.9710446000099,275.97107070009224,275.98598990007304,275.98598990007304,275.98598990007304,,279.43900180002674,right,0.0,17.456783200032078,,,,,,,,,,,,,,,,,,,,,,,,,,,,,,,sub-096,1.0,random_dot,59.66263168387997,
right,right,speed,,,,,0.0,0.0,0.0,1.0,8.0,0.0,16.0,1.0,279.4546606000513,,,,,,,,,279.43969280004967,280.6398237000685,281.4394277000101,281.42345260002185,281.42347230005544,281.4394277000101,281.4394277000101,281.4394277000101,286.4267241000198,286.6126787000103,left,0.0,19.16241510002874,,,,,,,,,,,,,,,,,,,,,,,,,,,,,,,sub-096,1.0,random_dot,59.66263168387997,
left,left,speed,,,,,0.0,0.0,0.0,1.0,8.0,1.0,17.0,0.0,286.6260018000612,,,,,,,,,286.61628130008467,287.4275349000236,288.2282197000459,288.21238420007285,288.21241680008825,288.2282197000459,288.2282197000459,288.2282197000459,293.2144394000061,293.85008480004035,right,0.0,19.62345470010769,,,,,,,,,,,,,,,,,,,,,,,,,,,,,,,sub-096,1.0,random_dot,59.66263168387997,
left,left,speed,,,,,0.0,0.0,0.0,1.0,9.0,0.0,18.0,0.0,293.86524000007194,,,,,,,,,293.85144620004576,293.9648166000843,294.7654806000646,294.7494709000457,294.74948940007016,294.7654806000646,294.7654806000646,294.7654806000646,,299.3883676000405,left,1.0,18.626778100035157,,,,,,,,,,,,,,,,,,,,,,,,,,,,,,,sub-096,1.0,random_dot,59.66263168387997,
right,right,speed,,,,,0.0,0.0,0.0,1.0,9.0,1.0,19.0,1.0,299.40184529998805,,,,,,,,,299.3901683000149,300.20290680008475,301.0028484000359,300.9872491999995,300.98728140001185,301.0028484000359,301.0028484000359,301.0028484000359,,305.19060740002897,left,0.0,18.1788187000202,,,,,,,,,,,,,,,,,,,,,,,,,,,,,,,sub-096,1.0,random_dot,59.66263168387997,
left,left,speed,,,,,0.0,0.0,0.0,1.0,10.0,0.0,20.0,0.0,305.2065928000957,,,,,,,,,305.19254250009544,306.4070320000173,307.2074429000495,307.1916965000564,307.191726100049,307.2074429000495,307.2074429000495,307.2074429000495,312.1940121999942,312.82888809998985,left,1.0,19.61491670005489,,,,,,,,,,,,,,,,,,,,,,,,,,,,,,,sub-096,1.0,random_dot,59.66263168387997,
right,right,speed,,,,,0.0,0.0,0.0,1.0,10.0,1.0,21.0,1.0,312.84477810002863,,,,,,,,,312.8298564000288,313.645070400089,314.445229700068,314.43038879998494,314.4304339000955,314.445229700068,314.445229700068,314.445229700068,,317.6339127999963,right,1.0,17.17772309994325,,,,,,,,,,,,,,,,,,,,,,,,,,,,,,,sub-096,1.0,random_dot,59.66263168387997,
right,right,speed,,,,,0.0,0.0,0.0,1.0,11.0,0.0,22.0,1.0,317.6476230000844,,,,,,,,,317.63599630002864,317.9989102000836,318.7985824000789,318.7823261000449,318.78234480007086,318.7985824000789,318.7985824000789,318.7985824000789,,322.9353766000131,right,1.0,18.133292899932712,,,,,,,,,,,,,,,,,,,,,,,,,,,,,,,sub-096,1.0,random_dot,59.66263168387997,
left,left,speed,,,,,0.0,0.0,0.0,1.0,11.0,1.0,23.0,0.0,322.9512792000314,,,,,,,,,322.9361432000296,324.13563280005474,324.9358845000388,324.92047340003774,324.9204922000645,324.9358845000388,324.9358845000388,324.9358845000388,329.922879000078,331.25826880009845,right,0.0,20.31633259996306,,,,,,,,,,,,,,,,,,,,,,,,,,,,,,,sub-096,1.0,random_dot,59.66263168387997,
right,right,speed,,,,,0.0,0.0,0.0,1.0,12.0,0.0,24.0,1.0,331.2737757000141,,,,,,,,,331.2595846999902,331.3740639000898,332.17501240002457,332.15887160005514,332.1589064000873,332.17501240002457,332.17501240002457,332.17501240002457,,335.82870569999795,right,1.0,17.657262400025502,,,,,,,,,,,,,,,,,,,,,,,,,,,,,,,sub-096,1.0,random_dot,59.66263168387997,
left,left,speed,,,,,0.0,0.0,0.0,1.0,12.0,1.0,25.0,0.0,335.8435223000124,,,,,,,,,335.82996420003474,337.0447232000297,337.8447574999882,337.82886670005973,337.8288859000895,337.8447574999882,337.8447574999882,337.8447574999882,,342.21663770009764,left,1.0,18.37715910002589,,,,,,,,,,,,,,,,,,,,,,,,,,,,,,,sub-096,1.0,random_dot,59.66263168387997,
right,right,speed,,,,,0.0,0.0,0.0,1.0,13.0,0.0,26.0,1.0,342.23141690006014,,,,,,,,,342.21756440005265,342.5814112999942,343.38175960001536,343.3663691000547,343.366395900026,343.38175960001536,343.38175960001536,343.38175960001536,348.3690315000713,348.4705551000079,left,0.0,19.080542500014417,,,,,,,,,,,,,,,,,,,,,,,,,,,,,,,sub-096,1.0,random_dot,59.66263168387997,
left,left,speed,,,,,0.0,0.0,0.0,1.0,13.0,1.0,27.0,0.0,348.4857832000125,,,,,,,,,348.4718335000798,349.28673849999905,350.0869296999881,350.07160600007046,350.0716423999984,350.0869296999881,350.0869296999881,350.0869296999881,,352.92345830006525,right,0.0,16.835473700077273,,,,,,,,,,,,,,,,,,,,,,,,,,,,,,,sub-096,1.0,random_dot,59.66263168387997,
left,left,speed,,,,,0.0,0.0,0.0,1.0,14.0,0.0,28.0,0.0,352.9392642000457,,,,,,,,,352.92463110003155,353.73927980009466,354.5396262999857,354.52499390009325,354.52503970009275,354.5396262999857,354.5396262999857,354.5396262999857,359.52712109999266,359.8959876000881,left,1.0,19.35228630003985,,,,,,,,,,,,,,,,,,,,,,,,,,,,,,,sub-096,1.0,random_dot,59.66263168387997,
right,right,speed,,,,,0.0,0.0,0.0,1.0,14.0,1.0,29.0,1.0,359.91053200000897,,,,,,,,,359.89836860005744,360.7111541000195,361.51155460008886,361.4955388000235,361.495565899997,361.51155460008886,361.51155460008886,361.51155460008886,,366.1340378000168,right,1.0,18.620222099940293,,,,,,,,,,,,,,,,,,,,,,,,,,,,,,,sub-096,1.0,random_dot,59.66263168387997,
left,left,speed,,,,,0.0,0.0,0.0,1.0,15.0,0.0,30.0,0.0,366.1484076000052,,,,,,,,,366.1359379000496,366.2495596000226,367.049051500042,367.0338382000336,367.03386830003,367.049051500042,367.049051500042,367.049051500042,,371.08751430001575,right,0.0,18.042666899971664,,,,,,,,,,,,,,,,,,,,,,,,,,,,,,,sub-096,1.0,random_dot,59.66263168387997,
right,right,speed,,,,,0.0,0.0,0.0,1.0,15.0,1.0,31.0,1.0,371.1014526000945,,,,,,,,,371.0896218999988,371.2022890000371,372.0022171000019,371.9872008000966,371.9872359000146,372.0022171000019,372.0022171000019,372.0022171000019,,374.88972610002384,left,0.0,16.880083800060675,,,,,,,,,,,,,,,,,,,,,,,,,,,,,,,sub-096,1.0,random_dot,59.66263168387997,
left,left,speed,,,,,0.0,0.0,0.0,1.0,16.0,0.0,32.0,0.0,374.90352910000365,,,,,,,,,374.8917786000529,375.2537020000164,376.0546919000335,376.0394021000248,376.0394850000739,376.0546919000335,376.0546919000335,376.0546919000335,,380.5938972000731,left,1.0,18.537570300046355,,,,,,,,,,,,,,,,,,,,,,,,,,,,,,,sub-096,1.0,random_dot,59.66263168387997,
right,right,speed,,,,,0.0,0.0,0.0,1.0,16.0,1.0,33.0,1.0,380.60792600002605,,,,,,,,,380.5958385000704,380.70797290001065,381.5081476999912,381.4928514000494,381.4928912000032,381.5081476999912,381.5081476999912,381.5081476999912,386.4954361000564,386.7809096000856,right,1.0,19.27514259994496,,,,,,,,,,,,,,,,,,,,,,,,,,,,,,,sub-096,1.0,random_dot,59.66263168387997,
left,left,speed,,,,,0.0,0.0,0.0,1.0,17.0,0.0,34.0,0.0,386.7951468999963,,,,,,,,,386.7830005000578,387.1456230999902,387.94677550008055,387.9306214000098,387.9306722000474,387.94677550008055,387.94677550008055,387.94677550008055,,391.9687466000905,right,0.0,18.02513480000198,,,,,,,,,,,,,,,,,,,,,,,,,,,,,,,sub-096,1.0,random_dot,59.66263168387997,
right,right,speed,,,,,0.0,0.0,0.0,1.0,17.0,1.0,35.0,1.0,391.9827253000112,,,,,,,,,391.9707874000305,392.7835151000181,393.5830722000683,393.5677771000192,393.5678197999951,393.5830722000683,393.5830722000683,393.5830722000683,,398.02156470005866,left,0.0,18.42927610001061,,,,,,,,,,,,,,,,,,,,,,,,,,,,,,,sub-096,1.0,random_dot,59.66263168387997,
right,right,speed,,,,,0.0,0.0,0.0,1.0,18.0,0.0,36.0,1.0,398.0365682000993,,,,,,,,,398.0235293000005,398.83743670000695,399.6374305000063,399.6222873000661,399.6223231999902,399.6374305000063,399.6374305000063,399.6374305000063,404.625568700023,405.377955700038,left,0.0,19.734207900008187,,,,,,,,,,,,,,,,,,,,,,,,,,,,,,,sub-096,1.0,random_dot,59.66263168387997,
left,left,speed,,,,,0.0,0.0,0.0,1.0,18.0,1.0,37.0,0.0,405.3917789000552,,,,,,,,,405.3807745000813,405.49180660001,406.2923926000949,406.2767443000339,406.2767860000022,406.2923926000949,406.2923926000949,406.2923926000949,411.2796425999841,411.54812890000176,left,1.0,19.24910859996453,,,,,,,,,,,,,,,,,,,,,,,,,,,,,,,sub-096,1.0,random_dot,59.66263168387997,
left,left,speed,,,,,0.0,0.0,0.0,1.0,19.0,0.0,38.0,0.0,411.5626650000922,,,,,,,,,411.5499465999892,411.662885800004,412.4633662999841,412.4481000000378,412.44812519999687,412.4633662999841,412.4633662999841,412.4633662999841,,416.1676596000325,left,1.0,17.708098700037226,,,,,,,,,,,,,,,,,,,,,,,,,,,,,,,sub-096,1.0,random_dot,59.66263168387997,
right,right,speed,,,,,0.0,0.0,0.0,1.0,19.0,1.0,39.0,1.0,416.1825079000555,,,,,,,,,416.1688880000729,416.9825131000253,417.78326719999313,417.76772860006895,417.7677560000448,417.78326719999313,417.78326719999313,417.78326719999313,,420.6538589000702,right,1.0,16.86874019994866,,,,,,,,,,,,,,,,,,,,,,,,,,,,,,,sub-096,1.0,random_dot,59.66263168387997,
right,right,speed,,,,,0.0,0.0,0.0,1.0,20.0,0.0,40.0,1.0,420.66862810007297,,,,,,,,,420.6558244000189,420.7695176000707,421.5693514000159,421.5538050000323,421.5538397000637,421.5693514000159,421.5693514000159,421.5693514000159,,425.5407591999974,right,1.0,17.962592600029893,,,,,,,,,,,,,,,,,,,,,,,,,,,,,,,sub-096,1.0,random_dot,59.66263168387997,
left,left,speed,,,,,0.0,0.0,0.0,1.0,20.0,1.0,41.0,0.0,425.555398000055,,,,,,,,,425.5427065000404,425.655300399987,426.4563004000811,426.44025270000566,426.4402871000348,426.4563004000811,426.4563004000811,426.4563004000811,,430.2114081000909,left,1.0,17.75589469994884,,,,,,,,,,,,,,,,,,,,,,,,,,,,,,,sub-096,1.0,random_dot,59.66263168387997,
left,left,speed,,,,,0.0,0.0,0.0,1.0,21.0,0.0,42.0,0.0,430.2249868999934,,,,,,,,,430.2133762000594,430.3252553000348,431.12670910009183,431.1100719000679,431.1101027000696,431.12670910009183,431.12670910009183,431.12670910009183,,434.8640582000371,right,0.0,17.73554130003322,,,,,,,,,,,,,,,,,,,,,,,,,,,,,,,sub-096,1.0,random_dot,59.66263168387997,
right,right,speed,,,,,0.0,0.0,0.0,1.0,21.0,1.0,43.0,1.0,434.8781972000143,,,,,,,,,434.8660695999861,436.0793134000851,436.8798476000084,436.8643090000842,436.8643430999946,436.8798476000084,436.8798476000084,436.8798476000084,441.8668604000704,442.3188519000541,left,0.0,19.442816799972206,,,,,,,,,,,,,,,,,,,,,,,,,,,,,,,sub-096,1.0,random_dot,59.66263168387997,
left,left,speed,,,,,0.0,0.0,0.0,1.0,22.0,0.0,44.0,0.0,442.3331540999934,,,,,,,,,442.3204714000458,443.13421210006345,443.9344178000465,443.9183442000067,443.9183672000654,443.9344178000465,443.9344178000465,443.9344178000465,448.9213583000237,448.9740336000687,left,1.0,19.03784449992236,,,,,,,,,,,,,,,,,,,,,,,,,,,,,,,sub-096,1.0,random_dot,59.66263168387997,
right,right,speed,,,,,0.0,0.0,0.0,1.0,22.0,1.0,45.0,1.0,448.98788190004416,,,,,,,,,448.97597939998377,449.3382082000608,450.1386605000589,450.12229329999536,450.1223212000914,450.1386605000589,450.1386605000589,450.1386605000589,,454.20980080007575,left,0.0,18.06339290004689,,,,,,,,,,,,,,,,,,,,,,,,,,,,,,,sub-096,1.0,random_dot,59.66263168387997,
left,left,speed,,,,,0.0,0.0,0.0,1.0,23.0,0.0,46.0,0.0,454.2248882000568,,,,,,,,,454.2114827000769,454.3250455000671,455.1254673000658,455.10926310007926,455.1092923000688,455.1254673000658,455.1254673000658,455.1254673000658,,459.3795466000447,right,0.0,18.24606190004852,,,,,,,,,,,,,,,,,,,,,,,,,,,,,,,sub-096,1.0,random_dot,59.66263168387997,
right,right,speed,,,,,0.0,0.0,0.0,1.0,23.0,1.0,47.0,1.0,459.3953163000988,,,,,,,,,459.3807060000254,460.1953325000359,460.9963230000576,460.9801394999959,460.9801587000256,460.9963230000576,460.9963230000576,460.9963230000576,465.98255730001256,467.0186888000462,right,1.0,20.014897100045346,,,,,,,,,,,,,,,,,,,,,,,,,,,,,,,sub-096,1.0,random_dot,59.66263168387997,
right,right,speed,,,,,0.0,0.0,0.0,1.0,24.0,0.0,48.0,1.0,467.0334474000847,,,,,,,,,467.0204922000412,468.2348816000158,469.0351239000447,469.0186781000812,469.0186997000128,469.0351239000447,469.0351239000447,469.0351239000447,,473.6403857000405,left,0.0,18.597915700054727,,,,,,,,,,,,,,,,,,,,,,,,,,,,,,,sub-096,1.0,random_dot,59.66263168387997,
left,left,speed,,,,,0.0,0.0,0.0,1.0,24.0,1.0,49.0,0.0,473.6554438000312,,,,,,,,,473.64208590006456,474.4555195000721,475.2560227999929,475.2400843000505,475.2401102000149,475.2560227999929,475.2560227999929,475.2560227999929,480.2428436999908,480.6120731000556,left,1.0,19.3559073000215,,,,,,,,,,,,,,,,,,,,,,,,,,,,,,,sub-096,1.0,random_dot,59.66263168387997,
right,right,speed,,,,,0.0,0.0,0.0,1.0,25.0,0.0,50.0,1.0,480.62597580009606,,,,,,,,,480.6139545000624,480.97663640009705,481.7773805999896,481.7610735000344,481.7611067000544,481.7773805999896,481.7773805999896,481.7773805999896,,485.6990115999943,left,0.0,17.92511770001147,,,,,,,,,,,,,,,,,,,,,,,,,,,,,,,sub-096,1.0,random_dot,59.66263168387997,
left,left,speed,,,,,0.0,0.0,0.0,1.0,25.0,1.0,51.0,0.0,485.7129629000556,,,,,,,,,485.7007305000443,486.0633163000457,486.8642744000536,486.8483730000444,486.84840230003465,486.8642744000536,486.8642744000536,486.8642744000536,491.8509935000912,492.45194150006864,left,1.0,19.577487400034443,,,,,,,,,,,,,,,,,,,,,,,,,,,,,,,sub-096,1.0,random_dot,59.66263168387997,
left,left,speed,,,,,0.0,0.0,0.0,1.0,26.0,0.0,52.0,0.0,492.4673531000735,,,,,,,,,492.4530319999904,493.25136210001074,494.0523430000758,494.03640780004207,494.0364300000947,494.0523430000758,494.0523430000758,494.0523430000758,,497.57344270008616,right,0.0,17.519395699957386,,,,,,,,,,,,,,,,,,,,,,,,,,,,,,,sub-096,1.0,random_dot,59.66263168387997,
right,right,speed,,,,,0.0,0.0,0.0,1.0,26.0,1.0,53.0,1.0,497.5881035000784,,,,,,,,,497.5751548000844,497.9382411000552,498.7381128000561,498.7229013000615,498.7229229999939,498.7381128000561,498.7381128000561,498.7381128000561,,502.9439741000533,right,1.0,18.205208899918944,,,,,,,,,,,,,,,,,,,,,,,,,,,,,,,sub-096,1.0,random_dot,59.66263168387997,
right,right,speed,,,,,0.0,0.0,0.0,1.0,27.0,0.0,54.0,1.0,502.9583823999856,,,,,,,,,502.9458535000449,503.308863400016,504.1096223000204,504.0936515000649,504.0937075000256,504.1096223000204,504.1096223000204,504.1096223000204,509.0959666999988,510.58175790007226,right,1.0,20.461934100021608,,,,,,,,,,,,,,,,,,,,,,,,,,,,,,,sub-096,1.0,random_dot,59.66263168387997,
left,left,speed,,,,,0.0,0.0,0.0,1.0,27.0,1.0,55.0,0.0,510.5967356000328,,,,,,,,,510.5831125000259,510.9474022000795,511.7472709000576,511.73220110009424,511.7322393000359,511.7472709000576,511.7472709000576,511.7472709000576,,515.7517165000318,left,1.0,18.005323000019416,,,,,,,,,,,,,,,,,,,,,,,,,,,,,,,sub-096,1.0,random_dot,59.66263168387997,
right,right,speed,,,,,0.0,0.0,0.0,1.0,28.0,0.0,56.0,1.0,515.7673566000303,,,,,,,,,515.7530973000685,516.5681848000968,517.3681133000646,517.353707900038,517.353746799985,517.3681133000646,517.3681133000646,517.3681133000646,,520.1385161000071,left,0.0,16.764202500111423,,,,,,,,,,,,,,,,,,,,,,,,,,,,,,,sub-096,1.0,random_dot,59.66263168387997,
left,left,speed,,,,,0.0,0.0,0.0,1.0,28.0,1.0,57.0,0.0,520.1531378000509,,,,,,,,,520.1401755000697,520.9549725000979,521.7716769000981,521.7552386000752,521.7552756000077,521.7716769000981,521.7716769000981,521.7716769000981,526.7580742000137,527.3092630000319,left,1.0,19.530920600052923,,,,,,,,,,,,,,,,,,,,,,,,,,,,,,,sub-096,1.0,random_dot,59.66263168387997,
right,right,speed,,,,,0.0,0.0,0.0,1.0,29.0,0.0,58.0,1.0,527.3250796000939,,,,,,,,,527.3103097000858,527.6753597999923,528.4763751000864,528.460269400035,528.4603172000498,528.4763751000864,528.4763751000864,528.4763751000864,,532.8466177000664,right,1.0,18.365752600017004,,,,,,,,,,,,,,,,,,,,,,,,,,,,,,,sub-096,1.0,random_dot,59.66263168387997,
left,left,speed,,,,,0.0,0.0,0.0,1.0,29.0,1.0,59.0,0.0,532.862140399986,,,,,,,,,532.848332600086,534.0630606000777,534.8630988000659,534.8476613000967,534.8477005000459,534.8630988000659,534.8630988000659,534.8630988000659,,538.7008899000939,right,0.0,17.829855100018904,,,,,,,,,,,,,,,,,,,,,,,,,,,,,,,sub-096,1.0,random_dot,59.66263168387997,
,,speed,,,,,0.0,0.0,0.0,1.0,,,,,,,,,,,,,,,,,,,,,,,,,,,,,,,,,,,,,,,,,,,,,,,,,,,,,,,,,sub-096,1.0,random_dot,59.66263168387997,
left,left,accuracy,,,,,0.0,1.0,1.0,0.0,0.0,0.0,0.0,0.0,542.9379886999959,,,,,,,,,542.9336646000156,543.268880299991,544.0703223000746,544.0538878000807,544.0539176000748,544.0703223000746,544.0703223000746,544.0703223000746,,547.7912210000213,right,0.0,17.72417930001393,,,,,,,,,,,,,,,,,,,,538.7026261000428,538.7273715999909,538.7273715999909,542.9040066000307,space,18.175574299995787,,,,,,sub-096,1.0,random_dot,59.66263168387997,
right,right,accuracy,,,,,0.0,1.0,1.0,0.0,0.0,1.0,1.0,1.0,547.8059302000329,,,,,,,,,547.7926465000492,548.1565488000633,548.9562810000498,548.9409269000171,548.9409454000415,548.9562810000498,548.9562810000498,548.9562810000498,,553.5113043000456,right,1.0,18.546763099962845,,,,,,,,,,,,,,,,,,,,,,,,,,,,,,,sub-096,1.0,random_dot,59.66263168387997,
right,right,accuracy,,,,,0.0,1.0,1.0,0.0,1.0,0.0,2.0,1.0,553.5259578000987,,,,,,,,,553.5130817000754,554.3263141000643,555.126989500015,555.1110756000271,555.1111039000098,555.126989500015,555.126989500015,555.126989500015,,559.6989246000303,left,0.0,18.57568440004252,,,,,,,,,,,,,,,,,,,,,,,,,,,,,,,sub-096,1.0,random_dot,59.66263168387997,
left,left,accuracy,,,,,0.0,1.0,1.0,0.0,1.0,1.0,3.0,0.0,559.7142853999976,,,,,,,,,559.7008135000942,560.5149056999944,561.3147978000343,561.2993555000285,561.2993928000797,561.3147978000343,561.3147978000343,561.3147978000343,,565.3034363000188,right,0.0,17.988703200011514,,,,,,,,,,,,,,,,,,,,,,,,,,,,,,,sub-096,1.0,random_dot,59.66263168387997,
right,right,accuracy,,,,,0.0,1.0,1.0,0.0,2.0,0.0,4.0,1.0,565.3181959000649,,,,,,,,,565.306097600027,566.5189271999989,567.3188930000179,567.3035710999975,567.303613700089,567.3188930000179,567.3188930000179,567.3188930000179,572.3058834000258,572.9921644000569,right,1.0,19.663813999970444,,,,,,,,,,,,,,,,,,,,,,,,,,,,,,,sub-096,1.0,random_dot,59.66263168387997,
left,left,accuracy,,,,,0.0,1.0,1.0,0.0,2.0,1.0,5.0,0.0,573.0073097000131,,,,,,,,,572.994159599999,574.2078023999929,575.0079357000068,574.9922556000529,574.9922971000196,575.0079357000068,575.0079357000068,575.0079357000068,,578.2116503000725,right,0.0,17.194259400013834,,,,,,,,,,,,,,,,,,,,,,,,,,,,,,,sub-096,1.0,random_dot,59.66263168387997,
right,right,accuracy,,,,,0.0,1.0,1.0,0.0,3.0,0.0,6.0,1.0,578.2260055000661,,,,,,,,,578.2133746000472,578.3269074000418,579.1274429000914,579.1115231000585,579.1115535000572,579.1274429000914,579.1274429000914,579.1274429000914,584.114121700055,584.148728900007,right,1.0,19.025463299942203,,,,,,,,,,,,,,,,,,,,,,,,,,,,,,,sub-096,1.0,random_dot,59.66263168387997,
left,left,accuracy,,,,,0.0,1.0,1.0,0.0,3.0,1.0,7.0,0.0,584.1640417000744,,,,,,,,,584.1501165000955,585.3646421000594,586.165475100046,586.1499202999985,586.1499793000985,586.165475100046,586.165475100046,586.165475100046,,590.7529261000454,right,0.0,18.577091600047424,,,,,,,,,,,,,,,,,,,,,,,,,,,,,,,sub-096,1.0,random_dot,59.66263168387997,
right,right,accuracy,,,,,0.0,1.0,1.0,0.0,4.0,0.0,8.0,1.0,590.7682045000838,,,,,,,,,590.7546040000161,590.8687250000658,591.6690733000869,591.6531339000212,591.6531647000229,591.6690733000869,591.6690733000869,591.6690733000869,596.6559713000897,596.991383500048,right,1.0,19.323397499974817,,,,,,,,,,,,,,,,,,,,,,,,,,,,,,,sub-096,1.0,random_dot,59.66263168387997,
left,left,accuracy,,,,,0.0,1.0,1.0,0.0,4.0,1.0,9.0,0.0,597.0068206000142,,,,,,,,,596.9932170000393,597.8070107999956,598.606929600006,598.5910207000561,598.5910512000555,598.606929600006,598.606929600006,598.606929600006,603.5936876999913,604.4118588999845,right,0.0,19.794875500025228,,,,,,,,,,,,,,,,,,,,,,,,,,,,,,,sub-096,1.0,random_dot,59.66263168387997,
right,right,accuracy,,,,,0.0,1.0,1.0,0.0,5.0,0.0,10.0,1.0,604.4278577000368,,,,,,,,,604.4129782000091,604.527751400019,605.3283256000141,605.3124075999949,605.3124309000559,605.3283256000141,605.3283256000141,605.3283256000141,,608.8317656000145,right,1.0,17.50438420008868,,,,,,,,,,,,,,,,,,,,,,,,,,,,,,,sub-096,1.0,random_dot,59.66263168387997,
left,left,accuracy,,,,,0.0,1.0,1.0,0.0,5.0,1.0,11.0,0.0,608.8473948000465,,,,,,,,,608.8329197000712,608.9472091000061,609.7478523000609,609.7318393000169,609.7318704000209,609.7478523000609,609.7478523000609,609.7478523000609,,614.420008999994,left,1.0,18.67482730001211,,,,,,,,,,,,,,,,,,,,,,,,,,,,,,,sub-096,1.0,random_dot,59.66263168387997,
left,left,accuracy,,,,,0.0,1.0,1.0,0.0,6.0,0.0,12.0,0.0,614.4353772000177,,,,,,,,,614.4219586000545,615.6356774000451,616.4360784000019,616.4204031000845,616.420438000001,616.4360784000019,616.4360784000019,616.4360784000019,621.422759899986,622.3925849000225,left,1.0,19.95672250003554,,,,,,,,,,,,,,,,,,,,,,,,,,,,,,,sub-096,1.0,random_dot,59.66263168387997,
right,right,accuracy,,,,,0.0,1.0,1.0,0.0,6.0,1.0,13.0,1.0,622.4084549000254,,,,,,,,,622.3943316000514,623.2073369000573,624.0082517000847,623.9921546999831,623.9921957000624,624.0082517000847,624.0082517000847,624.0082517000847,,628.2793700000038,left,0.0,18.26381330005825,,,,,,,,,,,,,,,,,,,,,,,,,,,,,,,sub-096,1.0,random_dot,59.66263168387997,
right,right,accuracy,,,,,0.0,1.0,1.0,0.0,7.0,0.0,14.0,1.0,628.2941419000272,,,,,,,,,628.2812116000568,629.494723000098,630.2958681000164,630.2798774000257,630.2799136000685,630.2958681000164,630.2958681000164,630.2958681000164,635.2828462000471,635.9680662000319,right,1.0,19.665927099995315,,,,,,,,,,,,,,,,,,,,,,,,,,,,,,,sub-096,1.0,random_dot,59.66263168387997,
left,left,accuracy,,,,,0.0,1.0,1.0,0.0,7.0,1.0,15.0,0.0,635.9831307000713,,,,,,,,,635.9699349000584,637.1837793000741,637.9838102000067,637.9688493000576,637.9688888000092,637.9838102000067,637.9838102000067,637.9838102000067,,641.4722069000127,left,1.0,17.488769000046887,,,,,,,,,,,,,,,,,,,,,,,,,,,,,,,sub-096,1.0,random_dot,59.66263168387997,
left,left,accuracy,,,,,0.0,1.0,1.0,0.0,8.0,0.0,16.0,0.0,641.4865103000775,,,,,,,,,641.4739868000615,642.6870812000707,643.4879028000869,643.472182800062,643.4722185999854,643.4879028000869,643.4879028000869,643.4879028000869,648.4746018000878,649.4933027999941,left,1.0,20.005696900072508,,,,,,,,,,,,,,,,,,,,,,,,,,,,,,,sub-096,1.0,random_dot,59.66263168387997,
right,right,accuracy,,,,,0.0,1.0,1.0,0.0,8.0,1.0,17.0,1.0,649.5086522999918,,,,,,,,,649.4946871000575,650.3089834999992,651.1095220000716,651.0936288000084,651.0936545000877,651.1095220000716,651.1095220000716,651.1095220000716,656.0968203000957,656.3822271000827,left,0.0,19.26220590004232,,,,,,,,,,,,,,,,,,,,,,,,,,,,,,,sub-096,1.0,random_dot,59.66263168387997,
left,left,accuracy,,,,,0.0,1.0,1.0,0.0,9.0,0.0,18.0,0.0,656.3968812000239,,,,,,,,,656.3842495999997,656.747122400091,657.5474583000178,657.5319730000338,657.5320017000195,657.5474583000178,657.5474583000178,657.5474583000178,662.5344336000271,662.9692347000819,left,1.0,19.415062900050543,,,,,,,,,,,,,,,,,,,,,,,,,,,,,,,sub-096,1.0,random_dot,59.66263168387997,
right,right,accuracy,,,,,0.0,1.0,1.0,0.0,9.0,1.0,19.0,1.0,662.9846356000053,,,,,,,,,662.9707521999953,663.3346246000146,664.1348550000694,664.1192086000228,664.1192398000276,664.1348550000694,664.1348550000694,664.1348550000694,669.1221272000112,669.157112600049,right,1.0,19.02726799994707,,,,,,,,,,,,,,,,,,,,,,,,,,,,,,,sub-096,1.0,random_dot,59.66263168387997,
left,left,accuracy,,,,,0.0,1.0,1.0,0.0,10.0,0.0,20.0,0.0,669.1723915000912,,,,,,,,,669.1584713000339,669.2722676000558,670.0728465000866,670.0571956000058,670.0572195000714,670.0728465000866,670.0728465000866,670.0728465000866,675.0593983000144,675.1777892000973,left,1.0,19.109616399975494,,,,,,,,,,,,,,,,,,,,,,,,,,,,,,,sub-096,1.0,random_dot,59.66263168387997,
right,right,accuracy,,,,,0.0,1.0,1.0,0.0,10.0,1.0,21.0,1.0,675.1928012000863,,,,,,,,,675.1795374000212,675.2928598000435,676.0940492000664,676.0778588000685,676.0778799999971,676.0940492000664,676.0940492000664,676.0940492000664,681.0804239000427,681.1813572000246,left,0.0,19.07786790002137,,,,,,,,,,,,,,,,,,,,,,,,,,,,,,,sub-096,1.0,random_dot,59.66263168387997,
right,right,accuracy,,,,,0.0,1.0,1.0,0.0,11.0,0.0,22.0,1.0,681.1968983000843,,,,,,,,,681.1824487000704,681.296681100037,682.0980948000215,682.0819661000278,682.0819877000758,682.0980948000215,682.0980948000215,682.0980948000215,687.0856969000306,687.5197099000216,right,1.0,19.41425800009165,,,,,,,,,,,,,,,,,,,,,,,,,,,,,,,sub-096,1.0,random_dot,59.66263168387997,
left,left,accuracy,,,,,0.0,1.0,1.0,0.0,11.0,1.0,23.0,0.0,687.5348503000569,,,,,,,,,687.5214528000215,688.7355869000312,689.5365676000947,689.5205266000703,689.5205609000986,689.5365676000947,689.5365676000947,689.5365676000947,694.5230048000813,695.3421783000231,right,0.0,19.807006600080054,,,,,,,,,,,,,,,,,,,,,,,,,,,,,,,sub-096,1.0,random_dot,59.66263168387997,
right,right,accuracy,,,,,0.0,1.0,1.0,0.0,12.0,0.0,24.0,1.0,695.3563621999929,,,,,,,,,695.3430445999838,695.4569500000216,696.2570743000833,696.2415664000437,696.241586200078,696.2570743000833,696.2570743000833,696.2570743000833,,700.9951134000439,right,1.0,18.73569680005312,,,,,,,,,,,,,,,,,,,,,,,,,,,,,,,sub-096,1.0,random_dot,59.66263168387997,
left,left,accuracy,,,,,0.0,1.0,1.0,0.0,12.0,1.0,25.0,0.0,701.0105796999997,,,,,,,,,700.9970929999836,701.3617188000353,702.177308900049,702.1628632000647,702.1629004999995,702.177308900049,702.177308900049,702.177308900049,707.1648030000506,707.8505482000764,right,0.0,19.67456429998856,,,,,,,,,,,,,,,,,,,,,,,,,,,,,,,sub-096,1.0,random_dot,59.66263168387997,
left,left,accuracy,,,,,0.0,1.0,1.0,0.0,13.0,0.0,26.0,0.0,707.865814800025,,,,,,,,,707.851956400089,708.216147200088,709.0157213000348,709.0002428999869,709.0002849000739,709.0157213000348,709.0157213000348,709.0157213000348,714.0028646000428,714.5217127000215,right,0.0,19.505874400027096,,,,,,,,,,,,,,,,,,,,,,,,,,,,,,,sub-096,1.0,random_dot,59.66263168387997,
right,right,accuracy,,,,,0.0,1.0,1.0,0.0,13.0,1.0,27.0,1.0,714.5366048000287,,,,,,,,,714.5235884999856,714.8868180999998,715.687298700097,715.6711470000446,715.6711722000036,715.687298700097,715.687298700097,715.687298700097,,720.6423763000639,right,1.0,18.94461600005161,,,,,,,,,,,,,,,,,,,,,,,,,,,,,,,sub-096,1.0,random_dot,59.66263168387997,
right,right,accuracy,,,,,0.0,1.0,1.0,0.0,14.0,0.0,28.0,1.0,720.6574295000173,,,,,,,,,720.6439677000744,720.7577792000957,721.5583403999917,721.5424367000815,721.5424817000749,721.5583403999917,721.5583403999917,721.5583403999917,726.544311500038,726.6984568000771,left,0.0,19.1437212000601,,,,,,,,,,,,,,,,,,,,,,,,,,,,,,,sub-096,1.0,random_dot,59.66263168387997,
left,left,accuracy,,,,,0.0,1.0,1.0,0.0,14.0,1.0,29.0,0.0,726.7112303000176,,,,,,,,,726.7003709999844,727.9131375000579,728.7124765000772,728.6976714000339,728.6977099000942,728.7124765000772,728.7124765000772,728.7124765000772,,732.751511599985,right,0.0,18.03924419998657,,,,,,,,,,,,,,,,,,,,,,,,,,,,,,,sub-096,1.0,random_dot,59.66263168387997,
left,left,accuracy,,,,,0.0,1.0,1.0,0.0,15.0,0.0,30.0,0.0,732.7652997000841,,,,,,,,,732.7533177000005,733.566334500094,734.3663098000688,734.3513575000688,734.3513896000804,734.3663098000688,734.3663098000688,734.3663098000688,739.3540251000086,739.6894262999995,left,1.0,19.316518199979328,,,,,,,,,,,,,,,,,,,,,,,,,,,,,,,sub-096,1.0,random_dot,59.66263168387997,
right,right,accuracy,,,,,0.0,1.0,1.0,0.0,15.0,1.0,31.0,1.0,739.7043035000097,,,,,,,,,739.6913892000448,740.9044566000812,741.7057591000339,741.6900360999862,741.6900743000442,741.7057591000339,741.7057591000339,741.7057591000339,746.6917611000827,748.361949400045,right,1.0,20.646536499960348,,,,,,,,,,,,,,,,,,,,,,,,,,,,,,,sub-096,1.0,random_dot,59.66263168387997,
right,right,accuracy,,,,,0.0,1.0,1.0,0.0,16.0,0.0,32.0,1.0,748.3766794000985,,,,,,,,,748.3636066000909,748.4765097000636,749.2767229999881,749.2617036000593,749.2617398999864,749.2767229999881,749.2767229999881,749.2767229999881,754.263540700078,755.0323764000786,right,1.0,19.756397400051355,,,,,,,,,,,,,,,,,,,,,,,,,,,,,,,sub-096,1.0,random_dot,59.66263168387997,
left,left,accuracy,,,,,0.0,1.0,1.0,0.0,16.0,1.0,33.0,0.0,755.0475268000737,,,,,,,,,755.0341794000706,755.3972276999848,756.1977316000266,756.1818435000023,756.18185980001,756.1977316000266,756.1977316000266,756.1977316000266,,760.069796100026,left,1.0,17.865020800032653,,,,,,,,,,,,,,,,,,,,,,,,,,,,,,,sub-096,1.0,random_dot,59.66263168387997,
left,left,accuracy,,,,,0.0,1.0,1.0,0.0,17.0,0.0,34.0,0.0,760.0845071000513,,,,,,,,,760.0715059000067,760.886273900047,761.6858102000551,761.6701540000504,761.6701875000726,761.6858102000551,761.6858102000551,761.6858102000551,766.6724640000612,766.9738828000845,left,1.0,19.278008399996907,,,,,,,,,,,,,,,,,,,,,,,,,,,,,,,sub-096,1.0,random_dot,59.66263168387997,
right,right,accuracy,,,,,0.0,1.0,1.0,0.0,17.0,1.0,35.0,1.0,766.9892875000369,,,,,,,,,766.975044400082,767.0895882000914,767.889583399985,767.8747253000038,767.8747659000801,767.889583399985,767.889583399985,767.889583399985,,771.3272747000447,left,0.0,17.433250000001863,,,,,,,,,,,,,,,,,,,,,,,,,,,,,,,sub-096,1.0,random_dot,59.66263168387997,
left,left,accuracy,,,,,0.0,1.0,1.0,0.0,18.0,0.0,36.0,0.0,771.3426326999906,,,,,,,,,771.32910610002,772.1427884000586,772.9426378000062,772.9269662000006,772.9269920000806,772.9426378000062,772.9426378000062,772.9426378000062,777.9305550000863,777.9319218000164,right,0.0,18.990101099945605,,,,,,,,,,,,,,,,,,,,,,,,,,,,,,,sub-096,1.0,random_dot,59.66263168387997,
right,right,accuracy,,,,,0.0,1.0,1.0,0.0,18.0,1.0,37.0,1.0,777.9464582999935,,,,,,,,,777.9335753000341,778.0474855999928,778.8475222000852,778.8316661000717,778.8317174999975,778.8475222000852,778.8475222000852,778.8475222000852,783.8345576000866,784.5527632000158,right,1.0,19.69533799996134,,,,,,,,,,,,,,,,,,,,,,,,,,,,,,,sub-096,1.0,random_dot,59.66263168387997,
left,left,accuracy,,,,,0.0,1.0,1.0,0.0,19.0,0.0,38.0,0.0,784.568092700094,,,,,,,,,784.5545637999894,784.9180221999995,785.7186341000488,785.7031127000228,785.7031518000877,785.7186341000488,785.7186341000488,785.7186341000488,,789.4895629000384,right,0.0,17.774208799935877,,,,,,,,,,,,,,,,,,,,,,,,,,,,,,,sub-096,1.0,random_dot,59.66263168387997,
right,right,accuracy,,,,,0.0,1.0,1.0,0.0,19.0,1.0,39.0,1.0,789.5044560000533,,,,,,,,,789.4913696000585,789.8546525000129,790.6558375000022,790.6397095000139,790.6397484000772,790.6558375000022,790.6558375000022,790.6558375000022,,793.8093333999859,right,1.0,17.15696890000254,,,,,,,,,,,,,,,,,,,,,,,,,,,,,,,sub-096,1.0,random_dot,59.66263168387997,
left,left,accuracy,,,,,0.0,1.0,1.0,0.0,20.0,0.0,40.0,0.0,793.8245017000008,,,,,,,,,793.8108175999951,794.6244523000205,795.424789300072,795.4096392000793,795.4096854000818,795.424789300072,795.424789300072,795.424789300072,,799.8476168999914,right,0.0,18.418786599999294,,,,,,,,,,,,,,,,,,,,,,,,,,,,,,,sub-096,1.0,random_dot,59.66263168387997,
right,right,accuracy,,,,,0.0,1.0,1.0,0.0,20.0,1.0,41.0,1.0,799.8623255999992,,,,,,,,,799.8494179000845,800.6625119000673,801.4625345000532,801.4469301000936,801.4469856000505,801.4625345000532,801.4625345000532,801.4625345000532,806.4496011000592,806.4682608000003,left,0.0,19.000457200105306,,,,,,,,,,,,,,,,,,,,,,,,,,,,,,,sub-096,1.0,random_dot,59.66263168387997,
left,left,accuracy,,,,,0.0,1.0,1.0,0.0,21.0,0.0,42.0,0.0,806.4826106000692,,,,,,,,,806.4703554000007,806.832817699993,807.6333275000798,807.6207079000305,807.6207509000087,807.6333275000798,807.6333275000798,807.6333275000798,,810.6878637000918,right,0.0,17.049375700065866,,,,,,,,,,,,,,,,,,,,,,,,,,,,,,,sub-096,1.0,random_dot,59.66263168387997,
right,right,accuracy,,,,,0.0,1.0,1.0,0.0,21.0,1.0,43.0,1.0,810.7019889000803,,,,,,,,,810.6896742000245,811.9035756000085,812.7040324000409,812.6881551000988,812.6881899000145,812.7040324000409,812.7040324000409,812.7040324000409,,817.1083926000865,left,0.0,18.39912539999932,,,,,,,,,,,,,,,,,,,,,,,,,,,,,,,sub-096,1.0,random_dot,59.66263168387997,
left,left,accuracy,,,,,0.0,1.0,1.0,0.0,22.0,0.0,44.0,0.0,817.1237196000293,,,,,,,,,817.1101291000377,817.4745166000212,818.2746017000172,818.2585564000765,818.2585903999861,818.2746017000172,818.2746017000172,818.2746017000172,823.2610601000488,824.8471766000148,right,0.0,20.568723800010048,,,,,,,,,,,,,,,,,,,,,,,,,,,,,,,sub-096,1.0,random_dot,59.66263168387997,
right,right,accuracy,,,,,0.0,1.0,1.0,0.0,22.0,1.0,45.0,1.0,824.8622067000251,,,,,,,,,824.8489863000577,824.9621174000204,825.7625871000346,825.7467422999907,825.7467749000061,825.7625871000346,825.7625871000346,825.7625871000346,830.7495043000672,831.3182775999885,left,0.0,19.560120400041345,,,,,,,,,,,,,,,,,,,,,,,,,,,,,,,sub-096,1.0,random_dot,59.66263168387997,
right,right,accuracy,,,,,0.0,1.0,1.0,0.0,23.0,0.0,46.0,1.0,831.3330884000752,,,,,,,,,831.3200514999917,832.1335047000321,832.9345282000722,832.9183780000312,832.9184161000885,832.9345282000722,832.9345282000722,832.9345282000722,,836.4891092000762,left,0.0,17.55820080009289,,,,,,,,,,,,,,,,,,,,,,,,,,,,,,,sub-096,1.0,random_dot,59.66263168387997,
left,left,accuracy,,,,,0.0,1.0,1.0,0.0,23.0,1.0,47.0,0.0,836.5032073000912,,,,,,,,,836.4909542000387,837.7039936000947,838.5053644999862,838.4893652000464,838.4894061000086,838.5053644999862,838.5053644999862,838.5053644999862,,840.6089058000362,left,1.0,16.107489500078373,,,,,,,,,,,,,,,,,,,,,,,,,,,,,,,sub-096,1.0,random_dot,59.66263168387997,
left,left,accuracy,,,,,0.0,1.0,1.0,0.0,24.0,0.0,48.0,0.0,840.6226573000895,,,,,,,,,840.6107888000552,840.9732022000244,841.7739318000386,841.757883500075,841.7579112000531,841.7739318000386,841.7739318000386,841.7739318000386,846.760987100075,847.3116709000897,left,1.0,19.53889719990548,,,,,,,,,,,,,,,,,,,,,,,,,,,,,,,sub-096,1.0,random_dot,59.66263168387997,
right,right,accuracy,,,,,0.0,1.0,1.0,0.0,24.0,1.0,49.0,1.0,847.3275664000539,,,,,,,,,847.3129428999964,848.5122233000584,849.3122112000128,849.2961240999866,849.2961465000408,849.3122112000128,849.3122112000128,849.3122112000128,,854.2343641000334,right,1.0,18.92005670000799,,,,,,,,,,,,,,,,,,,,,,,,,,,,,,,sub-096,1.0,random_dot,59.66263168387997,
right,right,accuracy,,,,,0.0,1.0,1.0,0.0,25.0,0.0,50.0,1.0,854.249504400068,,,,,,,,,854.236170200049,855.4500968999928,856.2506093999837,856.2346322000958,856.2346736000618,856.2506093999837,856.2506093999837,856.2506093999837,,860.2705402000574,right,1.0,18.022313800058328,,,,,,,,,,,,,,,,,,,,,,,,,,,,,,,sub-096,1.0,random_dot,59.66263168387997,
left,left,accuracy,,,,,0.0,1.0,1.0,0.0,25.0,1.0,51.0,0.0,860.2861779000377,,,,,,,,,860.2715832000831,861.4701887000119,862.2706988999853,862.2562066999963,862.2562738000415,862.2706988999853,862.2706988999853,862.2706988999853,,866.909228600096,left,1.0,18.632360900053754,,,,,,,,,,,,,,,,,,,,,,,,,,,,,,,sub-096,1.0,random_dot,59.66263168387997,
left,left,accuracy,,,,,0.0,1.0,1.0,0.0,26.0,0.0,52.0,0.0,866.9246287000133,,,,,,,,,866.9111328000436,867.2745933000697,868.0746020000661,868.0594687000848,868.0595072000287,868.0746020000661,868.0746020000661,868.0746020000661,,872.6624722999986,right,0.0,18.57828560005873,,,,,,,,,,,,,,,,,,,,,,,,,,,,,,,sub-096,1.0,random_dot,59.66263168387997,
right,right,accuracy,,,,,0.0,1.0,1.0,0.0,26.0,1.0,53.0,1.0,872.6782248000382,,,,,,,,,872.6641572000226,872.7784131000517,873.5789269000525,873.5627867000876,873.5628162000794,873.5789269000525,873.5789269000525,873.5789269000525,878.565248100087,878.7519018000457,right,1.0,19.164677300024778,,,,,,,,,,,,,,,,,,,,,,,,,,,,,,,sub-096,1.0,random_dot,59.66263168387997,
right,right,accuracy,,,,,0.0,1.0,1.0,0.0,27.0,0.0,54.0,1.0,878.7655635999981,,,,,,,,,878.7538206999889,879.1164107000222,879.915933500044,879.8995092000114,879.8995311000617,879.915933500044,879.915933500044,879.915933500044,,884.1043835000601,right,1.0,18.18652430002112,,,,,,,,,,,,,,,,,,,,,,,,,,,,,,,sub-096,1.0,random_dot,59.66263168387997,
left,left,accuracy,,,,,0.0,1.0,1.0,0.0,27.0,1.0,55.0,0.0,884.1199299000436,,,,,,,,,884.1062481000554,884.2194932000712,885.0206281000283,885.0044342000037,885.0044717000565,885.0206281000283,885.0206281000283,885.0206281000283,,889.5423416000558,left,1.0,18.522528400062583,,,,,,,,,,,,,,,,,,,,,,,,,,,,,,,sub-096,1.0,random_dot,59.66263168387997,
right,right,accuracy,,,,,0.0,1.0,1.0,0.0,28.0,0.0,56.0,1.0,889.5567937000887,,,,,,,,,889.5440062000416,889.9069549000124,890.706807599985,890.6912668000441,890.6912997000618,890.706807599985,890.706807599985,890.706807599985,,894.0284025000874,right,1.0,17.325969800003804,,,,,,,,,,,,,,,,,,,,,,,,,,,,,,,sub-096,1.0,random_dot,59.66263168387997,
left,left,accuracy,,,,,0.0,1.0,1.0,0.0,28.0,1.0,57.0,0.0,894.0432612000732,,,,,,,,,894.0301143000834,894.8432721000863,895.6430412000045,895.6282071000896,895.628240799997,895.6430412000045,895.6430412000045,895.6430412000045,,899.398384100059,left,1.0,17.759271100047044,,,,,,,,,,,,,,,,,,,,,,,,,,,,,,,sub-096,1.0,random_dot,59.66263168387997,
right,right,accuracy,,,,,0.0,1.0,1.0,0.0,29.0,0.0,58.0,1.0,899.4131261000875,,,,,,,,,899.4001046000049,899.5131143000908,900.3136331000132,900.2989111000206,900.2989526999881,900.3136331000132,900.3136331000132,900.3136331000132,,905.0188523000106,right,1.0,18.70918610005174,,,,,,,,,,,,,,,,,,,,,,,,,,,,,,,sub-096,1.0,random_dot,59.66263168387997,
left,left,accuracy,,,,,0.0,1.0,1.0,0.0,29.0,1.0,59.0,0.0,905.0342230000532,,,,,,,,,905.0206076999892,905.3838989000068,906.184350399999,906.1688671000302,906.1688954000128,906.184350399999,906.184350399999,906.184350399999,911.171247099992,911.8248030000832,right,0.0,19.63898579997476,,,,,,,,,,,,,,,,,,,,,,,,,,,,,,,sub-096,1.0,random_dot,59.66263168387997,
,,accuracy,,,,,0.0,1.0,1.0,0.0,,,,,,,,,,,,,,,,,,,,,,,,,,,,,,,,,,,,,,,,,,,,,,,,,,,,,,,,,sub-096,1.0,random_dot,59.66263168387997,
,,,,,,,,,,,,,,,,,,,,,,,,,,,,,,,,,,,,,,,,,,,,,,,,,,,,,,,,,,,,,,,911.8260491000256,911.837924499996,916.8419835000532,916.8261038000928,sub-096,,,,
