direction,corrAns,randomInstr,practice_trials.thisRepN,practice_trials.thisTrialN,practice_trials.thisN,practice_trials.thisIndex,instr_trials.thisRepN,instr_trials.thisTrialN,instr_trials.thisN,instr_trials.thisIndex,test_trials.thisRepN,test_trials.thisTrialN,test_trials.thisN,test_trials.thisIndex,thisRow.t,notes,general_instruction.started,textGeneralInstr.started,respGeneralInstr.started,general_instruction.stopped,respGeneralInstr.keys,respGeneralInstr.rt,respGeneralInstr.duration,ITI.started,fixcross.started,fixcross.stopped,ITI.stopped,dots.started,backgroundDots.started,stimulusDots.started,respDots.started,stimulusDots.stopped,dots.stopped,respDots.keys,respDots.corr,respDots.rt,respDots.duration,feedback.started,textFeedback.started,feedback.stopped,textFeedback.stopped,info.started,textInfo.started,keyRespInfo.started,info.stopped,keyRespInfo.keys,keyRespInfo.rt,keyRespInfo.duration,test_instruction.started,textTestInstr.started,respTestInstr.started,test_instruction.stopped,respTestInstr.keys,respTestInstr.rt,respTestInstr.duration,random_instruction.started,textRandomInstr.started,respRandomInstr.started,random_instruction.stopped,respRandomInstr.keys,respRandomInstr.rt,respRandomInstr.duration,goodbye.started,textGoodbye.started,goodbye.stopped,participant,session,expName,frameRate,Unnamed: 73
,,,,,,,,,,,,,,,,,0.0084843999939039,0.0158198999997694,0.0158198999997694,51.57714099998702,space,123.38691250002012,,,,,,,,,,,,,,,,,,,,,,,,,,,,,,,,,,,,,,,,,,,,sub-237,1.0,random_dot,99.45261281322192,
left,left,,0.0,0.0,0.0,0.0,,,,,,,,,51.61635789999855,,,,,,,,,51.60683860001154,51.93283820000943,52.76913560001413,52.735102400009055,52.735195299988845,52.76913560001413,52.76913560001413,52.76913560001413,57.73829720000504,70.37332019998576,right,0.0,89.43370470000082,,70.37676459999057,70.41245830000844,70.87703430000693,,,,,,,,,,,,,,,,,,,,,,,,,,sub-237,1.0,random_dot,99.45261281322192,
right,right,,0.0,1.0,1.0,1.0,,,,,,,,,70.8851721000101,,,,,,,,,70.8782566000009,70.97711559999152,71.78468270000303,71.77157049998641,71.77162779998616,71.78468270000303,71.78468270000303,71.78468270000303,76.77401699998882,81.0827142999915,right,1.0,81.12661970002227,,81.08363790001022,81.10029649999342,81.59224279999034,,,,,,,,,,,,,,,,,,,,,,,,,,sub-237,1.0,random_dot,99.45261281322192,
right,right,,1.0,0.0,2.0,1.0,,,,,,,,,81.59816839999985,,,,,,,,,81.59336239998811,81.9340535000083,82.73732769998605,82.72522860000026,82.72528479999164,82.73732769998605,82.73732769998605,82.73732769998605,,86.17347060001339,left,0.0,75.25861940000323,,86.17591819999507,86.19452550000278,86.68309090001276,,,,,,,,,,,,,,,,,,,,,,,,,,sub-237,1.0,random_dot,99.45261281322192,
left,left,,1.0,1.0,3.0,0.0,,,,,,,,,86.68935979998787,,,,,,,,,86.6841456000111,87.03133580001304,87.83656789999804,87.82396690000314,87.82404239999596,87.83656789999804,87.83656789999804,87.83656789999804,92.83272629999556,93.83227849999092,left,1.0,77.81923590000952,,93.83384499998648,93.85084639998968,94.33753839999554,,,,,,,,,,,,,,,,,,,,,,,,,,sub-237,1.0,random_dot,99.45261281322192,
right,right,,2.0,0.0,4.0,1.0,,,,,,,,,94.34566419999464,,,,,,,,,94.3386438000016,95.53677659999812,96.34311759998673,96.33007210001232,96.33015620001242,96.34311759998673,96.34311759998673,96.34311759998673,101.33677309998892,102.2635350000055,left,0.0,77.74718229999417,,102.26548810000531,102.28215509999428,102.76855629999773,,,,,,,,,,,,,,,,,,,,,,,,,,sub-237,1.0,random_dot,99.45261281322192,
left,left,,2.0,1.0,5.0,0.0,,,,,,,,,102.77662339998642,,,,,,,,,102.7698199999868,102.87231480001356,103.68044809999992,103.66950620000716,103.66956099998788,103.68044809999992,103.68044809999992,103.68044809999992,108.67956570000388,109.88549049998984,right,0.0,78.03022590000182,,109.88685670000268,109.89277020000736,110.38417669999762,110.39116150001064,,,,,,,,,,,,,,,,,,,,,,,,,sub-237,1.0,random_dot,99.45261281322192,
left,left,,3.0,0.0,6.0,0.0,,,,,,,,,110.39116150001064,,,,,,,,,110.3852179000096,110.49260900000807,111.29555710000568,111.28411300000153,111.2841933000018,111.29555710000568,111.29555710000568,111.29555710000568,116.29781439999353,117.48861209998722,right,0.0,78.01399870001478,,117.49086920000263,117.49958609999156,117.9908804000006,117.99737830000232,,,,,,,,,,,,,,,,,,,,,,,,,sub-237,1.0,random_dot,99.45261281322192,
right,right,,3.0,1.0,7.0,1.0,,,,,,,,,117.99737830000232,,,,,,,,,117.9922144000011,118.0892712000059,118.89936469998791,118.88666819999344,118.88678780000193,118.89936469998791,118.89936469998791,118.89936469998791,,122.34475009999004,left,0.0,75.27131560002454,,122.34690189998946,122.3627092000097,122.84782490000362,,,,,,,,,,,,,,,,,,,,,,,,,,sub-237,1.0,random_dot,99.45261281322192,
right,right,,4.0,0.0,8.0,1.0,,,,,,,,,122.85416859999532,,,,,,,,,122.84903280000437,123.64585259999149,124.4543968999933,124.442878700007,124.44293509999989,124.4543968999933,124.4543968999933,124.4543968999933,,125.47227399999974,left,0.0,72.84344810000039,,125.4737092999858,125.47983419999946,125.97176029998808,125.97892510000383,,,,,,,,,,,,,,,,,,,,,,,,,sub-237,1.0,random_dot,99.45261281322192,
left,left,,4.0,1.0,9.0,0.0,,,,,,,,,125.97892510000383,,,,,,,,,125.9732740999898,126.07855649999692,126.88859749998664,126.87566789999256,126.87572479998926,126.88859749998664,126.88859749998664,126.88859749998664,,129.2742428999918,right,0.0,74.19899319999968,,129.2763566999929,129.28521920001367,129.7827793000033,,,,,,,,,,,,,,,,,,,,,,,,,,sub-237,1.0,random_dot,99.45261281322192,
left,left,,5.0,0.0,10.0,0.0,,,,,,,,,129.7890400000033,,,,,,,,,129.78394739999203,130.57766360000824,131.38430219999282,131.37092059999122,131.3709785999963,131.38430219999282,131.38430219999282,131.38430219999282,,134.8887764000101,right,0.0,75.31958260000101,,134.890605099994,134.90048599999864,135.39287869998952,,,,,,,,,,,,,,,,,,,,,,,,,,sub-237,1.0,random_dot,99.45261281322192,
right,right,,5.0,1.0,11.0,1.0,,,,,,,,,135.40095859998837,,,,,,,,,135.394189499988,135.5037098999892,136.30967769998824,136.29449080000632,136.29456989999744,136.30967769998824,136.30967769998824,136.30967769998824,,137.82343630000832,right,1.0,73.34058930000174,,137.8251797000121,137.84390770000755,138.3268347000121,,,,,,,,,,,,,,,,,,,,,,,,,,sub-237,1.0,random_dot,99.45261281322192,
right,right,,6.0,0.0,12.0,1.0,,,,,,,,,138.33293979999144,,,,,,,,,138.3281197999895,139.12520909999148,139.9297774999868,139.91770759999054,139.91776340000797,139.9297774999868,139.9297774999868,139.9297774999868,,142.29827070000465,left,0.0,74.19759799999883,,142.29910020000534,142.30893249998917,142.79995700001018,142.80693419999443,,,,,,,,,,,,,,,,,,,,,,,,,sub-237,1.0,random_dot,99.45261281322192,
left,left,,6.0,1.0,13.0,0.0,,,,,,,,,142.80693419999443,,,,,,,,,142.80108790000668,142.8991631999961,143.70795109999017,143.69530620001024,143.69536199999857,143.70795109999017,143.70795109999017,143.70795109999017,148.7068142000062,149.77940860000672,right,0.0,77.89069920001202,,149.7812358000083,149.7946729999967,150.28895570000168,,,,,,,,,,,,,,,,,,,,,,,,,,sub-237,1.0,random_dot,99.45261281322192,
right,right,,7.0,0.0,14.0,1.0,,,,,,,,,150.29629639998893,,,,,,,,,150.29078129999107,150.6307753000001,151.43453219998628,151.42294180000317,151.4229970999877,151.43453219998628,151.43453219998628,151.43453219998628,,154.67035329999635,left,0.0,75.06220439999015,,154.6719660999952,154.68294729999616,155.1791108000034,,,,,,,,,,,,,,,,,,,,,,,,,,sub-237,1.0,random_dot,99.45261281322192,
left,left,,7.0,1.0,15.0,0.0,,,,,,,,,155.18718889998854,,,,,,,,,155.18017899998813,155.27041190001182,156.09171370000695,156.07852020001155,156.0785782999883,156.09171370000695,156.09171370000695,156.09171370000695,161.0829883000115,161.66609330000938,right,0.0,77.40294679999352,,161.66832699999213,161.6793958999915,162.17510500000208,,,,,,,,,,,,,,,,,,,,,,,,,,sub-237,1.0,random_dot,99.45261281322192,
left,left,,8.0,0.0,16.0,0.0,,,,,,,,,162.1817490000103,,,,,,,,,162.1763823000074,163.36840649999797,164.18426609999733,164.16773139999714,164.16781270000502,164.18426609999733,164.18426609999733,164.18426609999733,169.17963659999077,171.06404060000204,left,1.0,78.7042986000015,,171.06577089999337,171.087646400003,171.56982420000713,,,,,,,,,,,,,,,,,,,,,,,,,,sub-237,1.0,random_dot,99.45261281322192,
right,right,,8.0,1.0,17.0,1.0,,,,,,,,,171.5770584999991,,,,,,,,,171.57093779998831,172.76561010000296,173.5715571999899,173.55928849999327,173.55943130000378,173.5715571999899,173.5715571999899,173.5715571999899,,177.7361014999915,left,0.0,75.99166440000408,,177.73836909999957,177.7584741000028,178.2469904999889,,,,,,,,,,,,,,,,,,,,,,,,,,sub-237,1.0,random_dot,99.45261281322192,
left,left,,9.0,0.0,18.0,0.0,,,,,,,,,178.25316359999124,,,,,,,,,178.2481165000063,178.5890339000034,179.39425059998757,179.382237599988,179.3822957999946,179.39425059998757,179.39425059998757,179.39425059998757,,181.88938889998823,right,0.0,74.31371950003086,,181.89097909998964,181.90075729999808,182.3965029999963,,,,,,,,,,,,,,,,,,,,,,,,,,sub-237,1.0,random_dot,99.45261281322192,
right,right,,9.0,1.0,19.0,1.0,,,,,,,,,182.40456910000648,,,,,,,,,182.39762939998764,182.74671199999284,183.5509367999912,183.5394563000009,183.5395117999869,183.5509367999912,183.5509367999912,183.5509367999912,,184.6649163000111,right,1.0,72.93000940000638,,184.66827890000425,184.69307000000845,185.17019209999123,,,,,,,,,,,,,,,,,,,,,,,,,,sub-237,1.0,random_dot,99.45261281322192,
,,,,,,,,,,,,,,,,,,,,,,,,,,,,,,,,,,,,,,,,,,185.1703709999856,185.17926999999327,185.17926999999327,192.83307049999712,space,79.47778080002172,,,,,,,,,,,,,,,,,,,sub-237,1.0,random_dot,99.45261281322192,
,,,,,,,,,,,,,,,,,,,,,,,,,,,,,,,,,,,,,,,,,,,,,,,,,192.833206100011,192.848257900012,192.848257900012,198.54834599999597,space,77.5218615999911,,,,,,,,,,,,sub-237,1.0,random_dot,99.45261281322192,
right,right,accuracy,,,,,0.0,0.0,0.0,0.0,0.0,0.0,0.0,1.0,204.014076499996,,,,,,,,,204.0060078999959,204.08992950001263,204.89463429999887,204.88317670000836,204.88325809998787,204.89463429999887,204.89463429999887,204.89463429999887,209.8883448000124,210.1624225999985,right,1.0,77.0938910000259,,,,,,,,,,,,,,,,,,,,198.56033609999577,198.61053999999424,198.61053999999424,203.98389470000984,space,77.20313130001887,,,,,sub-237,1.0,random_dot,99.45261281322192,
left,left,accuracy,,,,,0.0,0.0,0.0,0.0,0.0,1.0,1.0,0.0,210.1766714999976,,,,,,,,,210.16647629998624,210.9634352999856,211.77636620000703,211.76135399998748,211.7614576999913,211.77636620000703,211.77636620000703,211.77636620000703,,215.72090710001063,right,0.0,75.77313409998897,,,,,,,,,,,,,,,,,,,,,,,,,,,,,,sub-237,1.0,random_dot,99.45261281322192,
right,right,accuracy,,,,,0.0,0.0,0.0,0.0,1.0,0.0,2.0,1.0,215.7329494000005,,,,,,,,,215.72403879999183,215.8204602999904,216.62342089999584,216.61180189999868,216.61186020000605,216.62342089999584,216.62342089999584,216.62342089999584,221.61618320000707,223.89445059999707,left,0.0,79.09517370001413,,,,,,,,,,,,,,,,,,,,,,,,,,,,,,sub-237,1.0,random_dot,99.45261281322192,
left,left,accuracy,,,,,0.0,0.0,0.0,0.0,1.0,1.0,3.0,0.0,223.90432060000603,,,,,,,,,223.8973960999865,224.70267580001385,225.5209702999855,225.5075555999938,225.50762610000675,225.5209702999855,225.5209702999855,225.5209702999855,230.5147398000117,230.8204646999948,left,1.0,77.12648590002209,,,,,,,,,,,,,,,,,,,,,,,,,,,,,,sub-237,1.0,random_dot,99.45261281322192,
left,left,accuracy,,,,,0.0,0.0,0.0,0.0,2.0,0.0,4.0,0.0,230.8382833999931,,,,,,,,,230.824681099999,231.63798880000832,232.4414917000104,232.43307609998735,232.43310510000447,232.4414917000104,232.4414917000104,232.4414917000104,,235.9096045999904,right,0.0,75.29328290000558,,,,,,,,,,,,,,,,,,,,,,,,,,,,,,sub-237,1.0,random_dot,99.45261281322192,
right,right,accuracy,,,,,0.0,0.0,0.0,0.0,2.0,1.0,5.0,1.0,235.9212064000021,,,,,,,,,235.91276390000712,236.01483110000845,236.8215830000117,236.8089428000094,236.80900139998997,236.8215830000117,236.8215830000117,236.8215830000117,,240.33016330000828,right,1.0,75.33044180000434,,,,,,,,,,,,,,,,,,,,,,,,,,,,,,sub-237,1.0,random_dot,99.45261281322192,
right,right,accuracy,,,,,0.0,0.0,0.0,0.0,3.0,0.0,6.0,1.0,240.340548600012,,,,,,,,,240.33325339999283,241.52979249999044,242.3383892000129,242.32555670000147,242.32566559998668,242.3383892000129,242.3383892000129,242.3383892000129,247.3334324999887,248.6491495000082,left,0.0,78.13800790000823,,,,,,,,,,,,,,,,,,,,,,,,,,,,,,sub-237,1.0,random_dot,99.45261281322192,
left,left,accuracy,,,,,0.0,0.0,0.0,0.0,3.0,1.0,7.0,0.0,248.6583790000004,,,,,,,,,248.65233690000605,249.00556089999736,249.81509439999357,249.80397229999653,249.80402710000635,249.81509439999357,249.81509439999357,249.81509439999357,254.81478600000264,255.8740921000135,left,1.0,77.87914230002207,,,,,,,,,,,,,,,,,,,,,,,,,,,,,,sub-237,1.0,random_dot,99.45261281322192,
right,right,accuracy,,,,,0.0,0.0,0.0,0.0,4.0,0.0,8.0,1.0,255.88500400001067,,,,,,,,,255.87775069999043,256.22617300000275,257.0325426000054,257.01867089999723,257.01874900000985,257.0325426000054,257.0325426000054,257.0325426000054,262.0277059999935,263.08781160000945,left,0.0,77.87990190001437,,,,,,,,,,,,,,,,,,,,,,,,,,,,,,sub-237,1.0,random_dot,99.45261281322192,
left,left,accuracy,,,,,0.0,0.0,0.0,0.0,4.0,1.0,9.0,0.0,263.09415920000174,,,,,,,,,263.0900493999943,264.2908039999893,265.0950131000136,265.08356070000445,265.0836475999968,265.0950131000136,265.0950131000136,265.0950131000136,270.0817999999854,271.04073010000866,right,0.0,77.76131750000059,,,,,,,,,,,,,,,,,,,,,,,,,,,,,,sub-237,1.0,random_dot,99.45261281322192,
left,left,accuracy,,,,,0.0,0.0,0.0,0.0,5.0,0.0,10.0,0.0,271.0510712999967,,,,,,,,,271.0447778000089,272.2463713999896,273.0532894000062,273.0417581000074,273.0418132999912,273.0532894000062,273.0532894000062,273.0532894000062,,277.8598355999857,right,0.0,76.62738170000375,,,,,,,,,,,,,,,,,,,,,,,,,,,,,,sub-237,1.0,random_dot,99.45261281322192,
right,right,accuracy,,,,,0.0,0.0,0.0,0.0,5.0,1.0,11.0,1.0,277.8701253999898,,,,,,,,,277.8632962999982,277.9614661000087,278.7684395000106,278.7557504999859,278.75580720001017,278.7684395000106,278.7684395000106,278.7684395000106,,283.30985260001034,right,1.0,76.35787070001243,,,,,,,,,,,,,,,,,,,,,,,,,,,,,,sub-237,1.0,random_dot,99.45261281322192,
right,right,accuracy,,,,,0.0,0.0,0.0,0.0,6.0,0.0,12.0,1.0,283.32205049999175,,,,,,,,,283.3155943999882,283.6682373000076,284.4721729999874,284.4609967000142,284.46105220000027,284.4721729999874,284.4721729999874,284.4721729999874,289.4709264000121,289.93781319999835,left,0.0,77.28943850001087,,,,,,,,,,,,,,,,,,,,,,,,,,,,,,sub-237,1.0,random_dot,99.45261281322192,
left,left,accuracy,,,,,0.0,0.0,0.0,0.0,6.0,1.0,13.0,0.0,289.95489870000165,,,,,,,,,289.9422428999969,290.2914526000095,291.10387950000586,291.09019210000406,291.0902813000139,291.10387950000586,291.10387950000586,291.10387950000586,296.0995197999873,296.88494250000804,left,1.0,77.609949900012,,,,,,,,,,,,,,,,,,,,,,,,,,,,,,sub-237,1.0,random_dot,99.45261281322192,
left,left,accuracy,,,,,0.0,0.0,0.0,0.0,7.0,0.0,14.0,0.0,296.894327099988,,,,,,,,,296.88821509998525,297.2468339999905,298.05313740001293,298.0405707999889,298.04091919999337,298.05313740001293,298.05313740001293,298.05313740001293,303.05184269999154,303.87322519999,left,1.0,77.64924699999392,,,,,,,,,,,,,,,,,,,,,,,,,,,,,,sub-237,1.0,random_dot,99.45261281322192,
right,right,accuracy,,,,,0.0,0.0,0.0,0.0,7.0,1.0,15.0,1.0,303.88682829999016,,,,,,,,,303.8778713000065,304.679063699994,305.4848129999882,305.47254230000544,305.47260020000977,305.4848129999882,305.4848129999882,305.4848129999882,310.47193689999403,310.7718354999961,right,1.0,77.1096150999947,,,,,,,,,,,,,,,,,,,,,,,,,,,,,,sub-237,1.0,random_dot,99.45261281322192,
left,left,accuracy,,,,,0.0,0.0,0.0,0.0,8.0,0.0,16.0,0.0,310.78040560000227,,,,,,,,,310.77516930000274,311.12743839999894,311.94183200001135,311.9277126000088,311.927778799989,311.94183200001135,311.94183200001135,311.94183200001135,,316.1901654000103,right,0.0,76.07199130003573,,,,,,,,,,,,,,,,,,,,,,,,,,,,,,sub-237,1.0,random_dot,99.45261281322192,
right,right,accuracy,,,,,0.0,0.0,0.0,0.0,8.0,1.0,17.0,1.0,316.19884040000034,,,,,,,,,316.19351270000334,316.5424869999988,317.34707580000395,317.3359439999913,317.336000100011,317.34707580000395,317.34707580000395,317.34707580000395,322.3401703000127,323.1658133000019,right,1.0,77.6458267000271,,,,,,,,,,,,,,,,,,,,,,,,,,,,,,sub-237,1.0,random_dot,99.45261281322192,
left,left,accuracy,,,,,0.0,0.0,0.0,0.0,9.0,0.0,18.0,0.0,323.1793449000106,,,,,,,,,323.16932119999547,323.96542699998827,324.7858474999957,324.7619687000115,324.7620614999905,324.7858474999957,324.7858474999957,324.7858474999957,329.7731513000035,330.93904470000416,left,1.0,77.9822369000176,,,,,,,,,,,,,,,,,,,,,,,,,,,,,,sub-237,1.0,random_dot,99.45261281322192,
right,right,accuracy,,,,,0.0,0.0,0.0,0.0,9.0,1.0,19.0,1.0,330.95135409999057,,,,,,,,,330.94208400000934,332.1471589000139,332.95057980000274,332.9393927000056,332.9394498000038,332.95057980000274,332.95057980000274,332.95057980000274,337.9404404000088,339.20508600000176,right,1.0,78.08221900003264,,,,,,,,,,,,,,,,,,,,,,,,,,,,,,sub-237,1.0,random_dot,99.45261281322192,
right,right,accuracy,,,,,0.0,0.0,0.0,0.0,10.0,0.0,20.0,1.0,339.21202499998617,,,,,,,,,339.206572199997,339.5624828999862,340.36327649999293,340.35351939999964,340.3535728999996,340.36327649999293,340.36327649999293,340.36327649999293,345.3509519000072,346.7030467999866,right,1.0,78.16749120000168,,,,,,,,,,,,,,,,,,,,,,,,,,,,,,sub-237,1.0,random_dot,99.45261281322192,
left,left,accuracy,,,,,0.0,0.0,0.0,0.0,10.0,1.0,21.0,0.0,346.7109420000052,,,,,,,,,346.7056855999981,347.0600742000097,347.8613071999862,347.8512539000076,347.85129769999185,347.8613071999862,347.8613071999862,347.8613071999862,352.85779869998805,354.2104323999956,left,1.0,78.17729940000572,,,,,,,,,,,,,,,,,,,,,,,,,,,,,,sub-237,1.0,random_dot,99.45261281322192,
right,right,accuracy,,,,,0.0,0.0,0.0,0.0,11.0,0.0,22.0,1.0,354.22045019999496,,,,,,,,,354.2138539000007,355.0153831999924,355.8190772999951,355.80799979998847,355.8080543999968,355.8190772999951,355.8190772999951,355.8190772999951,360.8087085000007,362.9695966999861,right,1.0,78.97757940000156,,,,,,,,,,,,,,,,,,,,,,,,,,,,,,sub-237,1.0,random_dot,99.45261281322192,
left,left,accuracy,,,,,0.0,0.0,0.0,0.0,11.0,1.0,23.0,0.0,362.9816634999879,,,,,,,,,362.9726326999953,363.3209222999867,364.13278439998976,364.1204577999888,364.120513700007,364.13278439998976,364.13278439998976,364.13278439998976,369.1207102999906,369.93492040000274,left,1.0,77.6224222999881,,,,,,,,,,,,,,,,,,,,,,,,,,,,,,sub-237,1.0,random_dot,99.45261281322192,
right,right,accuracy,,,,,0.0,0.0,0.0,0.0,12.0,0.0,24.0,1.0,369.9458724000142,,,,,,,,,369.9390997999872,370.7358872999903,371.538211200008,371.5263967000064,371.5264543000085,371.538211200008,371.538211200008,371.538211200008,376.5300850000058,377.4250151999877,right,1.0,77.70613260002574,,,,,,,,,,,,,,,,,,,,,,,,,,,,,,sub-237,1.0,random_dot,99.45261281322192,
left,left,accuracy,,,,,0.0,0.0,0.0,0.0,12.0,1.0,25.0,0.0,377.4349571999919,,,,,,,,,377.42831920000026,378.2253871000139,379.0370025000011,379.019238000008,379.01933889999054,379.0370025000011,379.0370025000011,379.0370025000011,384.0192393999896,384.8472764999897,left,1.0,77.63233520000358,,,,,,,,,,,,,,,,,,,,,,,,,,,,,,sub-237,1.0,random_dot,99.45261281322192,
right,right,accuracy,,,,,0.0,0.0,0.0,0.0,13.0,0.0,26.0,1.0,384.8569166999951,,,,,,,,,384.8506723000028,385.2026476000028,386.0103686999937,385.9993406999856,385.999389900011,386.0103686999937,386.0103686999937,386.0103686999937,391.00642560000415,392.8319926999975,right,1.0,78.64586750001763,,,,,,,,,,,,,,,,,,,,,,,,,,,,,,sub-237,1.0,random_dot,99.45261281322192,
left,left,accuracy,,,,,0.0,0.0,0.0,0.0,13.0,1.0,27.0,0.0,392.8422042999882,,,,,,,,,392.8363488999894,393.6378376999928,394.4517271000077,394.4369282000116,394.4369952999986,394.4517271000077,394.4517271000077,394.4517271000077,399.4616501000128,400.63152880000416,right,0.0,77.99781070000608,,,,,,,,,,,,,,,,,,,,,,,,,,,,,,sub-237,1.0,random_dot,99.45261281322192,
left,left,accuracy,,,,,0.0,0.0,0.0,0.0,14.0,0.0,28.0,0.0,400.6403351000045,,,,,,,,,400.6347198000003,400.9858157999988,401.7899960000068,401.7786464999954,401.7787024999852,401.7899960000068,401.7899960000068,401.7899960000068,406.7849586000084,408.2115756999992,left,1.0,78.2498008000257,,,,,,,,,,,,,,,,,,,,,,,,,,,,,,sub-237,1.0,random_dot,99.45261281322192,
right,right,accuracy,,,,,0.0,0.0,0.0,0.0,14.0,1.0,29.0,1.0,408.2206827999908,,,,,,,,,408.21458020000136,408.5670678000024,409.3711269999913,409.360107799992,409.3601648999902,409.3711269999913,409.3711269999913,409.3711269999913,414.36732160000247,415.5178620000079,right,1.0,77.97640060001868,,,,,,,,,,,,,,,,,,,,,,,,,,,,,,sub-237,1.0,random_dot,99.45261281322192,
right,right,accuracy,,,,,0.0,0.0,0.0,0.0,15.0,0.0,30.0,1.0,415.5265619000129,,,,,,,,,415.5207746000088,415.87313319998793,416.6754338000028,416.665536799992,416.6655795999977,416.6754338000028,416.6754338000028,416.6754338000028,421.6675277999893,422.5073603999917,right,1.0,77.66158040001756,,,,,,,,,,,,,,,,,,,,,,,,,,,,,,sub-237,1.0,random_dot,99.45261281322192,
left,left,accuracy,,,,,0.0,0.0,0.0,0.0,15.0,1.0,31.0,0.0,422.5149986000033,,,,,,,,,422.5103265999933,422.86307670001406,423.6731151000131,423.6570947,423.6571534000104,423.6731151000131,423.6731151000131,423.6731151000131,428.66201510000974,429.62380170001416,left,1.0,77.771232900006,,,,,,,,,,,,,,,,,,,,,,,,,,,,,,sub-237,1.0,random_dot,99.45261281322192,
right,right,accuracy,,,,,0.0,0.0,0.0,0.0,16.0,0.0,32.0,1.0,429.6347381999949,,,,,,,,,429.6282572000055,430.8274823999964,431.6361940999923,431.6231218999892,431.623181700008,431.6361940999923,431.6361940999923,431.6361940999923,436.6310480000102,437.78436520000105,left,0.0,77.9776885000174,,,,,,,,,,,,,,,,,,,,,,,,,,,,,,sub-237,1.0,random_dot,99.45261281322192,
left,left,accuracy,,,,,0.0,0.0,0.0,0.0,16.0,1.0,33.0,0.0,437.795689999999,,,,,,,,,437.78735500000766,438.5844015000039,439.3983782999858,439.38208839998697,439.38216859998647,439.3983782999858,439.3983782999858,439.3983782999858,444.3884900000121,445.44220610000775,right,0.0,77.87275550002232,,,,,,,,,,,,,,,,,,,,,,,,,,,,,,sub-237,1.0,random_dot,99.45261281322192,
left,left,accuracy,,,,,0.0,0.0,0.0,0.0,17.0,0.0,34.0,0.0,445.4567934999941,,,,,,,,,445.4465096000058,446.2481998000003,447.0520079999988,447.0402081999928,447.0402629000018,447.0520079999988,447.0520079999988,447.0520079999988,452.0492017999932,452.8222332999867,left,1.0,77.59575070001301,,,,,,,,,,,,,,,,,,,,,,,,,,,,,,sub-237,1.0,random_dot,99.45261281322192,
right,right,accuracy,,,,,0.0,0.0,0.0,0.0,17.0,1.0,35.0,1.0,452.8381613999954,,,,,,,,,452.8251239999954,453.6307919000101,454.4373042999941,454.4251651999948,454.4252248000121,454.4373042999941,454.4373042999941,454.4373042999941,459.4302521999925,460.6233096999931,left,0.0,78.01318810001248,,,,,,,,,,,,,,,,,,,,,,,,,,,,,,sub-237,1.0,random_dot,99.45261281322192,
right,right,accuracy,,,,,0.0,0.0,0.0,0.0,18.0,0.0,36.0,1.0,460.6352618999954,,,,,,,,,460.6266836999857,460.7275195000111,461.53757750001387,461.5230264000129,461.523122100014,461.53757750001387,461.53757750001387,461.53757750001387,466.53108429998974,467.577466799994,right,1.0,77.86472440001671,,,,,,,,,,,,,,,,,,,,,,,,,,,,,,sub-237,1.0,random_dot,99.45261281322192,
left,left,accuracy,,,,,0.0,0.0,0.0,0.0,18.0,1.0,37.0,0.0,467.5886843999906,,,,,,,,,467.58031729998766,467.9370385000075,468.7442393999954,468.7311195000075,468.7311869999976,468.7442393999954,468.7442393999954,468.7442393999954,,473.64196479998645,left,1.0,76.71951490000356,,,,,,,,,,,,,,,,,,,,,,,,,,,,,,sub-237,1.0,random_dot,99.45261281322192,
right,right,accuracy,,,,,0.0,0.0,0.0,0.0,19.0,0.0,38.0,1.0,473.65063079999527,,,,,,,,,473.6453610000026,474.84860150000895,475.6510358999949,475.6398996000062,475.6399579999852,475.6510358999949,475.6510358999949,475.6510358999949,480.63896280000336,482.5367199000029,left,0.0,78.7123579000181,,,,,,,,,,,,,,,,,,,,,,,,,,,,,,sub-237,1.0,random_dot,99.45261281322192,
left,left,accuracy,,,,,0.0,0.0,0.0,0.0,19.0,1.0,39.0,0.0,482.5419257000031,,,,,,,,,482.5383256000059,483.7380781999964,484.5600067999912,484.5299294999859,484.52999869998894,484.5600067999912,484.5600067999912,484.5600067999912,489.5340259000077,490.4804099999892,right,0.0,77.74452939999173,,,,,,,,,,,,,,,,,,,,,,,,,,,,,,sub-237,1.0,random_dot,99.45261281322192,
left,left,accuracy,,,,,0.0,0.0,0.0,0.0,20.0,0.0,40.0,0.0,490.4861466999864,,,,,,,,,490.48216039998806,490.8328392000112,491.646590999997,491.6320979000011,491.6322022000095,491.646590999997,491.646590999997,491.646590999997,496.6410361999879,498.57881509998697,right,0.0,78.74939240003005,,,,,,,,,,,,,,,,,,,,,,,,,,,,,,sub-237,1.0,random_dot,99.45261281322192,
right,right,accuracy,,,,,0.0,0.0,0.0,0.0,20.0,1.0,41.0,1.0,498.5908919000067,,,,,,,,,498.58239850000245,499.3835730999999,500.18737770000007,500.17644599999767,500.1765012000105,500.18737770000007,500.18737770000007,500.18737770000007,505.17657099998905,506.23810539999977,left,0.0,77.87462260000757,,,,,,,,,,,,,,,,,,,,,,,,,,,,,,sub-237,1.0,random_dot,99.45261281322192,
left,left,accuracy,,,,,0.0,0.0,0.0,0.0,21.0,0.0,42.0,0.0,506.25300910000806,,,,,,,,,506.2417462999874,507.0395568000095,507.8467134000093,507.83405589999165,507.8341243999894,507.8467134000093,507.8467134000093,507.8467134000093,,511.0700240999868,left,1.0,75.0511960000149,,,,,,,,,,,,,,,,,,,,,,,,,,,,,,sub-237,1.0,random_dot,99.45261281322192,
right,right,accuracy,,,,,0.0,0.0,0.0,0.0,21.0,1.0,43.0,1.0,511.07766119999,,,,,,,,,511.0726262000098,512.271536699991,513.0836175000004,513.0657960000099,513.0658607000078,513.0836175000004,513.0836175000004,513.0836175000004,,517.7147605000064,right,1.0,76.45782119999058,,,,,,,,,,,,,,,,,,,,,,,,,,,,,,sub-237,1.0,random_dot,99.45261281322192,
right,right,accuracy,,,,,0.0,0.0,0.0,0.0,22.0,0.0,44.0,1.0,517.7247659999994,,,,,,,,,517.7179063000076,518.9208663000027,519.7247664000024,519.7116377000057,519.711721700005,519.7247664000024,519.7247664000024,519.7247664000024,524.7204509000003,525.5556724999915,right,1.0,77.65549030000693,,,,,,,,,,,,,,,,,,,,,,,,,,,,,,sub-237,1.0,random_dot,99.45261281322192,
left,left,accuracy,,,,,0.0,0.0,0.0,0.0,22.0,1.0,45.0,0.0,525.5722218999872,,,,,,,,,525.559382300009,526.762655700004,527.5726819999982,527.5584971999924,527.5585531000106,527.5726819999982,527.5726819999982,527.5726819999982,532.5614613000071,536.8763505000097,left,1.0,81.13022320001619,,,,,,,,,,,,,,,,,,,,,,,,,,,,,,sub-237,1.0,random_dot,99.45261281322192,
left,left,accuracy,,,,,0.0,0.0,0.0,0.0,23.0,0.0,46.0,0.0,536.8858000999899,,,,,,,,,536.8784188999853,536.9825649000122,537.7948488999973,537.7817620999995,537.7818741000083,537.7948488999973,537.7948488999973,537.7948488999973,,539.920580200007,right,0.0,73.93349150000722,,,,,,,,,,,,,,,,,,,,,,,,,,,,,,sub-237,1.0,random_dot,99.45261281322192,
right,right,accuracy,,,,,0.0,0.0,0.0,0.0,23.0,1.0,47.0,1.0,539.9317819999997,,,,,,,,,539.923438400001,540.2733260999958,541.0815318000095,541.0689952000102,541.0690777999989,541.0815318000095,541.0815318000095,541.0815318000095,,543.993940299988,right,1.0,74.73757690002094,,,,,,,,,,,,,,,,,,,,,,,,,,,,,,sub-237,1.0,random_dot,99.45261281322192,
right,right,accuracy,,,,,0.0,0.0,0.0,0.0,24.0,0.0,48.0,1.0,544.0093040000065,,,,,,,,,543.9977289999952,544.0975445999939,544.9033435999881,544.890310399991,544.8903811000055,544.9033435999881,544.9033435999881,544.9033435999881,549.8979076000105,550.367146900011,right,1.0,77.28822970000328,,,,,,,,,,,,,,,,,,,,,,,,,,,,,,sub-237,1.0,random_dot,99.45261281322192,
left,left,accuracy,,,,,0.0,0.0,0.0,0.0,24.0,1.0,49.0,0.0,550.3771579999884,,,,,,,,,550.3709021999966,551.1723899999924,551.9844080999901,551.970321700006,551.9703781999997,551.9844080999901,551.9844080999901,551.9844080999901,556.977375699993,557.3127282999922,right,0.0,77.14884050001274,,,,,,,,,,,,,,,,,,,,,,,,,,,,,,sub-237,1.0,random_dot,99.45261281322192,
right,right,accuracy,,,,,0.0,0.0,0.0,0.0,25.0,0.0,50.0,1.0,557.3229390000051,,,,,,,,,557.3161801999959,558.1171886000084,558.9278172999911,558.9150977999961,558.9151882999868,558.9278172999911,558.9278172999911,558.9278172999911,,562.1551133999892,left,0.0,75.04759940001532,,,,,,,,,,,,,,,,,,,,,,,,,,,,,,sub-237,1.0,random_dot,99.45261281322192,
left,left,accuracy,,,,,0.0,0.0,0.0,0.0,25.0,1.0,51.0,0.0,562.1648688999994,,,,,,,,,562.1595124999876,562.9572509000136,563.7613472999947,563.75051849999,563.7505743000074,563.7613472999947,563.7613472999947,563.7613472999947,,565.3386400000018,right,0.0,73.39756840001792,,,,,,,,,,,,,,,,,,,,,,,,,,,,,,sub-237,1.0,random_dot,99.45261281322192,
right,right,accuracy,,,,,0.0,0.0,0.0,0.0,26.0,0.0,52.0,1.0,565.3498681999918,,,,,,,,,565.3426121000084,565.443619800004,566.2534271999903,566.2414683999959,566.2415252999926,566.2534271999903,566.2534271999903,566.2534271999903,,571.097188899992,right,1.0,76.67266830001608,,,,,,,,,,,,,,,,,,,,,,,,,,,,,,sub-237,1.0,random_dot,99.45261281322192,
left,left,accuracy,,,,,0.0,0.0,0.0,0.0,26.0,1.0,53.0,0.0,571.1086648000055,,,,,,,,,571.1003013000009,571.446895000001,572.2545700999908,572.2433335999958,572.243392400007,572.2545700999908,572.2545700999908,572.2545700999908,,575.2529651999939,left,1.0,74.8190753000381,,,,,,,,,,,,,,,,,,,,,,,,,,,,,,sub-237,1.0,random_dot,99.45261281322192,
right,right,accuracy,,,,,0.0,0.0,0.0,0.0,27.0,0.0,54.0,1.0,575.260852300009,,,,,,,,,575.2558258000063,575.3540658999991,576.1590175000019,576.1469821000064,576.1470430000045,576.1590175000019,576.1590175000019,576.1590175000019,581.146538800007,581.2291666000092,left,0.0,76.89567940001143,,,,,,,,,,,,,,,,,,,,,,,,,,,,,,sub-237,1.0,random_dot,99.45261281322192,
left,left,accuracy,,,,,0.0,0.0,0.0,0.0,27.0,1.0,55.0,0.0,581.2400707000052,,,,,,,,,581.2330253999971,582.0380352000066,582.8374039999908,582.8279724000022,582.8280109000043,582.8374039999908,582.8374039999908,582.8374039999908,,585.994377199997,right,0.0,74.97241230000509,,,,,,,,,,,,,,,,,,,,,,,,,,,,,,sub-237,1.0,random_dot,99.45261281322192,
right,right,accuracy,,,,,0.0,0.0,0.0,0.0,28.0,0.0,56.0,1.0,586.0076862999995,,,,,,,,,585.9987390000024,587.2008397000027,588.023269199999,588.0094162999885,588.0095042999892,588.023269199999,588.023269199999,588.023269199999,,591.6057437999989,right,1.0,75.39776280001388,,,,,,,,,,,,,,,,,,,,,,,,,,,,,,sub-237,1.0,random_dot,99.45261281322192,
left,left,accuracy,,,,,0.0,0.0,0.0,0.0,28.0,1.0,57.0,0.0,591.6178658000135,,,,,,,,,591.6105106000032,592.8105969000026,593.6140507000091,593.6026693999884,593.6027298000117,593.6140507000091,593.6140507000091,593.6140507000091,598.6082249000028,599.0744200999907,right,0.0,77.27745380002307,,,,,,,,,,,,,,,,,,,,,,,,,,,,,,sub-237,1.0,random_dot,99.45261281322192,
right,right,accuracy,,,,,0.0,0.0,0.0,0.0,29.0,0.0,58.0,1.0,599.0844029999862,,,,,,,,,599.0777123000007,600.2824674999865,601.0946658999892,601.0808696000022,601.0809290999896,601.0946658999892,601.0946658999892,601.0946658999892,606.0844990999904,606.486853600014,left,0.0,77.2123403000005,,,,,,,,,,,,,,,,,,,,,,,,,,,,,,sub-237,1.0,random_dot,99.45261281322192,
left,left,accuracy,,,,,0.0,0.0,0.0,0.0,29.0,1.0,59.0,0.0,606.5020831000002,,,,,,,,,606.4909591999894,606.5871888000111,607.394320899999,607.3824163000099,607.3824730000051,607.394320899999,607.394320899999,607.394320899999,,610.997020699986,right,0.0,75.43103410000913,,,,,,,,,,,,,,,,,,,,,,,,,,,,,,sub-237,1.0,random_dot,99.45261281322192,
,,accuracy,,,,,0.0,0.0,0.0,0.0,,,,,,,,,,,,,,,,,,,,,,,,,,,,,,,,,,,,,,,,,,,,,,,,,,,,,,,,sub-237,1.0,random_dot,99.45261281322192,
left,left,speed,,,,,0.0,1.0,1.0,1.0,0.0,0.0,0.0,0.0,617.4663299999957,,,,,,,,,617.460794100014,618.6477811000077,619.456225700007,619.4433526000066,619.4434202999983,619.456225700007,619.456225700007,619.456225700007,,620.3999540999939,right,0.0,72.77304100000765,,,,,,,,,,,,,,,,,,,,611.0013638999953,611.0451402000035,611.0451402000035,617.4473302999977,space,78.23191520001274,,,,,sub-237,1.0,random_dot,99.45261281322192,
right,right,speed,,,,,0.0,1.0,1.0,1.0,0.0,1.0,1.0,1.0,620.4119040000078,,,,,,,,,620.404795200011,621.2081050999986,622.0171797999938,622.0060453999904,622.0061420999991,622.0171797999938,622.0171797999938,622.0171797999938,,624.7253642999858,left,0.0,74.53153190002195,,,,,,,,,,,,,,,,,,,,,,,,,,,,,,sub-237,1.0,random_dot,99.45261281322192,
left,left,speed,,,,,0.0,1.0,1.0,1.0,1.0,0.0,2.0,0.0,624.7398303000082,,,,,,,,,624.7282997999864,625.0820569999923,625.8906902000017,625.8763591999887,625.8764158000122,625.8906902000017,625.8906902000017,625.8906902000017,,628.5062793999969,right,0.0,74.44097680001869,,,,,,,,,,,,,,,,,,,,,,,,,,,,,,sub-237,1.0,random_dot,99.45261281322192,
right,right,speed,,,,,0.0,1.0,1.0,1.0,1.0,1.0,3.0,1.0,628.5119168999954,,,,,,,,,628.5080050000106,629.7059480999887,630.517911700008,630.5039987000055,630.5040849999932,630.517911700008,630.517911700008,630.517911700008,,634.3261518999934,right,1.0,75.62737080000807,,,,,,,,,,,,,,,,,,,,,,,,,,,,,,sub-237,1.0,random_dot,99.45261281322192,
right,right,speed,,,,,0.0,1.0,1.0,1.0,2.0,0.0,4.0,1.0,634.3368802999903,,,,,,,,,634.3294460999896,635.1301098999975,635.9373920999933,635.9243359999964,635.9244155999913,635.9373920999933,635.9373920999933,635.9373920999933,,637.5712407999963,right,1.0,73.45050390000688,,,,,,,,,,,,,,,,,,,,,,,,,,,,,,sub-237,1.0,random_dot,99.45261281322192,
left,left,speed,,,,,0.0,1.0,1.0,1.0,2.0,1.0,5.0,0.0,637.5799517999985,,,,,,,,,637.5742573000025,638.3800902999938,639.1920303000079,639.1789123000053,639.1789671999868,639.1920303000079,639.1920303000079,639.1920303000079,,642.0687009000103,right,0.0,74.70258930002456,,,,,,,,,,,,,,,,,,,,,,,,,,,,,,sub-237,1.0,random_dot,99.45261281322192,
left,left,speed,,,,,0.0,1.0,1.0,1.0,3.0,0.0,6.0,0.0,642.0820324000088,,,,,,,,,642.0719113000087,642.1711738999875,642.9739087999915,642.962190899998,642.962246799987,642.9739087999915,642.9739087999915,642.9739087999915,,644.362277999986,left,1.0,73.21524960000534,,,,,,,,,,,,,,,,,,,,,,,,,,,,,,sub-237,1.0,random_dot,99.45261281322192,
right,right,speed,,,,,0.0,1.0,1.0,1.0,3.0,1.0,7.0,1.0,644.378231300012,,,,,,,,,644.36558469999,644.7190705999965,645.5297557000013,645.5169266999874,645.5169825000048,645.5297557000013,645.5297557000013,645.5297557000013,,647.1592126000032,right,1.0,73.4584866000223,,,,,,,,,,,,,,,,,,,,,,,,,,,,,,sub-237,1.0,random_dot,99.45261281322192,
right,right,speed,,,,,0.0,1.0,1.0,1.0,4.0,0.0,8.0,1.0,647.1714311999967,,,,,,,,,647.1622175000084,647.2615016000054,648.0687097999908,648.0547272000113,648.054844600003,648.0687097999908,648.0687097999908,648.0687097999908,,649.7398999999859,left,0.0,73.49996000001556,,,,,,,,,,,,,,,,,,,,,,,,,,,,,,sub-237,1.0,random_dot,99.45261281322192,
left,left,speed,,,,,0.0,1.0,1.0,1.0,4.0,1.0,9.0,0.0,649.752841700014,,,,,,,,,649.7447390999878,649.8420044000086,650.6467051999934,650.6350044000137,650.6350604000036,650.6467051999934,650.6467051999934,650.6467051999934,,653.2749658999965,left,1.0,74.44685560002108,,,,,,,,,,,,,,,,,,,,,,,,,,,,,,sub-237,1.0,random_dot,99.45261281322192,
right,right,speed,,,,,0.0,1.0,1.0,1.0,5.0,0.0,10.0,1.0,653.2843624000088,,,,,,,,,653.278638799995,654.4834185999935,655.2909219999856,655.2789548999863,655.279048700002,655.2909219999856,655.2909219999856,655.2909219999856,,656.2729083999875,right,1.0,72.81094650001614,,,,,,,,,,,,,,,,,,,,,,,,,,,,,,sub-237,1.0,random_dot,99.45261281322192,
left,left,speed,,,,,0.0,1.0,1.0,1.0,5.0,1.0,11.0,0.0,656.2822900000028,,,,,,,,,656.2759254999983,657.4906290000072,658.2950004999875,658.283270999993,658.2833492000063,658.2950004999875,658.2950004999875,658.2950004999875,,659.9470894999977,right,0.0,73.48049600000377,,,,,,,,,,,,,,,,,,,,,,,,,,,,,,sub-237,1.0,random_dot,99.45261281322192,
right,right,speed,,,,,0.0,1.0,1.0,1.0,6.0,0.0,12.0,1.0,659.9572031999996,,,,,,,,,659.9507471999968,660.7471938999952,661.5541189000069,661.5405497000029,661.5406067000004,661.5541189000069,661.5541189000069,661.5541189000069,,663.9042528000136,left,0.0,74.16192320000846,,,,,,,,,,,,,,,,,,,,,,,,,,,,,,sub-237,1.0,random_dot,99.45261281322192,
left,left,speed,,,,,0.0,1.0,1.0,1.0,6.0,1.0,13.0,0.0,663.9134884999949,,,,,,,,,663.9075055999856,664.2544973999902,665.062211499986,665.0475933999987,665.0476517000061,665.062211499986,665.062211499986,665.062211499986,,666.9546575999993,left,1.0,73.72220760001801,,,,,,,,,,,,,,,,,,,,,,,,,,,,,,sub-237,1.0,random_dot,99.45261281322192,
left,left,speed,,,,,0.0,1.0,1.0,1.0,7.0,0.0,14.0,0.0,666.9639553999878,,,,,,,,,666.9580543999909,668.1626325999969,668.9661162999982,668.9546512000088,668.9547403999895,668.9661162999982,668.9661162999982,668.9661162999982,,670.7845787999977,right,0.0,73.64791440000408,,,,,,,,,,,,,,,,,,,,,,,,,,,,,,sub-237,1.0,random_dot,99.45261281322192,
right,right,speed,,,,,0.0,1.0,1.0,1.0,7.0,1.0,15.0,1.0,670.7953149999958,,,,,,,,,670.7882314999879,671.5858076000004,672.394716699986,672.3783028000034,672.3783952000085,672.394716699986,672.394716699986,672.394716699986,,674.4380789000134,right,1.0,73.87300930000492,,,,,,,,,,,,,,,,,,,,,,,,,,,,,,sub-237,1.0,random_dot,99.45261281322192,
right,right,speed,,,,,0.0,1.0,1.0,1.0,8.0,0.0,16.0,1.0,674.4493155000091,,,,,,,,,674.4412290999899,674.5447683999955,675.3480771000031,675.3364475000126,675.3365073000023,675.3480771000031,675.3480771000031,675.3480771000031,,678.0539623000077,right,1.0,74.52823520000675,,,,,,,,,,,,,,,,,,,,,,,,,,,,,,sub-237,1.0,random_dot,99.45261281322192,
left,left,speed,,,,,0.0,1.0,1.0,1.0,8.0,1.0,17.0,0.0,678.0622210000001,,,,,,,,,678.0571143999987,679.2592032999964,680.0738087999925,680.0579099000024,680.0579613999871,680.0738087999925,680.0738087999925,680.0738087999925,,682.4608764000004,left,1.0,74.214375200012,,,,,,,,,,,,,,,,,,,,,,,,,,,,,,sub-237,1.0,random_dot,99.45261281322192,
right,right,speed,,,,,0.0,1.0,1.0,1.0,9.0,0.0,18.0,1.0,682.4703728999884,,,,,,,,,682.4638668000116,682.816794399987,683.6217651999905,683.6077550000045,683.6078122000035,683.6217651999905,683.6217651999905,683.6217651999905,,684.4766683999915,right,1.0,72.67774890002329,,,,,,,,,,,,,,,,,,,,,,,,,,,,,,sub-237,1.0,random_dot,99.45261281322192,
left,left,speed,,,,,0.0,1.0,1.0,1.0,9.0,1.0,19.0,0.0,684.4849452000053,,,,,,,,,684.4796973000048,685.2818464000011,686.0863815000048,686.0725730000122,686.0726649000135,686.0863815000048,686.0863815000048,686.0863815000048,,687.4959664999915,right,0.0,73.22254180000164,,,,,,,,,,,,,,,,,,,,,,,,,,,,,,sub-237,1.0,random_dot,99.45261281322192,
right,right,speed,,,,,0.0,1.0,1.0,1.0,10.0,0.0,20.0,1.0,687.5059967999987,,,,,,,,,687.4994365999883,687.8479637000128,688.6537845999992,688.6408846999984,688.6409411999921,688.6537845999992,688.6537845999992,688.6537845999992,,691.2189620000136,left,0.0,74.39061120001134,,,,,,,,,,,,,,,,,,,,,,,,,,,,,,sub-237,1.0,random_dot,99.45261281322192,
left,left,speed,,,,,0.0,1.0,1.0,1.0,10.0,1.0,21.0,0.0,691.2354126000137,,,,,,,,,691.2228995999903,691.3299295000033,692.1442715000012,692.1311190999986,692.1311797999952,692.1442715000012,692.1442715000012,692.1442715000012,,694.056681099988,left,1.0,73.74213710002368,,,,,,,,,,,,,,,,,,,,,,,,,,,,,,sub-237,1.0,random_dot,99.45261281322192,
left,left,speed,,,,,0.0,1.0,1.0,1.0,11.0,0.0,22.0,0.0,694.0661851000041,,,,,,,,,694.0602191000071,694.4145750000025,695.2199734000023,695.2067137999984,695.2067692000128,695.2199734000023,695.2199734000023,695.2199734000023,,696.3002142999903,left,1.0,72.90522950000013,,,,,,,,,,,,,,,,,,,,,,,,,,,,,,sub-237,1.0,random_dot,99.45261281322192,
right,right,speed,,,,,0.0,1.0,1.0,1.0,11.0,1.0,23.0,1.0,696.314798700012,,,,,,,,,696.3043876999873,696.4156401999935,697.2272651999956,697.2138189999969,697.2138765999989,697.2272651999956,697.2272651999956,697.2272651999956,,698.8000652999908,right,1.0,73.4009575000091,,,,,,,,,,,,,,,,,,,,,,,,,,,,,,sub-237,1.0,random_dot,99.45261281322192,
left,left,speed,,,,,0.0,1.0,1.0,1.0,12.0,0.0,24.0,0.0,698.8103606000077,,,,,,,,,698.8032779000059,699.6030780999863,700.406986099988,700.3947401999903,700.394798399997,700.406986099988,700.406986099988,700.406986099988,,701.657334699994,left,1.0,73.08034860002226,,,,,,,,,,,,,,,,,,,,,,,,,,,,,,sub-237,1.0,random_dot,99.45261281322192,
right,right,speed,,,,,0.0,1.0,1.0,1.0,12.0,1.0,25.0,1.0,701.6681141000008,,,,,,,,,701.6603891999985,702.4621646000014,703.2724261000112,703.2533098999993,703.2533913000079,703.2724261000112,703.2724261000112,703.2724261000112,,706.129732500005,left,0.0,74.6802311000065,,,,,,,,,,,,,,,,,,,,,,,,,,,,,,sub-237,1.0,random_dot,99.45261281322192,
right,right,speed,,,,,0.0,1.0,1.0,1.0,13.0,0.0,26.0,1.0,706.1378231999988,,,,,,,,,706.1328669000068,706.2345780000032,707.041553899995,707.0286599000101,707.0287153999961,707.041553899995,707.041553899995,707.041553899995,,709.1675025000004,right,1.0,73.95334770000773,,,,,,,,,,,,,,,,,,,,,,,,,,,,,,sub-237,1.0,random_dot,99.45261281322192,
left,left,speed,,,,,0.0,1.0,1.0,1.0,13.0,1.0,27.0,0.0,709.1788220999879,,,,,,,,,709.1704686000012,709.2673336000007,710.0764298999857,710.0634260000079,710.0634785000002,710.0764298999857,710.0764298999857,710.0764298999857,,712.43232729999,right,0.0,74.17953650001436,,,,,,,,,,,,,,,,,,,,,,,,,,,,,,sub-237,1.0,random_dot,99.45261281322192,
left,left,speed,,,,,0.0,1.0,1.0,1.0,14.0,0.0,28.0,0.0,712.4464316999947,,,,,,,,,712.437771500001,713.2410286999948,714.0459703000088,714.0340132999991,714.0340727999865,714.0459703000088,714.0459703000088,714.0459703000088,,716.6672076999967,right,0.0,74.44788220000919,,,,,,,,,,,,,,,,,,,,,,,,,,,,,,sub-237,1.0,random_dot,99.45261281322192,
right,right,speed,,,,,0.0,1.0,1.0,1.0,14.0,1.0,29.0,1.0,716.6829280999955,,,,,,,,,716.6706190000114,716.7734904999961,717.5817069000041,717.5657296999998,717.5658771999879,717.5817069000041,717.5817069000041,717.5817069000041,,719.9710848999966,left,0.0,74.2103797000018,,,,,,,,,,,,,,,,,,,,,,,,,,,,,,sub-237,1.0,random_dot,99.45261281322192,
left,left,speed,,,,,0.0,1.0,1.0,1.0,15.0,0.0,30.0,0.0,719.9814849999966,,,,,,,,,719.9740908000094,720.7739904999908,721.5790827999881,721.5693950999994,721.5694365999952,721.5790827999881,721.5790827999881,721.5790827999881,,724.5333519999986,right,0.0,74.77590480001527,,,,,,,,,,,,,,,,,,,,,,,,,,,,,,sub-237,1.0,random_dot,99.45261281322192,
right,right,speed,,,,,0.0,1.0,1.0,1.0,15.0,1.0,31.0,1.0,724.5429396000109,,,,,,,,,724.5364494000096,725.3404333000071,726.1474966999958,726.1355172999902,726.1355756999983,726.1474966999958,726.1474966999958,726.1474966999958,,729.4773881000001,right,1.0,75.15136750001693,,,,,,,,,,,,,,,,,,,,,,,,,,,,,,sub-237,1.0,random_dot,99.45261281322192,
left,left,speed,,,,,0.0,1.0,1.0,1.0,16.0,0.0,32.0,0.0,729.4882401000068,,,,,,,,,729.4825681000075,730.685827600013,731.4917080999876,731.4769048999879,731.4769613000099,731.4917080999876,731.4917080999876,731.4917080999876,,733.1879302999878,right,0.0,73.51602969999658,,,,,,,,,,,,,,,,,,,,,,,,,,,,,,sub-237,1.0,random_dot,99.45261281322192,
right,right,speed,,,,,0.0,1.0,1.0,1.0,16.0,1.0,33.0,1.0,733.1950328999956,,,,,,,,,733.1904499999946,733.293473400001,734.1056718000036,734.0920060999924,734.092098299996,734.1056718000036,734.1056718000036,734.1056718000036,,737.0042123000021,left,0.0,74.72801290001371,,,,,,,,,,,,,,,,,,,,,,,,,,,,,,sub-237,1.0,random_dot,99.45261281322192,
right,right,speed,,,,,0.0,1.0,1.0,1.0,17.0,0.0,34.0,1.0,737.0176214000094,,,,,,,,,737.0085779000074,737.8091401999991,738.6153964000114,738.6035700000066,738.6036343000014,738.6153964000114,738.6153964000114,738.6153964000114,,740.4364005000098,left,0.0,73.63905689999228,,,,,,,,,,,,,,,,,,,,,,,,,,,,,,sub-237,1.0,random_dot,99.45261281322192,
left,left,speed,,,,,0.0,1.0,1.0,1.0,17.0,1.0,35.0,0.0,740.4459215000097,,,,,,,,,740.4395681000024,740.7917897999869,741.6033623999974,741.5872795000032,741.5873391999921,741.6033623999974,741.6033623999974,741.6033623999974,,743.1275430000096,right,0.0,73.35307929999544,,,,,,,,,,,,,,,,,,,,,,,,,,,,,,sub-237,1.0,random_dot,99.45261281322192,
left,left,speed,,,,,0.0,1.0,1.0,1.0,18.0,0.0,36.0,0.0,743.1389034999884,,,,,,,,,743.1305776000081,743.9324160999968,744.737867399992,744.7238267000066,744.7239460000128,744.737867399992,744.737867399992,744.737867399992,,747.091760100011,left,1.0,74.1816748000274,,,,,,,,,,,,,,,,,,,,,,,,,,,,,,sub-237,1.0,random_dot,99.45261281322192,
right,right,speed,,,,,0.0,1.0,1.0,1.0,18.0,1.0,37.0,1.0,747.1015004999936,,,,,,,,,747.0954808999959,747.1983103000093,748.0014014999906,747.9891047000128,747.9891659000132,748.0014014999906,748.0014014999906,748.0014014999906,,750.0547450000013,left,0.0,73.88314849999733,,,,,,,,,,,,,,,,,,,,,,,,,,,,,,sub-237,1.0,random_dot,99.45261281322192,
right,right,speed,,,,,0.0,1.0,1.0,1.0,19.0,0.0,38.0,1.0,750.0609613000124,,,,,,,,,750.0565493000031,750.406659100001,751.2175607999961,751.2050162999949,751.2050952000136,751.2175607999961,751.2175607999961,751.2175607999961,,753.0138193999883,left,0.0,73.62450340003124,,,,,,,,,,,,,,,,,,,,,,,,,,,,,,sub-237,1.0,random_dot,99.45261281322192,
left,left,speed,,,,,0.0,1.0,1.0,1.0,19.0,1.0,39.0,0.0,753.0269192999986,,,,,,,,,753.0168225000089,753.8144789999933,754.6180932999996,754.606455000001,754.6065106999886,754.6180932999996,754.6180932999996,754.6180932999996,,757.6987619000138,right,0.0,74.90666649999912,,,,,,,,,,,,,,,,,,,,,,,,,,,,,,sub-237,1.0,random_dot,99.45261281322192,
left,left,speed,,,,,0.0,1.0,1.0,1.0,20.0,0.0,40.0,0.0,757.7129907000053,,,,,,,,,757.7045357000025,758.053820400004,758.8580565000011,758.8463922000083,758.8464468999882,758.8580565000011,758.8580565000011,758.8580565000011,,760.6546074000071,right,0.0,73.61864810000407,,,,,,,,,,,,,,,,,,,,,,,,,,,,,,sub-237,1.0,random_dot,99.45261281322192,
right,right,speed,,,,,0.0,1.0,1.0,1.0,20.0,1.0,41.0,1.0,760.670508500014,,,,,,,,,760.6578746000014,761.4610641000036,762.266575799993,762.2538491000014,762.2539063000004,762.266575799993,762.266575799993,762.266575799993,,764.6444162999978,right,1.0,74.18430459999945,,,,,,,,,,,,,,,,,,,,,,,,,,,,,,sub-237,1.0,random_dot,99.45261281322192,
left,left,speed,,,,,0.0,1.0,1.0,1.0,21.0,0.0,42.0,0.0,764.654472299997,,,,,,,,,764.6474056000006,764.7528628,765.557338100014,765.5433827000088,765.543439000001,765.557338100014,765.557338100014,765.557338100014,,767.6454376000038,left,1.0,73.91622350001126,,,,,,,,,,,,,,,,,,,,,,,,,,,,,,sub-237,1.0,random_dot,99.45261281322192,
right,right,speed,,,,,0.0,1.0,1.0,1.0,21.0,1.0,43.0,1.0,767.655517200008,,,,,,,,,767.6494173000101,768.0017399000062,768.8145189000061,768.8019439000054,768.8019973000046,768.8145189000061,768.8145189000061,768.8145189000061,,770.467366900004,right,1.0,73.46913700000732,,,,,,,,,,,,,,,,,,,,,,,,,,,,,,sub-237,1.0,random_dot,99.45261281322192,
right,right,speed,,,,,0.0,1.0,1.0,1.0,22.0,0.0,44.0,1.0,770.4795641000092,,,,,,,,,770.4704525000125,771.674777600012,772.4834993999975,772.4718241000082,772.4718799999973,772.4834993999975,772.4834993999975,772.4834993999975,,773.7074125999934,right,1.0,73.04689759999746,,,,,,,,,,,,,,,,,,,,,,,,,,,,,,sub-237,1.0,random_dot,99.45261281322192,
left,left,speed,,,,,0.0,1.0,1.0,1.0,22.0,1.0,45.0,0.0,773.716436799994,,,,,,,,,773.7105666999996,773.8077357999864,774.6232636999921,774.6093549999932,774.6094458999869,774.6232636999921,774.6232636999921,774.6232636999921,,776.624438800005,left,1.0,73.83002940003644,,,,,,,,,,,,,,,,,,,,,,,,,,,,,,sub-237,1.0,random_dot,99.45261281322192,
right,right,speed,,,,,0.0,1.0,1.0,1.0,23.0,0.0,46.0,1.0,776.6364235999936,,,,,,,,,776.6275524999946,777.4325711000129,778.2382020000077,778.2261586000095,778.2262151000032,778.2382020000077,778.2382020000077,778.2382020000077,,780.1670494999853,right,1.0,73.7539337000344,,,,,,,,,,,,,,,,,,,,,,,,,,,,,,sub-237,1.0,random_dot,99.45261281322192,
left,left,speed,,,,,0.0,1.0,1.0,1.0,23.0,1.0,47.0,0.0,780.1907310000097,,,,,,,,,780.1707794000104,780.2733702000114,781.0907656000054,781.0733693999937,781.073458400002,781.0907656000054,781.0907656000054,781.0907656000054,,783.4404881999944,right,0.0,74.16966019998654,,,,,,,,,,,,,,,,,,,,,,,,,,,,,,sub-237,1.0,random_dot,99.45261281322192,
left,left,speed,,,,,0.0,1.0,1.0,1.0,24.0,0.0,48.0,0.0,783.4516515000141,,,,,,,,,783.4437307000044,784.2557648000075,785.0604925999942,785.0470757999865,785.0471309999994,785.0604925999942,785.0604925999942,785.0604925999942,,786.2443404000078,left,1.0,73.00920090000727,,,,,,,,,,,,,,,,,,,,,,,,,,,,,,sub-237,1.0,random_dot,99.45261281322192,
right,right,speed,,,,,0.0,1.0,1.0,1.0,24.0,1.0,49.0,1.0,786.2608817,,,,,,,,,786.2486499999941,787.0468450000044,787.8468611999997,787.8381220999872,787.8381622000015,787.8468611999997,787.8468611999997,787.8468611999997,,789.0701182000048,left,0.0,73.05335550001473,,,,,,,,,,,,,,,,,,,,,,,,,,,,,,sub-237,1.0,random_dot,99.45261281322192,
right,right,speed,,,,,0.0,1.0,1.0,1.0,25.0,0.0,50.0,1.0,789.0756786999991,,,,,,,,,789.0716454999929,789.8696908999991,790.675052400009,790.6635315000021,790.6635857000074,790.675052400009,790.675052400009,790.675052400009,,793.376469699986,left,0.0,74.52736350000487,,,,,,,,,,,,,,,,,,,,,,,,,,,,,,sub-237,1.0,random_dot,99.45261281322192,
left,left,speed,,,,,0.0,1.0,1.0,1.0,25.0,1.0,51.0,0.0,793.3917974999931,,,,,,,,,793.3802038999856,793.4792483999918,794.2910344999982,794.2748237999913,794.2749006999948,794.2910344999982,794.2910344999982,794.2910344999982,,797.081874800002,left,1.0,74.613883300015,,,,,,,,,,,,,,,,,,,,,,,,,,,,,,sub-237,1.0,random_dot,99.45261281322192,
right,right,speed,,,,,0.0,1.0,1.0,1.0,26.0,0.0,52.0,1.0,797.0913581000059,,,,,,,,,797.0849770999921,797.184419199999,797.9905777999957,797.9777182000107,797.9777782000019,797.9905777999957,797.9905777999957,797.9905777999957,,799.7260802999954,right,1.0,73.5550787000102,,,,,,,,,,,,,,,,,,,,,,,,,,,,,,sub-237,1.0,random_dot,99.45261281322192,
left,left,speed,,,,,0.0,1.0,1.0,1.0,26.0,1.0,53.0,0.0,799.735142199992,,,,,,,,,799.730041200004,800.9335829000047,801.7392333000025,801.7265404000063,801.7266305999947,801.7392333000025,801.7392333000025,801.7392333000025,,803.0754003000038,right,0.0,73.16256880000583,,,,,,,,,,,,,,,,,,,,,,,,,,,,,,sub-237,1.0,random_dot,99.45261281322192,
left,left,speed,,,,,0.0,1.0,1.0,1.0,27.0,0.0,54.0,0.0,803.0885646000097,,,,,,,,,803.0799580999883,803.433299700002,804.2410621999879,804.2286399999866,804.2286973999871,804.2410621999879,804.2410621999879,804.2410621999879,,806.040666099987,right,0.0,73.618006100005,,,,,,,,,,,,,,,,,,,,,,,,,,,,,,sub-237,1.0,random_dot,99.45261281322192,
right,right,speed,,,,,0.0,1.0,1.0,1.0,27.0,1.0,55.0,1.0,806.04873770001,,,,,,,,,806.043673600012,806.8427084000141,807.6563623000111,807.644228899997,807.6442849999876,807.6563623000111,807.6563623000111,807.6563623000111,,809.2195940999954,right,1.0,73.3851074000122,,,,,,,,,,,,,,,,,,,,,,,,,,,,,,sub-237,1.0,random_dot,99.45261281322192,
right,right,speed,,,,,0.0,1.0,1.0,1.0,28.0,0.0,56.0,1.0,809.229708400002,,,,,,,,,809.224565499986,810.4223630999913,811.2279631000129,811.2163337999955,811.2163896000129,811.2279631000129,811.2279631000129,811.2279631000129,,812.564231700002,right,1.0,73.15622699999949,,,,,,,,,,,,,,,,,,,,,,,,,,,,,,sub-237,1.0,random_dot,99.45261281322192,
left,left,speed,,,,,0.0,1.0,1.0,1.0,28.0,1.0,57.0,0.0,812.5744313999894,,,,,,,,,812.5677645000105,813.7715039000032,814.5789082999981,814.5638082000078,814.5638906999957,814.5789082999981,814.5789082999981,814.5789082999981,,815.7104631999973,right,0.0,72.95320730001549,,,,,,,,,,,,,,,,,,,,,,,,,,,,,,sub-237,1.0,random_dot,99.45261281322192,
left,left,speed,,,,,0.0,1.0,1.0,1.0,29.0,0.0,58.0,0.0,815.7196911000065,,,,,,,,,815.7147081999865,816.0622263000114,816.8686685000139,816.856663100014,816.8567201000114,816.8686685000139,816.8686685000139,816.8686685000139,,818.0070055999968,right,0.0,72.96494390000589,,,,,,,,,,,,,,,,,,,,,,,,,,,,,,sub-237,1.0,random_dot,99.45261281322192,
right,right,speed,,,,,0.0,1.0,1.0,1.0,29.0,1.0,59.0,1.0,818.0217059999995,,,,,,,,,818.0110747999861,819.2116890999896,820.0155808000127,820.0048741000064,820.0049276000063,820.0155808000127,820.0155808000127,820.0155808000127,,820.7712777999986,right,1.0,72.58066959999269,,,,,,,,,,,,,,,,,,,,,,,,,,,,,,sub-237,1.0,random_dot,99.45261281322192,
,,speed,,,,,0.0,1.0,1.0,1.0,,,,,,,,,,,,,,,,,,,,,,,,,,,,,,,,,,,,,,,,,,,,,,,,,,,,,,,,sub-237,1.0,random_dot,99.45261281322192,
,,,,,,,,,,,,,,,,,,,,,,,,,,,,,,,,,,,,,,,,,,,,,,,,,,,,,,,,,,,,,,,820.7733808000048,820.7843061999884,825.7764026999939,sub-237,,,,
