direction,corrAns,randomInstr,practice_trials.thisRepN,practice_trials.thisTrialN,practice_trials.thisN,practice_trials.thisIndex,instr_trials.thisRepN,instr_trials.thisTrialN,instr_trials.thisN,instr_trials.thisIndex,test_trials.thisRepN,test_trials.thisTrialN,test_trials.thisN,test_trials.thisIndex,thisRow.t,notes,general_instruction.started,textGeneralInstr.started,respGeneralInstr.started,general_instruction.stopped,respGeneralInstr.keys,respGeneralInstr.rt,respGeneralInstr.duration,ITI.started,fixcross.started,fixcross.stopped,ITI.stopped,dots.started,backgroundDots.started,stimulusDots.started,respDots.started,stimulusDots.stopped,dots.stopped,respDots.keys,respDots.corr,respDots.rt,respDots.duration,feedback.started,textFeedback.started,feedback.stopped,textFeedback.stopped,info.started,textInfo.started,keyRespInfo.started,info.stopped,keyRespInfo.keys,keyRespInfo.rt,keyRespInfo.duration,test_instruction.started,textTestInstr.started,respTestInstr.started,test_instruction.stopped,respTestInstr.keys,respTestInstr.rt,respTestInstr.duration,random_instruction.started,textRandomInstr.started,respRandomInstr.started,random_instruction.stopped,respRandomInstr.keys,respRandomInstr.rt,respRandomInstr.duration,goodbye.started,textGoodbye.started,goodbye.stopped,participant,session,expName,frameRate,Unnamed: 73
,,,,,,,,,,,,,,,,,0.0234479999999166,0.0284988999999313,0.0284988999999313,64.56001079999987,space,81.6409544999999,,,,,,,,,,,,,,,,,,,,,,,,,,,,,,,,,,,,,,,,,,,,sub-057,1.0,random_dot,60.15406659533334,
right,right,,0.0,0.0,0.0,1.0,,,,,,,,,64.57699150000008,,,,,,,,,64.57358629999999,64.92382509999993,65.7244146999999,65.7085305999999,65.70859519999999,65.7244146999999,65.7244146999999,65.7244146999999,70.7217619999999,84.28349539999999,right,1.0,35.67924919999996,,84.28487339999992,84.29997439999988,84.79652140000007,,,,,,,,,,,,,,,,,,,,,,,,,,sub-057,1.0,random_dot,60.15406659533334,
left,left,,0.0,1.0,1.0,0.0,,,,,,,,,84.8130423,,,,,,,,,84.79773040000009,84.89615219999996,85.69646799999987,85.68068590000007,85.68073009999989,85.69646799999987,85.69646799999987,85.69646799999987,90.6934902999999,96.26044879999996,left,1.0,27.675567,,96.26152869999989,96.27256280000006,96.7582281,96.77273990000003,,,,,,,,,,,,,,,,,,,,,,,,,sub-057,1.0,random_dot,60.15406659533334,
left,left,,1.0,0.0,2.0,0.0,,,,,,,,,96.77273990000003,,,,,,,,,96.7590831,97.97184700000004,98.7726631999999,98.75597139999992,98.75601540000002,98.7726631999999,98.7726631999999,98.7726631999999,,103.03876620000004,right,0.0,21.37756669999999,,103.03974369999992,103.05322350000006,103.5379453999999,103.55122030000008,,,,,,,,,,,,,,,,,,,,,,,,,sub-057,1.0,random_dot,60.15406659533334,
right,right,,1.0,1.0,3.0,1.0,,,,,,,,,103.55122030000008,,,,,,,,,103.53883730000008,104.35210110000004,105.15262830000006,105.13710190000006,105.13715750000006,105.15262830000006,105.15262830000006,105.15262830000006,110.14970279999989,132.2389866000001,right,1.0,44.20511889999989,,132.23980149999988,132.2532767,132.73768289999998,132.7525432,,,,,,,,,,,,,,,,,,,,,,,,,sub-057,1.0,random_dot,60.15406659533334,
right,right,,2.0,0.0,4.0,1.0,,,,,,,,,132.7525432,,,,,,,,,132.73862039999997,133.95207400000004,134.75250359999995,134.73648359999993,134.73652859999993,134.75250359999995,134.75250359999995,134.75250359999995,139.74783449999995,140.71832790000008,left,0.0,23.0774014000001,,140.71933179999996,140.7316229999999,141.2168225999999,141.23139109999988,,,,,,,,,,,,,,,,,,,,,,,,,sub-057,1.0,random_dot,60.15406659533334,
left,left,,2.0,1.0,5.0,0.0,,,,,,,,,141.23139109999988,,,,,,,,,141.217629,141.5812538,142.3817712,142.36636640000006,142.36640749999992,142.3817712,142.3817712,142.3817712,,146.6319704,right,0.0,21.360039700000016,,146.6329172000001,146.6451322999999,147.13089349999996,147.14479430000006,,,,,,,,,,,,,,,,,,,,,,,,,sub-057,1.0,random_dot,60.15406659533334,
left,left,,3.0,0.0,6.0,0.0,,,,,,,,,147.14479430000006,,,,,,,,,147.1318566,147.2448706,148.04545299999995,148.02937029999998,148.02944419999994,148.04545299999995,148.04545299999995,148.04545299999995,,151.69457869999997,left,1.0,20.763035200000104,,151.6961856999999,151.7078864,152.19351499999993,152.20881630000008,,,,,,,,,,,,,,,,,,,,,,,,,sub-057,1.0,random_dot,60.15406659533334,
right,right,,3.0,1.0,7.0,1.0,,,,,,,,,152.20881630000008,,,,,,,,,152.1943980000001,152.55847659999995,153.35889980000002,153.34334769999987,153.3434052,153.35889980000002,153.35889980000002,153.35889980000002,,157.22626839999998,left,0.0,20.98651670000004,,157.22711800000002,157.2391815000001,157.72423060000006,157.7391126,,,,,,,,,,,,,,,,,,,,,,,,,sub-057,1.0,random_dot,60.15406659533334,
left,left,,4.0,0.0,8.0,0.0,,,,,,,,,157.7391126,,,,,,,,,157.7250775,157.83880810000005,158.6393427999999,158.62347539999996,158.62354329999994,158.6393427999999,158.6393427999999,158.6393427999999,,161.19097850000003,left,1.0,19.663103299999875,,161.19200840000008,161.20393390000004,161.68797449999988,161.7034188,,,,,,,,,,,,,,,,,,,,,,,,,sub-057,1.0,random_dot,60.15406659533334,
right,right,,4.0,1.0,9.0,1.0,,,,,,,,,161.7034188,,,,,,,,,161.6886571,161.80354280000006,162.6041021000001,162.58850319999988,162.58855119999998,162.6041021000001,162.6041021000001,162.6041021000001,167.60113899999988,169.60264400000003,left,0.0,24.119327199999816,,169.6035743,169.61586269999998,170.1005376999999,170.1155839999999,,,,,,,,,,,,,,,,,,,,,,,,,sub-057,1.0,random_dot,60.15406659533334,
left,left,,5.0,0.0,10.0,0.0,,,,,,,,,170.1155839999999,,,,,,,,,170.10155450000002,170.21567750000008,171.01593839999987,171.0005661,171.00061830000004,171.01593839999987,171.01593839999987,171.01593839999987,,175.34911629999988,right,0.0,21.441895899999963,,175.35072910000008,175.36243940000008,175.86201039999992,,,,,,,,,,,,,,,,,,,,,,,,,,sub-057,1.0,random_dot,60.15406659533334,
right,right,,5.0,1.0,11.0,1.0,,,,,,,,,175.87763659999996,,,,,,,,,175.86297280000008,176.2121443000001,177.01292940000008,176.99713599999995,176.99719030000006,177.01292940000008,177.01292940000008,177.01292940000008,182.0100617999999,183.5285208,left,0.0,23.63366120000001,,183.52935159999996,183.54173250000008,184.04105499999991,,,,,,,,,,,,,,,,,,,,,,,,,,sub-057,1.0,random_dot,60.15406659533334,
left,left,,6.0,0.0,12.0,0.0,,,,,,,,,184.05767820000003,,,,,,,,,184.0421191999999,184.39125220000005,185.19183679999992,185.1756791,185.1757404,185.19183679999992,185.19183679999992,185.19183679999992,,188.62521300000003,left,1.0,20.547081400000025,,188.62617440000008,188.63842780000004,189.12327430000005,189.13849520000008,,,,,,,,,,,,,,,,,,,,,,,,,sub-057,1.0,random_dot,60.15406659533334,
right,right,,6.0,1.0,13.0,1.0,,,,,,,,,189.13849520000008,,,,,,,,,189.12424809999996,189.4883178,190.28862350000009,190.27270240000007,190.27276400000005,190.28862350000009,190.28862350000009,190.28862350000009,,192.30674470000008,right,1.0,19.13056799999981,,192.30766599999995,192.3200216,192.80518329999995,192.8196479000001,,,,,,,,,,,,,,,,,,,,,,,,,sub-057,1.0,random_dot,60.15406659533334,
left,left,,7.0,0.0,14.0,0.0,,,,,,,,,192.8196479000001,,,,,,,,,192.80600690000009,194.0193032,194.81925589999992,194.8036451999999,194.80369769999996,194.81925589999992,194.81925589999992,194.81925589999992,,198.28650889999997,right,0.0,20.576675600000044,,198.28751119999995,198.2999431000001,198.78466409999987,198.7994544000001,,,,,,,,,,,,,,,,,,,,,,,,,sub-057,1.0,random_dot,60.15406659533334,
right,right,,7.0,1.0,15.0,1.0,,,,,,,,,198.7994544000001,,,,,,,,,198.7855774,199.1494252,199.9650239,199.9497357,199.9497744,199.9650239,199.9650239,199.9650239,,202.65198800000007,left,0.0,19.80702120000001,,202.6534179,202.6644088999999,203.1491805999999,203.16392240000005,,,,,,,,,,,,,,,,,,,,,,,,,sub-057,1.0,random_dot,60.15406659533334,
right,right,,8.0,0.0,16.0,1.0,,,,,,,,,203.16392240000005,,,,,,,,,203.1501713,203.9626757000001,204.7638789,204.74808460000008,204.7481347999999,204.7638789,204.7638789,204.7638789,209.7612056999999,211.5462003,right,1.0,23.89349420000008,,211.54720369999995,211.5589640999999,212.04353739999988,212.05796179999996,,,,,,,,,,,,,,,,,,,,,,,,,sub-057,1.0,random_dot,60.15406659533334,
left,left,,8.0,1.0,17.0,0.0,,,,,,,,,212.05796179999996,,,,,,,,,212.0444640000001,213.25822470000003,214.05864139999997,214.04297589999987,214.0430351,214.05864139999997,214.05864139999997,214.05864139999997,,216.12694349999992,left,1.0,19.188408399999844,,216.12839140000008,216.13989489999997,216.6249212,216.63974039999997,,,,,,,,,,,,,,,,,,,,,,,,,sub-057,1.0,random_dot,60.15406659533334,
left,left,,9.0,0.0,18.0,0.0,,,,,,,,,216.63974039999997,,,,,,,,,216.6258178999999,216.98963009999989,217.78985680000005,217.77451100000008,217.7745794,217.78985680000005,217.78985680000005,217.78985680000005,,220.27397180000003,left,1.0,19.60417030000008,,220.27479049999988,220.2878736,220.7715920999999,220.7874929,,,,,,,,,,,,,,,,,,,,,,,,,sub-057,1.0,random_dot,60.15406659533334,
right,right,,9.0,1.0,19.0,1.0,,,,,,,,,220.7874929,,,,,,,,,220.77242269999988,221.9869709,222.7875231999999,222.7713113,222.771356,222.7875231999999,222.7875231999999,222.7875231999999,,226.4374952999999,left,0.0,20.75864919999981,,226.43854480000005,226.450979,226.93581900000004,226.95065150000005,,,,,,,,,,,,,,,,,,,,,,,,,sub-057,1.0,random_dot,60.15406659533334,
,,,,,,,,,,,,,,,,,,,,,,,,,,,,,,,,,,,,,,,,,,226.93598999999995,226.95065150000005,226.95065150000005,234.0650799,space,24.223268700000062,,,,,,,,,,,,,,,,,,,sub-057,1.0,random_dot,60.15406659533334,
,,,,,,,,,,,,,,,,,,,,,,,,,,,,,,,,,,,,,,,,,,,,,,,,,234.0651418,234.08027650000008,234.08027650000008,249.0745883,space,32.11148669999989,,,,,,,,,,,,sub-057,1.0,random_dot,60.15406659533334,
left,left,speed,,,,,0.0,0.0,0.0,1.0,0.0,0.0,0.0,0.0,255.870197,,,,,,,,,255.8658221000001,256.66808990000004,257.4690759,257.45242970000004,257.45247659999995,257.4690759,257.4690759,257.4690759,,259.05396010000004,left,1.0,18.6939225000001,,,,,,,,,,,,,,,,,,,,249.0804204000001,249.1090818,249.1090818,255.8556054999999,space,23.866268499999933,,,,,sub-057,1.0,random_dot,60.15406659533334,
right,right,speed,,,,,0.0,0.0,0.0,1.0,0.0,1.0,1.0,1.0,259.0665412999999,,,,,,,,,259.0561001000001,259.8671164,260.666248,260.65141459999995,260.6514545,260.666248,260.666248,260.666248,,264.2849873,right,1.0,20.740835299999844,,,,,,,,,,,,,,,,,,,,,,,,,,,,,,sub-057,1.0,random_dot,60.15406659533334,
right,right,speed,,,,,0.0,0.0,0.0,1.0,1.0,0.0,2.0,1.0,264.2969401999999,,,,,,,,,264.2878131,265.4962888,266.2965460999999,266.2805241000001,266.2805616999999,266.2965460999999,266.2965460999999,266.2965460999999,,268.74859760000004,right,1.0,19.56955959999982,,,,,,,,,,,,,,,,,,,,,,,,,,,,,,sub-057,1.0,random_dot,60.15406659533334,
left,left,speed,,,,,0.0,0.0,0.0,1.0,1.0,1.0,3.0,0.0,268.7615816,,,,,,,,,268.75015469999994,269.1109884,269.91235370000004,269.8958881000001,269.8959250999999,269.91235370000004,269.91235370000004,269.91235370000004,,272.4295142000001,left,1.0,19.635745299999822,,,,,,,,,,,,,,,,,,,,,,,,,,,,,,sub-057,1.0,random_dot,60.15406659533334,
right,right,speed,,,,,0.0,0.0,0.0,1.0,2.0,0.0,4.0,1.0,272.4424068999999,,,,,,,,,272.432008,273.24294340000006,274.04281489999994,274.02770770000006,274.0277486,274.04281489999994,274.04281489999994,274.04281489999994,,276.0445471999999,right,1.0,19.1223786999999,,,,,,,,,,,,,,,,,,,,,,,,,,,,,,sub-057,1.0,random_dot,60.15406659533334,
left,left,speed,,,,,0.0,0.0,0.0,1.0,2.0,1.0,5.0,0.0,276.0578804,,,,,,,,,276.04585870000005,276.40696660000003,277.2076489000001,277.1915916999999,277.19164520000004,277.2076489000001,277.2076489000001,277.2076489000001,,279.6093329999999,right,0.0,19.513517999999976,,,,,,,,,,,,,,,,,,,,,,,,,,,,,,sub-057,1.0,random_dot,60.15406659533334,
right,right,speed,,,,,0.0,0.0,0.0,1.0,3.0,0.0,6.0,1.0,279.6216385,,,,,,,,,279.6118065999999,279.9719345000001,280.7718058999999,280.75729060000003,280.75734050000005,280.7718058999999,280.7718058999999,280.7718058999999,,282.79177630000004,left,0.0,19.130030900000065,,,,,,,,,,,,,,,,,,,,,,,,,,,,,,sub-057,1.0,random_dot,60.15406659533334,
left,left,speed,,,,,0.0,0.0,0.0,1.0,3.0,1.0,7.0,0.0,282.8033218999999,,,,,,,,,282.79357490000007,283.6028547000001,284.4033500999999,284.38806810000005,284.3881253,284.4033500999999,284.4033500999999,284.4033500999999,,286.17240590000006,left,1.0,18.88366210000004,,,,,,,,,,,,,,,,,,,,,,,,,,,,,,sub-057,1.0,random_dot,60.15406659533334,
left,left,speed,,,,,0.0,0.0,0.0,1.0,4.0,0.0,8.0,0.0,286.18473560000007,,,,,,,,,286.17373640000005,286.98411480000004,287.7846087999999,287.7691176000001,287.76916729999994,287.7846087999999,287.7846087999999,287.7846087999999,,289.5201145000001,left,1.0,18.844797599999996,,,,,,,,,,,,,,,,,,,,,,,,,,,,,,sub-057,1.0,random_dot,60.15406659533334,
right,right,speed,,,,,0.0,0.0,0.0,1.0,4.0,1.0,9.0,1.0,289.5330213,,,,,,,,,289.52179720000004,289.88317770000003,290.6834446999999,290.6677797,290.66787550000004,290.6834446999999,290.6834446999999,290.6834446999999,,292.25117550000004,right,1.0,18.688878299999946,,,,,,,,,,,,,,,,,,,,,,,,,,,,,,sub-057,1.0,random_dot,60.15406659533334,
left,left,speed,,,,,0.0,0.0,0.0,1.0,5.0,0.0,10.0,0.0,292.2645287999999,,,,,,,,,292.2541395999999,293.46424690000003,294.26519400000006,294.24948760000007,294.2495377,294.26519400000006,294.26519400000006,294.26519400000006,,296.21628859999987,left,1.0,19.06951059999983,,,,,,,,,,,,,,,,,,,,,,,,,,,,,,sub-057,1.0,random_dot,60.15406659533334,
right,right,speed,,,,,0.0,0.0,0.0,1.0,5.0,1.0,11.0,1.0,296.2294423999999,,,,,,,,,296.2178778,297.4285949,298.2300527,298.2139832999999,298.21403250000003,298.2300527,298.2300527,298.2300527,,299.7143836,right,1.0,18.593582399999832,,,,,,,,,,,,,,,,,,,,,,,,,,,,,,sub-057,1.0,random_dot,60.15406659533334,
left,left,speed,,,,,0.0,0.0,0.0,1.0,6.0,0.0,12.0,0.0,299.7277942999999,,,,,,,,,299.7157138,299.8278416999999,300.62788720000003,300.61222969999994,300.6122685,300.62788720000003,300.62788720000003,300.62788720000003,,303.1956513,left,1.0,19.679680499999904,,,,,,,,,,,,,,,,,,,,,,,,,,,,,,sub-057,1.0,random_dot,60.15406659533334,
right,right,speed,,,,,0.0,0.0,0.0,1.0,6.0,1.0,13.0,1.0,303.2087971000001,,,,,,,,,303.1969746,304.40643279999995,305.2087108999999,305.19228939999994,305.19232839999995,305.2087108999999,305.2087108999999,305.2087108999999,,307.0621153,left,0.0,18.97302169999989,,,,,,,,,,,,,,,,,,,,,,,,,,,,,,sub-057,1.0,random_dot,60.15406659533334,
left,left,speed,,,,,0.0,0.0,0.0,1.0,7.0,0.0,14.0,0.0,307.0732171,,,,,,,,,307.0637162999999,307.17338829999994,307.9741405,307.9567958,307.9568300000001,307.9741405,307.9741405,307.9741405,,310.1096323,left,1.0,19.25745260000008,,,,,,,,,,,,,,,,,,,,,,,,,,,,,,sub-057,1.0,random_dot,60.15406659533334,
right,right,speed,,,,,0.0,0.0,0.0,1.0,7.0,1.0,15.0,1.0,310.1220062,,,,,,,,,310.1112627,310.2219398,311.0220073999999,311.0069704,311.00701630000003,311.0220073999999,311.0220073999999,311.0220073999999,,312.5411852,right,1.0,18.63922750000006,,,,,,,,,,,,,,,,,,,,,,,,,,,,,,sub-057,1.0,random_dot,60.15406659533334,
right,right,speed,,,,,0.0,0.0,0.0,1.0,8.0,0.0,16.0,1.0,312.5538145999999,,,,,,,,,312.54267860000004,313.7527427,314.5538775,314.5383892,314.5384336,314.5538775,314.5538775,314.5538775,,315.82229340000004,right,1.0,18.390423099999907,,,,,,,,,,,,,,,,,,,,,,,,,,,,,,sub-057,1.0,random_dot,60.15406659533334,
left,left,speed,,,,,0.0,0.0,0.0,1.0,8.0,1.0,17.0,0.0,315.83513700000003,,,,,,,,,315.82354250000003,317.03463880000004,317.8348369,317.8198433,317.8198871,317.8348369,317.8348369,317.8348369,,319.5032200999999,left,1.0,18.78260760000012,,,,,,,,,,,,,,,,,,,,,,,,,,,,,,sub-057,1.0,random_dot,60.15406659533334,
right,right,speed,,,,,0.0,0.0,0.0,1.0,9.0,0.0,18.0,1.0,319.5163418,,,,,,,,,319.5046012,320.7159987,321.51694180000004,321.50037870000006,321.5004225,321.51694180000004,321.51694180000004,321.51694180000004,,323.7851317,left,0.0,19.389196399999943,,,,,,,,,,,,,,,,,,,,,,,,,,,,,,sub-057,1.0,random_dot,60.15406659533334,
left,left,speed,,,,,0.0,0.0,0.0,1.0,9.0,1.0,19.0,0.0,323.79724379999993,,,,,,,,,323.78642020000007,324.5976317,325.4139955999999,325.3978746,325.39791220000006,325.4139955999999,325.4139955999999,325.4139955999999,330.4114701000001,331.32906649999995,left,1.0,23.027556099999856,,,,,,,,,,,,,,,,,,,,,,,,,,,,,,sub-057,1.0,random_dot,60.15406659533334,
right,right,speed,,,,,0.0,0.0,0.0,1.0,10.0,0.0,20.0,1.0,331.3431679999999,,,,,,,,,331.3305511000001,332.5411879999999,333.3431776,333.3266212000001,333.32667620000007,333.3431776,333.3431776,333.3431776,,337.07739719999995,right,1.0,20.84272329999976,,,,,,,,,,,,,,,,,,,,,,,,,,,,,,sub-057,1.0,random_dot,60.15406659533334,
left,left,speed,,,,,0.0,0.0,0.0,1.0,10.0,1.0,21.0,0.0,337.0897768,,,,,,,,,337.0788439999999,337.43995870000003,338.23994390000007,338.2250859999999,338.22513230000004,338.23994390000007,338.23994390000007,338.23994390000007,,339.8917575999999,left,1.0,18.769932299999937,,,,,,,,,,,,,,,,,,,,,,,,,,,,,,sub-057,1.0,random_dot,60.15406659533334,
right,right,speed,,,,,0.0,0.0,0.0,1.0,11.0,0.0,22.0,1.0,339.9052191999999,,,,,,,,,339.8931662,340.70487619999994,341.50589719999994,341.4896168,341.48966530000007,341.50589719999994,341.50589719999994,341.50589719999994,,343.7900729999999,left,0.0,19.404829099999915,,,,,,,,,,,,,,,,,,,,,,,,,,,,,,sub-057,1.0,random_dot,60.15406659533334,
left,left,speed,,,,,0.0,0.0,0.0,1.0,11.0,1.0,23.0,0.0,343.8031759999999,,,,,,,,,343.7916473999999,345.0026178999999,345.802694,345.786715,345.7867587999999,345.802694,345.802694,345.802694,,347.8552278,left,1.0,19.173700999999937,,,,,,,,,,,,,,,,,,,,,,,,,,,,,,sub-057,1.0,random_dot,60.15406659533334,
left,left,speed,,,,,0.0,0.0,0.0,1.0,12.0,0.0,24.0,0.0,347.86778830000003,,,,,,,,,347.8566080999999,349.0670319000001,349.8673904,349.85203090000005,349.8520748000001,349.8673904,349.8673904,349.8673904,,351.4863840999999,left,1.0,18.730503299999786,,,,,,,,,,,,,,,,,,,,,,,,,,,,,,sub-057,1.0,random_dot,60.15406659533334,
right,right,speed,,,,,0.0,0.0,0.0,1.0,12.0,1.0,25.0,1.0,351.4989564,,,,,,,,,351.4878742000001,351.84897350000006,352.6638184000001,352.6488105000001,352.64885890000005,352.6638184000001,352.6638184000001,352.6638184000001,,354.451691,right,1.0,18.906071399999973,,,,,,,,,,,,,,,,,,,,,,,,,,,,,,sub-057,1.0,random_dot,60.15406659533334,
right,right,speed,,,,,0.0,0.0,0.0,1.0,13.0,0.0,26.0,1.0,354.4640201,,,,,,,,,354.45323919999987,355.6632718000001,356.4633506,356.4469652999999,356.44700549999993,356.4633506,356.4633506,356.4633506,,358.3810341000001,left,0.0,19.037470799999937,,,,,,,,,,,,,,,,,,,,,,,,,,,,,,sub-057,1.0,random_dot,60.15406659533334,
left,left,speed,,,,,0.0,0.0,0.0,1.0,13.0,1.0,27.0,0.0,358.39482640000006,,,,,,,,,358.3823072,358.49477849999994,359.29494909999994,359.2780551999999,359.2780788,359.29494909999994,359.29494909999994,359.29494909999994,,360.9132851,left,1.0,18.73760680000009,,,,,,,,,,,,,,,,,,,,,,,,,,,,,,sub-057,1.0,random_dot,60.15406659533334,
left,left,speed,,,,,0.0,0.0,0.0,1.0,14.0,0.0,28.0,0.0,360.9264031,,,,,,,,,360.9146946000001,361.7265438,362.54337340000006,362.5268604999999,362.5268968999999,362.54337340000006,362.54337340000006,362.54337340000006,,364.16204199999993,left,1.0,18.729214299999967,,,,,,,,,,,,,,,,,,,,,,,,,,,,,,sub-057,1.0,random_dot,60.15406659533334,
right,right,speed,,,,,0.0,0.0,0.0,1.0,14.0,1.0,29.0,1.0,364.1747946999999,,,,,,,,,364.1636693999999,364.9752086000001,365.79143679999993,365.7748488,365.7748849,365.79143679999993,365.79143679999993,365.79143679999993,,367.6431602,right,1.0,18.96804999999995,,,,,,,,,,,,,,,,,,,,,,,,,,,,,,sub-057,1.0,random_dot,60.15406659533334,
right,right,speed,,,,,0.0,0.0,0.0,1.0,15.0,0.0,30.0,1.0,367.6560712999999,,,,,,,,,367.6445231,368.8555446999999,369.6561141,369.639512,369.6395416,369.6561141,369.6561141,369.6561141,,371.7579457,right,1.0,19.2207542000001,,,,,,,,,,,,,,,,,,,,,,,,,,,,,,sub-057,1.0,random_dot,60.15406659533334,
left,left,speed,,,,,0.0,0.0,0.0,1.0,15.0,1.0,31.0,0.0,371.7708889000001,,,,,,,,,371.7593675999999,372.5701245999999,373.3704948,373.3541879,373.3542244,373.3704948,373.3704948,373.3704948,,375.6392077999999,left,1.0,19.377977399999963,,,,,,,,,,,,,,,,,,,,,,,,,,,,,,sub-057,1.0,random_dot,60.15406659533334,
right,right,speed,,,,,0.0,0.0,0.0,1.0,16.0,0.0,32.0,1.0,375.65205850000007,,,,,,,,,375.6404774,376.0015071999999,376.8020833000001,376.78574950000007,376.7857803,376.8020833000001,376.8020833000001,376.8020833000001,,381.4182725999999,left,0.0,21.728841999999982,,,,,,,,,,,,,,,,,,,,,,,,,,,,,,sub-057,1.0,random_dot,60.15406659533334,
left,left,speed,,,,,0.0,0.0,0.0,1.0,16.0,1.0,33.0,0.0,381.4319232999999,,,,,,,,,381.41936809999993,381.7817067000001,382.5825058999999,382.5656314999999,382.5656623,382.5825058999999,382.5825058999999,382.5825058999999,,385.1344638999999,left,1.0,19.674831599999838,,,,,,,,,,,,,,,,,,,,,,,,,,,,,,sub-057,1.0,random_dot,60.15406659533334,
left,left,speed,,,,,0.0,0.0,0.0,1.0,17.0,0.0,34.0,0.0,385.1466247000001,,,,,,,,,385.1366433999999,386.3459704,387.14674420000006,387.1299122,387.1299423,387.14674420000006,387.14674420000006,387.14674420000006,,389.84743750000007,left,1.0,19.81757119999997,,,,,,,,,,,,,,,,,,,,,,,,,,,,,,sub-057,1.0,random_dot,60.15406659533334,
right,right,speed,,,,,0.0,0.0,0.0,1.0,17.0,1.0,35.0,1.0,389.8605603000001,,,,,,,,,389.8487840999999,389.9610624,390.7609077,390.7444702,390.7444995000001,390.7609077,390.7609077,390.7609077,395.75847859999976,396.8098482,left,0.0,23.16084509999996,,,,,,,,,,,,,,,,,,,,,,,,,,,,,,sub-057,1.0,random_dot,60.15406659533334,
right,right,speed,,,,,0.0,0.0,0.0,1.0,18.0,0.0,36.0,1.0,396.82358220000015,,,,,,,,,396.8110391,397.6229352999999,398.4233565999998,398.4072428999998,398.4072769999998,398.4233565999998,398.4233565999998,398.4233565999998,403.4207483,404.38945250000006,right,1.0,23.076933099999906,,,,,,,,,,,,,,,,,,,,,,,,,,,,,,sub-057,1.0,random_dot,60.15406659533334,
left,left,speed,,,,,0.0,0.0,0.0,1.0,18.0,1.0,37.0,0.0,404.4026227999998,,,,,,,,,404.3912571999999,405.6020967,406.4023688000002,406.3858368000001,406.3858682,406.4023688000002,406.4023688000002,406.4023688000002,,410.2356659000002,left,1.0,20.94624500000032,,,,,,,,,,,,,,,,,,,,,,,,,,,,,,sub-057,1.0,random_dot,60.15406659533334,
left,left,speed,,,,,0.0,0.0,0.0,1.0,19.0,0.0,38.0,0.0,410.2493359,,,,,,,,,410.23686450000014,410.5992772999998,411.3994932999999,411.3832443000001,411.38327530000015,411.3994932999999,411.3994932999999,411.3994932999999,,413.8346829000002,left,1.0,19.551262799999904,,,,,,,,,,,,,,,,,,,,,,,,,,,,,,sub-057,1.0,random_dot,60.15406659533334,
right,right,speed,,,,,0.0,0.0,0.0,1.0,19.0,1.0,39.0,1.0,413.84782319999977,,,,,,,,,413.8361817999999,413.9472882,414.74794669999983,414.73146080000015,414.7314904,414.74794669999983,414.74794669999983,414.74794669999983,,417.4315056999999,right,1.0,19.79464179999991,,,,,,,,,,,,,,,,,,,,,,,,,,,,,,sub-057,1.0,random_dot,60.15406659533334,
left,left,speed,,,,,0.0,0.0,0.0,1.0,20.0,0.0,40.0,0.0,417.4458184,,,,,,,,,417.4328139999998,418.2448346000001,419.0452961000001,419.0297016999998,419.02976450000006,419.0452961000001,419.0452961000001,419.0452961000001,,423.02829340000017,right,0.0,21.092877499999982,,,,,,,,,,,,,,,,,,,,,,,,,,,,,,sub-057,1.0,random_dot,60.15406659533334,
right,right,speed,,,,,0.0,0.0,0.0,1.0,20.0,1.0,41.0,1.0,423.0421359000002,,,,,,,,,423.0304476000001,423.8424390999999,424.6425334999999,424.6270562,424.6271001999999,424.6425334999999,424.6425334999999,424.6425334999999,,426.9290993999998,right,1.0,19.4056693,,,,,,,,,,,,,,,,,,,,,,,,,,,,,,sub-057,1.0,random_dot,60.15406659533334,
left,left,speed,,,,,0.0,0.0,0.0,1.0,21.0,0.0,42.0,0.0,426.9402785000002,,,,,,,,,426.93062150000014,427.74015580000014,428.5412147000002,428.5247926000002,428.5248424000001,428.5412147000002,428.5412147000002,428.5412147000002,,430.4932094999999,left,1.0,19.064775699999927,,,,,,,,,,,,,,,,,,,,,,,,,,,,,,sub-057,1.0,random_dot,60.15406659533334,
right,right,speed,,,,,0.0,0.0,0.0,1.0,21.0,1.0,43.0,1.0,430.5060887,,,,,,,,,430.4947696999998,430.6056626999998,431.4064791999999,431.3911105000002,431.39115230000016,431.4064791999999,431.4064791999999,431.4064791999999,,432.8392880000001,right,1.0,18.54264339999986,,,,,,,,,,,,,,,,,,,,,,,,,,,,,,sub-057,1.0,random_dot,60.15406659533334,
right,right,speed,,,,,0.0,0.0,0.0,1.0,22.0,0.0,44.0,1.0,432.8545073999999,,,,,,,,,432.84069050000016,433.2045653,434.0041809,433.9888563,433.9888983999999,434.0041809,434.0041809,434.0041809,,436.2385258999998,right,1.0,19.351830400000157,,,,,,,,,,,,,,,,,,,,,,,,,,,,,,sub-057,1.0,random_dot,60.15406659533334,
left,left,speed,,,,,0.0,0.0,0.0,1.0,22.0,1.0,45.0,0.0,436.2521413,,,,,,,,,436.23985809999976,436.602402,437.4184516999999,437.4031654,437.4031946,437.4184516999999,437.4184516999999,437.4184516999999,,439.4872575,left,1.0,19.190440399999943,,,,,,,,,,,,,,,,,,,,,,,,,,,,,,sub-057,1.0,random_dot,60.15406659533334,
left,left,speed,,,,,0.0,0.0,0.0,1.0,23.0,0.0,46.0,0.0,439.5000764000001,,,,,,,,,439.4886252000001,440.6998696999999,441.5001999000001,441.4852458999999,441.4853524,441.5001999000001,441.5001999000001,441.5001999000001,,443.4024786999999,left,1.0,19.01065270000004,,,,,,,,,,,,,,,,,,,,,,,,,,,,,,sub-057,1.0,random_dot,60.15406659533334,
right,right,speed,,,,,0.0,0.0,0.0,1.0,23.0,1.0,47.0,1.0,443.4145887,,,,,,,,,443.4038811999999,443.5146512000001,444.31491659999983,444.2992684999999,444.299309,444.31491659999983,444.31491659999983,444.31491659999983,,445.7840680999998,right,1.0,18.583879300000035,,,,,,,,,,,,,,,,,,,,,,,,,,,,,,sub-057,1.0,random_dot,60.15406659533334,
left,left,speed,,,,,0.0,0.0,0.0,1.0,24.0,0.0,48.0,0.0,445.79672530000016,,,,,,,,,445.7855482,446.99585549999983,447.7963995,447.7810064999999,447.7810559999998,447.7963995,447.7963995,447.7963995,,452.5959751,right,0.0,21.914761099999623,,,,,,,,,,,,,,,,,,,,,,,,,,,,,,sub-057,1.0,random_dot,60.15406659533334,
right,right,speed,,,,,0.0,0.0,0.0,1.0,24.0,1.0,49.0,1.0,452.6113077999999,,,,,,,,,452.5973506,452.95952510000006,453.7597569999998,453.7435596,453.74359129999993,453.7597569999998,453.7597569999998,453.7597569999998,,455.7115592999999,right,1.0,19.059919099999888,,,,,,,,,,,,,,,,,,,,,,,,,,,,,,sub-057,1.0,random_dot,60.15406659533334,
right,right,speed,,,,,0.0,0.0,0.0,1.0,25.0,0.0,50.0,1.0,455.72450500000014,,,,,,,,,455.7130323000001,456.5242419000001,457.32430429999977,457.3081957999998,457.308235,457.32430429999977,457.32430429999977,457.32430429999977,,459.7096286000001,right,1.0,19.497731799999883,,,,,,,,,,,,,,,,,,,,,,,,,,,,,,sub-057,1.0,random_dot,60.15406659533334,
left,left,speed,,,,,0.0,0.0,0.0,1.0,25.0,1.0,51.0,0.0,459.7218985,,,,,,,,,459.7111826,460.52195200000006,461.3231804000002,461.3064724000001,461.3065241999998,461.3231804000002,461.3231804000002,461.3231804000002,,462.6911611,left,1.0,18.475783800000272,,,,,,,,,,,,,,,,,,,,,,,,,,,,,,sub-057,1.0,random_dot,60.15406659533334,
right,right,speed,,,,,0.0,0.0,0.0,1.0,26.0,0.0,52.0,1.0,462.7038723999999,,,,,,,,,462.6932324,463.90326529999993,464.7038158,464.6889425,464.6889867,464.7038158,464.7038158,464.7038158,,466.5393147,right,1.0,18.955669100000023,,,,,,,,,,,,,,,,,,,,,,,,,,,,,,sub-057,1.0,random_dot,60.15406659533334,
left,left,speed,,,,,0.0,0.0,0.0,1.0,26.0,1.0,53.0,0.0,466.55177319999984,,,,,,,,,466.5420012999998,466.652102,467.4520478999998,467.4368964,467.4369418000001,467.4520478999998,467.4520478999998,467.4520478999998,,471.88749899999993,left,1.0,21.557079399999797,,,,,,,,,,,,,,,,,,,,,,,,,,,,,,sub-057,1.0,random_dot,60.15406659533334,
left,left,speed,,,,,0.0,0.0,0.0,1.0,27.0,0.0,54.0,0.0,471.89954050000006,,,,,,,,,471.88887859999977,472.24863460000006,473.0491987999999,473.0329425,473.0329851000001,473.0491987999999,473.0491987999999,473.0491987999999,478.0464259999999,479.2486686000002,right,0.0,23.31077610000034,,,,,,,,,,,,,,,,,,,,,,,,,,,,,,sub-057,1.0,random_dot,60.15406659533334,
right,right,speed,,,,,0.0,0.0,0.0,1.0,27.0,1.0,55.0,1.0,479.2615455999999,,,,,,,,,479.2506109000001,480.06144099999983,480.8593977999999,480.8454612000001,480.8454944999999,480.8593977999999,480.8593977999999,480.8593977999999,,483.8122374999998,right,1.0,20.0619878,,,,,,,,,,,,,,,,,,,,,,,,,,,,,,sub-057,1.0,random_dot,60.15406659533334,
right,right,speed,,,,,0.0,0.0,0.0,1.0,28.0,0.0,56.0,1.0,483.82557899999983,,,,,,,,,483.8138162999999,484.1750785999998,484.9906274999999,484.9753013,484.9753501999999,484.9906274999999,484.9906274999999,484.9906274999999,,488.7605024999998,left,0.0,20.88154400000008,,,,,,,,,,,,,,,,,,,,,,,,,,,,,,sub-057,1.0,random_dot,60.15406659533334,
left,left,speed,,,,,0.0,0.0,0.0,1.0,28.0,1.0,57.0,0.0,488.77294470000015,,,,,,,,,488.76258899999993,489.9721746,490.77361370000017,490.7579015000001,490.7579519000001,490.77361370000017,490.77361370000017,490.77361370000017,,493.7736673999998,left,1.0,20.10839259999989,,,,,,,,,,,,,,,,,,,,,,,,,,,,,,sub-057,1.0,random_dot,60.15406659533334,
left,left,speed,,,,,0.0,0.0,0.0,1.0,29.0,0.0,58.0,0.0,493.7864195000002,,,,,,,,,493.77558180000005,494.5873323999999,495.4035266000001,495.38870910000014,495.3887528999999,495.4035266000001,495.4035266000001,495.4035266000001,,499.58834160000015,left,1.0,21.30468790000009,,,,,,,,,,,,,,,,,,,,,,,,,,,,,,sub-057,1.0,random_dot,60.15406659533334,
right,right,speed,,,,,0.0,0.0,0.0,1.0,29.0,1.0,59.0,1.0,499.5999996999999,,,,,,,,,499.58995030000005,499.6998936999999,500.5004748000001,500.48508809999976,500.4851316999998,500.5004748000001,500.5004748000001,500.5004748000001,,502.85173350000014,right,1.0,19.459000699999933,,,,,,,,,,,,,,,,,,,,,,,,,,,,,,sub-057,1.0,random_dot,60.15406659533334,
,,speed,,,,,0.0,0.0,0.0,1.0,,,,,,,,,,,,,,,,,,,,,,,,,,,,,,,,,,,,,,,,,,,,,,,,,,,,,,,,sub-057,1.0,random_dot,60.15406659533334,
right,right,accuracy,,,,,0.0,1.0,1.0,0.0,0.0,0.0,0.0,1.0,509.1798024999998,,,,,,,,,509.1756470999999,509.27853700000014,510.0788071000002,510.0622795999998,510.0623295999999,510.0788071000002,510.0788071000002,510.0788071000002,515.0758519999999,516.2277429999999,left,0.0,23.26513439999985,,,,,,,,,,,,,,,,,,,,502.8535446000001,502.8694495,502.8694495,509.16433240000015,space,23.404455799999823,,,,,sub-057,1.0,random_dot,60.15406659533334,
left,left,accuracy,,,,,0.0,1.0,1.0,0.0,0.0,1.0,1.0,0.0,516.2410073000001,,,,,,,,,516.2310051,517.4404153999999,518.2407116999998,518.2254211,518.2254701000002,518.2407116999998,518.2407116999998,518.2407116999998,,521.3423942,left,1.0,20.209826900000053,,,,,,,,,,,,,,,,,,,,,,,,,,,,,,sub-057,1.0,random_dot,60.15406659533334,
right,right,accuracy,,,,,0.0,1.0,1.0,0.0,1.0,0.0,2.0,1.0,521.3546391999998,,,,,,,,,521.3440292999999,522.1547320999998,522.9716573000001,522.9554315999999,522.9554862,522.9716573000001,522.9716573000001,522.9716573000001,,526.7888128999998,right,1.0,20.933105000000296,,,,,,,,,,,,,,,,,,,,,,,,,,,,,,sub-057,1.0,random_dot,60.15406659533334,
left,left,accuracy,,,,,0.0,1.0,1.0,0.0,1.0,1.0,3.0,0.0,526.8017654999999,,,,,,,,,526.7906586999998,526.9019391000002,527.7019931999998,527.6865830000002,527.6866363999998,527.7019931999998,527.7019931999998,527.7019931999998,532.6996582000002,533.7178226000001,right,0.0,23.137429499999826,,,,,,,,,,,,,,,,,,,,,,,,,,,,,,sub-057,1.0,random_dot,60.15406659533334,
left,left,accuracy,,,,,0.0,1.0,1.0,0.0,2.0,0.0,4.0,0.0,533.7311195000002,,,,,,,,,533.7194123999998,534.0811137000001,534.8815682,534.8656105,534.8656593999999,534.8815682,534.8815682,534.8815682,,537.5828978999998,left,1.0,19.823479599999928,,,,,,,,,,,,,,,,,,,,,,,,,,,,,,sub-057,1.0,random_dot,60.15406659533334,
right,right,accuracy,,,,,0.0,1.0,1.0,0.0,2.0,1.0,5.0,1.0,537.5958046000001,,,,,,,,,537.5848101000001,537.6960714000002,538.4965526999999,538.4802817,538.4803250999998,538.4965526999999,538.4965526999999,538.4965526999999,,542.0965706000002,right,1.0,20.71801930000015,,,,,,,,,,,,,,,,,,,,,,,,,,,,,,sub-057,1.0,random_dot,60.15406659533334,
left,left,accuracy,,,,,0.0,1.0,1.0,0.0,3.0,0.0,6.0,0.0,542.1102166000001,,,,,,,,,542.0983335999999,542.2099303,543.0103730000001,542.9945855000001,542.9946288000001,543.0103730000001,543.0103730000001,543.0103730000001,,545.2781408000001,left,1.0,19.38116940000032,,,,,,,,,,,,,,,,,,,,,,,,,,,,,,sub-057,1.0,random_dot,60.15406659533334,
right,right,accuracy,,,,,0.0,1.0,1.0,0.0,3.0,1.0,7.0,1.0,545.2913871000001,,,,,,,,,545.2797952999999,545.3917459999998,546.1923489999999,546.1758590999998,546.1759054999998,546.1923489999999,546.1923489999999,546.1923489999999,,549.0581179999999,right,1.0,19.980219400000124,,,,,,,,,,,,,,,,,,,,,,,,,,,,,,sub-057,1.0,random_dot,60.15406659533334,
left,left,accuracy,,,,,0.0,1.0,1.0,0.0,4.0,0.0,8.0,0.0,549.072608,,,,,,,,,549.0599195999998,550.2724170000001,551.0728073999999,551.0573067999999,551.0573666,551.0728073999999,551.0728073999999,551.0728073999999,,554.9229783999999,left,1.0,20.97060529999976,,,,,,,,,,,,,,,,,,,,,,,,,,,,,,sub-057,1.0,random_dot,60.15406659533334,
right,right,accuracy,,,,,0.0,1.0,1.0,0.0,4.0,1.0,9.0,1.0,554.9362204999998,,,,,,,,,554.9250969999998,555.7359410999998,556.5367302,556.5202333000002,556.5202887,556.5367302,556.5367302,556.5367302,,559.4872062,right,1.0,20.0673918,,,,,,,,,,,,,,,,,,,,,,,,,,,,,,sub-057,1.0,random_dot,60.15406659533334,
left,left,accuracy,,,,,0.0,1.0,1.0,0.0,5.0,0.0,10.0,0.0,559.5004540999998,,,,,,,,,559.4891164000001,559.8503409,560.6508617,560.6345974000001,560.6346677000001,560.6508617,560.6508617,560.6508617,,563.3843268999999,right,0.0,19.853420400000005,,,,,,,,,,,,,,,,,,,,,,,,,,,,,,sub-057,1.0,random_dot,60.15406659533334,
right,right,accuracy,,,,,0.0,1.0,1.0,0.0,5.0,1.0,11.0,1.0,563.3982164999998,,,,,,,,,563.3858719,564.1979766,564.9982349000002,564.9825342999998,564.9825802,564.9982349000002,564.9982349000002,564.9982349000002,,567.0164875999999,right,1.0,19.132007499999645,,,,,,,,,,,,,,,,,,,,,,,,,,,,,,sub-057,1.0,random_dot,60.15406659533334,
left,left,accuracy,,,,,0.0,1.0,1.0,0.0,6.0,0.0,12.0,0.0,567.029736,,,,,,,,,567.0182740999999,567.3796794999998,568.1798451,568.1636380999998,568.1636791000001,568.1798451,568.1798451,568.1798451,573.1773659,573.6958276,right,0.0,22.624510399999732,,,,,,,,,,,,,,,,,,,,,,,,,,,,,,sub-057,1.0,random_dot,60.15406659533334,
right,right,accuracy,,,,,0.0,1.0,1.0,0.0,6.0,1.0,13.0,1.0,573.7092137999998,,,,,,,,,573.6973753000002,574.9083721000002,575.7090543999998,575.6937358999999,575.6937965000002,575.7090543999998,575.7090543999998,575.7090543999998,,579.0761269999998,right,1.0,20.48406,,,,,,,,,,,,,,,,,,,,,,,,,,,,,,sub-057,1.0,random_dot,60.15406659533334,
right,right,accuracy,,,,,0.0,1.0,1.0,0.0,7.0,0.0,14.0,1.0,579.0898772,,,,,,,,,579.0777990000001,579.1896799000001,579.9901657999999,579.9744724000002,579.9745269999999,579.9901657999999,579.9901657999999,579.9901657999999,,582.5256828000001,right,1.0,19.65810429999988,,,,,,,,,,,,,,,,,,,,,,,,,,,,,,sub-057,1.0,random_dot,60.15406659533334,
left,left,accuracy,,,,,0.0,1.0,1.0,0.0,7.0,1.0,15.0,0.0,582.537742,,,,,,,,,582.5273404999998,583.7372378999999,584.5375797000002,584.5215466,584.5215908999999,584.5375797000002,584.5375797000002,584.5375797000002,,586.6396906,left,1.0,19.21493839999971,,,,,,,,,,,,,,,,,,,,,,,,,,,,,,sub-057,1.0,random_dot,60.15406659533334,
left,left,accuracy,,,,,0.0,1.0,1.0,0.0,8.0,0.0,16.0,0.0,586.6520988000002,,,,,,,,,586.6413901000001,587.0020608999998,587.8024555000002,587.7862187000001,587.7862608,587.8024555000002,587.8024555000002,587.8024555000002,,590.3541316000001,right,0.0,19.66819499999997,,,,,,,,,,,,,,,,,,,,,,,,,,,,,,sub-057,1.0,random_dot,60.15406659533334,
right,right,accuracy,,,,,0.0,1.0,1.0,0.0,8.0,1.0,17.0,1.0,590.3668716000002,,,,,,,,,590.3557873,591.5661654999999,592.3665655999998,592.3507441000002,592.3508020999998,592.3665655999998,592.3665655999998,592.3665655999998,,596.0675041,left,0.0,20.820858499999986,,,,,,,,,,,,,,,,,,,,,,,,,,,,,,sub-057,1.0,random_dot,60.15406659533334,
left,left,accuracy,,,,,0.0,1.0,1.0,0.0,9.0,0.0,18.0,0.0,596.0801829000002,,,,,,,,,596.0688635000001,596.1802283000002,596.9805624,596.9651236999998,596.9651681999999,596.9805624,596.9805624,596.9805624,,601.0142443999998,left,1.0,21.14467619999982,,,,,,,,,,,,,,,,,,,,,,,,,,,,,,sub-057,1.0,random_dot,60.15406659533334,
right,right,accuracy,,,,,0.0,1.0,1.0,0.0,9.0,1.0,19.0,1.0,601.0273941999999,,,,,,,,,601.0161435,602.2272702999999,603.0272903,603.0113928999999,603.0114351000002,603.0272903,603.0272903,603.0272903,,605.8280040999998,right,1.0,19.921243600000025,,,,,,,,,,,,,,,,,,,,,,,,,,,,,,sub-057,1.0,random_dot,60.15406659533334,
right,right,accuracy,,,,,0.0,1.0,1.0,0.0,10.0,0.0,20.0,1.0,605.8412988999999,,,,,,,,,605.8297948999998,606.1912935,606.9921295999998,606.9764393999999,606.9764873999998,606.9921295999998,606.9921295999998,606.9921295999998,,609.9089493000001,right,1.0,20.02907859999982,,,,,,,,,,,,,,,,,,,,,,,,,,,,,,sub-057,1.0,random_dot,60.15406659533334,
left,left,accuracy,,,,,0.0,1.0,1.0,0.0,10.0,1.0,21.0,0.0,609.9224924,,,,,,,,,609.9106530999998,610.0228385999999,610.8231464,610.8071747999998,610.8072200000001,610.8231464,610.8231464,610.8231464,,615.3733895,right,0.0,21.662332500000275,,,,,,,,,,,,,,,,,,,,,,,,,,,,,,sub-057,1.0,random_dot,60.15406659533334,
left,left,accuracy,,,,,0.0,1.0,1.0,0.0,11.0,0.0,22.0,0.0,615.3861596000002,,,,,,,,,615.37525,616.1858664000001,616.9859787999999,616.9706179,616.9706821999998,616.9859787999999,616.9859787999999,616.9859787999999,,618.6057857000001,left,1.0,18.742983400000185,,,,,,,,,,,,,,,,,,,,,,,,,,,,,,sub-057,1.0,random_dot,60.15406659533334,
right,right,accuracy,,,,,0.0,1.0,1.0,0.0,11.0,1.0,23.0,1.0,618.6176197999998,,,,,,,,,618.6074391000002,618.9678987000002,619.7681152,619.7524355999999,619.7524809000001,619.7681152,619.7681152,619.7681152,,621.9030386,right,1.0,19.251849900000025,,,,,,,,,,,,,,,,,,,,,,,,,,,,,,sub-057,1.0,random_dot,60.15406659533334,
right,right,accuracy,,,,,0.0,1.0,1.0,0.0,12.0,0.0,24.0,1.0,621.9159033000001,,,,,,,,,621.9048312,622.7155905999998,623.5162196000001,623.5004611999998,623.5005043000001,623.5162196000001,623.5162196000001,623.5162196000001,,627.0662425,right,1.0,20.661746900000026,,,,,,,,,,,,,,,,,,,,,,,,,,,,,,sub-057,1.0,random_dot,60.15406659533334,
left,left,accuracy,,,,,0.0,1.0,1.0,0.0,12.0,1.0,25.0,0.0,627.0796709000001,,,,,,,,,627.0679977999998,628.2790596999998,629.0794148999998,629.0639449999999,629.0639884000002,629.0794148999998,629.0794148999998,629.0794148999998,634.0768480000002,635.5451788999999,right,0.0,23.573782899999745,,,,,,,,,,,,,,,,,,,,,,,,,,,,,,sub-057,1.0,random_dot,60.15406659533334,
right,right,accuracy,,,,,0.0,1.0,1.0,0.0,13.0,0.0,26.0,1.0,635.5586294,,,,,,,,,635.5465715999999,635.9083298,636.7086209999998,636.6929869,636.6930312,636.7086209999998,636.7086209999998,636.7086209999998,,640.9759730999999,right,1.0,21.3862201999998,,,,,,,,,,,,,,,,,,,,,,,,,,,,,,sub-057,1.0,random_dot,60.15406659533334,
left,left,accuracy,,,,,0.0,1.0,1.0,0.0,13.0,1.0,27.0,0.0,640.9888277,,,,,,,,,640.9775478000001,642.1890306,643.0054577000001,642.9897692,642.9898143,643.0054577000001,643.0054577000001,643.0054577000001,648.0034251000002,649.3707184999998,left,1.0,23.476031899999956,,,,,,,,,,,,,,,,,,,,,,,,,,,,,,sub-057,1.0,random_dot,60.15406659533334,
right,right,accuracy,,,,,0.0,1.0,1.0,0.0,14.0,0.0,28.0,1.0,649.3848096000002,,,,,,,,,649.3721945000002,649.7340045000001,650.5348724,650.5186095999998,650.5186521999999,650.5348724,650.5348724,650.5348724,,652.5867738000002,right,1.0,19.158842499999764,,,,,,,,,,,,,,,,,,,,,,,,,,,,,,sub-057,1.0,random_dot,60.15406659533334,
left,left,accuracy,,,,,0.0,1.0,1.0,0.0,14.0,1.0,29.0,0.0,652.5996040999999,,,,,,,,,652.5883660999998,652.6991856,653.4997143999999,653.4837662999998,653.4838114999998,653.4997143999999,653.4997143999999,653.4997143999999,,658.1159834999999,right,0.0,21.736787200000208,,,,,,,,,,,,,,,,,,,,,,,,,,,,,,sub-057,1.0,random_dot,60.15406659533334,
right,right,accuracy,,,,,0.0,1.0,1.0,0.0,15.0,0.0,30.0,1.0,658.1297611,,,,,,,,,658.1176181999999,658.4795101999998,659.28089,659.2637447000002,659.2637915,659.28089,659.28089,659.28089,,662.9986343999999,right,1.0,20.835162799999807,,,,,,,,,,,,,,,,,,,,,,,,,,,,,,sub-057,1.0,random_dot,60.15406659533334,
left,left,accuracy,,,,,0.0,1.0,1.0,0.0,15.0,1.0,31.0,0.0,663.0098554000001,,,,,,,,,663.0003112999998,663.8098191999998,664.6099193,664.595233,664.5952773999998,664.6099193,664.6099193,664.6099193,669.6069441,670.3101680999998,right,0.0,22.809390199999825,,,,,,,,,,,,,,,,,,,,,,,,,,,,,,sub-057,1.0,random_dot,60.15406659533334,
left,left,accuracy,,,,,0.0,1.0,1.0,0.0,16.0,0.0,32.0,0.0,670.3226679999998,,,,,,,,,670.3118058999999,670.4226141999998,671.2231301000002,671.2073006,671.2073457000001,671.2231301000002,671.2231301000002,671.2231301000002,,674.7410619000002,left,1.0,20.63386229999992,,,,,,,,,,,,,,,,,,,,,,,,,,,,,,sub-057,1.0,random_dot,60.15406659533334,
right,right,accuracy,,,,,0.0,1.0,1.0,0.0,16.0,1.0,33.0,1.0,674.7535131999998,,,,,,,,,674.7427068000002,675.1032599,675.9037239999998,675.8880961999998,675.8881740000002,675.9037239999998,675.9037239999998,675.9037239999998,,679.0707105000001,left,0.0,20.279249299999947,,,,,,,,,,,,,,,,,,,,,,,,,,,,,,sub-057,1.0,random_dot,60.15406659533334,
right,right,accuracy,,,,,0.0,1.0,1.0,0.0,17.0,0.0,34.0,1.0,679.0843848,,,,,,,,,679.0725957,679.1841602999998,679.9850068999999,679.9688927000002,679.9689348000002,679.9850068999999,679.9850068999999,679.9850068999999,,683.6519155000001,left,0.0,20.788480099999788,,,,,,,,,,,,,,,,,,,,,,,,,,,,,,sub-057,1.0,random_dot,60.15406659533334,
left,left,accuracy,,,,,0.0,1.0,1.0,0.0,17.0,1.0,35.0,0.0,683.6652561000001,,,,,,,,,683.6536159000002,684.0149169000001,684.8157209000001,684.7993376,684.7993959,684.8157209000001,684.8157209000001,684.8157209000001,,687.616904,right,0.0,19.91445439999984,,,,,,,,,,,,,,,,,,,,,,,,,,,,,,sub-057,1.0,random_dot,60.15406659533334,
right,right,accuracy,,,,,0.0,1.0,1.0,0.0,18.0,0.0,36.0,1.0,687.6297224999998,,,,,,,,,687.6187525,687.9795384999998,688.7801083999998,688.7657080999998,688.7657654999998,688.7801083999998,688.7801083999998,688.7801083999998,693.777266,695.9448487,right,1.0,24.28588390000027,,,,,,,,,,,,,,,,,,,,,,,,,,,,,,sub-057,1.0,random_dot,60.15406659533334,
left,left,accuracy,,,,,0.0,1.0,1.0,0.0,18.0,1.0,37.0,0.0,695.9586522,,,,,,,,,695.9466054999998,697.1576163999998,697.9582684000002,697.9424549,697.9424970999999,697.9582684000002,697.9582684000002,697.9582684000002,,701.2262064000001,left,1.0,20.38411089999977,,,,,,,,,,,,,,,,,,,,,,,,,,,,,,sub-057,1.0,random_dot,60.15406659533334,
left,left,accuracy,,,,,0.0,1.0,1.0,0.0,19.0,0.0,38.0,0.0,701.2384717,,,,,,,,,701.2278244999998,702.0383569,702.8388100000002,702.8233439,702.8233879999998,702.8388100000002,702.8388100000002,702.8388100000002,,704.890598,left,1.0,19.15992110000002,,,,,,,,,,,,,,,,,,,,,,,,,,,,,,sub-057,1.0,random_dot,60.15406659533334,
right,right,accuracy,,,,,0.0,1.0,1.0,0.0,19.0,1.0,39.0,1.0,704.9037302000002,,,,,,,,,704.8919299999998,705.0033066999999,705.8040931999999,705.7874722000001,705.7875267,705.8040931999999,705.8040931999999,705.8040931999999,,708.0054970000001,left,0.0,19.31645450000019,,,,,,,,,,,,,,,,,,,,,,,,,,,,,,sub-057,1.0,random_dot,60.15406659533334,
left,left,accuracy,,,,,0.0,1.0,1.0,0.0,20.0,0.0,40.0,0.0,708.0184555999999,,,,,,,,,708.0070799,708.1184182000002,708.9191049000001,708.9024469000001,708.9024831000002,708.9191049000001,708.9191049000001,708.9191049000001,,710.4877313000002,left,1.0,18.68954559999952,,,,,,,,,,,,,,,,,,,,,,,,,,,,,,sub-057,1.0,random_dot,60.15406659533334,
right,right,accuracy,,,,,0.0,1.0,1.0,0.0,20.0,1.0,41.0,1.0,710.5004989999998,,,,,,,,,710.4891864000001,710.6006593000002,711.400987,711.3856916999998,711.3857361999999,711.400987,711.400987,711.400987,,714.6855621999998,right,1.0,20.40414059999989,,,,,,,,,,,,,,,,,,,,,,,,,,,,,,sub-057,1.0,random_dot,60.15406659533334,
left,left,accuracy,,,,,0.0,1.0,1.0,0.0,21.0,0.0,42.0,0.0,714.6981544,,,,,,,,,714.6871411000002,715.0483307,715.8481879999999,715.8336838,715.8337283999999,715.8481879999999,715.8481879999999,715.8481879999999,,719.4334948000001,right,0.0,20.69466339999985,,,,,,,,,,,,,,,,,,,,,,,,,,,,,,sub-057,1.0,random_dot,60.15406659533334,
right,right,accuracy,,,,,0.0,1.0,1.0,0.0,21.0,1.0,43.0,1.0,719.4455291999998,,,,,,,,,719.4350178999998,719.7961776000002,720.6127522000002,720.5959472999998,720.5959886999999,720.6127522000002,720.6127522000002,720.6127522000002,,722.1481678999999,right,1.0,18.64885590000017,,,,,,,,,,,,,,,,,,,,,,,,,,,,,,sub-057,1.0,random_dot,60.15406659533334,
left,left,accuracy,,,,,0.0,1.0,1.0,0.0,22.0,0.0,44.0,0.0,722.1606428,,,,,,,,,722.1496433000002,722.9598774000001,723.7609105000001,723.7449531000002,723.7449934000001,723.7609105000001,723.7609105000001,723.7609105000001,,726.2963334000001,left,1.0,19.649232299999998,,,,,,,,,,,,,,,,,,,,,,,,,,,,,,sub-057,1.0,random_dot,60.15406659533334,
right,right,accuracy,,,,,0.0,1.0,1.0,0.0,22.0,1.0,45.0,1.0,726.3084960000001,,,,,,,,,726.2977470000001,726.6585793999998,727.4585477,727.4422595000001,727.4422917000002,727.4585477,727.4585477,727.4585477,732.4561528999998,733.5721628000001,left,0.0,23.22540589999994,,,,,,,,,,,,,,,,,,,,,,,,,,,,,,sub-057,1.0,random_dot,60.15406659533334,
right,right,accuracy,,,,,0.0,1.0,1.0,0.0,23.0,0.0,46.0,1.0,733.5873732,,,,,,,,,733.5754753000001,733.6877531,734.4882963,734.4720714,734.4721218,734.4882963,734.4882963,734.4882963,,736.6726604,right,1.0,19.29811790000008,,,,,,,,,,,,,,,,,,,,,,,,,,,,,,sub-057,1.0,random_dot,60.15406659533334,
left,left,accuracy,,,,,0.0,1.0,1.0,0.0,23.0,1.0,47.0,0.0,736.6857715000001,,,,,,,,,736.6757400000001,737.8854096999999,738.6858965000001,738.6699822,738.6700251000002,738.6858965000001,738.6858965000001,738.6858965000001,,742.6692490999999,left,1.0,21.10247720000029,,,,,,,,,,,,,,,,,,,,,,,,,,,,,,sub-057,1.0,random_dot,60.15406659533334,
right,right,accuracy,,,,,0.0,1.0,1.0,0.0,24.0,0.0,48.0,1.0,742.682593,,,,,,,,,742.6707170999998,743.4820608999999,744.2830463999999,744.2665794,744.2666150999999,744.2830463999999,744.2830463999999,744.2830463999999,,746.8016601999998,left,0.0,19.640137300000102,,,,,,,,,,,,,,,,,,,,,,,,,,,,,,sub-057,1.0,random_dot,60.15406659533334,
left,left,accuracy,,,,,0.0,1.0,1.0,0.0,24.0,1.0,49.0,0.0,746.8136077999998,,,,,,,,,746.8035162000001,748.0130519999998,748.8135238999998,748.7982189999998,748.7982680999999,748.8135238999998,748.8135238999998,748.8135238999998,,751.0313414000002,left,1.0,19.3262401999998,,,,,,,,,,,,,,,,,,,,,,,,,,,,,,sub-057,1.0,random_dot,60.15406659533334,
right,right,accuracy,,,,,0.0,1.0,1.0,0.0,25.0,0.0,50.0,1.0,751.0449803000001,,,,,,,,,751.0327440000001,752.2444310000001,753.0449478999999,753.0300599000002,753.0301091000001,753.0449478999999,753.0449478999999,753.0449478999999,,755.9460807,right,1.0,20.015040499999717,,,,,,,,,,,,,,,,,,,,,,,,,,,,,,sub-057,1.0,random_dot,60.15406659533334,
left,left,accuracy,,,,,0.0,1.0,1.0,0.0,25.0,1.0,51.0,0.0,755.9590014999999,,,,,,,,,755.9474568,756.7581921999999,757.5572180999998,757.5427276,757.5427657,757.5572180999998,757.5572180999998,757.5572180999998,,762.174285,left,1.0,21.733516100000315,,,,,,,,,,,,,,,,,,,,,,,,,,,,,,sub-057,1.0,random_dot,60.15406659533334,
left,left,accuracy,,,,,0.0,1.0,1.0,0.0,26.0,0.0,52.0,0.0,762.1881563000002,,,,,,,,,762.1755029000001,762.5392542999998,763.3553661999999,763.3410079999999,763.3410632999999,763.3553661999999,763.3553661999999,763.3553661999999,,766.1906217999999,left,1.0,19.946180099999992,,,,,,,,,,,,,,,,,,,,,,,,,,,,,,sub-057,1.0,random_dot,60.15406659533334,
right,right,accuracy,,,,,0.0,1.0,1.0,0.0,26.0,1.0,53.0,1.0,766.2030017000002,,,,,,,,,766.1919072999999,766.3036762000002,767.1199600999998,767.1046335999999,767.1046772,767.1199600999998,767.1199600999998,767.1199600999998,,770.6368736999998,right,1.0,20.63886239999988,,,,,,,,,,,,,,,,,,,,,,,,,,,,,,sub-057,1.0,random_dot,60.15406659533334,
left,left,accuracy,,,,,0.0,1.0,1.0,0.0,27.0,0.0,54.0,0.0,770.6503241999999,,,,,,,,,770.6383682999999,771.4498518999999,772.2503108999999,772.2344886000001,772.2345439000001,772.2503108999999,772.2503108999999,772.2503108999999,,776.0671449000001,left,1.0,20.924948099999938,,,,,,,,,,,,,,,,,,,,,,,,,,,,,,sub-057,1.0,random_dot,60.15406659533334,
right,right,accuracy,,,,,0.0,1.0,1.0,0.0,27.0,1.0,55.0,1.0,776.080841,,,,,,,,,776.0690460000001,776.1809773,776.9816120999999,776.9648935999999,776.9649288,776.9816120999999,776.9816120999999,776.9816120999999,781.9799385000001,783.0974821,right,1.0,23.22478849999993,,,,,,,,,,,,,,,,,,,,,,,,,,,,,,sub-057,1.0,random_dot,60.15406659533334,
right,right,accuracy,,,,,0.0,1.0,1.0,0.0,28.0,0.0,56.0,1.0,783.1102897999999,,,,,,,,,783.0988315,783.460098,784.2611474999999,784.2459927999998,784.2460341999999,784.2611474999999,784.2611474999999,784.2611474999999,789.2579170999998,789.3277032999999,left,0.0,22.18269860000032,,,,,,,,,,,,,,,,,,,,,,,,,,,,,,sub-057,1.0,random_dot,60.15406659533334,
left,left,accuracy,,,,,0.0,1.0,1.0,0.0,28.0,1.0,57.0,0.0,789.3399310999998,,,,,,,,,789.3293368999998,789.44101,790.240378,790.2255515000002,790.2256023,790.240378,790.240378,790.240378,,793.8242273000001,left,1.0,20.69894149999959,,,,,,,,,,,,,,,,,,,,,,,,,,,,,,sub-057,1.0,random_dot,60.15406659533334,
left,left,accuracy,,,,,0.0,1.0,1.0,0.0,29.0,0.0,58.0,0.0,793.8372608999998,,,,,,,,,793.8258242000002,794.6374196000002,795.4391295,795.4217681999999,795.4218022,795.4391295,795.4391295,795.4391295,,797.8730288000002,left,1.0,19.551572500000248,,,,,,,,,,,,,,,,,,,,,,,,,,,,,,sub-057,1.0,random_dot,60.15406659533334,
right,right,accuracy,,,,,0.0,1.0,1.0,0.0,29.0,1.0,59.0,1.0,797.8853296000002,,,,,,,,,797.8744305,798.2356513999998,799.0357125999999,799.0215751000001,799.0216237999998,799.0357125999999,799.0357125999999,799.0357125999999,,800.6548348000001,right,1.0,18.730795899999748,,,,,,,,,,,,,,,,,,,,,,,,,,,,,,sub-057,1.0,random_dot,60.15406659533334,
,,accuracy,,,,,0.0,1.0,1.0,0.0,,,,,,,,,,,,,,,,,,,,,,,,,,,,,,,,,,,,,,,,,,,,,,,,,,,,,,,,sub-057,1.0,random_dot,60.15406659533334,
,,,,,,,,,,,,,,,,,,,,,,,,,,,,,,,,,,,,,,,,,,,,,,,,,,,,,,,,,,,,,,,800.6560705000002,800.6669922000001,805.6652334999999,sub-057,,,,
