direction,corrAns,randomInstr,practice_trials.thisRepN,practice_trials.thisTrialN,practice_trials.thisN,practice_trials.thisIndex,instr_trials.thisRepN,instr_trials.thisTrialN,instr_trials.thisN,instr_trials.thisIndex,test_trials.thisRepN,test_trials.thisTrialN,test_trials.thisN,test_trials.thisIndex,thisRow.t,notes,general_instruction.started,textGeneralInstr.started,respGeneralInstr.started,general_instruction.stopped,respGeneralInstr.keys,respGeneralInstr.rt,respGeneralInstr.duration,ITI.started,fixcross.started,fixcross.stopped,ITI.stopped,dots.started,backgroundDots.started,stimulusDots.started,respDots.started,stimulusDots.stopped,dots.stopped,respDots.keys,respDots.corr,respDots.rt,respDots.duration,feedback.started,textFeedback.started,feedback.stopped,textFeedback.stopped,info.started,textInfo.started,keyRespInfo.started,info.stopped,keyRespInfo.keys,keyRespInfo.rt,keyRespInfo.duration,test_instruction.started,textTestInstr.started,respTestInstr.started,test_instruction.stopped,respTestInstr.keys,respTestInstr.rt,respTestInstr.duration,random_instruction.started,textRandomInstr.started,respRandomInstr.started,random_instruction.stopped,respRandomInstr.keys,respRandomInstr.rt,respRandomInstr.duration,goodbye.started,textGoodbye.started,goodbye.stopped,participant,session,expName,frameRate,Unnamed: 73
,,,,,,,,,,,,,,,,,0.0096594999999979,0.0309424000001854,0.0309424000001854,24.168140300000232,space,70.87855940000009,,,,,,,,,,,,,,,,,,,,,,,,,,,,,,,,,,,,,,,,,,,,sub-031,1.0,random_dot,59.93924558067472,
left,left,,0.0,0.0,0.0,0.0,,,,,,,,,24.22472880000032,,,,,,,,,24.213593200000105,24.98259099999996,25.7878039000002,25.766707700000097,25.766757400000188,25.7878039000002,25.7878039000002,25.7878039000002,30.77193410000018,38.95155960000011,right,0.0,59.91519329999937,,38.95439220000026,38.996870500000114,39.46556120000014,,,,,,,,,,,,,,,,,,,,,,,,,,sub-031,1.0,random_dot,59.93924558067472,
right,right,,0.0,1.0,1.0,1.0,,,,,,,,,39.48191780000025,,,,,,,,,39.46655520000013,40.665235100000245,41.46762430000035,41.4497937000001,41.449841800000286,41.46762430000035,41.46762430000035,41.46762430000035,46.44974330000014,48.93422290000035,right,1.0,54.20620239999971,,48.93543,48.966447300000254,49.448769600000105,,,,,,,,,,,,,,,,,,,,,,,,,,sub-031,1.0,random_dot,59.93924558067472,
right,right,,1.0,0.0,2.0,1.0,,,,,,,,,49.46509390000029,,,,,,,,,49.44979379999995,50.24832650000008,51.051089200000206,51.03328690000035,51.03333090000024,51.051089200000206,51.051089200000206,51.051089200000206,56.04876860000013,57.35104990000036,right,1.0,53.036194799999976,,57.35230189999993,57.367256,57.86529780000001,,,,,,,,,,,,,,,,,,,,,,,,,,sub-031,1.0,random_dot,59.93924558067472,
left,left,,1.0,1.0,3.0,0.0,,,,,,,,,57.881601200000205,,,,,,,,,57.8666290000001,58.21489780000002,59.01771450000024,58.99984020000011,58.9998843000003,59.01771450000024,59.01771450000024,59.01771450000024,64.00453719999996,64.88414310000007,left,1.0,52.61483799999951,,64.88539170000013,64.9012315,65.39852640000026,,,,,,,,,,,,,,,,,,,,,,,,,,sub-031,1.0,random_dot,59.93924558067472,
left,left,,2.0,0.0,4.0,0.0,,,,,,,,,65.41475690000016,,,,,,,,,65.39953460000015,66.19803290000027,67.0007757000003,66.98294000000033,66.9829864000003,67.0007757000003,67.0007757000003,67.0007757000003,71.98769280000033,72.86698810000007,right,0.0,52.614870099999735,,72.86819349999996,72.8891864000002,73.38178570000036,,,,,,,,,,,,,,,,,,,,,,,,,,sub-031,1.0,random_dot,59.93924558067472,
right,right,,2.0,1.0,5.0,1.0,,,,,,,,,73.39799960000028,,,,,,,,,73.38278170000012,73.48125000000027,74.28441740000017,74.26583019999998,74.26587770000015,74.28441740000017,74.28441740000017,74.28441740000017,79.2812428000002,79.93873650000023,right,1.0,52.4057085999998,,79.9402814,79.96466989999999,80.44900140000027,,,,,,,,,,,,,,,,,,,,,,,,,,sub-031,1.0,random_dot,59.93924558067472,
left,left,,3.0,0.0,6.0,0.0,,,,,,,,,80.46498810000003,,,,,,,,,80.45013280000012,81.64901860000009,82.45397330000014,82.43477690000009,82.4348344,82.45397330000014,82.45397330000014,82.45397330000014,,84.1142989,left,1.0,48.41177169999946,,84.11586080000006,84.13265739999997,84.6161046000002,,,,,,,,,,,,,,,,,,,,,,,,,,sub-031,1.0,random_dot,59.93924558067472,
right,right,,3.0,1.0,7.0,1.0,,,,,,,,,84.6317027,,,,,,,,,84.61726320000025,85.41564420000032,86.22059630000012,86.20036010000013,86.20041720000017,86.22059630000012,86.22059630000012,86.22059630000012,,87.33623260000013,right,1.0,47.85967169999958,,87.33773109999993,87.35390570000027,87.85036149999996,,,,,,,,,,,,,,,,,,,,,,,,,,sub-031,1.0,random_dot,59.93924558067472,
left,left,,4.0,0.0,8.0,0.0,,,,,,,,,87.86506469999995,,,,,,,,,87.85163069999999,87.9486551,88.7545954000002,88.73473130000002,88.73478810000006,88.7545954000002,88.7545954000002,88.7545954000002,93.73769110000012,94.90722970000024,left,1.0,52.89549699999952,,94.90886180000008,94.92360499999997,95.41639179999991,,,,,,,,,,,,,,,,,,,,,,,,,,sub-031,1.0,random_dot,59.93924558067472,
right,right,,4.0,1.0,9.0,1.0,,,,,,,,,95.43152280000004,,,,,,,,,95.41790870000024,96.61555420000012,97.42055449999998,97.40075230000002,97.40080990000024,97.42055449999998,97.42055449999998,97.42055449999998,,98.64292100000011,right,1.0,47.96569549999958,,98.64474000000018,98.65980940000009,99.14878350000026,,,,,,,,,,,,,,,,,,,,,,,,,,sub-031,1.0,random_dot,59.93924558067472,
left,left,,5.0,0.0,10.0,0.0,,,,,,,,,99.16442670000016,,,,,,,,,99.14993350000032,99.49815460000036,100.30257370000028,100.2834702,100.28352330000008,100.30257370000028,100.30257370000028,100.30257370000028,,103.85229670000037,left,1.0,50.286577999999736,,103.85380609999991,103.8698432000001,104.36535000000003,,,,,,,,,,,,,,,,,,,,,,,,,,sub-031,1.0,random_dot,59.93924558067472,
right,right,,5.0,1.0,11.0,1.0,,,,,,,,,104.38145110000004,,,,,,,,,104.36666170000036,105.1656363000002,105.96996220000028,105.94990020000024,105.9499592000002,105.96996220000028,105.96996220000028,105.96996220000028,,107.02092859999992,right,1.0,47.801682799999526,,107.0224688000003,107.0381867000001,107.53260850000017,,,,,,,,,,,,,,,,,,,,,,,,,,sub-031,1.0,random_dot,59.93924558067472,
right,right,,6.0,0.0,12.0,1.0,,,,,,,,,107.54820680000012,,,,,,,,,107.53436710000004,107.63148780000029,108.43598969999994,108.41684669999997,108.4169065000001,108.43598969999994,108.43598969999994,108.43598969999994,,110.30278010000028,right,1.0,48.61716660000002,,110.30380680000007,110.31840200000032,110.81389549999994,,,,,,,,,,,,,,,,,,,,,,,,,,sub-031,1.0,random_dot,59.93924558067472,
left,left,,6.0,1.0,13.0,0.0,,,,,,,,,110.83031389999996,,,,,,,,,110.81477530000028,110.91361600000027,111.71490949999998,111.69838860000029,111.69842880000031,111.71490949999998,111.71490949999998,111.71490949999998,,115.4976058000002,left,1.0,50.5190518999998,,115.49861550000014,115.51368150000008,115.99797370000032,116.01355980000017,,,,,,,,,,,,,,,,,,,,,,,,,sub-031,1.0,random_dot,59.93924558067472,
right,right,,7.0,0.0,14.0,1.0,,,,,,,,,116.01355980000017,,,,,,,,,115.99870120000014,116.11357980000002,116.9147143,116.8981643000002,116.89820630000033,116.9147143,116.9147143,116.9147143,,117.86829269999998,right,1.0,47.68976500000008,,117.86932019999996,117.88369090000016,118.38046890000032,,,,,,,,,,,,,,,,,,,,,,,,,,sub-031,1.0,random_dot,59.93924558067472,
left,left,,7.0,1.0,15.0,0.0,,,,,,,,,118.39733550000028,,,,,,,,,118.38124700000026,119.18015379999996,119.98158110000033,119.9645128000002,119.96455289999994,119.98158110000033,119.98158110000033,119.98158110000033,,121.98723410000002,left,1.0,48.7575225999999,,121.98827010000014,122.00267510000003,122.49705110000014,,,,,,,,,,,,,,,,,,,,,,,,,,sub-031,1.0,random_dot,59.93924558067472,
left,left,,8.0,0.0,16.0,0.0,,,,,,,,,122.5134025000002,,,,,,,,,122.49782300000015,123.69669740000018,124.4982355000002,124.4810950000001,124.48113560000002,124.4982355000002,124.4982355000002,124.4982355000002,,127.67150489999996,left,1.0,49.913765499999954,,127.67252820000022,127.69559690000006,128.18024760000026,,,,,,,,,,,,,,,,,,,,,,,,,,sub-031,1.0,random_dot,59.93924558067472,
right,right,,8.0,1.0,17.0,1.0,,,,,,,,,128.19665860000032,,,,,,,,,128.18120080000017,128.5300244,129.33135230000016,129.31442610000022,129.31446559999995,129.33135230000016,129.33135230000016,129.33135230000016,,130.23832420000008,right,1.0,47.65095489999976,,130.23935980000033,130.2529101,130.74687369999992,,,,,,,,,,,,,,,,,,,,,,,,,,sub-031,1.0,random_dot,59.93924558067472,
left,left,,9.0,0.0,18.0,0.0,,,,,,,,,130.7632423,,,,,,,,,130.7477487000001,130.8466888000003,131.64778670000032,131.63108660000034,131.63112590000037,131.64778670000032,131.64778670000032,131.64778670000032,,132.61733970000023,left,1.0,47.71436940000012,,132.61836330000006,132.6331855000003,133.13013500000034,,,,,,,,,,,,,,,,,,,,,,,,,,sub-031,1.0,random_dot,59.93924558067472,
right,right,,9.0,1.0,19.0,1.0,,,,,,,,,133.14675420000003,,,,,,,,,133.1309013,134.32988030000024,135.13133450000032,135.11417380000012,135.1142133000003,135.13133450000032,135.13133450000032,135.13133450000032,,136.07095700000036,right,1.0,47.67713799999956,,136.07196870000007,136.09559390000004,136.58003880000024,,,,,,,,,,,,,,,,,,,,,,,,,,sub-031,1.0,random_dot,59.93924558067472,
,,,,,,,,,,,,,,,,,,,,,,,,,,,,,,,,,,,,,,,,,,136.5802302000002,136.59650370000008,136.59650370000008,150.18153250000023,space,60.32186969999975,,,,,,,,,,,,,,,,,,,sub-031,1.0,random_dot,59.93924558067472,
,,,,,,,,,,,,,,,,,,,,,,,,,,,,,,,,,,,,,,,,,,,,,,,,,150.1815991000003,150.19691439999997,150.19691439999997,160.99779089999993,space,57.53818969999975,,,,,,,,,,,,sub-031,1.0,random_dot,59.93924558067472,
left,left,accuracy,,,,,0.0,0.0,0.0,0.0,0.0,0.0,0.0,0.0,167.30888890000006,,,,,,,,,167.29804300000023,168.49599669999998,169.2973161,169.2804897000001,169.28053120000004,169.2973161,169.2973161,169.2973161,,171.4542180000003,left,1.0,48.9032545,,,,,,,,,,,,,,,,,,,,161.00632080000014,161.06957319999992,161.06957319999992,167.28130790000023,space,52.96019350000006,,,,,sub-031,1.0,random_dot,59.93924558067472,
right,right,accuracy,,,,,0.0,0.0,0.0,0.0,0.0,1.0,1.0,1.0,171.4680953000002,,,,,,,,,171.45696210000006,171.56247150000036,172.36368500000026,172.34697460000007,172.34701160000031,172.36368500000026,172.36368500000026,172.36368500000026,177.3495594000001,178.48097150000012,right,1.0,52.86789489999956,,,,,,,,,,,,,,,,,,,,,,,,,,,,,,sub-031,1.0,random_dot,59.93924558067472,
right,right,accuracy,,,,,0.0,0.0,0.0,0.0,1.0,0.0,2.0,1.0,178.49605659999995,,,,,,,,,178.48302270000022,179.6956339000003,180.49671130000024,180.4801619,180.48019939999995,180.49671130000024,180.49671130000024,180.49671130000024,,181.9327918000004,right,1.0,48.17874799999981,,,,,,,,,,,,,,,,,,,,,,,,,,,,,,sub-031,1.0,random_dot,59.93924558067472,
left,left,accuracy,,,,,0.0,0.0,0.0,0.0,1.0,1.0,3.0,0.0,181.9478495000003,,,,,,,,,181.93522630000007,182.2955995000002,183.09668280000005,183.0801811000001,183.0802202,183.09668280000005,183.09668280000005,183.09668280000005,,183.97028720000023,left,1.0,47.6260529999995,,,,,,,,,,,,,,,,,,,,,,,,,,,,,,sub-031,1.0,random_dot,59.93924558067472,
left,left,accuracy,,,,,0.0,0.0,0.0,0.0,2.0,0.0,4.0,0.0,183.9847614,,,,,,,,,183.97233510000024,184.0789682,184.8801589,184.86348420000013,184.86352549999992,184.8801589,184.8801589,184.8801589,,187.78487500000028,left,1.0,49.6543230999996,,,,,,,,,,,,,,,,,,,,,,,,,,,,,,sub-031,1.0,random_dot,59.93924558067472,
right,right,accuracy,,,,,0.0,0.0,0.0,0.0,2.0,1.0,5.0,1.0,187.7997008000002,,,,,,,,,187.7869114,188.14548130000003,188.9466214000004,188.93006360000027,188.93010330000016,188.9466214000004,188.9466214000004,188.9466214000004,,189.8536878,right,1.0,47.64911119999988,,,,,,,,,,,,,,,,,,,,,,,,,,,,,,sub-031,1.0,random_dot,59.93924558067472,
left,left,accuracy,,,,,0.0,0.0,0.0,0.0,3.0,0.0,6.0,0.0,189.8777218,,,,,,,,,189.85576889999996,190.21220930000027,191.01302149999992,190.99640520000003,190.99644519999995,191.01302149999992,191.01302149999992,191.01302149999992,,191.9147712000004,left,1.0,47.65275359999987,,,,,,,,,,,,,,,,,,,,,,,,,,,,,,sub-031,1.0,random_dot,59.93924558067472,
right,right,accuracy,,,,,0.0,0.0,0.0,0.0,3.0,1.0,7.0,1.0,191.93154099999992,,,,,,,,,191.91781010000025,192.73035370000025,193.53576210000028,193.5156122000003,193.51567010000008,193.53576210000028,193.53576210000028,193.53576210000028,,194.42503149999996,right,1.0,47.631599899999856,,,,,,,,,,,,,,,,,,,,,,,,,,,,,,sub-031,1.0,random_dot,59.93924558067472,
right,right,accuracy,,,,,0.0,0.0,0.0,0.0,4.0,0.0,8.0,1.0,194.4399886000001,,,,,,,,,194.42862300000024,194.5299728,195.3355335000001,195.3156773000001,195.3157372000001,195.3355335000001,195.3355335000001,195.3355335000001,,196.28507420000005,right,1.0,47.69582939999964,,,,,,,,,,,,,,,,,,,,,,,,,,,,,,sub-031,1.0,random_dot,59.93924558067472,
left,left,accuracy,,,,,0.0,0.0,0.0,0.0,4.0,1.0,9.0,0.0,196.3016736,,,,,,,,,196.2881021000003,197.49678829999996,198.3025031000002,198.2815762,198.28163010000023,198.3025031000002,198.3025031000002,198.3025031000002,,200.19359080000004,left,1.0,48.63084039999967,,,,,,,,,,,,,,,,,,,,,,,,,,,,,,sub-031,1.0,random_dot,59.93924558067472,
left,left,accuracy,,,,,0.0,0.0,0.0,0.0,5.0,0.0,10.0,0.0,200.20753890000012,,,,,,,,,200.19665170000007,201.39741030000005,202.2012353,202.18207040000016,202.18213990000004,202.2012353,202.2012353,202.2012353,,203.66823580000028,right,0.0,48.21035959999972,,,,,,,,,,,,,,,,,,,,,,,,,,,,,,sub-031,1.0,random_dot,59.93924558067472,
right,right,accuracy,,,,,0.0,0.0,0.0,0.0,5.0,1.0,11.0,1.0,203.68499550000024,,,,,,,,,203.67169590000003,204.8796754,205.6856930000004,205.66626410000023,205.6663250000001,205.6856930000004,205.6856930000004,205.6856930000004,,206.52655600000023,right,1.0,47.577364199999465,,,,,,,,,,,,,,,,,,,,,,,,,,,,,,sub-031,1.0,random_dot,59.93924558067472,
right,right,accuracy,,,,,0.0,0.0,0.0,0.0,6.0,0.0,12.0,1.0,206.54115630000024,,,,,,,,,206.52975060000017,207.32824860000028,208.12886190000015,208.1124990000003,208.1125336,208.12886190000015,208.12886190000015,208.12886190000015,,208.89664540000007,right,1.0,47.51146059999974,,,,,,,,,,,,,,,,,,,,,,,,,,,,,,sub-031,1.0,random_dot,59.93924558067472,
left,left,accuracy,,,,,0.0,0.0,0.0,0.0,6.0,1.0,13.0,0.0,208.91168620000008,,,,,,,,,208.89838869999997,209.71168020000005,210.51199320000023,210.4957964,210.4958303000003,210.51199320000023,210.51199320000023,210.51199320000023,,211.3470255000002,left,1.0,47.58324849999963,,,,,,,,,,,,,,,,,,,,,,,,,,,,,,sub-031,1.0,random_dot,59.93924558067472,
right,right,accuracy,,,,,0.0,0.0,0.0,0.0,7.0,0.0,14.0,1.0,211.36165740000024,,,,,,,,,211.348978,212.16158160000032,212.96203080000032,212.9458565,212.94589080000011,212.96203080000032,212.96203080000032,212.96203080000032,,215.4133803,right,1.0,49.1993980999996,,,,,,,,,,,,,,,,,,,,,,,,,,,,,,sub-031,1.0,random_dot,59.93924558067472,
left,left,accuracy,,,,,0.0,0.0,0.0,0.0,7.0,1.0,15.0,0.0,215.4280967,,,,,,,,,215.41508939999997,216.62809210000023,217.42852700000003,217.4124416,217.41247610000028,217.42852700000003,217.42852700000003,217.42852700000003,,218.44649830000023,left,1.0,47.75531619999947,,,,,,,,,,,,,,,,,,,,,,,,,,,,,,sub-031,1.0,random_dot,59.93924558067472,
right,right,accuracy,,,,,0.0,0.0,0.0,0.0,8.0,0.0,16.0,1.0,218.46134960000015,,,,,,,,,218.44863900000016,219.6614389000001,220.4619653,220.44563599999992,220.44567140000024,220.4619653,220.4619653,220.4619653,,221.196414,right,1.0,47.48667869999963,,,,,,,,,,,,,,,,,,,,,,,,,,,,,,sub-031,1.0,random_dot,59.93924558067472,
left,left,accuracy,,,,,0.0,0.0,0.0,0.0,8.0,1.0,17.0,0.0,221.21141390000005,,,,,,,,,221.19814290000025,221.31131790000015,222.1116925000001,222.09569940000029,222.0957333000001,222.1116925000001,222.1116925000001,222.1116925000001,,223.4463974,left,1.0,48.08237439999948,,,,,,,,,,,,,,,,,,,,,,,,,,,,,,sub-031,1.0,random_dot,59.93924558067472,
left,left,accuracy,,,,,0.0,0.0,0.0,0.0,9.0,0.0,18.0,0.0,223.46121220000032,,,,,,,,,223.4481377000002,224.66129320000027,225.46177179999995,225.44551100000035,225.44554580000025,225.46177179999995,225.46177179999995,225.46177179999995,,226.26316510000012,left,1.0,47.53870710000001,,,,,,,,,,,,,,,,,,,,,,,,,,,,,,sub-031,1.0,random_dot,59.93924558067472,
right,right,accuracy,,,,,0.0,0.0,0.0,0.0,9.0,1.0,19.0,1.0,226.2779563000004,,,,,,,,,226.26493440000013,226.3779438000001,227.17833130000008,227.1622846,227.16232089999997,227.17833130000008,227.17833130000008,227.17833130000008,,227.8962978,right,1.0,47.4552577999998,,,,,,,,,,,,,,,,,,,,,,,,,,,,,,sub-031,1.0,random_dot,59.93924558067472,
right,right,accuracy,,,,,0.0,0.0,0.0,0.0,10.0,0.0,20.0,1.0,227.9112013000004,,,,,,,,,227.8980329000001,229.11127179999997,229.91159430000016,229.89548140000036,229.89551770000023,229.91159430000016,229.91159430000016,229.91159430000016,,234.1628429000002,right,1.0,51.00045460000001,,,,,,,,,,,,,,,,,,,,,,,,,,,,,,sub-031,1.0,random_dot,59.93924558067472,
left,left,accuracy,,,,,0.0,0.0,0.0,0.0,10.0,1.0,21.0,0.0,234.1777650000004,,,,,,,,,234.16457690000016,235.3777387,236.17809910000005,236.16202360000037,236.16205500000024,236.17809910000005,236.17809910000005,236.17809910000005,,237.09619049999992,left,1.0,47.66394659999969,,,,,,,,,,,,,,,,,,,,,,,,,,,,,,sub-031,1.0,random_dot,59.93924558067472,
left,left,accuracy,,,,,0.0,0.0,0.0,0.0,11.0,0.0,22.0,0.0,237.1110567000001,,,,,,,,,237.09795510000004,237.91119359999996,238.71142379999992,238.69536900000003,238.6954036000002,238.71142379999992,238.71142379999992,238.71142379999992,,242.14601280000036,left,1.0,50.17510020000009,,,,,,,,,,,,,,,,,,,,,,,,,,,,,,sub-031,1.0,random_dot,59.93924558067472,
right,right,accuracy,,,,,0.0,0.0,0.0,0.0,11.0,1.0,23.0,1.0,242.1610744,,,,,,,,,242.14821400000028,243.36096480000012,244.16168330000028,244.14524340000025,244.1452924,244.16168330000028,244.16168330000028,244.16168330000028,,245.01272890000016,right,1.0,47.5935230999994,,,,,,,,,,,,,,,,,,,,,,,,,,,,,,sub-031,1.0,random_dot,59.93924558067472,
right,right,accuracy,,,,,0.0,0.0,0.0,0.0,12.0,0.0,24.0,1.0,245.0275418000001,,,,,,,,,245.01460130000032,245.3775939000002,246.17797020000037,246.16192210000008,246.16195689999995,246.17797020000037,246.17797020000037,246.17797020000037,251.1768794,251.5489021000003,left,0.0,52.1116219999999,,,,,,,,,,,,,,,,,,,,,,,,,,,,,,sub-031,1.0,random_dot,59.93924558067472,
left,left,accuracy,,,,,0.0,0.0,0.0,0.0,12.0,1.0,25.0,0.0,251.5642991,,,,,,,,,251.55132900000035,251.91110830000025,252.7140548000002,252.69615449999992,252.6962026000001,252.7140548000002,252.7140548000002,252.7140548000002,,255.1956528000001,left,1.0,49.23096779999969,,,,,,,,,,,,,,,,,,,,,,,,,,,,,,sub-031,1.0,random_dot,59.93924558067472,
left,left,accuracy,,,,,0.0,0.0,0.0,0.0,13.0,0.0,26.0,0.0,255.21228930000007,,,,,,,,,255.19809250000023,256.4143733000001,257.2268363000003,257.21109419999993,257.21112029999995,257.2268363000003,257.2268363000003,257.2268363000003,,258.1113807000001,left,1.0,47.62409909999951,,,,,,,,,,,,,,,,,,,,,,,,,,,,,,sub-031,1.0,random_dot,59.93924558067472,
right,right,accuracy,,,,,0.0,0.0,0.0,0.0,13.0,1.0,27.0,1.0,258.1270617,,,,,,,,,258.11255580000034,258.9120842000002,259.7170616000003,259.6975719000002,259.6976305000003,259.7170616000003,259.7170616000003,259.7170616000003,,260.4820831000002,right,1.0,47.49878599999965,,,,,,,,,,,,,,,,,,,,,,,,,,,,,,sub-031,1.0,random_dot,59.93924558067472,
right,right,accuracy,,,,,0.0,0.0,0.0,0.0,14.0,0.0,28.0,1.0,260.4990482000003,,,,,,,,,260.48509250000006,260.59506690000035,261.3999477000002,261.3805586000003,261.38061800000014,261.3999477000002,261.3999477000002,261.3999477000002,,262.29270640000004,right,1.0,47.63909559999957,,,,,,,,,,,,,,,,,,,,,,,,,,,,,,sub-031,1.0,random_dot,59.93924558067472,
left,left,accuracy,,,,,0.0,0.0,0.0,0.0,14.0,1.0,29.0,0.0,262.3073999000003,,,,,,,,,262.2957080000001,262.3951377000003,263.2001329,263.1810164000003,263.18108230000007,263.2001329,263.2001329,263.2001329,,264.029904,left,1.0,47.57872789999965,,,,,,,,,,,,,,,,,,,,,,,,,,,,,,sub-031,1.0,random_dot,59.93924558067472,
left,left,accuracy,,,,,0.0,0.0,0.0,0.0,15.0,0.0,30.0,0.0,264.0472447000002,,,,,,,,,264.0330144,264.14497600000004,264.94937690000006,264.9301455,264.9302047000001,264.94937690000006,264.94937690000006,264.94937690000006,,266.1089001,left,1.0,47.891398099999606,,,,,,,,,,,,,,,,,,,,,,,,,,,,,,sub-031,1.0,random_dot,59.93924558067472,
right,right,accuracy,,,,,0.0,0.0,0.0,0.0,15.0,1.0,31.0,1.0,266.1242200000001,,,,,,,,,266.1129205000002,266.4616132000001,267.2660154,267.2468358000001,267.24690260000034,267.2660154,267.2660154,267.2660154,,268.37752690000025,right,1.0,47.85529209999959,,,,,,,,,,,,,,,,,,,,,,,,,,,,,,sub-031,1.0,random_dot,59.93924558067472,
right,right,accuracy,,,,,0.0,0.0,0.0,0.0,16.0,0.0,32.0,1.0,268.3935690000003,,,,,,,,,268.3785848000002,269.19331520000014,269.99387620000016,269.9776385,269.9776707000001,269.99387620000016,269.99387620000016,269.99387620000016,,270.7614386,right,1.0,47.52002369999991,,,,,,,,,,,,,,,,,,,,,,,,,,,,,,sub-031,1.0,random_dot,59.93924558067472,
left,left,accuracy,,,,,0.0,0.0,0.0,0.0,16.0,1.0,33.0,0.0,270.7769721,,,,,,,,,270.7631266000003,271.1269238,271.92716999999993,271.9111928000002,271.91122829999995,271.92716999999993,271.92716999999993,271.92716999999993,,272.7943712000001,left,1.0,47.61745519999977,,,,,,,,,,,,,,,,,,,,,,,,,,,,,,sub-031,1.0,random_dot,59.93924558067472,
right,right,accuracy,,,,,0.0,0.0,0.0,0.0,17.0,0.0,34.0,1.0,272.8101350000002,,,,,,,,,272.79536320000034,273.16026820000025,273.9601643000001,273.9441143000004,273.9441332000001,273.9601643000001,273.9601643000001,273.9601643000001,,274.944845,right,1.0,47.72524109999995,,,,,,,,,,,,,,,,,,,,,,,,,,,,,,sub-031,1.0,random_dot,59.93924558067472,
left,left,accuracy,,,,,0.0,0.0,0.0,0.0,17.0,1.0,35.0,0.0,274.96026740000025,,,,,,,,,274.94669350000004,275.31262370000013,276.12726380000004,276.1107457000003,276.11077290000003,276.12726380000004,276.12726380000004,276.12726380000004,,277.0444029,left,1.0,47.65903019999996,,,,,,,,,,,,,,,,,,,,,,,,,,,,,,sub-031,1.0,random_dot,59.93924558067472,
right,right,accuracy,,,,,0.0,0.0,0.0,0.0,18.0,0.0,36.0,1.0,277.06001100000003,,,,,,,,,277.0456534,277.84471940000003,278.64760380000007,278.62879950000024,278.62883310000007,278.64760380000007,278.64760380000007,278.64760380000007,,279.37645539999994,right,1.0,47.47875579999936,,,,,,,,,,,,,,,,,,,,,,,,,,,,,,sub-031,1.0,random_dot,59.93924558067472,
left,left,accuracy,,,,,0.0,0.0,0.0,0.0,18.0,1.0,37.0,0.0,279.3953825000003,,,,,,,,,279.3811504,279.49537180000016,280.31312419999995,280.2953169000002,280.2953642000002,280.31312419999995,280.31312419999995,280.31312419999995,,281.0108825000002,left,1.0,47.43930089999958,,,,,,,,,,,,,,,,,,,,,,,,,,,,,,sub-031,1.0,random_dot,59.93924558067472,
right,right,accuracy,,,,,0.0,0.0,0.0,0.0,19.0,0.0,38.0,1.0,281.0264638000004,,,,,,,,,281.01187630000004,281.12845930000003,281.93420730000025,281.9134623,281.91353500000014,281.93420730000025,281.93420730000025,281.93420730000025,,284.74446860000035,right,1.0,49.54986819999976,,,,,,,,,,,,,,,,,,,,,,,,,,,,,,sub-031,1.0,random_dot,59.93924558067472,
left,left,accuracy,,,,,0.0,0.0,0.0,0.0,19.0,1.0,39.0,0.0,284.75990930000034,,,,,,,,,284.7469108,285.9617147000004,286.76760680000007,286.74912440000026,286.7491868000002,286.76760680000007,286.76760680000007,286.76760680000007,291.7658048000003,292.50015080000003,left,1.0,52.48006909999958,,,,,,,,,,,,,,,,,,,,,,,,,,,,,,sub-031,1.0,random_dot,59.93924558067472,
left,left,accuracy,,,,,0.0,0.0,0.0,0.0,20.0,0.0,40.0,0.0,292.5162798000001,,,,,,,,,292.50327800000014,293.7101818000001,294.50968660000035,294.49371770000016,294.4937436,294.50968660000035,294.50968660000035,294.50968660000035,,296.5781462,left,1.0,48.820875200000046,,,,,,,,,,,,,,,,,,,,,,,,,,,,,,sub-031,1.0,random_dot,59.93924558067472,
right,right,accuracy,,,,,0.0,0.0,0.0,0.0,20.0,1.0,41.0,1.0,296.59295410000004,,,,,,,,,296.57947030000014,297.39449620000005,298.1989767,298.17983000000004,298.1798821000002,298.1989767,298.1989767,298.1989767,303.1929233000001,304.0444067000003,left,0.0,52.59218109999938,,,,,,,,,,,,,,,,,,,,,,,,,,,,,,sub-031,1.0,random_dot,59.93924558067472,
left,left,accuracy,,,,,0.0,0.0,0.0,0.0,21.0,0.0,42.0,0.0,304.0595251,,,,,,,,,304.0459390000001,304.40953820000004,305.2095118000002,305.1937035000001,305.19373350000023,305.2095118000002,305.2095118000002,305.2095118000002,,306.1941334000003,left,1.0,47.72250269999995,,,,,,,,,,,,,,,,,,,,,,,,,,,,,,sub-031,1.0,random_dot,59.93924558067472,
right,right,accuracy,,,,,0.0,0.0,0.0,0.0,21.0,1.0,43.0,1.0,306.20949800000017,,,,,,,,,306.19569100000035,307.0095262,307.8095020999999,307.7936326000004,307.7936639,307.8095020999999,307.8095020999999,307.8095020999999,,310.3107292,right,1.0,49.24557429999959,,,,,,,,,,,,,,,,,,,,,,,,,,,,,,sub-031,1.0,random_dot,59.93924558067472,
left,left,accuracy,,,,,0.0,0.0,0.0,0.0,22.0,0.0,44.0,0.0,310.3262670000004,,,,,,,,,310.312285,310.6761465,311.47607050000033,311.4602407000002,311.4602705000002,311.47607050000033,311.47607050000033,311.47607050000033,,312.22772910000003,left,1.0,47.49502819999998,,,,,,,,,,,,,,,,,,,,,,,,,,,,,,sub-031,1.0,random_dot,59.93924558067472,
right,right,accuracy,,,,,0.0,0.0,0.0,0.0,22.0,1.0,45.0,1.0,312.2427539,,,,,,,,,312.22927860000027,312.3427044,313.1427570000001,313.12691540000014,313.12694390000024,313.1427570000001,313.1427570000001,313.1427570000001,,314.16100110000025,right,1.0,47.767145199999504,,,,,,,,,,,,,,,,,,,,,,,,,,,,,,sub-031,1.0,random_dot,59.93924558067472,
right,right,accuracy,,,,,0.0,0.0,0.0,0.0,23.0,0.0,46.0,1.0,314.1760254999999,,,,,,,,,314.1625462000002,314.2760939,315.0760441000002,315.0602391000002,315.0602696000001,315.0760441000002,315.0760441000002,315.0760441000002,,315.87741300000016,right,1.0,47.54096779999964,,,,,,,,,,,,,,,,,,,,,,,,,,,,,,sub-031,1.0,random_dot,59.93924558067472,
left,left,accuracy,,,,,0.0,0.0,0.0,0.0,23.0,1.0,47.0,0.0,315.8926501000001,,,,,,,,,315.87896260000025,317.09396300000026,317.8990385000002,317.8797635000001,317.8798305,317.8990385000002,317.8990385000002,317.8990385000002,,321.3404684000002,left,1.0,50.18733119999979,,,,,,,,,,,,,,,,,,,,,,,,,,,,,,sub-031,1.0,random_dot,59.93924558067472,
right,right,accuracy,,,,,0.0,0.0,0.0,0.0,24.0,0.0,48.0,1.0,321.35525750000033,,,,,,,,,321.3435975000002,322.5441783000001,323.3489718999999,323.3297601,323.3298209,323.3489718999999,323.3489718999999,323.3489718999999,,324.21352130000014,right,1.0,47.599190599999474,,,,,,,,,,,,,,,,,,,,,,,,,,,,,,sub-031,1.0,random_dot,59.93924558067472,
left,left,accuracy,,,,,0.0,0.0,0.0,0.0,24.0,1.0,49.0,0.0,324.2297173000002,,,,,,,,,324.21654149999995,324.57723020000003,325.3819599000003,325.36248920000025,325.3625559000002,325.3819599000003,325.3819599000003,325.3819599000003,,326.51102330000003,left,1.0,47.86592159999964,,,,,,,,,,,,,,,,,,,,,,,,,,,,,,sub-031,1.0,random_dot,59.93924558067472,
left,left,accuracy,,,,,0.0,0.0,0.0,0.0,25.0,0.0,50.0,0.0,326.5259457000002,,,,,,,,,326.5127724000004,327.72591310000007,328.52647060000027,328.5102291000003,328.51026219999994,328.52647060000027,328.52647060000027,328.52647060000027,,329.52662880000025,left,1.0,47.741457900000114,,,,,,,,,,,,,,,,,,,,,,,,,,,,,,sub-031,1.0,random_dot,59.93924558067472,
right,right,accuracy,,,,,0.0,0.0,0.0,0.0,25.0,1.0,51.0,1.0,329.54230370000005,,,,,,,,,329.5277775,329.6425271000003,330.4432876999999,330.42696350000006,330.42699760000005,330.4432876999999,330.4432876999999,330.4432876999999,,331.17742560000033,right,1.0,47.4798679999999,,,,,,,,,,,,,,,,,,,,,,,,,,,,,,sub-031,1.0,random_dot,59.93924558067472,
left,left,accuracy,,,,,0.0,0.0,0.0,0.0,26.0,0.0,52.0,0.0,331.1926261000003,,,,,,,,,331.1791768000003,331.29265750000013,332.0930514000001,332.07701610000004,332.07706700000017,332.0930514000001,332.0930514000001,332.0930514000001,,336.94451800000024,left,1.0,51.588775599999735,,,,,,,,,,,,,,,,,,,,,,,,,,,,,,sub-031,1.0,random_dot,59.93924558067472,
right,right,accuracy,,,,,0.0,0.0,0.0,0.0,26.0,1.0,53.0,1.0,336.95940770000016,,,,,,,,,336.94628680000005,337.30942460000006,338.10972630000015,338.09347890000026,338.09351590000006,338.10972630000015,338.10972630000015,338.10972630000015,,339.2106729000002,right,1.0,47.84420769999997,,,,,,,,,,,,,,,,,,,,,,,,,,,,,,sub-031,1.0,random_dot,59.93924558067472,
right,right,accuracy,,,,,0.0,0.0,0.0,0.0,27.0,0.0,54.0,1.0,339.2257704000004,,,,,,,,,339.21242500000017,340.0258049000004,340.8263514,340.81030950000013,340.8103438000003,340.8263514,340.8263514,340.8263514,,343.0109193000003,right,1.0,48.920968699999776,,,,,,,,,,,,,,,,,,,,,,,,,,,,,,sub-031,1.0,random_dot,59.93924558067472,
left,left,accuracy,,,,,0.0,0.0,0.0,0.0,27.0,1.0,55.0,0.0,343.0256519,,,,,,,,,343.01267310000003,343.1256394000002,343.9260577,343.90998370000034,343.9100165,343.9260577,343.9260577,343.9260577,,344.7940265000002,left,1.0,47.615497400000095,,,,,,,,,,,,,,,,,,,,,,,,,,,,,,sub-031,1.0,random_dot,59.93924558067472,
right,right,accuracy,,,,,0.0,0.0,0.0,0.0,28.0,0.0,56.0,1.0,344.8090105000001,,,,,,,,,344.79581480000024,345.1589879000003,345.9592205000004,345.9431810000001,345.94321630000013,345.9592205000004,345.9592205000004,345.9592205000004,,349.6609562000003,right,1.0,50.43811839999944,,,,,,,,,,,,,,,,,,,,,,,,,,,,,,sub-031,1.0,random_dot,59.93924558067472,
left,left,accuracy,,,,,0.0,0.0,0.0,0.0,28.0,1.0,57.0,0.0,349.6755029000001,,,,,,,,,349.6629565000003,350.0255827000001,350.8259903000003,350.80986310000026,350.8099026,350.8259903000003,350.8259903000003,350.8259903000003,355.8254342,355.8772488,left,1.0,51.79925939999976,,,,,,,,,,,,,,,,,,,,,,,,,,,,,,sub-031,1.0,random_dot,59.93924558067472,
right,right,accuracy,,,,,0.0,0.0,0.0,0.0,29.0,0.0,58.0,1.0,355.89208750000034,,,,,,,,,355.8790108000003,357.0920393000001,357.8924234000001,357.8763706,357.8764137000003,357.8924234000001,357.8924234000001,357.8924234000001,,358.7276485000002,right,1.0,47.57162429999971,,,,,,,,,,,,,,,,,,,,,,,,,,,,,,sub-031,1.0,random_dot,59.93924558067472,
left,left,accuracy,,,,,0.0,0.0,0.0,0.0,29.0,1.0,59.0,0.0,358.7419967000001,,,,,,,,,358.7294164,359.09200290000035,359.89251890000014,359.8763842000003,359.8764189000003,359.89251890000014,359.89251890000014,359.89251890000014,,363.4769742000003,left,1.0,50.33587439999974,,,,,,,,,,,,,,,,,,,,,,,,,,,,,,sub-031,1.0,random_dot,59.93924558067472,
,,accuracy,,,,,0.0,0.0,0.0,0.0,,,,,,,,,,,,,,,,,,,,,,,,,,,,,,,,,,,,,,,,,,,,,,,,,,,,,,,,sub-031,1.0,random_dot,59.93924558067472,
left,left,speed,,,,,0.0,1.0,1.0,1.0,0.0,0.0,0.0,0.0,373.4019433000003,,,,,,,,,373.3915836000001,373.49172709999993,374.2922914999999,374.2761293000003,374.2761787,374.2922914999999,374.2922914999999,374.2922914999999,,375.1602822,left,1.0,47.6065295999997,,,,,,,,,,,,,,,,,,,,363.47889030000033,363.5046653,363.5046653,373.3770582000002,space,56.62224430000015,,,,,sub-031,1.0,random_dot,59.93924558067472,
right,right,speed,,,,,0.0,1.0,1.0,1.0,0.0,1.0,1.0,1.0,375.1750009000002,,,,,,,,,375.1625489000003,375.9750348000002,376.7755238,376.7592920000002,376.7593243000001,376.7755238,376.7755238,376.7755238,,377.62752,right,1.0,47.599245999999766,,,,,,,,,,,,,,,,,,,,,,,,,,,,,,sub-031,1.0,random_dot,59.93924558067472,
left,left,speed,,,,,0.0,1.0,1.0,1.0,1.0,0.0,2.0,0.0,377.64502820000007,,,,,,,,,377.6312355,378.8416301000002,379.64237550000007,379.62595310000006,379.6260084000001,379.64237550000007,379.64237550000007,379.64237550000007,,380.6269456,left,1.0,47.727011200000106,,,,,,,,,,,,,,,,,,,,,,,,,,,,,,sub-031,1.0,random_dot,59.93924558067472,
right,right,speed,,,,,0.0,1.0,1.0,1.0,1.0,1.0,3.0,1.0,380.6415661000001,,,,,,,,,380.6287179000001,380.9916459000001,381.79354490000014,381.7765124000002,381.7765462000002,381.79354490000014,381.79354490000014,381.79354490000014,,383.2436589000004,left,0.0,48.19609489999948,,,,,,,,,,,,,,,,,,,,,,,,,,,,,,sub-031,1.0,random_dot,59.93924558067472,
right,right,speed,,,,,0.0,1.0,1.0,1.0,2.0,0.0,4.0,1.0,383.2581888,,,,,,,,,383.24545080000007,384.0581518000004,384.8589565000002,384.8426475000001,384.8426832,384.8589565000002,384.8589565000002,384.8589565000002,,386.0434187999999,right,1.0,47.92855439999994,,,,,,,,,,,,,,,,,,,,,,,,,,,,,,sub-031,1.0,random_dot,59.93924558067472,
left,left,speed,,,,,0.0,1.0,1.0,1.0,2.0,1.0,5.0,0.0,386.05818990000034,,,,,,,,,386.0451855000001,386.4081395000003,387.20879790000026,387.1926739000001,387.1927077,387.20879790000026,387.20879790000026,387.20879790000026,,387.8768091000002,left,1.0,47.41263679999975,,,,,,,,,,,,,,,,,,,,,,,,,,,,,,sub-031,1.0,random_dot,59.93924558067472,
right,right,speed,,,,,0.0,1.0,1.0,1.0,3.0,0.0,6.0,1.0,387.8915097000004,,,,,,,,,387.8785855000001,387.9915156000002,388.7918354000003,388.7756480000003,388.7756837000002,388.7918354000003,388.7918354000003,388.7918354000003,,389.4432217000003,right,1.0,47.39676419999978,,,,,,,,,,,,,,,,,,,,,,,,,,,,,,sub-031,1.0,random_dot,59.93924558067472,
left,left,speed,,,,,0.0,1.0,1.0,1.0,3.0,1.0,7.0,0.0,389.4600075000003,,,,,,,,,389.44642479999993,390.6580570000001,391.4586471000002,391.44223580000016,391.44227,391.4586471000002,391.4586471000002,391.4586471000002,,393.00962930000014,left,1.0,48.30152079999971,,,,,,,,,,,,,,,,,,,,,,,,,,,,,,sub-031,1.0,random_dot,59.93924558067472,
right,right,speed,,,,,0.0,1.0,1.0,1.0,4.0,0.0,8.0,1.0,393.0246810000003,,,,,,,,,393.0113926000004,394.2246479,395.0250106000003,395.0088756,395.00890930000014,395.0250106000003,395.0250106000003,395.0250106000003,,395.6429595,right,1.0,47.35890459999973,,,,,,,,,,,,,,,,,,,,,,,,,,,,,,sub-031,1.0,random_dot,59.93924558067472,
left,left,speed,,,,,0.0,1.0,1.0,1.0,4.0,1.0,9.0,0.0,395.65802740000026,,,,,,,,,395.6447274000002,395.7579499000003,396.557687,396.5417961000003,396.5418208000001,396.557687,396.557687,396.557687,,397.9920584000001,left,1.0,48.17818999999963,,,,,,,,,,,,,,,,,,,,,,,,,,,,,,sub-031,1.0,random_dot,59.93924558067472,
right,right,speed,,,,,0.0,1.0,1.0,1.0,5.0,0.0,10.0,1.0,398.0076222000002,,,,,,,,,397.99330180000015,398.8082419000002,399.6108340999999,399.5929077999999,399.592975,399.6108340999999,399.6108340999999,399.6108340999999,,400.4546778000004,right,1.0,47.578680699999495,,,,,,,,,,,,,,,,,,,,,,,,,,,,,,sub-031,1.0,random_dot,59.93924558067472,
left,left,speed,,,,,0.0,1.0,1.0,1.0,5.0,1.0,11.0,0.0,400.4739875,,,,,,,,,400.4572392,400.80819580000025,401.6110088,401.5929803000004,401.5930280000002,401.6110088,401.6110088,401.6110088,,402.5180928,left,1.0,47.65045829999963,,,,,,,,,,,,,,,,,,,,,,,,,,,,,,sub-031,1.0,random_dot,59.93924558067472,
left,left,speed,,,,,0.0,1.0,1.0,1.0,6.0,0.0,12.0,0.0,402.5326799,,,,,,,,,402.5217915000003,403.7248013000003,404.52747910000016,404.50941150000017,404.5094728000004,404.52747910000016,404.52747910000016,404.52747910000016,,406.7166596000002,right,0.0,48.93396339999981,,,,,,,,,,,,,,,,,,,,,,,,,,,,,,sub-031,1.0,random_dot,59.93924558067472,
right,right,speed,,,,,0.0,1.0,1.0,1.0,6.0,1.0,13.0,1.0,406.7303844000003,,,,,,,,,406.71919530000014,407.9248924000003,408.72743990000026,408.70955129999993,408.7096060000004,408.72743990000026,408.72743990000026,408.72743990000026,,409.4663598000002,right,1.0,47.47934119999991,,,,,,,,,,,,,,,,,,,,,,,,,,,,,,sub-031,1.0,random_dot,59.93924558067472,
left,left,speed,,,,,0.0,1.0,1.0,1.0,7.0,0.0,14.0,0.0,409.48023520000015,,,,,,,,,409.4688688000001,410.6747193000001,411.4771647000002,411.4594299,411.4594769,411.4771647000002,411.4771647000002,411.4771647000002,,412.1798391000002,left,1.0,47.44448189999957,,,,,,,,,,,,,,,,,,,,,,,,,,,,,,sub-031,1.0,random_dot,59.93924558067472,
right,right,speed,,,,,0.0,1.0,1.0,1.0,7.0,1.0,15.0,1.0,412.19515900000033,,,,,,,,,412.1822629000003,412.5413919000002,413.3439217,413.3261144000003,413.3261606000001,413.3439217,413.3439217,413.3439217,,414.0677333000003,right,1.0,47.473714199999904,,,,,,,,,,,,,,,,,,,,,,,,,,,,,,sub-031,1.0,random_dot,59.93924558067472,
right,right,speed,,,,,0.0,1.0,1.0,1.0,8.0,0.0,16.0,1.0,414.0827438000001,,,,,,,,,414.0717679,414.4246086000003,415.2272662,415.2094420000003,415.2094874,415.2272662,415.2272662,415.2272662,,415.9984703,right,1.0,47.506415599999855,,,,,,,,,,,,,,,,,,,,,,,,,,,,,,sub-031,1.0,random_dot,59.93924558067472,
left,left,speed,,,,,0.0,1.0,1.0,1.0,8.0,1.0,17.0,0.0,416.0133569,,,,,,,,,416.0009071,416.3578936000004,417.1603698000004,417.14259690000017,417.1426448000002,417.1603698000004,417.1603698000004,417.1603698000004,,418.5005960000003,left,1.0,48.078629699999965,,,,,,,,,,,,,,,,,,,,,,,,,,,,,,sub-031,1.0,random_dot,59.93924558067472,
right,right,speed,,,,,0.0,1.0,1.0,1.0,9.0,0.0,18.0,1.0,418.5147380000003,,,,,,,,,418.5042647,419.7078814000001,420.5102815,420.4924896000002,420.4925360000002,420.5102815,420.5102815,420.5102815,,421.6922154000004,right,1.0,47.91021379999984,,,,,,,,,,,,,,,,,,,,,,,,,,,,,,sub-031,1.0,random_dot,59.93924558067472,
left,left,speed,,,,,0.0,1.0,1.0,1.0,9.0,1.0,19.0,0.0,421.7079024,,,,,,,,,421.6947140000002,422.50772240000015,423.3105455,423.2925197,423.29256840000016,423.3105455,423.3105455,423.3105455,,424.04230210000014,left,1.0,47.474700499999926,,,,,,,,,,,,,,,,,,,,,,,,,,,,,,sub-031,1.0,random_dot,59.93924558067472,
left,left,speed,,,,,0.0,1.0,1.0,1.0,10.0,0.0,20.0,0.0,424.05823880000025,,,,,,,,,424.0447779000001,424.8578018000003,425.66020530000014,425.6423722,425.6424199000003,425.66020530000014,425.66020530000014,425.66020530000014,,426.4625516000001,left,1.0,47.544103599999744,,,,,,,,,,,,,,,,,,,,,,,,,,,,,,sub-031,1.0,random_dot,59.93924558067472,
right,right,speed,,,,,0.0,1.0,1.0,1.0,10.0,1.0,21.0,1.0,426.47810180000033,,,,,,,,,426.4650439000002,427.6744303,428.4771498,428.4593907000003,428.45943780000016,428.4771498,428.4771498,428.4771498,,429.2670744000002,right,1.0,47.539445500000056,,,,,,,,,,,,,,,,,,,,,,,,,,,,,,sub-031,1.0,random_dot,59.93924558067472,
right,right,speed,,,,,0.0,1.0,1.0,1.0,11.0,0.0,22.0,1.0,429.2821177999999,,,,,,,,,429.2711945000001,429.6242930000003,430.42729480000025,430.4091880000001,430.4092595000002,430.42729480000025,430.42729480000025,430.42729480000025,,431.2159969,right,1.0,47.53225989999965,,,,,,,,,,,,,,,,,,,,,,,,,,,,,,sub-031,1.0,random_dot,59.93924558067472,
left,left,speed,,,,,0.0,1.0,1.0,1.0,11.0,1.0,23.0,0.0,431.2298396000001,,,,,,,,,431.2185007000003,432.0244308000001,432.8268134,432.8090268000001,432.8090731000002,432.8268134,432.8268134,432.8268134,,433.71573620000026,left,1.0,47.63567479999983,,,,,,,,,,,,,,,,,,,,,,,,,,,,,,sub-031,1.0,random_dot,59.93924558067472,
right,right,speed,,,,,0.0,1.0,1.0,1.0,12.0,0.0,24.0,1.0,433.73129560000007,,,,,,,,,433.7181639,433.82420420000017,434.6275303000002,434.6087161,434.6087633000002,434.6275303000002,434.6275303000002,434.6275303000002,,435.8502965000002,right,1.0,47.96619669999973,,,,,,,,,,,,,,,,,,,,,,,,,,,,,,sub-031,1.0,random_dot,59.93924558067472,
left,left,speed,,,,,0.0,1.0,1.0,1.0,12.0,1.0,25.0,0.0,435.87321580000025,,,,,,,,,435.8528570000003,436.6575310000003,437.4599554000001,437.4421315,437.4421792000003,437.4599554000001,437.4599554000001,437.4599554000001,,438.7651828000003,left,1.0,48.04054039999983,,,,,,,,,,,,,,,,,,,,,,,,,,,,,,sub-031,1.0,random_dot,59.93924558067472,
left,left,speed,,,,,0.0,1.0,1.0,1.0,13.0,0.0,26.0,0.0,438.78050440000015,,,,,,,,,438.767613,439.9742715000002,440.77690550000034,440.7586000000001,440.75864690000026,440.77690550000034,440.77690550000034,440.77690550000034,,441.5500981,left,1.0,47.52426799999967,,,,,,,,,,,,,,,,,,,,,,,,,,,,,,sub-031,1.0,random_dot,59.93924558067472,
right,right,speed,,,,,0.0,1.0,1.0,1.0,13.0,1.0,27.0,1.0,441.56466070000033,,,,,,,,,441.5536400000001,441.9074190000001,442.7102103000002,442.6919118999999,442.69195850000006,442.7102103000002,442.7102103000002,442.7102103000002,,443.4803167,right,1.0,47.51600879999978,,,,,,,,,,,,,,,,,,,,,,,,,,,,,,sub-031,1.0,random_dot,59.93924558067472,
right,right,speed,,,,,0.0,1.0,1.0,1.0,14.0,0.0,28.0,1.0,443.4959283000003,,,,,,,,,443.4827648,443.5912291,444.39442009999993,444.3754792,444.3755517,444.39442009999993,444.39442009999993,444.39442009999993,,445.5418814,right,1.0,47.88641529999995,,,,,,,,,,,,,,,,,,,,,,,,,,,,,,sub-031,1.0,random_dot,59.93924558067472,
left,left,speed,,,,,0.0,1.0,1.0,1.0,14.0,1.0,29.0,0.0,445.5578793,,,,,,,,,445.5443476,445.9074635000002,446.70962180000015,446.69190160000016,446.6919558,446.70962180000015,446.70962180000015,446.70962180000015,,448.9283115000003,left,1.0,48.96842499999957,,,,,,,,,,,,,,,,,,,,,,,,,,,,,,sub-031,1.0,random_dot,59.93924558067472,
right,right,speed,,,,,0.0,1.0,1.0,1.0,15.0,0.0,30.0,1.0,448.9437915000003,,,,,,,,,448.9307331,449.2907415,450.09336600000006,450.07512570000017,450.07517270000017,450.09336600000006,450.09336600000006,450.09336600000006,,451.29877780000015,right,1.0,47.95171059999939,,,,,,,,,,,,,,,,,,,,,,,,,,,,,,sub-031,1.0,random_dot,59.93924558067472,
left,left,speed,,,,,0.0,1.0,1.0,1.0,15.0,1.0,31.0,0.0,451.3126924000003,,,,,,,,,451.3011967000002,451.6571824000002,452.45977660000017,452.4418834000003,452.4419307000003,452.45977660000017,452.45977660000017,452.45977660000017,,453.2143036000002,left,1.0,47.50033829999984,,,,,,,,,,,,,,,,,,,,,,,,,,,,,,sub-031,1.0,random_dot,59.93924558067472,
left,left,speed,,,,,0.0,1.0,1.0,1.0,16.0,0.0,32.0,0.0,453.23004690000016,,,,,,,,,453.2167416000002,453.5740034,454.3768792000001,454.3584206,454.3584677000004,454.3768792000001,454.3768792000001,454.3768792000001,,455.0766745000001,left,1.0,47.44812789999969,,,,,,,,,,,,,,,,,,,,,,,,,,,,,,sub-031,1.0,random_dot,59.93924558067472,
right,right,speed,,,,,0.0,1.0,1.0,1.0,16.0,1.0,33.0,1.0,455.0921946000003,,,,,,,,,455.0791684999999,455.19048310000016,455.9928055,455.97507940000014,455.9751265,455.9928055,455.9928055,455.9928055,,459.2476055000002,left,0.0,49.98928689999957,,,,,,,,,,,,,,,,,,,,,,,,,,,,,,sub-031,1.0,random_dot,59.93924558067472,
left,left,speed,,,,,0.0,1.0,1.0,1.0,17.0,0.0,34.0,0.0,459.2626046,,,,,,,,,459.2500494000001,459.35708250000016,460.1603107000001,460.14168640000025,460.1417335000001,460.1603107000001,460.1603107000001,460.1603107000001,,460.8629793,left,1.0,47.4504251999997,,,,,,,,,,,,,,,,,,,,,,,,,,,,,,sub-031,1.0,random_dot,59.93924558067472,
right,right,speed,,,,,0.0,1.0,1.0,1.0,17.0,1.0,35.0,1.0,460.87921730000016,,,,,,,,,460.8660996000003,461.2236990000001,462.0263467,462.0084883,462.0085317000003,462.0263467,462.0263467,462.0263467,,464.2665438000004,right,1.0,48.9922247999998,,,,,,,,,,,,,,,,,,,,,,,,,,,,,,sub-031,1.0,random_dot,59.93924558067472,
left,left,speed,,,,,0.0,1.0,1.0,1.0,18.0,0.0,36.0,0.0,464.2805106999999,,,,,,,,,464.2691790000004,464.6236288,465.4260787000003,465.4083016,465.4083768,465.4260787000003,465.4260787000003,465.4260787000003,,466.8809131000002,left,1.0,48.20528189999959,,,,,,,,,,,,,,,,,,,,,,,,,,,,,,sub-031,1.0,random_dot,59.93924558067472,
right,right,speed,,,,,0.0,1.0,1.0,1.0,18.0,1.0,37.0,1.0,466.89581050000015,,,,,,,,,466.88335430000006,467.24018700000033,468.04299820000006,468.0251960000001,468.0252405000001,468.04299820000006,468.04299820000006,468.04299820000006,,471.4272725999999,right,1.0,50.13328439999941,,,,,,,,,,,,,,,,,,,,,,,,,,,,,,sub-031,1.0,random_dot,59.93924558067472,
right,right,speed,,,,,0.0,1.0,1.0,1.0,19.0,0.0,38.0,1.0,471.4428177,,,,,,,,,471.4297005000003,471.79021150000017,472.5924587,472.5746758,472.57472270000017,472.5924587,472.5924587,472.5924587,,473.51120100000026,right,1.0,47.66725499999984,,,,,,,,,,,,,,,,,,,,,,,,,,,,,,sub-031,1.0,random_dot,59.93924558067472,
left,left,speed,,,,,0.0,1.0,1.0,1.0,19.0,1.0,39.0,0.0,473.526652,,,,,,,,,473.5136390000002,474.7234771000003,475.5264558000004,475.5081357000004,475.5081832999999,475.5264558000004,475.5264558000004,475.5264558000004,,477.0490265000003,left,1.0,48.2606651000001,,,,,,,,,,,,,,,,,,,,,,,,,,,,,,sub-031,1.0,random_dot,59.93924558067472,
right,right,speed,,,,,0.0,1.0,1.0,1.0,20.0,0.0,40.0,1.0,477.0622841,,,,,,,,,477.0515551000003,477.40681840000025,478.20950630000016,478.19131730000026,478.1913669000001,478.20950630000016,478.20950630000016,478.20950630000016,,479.7071884000002,right,1.0,48.238396400000056,,,,,,,,,,,,,,,,,,,,,,,,,,,,,,sub-031,1.0,random_dot,59.93924558067472,
left,left,speed,,,,,0.0,1.0,1.0,1.0,20.0,1.0,41.0,0.0,479.7227438,,,,,,,,,479.70836370000006,480.0734573,480.8761926000002,480.8583428000002,480.8583914999999,480.8761926000002,480.8761926000002,480.8761926000002,,483.7360735000002,left,1.0,49.60885479999979,,,,,,,,,,,,,,,,,,,,,,,,,,,,,,sub-031,1.0,random_dot,59.93924558067472,
left,left,speed,,,,,0.0,1.0,1.0,1.0,21.0,0.0,42.0,0.0,483.7495015,,,,,,,,,483.7387102000002,484.9399146999999,485.7425042,485.7246425000003,485.7246878000001,485.7425042,485.7425042,485.7425042,,487.43120910000016,left,1.0,48.427085199999965,,,,,,,,,,,,,,,,,,,,,,,,,,,,,,sub-031,1.0,random_dot,59.93924558067472,
right,right,speed,,,,,0.0,1.0,1.0,1.0,21.0,1.0,43.0,1.0,487.4561996000002,,,,,,,,,487.4336870000002,487.78989820000015,488.59234890000016,488.5745962000001,488.5746436,488.59234890000016,488.59234890000016,488.59234890000016,,489.9113146,right,1.0,48.05395409999983,,,,,,,,,,,,,,,,,,,,,,,,,,,,,,sub-031,1.0,random_dot,59.93924558067472,
left,left,speed,,,,,0.0,1.0,1.0,1.0,22.0,0.0,44.0,0.0,489.9263484000003,,,,,,,,,489.9137674000003,490.7235725000001,491.5256464000004,491.5078474000002,491.5078943000003,491.5256464000004,491.5256464000004,491.5256464000004,,492.3273937000004,left,1.0,47.551421599999685,,,,,,,,,,,,,,,,,,,,,,,,,,,,,,sub-031,1.0,random_dot,59.93924558067472,
right,right,speed,,,,,0.0,1.0,1.0,1.0,22.0,1.0,45.0,1.0,492.3430148000002,,,,,,,,,492.32982530000027,492.43974320000007,493.2421687000001,493.2243982,493.2244469000002,493.2421687000001,493.2421687000001,493.2421687000001,,494.4904532000001,right,1.0,47.98668529999986,,,,,,,,,,,,,,,,,,,,,,,,,,,,,,sub-031,1.0,random_dot,59.93924558067472,
left,left,speed,,,,,0.0,1.0,1.0,1.0,23.0,0.0,46.0,0.0,494.5058448,,,,,,,,,494.49182370000017,495.3070136000001,496.1124288000001,496.09289050000007,496.0929447000003,496.1124288000001,496.1124288000001,496.1124288000001,,496.9415396,left,1.0,47.56547569999975,,,,,,,,,,,,,,,,,,,,,,,,,,,,,,sub-031,1.0,random_dot,59.93924558067472,
right,right,speed,,,,,0.0,1.0,1.0,1.0,23.0,1.0,47.0,1.0,496.95611180000014,,,,,,,,,496.94332140000006,497.0562795999999,497.8563787000003,497.84012950000033,497.84016390000033,497.8563787000003,497.8563787000003,497.8563787000003,,498.9411461,right,1.0,47.83463029999984,,,,,,,,,,,,,,,,,,,,,,,,,,,,,,sub-031,1.0,random_dot,59.93924558067472,
left,left,speed,,,,,0.0,1.0,1.0,1.0,24.0,0.0,48.0,0.0,498.9558790000001,,,,,,,,,498.9429333000003,499.7559174000002,500.5563579,500.5402137000001,500.5402458000003,500.5563579,500.5563579,500.5563579,,502.3408880000002,left,1.0,48.53473869999971,,,,,,,,,,,,,,,,,,,,,,,,,,,,,,sub-031,1.0,random_dot,59.93924558067472,
right,right,speed,,,,,0.0,1.0,1.0,1.0,24.0,1.0,49.0,1.0,502.3558468000001,,,,,,,,,502.3430493999999,502.45591570000033,503.2562036,503.240061,503.2400952000002,503.2562036,503.2562036,503.2562036,,505.2578719000003,right,1.0,48.73932389999982,,,,,,,,,,,,,,,,,,,,,,,,,,,,,,sub-031,1.0,random_dot,59.93924558067472,
right,right,speed,,,,,0.0,1.0,1.0,1.0,25.0,0.0,50.0,1.0,505.2724995000003,,,,,,,,,505.2596381000003,506.47250170000007,507.2731343,507.2569856,507.2570208000002,507.2731343,507.2731343,507.2731343,,509.5740833,left,0.0,49.05257819999997,,,,,,,,,,,,,,,,,,,,,,,,,,,,,,sub-031,1.0,random_dot,59.93924558067472,
left,left,speed,,,,,0.0,1.0,1.0,1.0,25.0,1.0,51.0,0.0,509.5890534,,,,,,,,,509.5758569,510.3891721,511.1895248000001,511.173491,511.1735244000001,511.1895248000001,511.1895248000001,511.1895248000001,,512.1578003,left,1.0,47.70521319999989,,,,,,,,,,,,,,,,,,,,,,,,,,,,,,sub-031,1.0,random_dot,59.93924558067472,
left,left,speed,,,,,0.0,1.0,1.0,1.0,26.0,0.0,52.0,0.0,512.1723070000003,,,,,,,,,512.1595476000002,512.2723115000003,513.0729747,513.0565104000002,513.056548,513.0729747,513.0729747,513.0729747,,513.9074102,left,1.0,47.57140369999979,,,,,,,,,,,,,,,,,,,,,,,,,,,,,,sub-031,1.0,random_dot,59.93924558067472,
right,right,speed,,,,,0.0,1.0,1.0,1.0,26.0,1.0,53.0,1.0,513.9223116000003,,,,,,,,,513.9091632,514.7223775000002,515.5226919000002,515.5066282000003,515.5066625,515.5226919000002,515.5226919000002,515.5226919000002,,516.5070913,right,1.0,47.72950279999986,,,,,,,,,,,,,,,,,,,,,,,,,,,,,,sub-031,1.0,random_dot,59.93924558067472,
right,right,speed,,,,,0.0,1.0,1.0,1.0,27.0,0.0,54.0,1.0,516.522262,,,,,,,,,516.5088352000002,517.7222294000003,518.5225834000003,518.5065990000003,518.5066380000003,518.5225834000003,518.5225834000003,518.5225834000003,,519.2407344000003,right,1.0,47.469923899999685,,,,,,,,,,,,,,,,,,,,,,,,,,,,,,sub-031,1.0,random_dot,59.93924558067472,
left,left,speed,,,,,0.0,1.0,1.0,1.0,27.0,1.0,55.0,0.0,519.2555055000003,,,,,,,,,519.242483,520.4555072000003,521.2561511000004,521.2398099000002,521.2398439000003,521.2561511000004,521.2561511000004,521.2561511000004,,522.1739717,right,0.0,47.66775169999983,,,,,,,,,,,,,,,,,,,,,,,,,,,,,,sub-031,1.0,random_dot,59.93924558067472,
left,left,speed,,,,,0.0,1.0,1.0,1.0,28.0,0.0,56.0,0.0,522.1888180999999,,,,,,,,,522.1757563000001,523.3888955000002,524.189237,524.1732163000001,524.1732510000002,524.189237,524.189237,524.189237,,524.9073086000003,left,1.0,47.46433969999953,,,,,,,,,,,,,,,,,,,,,,,,,,,,,,sub-031,1.0,random_dot,59.93924558067472,
right,right,speed,,,,,0.0,1.0,1.0,1.0,28.0,1.0,57.0,1.0,524.9220028,,,,,,,,,524.9090804000002,525.0220597000002,525.8225267000003,525.8063953999999,525.8064307,525.8225267000003,525.8225267000003,525.8225267000003,,526.8740323000002,left,0.0,47.79822259999992,,,,,,,,,,,,,,,,,,,,,,,,,,,,,,sub-031,1.0,random_dot,59.93924558067472,
left,left,speed,,,,,0.0,1.0,1.0,1.0,29.0,0.0,58.0,0.0,526.8886633000002,,,,,,,,,526.8758265000001,527.2388277,528.0394188,528.0230489,528.0230833,528.0394188,528.0394188,528.0394188,,528.7573989000002,right,0.0,47.45648549999942,,,,,,,,,,,,,,,,,,,,,,,,,,,,,,sub-031,1.0,random_dot,59.93924558067472,
right,right,speed,,,,,0.0,1.0,1.0,1.0,29.0,1.0,59.0,1.0,528.7720662000002,,,,,,,,,528.759172,529.9720394999999,530.7724215000003,530.7563419000003,530.7563766000003,530.7724215000003,530.7724215000003,530.7724215000003,,531.5908836000003,right,1.0,47.55729649999967,,,,,,,,,,,,,,,,,,,,,,,,,,,,,,sub-031,1.0,random_dot,59.93924558067472,
,,speed,,,,,0.0,1.0,1.0,1.0,,,,,,,,,,,,,,,,,,,,,,,,,,,,,,,,,,,,,,,,,,,,,,,,,,,,,,,,sub-031,1.0,random_dot,59.93924558067472,
,,,,,,,,,,,,,,,,,,,,,,,,,,,,,,,,,,,,,,,,,,,,,,,,,,,,,,,,,,,,,,,531.5921722000003,531.6065447999999,536.6055203000001,sub-031,,,,
