direction,corrAns,randomInstr,practice_trials.thisRepN,practice_trials.thisTrialN,practice_trials.thisN,practice_trials.thisIndex,instr_trials.thisRepN,instr_trials.thisTrialN,instr_trials.thisN,instr_trials.thisIndex,test_trials.thisRepN,test_trials.thisTrialN,test_trials.thisN,test_trials.thisIndex,thisRow.t,notes,general_instruction.started,textGeneralInstr.started,respGeneralInstr.started,general_instruction.stopped,respGeneralInstr.keys,respGeneralInstr.rt,respGeneralInstr.duration,ITI.started,fixcross.started,fixcross.stopped,ITI.stopped,dots.started,backgroundDots.started,stimulusDots.started,respDots.started,stimulusDots.stopped,dots.stopped,respDots.keys,respDots.corr,respDots.rt,respDots.duration,feedback.started,textFeedback.started,feedback.stopped,textFeedback.stopped,info.started,textInfo.started,keyRespInfo.started,info.stopped,keyRespInfo.keys,keyRespInfo.rt,keyRespInfo.duration,test_instruction.started,textTestInstr.started,respTestInstr.started,test_instruction.stopped,respTestInstr.keys,respTestInstr.rt,respTestInstr.duration,random_instruction.started,textRandomInstr.started,respRandomInstr.started,random_instruction.stopped,respRandomInstr.keys,respRandomInstr.rt,respRandomInstr.duration,goodbye.started,textGoodbye.started,textGoodbye.stopped,goodbye.stopped,participant,session,expName,frameRate,Unnamed: 74
,,,,,,,,,,,,,,,,,0.0329490000149235,0.0428985999897122,0.0428985999897122,25.72193780005909,space,75.23315390001517,,,,,,,,,,,,,,,,,,,,,,,,,,,,,,,,,,,,,,,,,,,,,sub-200,1.0,random_dot,60.0476898469443,
left,left,,0.0,0.0,0.0,0.0,,,,,,,,,25.867466200026684,,,,,,,,,25.856768500059843,26.533776400028728,27.350983000011183,27.31919499998912,27.31924580002669,27.350983000011183,27.350983000011183,27.350983000011183,32.323831900022924,39.61458389996551,left,1.0,61.80479490000289,,39.64515490003396,39.68847639998421,40.16006839997135,,,,,,,,,,,,,,,,,,,,,,,,,,,sub-200,1.0,random_dot,60.0476898469443,
right,right,,0.0,1.0,1.0,1.0,,,,,,,,,40.17642789997626,,,,,,,,,40.161083000013605,40.25999180006329,41.06332239997573,41.04503729997669,41.04508790001273,41.06332239997573,41.06332239997573,41.06332239997573,,42.36635629995726,right,1.0,50.85275039996486,,42.36774520005565,42.37794100004248,42.86302369995974,42.8783434999641,,,,,,,,,,,,,,,,,,,,,,,,,,sub-200,1.0,random_dot,60.0476898469443,
right,right,,1.0,0.0,2.0,1.0,,,,,,,,,42.8783434999641,,,,,,,,,42.86402370000724,42.97844279999845,43.78203929995652,43.76356720004696,43.76361609995365,43.78203929995652,43.78203929995652,43.78203929995652,,44.90140219999012,right,1.0,50.663354699965566,,44.90269799996168,44.9129474000074,45.39794549997896,45.41345440002624,,,,,,,,,,,,,,,,,,,,,,,,,,sub-200,1.0,random_dot,60.0476898469443,
left,left,,1.0,1.0,3.0,0.0,,,,,,,,,45.41345440002624,,,,,,,,,45.398919100058265,45.51354980003089,46.31698500004131,46.29865470004734,46.29870310006663,46.31698500004131,46.31698500004131,46.31698500004131,,46.9027483999962,left,1.0,50.12786439992488,,46.904164999956265,46.91440200002398,47.39935279998463,47.41486400004942,,,,,,,,,,,,,,,,,,,,,,,,,,sub-200,1.0,random_dot,60.0476898469443,
right,right,,2.0,0.0,4.0,1.0,,,,,,,,,47.41486400004942,,,,,,,,,47.40031519997865,48.21541639999487,49.01872170006391,49.0004176000366,49.00046789995395,49.01872170006391,49.01872170006391,49.01872170006391,,49.60468970006332,right,1.0,50.12716289993841,,49.60596469999291,49.616375699988566,50.101071599987336,50.11672569997609,,,,,,,,,,,,,,,,,,,,,,,,,,sub-200,1.0,random_dot,60.0476898469443,
left,left,,2.0,1.0,5.0,0.0,,,,,,,,,50.11672569997609,,,,,,,,,50.10201210004743,51.31756400002632,52.12101080000866,52.10270260006655,52.10277350002434,52.12101080000866,52.12101080000866,52.12101080000866,,52.87342990003526,left,1.0,50.2939844999928,,52.87485000002198,52.88508649996948,53.37022090004757,53.38547780003864,,,,,,,,,,,,,,,,,,,,,,,,,,sub-200,1.0,random_dot,60.0476898469443,
right,right,,3.0,0.0,6.0,1.0,,,,,,,,,53.38547780003864,,,,,,,,,53.37122970004566,53.48570509999991,54.28911819995847,54.27049999998417,54.27054409997072,54.28911819995847,54.28911819995847,54.28911819995847,,54.92547839996405,right,1.0,50.18692340003327,,54.92695180000737,54.93740239995532,55.421466000028886,55.43684580002446,,,,,,,,,,,,,,,,,,,,,,,,,,sub-200,1.0,random_dot,60.0476898469443,
left,left,,3.0,1.0,7.0,0.0,,,,,,,,,55.43684580002446,,,,,,,,,55.4223181999987,56.23763190000318,57.04089619999286,57.02256359998137,57.02261880005244,57.04089619999286,57.04089619999286,57.04089619999286,,57.67664489999879,left,1.0,50.18542430002708,,57.67789289995562,57.68850559997372,58.17347679997329,58.188928900053725,,,,,,,,,,,,,,,,,,,,,,,,,,sub-200,1.0,random_dot,60.0476898469443,
left,left,,4.0,0.0,8.0,0.0,,,,,,,,,58.188928900053725,,,,,,,,,58.17445050005336,59.3897575000301,60.19329870003276,60.17475410003681,60.17480360006448,60.19329870003276,60.19329870003276,60.19329870003276,,60.96221080003306,left,1.0,50.3117351999972,,60.96345809998456,60.97413210000377,61.4589386000298,61.47456320002675,,,,,,,,,,,,,,,,,,,,,,,,,,sub-200,1.0,random_dot,60.0476898469443,
right,right,,4.0,1.0,9.0,1.0,,,,,,,,,61.47456320002675,,,,,,,,,61.45996909996029,61.57461710006464,62.37800430005882,62.3596560000442,62.35970559995621,62.37800430005882,62.37800430005882,62.37800430005882,,62.81347120006103,right,1.0,49.987109199981205,,62.81476390000898,62.82533230003901,63.31038040004205,63.32565819995944,,,,,,,,,,,,,,,,,,,,,,,,,,sub-200,1.0,random_dot,60.0476898469443,
right,right,,5.0,0.0,10.0,1.0,,,,,,,,,63.32565819995944,,,,,,,,,63.311421400052495,63.67596260004211,64.47958310006652,64.46128940000199,64.46133810002357,64.47958310006652,64.47958310006652,64.47958310006652,,65.248683599988,right,1.0,50.31693720002659,,65.24994660005905,65.26023889996577,65.74550900002941,65.76063060003798,,,,,,,,,,,,,,,,,,,,,,,,,,sub-200,1.0,random_dot,60.0476898469443,
left,left,,5.0,1.0,11.0,0.0,,,,,,,,,65.76063060003798,,,,,,,,,65.74646819999907,66.56140730006155,67.36479619995225,67.34653540002182,67.34658650006168,67.36479619995225,67.36479619995225,67.36479619995225,,67.88377570000011,left,1.0,50.07027199992445,,67.88504770002328,67.89537349995226,68.38041049998719,68.39595999999437,,,,,,,,,,,,,,,,,,,,,,,,,,sub-200,1.0,random_dot,60.0476898469443,
right,right,,6.0,0.0,12.0,1.0,,,,,,,,,68.39595999999437,,,,,,,,,68.38138300005812,69.59684300003573,70.40026350005064,70.38167489995249,70.38172499998473,70.40026350005064,70.40026350005064,70.40026350005064,,71.05250690004323,right,1.0,50.20533439994324,,71.05379769997671,71.06419730000198,71.5493404000299,71.56481989996973,,,,,,,,,,,,,,,,,,,,,,,,,,sub-200,1.0,random_dot,60.0476898469443,
left,left,,6.0,1.0,13.0,0.0,,,,,,,,,71.56481989996973,,,,,,,,,71.5502950999653,72.76560839999001,73.56901770003606,73.55041629995685,73.55046309996396,73.56901770003606,73.56901770003606,73.56901770003606,,74.02115589997265,left,1.0,49.99578079988714,,74.02239209995605,74.03308680001646,74.51803819998167,74.53335050004534,,,,,,,,,,,,,,,,,,,,,,,,,,sub-200,1.0,random_dot,60.0476898469443,
left,left,,7.0,0.0,14.0,0.0,,,,,,,,,74.53335050004534,,,,,,,,,74.51905800006352,74.63352659996599,75.43684650002979,75.41871400002856,75.41876390005928,75.43684650002979,75.43684650002979,75.43684650002979,,75.8060620999895,right,0.0,49.918821300030686,,75.80724380002357,75.83942370000295,76.31843089999165,,,,,,,,,,,,,,,,,,,,,,,,,,,sub-200,1.0,random_dot,60.0476898469443,
right,right,,7.0,1.0,15.0,1.0,,,,,,,,,76.33474930003285,,,,,,,,,76.31939590000547,77.11862510000356,77.92194380005822,77.90362310002092,77.90367220004555,77.92194380005822,77.92194380005822,77.92194380005822,,78.69129870005418,right,1.0,50.323154899990186,,78.6925330000231,78.71044950000942,79.20366929995362,,,,,,,,,,,,,,,,,,,,,,,,,,,sub-200,1.0,random_dot,60.0476898469443,
left,left,,8.0,0.0,16.0,0.0,,,,,,,,,79.21990629995707,,,,,,,,,79.20468229998369,79.55349159997422,80.3568871000316,80.33873780001886,80.3387835000176,80.3568871000316,80.3568871000316,80.3568871000316,,80.99272550002206,left,1.0,50.17897439992521,,80.99399049999192,81.00447140005417,81.4894577000523,81.50480240001343,,,,,,,,,,,,,,,,,,,,,,,,,,sub-200,1.0,random_dot,60.0476898469443,
right,right,,8.0,1.0,17.0,1.0,,,,,,,,,81.50480240001343,,,,,,,,,81.49029800004791,82.70572580001317,83.50914510001894,83.49088719999418,83.49093680002261,83.50914510001894,83.50914510001894,83.50914510001894,,84.11154209997039,right,1.0,50.14736850000918,,84.11282090004534,84.12351730000228,84.60830630001146,84.62373430002481,,,,,,,,,,,,,,,,,,,,,,,,,,sub-200,1.0,random_dot,60.0476898469443,
right,right,,9.0,0.0,18.0,1.0,,,,,,,,,84.62373430002481,,,,,,,,,84.60929749999195,85.82458699995186,86.6280997999711,86.60966389998794,86.6097402999876,86.6280997999711,86.6280997999711,86.6280997999711,,87.53094630001578,right,1.0,50.45859739999287,,87.53230780002195,87.54231920000166,88.02733710000757,88.04269460006617,,,,,,,,,,,,,,,,,,,,,,,,,,sub-200,1.0,random_dot,60.0476898469443,
left,left,,9.0,1.0,19.0,0.0,,,,,,,,,88.04269460006617,,,,,,,,,88.02836680004839,88.14270970004145,88.9463773999596,88.92774770001415,88.92779850005172,88.9463773999596,88.9463773999596,88.9463773999596,,90.13265050004702,left,1.0,50.73999499995261,,90.13387570006309,90.1439667000668,90.629109099973,90.64500570006204,,,,,,,,,,,,,,,,,,,,,,,,,,sub-200,1.0,random_dot,60.0476898469443,
,,,,,,,,,,,,,,,,,,,,,,,,,,,,,,,,,,,,,,,,,,90.6292584000621,90.64500570006204,90.64500570006204,101.37131219997536,space,60.272194399964064,,,,,,,,,,,,,,,,,,,,sub-200,1.0,random_dot,60.0476898469443,
,,,,,,,,,,,,,,,,,,,,,,,,,,,,,,,,,,,,,,,,,,,,,,,,,101.37140790000558,101.38638020004146,101.38638020004146,109.72757680003996,space,57.88951739994809,,,,,,,,,,,,,sub-200,1.0,random_dot,60.0476898469443,
right,right,speed,,,,,0.0,0.0,0.0,1.0,0.0,0.0,0.0,1.0,113.70341640000696,,,,,,,,,113.69605799997224,114.89431350002997,115.69789019995368,115.67948289995547,115.67953309998848,115.69789019995368,115.69789019995368,115.69789019995368,,116.1671503999969,right,1.0,50.01880479999818,,,,,,,,,,,,,,,,,,,,109.76753459998872,109.82712539995556,109.82712539995556,113.67923280003016,space,53.40025049995165,,,,,,sub-200,1.0,random_dot,60.0476898469443,
left,left,speed,,,,,0.0,0.0,0.0,1.0,0.0,1.0,1.0,0.0,116.17846460000146,,,,,,,,,116.1706304999534,116.27883149997795,117.08222099998966,117.06389160000252,117.06394090002868,117.08222099998966,117.08222099998966,117.08222099998966,,117.61803180002607,left,1.0,50.08412789995782,,,,,,,,,,,,,,,,,,,,,,,,,,,,,,,sub-200,1.0,random_dot,60.0476898469443,
right,right,speed,,,,,0.0,0.0,0.0,1.0,1.0,0.0,2.0,1.0,117.62955249997322,,,,,,,,,117.62081660004333,117.9800111000659,118.7832885000389,118.7651223000139,118.7651949999854,118.7832885000389,118.7832885000389,118.7832885000389,,119.55293190001976,right,1.0,50.32262669992633,,,,,,,,,,,,,,,,,,,,,,,,,,,,,,,sub-200,1.0,random_dot,60.0476898469443,
left,left,speed,,,,,0.0,0.0,0.0,1.0,1.0,1.0,3.0,0.0,119.56410259997938,,,,,,,,,119.55554159998428,119.9146206000587,120.71799849998206,120.6997841000557,120.6998326999601,120.71799849998206,120.71799849998206,120.71799849998206,,121.6376631000312,left,1.0,50.4703377999831,,,,,,,,,,,,,,,,,,,,,,,,,,,,,,,sub-200,1.0,random_dot,60.0476898469443,
left,left,speed,,,,,0.0,0.0,0.0,1.0,2.0,0.0,4.0,0.0,121.64907469996253,,,,,,,,,121.6402659000596,122.44972769997548,123.2530318000354,123.23468890006188,123.23473470006138,123.2530318000354,123.2530318000354,123.2530318000354,,123.8225292999996,right,0.0,50.12411649990827,,,,,,,,,,,,,,,,,,,,,,,,,,,,,,,sub-200,1.0,random_dot,60.0476898469443,
right,right,speed,,,,,0.0,0.0,0.0,1.0,2.0,1.0,5.0,1.0,123.833728000056,,,,,,,,,123.82518549996894,124.63455519999845,125.43795870000032,125.41946430003736,125.419513400062,125.43795870000032,125.43795870000032,125.43795870000032,,126.29071770003064,right,1.0,50.39940330001991,,,,,,,,,,,,,,,,,,,,,,,,,,,,,,,sub-200,1.0,random_dot,60.0476898469443,
right,right,speed,,,,,0.0,0.0,0.0,1.0,3.0,0.0,6.0,1.0,126.3021488999948,,,,,,,,,126.29348900006153,126.60278149996884,127.40594800002872,127.3876939000329,127.38774260005448,127.40594800002872,127.40594800002872,127.40594800002872,,128.92600340000354,left,0.0,51.070980299962685,,,,,,,,,,,,,,,,,,,,,,,,,,,,,,,sub-200,1.0,random_dot,60.0476898469443,
left,left,speed,,,,,0.0,0.0,0.0,1.0,3.0,1.0,7.0,0.0,128.93737259996124,,,,,,,,,128.92875930003356,129.03758610005025,129.84099749999586,129.82266319997143,129.8227253999794,129.84099749999586,129.84099749999586,129.84099749999586,,130.72700690000784,left,1.0,50.43630399997346,,,,,,,,,,,,,,,,,,,,,,,,,,,,,,,sub-200,1.0,random_dot,60.0476898469443,
left,left,speed,,,,,0.0,0.0,0.0,1.0,4.0,0.0,8.0,0.0,130.73852480005007,,,,,,,,,130.72971340001095,131.53922979999334,132.342643699958,132.32439059996975,132.32443989999592,132.342643699958,132.342643699958,132.342643699958,,132.79515350004658,right,0.0,49.99461689998861,,,,,,,,,,,,,,,,,,,,,,,,,,,,,,,sub-200,1.0,random_dot,60.0476898469443,
right,right,speed,,,,,0.0,0.0,0.0,1.0,4.0,1.0,9.0,1.0,132.80660660006106,,,,,,,,,132.7978839999996,132.90675189998,133.71028610004578,133.69194639998022,133.69199710001703,133.71028610004578,133.71028610004578,133.71028610004578,,134.19602479995228,right,1.0,50.02668839995749,,,,,,,,,,,,,,,,,,,,,,,,,,,,,,,sub-200,1.0,random_dot,60.0476898469443,
right,right,speed,,,,,0.0,0.0,0.0,1.0,5.0,0.0,10.0,1.0,134.20759150001686,,,,,,,,,134.1987448000582,134.55788370000664,135.3613891999703,135.34285759995691,135.34291790006682,135.3613891999703,135.3613891999703,135.3613891999703,,136.16427559999283,left,0.0,50.35563979996368,,,,,,,,,,,,,,,,,,,,,,,,,,,,,,,sub-200,1.0,random_dot,60.0476898469443,
left,left,speed,,,,,0.0,0.0,0.0,1.0,5.0,1.0,11.0,0.0,136.175614100066,,,,,,,,,136.16702449996956,136.5260416000383,137.32960890000686,137.31119170004968,137.31124089995865,137.32960890000686,137.32960890000686,137.32960890000686,,138.5155431999592,left,1.0,50.72717399999965,,,,,,,,,,,,,,,,,,,,,,,,,,,,,,,sub-200,1.0,random_dot,60.0476898469443,
left,left,speed,,,,,0.0,0.0,0.0,1.0,6.0,0.0,12.0,0.0,138.52714879997075,,,,,,,,,138.5186297000619,138.62752420001198,139.43089740001597,139.4125155999791,139.41257310006768,139.43089740001597,139.43089740001597,139.43089740001597,,140.1342122000642,right,0.0,50.25635699997656,,,,,,,,,,,,,,,,,,,,,,,,,,,,,,,sub-200,1.0,random_dot,60.0476898469443,
right,right,speed,,,,,0.0,0.0,0.0,1.0,6.0,1.0,13.0,1.0,140.1449113000417,,,,,,,,,140.13735590002034,141.3459251000313,142.14939100004267,142.13118350005243,142.13123249995988,142.14939100004267,142.14939100004267,142.14939100004267,,142.90213489998132,right,1.0,50.30833529995289,,,,,,,,,,,,,,,,,,,,,,,,,,,,,,,sub-200,1.0,random_dot,60.0476898469443,
right,right,speed,,,,,0.0,0.0,0.0,1.0,7.0,0.0,14.0,1.0,142.91367040004116,,,,,,,,,142.9049220000161,143.26387889997568,144.06745470000897,144.04877570003737,144.04882100003306,144.06745470000897,144.06745470000897,144.06745470000897,,145.10370860004332,right,1.0,50.59005270001944,,,,,,,,,,,,,,,,,,,,,,,,,,,,,,,sub-200,1.0,random_dot,60.0476898469443,
left,left,speed,,,,,0.0,0.0,0.0,1.0,7.0,1.0,15.0,0.0,145.11503810004797,,,,,,,,,145.1063492000103,145.21537160000298,146.0190084000351,146.00049350003246,146.00054839998484,146.0190084000351,146.0190084000351,146.0190084000351,,147.00529830006417,left,1.0,50.5380029999651,,,,,,,,,,,,,,,,,,,,,,,,,,,,,,,sub-200,1.0,random_dot,60.0476898469443,
right,right,speed,,,,,0.0,0.0,0.0,1.0,8.0,0.0,16.0,1.0,147.01636660005897,,,,,,,,,147.0080622000387,147.8170224999776,148.62045689998197,148.6022159999702,148.6022665000055,148.62045689998197,148.62045689998197,148.62045689998197,,149.58978290006053,right,1.0,50.51669560000301,,,,,,,,,,,,,,,,,,,,,,,,,,,,,,,sub-200,1.0,random_dot,60.0476898469443,
left,left,speed,,,,,0.0,0.0,0.0,1.0,8.0,1.0,17.0,0.0,149.6014334000647,,,,,,,,,149.5924980000127,149.70188059995417,150.50518129998818,150.48660040006507,150.4866504999809,150.50518129998818,150.50518129998818,150.50518129998818,,151.6746152000269,left,1.0,50.71224259992596,,,,,,,,,,,,,,,,,,,,,,,,,,,,,,,sub-200,1.0,random_dot,60.0476898469443,
left,left,speed,,,,,0.0,0.0,0.0,1.0,9.0,0.0,18.0,0.0,151.68622380006127,,,,,,,,,151.67706410004757,152.88729470002,153.69084329996258,153.672335500014,153.67238490004092,153.69084329996258,153.69084329996258,153.69084329996258,,154.77665370004252,left,1.0,50.62709029996768,,,,,,,,,,,,,,,,,,,,,,,,,,,,,,,sub-200,1.0,random_dot,60.0476898469443,
right,right,speed,,,,,0.0,0.0,0.0,1.0,9.0,1.0,19.0,1.0,154.78851280000526,,,,,,,,,154.77943680004682,154.8887582999887,155.69216289999895,155.67368590005208,155.67373579996638,155.69216289999895,155.69216289999895,155.69216289999895,,156.64491539995652,right,1.0,50.50635240005795,,,,,,,,,,,,,,,,,,,,,,,,,,,,,,,sub-200,1.0,random_dot,60.0476898469443,
right,right,speed,,,,,0.0,0.0,0.0,1.0,10.0,0.0,20.0,1.0,156.65643780003302,,,,,,,,,156.6476224999642,157.45712939999066,158.2603958999971,158.24203189997934,158.24208240001462,158.2603958999971,158.2603958999971,158.2603958999971,,159.79676539998036,right,1.0,51.078022100031376,,,,,,,,,,,,,,,,,,,,,,,,,,,,,,,sub-200,1.0,random_dot,60.0476898469443,
left,left,speed,,,,,0.0,0.0,0.0,1.0,10.0,1.0,21.0,0.0,159.8085591000272,,,,,,,,,159.7993523000041,160.15883169998415,160.96220920002088,160.94402649998665,160.9440758000128,160.96220920002088,160.96220920002088,160.96220920002088,,161.6979698999785,left,1.0,50.28472809994128,,,,,,,,,,,,,,,,,,,,,,,,,,,,,,,sub-200,1.0,random_dot,60.0476898469443,
left,left,speed,,,,,0.0,0.0,0.0,1.0,11.0,0.0,22.0,0.0,161.70986599999014,,,,,,,,,161.70034690003376,162.5104497000575,163.31384740001522,163.29551440000068,163.29556050000247,163.31384740001522,163.31384740001522,163.31384740001522,,164.6502081999788,right,0.0,50.884228299953975,,,,,,,,,,,,,,,,,,,,,,,,,,,,,,,sub-200,1.0,random_dot,60.0476898469443,
right,right,speed,,,,,0.0,0.0,0.0,1.0,11.0,1.0,23.0,1.0,164.6618094999576,,,,,,,,,164.65305049996823,165.46246469998732,166.2658676999854,166.2476950000273,166.2477450000588,166.2658676999854,166.2658676999854,166.2658676999854,,167.6530370999826,right,1.0,50.93365650007036,,,,,,,,,,,,,,,,,,,,,,,,,,,,,,,sub-200,1.0,random_dot,60.0476898469443,
right,right,speed,,,,,0.0,0.0,0.0,1.0,12.0,0.0,24.0,1.0,167.66377910005394,,,,,,,,,167.65576580003835,168.01437940006144,168.8177225999534,168.79955270001665,168.79960629995912,168.8177225999534,168.8177225999534,168.8177225999534,,170.17082440003287,right,1.0,50.90010299999267,,,,,,,,,,,,,,,,,,,,,,,,,,,,,,,sub-200,1.0,random_dot,60.0476898469443,
left,left,speed,,,,,0.0,0.0,0.0,1.0,12.0,1.0,25.0,0.0,170.18223609996494,,,,,,,,,170.17364900000393,170.5327263000654,171.3362609000178,171.3179575999966,171.3180075000273,171.3362609000178,171.3362609000178,171.3362609000178,,172.25566699996125,left,1.0,50.462140900082886,,,,,,,,,,,,,,,,,,,,,,,,,,,,,,,sub-200,1.0,random_dot,60.0476898469443,
left,left,speed,,,,,0.0,0.0,0.0,1.0,13.0,0.0,26.0,0.0,172.26699330005795,,,,,,,,,172.25855819997378,172.61727659997996,173.4207312000217,173.4026818999555,173.4027339000022,173.4207312000217,173.4207312000217,173.4207312000217,,174.09040920005646,left,1.0,50.21822819998488,,,,,,,,,,,,,,,,,,,,,,,,,,,,,,,sub-200,1.0,random_dot,60.0476898469443,
right,right,speed,,,,,0.0,0.0,0.0,1.0,13.0,1.0,27.0,1.0,174.1016033999622,,,,,,,,,174.09311959997285,174.45216560002882,175.25550660002045,175.23708210000768,175.23712669999804,175.25550660002045,175.25550660002045,175.25550660002045,,175.85806450003292,right,1.0,50.153278499958105,,,,,,,,,,,,,,,,,,,,,,,,,,,,,,,sub-200,1.0,random_dot,60.0476898469443,
right,right,speed,,,,,0.0,0.0,0.0,1.0,14.0,0.0,28.0,1.0,175.86957209999673,,,,,,,,,175.8606561999768,177.0704795999918,177.8740012999624,177.85567880002782,177.85573840001598,177.8740012999624,177.8740012999624,177.8740012999624,,179.3770667000208,right,1.0,51.04414939996786,,,,,,,,,,,,,,,,,,,,,,,,,,,,,,,sub-200,1.0,random_dot,60.0476898469443,
left,left,speed,,,,,0.0,0.0,0.0,1.0,14.0,1.0,29.0,0.0,179.38852330006193,,,,,,,,,179.37988719996065,180.18937999999616,180.99272920005023,180.9744448000565,180.97449329996016,180.99272920005023,180.99272920005023,180.99272920005023,,181.6117707999656,left,1.0,50.16493840003386,,,,,,,,,,,,,,,,,,,,,,,,,,,,,,,sub-200,1.0,random_dot,60.0476898469443,
right,right,speed,,,,,0.0,0.0,0.0,1.0,15.0,0.0,30.0,1.0,181.62337230006236,,,,,,,,,181.61452499998268,181.97393790003844,182.7774560999824,182.75903149996884,182.75908190000337,182.7774560999824,182.7774560999824,182.7774560999824,,183.1461267999839,right,1.0,49.92059899994638,,,,,,,,,,,,,,,,,,,,,,,,,,,,,,,sub-200,1.0,random_dot,60.0476898469443,
left,left,speed,,,,,0.0,0.0,0.0,1.0,15.0,1.0,31.0,0.0,183.15785139997024,,,,,,,,,183.1486175999744,183.25814920000263,184.0614993000636,184.04287570004817,184.04292649996933,184.0614993000636,184.0614993000636,184.0614993000636,,184.64722889999396,left,1.0,50.136821900028735,,,,,,,,,,,,,,,,,,,,,,,,,,,,,,,sub-200,1.0,random_dot,60.0476898469443,
right,right,speed,,,,,0.0,0.0,0.0,1.0,16.0,0.0,32.0,1.0,184.6587661000667,,,,,,,,,184.64979950001,185.0093131000176,185.81275599997025,185.79448070004585,185.79453109996396,185.81275599997025,185.81275599997025,185.81275599997025,,186.33261869999117,right,1.0,50.075696599902585,,,,,,,,,,,,,,,,,,,,,,,,,,,,,,,sub-200,1.0,random_dot,60.0476898469443,
left,left,speed,,,,,0.0,0.0,0.0,1.0,16.0,1.0,33.0,0.0,186.34327870002016,,,,,,,,,186.33544140006416,187.5443671999965,188.34783019998576,188.32938170002308,188.3294278000249,188.34783019998576,188.34783019998576,188.34783019998576,,189.16706390003677,left,1.0,50.37041870004032,,,,,,,,,,,,,,,,,,,,,,,,,,,,,,,sub-200,1.0,random_dot,60.0476898469443,
left,left,speed,,,,,0.0,0.0,0.0,1.0,17.0,0.0,34.0,0.0,189.1785494000651,,,,,,,,,189.1696039000526,189.27883850003127,190.0822058999911,190.06364499998745,190.063680900028,190.0822058999911,190.0822058999911,190.0822058999911,,190.86850580002647,left,1.0,50.33560120000038,,,,,,,,,,,,,,,,,,,,,,,,,,,,,,,sub-200,1.0,random_dot,60.0476898469443,
right,right,speed,,,,,0.0,0.0,0.0,1.0,17.0,1.0,35.0,1.0,190.8798785000108,,,,,,,,,190.87149509997107,190.98011110001244,191.78354189998936,191.7649002999533,191.76494570006616,191.78354189998936,191.78354189998936,191.78354189998936,,192.6029622000642,right,1.0,50.374410999938846,,,,,,,,,,,,,,,,,,,,,,,,,,,,,,,sub-200,1.0,random_dot,60.0476898469443,
left,left,speed,,,,,0.0,0.0,0.0,1.0,18.0,0.0,36.0,0.0,192.61433769995347,,,,,,,,,192.60567139997147,193.8153748000041,194.6187633000081,194.60040250001475,194.60045240004547,194.6187633000081,194.6187633000081,194.6187633000081,,195.27196240006012,left,1.0,50.209895099978894,,,,,,,,,,,,,,,,,,,,,,,,,,,,,,,sub-200,1.0,random_dot,60.0476898469443,
right,right,speed,,,,,0.0,0.0,0.0,1.0,18.0,1.0,37.0,1.0,195.2828488000669,,,,,,,,,195.27427659998648,196.48390680004377,197.2872739000013,197.2690795999952,197.2691364999628,197.2872739000013,197.2872739000013,197.2872739000013,,197.6561618000269,right,1.0,49.92093909997493,,,,,,,,,,,,,,,,,,,,,,,,,,,,,,,sub-200,1.0,random_dot,60.0476898469443,
left,left,speed,,,,,0.0,0.0,0.0,1.0,19.0,0.0,38.0,0.0,197.66770500002892,,,,,,,,,197.6587296000216,198.46854969998824,199.2719289000379,199.2534659999656,199.25351850001607,199.2719289000379,199.2719289000379,199.2719289000379,,199.7741371999728,left,1.0,50.05594770004973,,,,,,,,,,,,,,,,,,,,,,,,,,,,,,,sub-200,1.0,random_dot,60.0476898469443,
right,right,speed,,,,,0.0,0.0,0.0,1.0,19.0,1.0,39.0,1.0,199.7860124000581,,,,,,,,,199.7766581999604,199.8861188000301,200.6896354999626,200.6712339000078,200.67128270003013,200.6896354999626,200.6896354999626,200.6896354999626,,201.3257964999648,right,1.0,50.17902709997725,,,,,,,,,,,,,,,,,,,,,,,,,,,,,,,sub-200,1.0,random_dot,60.0476898469443,
right,right,speed,,,,,0.0,0.0,0.0,1.0,20.0,0.0,40.0,1.0,201.33690140000544,,,,,,,,,201.32886320003308,202.13766839995515,202.94310799997768,202.92314810003157,202.92322050000075,202.94310799997768,202.94310799997768,202.94310799997768,,203.87747639999725,right,1.0,50.48585599998478,,,,,,,,,,,,,,,,,,,,,,,,,,,,,,,sub-200,1.0,random_dot,60.0476898469443,
left,left,speed,,,,,0.0,0.0,0.0,1.0,20.0,1.0,41.0,0.0,203.8888040999882,,,,,,,,,203.8801977999974,204.68950810004023,205.49294619995635,205.4745064000599,205.4745552999666,205.49294619995635,205.49294619995635,205.49294619995635,,206.11203770001885,left,1.0,50.16635099996347,,,,,,,,,,,,,,,,,,,,,,,,,,,,,,,sub-200,1.0,random_dot,60.0476898469443,
left,left,speed,,,,,0.0,0.0,0.0,1.0,21.0,0.0,42.0,0.0,206.12365890003275,,,,,,,,,206.11482160002925,206.92450820002705,207.7277635000646,207.70939279999584,207.7094373999862,207.7277635000646,207.7277635000646,207.7277635000646,,208.06332359998487,right,0.0,49.890961900004186,,,,,,,,,,,,,,,,,,,,,,,,,,,,,,,sub-200,1.0,random_dot,60.0476898469443,
right,right,speed,,,,,0.0,0.0,0.0,1.0,21.0,1.0,43.0,1.0,208.0749471000163,,,,,,,,,208.0653813000536,209.2760153999552,210.07928880001415,210.06101990002207,210.06106500001624,210.07928880001415,210.07928880001415,210.07928880001415,,210.6989128000569,right,1.0,50.17035999998916,,,,,,,,,,,,,,,,,,,,,,,,,,,,,,,sub-200,1.0,random_dot,60.0476898469443,
left,left,speed,,,,,0.0,0.0,0.0,1.0,22.0,0.0,44.0,0.0,210.71005520003385,,,,,,,,,210.70177429995965,211.91112679999787,212.7146090000169,212.69603470002767,212.69608390005305,212.7146090000169,212.7146090000169,212.7146090000169,,213.46746379998515,left,1.0,50.30578689998947,,,,,,,,,,,,,,,,,,,,,,,,,,,,,,,sub-200,1.0,random_dot,60.0476898469443,
right,right,speed,,,,,0.0,0.0,0.0,1.0,22.0,1.0,45.0,1.0,213.47870820004027,,,,,,,,,213.47011910006404,214.6795365000144,215.48306530003904,215.46466399997007,215.4647150000092,215.48306530003904,215.48306530003904,215.48306530003904,,216.0857929000631,right,1.0,50.155816499958746,,,,,,,,,,,,,,,,,,,,,,,,,,,,,,,sub-200,1.0,random_dot,60.0476898469443,
left,left,speed,,,,,0.0,0.0,0.0,1.0,23.0,0.0,46.0,0.0,216.09706629998985,,,,,,,,,216.0882772000041,216.19741380005144,217.00094549998173,216.9823840999743,216.98242570005823,217.00094549998173,217.00094549998173,217.00094549998173,,217.63666069996543,left,1.0,50.17771839990746,,,,,,,,,,,,,,,,,,,,,,,,,,,,,,,sub-200,1.0,random_dot,60.0476898469443,
right,right,speed,,,,,0.0,0.0,0.0,1.0,23.0,1.0,47.0,1.0,217.64809629996307,,,,,,,,,217.63913929997943,217.74841550004203,218.55191559996456,218.5333130999934,218.5333654000424,218.55191559996456,218.55191559996456,218.55191559996456,,219.28781280003025,right,1.0,50.27687860000879,,,,,,,,,,,,,,,,,,,,,,,,,,,,,,,sub-200,1.0,random_dot,60.0476898469443,
left,left,speed,,,,,0.0,0.0,0.0,1.0,24.0,0.0,48.0,0.0,219.2994026000379,,,,,,,,,219.29056900006253,220.10011480003595,220.90362920006737,220.88513730000705,220.88518570002637,220.90362920006737,220.90362920006737,220.90362920006737,,221.77316209999844,left,1.0,50.41542700002901,,,,,,,,,,,,,,,,,,,,,,,,,,,,,,,sub-200,1.0,random_dot,60.0476898469443,
right,right,speed,,,,,0.0,0.0,0.0,1.0,24.0,1.0,49.0,1.0,221.78434350003957,,,,,,,,,221.77576490002684,222.985255699954,223.7888330999995,223.7703341000015,223.7703875000589,223.7888330999995,223.7888330999995,223.7888330999995,,224.3745622000424,right,1.0,50.14049019990489,,,,,,,,,,,,,,,,,,,,,,,,,,,,,,,sub-200,1.0,random_dot,60.0476898469443,
left,left,speed,,,,,0.0,0.0,0.0,1.0,25.0,0.0,50.0,0.0,224.3860096000135,,,,,,,,,224.37704180006403,224.4864600000437,225.28970740002117,225.2715915000299,225.2716416000621,225.28970740002117,225.28970740002117,225.28970740002117,,225.90907100006007,left,1.0,50.16012419993058,,,,,,,,,,,,,,,,,,,,,,,,,,,,,,,sub-200,1.0,random_dot,60.0476898469443,
right,right,speed,,,,,0.0,0.0,0.0,1.0,25.0,1.0,51.0,1.0,225.92046739999205,,,,,,,,,225.9116049000295,226.72125719999892,227.52471589995548,227.50641060003545,227.5064578000456,227.52471589995548,227.52471589995548,227.52471589995548,,228.19380500004627,right,1.0,50.22462250001263,,,,,,,,,,,,,,,,,,,,,,,,,,,,,,,sub-200,1.0,random_dot,60.0476898469443,
right,right,speed,,,,,0.0,0.0,0.0,1.0,26.0,0.0,52.0,1.0,228.2055107000051,,,,,,,,,228.19629390002228,228.55585640005305,229.35924989997875,229.3409596000565,229.3410055000568,229.35924989997875,229.35924989997875,229.35924989997875,,230.5121128000319,right,1.0,50.70066109998152,,,,,,,,,,,,,,,,,,,,,,,,,,,,,,,sub-200,1.0,random_dot,60.0476898469443,
left,left,speed,,,,,0.0,0.0,0.0,1.0,26.0,1.0,53.0,0.0,230.52376420004293,,,,,,,,,230.514720999985,230.874199999962,231.67758240003604,231.65909149998333,231.65914170001636,231.67758240003604,231.67758240003604,231.67758240003604,,232.14633450005203,left,1.0,50.0124763000058,,,,,,,,,,,,,,,,,,,,,,,,,,,,,,,sub-200,1.0,random_dot,60.0476898469443,
right,right,speed,,,,,0.0,0.0,0.0,1.0,27.0,0.0,54.0,1.0,232.15818589995612,,,,,,,,,232.1487666000612,232.95889829995576,233.76234869996551,233.7439055000432,233.7439779000124,233.76234869996551,233.76234869996551,233.76234869996551,,234.4648328999756,right,1.0,50.24692879989743,,,,,,,,,,,,,,,,,,,,,,,,,,,,,,,sub-200,1.0,random_dot,60.0476898469443,
left,left,speed,,,,,0.0,0.0,0.0,1.0,27.0,1.0,55.0,0.0,234.47648740001023,,,,,,,,,234.46756290004123,234.82679369999096,235.6301639999729,235.61187899997455,235.61192479997408,235.6301639999729,235.6301639999729,235.6301639999729,,236.41638710000552,left,1.0,50.328377899946645,,,,,,,,,,,,,,,,,,,,,,,,,,,,,,,sub-200,1.0,random_dot,60.0476898469443,
right,right,speed,,,,,0.0,0.0,0.0,1.0,28.0,0.0,56.0,1.0,236.42790190002412,,,,,,,,,236.4191601000493,237.62870440003465,238.4322400999954,238.4138827000279,238.41393140004948,238.4322400999954,238.4322400999954,238.4322400999954,,239.03470750001725,right,1.0,50.15660520002712,,,,,,,,,,,,,,,,,,,,,,,,,,,,,,,sub-200,1.0,random_dot,60.0476898469443,
left,left,speed,,,,,0.0,0.0,0.0,1.0,28.0,1.0,57.0,0.0,239.04612970002927,,,,,,,,,239.03724540001716,239.14638829999603,239.94985670002643,239.93152870005,239.93157869996503,239.94985670002643,239.94985670002643,239.94985670002643,,240.70238869998136,left,1.0,50.29949869995471,,,,,,,,,,,,,,,,,,,,,,,,,,,,,,,sub-200,1.0,random_dot,60.0476898469443,
right,right,speed,,,,,0.0,0.0,0.0,1.0,29.0,0.0,58.0,1.0,240.7139151999727,,,,,,,,,240.7049677000614,241.0644648000598,241.86784720001745,241.84963229997084,241.84968250000384,241.86784720001745,241.86784720001745,241.86784720001745,,242.4869943000376,right,1.0,50.161968200001866,,,,,,,,,,,,,,,,,,,,,,,,,,,,,,,sub-200,1.0,random_dot,60.0476898469443,
left,left,speed,,,,,0.0,0.0,0.0,1.0,29.0,1.0,59.0,0.0,242.49856790003832,,,,,,,,,242.48978900001384,242.84900980000384,243.6524216999533,243.63410909997765,243.6341581000015,243.6524216999533,243.6524216999533,243.6524216999533,,244.2214899000246,left,1.0,50.11799489997793,,,,,,,,,,,,,,,,,,,,,,,,,,,,,,,sub-200,1.0,random_dot,60.0476898469443,
,,speed,,,,,0.0,0.0,0.0,1.0,,,,,,,,,,,,,,,,,,,,,,,,,,,,,,,,,,,,,,,,,,,,,,,,,,,,,,,,,sub-200,1.0,random_dot,60.0476898469443,
left,left,accuracy,,,,,0.0,1.0,1.0,0.0,0.0,0.0,0.0,0.0,249.2131729000248,,,,,,,,,249.20623220002744,249.30348120001145,250.1067694000667,250.08867420000024,250.08873139997013,250.1067694000667,250.1067694000667,250.1067694000667,,250.8761508000316,left,1.0,50.31297089997679,,,,,,,,,,,,,,,,,,,,244.22388239996508,244.26246350002475,244.26246350002475,249.18886150000617,space,54.46793429995887,,,,,,sub-200,1.0,random_dot,60.0476898469443,
right,right,accuracy,,,,,0.0,1.0,1.0,0.0,0.0,1.0,1.0,1.0,250.88766610005405,,,,,,,,,250.8798348000273,250.98784600000363,251.7914244000567,251.77323299995624,251.7735697999597,251.7914244000567,251.7914244000567,251.7914244000567,,254.6281107000541,right,1.0,52.37814929999877,,,,,,,,,,,,,,,,,,,,,,,,,,,,,,,sub-200,1.0,random_dot,60.0476898469443,
right,right,accuracy,,,,,0.0,1.0,1.0,0.0,1.0,0.0,2.0,1.0,254.6400274999905,,,,,,,,,254.63158629997636,255.44052930001635,256.24425820005126,256.22540770005435,256.2254373000469,256.24425820005126,256.24425820005126,256.24425820005126,,257.1124640000053,right,1.0,50.41518760006875,,,,,,,,,,,,,,,,,,,,,,,,,,,,,,,sub-200,1.0,random_dot,60.0476898469443,
left,left,accuracy,,,,,0.0,1.0,1.0,0.0,1.0,1.0,3.0,0.0,257.1251013999572,,,,,,,,,257.1137346000178,258.3259559000144,259.12942620005924,259.1108246999793,259.1108509000624,259.12942620005924,259.12942620005924,259.12942620005924,,259.99814280006103,left,1.0,50.42091189988423,,,,,,,,,,,,,,,,,,,,,,,,,,,,,,,sub-200,1.0,random_dot,60.0476898469443,
left,left,accuracy,,,,,0.0,1.0,1.0,0.0,2.0,0.0,4.0,0.0,260.01034300005995,,,,,,,,,260.0002073000651,260.1105892000487,260.91438059997745,260.8954229999799,260.8954725000076,260.91438059997745,260.91438059997745,260.91438059997745,265.9008065999951,267.0039398999652,left,1.0,55.63528619997669,,,,,,,,,,,,,,,,,,,,,,,,,,,,,,,sub-200,1.0,random_dot,60.0476898469443,
right,right,accuracy,,,,,0.0,1.0,1.0,0.0,2.0,1.0,5.0,1.0,267.01554210006725,,,,,,,,,267.006654900033,268.2164925000397,269.0199059000006,269.00144669995643,269.0014958999818,269.0199059000006,269.0199059000006,269.0199059000006,,269.7224687000271,right,1.0,50.25054649997037,,,,,,,,,,,,,,,,,,,,,,,,,,,,,,,sub-200,1.0,random_dot,60.0476898469443,
right,right,accuracy,,,,,0.0,1.0,1.0,0.0,3.0,0.0,6.0,1.0,269.73395599995274,,,,,,,,,269.72530469996855,270.084312699968,270.8878329000436,270.8695513999555,270.8696011999855,270.8878329000436,270.8878329000436,270.8878329000436,,271.45724640006665,left,0.0,50.12361589993816,,,,,,,,,,,,,,,,,,,,,,,,,,,,,,,sub-200,1.0,random_dot,60.0476898469443,
left,left,accuracy,,,,,0.0,1.0,1.0,0.0,3.0,1.0,7.0,0.0,271.4685039999895,,,,,,,,,271.4601137000136,271.81896960001905,272.62237820005976,272.604161700001,272.6042358999839,272.62237820005976,272.62237820005976,272.62237820005976,,273.2249884000048,left,1.0,50.1577148999786,,,,,,,,,,,,,,,,,,,,,,,,,,,,,,,sub-200,1.0,random_dot,60.0476898469443,
left,left,accuracy,,,,,0.0,1.0,1.0,0.0,4.0,0.0,8.0,0.0,273.23632819997147,,,,,,,,,273.2276930999942,274.43744560005143,275.2406993999612,275.2223824999528,275.2224317999789,275.2406993999612,275.2406993999612,275.2406993999612,,276.2268619000679,left,1.0,50.53903420001734,,,,,,,,,,,,,,,,,,,,,,,,,,,,,,,sub-200,1.0,random_dot,60.0476898469443,
right,right,accuracy,,,,,0.0,1.0,1.0,0.0,4.0,1.0,9.0,1.0,276.238329899963,,,,,,,,,276.2292663999833,277.03915339999367,277.84252639999613,277.8242534999736,277.8242983999662,277.84252639999613,277.84252639999613,277.84252639999613,,278.52855729998555,right,1.0,50.23853960004635,,,,,,,,,,,,,,,,,,,,,,,,,,,,,,,sub-200,1.0,random_dot,60.0476898469443,
left,left,accuracy,,,,,0.0,1.0,1.0,0.0,5.0,0.0,10.0,0.0,278.5398099999875,,,,,,,,,278.5319484999636,278.64029270003084,279.44356929999776,279.4254398000194,279.42548640002497,279.44356929999776,279.44356929999776,279.44356929999776,,280.2960204000119,left,1.0,50.40623059996869,,,,,,,,,,,,,,,,,,,,,,,,,,,,,,,sub-200,1.0,random_dot,60.0476898469443,
right,right,accuracy,,,,,0.0,1.0,1.0,0.0,5.0,1.0,11.0,1.0,280.30788029998075,,,,,,,,,280.2983688999666,281.10865820001345,281.91199249995407,281.8937428999925,281.893792900024,281.91199249995407,281.91199249995407,281.91199249995407,,282.9484242000617,right,1.0,50.58898389991373,,,,,,,,,,,,,,,,,,,,,,,,,,,,,,,sub-200,1.0,random_dot,60.0476898469443,
left,left,accuracy,,,,,0.0,1.0,1.0,0.0,6.0,0.0,12.0,0.0,282.95971700001974,,,,,,,,,282.9512519000564,283.31011389999185,284.1135469999863,284.09502979996614,284.0950800999999,284.1135469999863,284.1135469999863,284.1135469999863,,284.83319559996016,left,1.0,50.26826979999896,,,,,,,,,,,,,,,,,,,,,,,,,,,,,,,sub-200,1.0,random_dot,60.0476898469443,
right,right,accuracy,,,,,0.0,1.0,1.0,0.0,6.0,1.0,13.0,1.0,284.844258200028,,,,,,,,,284.8363443999551,284.94455330003984,285.7480157000245,285.72958170005586,285.7296306999633,285.7480157000245,285.7480157000245,285.7480157000245,,286.6672971000662,right,1.0,50.47327640000731,,,,,,,,,,,,,,,,,,,,,,,,,,,,,,,sub-200,1.0,random_dot,60.0476898469443,
right,right,accuracy,,,,,0.0,1.0,1.0,0.0,7.0,0.0,14.0,1.0,286.6787827999797,,,,,,,,,286.66981910006143,287.4796140999533,288.28301849996205,288.264733399963,288.2647822999861,288.28301849996205,288.28301849996205,288.28301849996205,,289.3523610000266,right,1.0,50.61777229991276,,,,,,,,,,,,,,,,,,,,,,,,,,,,,,,sub-200,1.0,random_dot,60.0476898469443,
left,left,accuracy,,,,,0.0,1.0,1.0,0.0,7.0,1.0,15.0,0.0,289.36403020005673,,,,,,,,,289.3549128000159,289.46434349997435,290.26761400001124,290.2494930999819,290.24953739997,290.26761400001124,290.26761400001124,290.26761400001124,,293.22206050006207,left,1.0,52.50467169994954,,,,,,,,,,,,,,,,,,,,,,,,,,,,,,,sub-200,1.0,random_dot,60.0476898469443,
right,right,accuracy,,,,,0.0,1.0,1.0,0.0,8.0,0.0,16.0,1.0,293.23341290000826,,,,,,,,,293.2248178999871,294.4344628000399,295.2377251000144,295.21949010004755,295.2195413999725,295.2377251000144,295.2377251000144,295.2377251000144,,295.8399467000272,right,1.0,50.14384189993143,,,,,,,,,,,,,,,,,,,,,,,,,,,,,,,sub-200,1.0,random_dot,60.0476898469443,
left,left,accuracy,,,,,0.0,1.0,1.0,0.0,8.0,1.0,17.0,0.0,295.8519859999651,,,,,,,,,295.8424835000187,296.6525767999701,297.456022700062,297.4376240000129,297.4376700000139,297.456022700062,297.456022700062,297.456022700062,,298.15858409996144,left,1.0,50.244697500020266,,,,,,,,,,,,,,,,,,,,,,,,,,,,,,,sub-200,1.0,random_dot,60.0476898469443,
right,right,accuracy,,,,,0.0,1.0,1.0,0.0,9.0,0.0,18.0,1.0,298.17010800004937,,,,,,,,,298.161396099953,298.5204921000404,299.3240186000476,299.305504100048,299.30555459996685,299.3240186000476,299.3240186000476,299.3240186000476,,299.9762142000254,right,1.0,50.19776070001535,,,,,,,,,,,,,,,,,,,,,,,,,,,,,,,sub-200,1.0,random_dot,60.0476898469443,
left,left,accuracy,,,,,0.0,1.0,1.0,0.0,9.0,1.0,19.0,0.0,299.98798880004324,,,,,,,,,299.9786906000227,301.1890446000034,301.9924848000519,301.9740581000224,301.9741123999702,301.9924848000519,301.9924848000519,301.9924848000519,,304.963526400039,right,0.0,52.51817649998702,,,,,,,,,,,,,,,,,,,,,,,,,,,,,,,sub-200,1.0,random_dot,60.0476898469443,
right,right,accuracy,,,,,0.0,1.0,1.0,0.0,10.0,0.0,20.0,1.0,304.97479740006384,,,,,,,,,304.9662505000597,306.17567869997583,306.9793140999973,306.960735199973,306.96078369999304,306.9793140999973,306.9793140999973,306.9793140999973,,307.7982611999614,right,1.0,50.3716336999787,,,,,,,,,,,,,,,,,,,,,,,,,,,,,,,sub-200,1.0,random_dot,60.0476898469443,
left,left,accuracy,,,,,0.0,1.0,1.0,0.0,10.0,1.0,21.0,0.0,307.8101435999852,,,,,,,,,307.80087709997315,308.16054289997555,308.9638844999717,308.945577400038,308.9456263000611,308.9638844999717,308.9638844999717,308.9638844999717,,309.5327204000205,left,1.0,50.11693539994303,,,,,,,,,,,,,,,,,,,,,,,,,,,,,,,sub-200,1.0,random_dot,60.0476898469443,
right,right,accuracy,,,,,0.0,1.0,1.0,0.0,11.0,0.0,22.0,1.0,309.5447179999901,,,,,,,,,309.5353606999852,309.6448474000208,310.4482563000638,310.42994379997253,310.4299924999941,310.4482563000638,310.4482563000638,310.4482563000638,,311.0846171999583,right,1.0,50.19296080002096,,,,,,,,,,,,,,,,,,,,,,,,,,,,,,,sub-200,1.0,random_dot,60.0476898469443,
left,left,accuracy,,,,,0.0,1.0,1.0,0.0,11.0,1.0,23.0,0.0,311.09563320002053,,,,,,,,,311.0875434000045,311.89632149995305,312.6997936000116,312.68150389997754,312.68155380000826,312.6997936000116,312.6997936000116,312.6997936000116,,313.2855850000633,left,1.0,50.14150139992125,,,,,,,,,,,,,,,,,,,,,,,,,,,,,,,sub-200,1.0,random_dot,60.0476898469443,
right,right,accuracy,,,,,0.0,1.0,1.0,0.0,12.0,0.0,24.0,1.0,313.2971984000178,,,,,,,,,313.28846680000424,313.64759289997164,314.45084810000844,314.43234659999143,314.43239520001225,314.45084810000844,314.45084810000844,314.45084810000844,,314.9704298999859,right,1.0,50.07042489992455,,,,,,,,,,,,,,,,,,,,,,,,,,,,,,,sub-200,1.0,random_dot,60.0476898469443,
left,left,accuracy,,,,,0.0,1.0,1.0,0.0,12.0,1.0,25.0,0.0,314.9815670000389,,,,,,,,,314.9735009999713,316.1828350999858,316.9860733000096,316.96771370002534,316.9677670999663,316.9860733000096,316.9860733000096,316.9860733000096,,317.63854960002936,left,1.0,50.19442859990522,,,,,,,,,,,,,,,,,,,,,,,,,,,,,,,sub-200,1.0,random_dot,60.0476898469443,
left,left,accuracy,,,,,0.0,1.0,1.0,0.0,13.0,0.0,26.0,0.0,317.65005830000155,,,,,,,,,317.64127320004627,317.7504221999552,318.553937299992,318.5355311000021,318.53557990002446,318.553937299992,318.553937299992,318.553937299992,,319.35655300004873,left,1.0,50.356722600059584,,,,,,,,,,,,,,,,,,,,,,,,,,,,,,,sub-200,1.0,random_dot,60.0476898469443,
right,right,accuracy,,,,,0.0,1.0,1.0,0.0,13.0,1.0,27.0,1.0,319.3679463999579,,,,,,,,,319.3590472000651,320.5689694000175,321.3724780000048,321.3539539000485,321.35400549997576,321.3724780000048,321.3724780000048,321.3724780000048,,321.95844509999733,right,1.0,50.13930849998724,,,,,,,,,,,,,,,,,,,,,,,,,,,,,,,sub-200,1.0,random_dot,60.0476898469443,
right,right,accuracy,,,,,0.0,1.0,1.0,0.0,14.0,0.0,28.0,1.0,321.9696969999932,,,,,,,,,321.9612735999981,323.17072479997296,323.9742461000569,323.9556457999861,323.95569169998635,323.9742461000569,323.9742461000569,323.9742461000569,,324.66006070002913,right,1.0,50.22819759999402,,,,,,,,,,,,,,,,,,,,,,,,,,,,,,,sub-200,1.0,random_dot,60.0476898469443,
left,left,accuracy,,,,,0.0,1.0,1.0,0.0,14.0,1.0,29.0,0.0,324.67179729999043,,,,,,,,,324.6627494000131,324.7719539999962,325.5752655999968,325.55721260001883,325.55726020003203,325.5752655999968,325.5752655999968,325.5752655999968,,326.1778667999897,left,1.0,50.14693879999686,,,,,,,,,,,,,,,,,,,,,,,,,,,,,,,sub-200,1.0,random_dot,60.0476898469443,
left,left,accuracy,,,,,0.0,1.0,1.0,0.0,15.0,0.0,30.0,0.0,326.1894436000148,,,,,,,,,326.180584799964,326.28964920004364,327.0930580999702,327.07457439997233,327.0746407000115,327.0930580999702,327.0930580999702,327.0930580999702,,328.8466736000264,left,1.0,51.30867069994565,,,,,,,,,,,,,,,,,,,,,,,,,,,,,,,sub-200,1.0,random_dot,60.0476898469443,
right,right,accuracy,,,,,0.0,1.0,1.0,0.0,15.0,1.0,31.0,1.0,328.8578874999657,,,,,,,,,328.84945380000863,329.2081557000056,330.01178479997907,329.9933612999739,329.993410199997,330.01178479997907,330.01178479997907,330.01178479997907,,332.34852050000336,left,0.0,51.8802660999354,,,,,,,,,,,,,,,,,,,,,,,,,,,,,,,sub-200,1.0,random_dot,60.0476898469443,
right,right,accuracy,,,,,0.0,1.0,1.0,0.0,16.0,0.0,32.0,1.0,332.3603343999712,,,,,,,,,332.3511048000073,333.5610398000572,334.3648126999615,334.3469722999725,334.3470284000505,334.3648126999615,334.3648126999615,334.3648126999615,,335.4763527000323,right,1.0,50.667541199945845,,,,,,,,,,,,,,,,,,,,,,,,,,,,,,,sub-200,1.0,random_dot,60.0476898469443,
left,left,accuracy,,,,,0.0,1.0,1.0,0.0,16.0,1.0,33.0,0.0,335.4893306000158,,,,,,,,,335.4813960000174,335.8292929000454,336.6328935000347,336.61431139998604,336.6143524000654,336.6328935000347,336.6328935000347,336.6328935000347,,338.0869839000516,right,0.0,50.99928039999213,,,,,,,,,,,,,,,,,,,,,,,,,,,,,,,sub-200,1.0,random_dot,60.0476898469443,
left,left,accuracy,,,,,0.0,1.0,1.0,0.0,17.0,0.0,34.0,0.0,338.09753140003886,,,,,,,,,338.0895709999604,339.2985451000277,340.1018926999532,340.0835583000444,340.0836217000615,340.1018926999532,340.1018926999532,340.1018926999532,,341.35553589998744,right,0.0,50.81017760001123,,,,,,,,,,,,,,,,,,,,,,,,,,,,,,,sub-200,1.0,random_dot,60.0476898469443,
right,right,accuracy,,,,,0.0,1.0,1.0,0.0,17.0,1.0,35.0,1.0,341.3663307999959,,,,,,,,,341.35825000004843,342.1672727999976,342.97078400000464,342.95218879997265,342.95223739999346,342.97078400000464,342.97078400000464,342.97078400000464,,344.92409970005974,right,1.0,51.50119829992764,,,,,,,,,,,,,,,,,,,,,,,,,,,,,,,sub-200,1.0,random_dot,60.0476898469443,
left,left,accuracy,,,,,0.0,1.0,1.0,0.0,18.0,0.0,36.0,0.0,344.9355661000591,,,,,,,,,344.9268904000055,345.2860169999767,346.089499099995,346.07136329996865,346.0714172000298,346.089499099995,346.089499099995,346.089499099995,,348.32653009996284,left,1.0,51.792514299973845,,,,,,,,,,,,,,,,,,,,,,,,,,,,,,,sub-200,1.0,random_dot,60.0476898469443,
right,right,accuracy,,,,,0.0,1.0,1.0,0.0,18.0,1.0,37.0,1.0,348.3378290999681,,,,,,,,,348.3294929000549,348.43807919998653,349.241535600042,349.2231516999891,349.22320150001906,349.241535600042,349.241535600042,349.241535600042,,352.31292309996206,left,0.0,52.61219820007682,,,,,,,,,,,,,,,,,,,,,,,,,,,,,,,sub-200,1.0,random_dot,60.0476898469443,
left,left,accuracy,,,,,0.0,1.0,1.0,0.0,19.0,0.0,38.0,0.0,352.3238935000263,,,,,,,,,352.3161442000419,352.6743776999647,353.4801041999599,353.4600295999553,353.46010270004626,353.4801041999599,353.4801041999599,353.4801041999599,,355.1809628000483,left,1.0,51.25237089989241,,,,,,,,,,,,,,,,,,,,,,,,,,,,,,,sub-200,1.0,random_dot,60.0476898469443,
right,right,accuracy,,,,,0.0,1.0,1.0,0.0,19.0,1.0,39.0,1.0,355.19254089996684,,,,,,,,,355.18386560003273,355.29299810004886,356.0962665999541,356.0778457999695,356.07789559999947,356.0962665999541,356.0962665999541,356.0962665999541,,356.749023500015,right,1.0,50.20603879995178,,,,,,,,,,,,,,,,,,,,,,,,,,,,,,,sub-200,1.0,random_dot,60.0476898469443,
left,left,accuracy,,,,,0.0,1.0,1.0,0.0,20.0,0.0,40.0,0.0,356.76042629999574,,,,,,,,,356.7518219000194,357.11066570004914,357.9142504000338,357.8958720000228,357.895927399979,357.9142504000338,357.9142504000338,357.9142504000338,,359.00030830001924,right,0.0,50.62724970001727,,,,,,,,,,,,,,,,,,,,,,,,,,,,,,,sub-200,1.0,random_dot,60.0476898469443,
right,right,accuracy,,,,,0.0,1.0,1.0,0.0,20.0,1.0,41.0,1.0,359.0118497000076,,,,,,,,,359.00312630005646,359.11203590000514,359.9157273999881,359.89701129996683,359.89706410001963,359.9157273999881,359.9157273999881,359.9157273999881,,361.11875270004384,right,1.0,50.75592959998176,,,,,,,,,,,,,,,,,,,,,,,,,,,,,,,sub-200,1.0,random_dot,60.0476898469443,
left,left,accuracy,,,,,0.0,1.0,1.0,0.0,21.0,0.0,42.0,0.0,361.12996749999,,,,,,,,,361.1213690000586,362.3310489000287,363.1345428000204,363.11604690004606,363.1160961999558,363.1345428000204,363.1345428000204,363.1345428000204,,365.0381515000481,left,1.0,51.45780919992831,,,,,,,,,,,,,,,,,,,,,,,,,,,,,,,sub-200,1.0,random_dot,60.0476898469443,
right,right,accuracy,,,,,0.0,1.0,1.0,0.0,21.0,1.0,43.0,1.0,365.04945900000166,,,,,,,,,365.0407572999829,365.1495505999774,365.95300870004576,365.93464800005313,365.93469320004806,365.95300870004576,365.95300870004576,365.95300870004576,,366.65594870003406,left,0.0,50.25971230003052,,,,,,,,,,,,,,,,,,,,,,,,,,,,,,,sub-200,1.0,random_dot,60.0476898469443,
left,left,accuracy,,,,,0.0,1.0,1.0,0.0,22.0,0.0,44.0,0.0,366.6670240999665,,,,,,,,,366.6584117000457,367.8680856999708,368.67153880000114,368.65325430000667,368.6533024000237,368.67153880000114,368.67153880000114,368.67153880000114,,370.2420206000097,left,1.0,51.111330199986696,,,,,,,,,,,,,,,,,,,,,,,,,,,,,,,sub-200,1.0,random_dot,60.0476898469443,
right,right,accuracy,,,,,0.0,1.0,1.0,0.0,22.0,1.0,45.0,1.0,370.2528802000452,,,,,,,,,370.245157700032,371.4539593000664,372.2574465000071,372.2391143999994,372.2391617000103,372.2574465000071,372.2574465000071,372.2574465000071,,373.51033600000665,left,0.0,50.805337799945846,,,,,,,,,,,,,,,,,,,,,,,,,,,,,,,sub-200,1.0,random_dot,60.0476898469443,
left,left,accuracy,,,,,0.0,1.0,1.0,0.0,23.0,0.0,46.0,0.0,373.5217886000173,,,,,,,,,373.5127331999829,373.6220762999728,374.4254697000142,374.4072104999796,374.4072569999844,374.4254697000142,374.4254697000142,374.4254697000142,,375.27797199995257,left,1.0,50.39690669998527,,,,,,,,,,,,,,,,,,,,,,,,,,,,,,,sub-200,1.0,random_dot,60.0476898469443,
right,right,accuracy,,,,,0.0,1.0,1.0,0.0,23.0,1.0,47.0,1.0,375.2897559000412,,,,,,,,,375.2804303000448,375.3899703000207,376.193446499994,376.1749859000556,376.1750348999631,376.193446499994,376.193446499994,376.193446499994,,377.3293822000269,left,0.0,50.68951850000303,,,,,,,,,,,,,,,,,,,,,,,,,,,,,,,sub-200,1.0,random_dot,60.0476898469443,
left,left,accuracy,,,,,0.0,1.0,1.0,0.0,24.0,0.0,48.0,0.0,377.34113880002405,,,,,,,,,377.33187880006153,378.5421785999788,379.3454610999906,379.3271872999612,379.3272311000619,379.3454610999906,379.3454610999906,379.3454610999906,,383.417322800029,left,1.0,53.61769690003712,,,,,,,,,,,,,,,,,,,,,,,,,,,,,,,sub-200,1.0,random_dot,60.0476898469443,
right,right,accuracy,,,,,0.0,1.0,1.0,0.0,24.0,1.0,49.0,1.0,383.42859400005545,,,,,,,,,383.42016530002,384.62954620004166,385.4331398999784,385.4147427000571,385.4147913999623,385.4331398999784,385.4331398999784,385.4331398999784,,389.271336200065,left,0.0,53.39104360004421,,,,,,,,,,,,,,,,,,,,,,,,,,,,,,,sub-200,1.0,random_dot,60.0476898469443,
left,left,accuracy,,,,,0.0,1.0,1.0,0.0,25.0,0.0,50.0,0.0,389.28268319997005,,,,,,,,,389.27411210001446,390.48377699998673,391.2870373000624,391.2684918000596,391.2685377000598,391.2870373000624,391.2870373000624,391.2870373000624,,392.9901154000545,left,1.0,51.245673199999146,,,,,,,,,,,,,,,,,,,,,,,,,,,,,,,sub-200,1.0,random_dot,60.0476898469443,
right,right,accuracy,,,,,0.0,1.0,1.0,0.0,25.0,1.0,51.0,1.0,393.0019037000602,,,,,,,,,392.9925978999818,393.80249569995794,394.6059102000436,394.5877103999956,394.5877584000118,394.6059102000436,394.6059102000436,394.6059102000436,,395.8090345000383,right,1.0,50.756865500006825,,,,,,,,,,,,,,,,,,,,,,,,,,,,,,,sub-200,1.0,random_dot,60.0476898469443,
right,right,accuracy,,,,,0.0,1.0,1.0,0.0,26.0,0.0,52.0,1.0,395.8203912000172,,,,,,,,,395.8116175000323,395.9207497000461,396.7241257999558,396.7059530999977,396.7060311000096,396.7241257999558,396.7241257999558,396.7241257999558,,398.0942131000338,left,0.0,50.9186601000838,,,,,,,,,,,,,,,,,,,,,,,,,,,,,,,sub-200,1.0,random_dot,60.0476898469443,
left,left,accuracy,,,,,0.0,1.0,1.0,0.0,26.0,1.0,53.0,0.0,398.1054348000325,,,,,,,,,398.096828400041,398.9061243999749,399.709600900067,399.6911614000565,399.6912095999578,399.709600900067,399.709600900067,399.709600900067,,402.0298621000256,right,0.0,51.86276599997655,,,,,,,,,,,,,,,,,,,,,,,,,,,,,,,sub-200,1.0,random_dot,60.0476898469443,
right,right,accuracy,,,,,0.0,1.0,1.0,0.0,27.0,0.0,54.0,1.0,402.04152680002153,,,,,,,,,402.0326406999957,402.3918441999704,403.1953069999581,403.1770185000496,403.1770727999974,403.1953069999581,403.1953069999581,403.1953069999581,,404.2979032000294,right,1.0,50.657336599892005,,,,,,,,,,,,,,,,,,,,,,,,,,,,,,,sub-200,1.0,random_dot,60.0476898469443,
left,left,accuracy,,,,,0.0,1.0,1.0,0.0,27.0,1.0,55.0,0.0,404.30966579995584,,,,,,,,,404.3003503000364,405.5106134000234,406.313907600008,406.2957528999541,406.2958028999856,406.313907600008,406.313907600008,406.313907600008,,406.9332492999965,left,1.0,50.16975509992335,,,,,,,,,,,,,,,,,,,,,,,,,,,,,,,sub-200,1.0,random_dot,60.0476898469443,
right,right,accuracy,,,,,0.0,1.0,1.0,0.0,28.0,0.0,56.0,1.0,406.9448016999522,,,,,,,,,406.93590789998416,407.2952336999588,408.0984969000565,408.0803345000604,408.0803841999732,408.0984969000565,408.0984969000565,408.0984969000565,,409.1188708000118,right,1.0,50.576688200002536,,,,,,,,,,,,,,,,,,,,,,,,,,,,,,,sub-200,1.0,random_dot,60.0476898469443,
left,left,accuracy,,,,,0.0,1.0,1.0,0.0,28.0,1.0,57.0,0.0,409.1295496000676,,,,,,,,,409.1214003000641,410.3307095000055,411.1339701999677,411.1159153999761,411.11596359999385,411.1339701999677,411.1339701999677,411.1339701999677,,412.0034435000271,left,1.0,50.419745499966666,,,,,,,,,,,,,,,,,,,,,,,,,,,,,,,sub-200,1.0,random_dot,60.0476898469443,
left,left,accuracy,,,,,0.0,1.0,1.0,0.0,29.0,0.0,58.0,0.0,412.0148829000536,,,,,,,,,412.00583409995306,412.8156476999866,413.6190947999712,413.60078490001615,413.6008334000362,413.6190947999712,413.6190947999712,413.6190947999712,,414.5719437999651,left,1.0,50.50473799998872,,,,,,,,,,,,,,,,,,,,,,,,,,,,,,,sub-200,1.0,random_dot,60.0476898469443,
right,right,accuracy,,,,,0.0,1.0,1.0,0.0,29.0,1.0,59.0,1.0,414.5833706000121,,,,,,,,,414.5748901000479,414.9336511000293,415.73713550006505,415.71899900003336,415.7190478000557,415.73713550006505,415.73713550006505,415.73713550006505,,416.67320259998087,right,1.0,50.4778079999378,,,,,,,,,,,,,,,,,,,,,,,,,,,,,,,sub-200,1.0,random_dot,60.0476898469443,
,,accuracy,,,,,0.0,1.0,1.0,0.0,,,,,,,,,,,,,,,,,,,,,,,,,,,,,,,,,,,,,,,,,,,,,,,,,,,,,,,,,sub-200,1.0,random_dot,60.0476898469443,
,,,,,,,,,,,,,,,,,,,,,,,,,,,,,,,,,,,,,,,,,,,,,,,,,,,,,,,,,,,,,,,416.67521140002646,416.6867968000006,421.6885466000531,421.673312400002,sub-200,,,,
