direction,corrAns,randomInstr,practice_trials.thisRepN,practice_trials.thisTrialN,practice_trials.thisN,practice_trials.thisIndex,instr_trials.thisRepN,instr_trials.thisTrialN,instr_trials.thisN,instr_trials.thisIndex,test_trials.thisRepN,test_trials.thisTrialN,test_trials.thisN,test_trials.thisIndex,thisRow.t,notes,general_instruction.started,textGeneralInstr.started,respGeneralInstr.started,general_instruction.stopped,respGeneralInstr.keys,respGeneralInstr.rt,respGeneralInstr.duration,ITI.started,fixcross.started,fixcross.stopped,ITI.stopped,dots.started,backgroundDots.started,stimulusDots.started,respDots.started,dots.stopped,respDots.keys,respDots.corr,respDots.rt,respDots.duration,feedback.started,textFeedback.started,feedback.stopped,textFeedback.stopped,info.started,textInfo.started,keyRespInfo.started,info.stopped,keyRespInfo.keys,keyRespInfo.rt,keyRespInfo.duration,test_instruction.started,textTestInstr.started,respTestInstr.started,test_instruction.stopped,respTestInstr.keys,respTestInstr.rt,respTestInstr.duration,random_instruction.started,textRandomInstr.started,respRandomInstr.started,random_instruction.stopped,respRandomInstr.keys,respRandomInstr.rt,respRandomInstr.duration,goodbye.started,textGoodbye.started,participant,session,expName,frameRate,Unnamed: 71
,,,,,,,,,,,,,,,,,0.0045881001278758,0.0090899998322129,0.0090899998322129,2.3443048000335693,space,13.733199500013145,,,,,,,,,,,,,,,,,,,,,,,,,,,,,,,,,,,,,,,,,,sub-169,1.0,random_dot,119.9935681840188,
right,right,,0.0,0.0,0.0,1.0,,,,,,,,,2.357822500169277,,,,,,,,,2.353905600029975,2.4510206999257207,3.2539321002550423,3.2431164998561144,3.24313999991864,3.2539321002550423,3.2539321002550423,3.2539321002550423,4.244306200183928,left,0.0,12.38460520002991,,4.245192899834365,4.257122099865228,4.75050920015201,,,,,,,,,,,,,,,,,,,,,,,,,sub-169,1.0,random_dot,119.9935681840188,
left,left,,0.0,1.0,1.0,0.0,,,,,,,,,4.758856300264597,,,,,,,,,4.750778300222009,5.9503180999308825,6.751035400200635,6.742202800232917,6.742217999882996,6.751035400200635,6.751035400200635,6.751035400200635,7.459845799952745,right,0.0,12.108341899700465,,7.460192400030792,7.466721900273114,7.958734999876469,7.966460099909455,,,,,,,,,,,,,,,,,,,,,,,,sub-169,1.0,random_dot,119.9935681840188,
right,right,,1.0,0.0,2.0,1.0,,,,,,,,,7.966460099909455,,,,,,,,,7.959057200234383,8.76665320014581,9.5672096000053,9.558584399987012,9.558605399914086,9.5672096000053,9.5672096000053,9.5672096000053,10.24368550023064,left,0.0,12.077154700178651,,10.24426080007106,10.249568900093436,10.741802399978042,10.749410899821669,,,,,,,,,,,,,,,,,,,,,,,,sub-169,1.0,random_dot,119.9935681840188,
left,left,,1.0,1.0,3.0,0.0,,,,,,,,,10.749410899821669,,,,,,,,,10.742217500228437,11.549564599990845,12.350267100147905,12.341537800151857,12.34155200002715,12.350267100147905,12.350267100147905,12.350267100147905,13.31727600004524,left,1.0,12.361051100306211,,13.317678899969906,13.32462410023436,13.816317799966782,13.823880900163203,,,,,,,,,,,,,,,,,,,,,,,,sub-169,1.0,random_dot,119.9935681840188,
right,right,,2.0,0.0,4.0,1.0,,,,,,,,,13.823880900163203,,,,,,,,,13.816608500201257,15.023732600267977,15.824479800183326,15.816027900204062,15.81604029983282,15.824479800183326,15.824479800183326,15.824479800183326,17.158544700127095,right,1.0,12.728106499649584,,17.15891080023721,17.165394300129265,17.657255200203508,17.66510479990393,,,,,,,,,,,,,,,,,,,,,,,,sub-169,1.0,random_dot,119.9935681840188,
left,left,,2.0,1.0,5.0,0.0,,,,,,,,,17.66510479990393,,,,,,,,,17.65753300022334,17.76515860017389,18.565623099915683,18.55718160001561,18.557195799890906,18.565623099915683,18.565623099915683,18.565623099915683,19.5916531002149,right,0.0,12.42678300011903,,19.59207540005445,19.59798109997064,20.090265800245103,20.098091000225395,,,,,,,,,,,,,,,,,,,,,,,,sub-169,1.0,random_dot,119.9935681840188,
right,right,,3.0,0.0,6.0,1.0,,,,,,,,,20.098091000225395,,,,,,,,,20.090567300096158,20.4481143001467,21.24879809981212,21.239890300203115,21.239904699847106,21.24879809981212,21.24879809981212,21.24879809981212,22.016225500032306,left,0.0,12.16653380030766,,22.01664029993117,22.022876900155097,22.51480539981276,22.52274869987741,,,,,,,,,,,,,,,,,,,,,,,,sub-169,1.0,random_dot,119.9935681840188,
left,left,,3.0,1.0,7.0,0.0,,,,,,,,,22.52274869987741,,,,,,,,,22.515132899861783,23.72239240026101,24.52327900007367,24.514564900193363,24.51458049984649,24.52327900007367,24.52327900007367,24.52327900007367,25.890618599951267,left,1.0,12.760985100176184,,25.891074100043625,25.897064600139856,26.38904430018738,26.396921299863607,,,,,,,,,,,,,,,,,,,,,,,,sub-169,1.0,random_dot,119.9935681840188,
left,left,,4.0,0.0,8.0,0.0,,,,,,,,,26.396921299863607,,,,,,,,,26.38935359986499,27.59679919993505,28.39766510017216,28.38890139991417,28.38891660002992,28.39766510017216,28.39766510017216,28.39766510017216,29.348511000163853,left,1.0,12.35170969972387,,29.34894479997456,29.354845699854195,29.846856700256467,29.85470440005884,,,,,,,,,,,,,,,,,,,,,,,,sub-169,1.0,random_dot,119.9935681840188,
right,right,,4.0,1.0,9.0,1.0,,,,,,,,,29.85470440005884,,,,,,,,,29.847160200122744,30.65479990001768,31.45544539997354,31.44680819986388,31.44682740001008,31.45544539997354,31.45544539997354,31.45544539997354,32.281197499949485,right,1.0,12.223598399665208,,32.28158560022712,32.2879822999239,32.77993729989976,32.78772159991786,,,,,,,,,,,,,,,,,,,,,,,,sub-169,1.0,random_dot,119.9935681840188,
left,left,,5.0,0.0,10.0,0.0,,,,,,,,,32.78772159991786,,,,,,,,,32.78021960007027,33.58742390014231,34.38836700003594,34.37965240003541,34.37966650025919,34.38836700003594,34.38836700003594,34.38836700003594,34.96407110011205,left,1.0,11.973563900217414,,34.96444040024653,34.97071890020743,35.462690900079906,35.47066870005801,,,,,,,,,,,,,,,,,,,,,,,,sub-169,1.0,random_dot,119.9935681840188,
right,right,,5.0,1.0,11.0,1.0,,,,,,,,,35.47066870005801,,,,,,,,,35.46299170004204,35.570476199965924,36.37143670022488,36.36246979981661,36.3624852001667,36.37143670022488,36.37143670022488,36.37143670022488,37.38880940014496,left,0.0,12.41538569983095,,37.38918420020491,37.39528230018914,37.88729629991576,37.895224899984896,,,,,,,,,,,,,,,,,,,,,,,,sub-169,1.0,random_dot,119.9935681840188,
left,left,,6.0,0.0,12.0,0.0,,,,,,,,,37.895224899984896,,,,,,,,,37.88759469985962,38.24509290000424,39.04598359996453,39.03726929984987,39.03728630021215,39.04598359996453,39.04598359996453,39.04598359996453,39.630309199914336,left,1.0,11.985164400190117,,39.63100549997762,39.63647919986397,40.12870150012896,40.13646070007235,,,,,,,,,,,,,,,,,,,,,,,,sub-169,1.0,random_dot,119.9935681840188,
right,right,,6.0,1.0,13.0,1.0,,,,,,,,,40.13646070007235,,,,,,,,,40.12901159981266,40.48640319984406,41.28727040020749,41.27833000011742,41.27834520023316,41.28727040020749,41.28727040020749,41.28727040020749,41.979466000106186,left,0.0,12.08985049976036,,41.979888500180095,41.98603660007939,42.4782914002426,42.48605220019817,,,,,,,,,,,,,,,,,,,,,,,,sub-169,1.0,random_dot,119.9935681840188,
left,left,,7.0,0.0,14.0,0.0,,,,,,,,,42.48605220019817,,,,,,,,,42.47859749989584,43.68605800019577,44.486659300047904,44.47765740007162,44.47766959993169,44.486659300047904,44.486659300047904,44.486659300047904,45.112573199905455,left,1.0,12.02475730003789,,45.11298310011625,45.1189772002399,45.61102270008996,45.61877589998767,,,,,,,,,,,,,,,,,,,,,,,,sub-169,1.0,random_dot,119.9935681840188,
right,right,,7.0,1.0,15.0,1.0,,,,,,,,,45.61877589998767,,,,,,,,,45.61137139983475,45.718814600259066,46.51962199993432,46.51099810004234,46.511015799827874,46.51962199993432,46.51962199993432,46.51962199993432,47.85345190018416,right,1.0,12.728256900329145,,47.853808499872684,47.86012350022793,48.35220200009644,48.36005329992622,,,,,,,,,,,,,,,,,,,,,,,,sub-169,1.0,random_dot,119.9935681840188,
right,right,,8.0,0.0,16.0,1.0,,,,,,,,,48.36005329992622,,,,,,,,,48.35252670012415,49.15991079993546,49.960873499978334,49.95202350011096,49.95204279990867,49.960873499978334,49.960873499978334,49.960873499978334,50.31994879990816,right,1.0,11.758950400166214,,50.32031260011718,50.3266894002445,50.81845219992101,50.82635059999302,,,,,,,,,,,,,,,,,,,,,,,,sub-169,1.0,random_dot,119.9935681840188,
left,left,,8.0,1.0,17.0,0.0,,,,,,,,,50.82635059999302,,,,,,,,,50.81874699983746,51.62625270010904,52.42714199982584,52.4184206998907,52.41844070004299,52.42714199982584,52.42714199982584,52.42714199982584,53.04456890001893,left,1.0,12.01672889990732,,53.04505799990147,53.051133200060576,53.54310780018568,53.55105319991708,,,,,,,,,,,,,,,,,,,,,,,,sub-169,1.0,random_dot,119.9935681840188,
right,right,,9.0,0.0,18.0,1.0,,,,,,,,,53.55105319991708,,,,,,,,,53.5434465999715,53.90085279988125,54.70163410017267,54.692858499940485,54.69287420017645,54.70163410017267,54.70163410017267,54.70163410017267,55.89398760022596,right,1.0,12.587378199677914,,55.89442750019953,55.900602399837226,56.39282419998199,56.40039400011301,,,,,,,,,,,,,,,,,,,,,,,,sub-169,1.0,random_dot,119.9935681840188,
left,left,,9.0,1.0,19.0,0.0,,,,,,,,,56.40039400011301,,,,,,,,,56.39307660004124,57.60045120026916,58.40116110024974,58.39220910007134,58.39222329994664,58.40116110024974,58.40116110024974,58.40116110024974,59.21849250001833,right,0.0,12.21666259970516,,59.21888450020924,59.22491719992831,59.71732759987936,59.72508529992774,,,,,,,,,,,,,,,,,,,,,,,,sub-169,1.0,random_dot,119.9935681840188,
,,,,,,,,,,,,,,,,,,,,,,,,,,,,,,,,,,,,,,,,,59.71738460008055,59.72508529992774,59.72508529992774,66.18306740000844,space,17.854716800153255,,,,,,,,,,,,,,,,,,sub-169,1.0,random_dot,119.9935681840188,
,,,,,,,,,,,,,,,,,,,,,,,,,,,,,,,,,,,,,,,,,,,,,,,,66.18309239996597,66.19087419984862,66.19087419984862,69.174960100092,space,14.384087099693716,,,,,,,,,,,sub-169,1.0,random_dot,119.9935681840188,
left,left,accuracy,,,,,0.0,0.0,0.0,0.0,0.0,0.0,0.0,0.0,70.31495669996366,,,,,,,,,70.3119128998369,70.41497140005231,71.21561799990013,71.20700210006908,71.20702160010114,71.21561799990013,71.21561799990013,71.21561799990013,72.42520780023187,left,1.0,12.60905239963904,,,,,,,,,,,,,,,,,,,,69.1779036000371,69.19156579999253,69.19156579999253,70.30754880001768,space,12.510089399758726,,,,sub-169,1.0,random_dot,119.9935681840188,
right,right,accuracy,,,,,0.0,0.0,0.0,0.0,0.0,1.0,1.0,1.0,72.43142590019852,,,,,,,,,72.42599180014804,73.63099380023777,74.43183800019324,74.42312269983813,74.42314059985802,74.43183800019324,74.43183800019324,74.43183800019324,75.96571720018983,right,1.0,12.93425939977169,,,,,,,,,,,,,,,,,,,,,,,,,,,,,sub-169,1.0,random_dot,119.9935681840188,
left,left,accuracy,,,,,0.0,0.0,0.0,0.0,1.0,0.0,2.0,0.0,75.97242380026728,,,,,,,,,75.96667939983308,77.17196060018614,77.97305800020695,77.9642154998146,77.96423650020733,77.97305800020695,77.97305800020695,77.97305800020695,78.86548990011215,right,0.0,12.289360699709505,,,,,,,,,,,,,,,,,,,,,,,,,,,,,sub-169,1.0,random_dot,119.9935681840188,
right,right,accuracy,,,,,0.0,0.0,0.0,0.0,1.0,1.0,3.0,1.0,78.87176800007,,,,,,,,,78.86667020013556,79.22192469984293,80.02273990027606,80.01380590023473,80.01382180023938,80.02273990027606,80.02273990027606,80.02273990027606,81.06492369994521,right,1.0,12.442404800094664,,,,,,,,,,,,,,,,,,,,,,,,,,,,,sub-169,1.0,random_dot,119.9935681840188,
left,left,accuracy,,,,,0.0,0.0,0.0,0.0,2.0,0.0,4.0,0.0,81.07159820012748,,,,,,,,,81.06578279985115,81.42163089988753,82.22229650011286,82.2134286002256,82.21344379987568,82.22229650011286,82.22229650011286,82.22229650011286,83.14785300008953,left,1.0,12.319579599890858,,,,,,,,,,,,,,,,,,,,,,,,,,,,,sub-169,1.0,random_dot,119.9935681840188,
right,right,accuracy,,,,,0.0,0.0,0.0,0.0,2.0,1.0,5.0,1.0,83.15445060003549,,,,,,,,,83.14869440020993,83.95439790003002,84.75521069997922,84.74647899996489,84.74649470020086,84.75521069997922,84.75521069997922,84.75521069997922,85.62280610017478,right,1.0,12.26754349982366,,,,,,,,,,,,,,,,,,,,,,,,,,,,,sub-169,1.0,random_dot,119.9935681840188,
left,left,accuracy,,,,,0.0,0.0,0.0,0.0,3.0,0.0,6.0,0.0,85.62966890027747,,,,,,,,,85.62345599988475,86.82897579995915,87.62983020022511,87.62084280001,87.6208568001166,87.62983020022511,87.62983020022511,87.62983020022511,89.2968549001962,left,1.0,13.060944099910555,,,,,,,,,,,,,,,,,,,,,,,,,,,,,sub-169,1.0,random_dot,119.9935681840188,
right,right,accuracy,,,,,0.0,0.0,0.0,0.0,3.0,1.0,7.0,1.0,89.30340299988165,,,,,,,,,89.2976631000638,89.65341820009053,90.45424370002002,90.44548000022768,90.4454940999858,90.45424370002002,90.45424370002002,90.45424370002002,91.89683610014616,left,0.0,12.843404800165445,,,,,,,,,,,,,,,,,,,,,,,,,,,,,sub-169,1.0,random_dot,119.9935681840188,
right,right,accuracy,,,,,0.0,0.0,0.0,0.0,4.0,0.0,8.0,1.0,91.90323700010777,,,,,,,,,91.8975945999846,92.70311899995431,93.50382129987702,93.49523290013894,93.49525219993666,93.50382129987702,93.50382129987702,93.50382129987702,94.70432170014828,right,1.0,12.597862599883229,,,,,,,,,,,,,,,,,,,,,,,,,,,,,sub-169,1.0,random_dot,119.9935681840188,
left,left,accuracy,,,,,0.0,0.0,0.0,0.0,4.0,1.0,9.0,0.0,94.71114839985968,,,,,,,,,94.70512659987436,95.0608576000668,95.86180139984936,95.8531647999771,95.85318579990415,95.86180139984936,95.86180139984936,95.86180139984936,97.2208719998598,left,1.0,12.756813699845225,,,,,,,,,,,,,,,,,,,,,,,,,,,,,sub-169,1.0,random_dot,119.9935681840188,
right,right,accuracy,,,,,0.0,0.0,0.0,0.0,5.0,0.0,10.0,1.0,97.2273470000364,,,,,,,,,97.22163400007412,98.02705010026692,98.8280143002048,98.81919769989328,98.81921009998769,98.8280143002048,98.8280143002048,98.8280143002048,100.22863799985498,right,1.0,12.799605099949986,,,,,,,,,,,,,,,,,,,,,,,,,,,,,sub-169,1.0,random_dot,119.9935681840188,
left,left,accuracy,,,,,0.0,0.0,0.0,0.0,5.0,1.0,11.0,0.0,100.23528950009496,,,,,,,,,100.2294022999704,101.03487309999764,101.83590710023418,101.82706730021164,101.8270870000124,101.83590710023418,101.83590710023418,101.83590710023418,103.01153420004994,right,0.0,12.573972799815238,,,,,,,,,,,,,,,,,,,,,,,,,,,,,sub-169,1.0,random_dot,119.9935681840188,
left,left,accuracy,,,,,0.0,0.0,0.0,0.0,6.0,0.0,12.0,0.0,103.01820710022002,,,,,,,,,103.01218810025604,103.11803000001235,103.91887769987808,103.91007940005512,103.91009639995173,103.91887769987808,103.91887769987808,103.91887769987808,105.7776533998549,right,0.0,13.254928200040013,,,,,,,,,,,,,,,,,,,,,,,,,,,,,sub-169,1.0,random_dot,119.9935681840188,
right,right,accuracy,,,,,0.0,0.0,0.0,0.0,6.0,1.0,13.0,1.0,105.78415230009703,,,,,,,,,105.7783658001572,106.98393610026687,107.78473530011252,107.7759429998696,107.77595800021663,107.78473530011252,107.78473530011252,107.78473530011252,109.40194460004568,left,0.0,13.01445240015164,,,,,,,,,,,,,,,,,,,,,,,,,,,,,sub-169,1.0,random_dot,119.9935681840188,
left,left,accuracy,,,,,0.0,0.0,0.0,0.0,7.0,0.0,14.0,0.0,109.408497299999,,,,,,,,,109.40265379985794,110.2086493000388,111.00939340004696,111.00037370016798,111.0003885999322,111.00939340004696,111.00939340004696,111.00939340004696,112.52637610025704,left,1.0,12.9115726002492,,,,,,,,,,,,,,,,,,,,,,,,,,,,,sub-169,1.0,random_dot,119.9935681840188,
right,right,accuracy,,,,,0.0,0.0,0.0,0.0,7.0,1.0,15.0,1.0,112.533305299934,,,,,,,,,112.52717370027676,113.33307390008122,114.13364649983124,114.12499839998782,114.12501259986313,114.13364649983124,114.13364649983124,114.13364649983124,115.24277420016006,left,0.0,12.503116799984127,,,,,,,,,,,,,,,,,,,,,,,,,,,,,sub-169,1.0,random_dot,119.9935681840188,
right,right,accuracy,,,,,0.0,0.0,0.0,0.0,8.0,0.0,16.0,1.0,115.2493755002506,,,,,,,,,115.24346920009702,116.44927839981392,117.2500599999912,117.24127050023526,117.24128990015016,117.2500599999912,117.2500599999912,117.2500599999912,118.20910850027576,right,1.0,12.35684120003134,,,,,,,,,,,,,,,,,,,,,,,,,,,,,sub-169,1.0,random_dot,119.9935681840188,
left,left,accuracy,,,,,0.0,0.0,0.0,0.0,8.0,1.0,17.0,0.0,118.2156782001257,,,,,,,,,118.20981620019302,118.56564019992948,119.36627440014854,119.35744989989324,119.35746459988876,119.36627440014854,119.36627440014854,119.36627440014854,120.65870669996366,right,0.0,12.686840599868448,,,,,,,,,,,,,,,,,,,,,,,,,,,,,sub-169,1.0,random_dot,119.9935681840188,
right,right,accuracy,,,,,0.0,0.0,0.0,0.0,9.0,0.0,18.0,1.0,120.6651109000668,,,,,,,,,120.65943029988556,121.86496530007572,122.665857499931,122.6571367001161,122.65715250000358,122.665857499931,122.665857499931,122.665857499931,124.4081049002707,left,0.0,13.140991199761627,,,,,,,,,,,,,,,,,,,,,,,,,,,,,sub-169,1.0,random_dot,119.9935681840188,
left,left,accuracy,,,,,0.0,0.0,0.0,0.0,9.0,1.0,19.0,0.0,124.41446370026097,,,,,,,,,124.40897310012951,125.61440119985492,126.41520710010082,126.40653529996052,126.40655880002303,126.41520710010082,126.41520710010082,126.41520710010082,128.73236350016668,right,0.0,13.71196400001645,,,,,,,,,,,,,,,,,,,,,,,,,,,,,sub-169,1.0,random_dot,119.9935681840188,
left,left,accuracy,,,,,0.0,0.0,0.0,0.0,10.0,0.0,20.0,0.0,128.73880679998547,,,,,,,,,128.73312840005383,128.8389591998421,129.6396738998592,129.63078649993986,129.63080439995974,129.6396738998592,129.6396738998592,129.6396738998592,131.92335039982572,left,1.0,13.681157799903303,,,,,,,,,,,,,,,,,,,,,,,,,,,,,sub-169,1.0,random_dot,119.9935681840188,
right,right,accuracy,,,,,0.0,0.0,0.0,0.0,10.0,1.0,21.0,1.0,131.93012670008466,,,,,,,,,131.9242763002403,132.72979980008677,133.5305484002456,133.52189720002934,133.52191699994728,133.5305484002456,133.5305484002456,133.5305484002456,135.67298140004277,right,1.0,13.5402768002823,,,,,,,,,,,,,,,,,,,,,,,,,,,,,sub-169,1.0,random_dot,119.9935681840188,
right,right,accuracy,,,,,0.0,0.0,0.0,0.0,11.0,0.0,22.0,1.0,135.67936989990994,,,,,,,,,135.67376470007002,135.7795179001987,136.58022970007733,136.57155779981986,136.57157569983974,136.58022970007733,136.58022970007733,136.58022970007733,138.37258030008525,right,1.0,13.188449600245804,,,,,,,,,,,,,,,,,,,,,,,,,,,,,sub-169,1.0,random_dot,119.9935681840188,
left,left,accuracy,,,,,0.0,0.0,0.0,0.0,11.0,1.0,23.0,0.0,138.37895580008626,,,,,,,,,138.37328639999032,139.17873140005395,139.97974140010774,139.97102370020002,139.97104580001906,139.97974140010774,139.97974140010774,139.97974140010774,142.00507760001346,left,1.0,13.418469899799677,,,,,,,,,,,,,,,,,,,,,,,,,,,,,sub-169,1.0,random_dot,119.9935681840188,
right,right,accuracy,,,,,0.0,0.0,0.0,0.0,12.0,0.0,24.0,1.0,142.01178639987484,,,,,,,,,142.00585639989004,143.21148269996047,144.01219619996846,144.00342829991132,144.00344510003924,144.01219619996846,144.01219619996846,144.01219619996846,145.9795912001282,left,0.0,13.363627300132066,,,,,,,,,,,,,,,,,,,,,,,,,,,,,sub-169,1.0,random_dot,119.9935681840188,
left,left,accuracy,,,,,0.0,0.0,0.0,0.0,12.0,1.0,25.0,0.0,145.98610089998692,,,,,,,,,145.98035329999402,146.78603530023247,147.58644139999524,147.57815210008994,147.57817219989374,147.58644139999524,147.58644139999524,147.58644139999524,149.73711550002918,right,0.0,13.544581699650736,,,,,,,,,,,,,,,,,,,,,,,,,,,,,sub-169,1.0,random_dot,119.9935681840188,
left,left,accuracy,,,,,0.0,0.0,0.0,0.0,13.0,0.0,26.0,0.0,149.74369370006025,,,,,,,,,149.73781710024923,150.09391220007092,150.89444439997897,150.88567099999636,150.88568590022624,150.89444439997897,150.89444439997897,150.89444439997897,153.67011839989573,left,1.0,14.171811900101602,,,,,,,,,,,,,,,,,,,,,,,,,,,,,sub-169,1.0,random_dot,119.9935681840188,
right,right,accuracy,,,,,0.0,0.0,0.0,0.0,13.0,1.0,27.0,1.0,153.6764924000017,,,,,,,,,153.67087440006435,154.4763060999103,155.27722950000316,155.26827770005912,155.2682934999466,155.27722950000316,155.27722950000316,155.27722950000316,157.98563800007105,right,1.0,14.108933399897069,,,,,,,,,,,,,,,,,,,,,,,,,,,,,sub-169,1.0,random_dot,119.9935681840188,
right,right,accuracy,,,,,0.0,0.0,0.0,0.0,14.0,0.0,28.0,1.0,157.9924766998738,,,,,,,,,157.98655570019037,158.0923998001963,158.89318499993533,158.88453309983015,158.88454549992457,158.89318499993533,158.89318499993533,158.89318499993533,161.54375190008432,right,1.0,14.04854780016467,,,,,,,,,,,,,,,,,,,,,,,,,,,,,sub-169,1.0,random_dot,119.9935681840188,
left,left,accuracy,,,,,0.0,0.0,0.0,0.0,14.0,1.0,29.0,0.0,161.5502176000737,,,,,,,,,161.54444580012932,161.9002088000998,162.70104240020737,162.69207330001518,162.69209020026028,162.70104240020737,162.70104240020737,162.70104240020737,164.9183427998796,right,0.0,13.616645699832588,,,,,,,,,,,,,,,,,,,,,,,,,,,,,sub-169,1.0,random_dot,119.9935681840188,
right,right,accuracy,,,,,0.0,0.0,0.0,0.0,15.0,0.0,30.0,1.0,164.9247844000347,,,,,,,,,164.91913630021736,165.72447809996083,166.52539990004152,166.51657340023667,166.5165920001455,166.52539990004152,166.52539990004152,166.52539990004152,167.94279679981992,left,0.0,12.815249200444669,,,,,,,,,,,,,,,,,,,,,,,,,,,,,sub-169,1.0,random_dot,119.9935681840188,
left,left,accuracy,,,,,0.0,0.0,0.0,0.0,15.0,1.0,31.0,0.0,167.9493022998795,,,,,,,,,167.94346689991653,168.04912219988182,168.84992700023577,168.84104700013995,168.8410614002496,168.84992700023577,168.84992700023577,168.84992700023577,170.81683250004426,left,1.0,13.366489199921489,,,,,,,,,,,,,,,,,,,,,,,,,,,,,sub-169,1.0,random_dot,119.9935681840188,
right,right,accuracy,,,,,0.0,0.0,0.0,0.0,16.0,0.0,32.0,1.0,170.8236044999212,,,,,,,,,170.81755329994485,171.17359270015731,171.97455490007997,171.96549460012466,171.96550909988582,171.97455490007997,171.97455490007997,171.97455490007997,173.32532910024747,left,0.0,12.751747999805955,,,,,,,,,,,,,,,,,,,,,,,,,,,,,sub-169,1.0,random_dot,119.9935681840188,
left,left,accuracy,,,,,0.0,0.0,0.0,0.0,16.0,1.0,33.0,0.0,173.33177770022303,,,,,,,,,173.3260488002561,173.43175440002233,174.23234750004485,174.22356329998,174.22357730008662,174.23234750004485,174.23234750004485,174.23234750004485,175.69132310012355,right,0.0,12.85298930015415,,,,,,,,,,,,,,,,,,,,,,,,,,,,,sub-169,1.0,random_dot,119.9935681840188,
left,left,accuracy,,,,,0.0,0.0,0.0,0.0,17.0,0.0,34.0,0.0,175.69808579981327,,,,,,,,,175.69206929998472,176.04788170009851,176.8487948998809,176.83994540013373,176.83996309991926,176.8487948998809,176.8487948998809,176.8487948998809,178.63264469988644,right,0.0,13.178929400164634,,,,,,,,,,,,,,,,,,,,,,,,,,,,,sub-169,1.0,random_dot,119.9935681840188,
right,right,accuracy,,,,,0.0,0.0,0.0,0.0,17.0,1.0,35.0,1.0,178.63899270026013,,,,,,,,,178.6335887000896,178.73909599985927,179.53995560016483,179.5312446001917,179.5312597998418,179.53995560016483,179.53995560016483,179.53995560016483,181.19864760013297,right,1.0,13.056493899784982,,,,,,,,,,,,,,,,,,,,,,,,,,,,,sub-169,1.0,random_dot,119.9935681840188,
left,left,accuracy,,,,,0.0,0.0,0.0,0.0,18.0,0.0,36.0,0.0,181.20528359990567,,,,,,,,,181.19947220012543,182.00519949989396,182.8062141002156,182.7973317001015,182.797346400097,182.8062141002156,182.8062141002156,182.8062141002156,184.02335420018065,left,1.0,12.615088500082493,,,,,,,,,,,,,,,,,,,,,,,,,,,,,sub-169,1.0,random_dot,119.9935681840188,
right,right,accuracy,,,,,0.0,0.0,0.0,0.0,18.0,1.0,37.0,1.0,184.02989450003952,,,,,,,,,184.0241105002351,184.82994600012896,185.63096249988303,185.6220350000076,185.62204660009596,185.63096249988303,185.63096249988303,185.63096249988303,187.13936799997464,right,1.0,12.908836199901998,,,,,,,,,,,,,,,,,,,,,,,,,,,,,sub-169,1.0,random_dot,119.9935681840188,
right,right,accuracy,,,,,0.0,0.0,0.0,0.0,19.0,0.0,38.0,1.0,187.1458494998515,,,,,,,,,187.14013299997896,188.34605020005256,189.1466332999989,189.13777420017868,189.13778880005705,189.1466332999989,189.1466332999989,189.1466332999989,190.86386780021712,left,0.0,13.111180199775845,,,,,,,,,,,,,,,,,,,,,,,,,,,,,sub-169,1.0,random_dot,119.9935681840188,
left,left,accuracy,,,,,0.0,0.0,0.0,0.0,19.0,1.0,39.0,0.0,190.8702332000248,,,,,,,,,190.86463400023055,191.2203767998144,192.02129450021312,192.01235410012305,192.0123689998873,192.02129450021312,192.02129450021312,192.02129450021312,193.838560000062,left,1.0,13.214063399937004,,,,,,,,,,,,,,,,,,,,,,,,,,,,,sub-169,1.0,random_dot,119.9935681840188,
left,left,accuracy,,,,,0.0,0.0,0.0,0.0,20.0,0.0,40.0,0.0,193.84501350019127,,,,,,,,,193.83931940002367,193.94513020012528,194.7456593001261,194.7369662998244,194.73698570020497,194.7456593001261,194.7456593001261,194.7456593001261,196.2547577000223,left,1.0,12.906354600097984,,,,,,,,,,,,,,,,,,,,,,,,,,,,,sub-169,1.0,random_dot,119.9935681840188,
right,right,accuracy,,,,,0.0,0.0,0.0,0.0,20.0,1.0,41.0,1.0,196.26136650005355,,,,,,,,,196.255834300071,196.6111810002476,197.4120844998397,197.4034289000556,197.40344869997352,197.4120844998397,197.4120844998397,197.4120844998397,198.83766740001735,right,1.0,12.826148999854922,,,,,,,,,,,,,,,,,,,,,,,,,,,,,sub-169,1.0,random_dot,119.9935681840188,
left,left,accuracy,,,,,0.0,0.0,0.0,0.0,21.0,0.0,42.0,0.0,198.8443591999821,,,,,,,,,198.83834769995883,199.1942810001783,199.99486429989335,199.98606069991365,199.98607499990607,199.99486429989335,199.99486429989335,199.99486429989335,201.95391840022057,right,0.0,13.355276099871844,,,,,,,,,,,,,,,,,,,,,,,,,,,,,sub-169,1.0,random_dot,119.9935681840188,
right,right,accuracy,,,,,0.0,0.0,0.0,0.0,21.0,1.0,43.0,1.0,201.9602864999324,,,,,,,,,201.95469299983236,203.1600596001372,203.96100769983605,203.9521885002032,203.95220820000395,203.96100769983605,203.96100769983605,203.96100769983605,205.6533629000187,right,1.0,13.09276370005682,,,,,,,,,,,,,,,,,,,,,,,,,,,,,sub-169,1.0,random_dot,119.9935681840188,
right,right,accuracy,,,,,0.0,0.0,0.0,0.0,22.0,0.0,44.0,1.0,205.6596792000346,,,,,,,,,205.65444289986044,206.8596633002162,207.66042450023812,207.65184380020943,207.6518653002568,207.66042450023812,207.66042450023812,207.66042450023812,209.7939027999528,left,0.0,13.531034900341185,,,,,,,,,,,,,,,,,,,,,,,,,,,,,sub-169,1.0,random_dot,119.9935681840188,
left,left,accuracy,,,,,0.0,0.0,0.0,0.0,22.0,1.0,45.0,0.0,209.80063319997865,,,,,,,,,209.7946625999175,209.90069099981335,210.701559800189,210.69291200023144,210.69292679987848,210.701559800189,210.701559800189,210.701559800189,212.82720059994608,left,1.0,13.524931100197136,,,,,,,,,,,,,,,,,,,,,,,,,,,,,sub-169,1.0,random_dot,119.9935681840188,
left,left,accuracy,,,,,0.0,0.0,0.0,0.0,23.0,0.0,46.0,0.0,212.83369449991733,,,,,,,,,212.82801399985328,213.63326930021867,214.43432720005512,214.42535990010947,214.42537559987977,214.43432720005512,214.43432720005512,214.43432720005512,216.76781539991495,right,0.0,13.733003999572247,,,,,,,,,,,,,,,,,,,,,,,,,,,,,sub-169,1.0,random_dot,119.9935681840188,
right,right,accuracy,,,,,0.0,0.0,0.0,0.0,23.0,1.0,47.0,1.0,216.77470650011676,,,,,,,,,216.76851910026744,217.57443200005216,218.3752616001293,218.3664306998253,218.3664430999197,218.3752616001293,218.3752616001293,218.3752616001293,220.55926850019023,right,1.0,13.580206099897625,,,,,,,,,,,,,,,,,,,,,,,,,,,,,sub-169,1.0,random_dot,119.9935681840188,
left,left,accuracy,,,,,0.0,0.0,0.0,0.0,24.0,0.0,48.0,0.0,220.5656627002172,,,,,,,,,220.5600228002295,220.665741099976,221.4664131002501,221.45768730016425,221.4577073999681,221.4664131002501,221.4664131002501,221.4664131002501,223.53387490008024,right,0.0,13.461104900110511,,,,,,,,,,,,,,,,,,,,,,,,,,,,,sub-169,1.0,random_dot,119.9935681840188,
right,right,accuracy,,,,,0.0,0.0,0.0,0.0,24.0,1.0,49.0,1.0,223.54017940023917,,,,,,,,,223.53496770001948,223.89019409986213,224.69090449996293,224.6822958001867,224.6823158999905,224.69090449996293,224.69090449996293,224.69090449996293,226.54148210026324,left,0.0,13.244654799811542,,,,,,,,,,,,,,,,,,,,,,,,,,,,,sub-169,1.0,random_dot,119.9935681840188,
left,left,accuracy,,,,,0.0,0.0,0.0,0.0,25.0,0.0,50.0,0.0,226.54806530009955,,,,,,,,,226.5423189001158,227.3478635000065,228.148815699853,228.1398256001994,228.13984009996057,228.148815699853,228.148815699853,228.148815699853,229.9490633001551,left,1.0,13.2007049000822,,,,,,,,,,,,,,,,,,,,,,,,,,,,,sub-169,1.0,random_dot,119.9935681840188,
right,right,accuracy,,,,,0.0,0.0,0.0,0.0,25.0,1.0,51.0,1.0,229.95599710009992,,,,,,,,,229.94985319999975,231.1555730002001,231.9566675000824,231.94777660025284,231.94779499992728,231.9566675000824,231.9566675000824,231.9566675000824,233.490325700026,left,0.0,12.933014699723572,,,,,,,,,,,,,,,,,,,,,,,,,,,,,sub-169,1.0,random_dot,119.9935681840188,
right,right,accuracy,,,,,0.0,0.0,0.0,0.0,26.0,0.0,52.0,1.0,233.4969763001427,,,,,,,,,233.49133520014584,233.5968388998881,234.39771950012076,234.3889509998262,234.38896520016715,234.39771950012076,234.39771950012076,234.39771950012076,236.48981820000336,left,0.0,13.492454400286078,,,,,,,,,,,,,,,,,,,,,,,,,,,,,sub-169,1.0,random_dot,119.9935681840188,
left,left,accuracy,,,,,0.0,0.0,0.0,0.0,26.0,1.0,53.0,0.0,236.49639349989596,,,,,,,,,236.49047000007704,237.6960479002446,238.49698350019756,238.4882461000234,238.4882602002472,238.49698350019756,238.49698350019756,238.49698350019756,239.44809790002185,right,0.0,12.350017200224102,,,,,,,,,,,,,,,,,,,,,,,,,,,,,sub-169,1.0,random_dot,119.9935681840188,
right,right,accuracy,,,,,0.0,0.0,0.0,0.0,27.0,0.0,54.0,1.0,239.45420469995588,,,,,,,,,239.4489306001924,239.55440919985995,240.355171199888,240.3462360999547,240.3462482998148,240.355171199888,240.355171199888,240.355171199888,242.09740630025044,right,1.0,13.141272599808872,,,,,,,,,,,,,,,,,,,,,,,,,,,,,sub-169,1.0,random_dot,119.9935681840188,
left,left,accuracy,,,,,0.0,0.0,0.0,0.0,27.0,1.0,55.0,0.0,242.10389140015468,,,,,,,,,242.09815749991685,242.45378910005093,243.2546131000854,243.24585589999333,243.2458688998595,243.2546131000854,243.2546131000854,243.2546131000854,244.75506210001183,left,1.0,12.899940799921753,,,,,,,,,,,,,,,,,,,,,,,,,,,,,sub-169,1.0,random_dot,119.9935681840188,
left,left,accuracy,,,,,0.0,0.0,0.0,0.0,28.0,0.0,56.0,0.0,244.7618725001812,,,,,,,,,244.7558287000284,245.11184260016307,245.91259650001305,245.9038490001112,245.90387339983133,245.91259650001305,245.91259650001305,245.91259650001305,247.17966940021145,right,0.0,12.66123259998858,,,,,,,,,,,,,,,,,,,,,,,,,,,,,sub-169,1.0,random_dot,119.9935681840188,
right,right,accuracy,,,,,0.0,0.0,0.0,0.0,28.0,1.0,57.0,1.0,247.18645100016147,,,,,,,,,247.18042050022632,247.53640270000324,248.3372741001658,248.32853629998863,248.32855780003592,248.3372741001658,248.3372741001658,248.3372741001658,249.64605510002,right,1.0,12.703682700172068,,,,,,,,,,,,,,,,,,,,,,,,,,,,,sub-169,1.0,random_dot,119.9935681840188,
right,right,accuracy,,,,,0.0,0.0,0.0,0.0,29.0,0.0,58.0,1.0,249.65262540010733,,,,,,,,,249.6470194002613,250.45268120011315,251.25325670000169,251.2444628002122,251.2444763998501,251.25325670000169,251.25325670000169,251.25325670000169,252.6126505001448,left,0.0,12.760150699876249,,,,,,,,,,,,,,,,,,,,,,,,,,,,,sub-169,1.0,random_dot,119.9935681840188,
left,left,accuracy,,,,,0.0,0.0,0.0,0.0,29.0,1.0,59.0,0.0,252.6190097001381,,,,,,,,,252.6134440000169,252.718878199812,253.51967279985547,253.5108798998408,253.51089459983632,253.51967279985547,253.51967279985547,253.51967279985547,255.17899989988652,left,1.0,13.060187300201504,,,,,,,,,,,,,,,,,,,,,,,,,,,,,sub-169,1.0,random_dot,119.9935681840188,
,,accuracy,,,,,0.0,0.0,0.0,0.0,,,,,,,,,,,,,,,,,,,,,,,,,,,,,,,,,,,,,,,,,,,,,,,,,,,,,,sub-169,1.0,random_dot,119.9935681840188,
right,right,speed,,,,,0.0,1.0,1.0,1.0,0.0,0.0,0.0,1.0,257.8026025998406,,,,,,,,,257.7994238999672,259.00126870023087,259.8018661001697,259.79321049991995,259.79323420021683,259.8018661001697,259.8018661001697,259.8018661001697,260.29446509992704,left,0.0,11.88847430003807,,,,,,,,,,,,,,,,,,,,255.17974800011143,255.18860979983583,255.18860979983583,257.7938618999906,space,14.003784799948336,,,,sub-169,1.0,random_dot,119.9935681840188,
left,left,speed,,,,,0.0,1.0,1.0,1.0,0.0,1.0,1.0,0.0,260.3009927999228,,,,,,,,,260.2959992000833,261.50082569988444,262.30166860017926,262.29297850001603,262.29299690015614,262.30166860017926,262.30166860017926,262.30166860017926,262.9024167000316,right,0.0,11.999372099991888,,,,,,,,,,,,,,,,,,,,,,,,,,,,,sub-169,1.0,random_dot,119.9935681840188,
right,right,speed,,,,,0.0,1.0,1.0,1.0,1.0,0.0,2.0,1.0,262.90895589999855,,,,,,,,,262.9031091001816,263.7086952999234,264.509431600105,264.5008542002179,264.500875600148,264.509431600105,264.509431600105,264.509431600105,265.36884440016,right,1.0,12.258547499775888,,,,,,,,,,,,,,,,,,,,,,,,,,,,,sub-169,1.0,random_dot,119.9935681840188,
left,left,speed,,,,,0.0,1.0,1.0,1.0,1.0,1.0,3.0,0.0,265.3751917001792,,,,,,,,,265.3695518998429,266.1751363002695,266.975957499817,266.96699520014226,266.9670090000145,266.975957499817,266.975957499817,266.975957499817,267.63494750019163,left,1.0,12.055347100365909,,,,,,,,,,,,,,,,,,,,,,,,,,,,,sub-169,1.0,random_dot,119.9935681840188,
right,right,speed,,,,,0.0,1.0,1.0,1.0,2.0,0.0,4.0,1.0,267.64155449997634,,,,,,,,,267.63565419986844,267.9912689998746,268.79206780018285,268.7833639001474,268.78338330006227,268.79206780018285,268.79206780018285,268.79206780018285,269.6928436001763,right,1.0,12.29903000034392,,,,,,,,,,,,,,,,,,,,,,,,,,,,,sub-169,1.0,random_dot,119.9935681840188,
left,left,speed,,,,,0.0,1.0,1.0,1.0,2.0,1.0,5.0,0.0,269.6994297001511,,,,,,,,,269.69354909984395,269.7993298000656,270.60039660008624,270.5916122999042,270.5916291000321,270.60039660008624,270.60039660008624,270.60039660008624,271.4510161001235,left,1.0,12.248451999854296,,,,,,,,,,,,,,,,,,,,,,,,,,,,,sub-169,1.0,random_dot,119.9935681840188,
right,right,speed,,,,,0.0,1.0,1.0,1.0,3.0,0.0,6.0,1.0,271.4576202998869,,,,,,,,,271.4517669002525,272.6572560998611,273.4580494998954,273.44925379985943,273.44926990009844,273.4580494998954,273.4580494998954,273.4580494998954,274.2586969998665,left,0.0,12.197787799872458,,,,,,,,,,,,,,,,,,,,,,,,,,,,,sub-169,1.0,random_dot,119.9935681840188,
left,left,speed,,,,,0.0,1.0,1.0,1.0,3.0,1.0,7.0,0.0,274.2653143000789,,,,,,,,,274.25958260009065,274.3653656002134,275.1662134998478,275.15732900006697,275.1573430001736,275.1662134998478,275.1662134998478,275.1662134998478,276.4165500998497,left,1.0,12.649909699801356,,,,,,,,,,,,,,,,,,,,,,,,,,,,,sub-169,1.0,random_dot,119.9935681840188,
right,right,speed,,,,,0.0,1.0,1.0,1.0,4.0,0.0,8.0,1.0,276.42333019990474,,,,,,,,,276.4172796001658,276.7733338000253,277.5740207000636,277.5652004000731,277.56521489983425,277.5740207000636,277.5740207000636,277.5740207000636,278.7162668998353,right,1.0,12.541677999775857,,,,,,,,,,,,,,,,,,,,,,,,,,,,,sub-169,1.0,random_dot,119.9935681840188,
left,left,speed,,,,,0.0,1.0,1.0,1.0,4.0,1.0,9.0,0.0,278.7230807002634,,,,,,,,,278.717137100175,279.5227455999702,280.32368559995666,280.31484110001475,280.31486260006204,280.32368559995666,280.32368559995666,280.32368559995666,281.416001399979,right,0.0,12.4908269001171,,,,,,,,,,,,,,,,,,,,,,,,,,,,,sub-169,1.0,random_dot,119.9935681840188,
right,right,speed,,,,,0.0,1.0,1.0,1.0,5.0,0.0,10.0,1.0,281.4224621001631,,,,,,,,,281.41689800005406,281.52247689990327,282.32346010021865,282.31469119992107,282.3147045001388,282.32346010021865,282.32346010021865,282.32346010021865,283.89057860011235,right,1.0,12.965846300125122,,,,,,,,,,,,,,,,,,,,,,,,,,,,,sub-169,1.0,random_dot,119.9935681840188,
left,left,speed,,,,,0.0,1.0,1.0,1.0,5.0,1.0,11.0,0.0,283.8973165000789,,,,,,,,,283.8912706999108,284.69708770001307,285.4977132999338,285.48909830022603,285.48911980027333,285.4977132999338,285.4977132999338,285.4977132999338,286.80660529993474,right,0.0,12.70697270007804,,,,,,,,,,,,,,,,,,,,,,,,,,,,,sub-169,1.0,random_dot,119.9935681840188,
left,left,speed,,,,,0.0,1.0,1.0,1.0,6.0,0.0,12.0,0.0,286.81322770006955,,,,,,,,,286.80734959989786,287.6133381999098,288.4139510001987,288.4051513001323,288.40516499988735,288.4139510001987,288.4139510001987,288.4139510001987,289.93117200024426,left,1.0,12.911233900114894,,,,,,,,,,,,,,,,,,,,,,,,,,,,,sub-169,1.0,random_dot,119.9935681840188,
right,right,speed,,,,,0.0,1.0,1.0,1.0,6.0,1.0,13.0,1.0,289.9377883002162,,,,,,,,,289.9318718998693,291.1375688002445,291.9386040000245,291.92974330019206,291.92975880019367,291.9386040000245,291.9386040000245,291.9386040000245,293.6891022999771,left,0.0,13.146670899819584,,,,,,,,,,,,,,,,,,,,,,,,,,,,,sub-169,1.0,random_dot,119.9935681840188,
right,right,speed,,,,,0.0,1.0,1.0,1.0,7.0,0.0,14.0,1.0,293.695753400214,,,,,,,,,293.6899592000991,294.4955833000131,295.2965048998594,295.28746959986165,295.28748149983585,295.2965048998594,295.2965048998594,295.2965048998594,296.37175669986755,right,1.0,12.47253999998793,,,,,,,,,,,,,,,,,,,,,,,,,,,,,sub-169,1.0,random_dot,119.9935681840188,
left,left,speed,,,,,0.0,1.0,1.0,1.0,7.0,1.0,15.0,0.0,296.378710700199,,,,,,,,,296.37251790007576,297.1782609000802,297.9789164001122,297.97010280005634,297.9701155000366,297.9789164001122,297.9789164001122,297.9789164001122,299.16298180026934,left,1.0,12.583655799739065,,,,,,,,,,,,,,,,,,,,,,,,,,,,,sub-169,1.0,random_dot,119.9935681840188,
right,right,speed,,,,,0.0,1.0,1.0,1.0,8.0,0.0,16.0,1.0,299.1695428998209,,,,,,,,,299.16373440017924,299.5195522001013,300.32030929997563,300.3115953002125,300.31161500001326,300.32030929997563,300.32030929997563,300.32030929997563,301.6044868999161,right,1.0,12.683296100236475,,,,,,,,,,,,,,,,,,,,,,,,,,,,,sub-169,1.0,random_dot,119.9935681840188,
left,left,speed,,,,,0.0,1.0,1.0,1.0,8.0,1.0,17.0,0.0,301.6110979998484,,,,,,,,,301.6055729999207,302.81086250022054,303.6114845001139,303.6028586002067,303.6028793998994,303.6114845001139,303.6114845001139,303.6114845001139,304.7702510999516,left,1.0,12.558329899795352,,,,,,,,,,,,,,,,,,,,,,,,,,,,,sub-169,1.0,random_dot,119.9935681840188,
left,left,speed,,,,,0.0,1.0,1.0,1.0,9.0,0.0,18.0,0.0,304.7773353001103,,,,,,,,,304.770955900196,305.1271752999164,305.9279689001851,305.91899339994416,305.9190062000416,305.9279689001851,305.9279689001851,305.9279689001851,306.9037083000876,left,1.0,12.375330400187522,,,,,,,,,,,,,,,,,,,,,,,,,,,,,sub-169,1.0,random_dot,119.9935681840188,
right,right,speed,,,,,0.0,1.0,1.0,1.0,9.0,1.0,19.0,1.0,306.9103731000796,,,,,,,,,306.9043748001568,307.0101495999843,307.810818400234,307.8019914999604,307.8020048001781,307.810818400234,307.810818400234,307.810818400234,309.31157479994,right,1.0,12.895772900432348,,,,,,,,,,,,,,,,,,,,,,,,,,,,,sub-169,1.0,random_dot,119.9935681840188,
left,left,speed,,,,,0.0,1.0,1.0,1.0,10.0,0.0,20.0,0.0,309.31793650006875,,,,,,,,,309.3124947999604,309.6679067001678,310.46882440010086,310.4602287998423,310.4602463999763,310.46882440010086,310.46882440010086,310.46882440010086,311.6360130002722,left,1.0,12.56649040011689,,,,,,,,,,,,,,,,,,,,,,,,,,,,,sub-169,1.0,random_dot,119.9935681840188,
right,right,speed,,,,,0.0,1.0,1.0,1.0,10.0,1.0,21.0,1.0,311.64271409995854,,,,,,,,,311.6370031000115,312.84254530025646,313.6431801998988,313.6345128999092,313.6345334998332,313.6431801998988,313.6431801998988,313.6431801998988,314.46886070026085,right,1.0,12.219715400133282,,,,,,,,,,,,,,,,,,,,,,,,,,,,,sub-169,1.0,random_dot,119.9935681840188,
left,left,speed,,,,,0.0,1.0,1.0,1.0,11.0,0.0,22.0,0.0,314.47573259985074,,,,,,,,,314.4695648001507,314.8256243998185,315.6264651999809,315.6176025001332,315.61761640012264,315.6264651999809,315.6264651999809,315.6264651999809,317.00189170008525,right,0.0,12.773443500045689,,,,,,,,,,,,,,,,,,,,,,,,,,,,,sub-169,1.0,random_dot,119.9935681840188,
right,right,speed,,,,,0.0,1.0,1.0,1.0,11.0,1.0,23.0,1.0,317.0086511000991,,,,,,,,,317.0027581001632,317.3584540998563,318.1592048001476,318.1504758000374,318.15049150027335,318.1592048001476,318.1592048001476,318.1592048001476,319.3348362999968,left,0.0,12.573930900078269,,,,,,,,,,,,,,,,,,,,,,,,,,,,,sub-169,1.0,random_dot,119.9935681840188,
left,left,speed,,,,,0.0,1.0,1.0,1.0,12.0,0.0,24.0,0.0,319.34134220005944,,,,,,,,,319.3357068998739,319.44157919986174,320.24214160023257,320.23362509999424,320.2336432999,320.24214160023257,320.24214160023257,320.24214160023257,321.60112310014665,left,1.0,12.756159599870443,,,,,,,,,,,,,,,,,,,,,,,,,,,,,sub-169,1.0,random_dot,119.9935681840188,
right,right,speed,,,,,0.0,1.0,1.0,1.0,12.0,1.0,25.0,1.0,321.6076547000557,,,,,,,,,321.6019812999293,322.80765190022066,323.6082768002525,323.59960620012134,323.5996244000271,323.6082768002525,323.6082768002525,323.6082768002525,324.325816700235,right,1.0,12.112052199896423,,,,,,,,,,,,,,,,,,,,,,,,,,,,,sub-169,1.0,random_dot,119.9935681840188,
right,right,speed,,,,,0.0,1.0,1.0,1.0,13.0,0.0,26.0,1.0,324.3324068002403,,,,,,,,,324.3265657001175,325.1322495001368,325.93291530013084,325.92427910026163,325.92430069996044,325.93291530013084,325.93291530013084,325.93291530013084,326.4844545000233,right,1.0,11.952149499673396,,,,,,,,,,,,,,,,,,,,,,,,,,,,,sub-169,1.0,random_dot,119.9935681840188,
left,left,speed,,,,,0.0,1.0,1.0,1.0,13.0,1.0,27.0,0.0,326.49045500019565,,,,,,,,,326.4856197000481,327.2900374000892,328.09107210021466,328.0820324001834,328.0820479998365,328.09107210021466,328.09107210021466,328.09107210021466,329.00810120021924,left,1.0,12.317411399912087,,,,,,,,,,,,,,,,,,,,,,,,,,,,,sub-169,1.0,random_dot,119.9935681840188,
right,right,speed,,,,,0.0,1.0,1.0,1.0,14.0,0.0,28.0,1.0,329.01504319999367,,,,,,,,,329.0089187999256,329.3648037002422,330.1656698998995,330.15683839982376,330.15685839997604,330.1656698998995,330.1656698998995,330.1656698998995,331.0580219998956,left,0.0,12.28638180019334,,,,,,,,,,,,,,,,,,,,,,,,,,,,,sub-169,1.0,random_dot,119.9935681840188,
left,left,speed,,,,,0.0,1.0,1.0,1.0,14.0,1.0,29.0,0.0,331.0645313002169,,,,,,,,,331.05874790018424,331.8645783001557,332.665208700113,332.6563686002046,332.65638450020924,332.665208700113,332.665208700113,332.665208700113,333.9409019998275,left,1.0,12.66935809981078,,,,,,,,,,,,,,,,,,,,,,,,,,,,,sub-169,1.0,random_dot,119.9935681840188,
right,right,speed,,,,,0.0,1.0,1.0,1.0,15.0,0.0,30.0,1.0,333.94752909988165,,,,,,,,,333.9417477999814,334.04733229987323,334.8482737001032,334.83935309993103,334.83937089983374,334.8482737001032,334.8482737001032,334.8482737001032,336.3071269998327,right,1.0,12.856984900310636,,,,,,,,,,,,,,,,,,,,,,,,,,,,,sub-169,1.0,random_dot,119.9935681840188,
left,left,speed,,,,,0.0,1.0,1.0,1.0,15.0,1.0,31.0,0.0,336.31362819997594,,,,,,,,,336.30800200020894,337.1134878001176,337.91427400009707,337.9057117002085,337.9057356999256,337.91427400009707,337.91427400009707,337.91427400009707,339.07344610011205,right,0.0,12.559773600194603,,,,,,,,,,,,,,,,,,,,,,,,,,,,,sub-169,1.0,random_dot,119.9935681840188,
right,right,speed,,,,,0.0,1.0,1.0,1.0,16.0,0.0,32.0,1.0,339.0801110002212,,,,,,,,,339.0741536002606,339.1800017999485,339.9807152999565,339.9719887999818,339.9720057998784,339.9807152999565,339.9807152999565,339.9807152999565,341.81454769987613,left,0.0,13.233026100322604,,,,,,,,,,,,,,,,,,,,,,,,,,,,,sub-169,1.0,random_dot,119.9935681840188,
left,left,speed,,,,,0.0,1.0,1.0,1.0,16.0,1.0,33.0,0.0,341.82109280023724,,,,,,,,,341.8154529002495,343.0210474999621,343.8218288002536,343.81288739992306,343.8129023001529,343.8218288002536,343.8218288002536,343.8218288002536,345.014121199958,left,1.0,12.588370699901134,,,,,,,,,,,,,,,,,,,,,,,,,,,,,sub-169,1.0,random_dot,119.9935681840188,
left,left,speed,,,,,0.0,1.0,1.0,1.0,17.0,0.0,34.0,0.0,345.02061730017886,,,,,,,,,345.0149329002016,346.2205789000727,347.02118520019576,347.01262339996174,347.0126467999071,347.02118520019576,347.02118520019576,347.02118520019576,348.3470093002543,left,1.0,12.724833999760447,,,,,,,,,,,,,,,,,,,,,,,,,,,,,sub-169,1.0,random_dot,119.9935681840188,
right,right,speed,,,,,0.0,1.0,1.0,1.0,17.0,1.0,35.0,1.0,348.3536057001911,,,,,,,,,348.347768700216,349.5531927002594,350.3540290999226,350.3454427001998,350.3454646002501,350.3540290999226,350.3540290999226,350.3540290999226,351.8544697002508,right,1.0,12.900996000040324,,,,,,,,,,,,,,,,,,,,,,,,,,,,,sub-169,1.0,random_dot,119.9935681840188,
right,right,speed,,,,,0.0,1.0,1.0,1.0,18.0,0.0,36.0,1.0,351.861110100057,,,,,,,,,351.85528710018843,351.96112370025367,352.761899500154,352.7530582998879,352.75307280011475,352.761899500154,352.761899500154,352.761899500154,354.18763210019097,right,1.0,12.82369009964168,,,,,,,,,,,,,,,,,,,,,,,,,,,,,sub-169,1.0,random_dot,119.9935681840188,
left,left,speed,,,,,0.0,1.0,1.0,1.0,18.0,1.0,37.0,0.0,354.19431339995936,,,,,,,,,354.1884206002578,354.5442591998726,355.3450377001427,355.33628639997914,355.3363016000949,355.3450377001427,355.3450377001427,355.3450377001427,356.49531070003286,right,0.0,12.54986790008843,,,,,,,,,,,,,,,,,,,,,,,,,,,,,sub-169,1.0,random_dot,119.9935681840188,
right,right,speed,,,,,0.0,1.0,1.0,1.0,19.0,0.0,38.0,1.0,356.50204950012267,,,,,,,,,356.4960690001026,357.30190590023994,358.1026658001356,358.0940531999804,358.0940733002499,358.1026658001356,358.1026658001356,358.1026658001356,359.1454917001538,left,0.0,12.442114499863235,,,,,,,,,,,,,,,,,,,,,,,,,,,,,sub-169,1.0,random_dot,119.9935681840188,
left,left,speed,,,,,0.0,1.0,1.0,1.0,19.0,1.0,39.0,0.0,359.15181209985167,,,,,,,,,359.1465778001584,360.3514151000418,361.1522913002409,361.1437348998152,361.1437574001029,361.1522913002409,361.1522913002409,361.1522913002409,361.8029668000527,left,1.0,12.04734249971807,,,,,,,,,,,,,,,,,,,,,,,,,,,,,sub-169,1.0,random_dot,119.9935681840188,
right,right,speed,,,,,0.0,1.0,1.0,1.0,20.0,0.0,40.0,1.0,361.8098188000731,,,,,,,,,361.803673400078,362.6095282002352,363.4103596000932,363.40159250004217,363.4016062002629,363.4103596000932,363.4103596000932,363.4103596000932,364.2189620998688,left,0.0,12.208216699771585,,,,,,,,,,,,,,,,,,,,,,,,,,,,,sub-169,1.0,random_dot,119.9935681840188,
left,left,speed,,,,,0.0,1.0,1.0,1.0,20.0,1.0,41.0,0.0,364.22575260000303,,,,,,,,,364.2197100999765,365.0258209002204,365.8266020002775,365.8177183000371,365.8177372999489,365.8266020002775,365.8266020002775,365.8266020002775,367.3439302998595,right,0.0,12.912191099952906,,,,,,,,,,,,,,,,,,,,,,,,,,,,,sub-169,1.0,random_dot,119.9935681840188,
right,right,speed,,,,,0.0,1.0,1.0,1.0,21.0,0.0,42.0,1.0,367.35044920025393,,,,,,,,,367.3450186001137,367.7002276000567,368.5009972001426,368.4922986002639,368.4923165999353,368.5009972001426,368.5009972001426,368.5009972001426,370.1935653002001,left,0.0,13.0934652001597,,,,,,,,,,,,,,,,,,,,,,,,,,,,,sub-169,1.0,random_dot,119.9935681840188,
left,left,speed,,,,,0.0,1.0,1.0,1.0,21.0,1.0,43.0,0.0,370.1998578002677,,,,,,,,,370.19439489999786,371.399729100056,372.200655200053,372.191663000267,372.19168059993535,372.200655200053,372.200655200053,372.200655200053,373.5762379998341,right,0.0,12.7738016997464,,,,,,,,,,,,,,,,,,,,,,,,,,,,,sub-169,1.0,random_dot,119.9935681840188,
left,left,speed,,,,,0.0,1.0,1.0,1.0,22.0,0.0,44.0,0.0,373.5826159999706,,,,,,,,,373.577208600007,374.38263930007815,375.1834014998749,375.1747002000921,375.1747154998593,375.1834014998749,375.1834014998749,375.1834014998749,376.2175437002443,right,0.0,12.431986799929293,,,,,,,,,,,,,,,,,,,,,,,,,,,,,sub-169,1.0,random_dot,119.9935681840188,
right,right,speed,,,,,0.0,1.0,1.0,1.0,22.0,1.0,45.0,1.0,376.224091200158,,,,,,,,,376.2183941998519,377.4237501001917,378.22442370001227,378.2156648002565,378.215681000147,378.22442370001227,378.22442370001227,378.22442370001227,379.4668677002192,right,1.0,12.640210200101135,,,,,,,,,,,,,,,,,,,,,,,,,,,,,sub-169,1.0,random_dot,119.9935681840188,
left,left,speed,,,,,0.0,1.0,1.0,1.0,23.0,0.0,46.0,0.0,379.4736179998145,,,,,,,,,379.4674617000856,380.6731336000376,381.4739524000324,381.4651405001059,381.46515570022166,381.4739524000324,381.4739524000324,381.4739524000324,382.6828181999736,left,1.0,12.602240399923176,,,,,,,,,,,,,,,,,,,,,,,,,,,,,sub-169,1.0,random_dot,119.9935681840188,
right,right,speed,,,,,0.0,1.0,1.0,1.0,23.0,1.0,47.0,1.0,382.68944129999727,,,,,,,,,382.6836186000146,383.8894290998578,384.6902054999955,384.6812454001047,384.6812618002296,384.6902054999955,384.6902054999955,384.6902054999955,386.0740757002495,left,0.0,12.779959099832922,,,,,,,,,,,,,,,,,,,,,,,,,,,,,sub-169,1.0,random_dot,119.9935681840188,
left,left,speed,,,,,0.0,1.0,1.0,1.0,24.0,0.0,48.0,0.0,386.0805921000429,,,,,,,,,386.07494670012966,387.2804355998524,388.0811560000293,388.0725960000418,388.0726152998395,388.0811560000293,388.0811560000293,388.0811560000293,389.0736238001846,left,1.0,12.390419099945577,,,,,,,,,,,,,,,,,,,,,,,,,,,,,sub-169,1.0,random_dot,119.9935681840188,
right,right,speed,,,,,0.0,1.0,1.0,1.0,24.0,1.0,49.0,1.0,389.08035189984366,,,,,,,,,389.0743725001812,390.2799225999042,391.0807560002431,391.0721284998581,391.0721482001245,391.0807560002431,391.0807560002431,391.0807560002431,392.08999320026487,right,1.0,12.40568199986592,,,,,,,,,,,,,,,,,,,,,,,,,,,,,sub-169,1.0,random_dot,119.9935681840188,
left,left,speed,,,,,0.0,1.0,1.0,1.0,25.0,0.0,50.0,0.0,392.0964482999407,,,,,,,,,392.0910596000031,392.1962430998683,392.9972195001319,392.9883632999845,392.98838229989633,392.9972195001319,392.9972195001319,392.9972195001319,394.6061311000958,left,1.0,13.009256700053813,,,,,,,,,,,,,,,,,,,,,,,,,,,,,sub-169,1.0,random_dot,119.9935681840188,
right,right,speed,,,,,0.0,1.0,1.0,1.0,25.0,1.0,51.0,1.0,394.612468900159,,,,,,,,,394.607299100142,395.4125163001008,396.2132048001513,396.20447100000456,396.204490700271,396.2132048001513,396.2132048001513,396.2132048001513,396.7891031000763,right,1.0,11.97263630013913,,,,,,,,,,,,,,,,,,,,,,,,,,,,,sub-169,1.0,random_dot,119.9935681840188,
left,left,speed,,,,,0.0,1.0,1.0,1.0,26.0,0.0,52.0,0.0,396.79573940020055,,,,,,,,,396.7898078002036,397.59546660026535,398.3962333998643,398.38760120002553,398.38762099994346,398.3962333998643,398.3962333998643,398.3962333998643,399.1302554998547,right,0.0,12.130164099857211,,,,,,,,,,,,,,,,,,,,,,,,,,,,,sub-169,1.0,random_dot,119.9935681840188,
right,right,speed,,,,,0.0,1.0,1.0,1.0,26.0,1.0,53.0,1.0,399.1368653001264,,,,,,,,,399.1310066999868,399.486802500207,400.2876670998521,400.2788611999713,400.2788797998801,400.2876670998521,400.2876670998521,400.2876670998521,401.4713217001408,right,1.0,12.577848499640822,,,,,,,,,,,,,,,,,,,,,,,,,,,,,sub-169,1.0,random_dot,119.9935681840188,
left,left,speed,,,,,0.0,1.0,1.0,1.0,27.0,0.0,54.0,0.0,401.4783415002749,,,,,,,,,401.4720716001466,402.6782315000892,403.4787075002678,403.4699547998607,403.4699702998623,403.4787075002678,403.4787075002678,403.4787075002678,404.1962621002458,left,1.0,12.111238200217484,,,,,,,,,,,,,,,,,,,,,,,,,,,,,sub-169,1.0,random_dot,119.9935681840188,
right,right,speed,,,,,0.0,1.0,1.0,1.0,27.0,1.0,55.0,1.0,404.2029173001647,,,,,,,,,404.19707449991256,405.00268079992384,405.80338420020416,405.79479569988325,405.7948186998256,405.80338420020416,405.80338420020416,405.80338420020416,406.9038030998781,left,0.0,12.500902300234884,,,,,,,,,,,,,,,,,,,,,,,,,,,,,sub-169,1.0,random_dot,119.9935681840188,
right,right,speed,,,,,0.0,1.0,1.0,1.0,28.0,0.0,56.0,1.0,406.9108351999894,,,,,,,,,406.90451830020174,407.2605363000184,408.0613156999461,408.052488300018,408.0525022000074,408.0613156999461,408.0613156999461,408.0613156999461,409.1785555998795,left,0.0,12.514560499694198,,,,,,,,,,,,,,,,,,,,,,,,,,,,,sub-169,1.0,random_dot,119.9935681840188,
left,left,speed,,,,,0.0,1.0,1.0,1.0,28.0,1.0,57.0,0.0,409.1851540999487,,,,,,,,,409.1793249999173,410.3850143998861,411.186070300173,411.17730430001393,411.177323800046,411.186070300173,411.186070300173,411.186070300173,412.2197924000211,right,0.0,12.43327370006591,,,,,,,,,,,,,,,,,,,,,,,,,,,,,sub-169,1.0,random_dot,119.9935681840188,
right,right,speed,,,,,0.0,1.0,1.0,1.0,29.0,0.0,58.0,1.0,412.2264189999551,,,,,,,,,412.2205480001867,412.3265197998844,413.1274139001034,413.1185373002663,413.1185514000245,413.1274139001034,413.1274139001034,413.1274139001034,414.14444389985874,right,1.0,12.416069699916989,,,,,,,,,,,,,,,,,,,,,,,,,,,,,sub-169,1.0,random_dot,119.9935681840188,
left,left,speed,,,,,0.0,1.0,1.0,1.0,29.0,1.0,59.0,0.0,414.1510092001408,,,,,,,,,414.14516529999673,414.5012219999917,415.302016899921,415.2931586001069,415.29317490011454,415.302016899921,415.302016899921,415.302016899921,416.3025743998587,right,0.0,12.394389900378885,,,,,,,,,,,,,,,,,,,,,,,,,,,,,sub-169,1.0,random_dot,119.9935681840188,
,,speed,,,,,0.0,1.0,1.0,1.0,,,,,,,,,,,,,,,,,,,,,,,,,,,,,,,,,,,,,,,,,,,,,,,,,,,,,,sub-169,1.0,random_dot,119.9935681840188,
,,,,,,,,,,,,,,,,,,,,,,,,,,,,,,,,,,,,,,,,,,,,,,,,,,,,,,,,,,,,,,416.3032380999066,416.3093445999548,sub-169,,,,
