direction,corrAns,thisN,thisTrialN,thisRepN,respDots.keys,respDots.corr,respDots.rt,respDots.duration,randomInstr,respRandomInstr.keys,respRandomInstr.rt,respRandomInstr.duration,practice_trials.thisRepN,practice_trials.thisTrialN,practice_trials.thisN,practice_trials.thisIndex,instr_trials.thisRepN,instr_trials.thisTrialN,instr_trials.thisN,instr_trials.thisIndex,test_trials.thisRepN,test_trials.thisTrialN,test_trials.thisN,test_trials.thisIndex,thisRow.t,notes,general_instruction.started,textGeneralInstr.started,respGeneralInstr.started,general_instruction.stopped,respGeneralInstr.keys,respGeneralInstr.rt,respGeneralInstr.duration,ITI.started,fixcross.started,fixcross.stopped,ITI.stopped,dots.started,backgroundDots.started,stimulusDots.started,respDots.started,stimulusDots.stopped,dots.stopped,practice_trials.respDots.keys,practice_trials.respDots.corr,practice_trials.respDots.rt,practice_trials.respDots.duration,feedback.started,textFeedback.started,feedback.stopped,textFeedback.stopped,info.started,textInfo.started,keyRespInfo.started,info.stopped,keyRespInfo.keys,keyRespInfo.rt,keyRespInfo.duration,test_instruction.started,textTestInstr.started,respTestInstr.started,test_instruction.stopped,respTestInstr.keys,respTestInstr.rt,respTestInstr.duration,random_instruction.started,textRandomInstr.started,respRandomInstr.started,random_instruction.stopped,instr_trials.respRandomInstr.keys,instr_trials.respRandomInstr.rt,instr_trials.respRandomInstr.duration,test_trials.respDots.keys,test_trials.respDots.corr,test_trials.respDots.rt,test_trials.respDots.duration,goodbye.started,textGoodbye.started,goodbye.stopped,participant,session,expName,frameRate,Unnamed: 87
,,,,,,,,,,,,,,,,,,,,,,,,,,,0.0030441999997492,0.0181269999998221,0.0181269999998221,259.36712880000005,space,259.3232124000001,,,,,,,,,,,,,,,,,,,,,,,,,,,,,,,,,,,,,,,,,,,,,,,,sub-071,1,random_dot,59.91931265352426,
right,right,0.0,0.0,0.0,left,0.0,30.253445400000142,,,,,,0.0,0.0,0.0,1.0,,,,,,,,,259.4020130999997,,,,,,,,,259.3961260000001,260.5686529999998,261.38708229999975,261.35256070000014,261.3536312000001,261.38708229999975,261.38708229999975,261.38708229999975,266.36817999999994,291.64896409999983,left,0.0,30.253445400000142,,291.67548320000014,291.6853409,292.1659893000001,,,,,,,,,,,,,,,,,,,,,,,,,,,,,,sub-071,1,random_dot,59.91931265352426,
left,left,1.0,1.0,0.0,left,1.0,5.783696800000143,,,,,,0.0,1.0,1.0,0.0,,,,,,,,,292.1817157999999,,,,,,,,,292.1668798999999,292.9482911,293.74840700000004,293.7319056000001,293.7328088999998,293.74840700000004,293.74840700000004,293.74840700000004,298.7463692000001,299.5482431999999,left,1.0,5.783696800000143,,299.5650246,299.57040419999976,300.06426680000004,,,,,,,,,,,,,,,,,,,,,,,,,,,,,,sub-071,1,random_dot,59.91931265352426,
right,right,2.0,0.0,1.0,right,1.0,5.603445700000066,,,,,,1.0,0.0,2.0,1.0,,,,,,,,,300.0788865999998,,,,,,,,,300.06496879999986,301.2634644,302.06344519999993,302.0473956000001,302.04822969999987,302.06344519999993,302.06344519999993,302.06344519999993,307.06123389999993,307.6789623,right,1.0,5.603445700000066,,307.6791677000001,307.6942863,308.1789083999997,308.19476429999986,,,,,,,,,,,,,,,,,,,,,,,,,,,,,sub-071,1,random_dot,59.91931265352426,
left,left,3.0,1.0,1.0,left,1.0,5.586525100000017,,,,,,1.0,1.0,3.0,0.0,,,,,,,,,308.19476429999986,,,,,,,,,308.1793653999998,308.54474519999985,309.34479580000016,309.3295509,309.33019749999994,309.34479580000016,309.34479580000016,309.34479580000016,314.34474409999984,314.9461796999999,left,1.0,5.586525100000017,,314.9465243999998,314.96143840000013,315.4452818999998,315.46131560000003,,,,,,,,,,,,,,,,,,,,,,,,,,,,,sub-071,1,random_dot,59.91931265352426,
right,right,4.0,0.0,2.0,right,1.0,5.518021399999725,,,,,,2.0,0.0,4.0,1.0,,,,,,,,,315.46131560000003,,,,,,,,,315.44596920000004,315.56195089999983,316.36174359999995,316.34611080000013,316.347033,316.36174359999995,316.36174359999995,316.36174359999995,321.36067019999973,321.8951839000001,right,1.0,5.518021399999725,,321.89552779999985,321.9112639,322.39478789999976,322.41077140000016,,,,,,,,,,,,,,,,,,,,,,,,,,,,,sub-071,1,random_dot,59.91931265352426,
left,left,5.0,1.0,2.0,left,1.0,5.607978000000003,,,,,,2.0,1.0,5.0,0.0,,,,,,,,,322.41077140000016,,,,,,,,,322.3955762999999,323.6109498999999,324.4106799000001,324.3948041999997,324.39573800000016,324.4106799000001,324.4106799000001,324.4106799000001,329.4105756999997,330.0276180999999,left,1.0,5.607978000000003,,330.02787899999976,330.04316930000005,330.5271825,330.5432700000001,,,,,,,,,,,,,,,,,,,,,,,,,,,,,sub-071,1,random_dot,59.91931265352426,
right,right,6.0,0.0,3.0,right,1.0,5.518463200000042,,,,,,3.0,0.0,6.0,1.0,,,,,,,,,330.5432700000001,,,,,,,,,330.52792929999987,330.8762564999997,331.6766085999998,331.66128990000016,331.6621928,331.6766085999998,331.6766085999998,331.6766085999998,336.67588369999976,337.2098114999999,right,1.0,5.518463200000042,,337.2100746000001,337.22588559999986,337.70927660000007,337.7263416999999,,,,,,,,,,,,,,,,,,,,,,,,,,,,,sub-071,1,random_dot,59.91931265352426,
left,left,7.0,1.0,3.0,left,1.0,5.516232199999649,,,,,,3.0,1.0,7.0,0.0,,,,,,,,,337.7263416999999,,,,,,,,,337.71005719999994,337.8256545999998,338.62538399999994,338.6097641000001,338.61066870000013,338.62538399999994,338.62538399999994,338.62538399999994,343.62367289999975,344.15805899999987,left,1.0,5.516232199999649,,344.1582595,344.1737665999999,344.6584588999999,344.6740888999998,,,,,,,,,,,,,,,,,,,,,,,,,,,,,sub-071,1,random_dot,59.91931265352426,
left,left,8.0,0.0,4.0,right,0.0,8.778181700000005,,,,,,4.0,0.0,8.0,0.0,,,,,,,,,344.6740888999998,,,,,,,,,344.6590744,345.0234021000001,345.8229487999997,345.80665629999976,345.80727279999974,345.8229487999997,345.8229487999997,345.8229487999997,350.8072892,354.60792059999994,right,0.0,8.778181700000005,,354.6176369,354.6248249,355.1081135999998,355.1231751,,,,,,,,,,,,,,,,,,,,,,,,,,,,,sub-071,1,random_dot,59.91931265352426,
right,right,9.0,1.0,4.0,right,1.0,5.606339500000104,,,,,,4.0,1.0,9.0,1.0,,,,,,,,,355.1231751,,,,,,,,,355.1088639,356.32311660000005,357.1230237999998,357.1072166999997,357.1080957999998,357.1230237999998,357.1230237999998,357.1230237999998,362.1222757999999,362.74002489999975,right,1.0,5.606339500000104,,362.74863490000007,362.7559999999999,363.2399817,363.2559001999998,,,,,,,,,,,,,,,,,,,,,,,,,,,,,sub-071,1,random_dot,59.91931265352426,
right,right,10.0,0.0,5.0,right,1.0,5.530457100000149,,,,,,5.0,0.0,10.0,1.0,,,,,,,,,363.2559001999998,,,,,,,,,363.2407134999999,364.4553750999999,365.2553247999999,365.2400201,365.24091880000014,365.2553247999999,365.2553247999999,365.2553247999999,370.2552848,370.786415,right,1.0,5.530457100000149,,370.7865554,370.80256670000017,371.2892023,,,,,,,,,,,,,,,,,,,,,,,,,,,,,,sub-071,1,random_dot,59.91931265352426,
left,left,11.0,1.0,5.0,left,1.0,5.5017658000001575,,,,,,5.0,1.0,11.0,0.0,,,,,,,,,371.3048696999999,,,,,,,,,371.2900086999998,371.6378303000001,372.4376619,372.4220559999999,372.4229713,372.4376619,372.4376619,372.4376619,377.4355559999999,377.9518435999999,left,1.0,5.5017658000001575,,377.952002,377.9679858,378.4525463999999,,,,,,,,,,,,,,,,,,,,,,,,,,,,,,sub-071,1,random_dot,59.91931265352426,
left,left,12.0,0.0,6.0,left,1.0,5.453149899999971,,,,,,6.0,0.0,12.0,0.0,,,,,,,,,378.46915869999975,,,,,,,,,378.4531819999997,378.5533528000001,379.3518982000001,379.33637869999984,379.3370638000001,379.3518982000001,379.3518982000001,379.3518982000001,384.33652660000007,384.8199338999998,left,1.0,5.453149899999971,,384.8201718999999,384.8359809999997,385.3194128,385.3363866,,,,,,,,,,,,,,,,,,,,,,,,,,,,,sub-071,1,random_dot,59.91931265352426,
right,right,13.0,1.0,6.0,right,1.0,5.607381900000291,,,,,,6.0,1.0,13.0,1.0,,,,,,,,,385.3363866,,,,,,,,,385.32004700000016,385.6687690999997,386.46868559999984,386.4528190000001,386.4539648,386.46868559999984,386.46868559999984,386.46868559999984,391.4688768000001,392.08620930000006,right,1.0,5.607381900000291,,392.0864581000001,392.1012375999999,392.5854028999997,392.6021916,,,,,,,,,,,,,,,,,,,,,,,,,,,,,sub-071,1,random_dot,59.91931265352426,
right,right,14.0,0.0,7.0,right,1.0,5.475968799999919,,,,,,7.0,0.0,14.0,1.0,,,,,,,,,392.6021916,,,,,,,,,392.5860440000001,393.8009797,394.6008901999999,394.5857289999999,394.5865165,394.6008901999999,394.6008901999999,394.6008901999999,399.6011727999999,400.0852126,right,1.0,5.475968799999919,,400.0854823999998,400.10085309999977,400.585126,400.6009611,,,,,,,,,,,,,,,,,,,,,,,,,,,,,sub-071,1,random_dot,59.91931265352426,
left,left,15.0,1.0,7.0,left,1.0,5.604234500000075,,,,,,7.0,1.0,15.0,0.0,,,,,,,,,400.6009611,,,,,,,,,400.5858938000001,401.8006252,402.6004861000001,402.5844978,402.5854067,402.6004861000001,402.6004861000001,402.6004861000001,407.599905,408.2175935999999,left,1.0,5.604234500000075,,408.2178629999999,408.2338061,408.71769,408.7323679000001,,,,,,,,,,,,,,,,,,,,,,,,,,,,,sub-071,1,random_dot,59.91931265352426,
left,left,16.0,0.0,8.0,left,1.0,5.498617100000047,,,,,,8.0,0.0,16.0,0.0,,,,,,,,,408.7323679000001,,,,,,,,,408.7191689000001,409.91644689999976,410.71620200000007,410.7008808999999,410.7017677999997,410.71620200000007,410.71620200000007,410.71620200000007,415.71586819999993,416.2181264999999,left,1.0,5.498617100000047,,416.2184293999999,416.2324168999999,416.7160601000001,416.7324404000001,,,,,,,,,,,,,,,,,,,,,,,,,,,,,sub-071,1,random_dot,59.91931265352426,
right,right,17.0,1.0,8.0,right,1.0,5.674134100000174,,,,,,8.0,1.0,17.0,1.0,,,,,,,,,416.7324404000001,,,,,,,,,416.7168348,416.8323280999998,417.6321496000001,417.6158777999999,417.6167537000001,417.6321496000001,417.6321496000001,417.6321496000001,422.6315303000001,423.31647079999993,right,1.0,5.674134100000174,,423.316738,423.33137380000016,423.81525079999983,423.8314421,,,,,,,,,,,,,,,,,,,,,,,,,,,,,sub-071,1,random_dot,59.91931265352426,
right,right,18.0,0.0,9.0,right,1.0,5.577369400000407,,,,,,9.0,0.0,18.0,1.0,,,,,,,,,423.8314421,,,,,,,,,423.8160152999999,424.6312509,425.4310058000001,425.4150297000001,425.4159209999998,425.4310058000001,425.4310058000001,425.4310058000001,430.4304609999999,431.01544980000017,right,1.0,5.577369400000407,,431.0157484000001,431.03080450000016,431.5142569999998,431.5304883999997,,,,,,,,,,,,,,,,,,,,,,,,,,,,,sub-071,1,random_dot,59.91931265352426,
left,left,19.0,1.0,9.0,left,1.0,5.666858999999931,,,,,,9.0,1.0,19.0,0.0,,,,,,,,,431.5304883999997,,,,,,,,,431.51503079999975,431.6304805999998,432.4304014999998,432.4145505000001,432.4155314,432.4304014999998,432.4304014999998,432.4304014999998,437.4133412000001,438.1137413000001,left,1.0,5.666858999999931,,438.11401190000015,438.1293655,438.6132149,438.62963039999977,,,,,,,,,,,,,,,,,,,,,,,,,,,,,sub-071,1,random_dot,59.91931265352426,
,,,,,,,,,,,,,,,,,,,,,,,,,,,,,,,,,,,,,,,,,,,,,,,,,,,,438.6135113999999,438.62963039999977,438.62963039999977,449.21276279999984,space,10.579091499999777,,,,,,,,,,,,,,,,,,,,,,,sub-071,1,random_dot,59.91931265352426,
,,,,,,,,,,,,,,,,,,,,,,,,,,,,,,,,,,,,,,,,,,,,,,,,,,,,,,,,,,,449.21293849999984,449.2281297,449.2281297,458.36093260000007,space,9.117090200000348,,,,,,,,,,,,,,,,sub-071,1,random_dot,59.91931265352426,
left,left,0.0,0.0,0.0,left,1.0,0.986792499999865,,speed,space,8.518820900000264,,,,,,0.0,0.0,0.0,1.0,0.0,0.0,0.0,0.0,466.9774377999997,,,,,,,,,466.9734862999999,467.0748109000001,467.8739510999999,467.8581841999999,467.8586108,467.8739510999999,467.8739510999999,467.8739510999999,,468.8741562,,,,,,,,,,,,,,,,,,,,,,,458.4161702000001,458.4239646000001,458.4239646000001,466.95894439999984,space,8.518820900000264,,left,1.0,0.986792499999865,,,,,sub-071,1,random_dot,59.91931265352426,
right,right,1.0,1.0,0.0,right,1.0,0.686252400000285,,speed,space,8.518820900000264,,,,,,0.0,0.0,0.0,1.0,0.0,1.0,1.0,1.0,468.8904023999999,,,,,,,,,468.87462300000016,468.9738219999999,469.7752771,469.75899100000015,469.7596688999997,469.7752771,469.7752771,469.7752771,,470.4762756,,,,,,,,,,,,,,,,,,,,,,,,,,,,,,right,1.0,0.686252400000285,,,,,sub-071,1,random_dot,59.91931265352426,
left,left,2.0,0.0,1.0,left,1.0,0.8870459999998275,,speed,space,8.518820900000264,,,,,,0.0,0.0,0.0,1.0,1.0,0.0,2.0,0.0,470.4921691999998,,,,,,,,,470.4771396000001,471.6919993000001,472.4919120999998,472.4758711,472.4766074999998,472.4919120999998,472.4919120999998,472.4919120999998,,473.3924962000001,,,,,,,,,,,,,,,,,,,,,,,,,,,,,,left,1.0,0.8870459999998275,,,,,sub-071,1,random_dot,59.91931265352426,
right,right,3.0,1.0,1.0,right,1.0,0.7555489999999736,,speed,space,8.518820900000264,,,,,,0.0,0.0,0.0,1.0,1.0,1.0,3.0,1.0,473.4084478999998,,,,,,,,,473.39346250000017,474.1914201999998,474.9914782999999,474.9752309999999,474.97610410000016,474.9914782999999,474.9914782999999,474.9914782999999,,475.7590479999999,,,,,,,,,,,,,,,,,,,,,,,,,,,,,,right,1.0,0.7555489999999736,,,,,sub-071,1,random_dot,59.91931265352426,
right,right,4.0,0.0,2.0,left,0.0,1.0722117000000253,,speed,space,8.518820900000264,,,,,,0.0,0.0,0.0,1.0,2.0,0.0,4.0,1.0,475.77481940000007,,,,,,,,,475.7600843,476.1080778999999,476.90811840000015,476.8922564,476.8931690999998,476.90811840000015,476.90811840000015,476.90811840000015,,477.9915765999999,,,,,,,,,,,,,,,,,,,,,,,,,,,,,,left,0.0,1.0722117000000253,,,,,sub-071,1,random_dot,59.91931265352426,
left,left,5.0,1.0,2.0,right,0.0,2.1513740999998845,,speed,space,8.518820900000264,,,,,,0.0,0.0,0.0,1.0,2.0,1.0,5.0,0.0,478.0075117000001,,,,,,,,,477.9925382000001,478.0903801,478.89095050000014,478.8747411,478.8756155000001,478.89095050000014,478.89095050000014,478.89095050000014,,481.0584721999999,,,,,,,,,,,,,,,,,,,,,,,,,,,,,,right,0.0,2.1513740999998845,,,,,sub-071,1,random_dot,59.91931265352426,
left,left,6.0,0.0,3.0,left,1.0,0.892005700000027,,speed,space,8.518820900000264,,,,,,0.0,0.0,0.0,1.0,3.0,0.0,6.0,0.0,481.0738323999999,,,,,,,,,481.05950589999975,482.2570759999999,483.05651080000007,483.0415121000001,483.04245809999975,483.05651080000007,483.05651080000007,483.05651080000007,,483.9572899,,,,,,,,,,,,,,,,,,,,,,,,,,,,,,left,1.0,0.892005700000027,,,,,sub-071,1,random_dot,59.91931265352426,
right,right,7.0,1.0,3.0,right,1.0,0.902361700000256,,speed,space,8.518820900000264,,,,,,0.0,0.0,0.0,1.0,3.0,1.0,7.0,1.0,483.9729435999998,,,,,,,,,483.9583111000002,484.7560622000001,485.5552616,485.5401219,485.5407980999999,485.5552616,485.5552616,485.5552616,,486.4716552,,,,,,,,,,,,,,,,,,,,,,,,,,,,,,right,1.0,0.902361700000256,,,,,sub-071,1,random_dot,59.91931265352426,
right,right,8.0,0.0,4.0,right,1.0,4.887809800000014,,speed,space,8.518820900000264,,,,,,0.0,0.0,0.0,1.0,4.0,0.0,8.0,1.0,486.4879188,,,,,,,,,486.4721887999999,487.6734081,488.4725460999998,488.4572518999999,488.4579757000001,488.4725460999998,488.4725460999998,488.4725460999998,,493.37378499999977,,,,,,,,,,,,,,,,,,,,,,,,,,,,,,right,1.0,4.887809800000014,,,,,sub-071,1,random_dot,59.91931265352426,
left,left,9.0,1.0,4.0,left,1.0,4.077134300000125,,speed,space,8.518820900000264,,,,,,0.0,0.0,0.0,1.0,4.0,1.0,9.0,0.0,493.389201,,,,,,,,,493.3747804999998,494.1719617999997,494.97200440000006,494.9560876000001,494.9569783000002,494.97200440000006,494.97200440000006,494.97200440000006,,499.0556594999998,,,,,,,,,,,,,,,,,,,,,,,,,,,,,,left,1.0,4.077134300000125,,,,,sub-071,1,random_dot,59.91931265352426,
right,right,10.0,0.0,5.0,right,1.0,1.9528030999999828,,speed,space,8.518820900000264,,,,,,0.0,0.0,0.0,1.0,5.0,0.0,10.0,1.0,499.07143540000015,,,,,,,,,499.0566356999998,499.1547338999999,499.9548479,499.9388613000001,499.9397595,499.9548479,499.9548479,499.9548479,,501.92170810000016,,,,,,,,,,,,,,,,,,,,,,,,,,,,,,right,1.0,1.9528030999999828,,,,,sub-071,1,random_dot,59.91931265352426,
left,left,11.0,1.0,5.0,left,1.0,4.78569060000018,,speed,space,8.518820900000264,,,,,,0.0,0.0,0.0,1.0,5.0,1.0,11.0,0.0,501.9378265999999,,,,,,,,,501.9228364999999,502.0209461999998,502.8208036000001,502.8050439999997,502.8059303999999,502.8208036000001,502.8208036000001,502.8208036000001,,507.6212931999999,,,,,,,,,,,,,,,,,,,,,,,,,,,,,,left,1.0,4.78569060000018,,,,,sub-071,1,random_dot,59.91931265352426,
right,right,12.0,0.0,6.0,right,1.0,1.1072798000000148,,speed,space,8.518820900000264,,,,,,0.0,0.0,0.0,1.0,6.0,0.0,12.0,1.0,507.6370732,,,,,,,,,507.6223906999999,508.8205066999999,509.62017209999976,509.6040990000001,509.6049840999999,509.62017209999976,509.62017209999976,509.62017209999976,,510.7376611999998,,,,,,,,,,,,,,,,,,,,,,,,,,,,,,right,1.0,1.1072798000000148,,,,,sub-071,1,random_dot,59.91931265352426,
left,left,13.0,1.0,6.0,left,1.0,1.0632725000000391,,speed,space,8.518820900000264,,,,,,0.0,0.0,0.0,1.0,6.0,1.0,13.0,0.0,510.7535736,,,,,,,,,510.7387116,511.0865094999999,511.8868235,511.8708008999997,511.8716387999998,511.8868235,511.8868235,511.8868235,,512.9542800999998,,,,,,,,,,,,,,,,,,,,,,,,,,,,,,left,1.0,1.0632725000000391,,,,,sub-071,1,random_dot,59.91931265352426,
right,right,14.0,0.0,7.0,right,1.0,1.4613454000000274,,speed,space,8.518820900000264,,,,,,0.0,0.0,0.0,1.0,7.0,0.0,14.0,1.0,512.9698309,,,,,,,,,512.9552960999999,513.7682624999998,514.5674005999999,514.5512101999998,514.5517596999998,514.5674005999999,514.5674005999999,514.5674005999999,,516.0353230999999,,,,,,,,,,,,,,,,,,,,,,,,,,,,,,right,1.0,1.4613454000000274,,,,,sub-071,1,random_dot,59.91931265352426,
left,left,15.0,1.0,7.0,left,1.0,1.2194814000004044,,speed,space,8.518820900000264,,,,,,0.0,0.0,0.0,1.0,7.0,1.0,15.0,0.0,516.0507168999998,,,,,,,,,516.0357776999999,516.8507206999998,517.6510001000001,517.6345649999998,517.6350842000002,517.6510001000001,517.6510001000001,517.6510001000001,,518.8849037,,,,,,,,,,,,,,,,,,,,,,,,,,,,,,left,1.0,1.2194814000004044,,,,,sub-071,1,random_dot,59.91931265352426,
left,left,16.0,0.0,8.0,left,1.0,3.969188000000031,,speed,space,8.518820900000264,,,,,,0.0,0.0,0.0,1.0,8.0,0.0,16.0,0.0,518.9009327999997,,,,,,,,,518.8856071999999,519.2502721999999,520.0499615999997,520.0336868999998,520.0341032000001,520.0499615999997,520.0499615999997,520.0499615999997,,524.0355310999998,,,,,,,,,,,,,,,,,,,,,,,,,,,,,,left,1.0,3.969188000000031,,,,,sub-071,1,random_dot,59.91931265352426,
right,right,17.0,1.0,8.0,right,1.0,4.265467300000182,,speed,space,8.518820900000264,,,,,,0.0,0.0,0.0,1.0,8.0,1.0,17.0,1.0,524.0510279999999,,,,,,,,,524.0363947999999,524.3846528999998,525.1845005,525.1687425,525.1696244999998,525.1845005,525.1845005,525.1845005,,529.4536048999998,,,,,,,,,,,,,,,,,,,,,,,,,,,,,,right,1.0,4.265467300000182,,,,,sub-071,1,random_dot,59.91931265352426,
right,right,18.0,0.0,9.0,right,1.0,4.500958799999808,,speed,space,8.518820900000264,,,,,,0.0,0.0,0.0,1.0,9.0,0.0,18.0,1.0,529.4679941999998,,,,,,,,,529.4546331000001,529.8175473000001,530.6175281999999,530.6015748999998,530.6025518000001,530.6175281999999,530.6175281999999,530.6175281999999,,535.1343247999998,,,,,,,,,,,,,,,,,,,,,,,,,,,,,,right,1.0,4.500958799999808,,,,,sub-071,1,random_dot,59.91931265352426,
left,left,19.0,1.0,9.0,left,1.0,0.9632449000000634,,speed,space,8.518820900000264,,,,,,0.0,0.0,0.0,1.0,9.0,1.0,19.0,0.0,535.1497366999997,,,,,,,,,535.1353064,535.9336577999998,536.7335321,536.7183690000002,536.7192446999998,536.7335321,536.7335321,536.7335321,,537.7005461999997,,,,,,,,,,,,,,,,,,,,,,,,,,,,,,left,1.0,0.9632449000000634,,,,,sub-071,1,random_dot,59.91931265352426,
left,left,20.0,0.0,10.0,left,1.0,1.102634599999874,,speed,space,8.518820900000264,,,,,,0.0,0.0,0.0,1.0,10.0,0.0,20.0,0.0,537.7165724000001,,,,,,,,,537.7015726999998,538.0651631999999,538.8645839999999,538.8487025999998,538.8490379,538.8645839999999,538.8645839999999,538.8645839999999,,539.9815638,,,,,,,,,,,,,,,,,,,,,,,,,,,,,,left,1.0,1.102634599999874,,,,,sub-071,1,random_dot,59.91931265352426,
right,right,21.0,1.0,10.0,right,1.0,0.8311579000001075,,speed,space,8.518820900000264,,,,,,0.0,0.0,0.0,1.0,10.0,1.0,21.0,1.0,539.9981950000001,,,,,,,,,539.9820092,540.3321566,541.1313156000001,541.1151703999999,541.1158836999998,541.1313156000001,541.1313156000001,541.1313156000001,,541.9655385000001,,,,,,,,,,,,,,,,,,,,,,,,,,,,,,right,1.0,0.8311579000001075,,,,,sub-071,1,random_dot,59.91931265352426,
right,right,22.0,0.0,11.0,right,1.0,0.7778526000001875,,speed,space,8.518820900000264,,,,,,0.0,0.0,0.0,1.0,11.0,0.0,22.0,1.0,541.9815248999998,,,,,,,,,541.9662788,543.1653827999999,543.9653275000001,543.9492354999998,543.9500054,543.9653275000001,543.9653275000001,543.9653275000001,,544.7494075999998,,,,,,,,,,,,,,,,,,,,,,,,,,,,,,right,1.0,0.7778526000001875,,,,,sub-071,1,random_dot,59.91931265352426,
left,left,23.0,1.0,11.0,left,1.0,0.8860006999998404,,speed,space,8.518820900000264,,,,,,0.0,0.0,0.0,1.0,11.0,1.0,23.0,0.0,544.7654299999999,,,,,,,,,544.7502537999999,544.8490900000002,545.6485201,545.6334871999998,545.6342384,545.6485201,545.6485201,545.6485201,,546.5490936000001,,,,,,,,,,,,,,,,,,,,,,,,,,,,,,left,1.0,0.8860006999998404,,,,,sub-071,1,random_dot,59.91931265352426,
right,right,24.0,0.0,12.0,right,1.0,0.6302754999996978,,speed,space,8.518820900000264,,,,,,0.0,0.0,0.0,1.0,12.0,0.0,24.0,1.0,546.5648734000001,,,,,,,,,546.5500381000002,546.8989253,547.6984450999998,547.6827171,547.6836020000001,547.6984450999998,547.6984450999998,547.6984450999998,,548.3340124000001,,,,,,,,,,,,,,,,,,,,,,,,,,,,,,right,1.0,0.6302754999996978,,,,,sub-071,1,random_dot,59.91931265352426,
left,left,25.0,1.0,12.0,left,1.0,0.7007366000002548,,speed,space,8.518820900000264,,,,,,0.0,0.0,0.0,1.0,12.0,1.0,25.0,0.0,548.3484861000002,,,,,,,,,548.3350802,548.6975689000001,549.4977076,549.4822819999999,549.4830219999999,549.4977076,549.4977076,549.4977076,,550.2141913999999,,,,,,,,,,,,,,,,,,,,,,,,,,,,,,left,1.0,0.7007366000002548,,,,,sub-071,1,random_dot,59.91931265352426,
left,left,26.0,0.0,13.0,left,1.0,0.6730993999999555,,speed,space,8.518820900000264,,,,,,0.0,0.0,0.0,1.0,13.0,0.0,26.0,0.0,550.2294683999999,,,,,,,,,550.2146567,551.0138720999998,551.8136565999998,551.7973907999999,551.7979807000002,551.8136565999998,551.8136565999998,551.8136565999998,,552.4965527999998,,,,,,,,,,,,,,,,,,,,,,,,,,,,,,left,1.0,0.6730993999999555,,,,,sub-071,1,random_dot,59.91931265352426,
right,right,27.0,1.0,13.0,right,1.0,1.367109899999832,,speed,space,8.518820900000264,,,,,,0.0,0.0,0.0,1.0,13.0,1.0,27.0,1.0,552.5132481,,,,,,,,,552.4970327000001,552.8464493000001,553.6476481999998,553.6313676999998,553.6321911,553.6476481999998,553.6476481999998,553.6476481999998,,555.0299495999998,,,,,,,,,,,,,,,,,,,,,,,,,,,,,,right,1.0,1.367109899999832,,,,,sub-071,1,random_dot,59.91931265352426,
left,left,28.0,0.0,14.0,left,1.0,2.727273199999672,,speed,space,8.518820900000264,,,,,,0.0,0.0,0.0,1.0,14.0,0.0,28.0,0.0,555.0458663999998,,,,,,,,,555.0304101000002,556.2301189999998,557.0304879999999,557.0148206999997,557.0154582,557.0304879999999,557.0304879999999,557.0304879999999,,559.7637773000001,,,,,,,,,,,,,,,,,,,,,,,,,,,,,,left,1.0,2.727273199999672,,,,,sub-071,1,random_dot,59.91931265352426,
right,right,29.0,1.0,14.0,right,1.0,1.44054449999976,,speed,space,8.518820900000264,,,,,,0.0,0.0,0.0,1.0,14.0,1.0,29.0,1.0,559.7802111999999,,,,,,,,,559.7646709,560.1136452000001,560.9137596,560.8978289000001,560.8987173,560.9137596,560.9137596,560.9137596,,562.3644100000001,,,,,,,,,,,,,,,,,,,,,,,,,,,,,,right,1.0,1.44054449999976,,,,,sub-071,1,random_dot,59.91931265352426,
right,right,30.0,0.0,15.0,right,1.0,1.6105140999998184,,speed,space,8.518820900000264,,,,,,0.0,0.0,0.0,1.0,15.0,0.0,30.0,1.0,562.3802688999999,,,,,,,,,562.3654232999997,562.7297091999999,563.5299234999998,563.5149751999998,563.5163797999999,563.5299234999998,563.5299234999998,563.5299234999998,,565.1464605000001,,,,,,,,,,,,,,,,,,,,,,,,,,,,,,right,1.0,1.6105140999998184,,,,,sub-071,1,random_dot,59.91931265352426,
left,left,31.0,1.0,15.0,right,0.0,3.725068400000055,,speed,space,8.518820900000264,,,,,,0.0,0.0,0.0,1.0,15.0,1.0,31.0,0.0,565.1627444000001,,,,,,,,,565.147336,566.3462919999997,567.1455099999998,567.1295732999997,567.1303276999997,567.1455099999998,567.1455099999998,567.1455099999998,,570.879077,,,,,,,,,,,,,,,,,,,,,,,,,,,,,,right,0.0,3.725068400000055,,,,,sub-071,1,random_dot,59.91931265352426,
left,left,32.0,0.0,16.0,left,1.0,2.799555600000076,,speed,space,8.518820900000264,,,,,,0.0,0.0,0.0,1.0,16.0,0.0,32.0,0.0,570.8954196999998,,,,,,,,,570.8800969999998,571.6786063999998,572.4788979999998,572.4631961,572.4641001,572.4788979999998,572.4788979999998,572.4788979999998,,575.2958218999997,,,,,,,,,,,,,,,,,,,,,,,,,,,,,,left,1.0,2.799555600000076,,,,,sub-071,1,random_dot,59.91931265352426,
right,right,33.0,1.0,16.0,right,1.0,2.7847907000000305,,speed,space,8.518820900000264,,,,,,0.0,0.0,0.0,1.0,16.0,1.0,33.0,1.0,575.3115385000001,,,,,,,,,575.2968160999999,575.3957120999999,576.1951727000001,576.1799529,576.1808496999997,576.1951727000001,576.1951727000001,576.1951727000001,,578.9933308,,,,,,,,,,,,,,,,,,,,,,,,,,,,,,right,1.0,2.7847907000000305,,,,,sub-071,1,random_dot,59.91931265352426,
right,right,34.0,0.0,17.0,right,1.0,1.0781154000001152,,speed,space,8.518820900000264,,,,,,0.0,0.0,0.0,1.0,17.0,0.0,34.0,1.0,579.0091297999998,,,,,,,,,578.9939178999998,579.7949153,580.5934794999998,580.5780263000001,580.5787461,580.5934794999998,580.5934794999998,580.5934794999998,,581.6777791,,,,,,,,,,,,,,,,,,,,,,,,,,,,,,right,1.0,1.0781154000001152,,,,,sub-071,1,random_dot,59.91931265352426,
left,left,35.0,1.0,17.0,right,0.0,8.46128090000002,,speed,space,8.518820900000264,,,,,,0.0,0.0,0.0,1.0,17.0,1.0,35.0,0.0,581.6944911,,,,,,,,,581.6787181,582.8929730999998,583.6928558,583.6766444999998,583.6773170000001,583.6928558,583.6928558,583.6928558,588.6765798000001,592.1596799999998,,,,,,,,,,,,,,,,,,,,,,,,,,,,,,right,0.0,8.46128090000002,,,,,sub-071,1,random_dot,59.91931265352426,
left,left,36.0,0.0,18.0,left,1.0,1.301050000000032,,speed,space,8.518820900000264,,,,,,0.0,0.0,0.0,1.0,18.0,0.0,36.0,0.0,592.1758602999998,,,,,,,,,592.1605347999998,592.9591685999999,593.7591456,593.7429942999997,593.7437669000001,593.7591456,593.7591456,593.7591456,,595.0761745999998,,,,,,,,,,,,,,,,,,,,,,,,,,,,,,left,1.0,1.301050000000032,,,,,sub-071,1,random_dot,59.91931265352426,
right,right,37.0,1.0,18.0,right,1.0,0.8153753999999935,,speed,space,8.518820900000264,,,,,,0.0,0.0,0.0,1.0,18.0,1.0,37.0,1.0,595.0923689000001,,,,,,,,,595.0770333999999,595.4256520999998,596.2255418999998,596.2102841000001,596.2110428000001,596.2255418999998,596.2255418999998,596.2255418999998,,597.0438604999999,,,,,,,,,,,,,,,,,,,,,,,,,,,,,,right,1.0,0.8153753999999935,,,,,sub-071,1,random_dot,59.91931265352426,
right,right,38.0,0.0,19.0,left,0.0,0.9450881000002482,,speed,space,8.518820900000264,,,,,,0.0,0.0,0.0,1.0,19.0,0.0,38.0,1.0,597.0587768,,,,,,,,,597.0447242,597.1425138999998,597.9422451999999,597.9265707,597.927459,597.9422451999999,597.9422451999999,597.9422451999999,,598.8928092000001,,,,,,,,,,,,,,,,,,,,,,,,,,,,,,left,0.0,0.9450881000002482,,,,,sub-071,1,random_dot,59.91931265352426,
left,left,39.0,1.0,19.0,left,1.0,1.4550853999999165,,speed,space,8.518820900000264,,,,,,0.0,0.0,0.0,1.0,19.0,1.0,39.0,0.0,598.9086010000001,,,,,,,,,598.8937879,600.0927007,600.8920319999997,600.8761022999997,600.8769990000001,600.8920319999997,600.8920319999997,600.8920319999997,,602.3590625000002,,,,,,,,,,,,,,,,,,,,,,,,,,,,,,left,1.0,1.4550853999999165,,,,,sub-071,1,random_dot,59.91931265352426,
right,right,40.0,0.0,20.0,right,1.0,1.6102216999997836,,speed,space,8.518820900000264,,,,,,0.0,0.0,0.0,1.0,20.0,0.0,40.0,1.0,602.3743138999998,,,,,,,,,602.3600937000001,602.4749947999999,603.2748468999998,603.2587920999999,603.2596281000001,603.2748468999998,603.2748468999998,603.2748468999998,,604.8923648999998,,,,,,,,,,,,,,,,,,,,,,,,,,,,,,right,1.0,1.6102216999997836,,,,,sub-071,1,random_dot,59.91931265352426,
left,left,41.0,1.0,20.0,left,1.0,2.0539521000000605,,speed,space,8.518820900000264,,,,,,0.0,0.0,0.0,1.0,20.0,1.0,41.0,0.0,604.9080939999999,,,,,,,,,604.8933453999998,605.2414620999998,606.0417327,606.0257243000001,606.0266298000001,606.0417327,606.0417327,606.0417327,,608.1088283999998,,,,,,,,,,,,,,,,,,,,,,,,,,,,,,left,1.0,2.0539521000000605,,,,,sub-071,1,random_dot,59.91931265352426,
left,left,42.0,0.0,21.0,right,0.0,2.0861762999998064,,speed,space,8.518820900000264,,,,,,0.0,0.0,0.0,1.0,21.0,0.0,42.0,0.0,608.1241363999998,,,,,,,,,608.1098038,608.4578642000001,609.2575649,609.2417451000001,609.2426485999999,609.2575649,609.2575649,609.2575649,,611.3582347000001,,,,,,,,,,,,,,,,,,,,,,,,,,,,,,right,0.0,2.0861762999998064,,,,,sub-071,1,random_dot,59.91931265352426,
right,right,43.0,1.0,21.0,right,1.0,1.918225299999904,,speed,space,8.518820900000264,,,,,,0.0,0.0,0.0,1.0,21.0,1.0,43.0,1.0,611.3737602000001,,,,,,,,,611.3592322999998,612.5746539000002,613.3738190999998,613.3578299000001,613.3587437000001,613.3738190999998,613.3738190999998,613.3738190999998,,615.3075734999998,,,,,,,,,,,,,,,,,,,,,,,,,,,,,,right,1.0,1.918225299999904,,,,,sub-071,1,random_dot,59.91931265352426,
left,left,44.0,0.0,22.0,right,0.0,1.653622599999835,,speed,space,8.518820900000264,,,,,,0.0,0.0,0.0,1.0,22.0,0.0,44.0,0.0,615.3230152000001,,,,,,,,,615.308571,615.6564527999999,616.4566765,616.4408957,616.4417717000001,616.4566765,616.4566765,616.4566765,,618.1233422,,,,,,,,,,,,,,,,,,,,,,,,,,,,,,right,0.0,1.653622599999835,,,,,sub-071,1,random_dot,59.91931265352426,
right,right,45.0,1.0,22.0,right,1.0,1.583374299999832,,speed,space,8.518820900000264,,,,,,0.0,0.0,0.0,1.0,22.0,1.0,45.0,1.0,618.1389393,,,,,,,,,618.1243426000001,618.4729134999998,619.2736746,619.2569703999998,619.2578104999998,619.2736746,619.2736746,619.2736746,,620.8715756000001,,,,,,,,,,,,,,,,,,,,,,,,,,,,,,right,1.0,1.583374299999832,,,,,sub-071,1,random_dot,59.91931265352426,
right,right,46.0,0.0,23.0,left,0.0,1.6509790000000066,,speed,space,8.518820900000264,,,,,,0.0,0.0,0.0,1.0,23.0,0.0,46.0,1.0,620.8881599000001,,,,,,,,,620.8721474999998,620.9704575999999,621.7703863000002,621.7547036000001,621.7550877999997,621.7703863000002,621.7703863000002,621.7703863000002,,623.4373446999998,,,,,,,,,,,,,,,,,,,,,,,,,,,,,,left,0.0,1.6509790000000066,,,,,sub-071,1,random_dot,59.91931265352426,
left,left,47.0,1.0,23.0,left,1.0,3.415276500000345,,speed,space,8.518820900000264,,,,,,0.0,0.0,0.0,1.0,23.0,1.0,47.0,0.0,623.4535351,,,,,,,,,623.4377841,624.6381636000001,625.4532811999998,625.4377863999998,625.4381767999998,625.4532811999998,625.4532811999998,625.4532811999998,,628.8721523999998,,,,,,,,,,,,,,,,,,,,,,,,,,,,,,left,1.0,3.415276500000345,,,,,sub-071,1,random_dot,59.91931265352426,
left,left,48.0,0.0,24.0,right,0.0,4.405670100000407,,speed,space,8.518820900000264,,,,,,0.0,0.0,0.0,1.0,24.0,0.0,48.0,0.0,628.8876402999999,,,,,,,,,628.8730335999999,630.0872020000002,630.8872483,630.8710538,630.8717821999999,630.8872483,630.8872483,630.8872483,,635.3048647,,,,,,,,,,,,,,,,,,,,,,,,,,,,,,right,0.0,4.405670100000407,,,,,sub-071,1,random_dot,59.91931265352426,
right,right,49.0,1.0,24.0,right,1.0,1.0059155000003557,,speed,space,8.518820900000264,,,,,,0.0,0.0,0.0,1.0,24.0,1.0,49.0,1.0,635.3209078,,,,,,,,,635.3058964000002,636.5042078000001,637.3039611999998,637.2887799,637.2897308000001,637.3039611999998,637.3039611999998,637.3039611999998,,638.3211410999997,,,,,,,,,,,,,,,,,,,,,,,,,,,,,,right,1.0,1.0059155000003557,,,,,sub-071,1,random_dot,59.91931265352426,
right,right,50.0,0.0,25.0,right,1.0,1.431128499999886,,speed,space,8.518820900000264,,,,,,0.0,0.0,0.0,1.0,25.0,0.0,50.0,1.0,638.3364953,,,,,,,,,638.3221605999997,639.1369503000001,639.9364827999998,639.9199315999999,639.9207063999997,639.9364827999998,639.9364827999998,639.9364827999998,,641.3711420999998,,,,,,,,,,,,,,,,,,,,,,,,,,,,,,right,1.0,1.431128499999886,,,,,sub-071,1,random_dot,59.91931265352426,
left,left,51.0,1.0,25.0,right,0.0,1.255011299999751,,speed,space,8.518820900000264,,,,,,0.0,0.0,0.0,1.0,25.0,1.0,51.0,0.0,641.3867047999997,,,,,,,,,641.3721544,641.4698697999997,642.2690944999999,642.2534987999998,642.2543789000001,642.2690944999999,642.2690944999999,642.2690944999999,,643.5370459999999,,,,,,,,,,,,,,,,,,,,,,,,,,,,,,right,0.0,1.255011299999751,,,,,sub-071,1,random_dot,59.91931265352426,
left,left,52.0,0.0,26.0,right,0.0,1.675625299999865,,speed,space,8.518820900000264,,,,,,0.0,0.0,0.0,1.0,26.0,0.0,52.0,0.0,643.5530435000001,,,,,,,,,643.5380061000001,643.6364516999997,644.4365050000001,644.4212490999998,644.4222608,644.4365050000001,644.4365050000001,644.4365050000001,,646.1202563000002,,,,,,,,,,,,,,,,,,,,,,,,,,,,,,right,0.0,1.675625299999865,,,,,sub-071,1,random_dot,59.91931265352426,
right,right,53.0,1.0,26.0,right,1.0,5.34113810000008,,speed,space,8.518820900000264,,,,,,0.0,0.0,0.0,1.0,26.0,1.0,53.0,1.0,646.1361662999998,,,,,,,,,646.1212225999998,646.4687313,647.2691722999998,647.2537185000001,647.2546054999998,647.2691722999998,647.2691722999998,647.2691722999998,652.2690539,652.6195010000001,,,,,,,,,,,,,,,,,,,,,,,,,,,,,,right,1.0,5.34113810000008,,,,,sub-071,1,random_dot,59.91931265352426,
right,right,54.0,0.0,27.0,right,1.0,2.8954349999999067,,speed,space,8.518820900000264,,,,,,0.0,0.0,0.0,1.0,27.0,0.0,54.0,1.0,652.635409,,,,,,,,,652.6205068999998,652.7187657,653.5186693,653.5025897999999,653.5034685,653.5186693,653.5186693,653.5186693,,656.4174493,,,,,,,,,,,,,,,,,,,,,,,,,,,,,,right,1.0,2.8954349999999067,,,,,sub-071,1,random_dot,59.91931265352426,
left,left,55.0,1.0,27.0,left,1.0,4.440408700000262,,speed,space,8.518820900000264,,,,,,0.0,0.0,0.0,1.0,27.0,1.0,55.0,0.0,656.4335166999999,,,,,,,,,656.4180829000002,657.2174147000001,658.0330226000001,658.0167613999997,658.0172883,658.0330226000001,658.0330226000001,658.0330226000001,,662.4841683,,,,,,,,,,,,,,,,,,,,,,,,,,,,,,left,1.0,4.440408700000262,,,,,sub-071,1,random_dot,59.91931265352426,
left,left,56.0,0.0,28.0,left,1.0,3.299888199999714,,speed,space,8.518820900000264,,,,,,0.0,0.0,0.0,1.0,28.0,0.0,56.0,0.0,662.4994136,,,,,,,,,662.4850020999997,662.8331297999998,663.6332201999999,663.6170552999997,663.617855,663.6332201999999,663.6332201999999,663.6332201999999,,666.9343623,,,,,,,,,,,,,,,,,,,,,,,,,,,,,,left,1.0,3.299888199999714,,,,,sub-071,1,random_dot,59.91931265352426,
right,right,57.0,1.0,28.0,right,1.0,2.6179129999995894,,speed,space,8.518820900000264,,,,,,0.0,0.0,0.0,1.0,28.0,1.0,57.0,1.0,666.9493613999998,,,,,,,,,666.9352362999998,668.1502360999998,668.9498727999999,668.9339641000001,668.9348903,668.9498727999999,668.9498727999999,668.9498727999999,,671.5832148,,,,,,,,,,,,,,,,,,,,,,,,,,,,,,right,1.0,2.6179129999995894,,,,,sub-071,1,random_dot,59.91931265352426,
left,left,58.0,0.0,29.0,left,1.0,3.2641249999996944,,speed,space,8.518820900000264,,,,,,0.0,0.0,0.0,1.0,29.0,0.0,58.0,0.0,671.5991408,,,,,,,,,671.5842302000001,672.3825646999999,673.1828059,673.1675771999999,673.1684378,673.1828059,673.1828059,673.1828059,,676.4496430999998,,,,,,,,,,,,,,,,,,,,,,,,,,,,,,left,1.0,3.2641249999996944,,,,,sub-071,1,random_dot,59.91931265352426,
right,right,59.0,1.0,29.0,right,1.0,1.2339498999999703,,speed,space,8.518820900000264,,,,,,0.0,0.0,0.0,1.0,29.0,1.0,59.0,1.0,676.4647538999998,,,,,,,,,676.4503859000001,676.7984056,677.5980448,677.5822354000002,677.5829715999998,677.5980448,677.5980448,677.5980448,,678.8339228,,,,,,,,,,,,,,,,,,,,,,,,,,,,,,right,1.0,1.2339498999999703,,,,,sub-071,1,random_dot,59.91931265352426,
,,0.0,0.0,0.0,,,,,speed,space,8.518820900000264,,,,,,0.0,0.0,0.0,1.0,,,,,,,,,,,,,,,,,,,,,,,,,,,,,,,,,,,,,,,,,,,,,,,,,,,,,,,,,,,,sub-071,1,random_dot,59.91931265352426,
left,left,0.0,0.0,0.0,left,1.0,3.061053500000071,,accuracy,space,5.876997500000016,,,,,,0.0,1.0,1.0,0.0,0.0,0.0,0.0,0.0,684.7901473000002,,,,,,,,,684.7847806,685.1129157999999,685.9126172000001,685.8975971,685.8983582000001,685.9126172000001,685.9126172000001,685.9126172000001,,688.9813515999999,,,,,,,,,,,,,,,,,,,,,,,678.8733948999998,678.8795399999999,678.8795399999999,684.7651661,space,5.876997500000016,,left,1.0,3.061053500000071,,,,,sub-071,1,random_dot,59.91931265352426,
right,right,1.0,1.0,0.0,right,1.0,2.006824100000358,,accuracy,space,5.876997500000016,,,,,,0.0,1.0,1.0,0.0,0.0,1.0,1.0,1.0,688.9973485,,,,,,,,,688.9823483999999,689.7802919000001,690.5793337999999,690.5639751999997,690.5647524999999,690.5793337999999,690.5793337999999,690.5793337999999,,692.5952886,,,,,,,,,,,,,,,,,,,,,,,,,,,,,,right,1.0,2.006824100000358,,,,,sub-071,1,random_dot,59.91931265352426,
right,right,2.0,0.0,1.0,right,1.0,2.0332164999999804,,accuracy,space,5.876997500000016,,,,,,0.0,1.0,1.0,0.0,1.0,0.0,2.0,1.0,692.6120682000001,,,,,,,,,692.5957444000001,692.9453617999998,693.7451424999999,693.7293848999998,693.7299066,693.7451424999999,693.7451424999999,693.7451424999999,,695.7793321999998,,,,,,,,,,,,,,,,,,,,,,,,,,,,,,right,1.0,2.0332164999999804,,,,,sub-071,1,random_dot,59.91931265352426,
left,left,3.0,1.0,1.0,right,0.0,3.612941899999896,,accuracy,space,5.876997500000016,,,,,,0.0,1.0,1.0,0.0,1.0,1.0,3.0,0.0,695.7951531999997,,,,,,,,,695.7800828999998,695.8792109000001,696.6780653000001,696.6626246000001,696.6631152,696.6780653000001,696.6780653000001,696.6780653000001,,700.2956251,,,,,,,,,,,,,,,,,,,,,,,,,,,,,,right,0.0,3.612941899999896,,,,,sub-071,1,random_dot,59.91931265352426,
left,left,4.0,0.0,2.0,left,1.0,3.434601599999951,,accuracy,space,5.876997500000016,,,,,,0.0,1.0,1.0,0.0,2.0,0.0,4.0,0.0,700.3117824999999,,,,,,,,,700.2964566999999,700.6454442999998,701.4454786000001,701.4302993000001,701.431145,701.4454786000001,701.4454786000001,701.4454786000001,,704.8934789999998,,,,,,,,,,,,,,,,,,,,,,,,,,,,,,left,1.0,3.434601599999951,,,,,sub-071,1,random_dot,59.91931265352426,
right,right,5.0,1.0,2.0,right,1.0,1.0367004999998244,,accuracy,space,5.876997500000016,,,,,,0.0,1.0,1.0,0.0,2.0,1.0,5.0,1.0,704.9106339999998,,,,,,,,,704.8939329999998,706.0953503000001,706.9111272999999,706.8961826999998,706.8969988999997,706.9111272999999,706.9111272999999,706.9111272999999,,707.9612244999998,,,,,,,,,,,,,,,,,,,,,,,,,,,,,,right,1.0,1.0367004999998244,,,,,sub-071,1,random_dot,59.91931265352426,
left,left,6.0,0.0,3.0,left,1.0,3.0770152000000053,,accuracy,space,5.876997500000016,,,,,,0.0,1.0,1.0,0.0,3.0,0.0,6.0,0.0,707.9779196,,,,,,,,,707.9621335000002,708.7610405,709.5610249000001,709.5455499,709.5462818000001,709.5610249000001,709.5610249000001,709.5610249000001,,712.6451613999998,,,,,,,,,,,,,,,,,,,,,,,,,,,,,,left,1.0,3.0770152000000053,,,,,sub-071,1,random_dot,59.91931265352426,
right,right,7.0,1.0,3.0,right,1.0,2.556357599999956,,accuracy,space,5.876997500000016,,,,,,0.0,1.0,1.0,0.0,3.0,1.0,7.0,1.0,712.6611333000001,,,,,,,,,712.6461381999998,713.8445016999999,714.6436576000001,714.6281002000001,714.6288518000001,714.6436576000001,714.6436576000001,714.6436576000001,,717.2112026999998,,,,,,,,,,,,,,,,,,,,,,,,,,,,,,right,1.0,2.556357599999956,,,,,sub-071,1,random_dot,59.91931265352426,
right,right,8.0,0.0,4.0,right,1.0,3.3853423000000475,,accuracy,space,5.876997500000016,,,,,,0.0,1.0,1.0,0.0,4.0,0.0,8.0,1.0,717.2270539000001,,,,,,,,,717.2121759000001,718.4103958999999,719.2098799,719.1941234000001,719.1950143999998,719.2098799,719.2098799,719.2098799,,722.6106817999998,,,,,,,,,,,,,,,,,,,,,,,,,,,,,,right,1.0,3.3853423000000475,,,,,sub-071,1,random_dot,59.91931265352426,
left,left,9.0,1.0,4.0,left,1.0,5.0732366999995975,,accuracy,space,5.876997500000016,,,,,,0.0,1.0,1.0,0.0,4.0,1.0,9.0,0.0,722.6263497999998,,,,,,,,,722.6116762000001,723.4090344000001,724.2093768999998,724.1940522999998,724.1950704999999,724.2093768999998,724.2093768999998,724.2093768999998,729.2089427999999,729.2932310000001,,,,,,,,,,,,,,,,,,,,,,,,,,,,,,left,1.0,5.0732366999995975,,,,,sub-071,1,random_dot,59.91931265352426,
right,right,10.0,0.0,5.0,right,1.0,1.2671983000000182,,accuracy,space,5.876997500000016,,,,,,0.0,1.0,1.0,0.0,5.0,0.0,10.0,1.0,729.3090358,,,,,,,,,729.2942094999999,729.6422161,730.4419711999999,730.4259511,730.4268309999998,730.4419711999999,730.4419711999999,730.4419711999999,,731.7258074000001,,,,,,,,,,,,,,,,,,,,,,,,,,,,,,right,1.0,1.2671983000000182,,,,,sub-071,1,random_dot,59.91931265352426,
left,left,11.0,1.0,5.0,left,1.0,5.99540049999996,,accuracy,space,5.876997500000016,,,,,,0.0,1.0,1.0,0.0,5.0,1.0,11.0,0.0,731.7415753,,,,,,,,,731.7267619999998,732.9253546999998,733.7253636,733.7089932999997,733.7098384000001,733.7253636,733.7253636,733.7253636,738.7241091999999,739.7251258000001,,,,,,,,,,,,,,,,,,,,,,,,,,,,,,left,1.0,5.99540049999996,,,,,sub-071,1,random_dot,59.91931265352426,
left,left,12.0,0.0,6.0,left,1.0,2.1779977000001054,,accuracy,space,5.876997500000016,,,,,,0.0,1.0,1.0,0.0,6.0,0.0,12.0,0.0,739.7406634999998,,,,,,,,,739.7260840999998,740.0740787,740.8742901999999,740.8580351,740.8589145999999,740.8742901999999,740.8742901999999,740.8742901999999,,743.0576268,,,,,,,,,,,,,,,,,,,,,,,,,,,,,,left,1.0,2.1779977000001054,,,,,sub-071,1,random_dot,59.91931265352426,
right,right,13.0,1.0,6.0,right,1.0,2.263244600000234,,accuracy,space,5.876997500000016,,,,,,0.0,1.0,1.0,0.0,6.0,1.0,13.0,1.0,743.0732540999998,,,,,,,,,743.0586263,744.2567432000001,745.0567966999997,745.0409438000002,745.0417791,745.0567966999997,745.0567966999997,745.0567966999997,,747.3241284999999,,,,,,,,,,,,,,,,,,,,,,,,,,,,,,right,1.0,2.263244600000234,,,,,sub-071,1,random_dot,59.91931265352426,
right,right,14.0,0.0,7.0,right,1.0,2.913247500000125,,accuracy,space,5.876997500000016,,,,,,0.0,1.0,1.0,0.0,7.0,0.0,14.0,1.0,747.3397427,,,,,,,,,747.3251887000001,748.5231964999998,749.3228773000001,749.3071952999999,749.3080701999997,749.3228773000001,749.3228773000001,749.3228773000001,,752.2400202999997,,,,,,,,,,,,,,,,,,,,,,,,,,,,,,right,1.0,2.913247500000125,,,,,sub-071,1,random_dot,59.91931265352426,
left,left,15.0,1.0,7.0,left,1.0,1.6002932000001238,,accuracy,space,5.876997500000016,,,,,,0.0,1.0,1.0,0.0,7.0,1.0,15.0,0.0,752.2556556999998,,,,,,,,,752.2410233,752.6058760000001,753.4056861999998,753.3894839999998,753.3903664,753.4056861999998,753.4056861999998,753.4056861999998,,755.0230419999998,,,,,,,,,,,,,,,,,,,,,,,,,,,,,,left,1.0,1.6002932000001238,,,,,sub-071,1,random_dot,59.91931265352426,
right,right,16.0,0.0,8.0,right,1.0,1.5183164999998553,,accuracy,space,5.876997500000016,,,,,,0.0,1.0,1.0,0.0,8.0,0.0,16.0,1.0,755.0388269999999,,,,,,,,,755.0240261999998,756.2387091999999,757.0386349,757.0228464000002,757.0236891,757.0386349,757.0386349,757.0386349,,758.5726611,,,,,,,,,,,,,,,,,,,,,,,,,,,,,,right,1.0,1.5183164999998553,,,,,sub-071,1,random_dot,59.91931265352426,
left,left,17.0,1.0,8.0,left,1.0,2.6672840999999607,,accuracy,space,5.876997500000016,,,,,,0.0,1.0,1.0,0.0,8.0,1.0,17.0,0.0,758.5881138,,,,,,,,,758.5737211000001,758.6884190000001,759.4878838999998,759.4719774,759.4729071000002,759.4878838999998,759.4878838999998,759.4878838999998,,762.1563593999999,,,,,,,,,,,,,,,,,,,,,,,,,,,,,,left,1.0,2.6672840999999607,,,,,sub-071,1,random_dot,59.91931265352426,
right,right,18.0,0.0,9.0,right,1.0,1.717037899999923,,accuracy,space,5.876997500000016,,,,,,0.0,1.0,1.0,0.0,9.0,0.0,18.0,1.0,762.1710640000001,,,,,,,,,762.1573220999999,762.2709977999998,763.0855551999998,763.0696816999998,763.0700739999997,763.0855551999998,763.0855551999998,763.0855551999998,,764.8191922999999,,,,,,,,,,,,,,,,,,,,,,,,,,,,,,right,1.0,1.717037899999923,,,,,sub-071,1,random_dot,59.91931265352426,
left,left,19.0,1.0,9.0,right,0.0,3.1641813999999613,,accuracy,space,5.876997500000016,,,,,,0.0,1.0,1.0,0.0,9.0,1.0,19.0,0.0,764.8358552,,,,,,,,,764.8196394000001,765.6193026000001,766.4185124999999,766.4031869,766.4036173999998,766.4185124999999,766.4185124999999,766.4185124999999,,769.5864296,,,,,,,,,,,,,,,,,,,,,,,,,,,,,,right,0.0,3.1641813999999613,,,,,sub-071,1,random_dot,59.91931265352426,
left,left,20.0,0.0,10.0,right,0.0,2.2999682999998186,,accuracy,space,5.876997500000016,,,,,,0.0,1.0,1.0,0.0,10.0,0.0,20.0,0.0,769.6031717999999,,,,,,,,,769.5871171999997,769.6865196999997,770.4858764999999,770.4712049,770.471884,770.4858764999999,770.4858764999999,770.4858764999999,,772.7870687,,,,,,,,,,,,,,,,,,,,,,,,,,,,,,right,0.0,2.2999682999998186,,,,,sub-071,1,random_dot,59.91931265352426,
right,right,21.0,1.0,10.0,right,1.0,1.5013247000001684,,accuracy,space,5.876997500000016,,,,,,0.0,1.0,1.0,0.0,10.0,1.0,21.0,1.0,772.8028334,,,,,,,,,772.7879843000001,773.9859866000002,774.7854563999999,774.7694041999998,774.7701429999997,774.7854563999999,774.7854563999999,774.7854563999999,,776.3028239999999,,,,,,,,,,,,,,,,,,,,,,,,,,,,,,right,1.0,1.5013247000001684,,,,,sub-071,1,random_dot,59.91931265352426,
left,left,22.0,0.0,11.0,left,1.0,1.5396322999999938,,accuracy,space,5.876997500000016,,,,,,0.0,1.0,1.0,0.0,11.0,0.0,22.0,0.0,776.3187988,,,,,,,,,776.3036600999999,776.401961,777.2003439,777.1846237999998,777.1849517999999,777.2003439,777.2003439,777.2003439,,778.7525431999998,,,,,,,,,,,,,,,,,,,,,,,,,,,,,,left,1.0,1.5396322999999938,,,,,sub-071,1,random_dot,59.91931265352426,
right,right,23.0,1.0,11.0,right,1.0,0.8799761000000217,,accuracy,space,5.876997500000016,,,,,,0.0,1.0,1.0,0.0,11.0,1.0,23.0,1.0,778.7683311000001,,,,,,,,,778.7535239999997,778.8521482000001,779.6522442,779.6362235000001,779.6371036999999,779.6522442,779.6522442,779.6522442,,780.5366623999998,,,,,,,,,,,,,,,,,,,,,,,,,,,,,,right,1.0,0.8799761000000217,,,,,sub-071,1,random_dot,59.91931265352426,
right,right,24.0,0.0,12.0,right,1.0,1.0635691000002223,,accuracy,space,5.876997500000016,,,,,,0.0,1.0,1.0,0.0,12.0,0.0,24.0,1.0,780.5520298000001,,,,,,,,,780.5376931000001,781.7356295,782.5353649999997,782.5203705999998,782.5212895999998,782.5353649999997,782.5353649999997,782.5353649999997,,783.6028593000001,,,,,,,,,,,,,,,,,,,,,,,,,,,,,,right,1.0,1.0635691000002223,,,,,sub-071,1,random_dot,59.91931265352426,
left,left,25.0,1.0,12.0,left,1.0,1.2674342999998771,,accuracy,space,5.876997500000016,,,,,,0.0,1.0,1.0,0.0,12.0,1.0,25.0,0.0,783.6183155999997,,,,,,,,,783.6038383999999,784.4182762,785.2183125000001,785.2031354999999,785.2040382,785.2183125000001,785.2183125000001,785.2183125000001,,786.5024512,,,,,,,,,,,,,,,,,,,,,,,,,,,,,,left,1.0,1.2674342999998771,,,,,sub-071,1,random_dot,59.91931265352426,
right,right,26.0,0.0,13.0,right,1.0,1.1389605999997912,,accuracy,space,5.876997500000016,,,,,,0.0,1.0,1.0,0.0,13.0,0.0,26.0,1.0,786.5182460000001,,,,,,,,,786.5034494000001,786.8512946999999,787.6513931999998,787.6349461,787.6358123,787.6513931999998,787.6513931999998,787.6513931999998,,788.8021144999998,,,,,,,,,,,,,,,,,,,,,,,,,,,,,,right,1.0,1.1389605999997912,,,,,sub-071,1,random_dot,59.91931265352426,
left,left,27.0,1.0,13.0,left,1.0,0.9336794999999256,,accuracy,space,5.876997500000016,,,,,,0.0,1.0,1.0,0.0,13.0,1.0,27.0,0.0,788.8177053999998,,,,,,,,,788.8031098000001,789.1512830000001,789.9511121999999,789.9351563999999,789.9360357,789.9511121999999,789.9511121999999,789.9511121999999,,790.8863489999999,,,,,,,,,,,,,,,,,,,,,,,,,,,,,,left,1.0,0.9336794999999256,,,,,sub-071,1,random_dot,59.91931265352426,
right,right,28.0,0.0,14.0,right,1.0,0.9246115000000829,,accuracy,space,5.876997500000016,,,,,,0.0,1.0,1.0,0.0,14.0,0.0,28.0,1.0,790.9013792999999,,,,,,,,,790.8871961,791.7006584999999,792.5006321999999,792.4851202999998,792.4860058999998,792.5006321999999,792.5006321999999,792.5006321999999,,793.4353130999998,,,,,,,,,,,,,,,,,,,,,,,,,,,,,,right,1.0,0.9246115000000829,,,,,sub-071,1,random_dot,59.91931265352426,
left,left,29.0,1.0,14.0,left,1.0,0.9781113999997616,,accuracy,space,5.876997500000016,,,,,,0.0,1.0,1.0,0.0,14.0,1.0,29.0,0.0,793.4507097000001,,,,,,,,,793.4362818999998,794.6501666999998,795.4502767999998,795.4347189,795.4356038999999,795.4502767999998,795.4502767999998,795.4502767999998,,796.4342668999998,,,,,,,,,,,,,,,,,,,,,,,,,,,,,,left,1.0,0.9781113999997616,,,,,sub-071,1,random_dot,59.91931265352426,
left,left,30.0,0.0,15.0,left,1.0,3.837675799999943,,accuracy,space,5.876997500000016,,,,,,0.0,1.0,1.0,0.0,15.0,0.0,30.0,0.0,796.4498473999997,,,,,,,,,796.4352512999999,797.6326524000001,798.4323263000001,798.4165601999998,798.4172155000001,798.4323263000001,798.4323263000001,798.4323263000001,,802.2821534,,,,,,,,,,,,,,,,,,,,,,,,,,,,,,left,1.0,3.837675799999943,,,,,sub-071,1,random_dot,59.91931265352426,
right,right,31.0,1.0,15.0,right,1.0,0.7805158000001029,,accuracy,space,5.876997500000016,,,,,,0.0,1.0,1.0,0.0,15.0,1.0,31.0,1.0,802.2983998,,,,,,,,,802.2829366999999,803.4812195,804.2815086,804.2659503999998,804.2666160999997,804.2815086,804.2815086,804.2815086,,805.0657301000001,,,,,,,,,,,,,,,,,,,,,,,,,,,,,,right,1.0,0.7805158000001029,,,,,sub-071,1,random_dot,59.91931265352426,
right,right,32.0,0.0,16.0,right,1.0,0.7478055000001405,,accuracy,space,5.876997500000016,,,,,,0.0,1.0,1.0,0.0,16.0,0.0,32.0,1.0,805.0813748999999,,,,,,,,,805.0664683,805.8652063,806.6651210999999,806.6490797000001,806.6498823000002,806.6651210999999,806.6651210999999,806.6651210999999,,807.4155203,,,,,,,,,,,,,,,,,,,,,,,,,,,,,,right,1.0,0.7478055000001405,,,,,sub-071,1,random_dot,59.91931265352426,
left,left,33.0,1.0,16.0,left,1.0,1.7891778000002887,,accuracy,space,5.876997500000016,,,,,,0.0,1.0,1.0,0.0,16.0,1.0,33.0,0.0,807.4314322999999,,,,,,,,,807.4163817999997,808.2156034,809.0147842000001,808.9985298000001,808.9992944999999,809.0147842000001,809.0147842000001,809.0147842000001,,810.8150323999998,,,,,,,,,,,,,,,,,,,,,,,,,,,,,,left,1.0,1.7891778000002887,,,,,sub-071,1,random_dot,59.91931265352426,
right,right,34.0,0.0,17.0,right,1.0,0.7303954000003614,,accuracy,space,5.876997500000016,,,,,,0.0,1.0,1.0,0.0,17.0,0.0,34.0,1.0,810.8315893999998,,,,,,,,,810.8158717000001,812.0147112999998,812.8150322000001,812.7995864999998,812.8004488000001,812.8150322000001,812.8150322000001,812.8150322000001,,813.5491397000001,,,,,,,,,,,,,,,,,,,,,,,,,,,,,,right,1.0,0.7303954000003614,,,,,sub-071,1,random_dot,59.91931265352426,
left,left,35.0,1.0,17.0,left,1.0,0.9384727999999996,,accuracy,space,5.876997500000016,,,,,,0.0,1.0,1.0,0.0,17.0,1.0,35.0,0.0,813.5649315000001,,,,,,,,,813.5501639999998,814.7479150999998,815.5478316999997,815.5315581,815.5324341999999,815.5478316999997,815.5478316999997,815.5478316999997,,816.4981008,,,,,,,,,,,,,,,,,,,,,,,,,,,,,,left,1.0,0.9384727999999996,,,,,sub-071,1,random_dot,59.91931265352426,
left,left,36.0,0.0,18.0,left,1.0,2.2195434000000205,,accuracy,space,5.876997500000016,,,,,,0.0,1.0,1.0,0.0,18.0,0.0,36.0,0.0,816.5140436000002,,,,,,,,,816.4990969999999,816.5971673999998,817.3973041999998,817.3824534999999,817.3833316999999,817.3973041999998,817.3973041999998,817.3973041999998,,819.6313154999998,,,,,,,,,,,,,,,,,,,,,,,,,,,,,,left,1.0,2.2195434000000205,,,,,sub-071,1,random_dot,59.91931265352426,
right,right,37.0,1.0,18.0,right,1.0,0.8008374000000913,,accuracy,space,5.876997500000016,,,,,,0.0,1.0,1.0,0.0,18.0,1.0,37.0,1.0,819.6469788999998,,,,,,,,,819.6322897999999,820.8311696999999,821.6305373,821.6142190999999,821.6150600000001,821.6305373,821.6305373,821.6305373,,822.4479588999998,,,,,,,,,,,,,,,,,,,,,,,,,,,,,,right,1.0,0.8008374000000913,,,,,sub-071,1,random_dot,59.91931265352426,
left,left,38.0,0.0,19.0,left,1.0,1.316881800000374,,accuracy,space,5.876997500000016,,,,,,0.0,1.0,1.0,0.0,19.0,0.0,38.0,0.0,822.4636857999999,,,,,,,,,822.4489161000001,822.7971606000001,823.5968303,823.5809245999999,823.5818152000002,823.5968303,823.5968303,823.5968303,,824.9148976000001,,,,,,,,,,,,,,,,,,,,,,,,,,,,,,left,1.0,1.316881800000374,,,,,sub-071,1,random_dot,59.91931265352426,
right,right,39.0,1.0,19.0,right,1.0,0.9390367999999398,,accuracy,space,5.876997500000016,,,,,,0.0,1.0,1.0,0.0,19.0,1.0,39.0,1.0,824.9298422000002,,,,,,,,,824.9158947999999,825.0298990000001,825.8296547,825.8136138,825.8144535000001,825.8296547,825.8296547,825.8296547,,826.7807985,,,,,,,,,,,,,,,,,,,,,,,,,,,,,,right,1.0,0.9390367999999398,,,,,sub-071,1,random_dot,59.91931265352426,
right,right,40.0,0.0,20.0,right,1.0,1.1771297000000231,,accuracy,space,5.876997500000016,,,,,,0.0,1.0,1.0,0.0,20.0,0.0,40.0,1.0,826.7962164,,,,,,,,,826.7817952999999,827.9955586000001,828.7950188999998,828.7797062999998,828.7804308,828.7950188999998,828.7950188999998,828.7950188999998,,829.9799235999999,,,,,,,,,,,,,,,,,,,,,,,,,,,,,,right,1.0,1.1771297000000231,,,,,sub-071,1,random_dot,59.91931265352426,
left,left,41.0,1.0,20.0,left,1.0,1.3459932999999182,,accuracy,space,5.876997500000016,,,,,,0.0,1.0,1.0,0.0,20.0,1.0,41.0,0.0,829.9957850999999,,,,,,,,,829.9808831999999,831.1789469,831.9783621000001,831.9623923999998,831.9635715,831.9783621000001,831.9783621000001,831.9783621000001,,833.3289369999998,,,,,,,,,,,,,,,,,,,,,,,,,,,,,,left,1.0,1.3459932999999182,,,,,sub-071,1,random_dot,59.91931265352426,
right,right,42.0,0.0,21.0,right,1.0,0.9099616999997124,,accuracy,space,5.876997500000016,,,,,,0.0,1.0,1.0,0.0,21.0,0.0,42.0,1.0,833.3440575,,,,,,,,,833.3299478999998,834.5437665,835.3430211999998,835.3274130999998,835.3278136999998,835.3430211999998,835.3430211999998,835.3430211999998,,836.2600240000002,,,,,,,,,,,,,,,,,,,,,,,,,,,,,,right,1.0,0.9099616999997124,,,,,sub-071,1,random_dot,59.91931265352426,
left,left,43.0,1.0,21.0,left,1.0,1.1741656000003786,,accuracy,space,5.876997500000016,,,,,,0.0,1.0,1.0,0.0,21.0,1.0,43.0,0.0,836.2762704000002,,,,,,,,,836.2604787999999,837.0614253999997,837.87637,837.8601835999998,837.8605874,837.87637,837.87637,837.87637,,839.0602107999998,,,,,,,,,,,,,,,,,,,,,,,,,,,,,,left,1.0,1.1741656000003786,,,,,sub-071,1,random_dot,59.91931265352426,
left,left,44.0,0.0,22.0,left,1.0,2.2034678999998505,,accuracy,space,5.876997500000016,,,,,,0.0,1.0,1.0,0.0,22.0,0.0,44.0,0.0,839.0760759999998,,,,,,,,,839.0606560000001,839.1605046,839.9613085999999,839.9452047999998,839.9459477999999,839.9613085999999,839.9613085999999,839.9613085999999,,842.1775557999999,,,,,,,,,,,,,,,,,,,,,,,,,,,,,,left,1.0,2.2034678999998505,,,,,sub-071,1,random_dot,59.91931265352426,
right,right,45.0,1.0,22.0,right,1.0,1.0302071999999498,,accuracy,space,5.876997500000016,,,,,,0.0,1.0,1.0,0.0,22.0,1.0,45.0,1.0,842.1932241999998,,,,,,,,,842.1784066,842.2772802,843.0771599,843.0618940999998,843.0626487999998,843.0771599,843.0771599,843.0771599,,844.1115110000001,,,,,,,,,,,,,,,,,,,,,,,,,,,,,,right,1.0,1.0302071999999498,,,,,sub-071,1,random_dot,59.91931265352426,
right,right,46.0,0.0,23.0,right,1.0,2.4002746999999545,,accuracy,space,5.876997500000016,,,,,,0.0,1.0,1.0,0.0,23.0,0.0,46.0,1.0,844.1272211,,,,,,,,,844.1123401,844.9104475999998,845.7098096999998,845.6956163999998,845.6963559000001,845.7098096999998,845.7098096999998,845.7098096999998,,848.1115531999999,,,,,,,,,,,,,,,,,,,,,,,,,,,,,,right,1.0,2.4002746999999545,,,,,sub-071,1,random_dot,59.91931265352426,
left,left,47.0,1.0,23.0,left,1.0,1.1200025999996797,,accuracy,space,5.876997500000016,,,,,,0.0,1.0,1.0,0.0,23.0,1.0,47.0,0.0,848.1271001,,,,,,,,,848.1125498000001,848.2269903000001,849.0267642999997,849.0107165999998,849.0115729999998,849.0267642999997,849.0267642999997,849.0267642999997,,850.1608336999998,,,,,,,,,,,,,,,,,,,,,,,,,,,,,,left,1.0,1.1200025999996797,,,,,sub-071,1,random_dot,59.91931265352426,
right,right,48.0,0.0,24.0,right,1.0,1.5137902000001304,,accuracy,space,5.876997500000016,,,,,,0.0,1.0,1.0,0.0,24.0,0.0,48.0,1.0,850.1767217000001,,,,,,,,,850.1618745999999,850.9775651999998,851.7764719000002,851.7607699,851.7616364,851.7764719000002,851.7764719000002,851.7764719000002,,853.2934824999998,,,,,,,,,,,,,,,,,,,,,,,,,,,,,,right,1.0,1.5137902000001304,,,,,sub-071,1,random_dot,59.91931265352426,
left,left,49.0,1.0,24.0,left,1.0,0.8685335000000123,,accuracy,space,5.876997500000016,,,,,,0.0,1.0,1.0,0.0,24.0,1.0,49.0,0.0,853.3093312000001,,,,,,,,,853.2944742999998,854.0928921,854.8925552000001,854.8773790999999,854.8782376999998,854.8925552000001,854.8925552000001,854.8925552000001,,855.7771013000001,,,,,,,,,,,,,,,,,,,,,,,,,,,,,,left,1.0,0.8685335000000123,,,,,sub-071,1,random_dot,59.91931265352426,
left,left,50.0,0.0,25.0,left,1.0,1.1534583999996355,,accuracy,space,5.876997500000016,,,,,,0.0,1.0,1.0,0.0,25.0,0.0,50.0,0.0,855.7927746999999,,,,,,,,,855.7781046,855.8760160000002,856.6758574,856.6593588999999,856.6602429999998,856.6758574,856.6758574,856.6758574,,857.8430168,,,,,,,,,,,,,,,,,,,,,,,,,,,,,,left,1.0,1.1534583999996355,,,,,sub-071,1,random_dot,59.91931265352426,
right,right,51.0,1.0,25.0,right,1.0,1.0599388000000545,,accuracy,space,5.876997500000016,,,,,,0.0,1.0,1.0,0.0,25.0,1.0,51.0,1.0,857.8586031,,,,,,,,,857.8441075999999,858.6417568000002,859.4422242999999,859.4263969999997,859.4272943000001,859.4422242999999,859.4422242999999,859.4422242999999,,860.5092927999999,,,,,,,,,,,,,,,,,,,,,,,,,,,,,,right,1.0,1.0599388000000545,,,,,sub-071,1,random_dot,59.91931265352426,
left,left,52.0,0.0,26.0,left,1.0,2.49583900000016,,accuracy,space,5.876997500000016,,,,,,0.0,1.0,1.0,0.0,26.0,0.0,52.0,0.0,860.5248495000001,,,,,,,,,860.510288,860.8584809999998,861.6585267,861.6433010999999,861.644245,861.6585267,861.6585267,861.6585267,,864.1580058999998,,,,,,,,,,,,,,,,,,,,,,,,,,,,,,left,1.0,2.49583900000016,,,,,sub-071,1,random_dot,59.91931265352426,
right,right,53.0,1.0,26.0,right,1.0,2.4397917999999663,,accuracy,space,5.876997500000016,,,,,,0.0,1.0,1.0,0.0,26.0,1.0,53.0,1.0,864.1735694999998,,,,,,,,,864.1588619999998,864.2573197000002,865.0573759999997,865.0416062999998,865.0423701,865.0573759999997,865.0573759999997,865.0573759999997,,867.5073330999999,,,,,,,,,,,,,,,,,,,,,,,,,,,,,,right,1.0,2.4397917999999663,,,,,sub-071,1,random_dot,59.91931265352426,
right,right,54.0,0.0,27.0,right,1.0,1.0968152000000373,,accuracy,space,5.876997500000016,,,,,,0.0,1.0,1.0,0.0,27.0,0.0,54.0,1.0,867.5236946999999,,,,,,,,,867.5081279000001,868.7225601,869.5225987999997,869.5063507999998,869.5069428000002,869.5225987999997,869.5225987999997,869.5225987999997,,870.6225242999999,,,,,,,,,,,,,,,,,,,,,,,,,,,,,,right,1.0,1.0968152000000373,,,,,sub-071,1,random_dot,59.91931265352426,
left,left,55.0,1.0,27.0,left,1.0,1.446023999999852,,accuracy,space,5.876997500000016,,,,,,0.0,1.0,1.0,0.0,27.0,1.0,55.0,0.0,870.638704,,,,,,,,,870.6229211999998,870.9728491000001,871.7716365000001,871.7559185999999,871.7563417000001,871.7716365000001,871.7716365000001,871.7716365000001,,873.2229105000001,,,,,,,,,,,,,,,,,,,,,,,,,,,,,,left,1.0,1.446023999999852,,,,,sub-071,1,random_dot,59.91931265352426,
right,right,56.0,0.0,28.0,right,1.0,0.8235149000001911,,accuracy,space,5.876997500000016,,,,,,0.0,1.0,1.0,0.0,28.0,0.0,56.0,1.0,873.2389825,,,,,,,,,873.2233701999999,874.0381177999998,874.8393547999999,874.8241107999997,874.8247913,874.8393547999999,874.8393547999999,874.8393547999999,,875.6738215,,,,,,,,,,,,,,,,,,,,,,,,,,,,,,right,1.0,0.8235149000001911,,,,,sub-071,1,random_dot,59.91931265352426,
left,left,57.0,1.0,28.0,left,1.0,1.6176135999999133,,accuracy,space,5.876997500000016,,,,,,0.0,1.0,1.0,0.0,28.0,1.0,57.0,0.0,875.6895270999999,,,,,,,,,875.6747117,876.0228978,876.8224411000001,876.8060645999999,876.8068257,876.8224411000001,876.8224411000001,876.8224411000001,,878.4567864,,,,,,,,,,,,,,,,,,,,,,,,,,,,,,left,1.0,1.6176135999999133,,,,,sub-071,1,random_dot,59.91931265352426,
left,left,58.0,0.0,29.0,left,1.0,2.088553099999899,,accuracy,space,5.876997500000016,,,,,,0.0,1.0,1.0,0.0,29.0,0.0,58.0,0.0,878.4725751999999,,,,,,,,,878.4576459999998,878.8063259999999,879.6062440999999,879.5906239999999,879.5915798999999,879.6062440999999,879.6062440999999,879.6062440999999,,881.7066067999999,,,,,,,,,,,,,,,,,,,,,,,,,,,,,,left,1.0,2.088553099999899,,,,,sub-071,1,random_dot,59.91931265352426,
right,right,59.0,1.0,29.0,right,1.0,1.1777005999997527,,accuracy,space,5.876997500000016,,,,,,0.0,1.0,1.0,0.0,29.0,1.0,59.0,1.0,881.7224206000001,,,,,,,,,881.7076400999999,882.0724632000001,882.8723501,882.8566448000001,882.8575206999999,882.8723501,882.8723501,882.8723501,,884.0563744000001,,,,,,,,,,,,,,,,,,,,,,,,,,,,,,right,1.0,1.1777005999997527,,,,,sub-071,1,random_dot,59.91931265352426,
,,1.0,1.0,0.0,,,,,accuracy,space,5.876997500000016,,,,,,0.0,1.0,1.0,0.0,,,,,,,,,,,,,,,,,,,,,,,,,,,,,,,,,,,,,,,,,,,,,,,,,,,,,,,,,,,,sub-071,1,random_dot,59.91931265352426,
,,,,,,,,,,,,,,,,,,,,,,,,,,,,,,,,,,,,,,,,,,,,,,,,,,,,,,,,,,,,,,,,,,,,,,,,,,,,,884.0716250999999,884.0804368999998,889.0727845000001,sub-071,1,random_dot,59.91931265352426,
