wordCTK,colorCTK,corrAnsCTK,congruentCTK,thisN,thisTrialN,thisRepN,keyResp_CTK.keys,keyResp_CTK.corr,keyResp_CTK.rt,keyResp_CTK.duration,wordPractice,colorPractice,corrAnsPractice,congruentPractice,respPractice.keys,respPractice.corr,respPractice.rt,respPractice.duration,word,color,corrAns,congruent,keyResp_test_run.keys,keyResp_test_run.corr,keyResp_test_run.rt,keyResp_test_run.duration,trials_CTK.thisRepN,trials_CTK.thisTrialN,trials_CTK.thisN,trials_CTK.thisIndex,trials_practice.thisRepN,trials_practice.thisTrialN,trials_practice.thisN,trials_practice.thisIndex,trials_test.thisRepN,trials_test.thisTrialN,trials_test.thisN,trials_test.thisIndex,thisRow.t,notes,instruction.started,instr_text.started,instr_image.started,instr_resp.started,instruction.stopped,instr_resp.keys,instr_resp.rt,instr_resp.duration,instr_color_to_key.started,instr_ctk.started,resp_ctk.started,instr_color_to_key.stopped,resp_ctk.keys,resp_ctk.rt,resp_ctk.duration,ITI.started,fixcross.started,fixcross.stopped,ITI.stopped,color_to_key_run.started,stimulus_CTK.started,keyResp_CTK.started,color_to_key_run.stopped,trials_CTK.keyResp_CTK.keys,trials_CTK.keyResp_CTK.corr,trials_CTK.keyResp_CTK.rt,trials_CTK.keyResp_CTK.duration,instr_practice.started,instr_practice_text.started,instr_practice_resp.started,instr_practice.stopped,instr_practice_resp.keys,instr_practice_resp.rt,instr_practice_resp.duration,practice_run.started,stimulus_practice.started,respPractice.started,practice_run.stopped,trials_practice.respPractice.keys,trials_practice.respPractice.corr,trials_practice.respPractice.rt,trials_practice.respPractice.duration,feedback.started,textFeedback.started,textFeedback.stopped,feedback.stopped,instr_test.started,instr_test_text.started,instr_test_resp.started,instr_test.stopped,instr_test_resp.keys,instr_test_resp.rt,instr_test_resp.duration,test_run.started,stimulus_test_run.started,keyResp_test_run.started,test_run.stopped,trials_test.keyResp_test_run.keys,trials_test.keyResp_test_run.corr,trials_test.keyResp_test_run.rt,trials_test.keyResp_test_run.duration,goodbye.started,textGoodbye.started,goodbye.stopped,participant,session,expName,frameRate,Unnamed: 112
,,,,,,,,,,,,,,,,,,,,,,,,,,,,,,,,,,,,,,,,,0.0045100999996066,0.0484013999812305,0.0484013999812305,0.0484013999812305,147.1476537999697,space,147.000010299962,,,,,,,,,,,,,,,,,,,,,,,,,,,,,,,,,,,,,,,,,,,,,,,,,,,,,,,,,,sub-104,1,stroop_test,59.80525014864224,
,,,,,,,,,,,,,,,,,,,,,,,,,,,,,,,,,,,,,,,,,,,,,,,,,147.14769849996082,147.15338289993815,147.15338289993815,158.27204030007124,space,11.101940699853005,,,,,,,,,,,,,,,,,,,,,,,,,,,,,,,,,,,,,,,,,,,,,,,,,,,sub-104,1,stroop_test,59.80525014864224,
test,yellow,g,1.0,0.0,0.0,0.0,g,1.0,2.129324000095949,,,,,,,,,,,,,,,,,,0.0,0.0,0.0,1.0,,,,,,,,,158.3114197999239,,,,,,,,,,,,,,,,,158.3088802001439,158.3872752999887,159.18600350013003,159.17086099996231,159.1787680000998,159.18600350013003,159.18600350013003,161.31934470008127,g,1.0,2.129324000095949,,,,,,,,,,,,,,,,,,,,,,,,,,,,,,,,,,,,,,,sub-104,1,stroop_test,59.80525014864224,
test,blue,b,1.0,1.0,1.0,0.0,b,1.0,1.0103551000356674,,,,,,,,,,,,,,,,,,0.0,1.0,1.0,2.0,,,,,,,,,161.3343208001461,,,,,,,,,,,,,,,,,161.31965050008148,162.53374109999277,163.33299489994533,163.31734400009736,163.3178461000789,163.33299489994533,163.33299489994533,164.35007990011945,b,1.0,1.0103551000356674,,,,,,,,,,,,,,,,,,,,,,,,,,,,,,,,,,,,,,,sub-104,1,stroop_test,59.80525014864224,
test,red,r,1.0,2.0,2.0,0.0,r,1.0,0.5752317998558283,,,,,,,,,,,,,,,,,,0.0,2.0,2.0,0.0,,,,,,,,,164.3650569000747,,,,,,,,,,,,,,,,,164.35039820009845,164.71507179993205,165.5307974999305,165.5148149000015,165.51529070013203,165.5307974999305,165.5307974999305,166.11496039992198,r,1.0,0.5752317998558283,,,,,,,,,,,,,,,,,,,,,,,,,,,,,,,,,,,,,,,sub-104,1,stroop_test,59.80525014864224,
test,red,r,1.0,3.0,0.0,1.0,r,1.0,0.5501995000522584,,,,,,,,,,,,,,,,,,1.0,0.0,3.0,0.0,,,,,,,,,166.1301852001343,,,,,,,,,,,,,,,,,166.1153623999562,166.9292210000567,167.72851889999583,167.71250599995255,167.71294529992156,167.72851889999583,167.72851889999583,168.29569489997812,r,1.0,0.5501995000522584,,,,,,,,,,,,,,,,,,,,,,,,,,,,,,,,,,,,,,,sub-104,1,stroop_test,59.80525014864224,
test,blue,b,1.0,4.0,1.0,1.0,b,1.0,0.5189118999987841,,,,,,,,,,,,,,,,,,1.0,1.0,4.0,2.0,,,,,,,,,168.31155150011182,,,,,,,,,,,,,,,,,168.29597680014558,168.66113000013866,169.4606109999586,169.44445469998757,169.44482440012507,169.4606109999586,169.4606109999586,169.99426489998586,b,1.0,0.5189118999987841,,,,,,,,,,,,,,,,,,,,,,,,,,,,,,,,,,,,,,,sub-104,1,stroop_test,59.80525014864224,
test,yellow,g,1.0,5.0,2.0,1.0,g,1.0,0.4420246998779475,,,,,,,,,,,,,,,,,,1.0,2.0,5.0,1.0,,,,,,,,,170.01008110004477,,,,,,,,,,,,,,,,,169.99451420013793,170.09345000004396,170.89298829995096,170.87708600005135,170.87768670008518,170.89298829995096,170.89298829995096,171.34394060005434,g,1.0,0.4420246998779475,,,,,,,,,,,,,,,,,,,,,,,,,,,,,,,,,,,,,,,sub-104,1,stroop_test,59.80525014864224,
test,blue,b,1.0,6.0,0.0,2.0,b,1.0,0.6222591998521239,,,,,,,,,,,,,,,,,,2.0,0.0,6.0,2.0,,,,,,,,,171.35908510000445,,,,,,,,,,,,,,,,,171.34429090004414,171.70897160004824,172.5083592000883,172.49254829995334,172.49320130003616,172.5083592000883,172.5083592000883,173.14299409999512,b,1.0,0.6222591998521239,,,,,,,,,,,,,,,,,,,,,,,,,,,,,,,,,,,,,,,sub-104,1,stroop_test,59.80525014864224,
test,yellow,g,1.0,7.0,1.0,2.0,r,0.0,0.5357760000042617,,,,,,,,,,,,,,,,,,2.0,1.0,7.0,1.0,,,,,,,,,173.15788469999097,,,,,,,,,,,,,,,,,173.1433902999852,173.5077319999691,174.30662570009008,174.29114819993265,174.291700999951,174.30662570009008,174.30662570009008,174.85716799995862,r,0.0,0.5357760000042617,,,,,,,,,,,,,,,,,,,,,,,,,,,,,,,,,,,,,,,sub-104,1,stroop_test,59.80525014864224,
test,red,r,1.0,8.0,2.0,2.0,r,1.0,0.5821388000622392,,,,,,,,,,,,,,,,,,2.0,2.0,8.0,0.0,,,,,,,,,174.87283780006692,,,,,,,,,,,,,,,,,174.85738659999333,174.97284470009618,175.77224810002372,175.75660740002058,175.75703710014932,175.77224810002372,175.77224810002372,176.35699640004896,r,1.0,0.5821388000622392,,,,,,,,,,,,,,,,,,,,,,,,,,,,,,,,,,,,,,,sub-104,1,stroop_test,59.80525014864224,
test,blue,b,1.0,9.0,0.0,3.0,b,1.0,0.4860770998056978,,,,,,,,,,,,,,,,,,3.0,0.0,9.0,2.0,,,,,,,,,176.37172199995257,,,,,,,,,,,,,,,,,176.3572251999285,176.7216793000698,177.5372540000826,177.52140039997175,177.52170810010284,177.5372540000826,177.5372540000826,178.03793570003472,b,1.0,0.4860770998056978,,,,,,,,,,,,,,,,,,,,,,,,,,,,,,,,,,,,,,,sub-104,1,stroop_test,59.80525014864224,
test,red,r,1.0,10.0,1.0,3.0,r,1.0,0.5209780998993665,,,,,,,,,,,,,,,,,,3.0,1.0,10.0,0.0,,,,,,,,,178.0533674999606,,,,,,,,,,,,,,,,,178.03814220009372,178.40330519992858,179.20297720003873,179.1866615000181,179.18711200007235,179.20297720003873,179.20297720003873,179.73690710007213,r,1.0,0.5209780998993665,,,,,,,,,,,,,,,,,,,,,,,,,,,,,,,,,,,,,,,sub-104,1,stroop_test,59.80525014864224,
test,yellow,g,1.0,11.0,2.0,3.0,g,1.0,0.4164606998674571,,,,,,,,,,,,,,,,,,3.0,2.0,11.0,1.0,,,,,,,,,179.7523254000116,,,,,,,,,,,,,,,,,179.73713660007343,179.85220400011167,180.65181219996884,180.63615930010565,180.63656589994207,180.65181219996884,180.65181219996884,181.07038479996845,g,1.0,0.4164606998674571,,,,,,,,,,,,,,,,,,,,,,,,,,,,,,,,,,,,,,,sub-104,1,stroop_test,59.80525014864224,
,,,,,,,,,,,,,,,,,,,,,,,,,,,,,,,,,,,,,,,,,,,,,,,,,,,,,,,,,,,,,,,,,,,,181.07049720012583,181.0847748001106,181.0847748001106,190.71249930001795,space,9.61615480016917,,,,,,,,,,,,,,,,,,,,,,,,,,,,,,,,sub-104,1,stroop_test,59.80525014864224,
,,,,0.0,0.0,0.0,,,,,rot,red,r,1.0,r,1.0,0.7061189999803901,,,,,,,,,,,,,,0.0,0.0,0.0,0.0,,,,,190.72643920010887,,,,,,,,,,,,,,,,,190.72148820012808,191.9258149000816,192.72524749999863,192.7101189000532,,,,,,,,,,,,,,,,192.71643509995192,192.72524749999863,192.72524749999863,193.4427255000919,r,1.0,0.7061189999803901,,193.4509227001108,193.4575648000464,194.45704769995064,194.44153570011255,,,,,,,,,,,,,,,,,,,sub-104,1,stroop_test,59.80525014864224,
,,,,1.0,1.0,0.0,,,,,rot,yellow,g,0.0,g,1.0,1.329270799877122,,,,,,,,,,,,,,0.0,1.0,1.0,3.0,,,,,194.45704769995064,,,,,,,,,,,,,,,,,194.44197060004808,195.2563750001136,196.05547749996185,196.0397568999324,,,,,,,,,,,,,,,,196.0403436999768,196.05547749996185,196.05547749996185,197.389862800017,g,1.0,1.329270799877122,,197.39034710009585,197.40453840000555,198.4034128000494,198.38800289994103,,,,,,,,,,,,,,,,,,,sub-104,1,stroop_test,59.80525014864224,
,,,,2.0,2.0,0.0,,,,,gelb,yellow,g,1.0,g,1.0,0.5291446000337601,,,,,,,,,,,,,,0.0,2.0,2.0,11.0,,,,,198.4034128000494,,,,,,,,,,,,,,,,,198.38834120007232,198.75344260013665,199.55295530008152,199.53706860006787,,,,,,,,,,,,,,,,199.5421619000845,199.55295530008152,199.55295530008152,200.08716020011343,g,1.0,0.5291446000337601,,200.08770340005867,200.1021986999549,201.101735400036,201.08625719998963,,,,,,,,,,,,,,,,,,,sub-104,1,stroop_test,59.80525014864224,
,,,,3.0,3.0,0.0,,,,,blau,red,r,0.0,r,1.0,0.6391576000023633,,,,,,,,,,,,,,0.0,3.0,3.0,4.0,,,,,201.101735400036,,,,,,,,,,,,,,,,,201.08662970014848,201.2017441999633,202.00079110008664,201.9849102001172,,,,,,,,,,,,,,,,201.98903880012224,202.00079110008664,202.00079110008664,202.65197600005197,r,1.0,0.6391576000023633,,202.6525534000248,202.66683340002783,203.66622840007767,203.6506854000036,,,,,,,,,,,,,,,,,,,sub-104,1,stroop_test,59.80525014864224,
,,,,4.0,4.0,0.0,,,,,gelb,yellow,g,1.0,g,1.0,0.5504246999043971,,,,,,,,,,,,,,0.0,4.0,4.0,10.0,,,,,203.66622840007767,,,,,,,,,,,,,,,,,203.6511611000169,203.7662114999257,204.56538660009392,204.5499277000781,,,,,,,,,,,,,,,,204.5538121000864,204.56538660009392,204.56538660009392,205.13282370008528,g,1.0,0.5504246999043971,,205.1333021000028,205.1484008999541,206.14744460000657,206.131761000026,,,,,,,,,,,,,,,,,,,sub-104,1,stroop_test,59.80525014864224,
,,,,5.0,5.0,0.0,,,,,gelb,blue,b,0.0,b,1.0,0.5724561000242829,,,,,,,,,,,,,,0.0,5.0,5.0,9.0,,,,,206.14744460000657,,,,,,,,,,,,,,,,,206.13212900003415,207.34646270005032,208.14582929993048,208.13038749992847,,,,,,,,,,,,,,,,208.13092359993607,208.14582929993048,208.14582929993048,208.73057090002112,b,1.0,0.5724561000242829,,208.73114329995587,208.74520860007036,209.7447236999869,209.72884589992464,,,,,,,,,,,,,,,,,,,sub-104,1,stroop_test,59.80525014864224,
,,,,6.0,6.0,0.0,,,,,blau,yellow,g,0.0,g,1.0,0.6456993999890983,,,,,,,,,,,,,,0.0,6.0,6.0,7.0,,,,,209.7447236999869,,,,,,,,,,,,,,,,,209.7292361999862,210.94352019997316,211.74257170013152,211.727193800034,,,,,,,,,,,,,,,,211.73071600007825,211.74257170013152,211.74257170013152,212.3940874999389,g,1.0,0.6456993999890983,,212.3945907999296,212.4088959000073,213.40796370012688,213.3923611999489,,,,,,,,,,,,,,,,,,,sub-104,1,stroop_test,59.80525014864224,
,,,,7.0,7.0,0.0,,,,,gelb,red,r,0.0,r,1.0,0.336127300048247,,,,,,,,,,,,,,0.0,7.0,7.0,8.0,,,,,213.40796370012688,,,,,,,,,,,,,,,,,213.39273119997236,213.75809859996664,214.55727470014244,214.54141189996156,,,,,,,,,,,,,,,,214.5453083999455,214.55727470014244,214.55727470014244,214.90855049993843,r,1.0,0.336127300048247,,214.90919389994812,214.92337159998715,215.92275419994257,215.9069731000345,,,,,,,,,,,,,,,,,,,sub-104,1,stroop_test,59.80525014864224,
,,,,8.0,8.0,0.0,,,,,blau,blue,b,1.0,b,1.0,0.3149246000684798,,,,,,,,,,,,,,0.0,8.0,8.0,6.0,,,,,215.92275419994257,,,,,,,,,,,,,,,,,215.9074510000646,216.72233160003088,217.521661600098,217.50585020007568,,,,,,,,,,,,,,,,217.5090441000648,217.521661600098,217.521661600098,217.8408441001084,b,1.0,0.3149246000684798,,217.8413494999986,217.85435399995183,218.8536561001092,218.83796419994903,,,,,,,,,,,,,,,,,,,sub-104,1,stroop_test,59.80525014864224,
,,,,9.0,9.0,0.0,,,,,rot,red,r,1.0,g,0.0,0.444741299841553,,,,,,,,,,,,,,0.0,9.0,9.0,1.0,,,,,218.8536561001092,,,,,,,,,,,,,,,,,218.8382208000403,219.65302149998024,220.45244120014831,220.4362170000095,,,,,,,,,,,,,,,,220.43871670006772,220.45244120014831,220.45244120014831,220.9036773000844,g,0.0,0.444741299841553,,220.90835430007428,220.91849529999308,221.9181751001161,221.9022146000061,,,,,,,,,,,,,,,,,,,sub-104,1,stroop_test,59.80525014864224,
,,,,10.0,10.0,0.0,,,,,rot,blue,b,0.0,b,1.0,0.5000067001674324,,,,,,,,,,,,,,0.0,10.0,10.0,2.0,,,,,221.9181751001161,,,,,,,,,,,,,,,,,221.902603500057,222.01812190003693,222.81688369996849,222.801548599964,,,,,,,,,,,,,,,,222.80218400014564,222.81688369996849,222.81688369996849,223.31968860002237,b,1.0,0.5000067001674324,,223.3236036000308,223.3331148000434,224.33268909994516,224.3171242000535,,,,,,,,,,,,,,,,,,,sub-104,1,stroop_test,59.80525014864224,
,,,,11.0,11.0,0.0,,,,,blau,blue,b,1.0,b,1.0,0.561542300041765,,,,,,,,,,,,,,0.0,11.0,11.0,5.0,,,,,224.33268909994516,,,,,,,,,,,,,,,,,224.31747750006616,224.6822882001288,225.4977941000834,225.481688400032,,,,,,,,,,,,,,,,225.48465869994837,225.4977941000834,225.4977941000834,226.0648914000485,b,1.0,0.561542300041765,,226.06539579993117,226.0806561000645,227.0797079000622,227.06365559995172,,,,,,,,,,,,,,,,,,,sub-104,1,stroop_test,59.80525014864224,
,,,,12.0,0.0,1.0,,,,,blau,red,r,0.0,r,1.0,0.5581539999693632,,,,,,,,,,,,,,1.0,0.0,12.0,4.0,,,,,227.0797079000622,,,,,,,,,,,,,,,,,227.0639577000402,227.18002320011144,227.9956380999647,227.9797239000909,,,,,,,,,,,,,,,,227.98013829998672,227.9956380999647,227.9956380999647,228.5627673000563,r,1.0,0.5581539999693632,,228.56308629992415,228.57855310011652,229.5775765001308,229.56167039996944,,,,,,,,,,,,,,,,,,,sub-104,1,stroop_test,59.80525014864224,
,,,,13.0,1.0,1.0,,,,,gelb,blue,b,0.0,b,1.0,0.5165046998299658,,,,,,,,,,,,,,1.0,1.0,13.0,9.0,,,,,229.5775765001308,,,,,,,,,,,,,,,,,229.56192350015044,230.7766686999239,231.57600690005347,231.5599098999519,,,,,,,,,,,,,,,,231.56301939999685,231.57600690005347,231.57600690005347,232.09360449993983,b,1.0,0.5165046998299658,,232.09407739993185,232.1089507001452,233.10809450014492,233.09190919995308,,,,,,,,,,,,,,,,,,,sub-104,1,stroop_test,59.80525014864224,
,,,,14.0,2.0,1.0,,,,,blau,blue,b,1.0,b,1.0,0.5156508998479694,,,,,,,,,,,,,,1.0,2.0,14.0,6.0,,,,,233.10809450014492,,,,,,,,,,,,,,,,,233.0920983999968,234.30729119991884,235.10663520009257,235.09083599993028,,,,,,,,,,,,,,,,235.0942403001245,235.10663520009257,235.10663520009257,235.62426279997453,b,1.0,0.5156508998479694,,235.6246267000679,235.63952419999987,236.63889760011807,236.6232614000328,,,,,,,,,,,,,,,,,,,sub-104,1,stroop_test,59.80525014864224,
,,,,15.0,3.0,1.0,,,,,rot,red,r,1.0,r,1.0,0.5698635999578983,,,,,,,,,,,,,,1.0,3.0,15.0,0.0,,,,,236.63889760011807,,,,,,,,,,,,,,,,,236.62367390003052,237.43825310003007,238.2375239001121,238.22158579993996,,,,,,,,,,,,,,,,238.2241972000338,238.2375239001121,238.2375239001121,238.8211503999773,r,1.0,0.5698635999578983,,238.82152780005708,238.8370602999348,239.8361850001384,239.82058609998785,,,,,,,,,,,,,,,,,,,sub-104,1,stroop_test,59.80525014864224,
,,,,16.0,4.0,1.0,,,,,blau,yellow,g,0.0,g,1.0,0.4037240999750793,,,,,,,,,,,,,,1.0,4.0,16.0,7.0,,,,,239.8361850001384,,,,,,,,,,,,,,,,,239.8209458999336,240.1855140000116,240.98518500011411,240.96926879999228,,,,,,,,,,,,,,,,240.9722965001129,240.98518500011411,240.98518500011411,241.4026292001363,g,1.0,0.4037240999750793,,241.40301520004869,241.4182923999615,242.41745990002528,242.40161540010013,,,,,,,,,,,,,,,,,,,sub-104,1,stroop_test,59.80525014864224,
,,,,17.0,5.0,1.0,,,,,gelb,yellow,g,1.0,g,1.0,0.3861737998668104,,,,,,,,,,,,,,1.0,5.0,17.0,11.0,,,,,242.41745990002528,,,,,,,,,,,,,,,,,242.401874500094,242.51751359994523,243.31666170014068,243.3010758999735,,,,,,,,,,,,,,,,243.30426150001583,243.31666170014068,243.31666170014068,243.71805280004628,g,1.0,0.3861737998668104,,243.7185637000948,243.7330678999424,244.7323531000875,244.7171446001157,,,,,,,,,,,,,,,,,,,sub-104,1,stroop_test,59.80525014864224,
,,,,18.0,6.0,1.0,,,,,rot,blue,b,0.0,b,1.0,0.6142304998356849,,,,,,,,,,,,,,1.0,6.0,18.0,2.0,,,,,244.7323531000875,,,,,,,,,,,,,,,,,244.7175128001254,245.93152939993888,246.73066160012968,246.715001600096,,,,,,,,,,,,,,,,246.71789949992672,246.73066160012968,246.73066160012968,247.34884959994812,b,1.0,0.6142304998356849,,247.34929260006172,247.36335020000115,248.3628136999905,248.34739940008149,,,,,,,,,,,,,,,,,,,sub-104,1,stroop_test,59.80525014864224,
,,,,19.0,7.0,1.0,,,,,rot,yellow,g,0.0,g,1.0,0.4918601000681519,,,,,,,,,,,,,,1.0,7.0,19.0,3.0,,,,,248.3628136999905,,,,,,,,,,,,,,,,,248.34778059995733,248.71287090005356,249.51195570011623,249.49651179998185,,,,,,,,,,,,,,,,249.4970543999225,249.51195570011623,249.51195570011623,250.01267069997263,g,1.0,0.4918601000681519,,250.01315900008197,250.0278866000008,251.02706340001896,251.01167919998989,,,,,,,,,,,,,,,,,,,sub-104,1,stroop_test,59.80525014864224,
,,,,20.0,8.0,1.0,,,,,gelb,yellow,g,1.0,g,1.0,0.4996176001150161,,,,,,,,,,,,,,1.0,8.0,20.0,10.0,,,,,251.02706340001896,,,,,,,,,,,,,,,,,251.012071599951,251.3769773999229,252.17631420004184,252.1602686000988,,,,,,,,,,,,,,,,252.1637995999772,252.17631420004184,252.17631420004184,252.67775680008344,g,1.0,0.4996176001150161,,252.67819990008135,252.69228580011983,253.69160540006123,253.67627079994415,,,,,,,,,,,,,,,,,,,sub-104,1,stroop_test,59.80525014864224,
,,,,21.0,9.0,1.0,,,,,gelb,red,r,0.0,r,1.0,0.6064901000354439,,,,,,,,,,,,,,1.0,9.0,21.0,8.0,,,,,253.69160540006123,,,,,,,,,,,,,,,,,253.6767233000137,254.89077639998868,255.69007340003736,255.67442640010267,,,,,,,,,,,,,,,,255.67519420012832,255.69007340003736,255.69007340003736,256.3078753000591,r,1.0,0.6064901000354439,,256.30843969993293,256.322657099925,257.3224520001095,257.3066032000352,,,,,,,,,,,,,,,,,,,sub-104,1,stroop_test,59.80525014864224,
,,,,22.0,10.0,1.0,,,,,blau,blue,b,1.0,b,1.0,0.4949481999501586,,,,,,,,,,,,,,1.0,10.0,22.0,5.0,,,,,257.3224520001095,,,,,,,,,,,,,,,,,257.3069583000615,257.67152590001933,258.47109799995087,258.4554159999825,,,,,,,,,,,,,,,,258.45915140002035,258.47109799995087,258.47109799995087,258.971707199933,b,1.0,0.4949481999501586,,258.972162200138,258.98716010013595,259.986719599925,259.97086500003934,,,,,,,,,,,,,,,,,,,sub-104,1,stroop_test,59.80525014864224,
,,,,23.0,11.0,1.0,,,,,rot,red,r,1.0,r,1.0,0.480574700050056,,,,,,,,,,,,,,1.0,11.0,23.0,1.0,,,,,259.986719599925,,,,,,,,,,,,,,,,,259.97127720015123,260.3361699001398,261.1354455000255,261.1197174000554,,,,,,,,,,,,,,,,261.1239354000427,261.1354455000255,261.1354455000255,261.6203324000817,r,1.0,0.480574700050056,,261.6208506000694,261.6348995999433,262.63445120002143,262.6185034001246,,,,,,,,,,,,,,,,,,,sub-104,1,stroop_test,59.80525014864224,
,,,,,,,,,,,,,,,,,,,,,,,,,,,,,,,,,,,,,,,,,,,,,,,,,,,,,,,,,,,,,,,,,,,,,,,,,,,,,,,,,,,,,,,262.6186605000403,262.63445120002143,262.63445120002143,293.97640429995954,space,31.328114399919286,,,,,,,,,,,,,sub-104,1,stroop_test,59.80525014864224,
,,,,0.0,0.0,0.0,,,,,,,,,,,,,gelb,yellow,g,1.0,g,1.0,0.527561099966988,,,,,,,,,,0.0,0.0,0.0,10.0,293.99155190004967,,,,,,,,,,,,,,,,,293.9834422999993,295.1907941000536,295.9905453999527,295.97483770013787,,,,,,,,,,,,,,,,,,,,,,,,,,,,,,,,,,,295.979336099932,295.9905453999527,295.9905453999527,296.52453049994074,g,1.0,0.527561099966988,,,,,sub-104,1,stroop_test,59.80525014864224,
,,,,1.0,1.0,0.0,,,,,,,,,,,,,rot,red,r,1.0,r,1.0,0.5335044001694769,,,,,,,,,,0.0,1.0,1.0,1.0,296.5398216000758,,,,,,,,,,,,,,,,,296.5249519001227,297.3394073001109,298.1551189001184,298.13944589998573,,,,,,,,,,,,,,,,,,,,,,,,,,,,,,,,,,,298.14345819992013,298.1551189001184,298.1551189001184,298.6908933001105,r,1.0,0.5335044001694769,,,,,sub-104,1,stroop_test,59.80525014864224,
,,,,2.0,2.0,0.0,,,,,,,,,,,,,blau,blue,b,1.0,b,1.0,0.4836999999824911,,,,,,,,,,0.0,2.0,2.0,5.0,298.7045581000857,,,,,,,,,,,,,,,,,298.69132960005663,299.90365280001424,300.70289309998043,300.68752239993773,,,,,,,,,,,,,,,,,,,,,,,,,,,,,,,,,,,300.6912867999636,300.70289309998043,300.70289309998043,301.2036642001476,b,1.0,0.4836999999824911,,,,,sub-104,1,stroop_test,59.80525014864224,
,,,,3.0,3.0,0.0,,,,,,,,,,,,,rot,red,r,1.0,r,1.0,0.4089118998963386,,,,,,,,,,0.0,3.0,3.0,0.0,301.2193299999926,,,,,,,,,,,,,,,,,301.20413420000114,301.5688348999247,302.36837700009346,302.3529096001293,,,,,,,,,,,,,,,,,,,,,,,,,,,,,,,,,,,302.35648520011455,302.36837700009346,302.36837700009346,302.7860153000802,r,1.0,0.4089118998963386,,,,,sub-104,1,stroop_test,59.80525014864224,
,,,,4.0,4.0,0.0,,,,,,,,,,,,,blau,blue,b,1.0,b,1.0,0.4959674999117851,,,,,,,,,,0.0,4.0,4.0,6.0,302.80100520001724,,,,,,,,,,,,,,,,,302.78634370001964,302.901039800141,303.700413600076,303.6848587000277,,,,,,,,,,,,,,,,,,,,,,,,,,,,,,,,,,,303.6882877000608,303.700413600076,303.700413600076,304.2015541000292,b,1.0,0.4959674999117851,,,,,sub-104,1,stroop_test,59.80525014864224,
,,,,5.0,5.0,0.0,,,,,,,,,,,,,blau,red,r,0.0,r,1.0,0.8241858999244869,,,,,,,,,,0.0,5.0,5.0,4.0,304.2167853000574,,,,,,,,,,,,,,,,,304.20197950000875,304.31666050013155,305.11572100012563,305.1008860000875,,,,,,,,,,,,,,,,,,,,,,,,,,,,,,,,,,,305.1014862000011,305.11572100012563,305.11572100012563,305.9500565000344,r,1.0,0.8241858999244869,,,,,sub-104,1,stroop_test,59.80525014864224,
,,,,6.0,6.0,0.0,,,,,,,,,,,,,rot,blue,b,0.0,b,1.0,1.0454512999858707,,,,,,,,,,0.0,6.0,6.0,2.0,305.9650638999883,,,,,,,,,,,,,,,,,305.9504100000486,306.7645068001002,307.5638028001413,307.54819589992985,,,,,,,,,,,,,,,,,,,,,,,,,,,,,,,,,,,307.55172080011107,307.5638028001413,307.5638028001413,308.6145192999393,b,1.0,1.0454512999858707,,,,,sub-104,1,stroop_test,59.80525014864224,
,,,,7.0,7.0,0.0,,,,,,,,,,,,,gelb,blue,b,0.0,b,1.0,0.4839246999472379,,,,,,,,,,0.0,7.0,7.0,9.0,308.6297983000986,,,,,,,,,,,,,,,,,308.6148821001407,308.7299522999674,309.5292632000055,309.5135814000387,,,,,,,,,,,,,,,,,,,,,,,,,,,,,,,,,,,309.5178263001144,309.5292632000055,309.5292632000055,310.03001009998843,b,1.0,0.4839246999472379,,,,,sub-104,1,stroop_test,59.80525014864224,
,,,,8.0,8.0,0.0,,,,,,,,,,,,,rot,yellow,g,0.0,g,1.0,0.3388342999387532,,,,,,,,,,0.0,8.0,8.0,3.0,310.04527959995903,,,,,,,,,,,,,,,,,310.03041830006987,311.24408280011266,312.0434948001057,312.0281843000557,,,,,,,,,,,,,,,,,,,,,,,,,,,,,,,,,,,312.0318635001313,312.0434948001057,312.0434948001057,312.3953959001228,g,1.0,0.3388342999387532,,,,,sub-104,1,stroop_test,59.80525014864224,
,,,,9.0,9.0,0.0,,,,,,,,,,,,,gelb,yellow,g,1.0,g,1.0,0.5037077001761645,,,,,,,,,,0.0,9.0,9.0,11.0,312.41034760000184,,,,,,,,,,,,,,,,,312.3958544000052,312.7600000000093,313.5589153999463,313.5433747000061,,,,,,,,,,,,,,,,,,,,,,,,,,,,,,,,,,,313.54936120007187,313.5589153999463,313.5589153999463,314.07706929999404,g,1.0,0.5037077001761645,,,,,sub-104,1,stroop_test,59.80525014864224,
,,,,10.0,10.0,0.0,,,,,,,,,,,,,gelb,red,r,0.0,r,1.0,0.4329166999086737,,,,,,,,,,0.0,10.0,10.0,8.0,314.0917380999308,,,,,,,,,,,,,,,,,314.077563600149,314.19187780003995,314.9912980000954,314.97548820008524,,,,,,,,,,,,,,,,,,,,,,,,,,,,,,,,,,,314.9760148001369,314.9912980000954,314.9912980000954,315.4258175999857,r,1.0,0.4329166999086737,,,,,sub-104,1,stroop_test,59.80525014864224,
,,,,11.0,11.0,0.0,,,,,,,,,,,,,blau,yellow,g,0.0,g,1.0,0.4141405001282692,,,,,,,,,,0.0,11.0,11.0,7.0,315.4404941999819,,,,,,,,,,,,,,,,,315.4261372999754,316.6399286000524,317.4392792999279,317.4236995000392,,,,,,,,,,,,,,,,,,,,,,,,,,,,,,,,,,,317.4274120000191,317.4392792999279,317.4392792999279,317.8571818000637,g,1.0,0.4141405001282692,,,,,sub-104,1,stroop_test,59.80525014864224,
,,,,12.0,0.0,1.0,,,,,,,,,,,,,blau,yellow,g,0.0,g,1.0,0.5032136000227183,,,,,,,,,,1.0,0.0,12.0,7.0,317.8720176999923,,,,,,,,,,,,,,,,,317.8575389001053,318.2217844000552,319.02128240000457,319.0053262000438,,,,,,,,,,,,,,,,,,,,,,,,,,,,,,,,,,,319.0059207000304,319.02128240000457,319.02128240000457,319.53907840000466,g,1.0,0.5032136000227183,,,,,sub-104,1,stroop_test,59.80525014864224,
,,,,13.0,1.0,1.0,,,,,,,,,,,,,gelb,red,r,0.0,r,1.0,0.3716404000297189,,,,,,,,,,1.0,1.0,13.0,8.0,319.5539778000675,,,,,,,,,,,,,,,,,319.53953330009244,319.90388819994405,320.703373500146,320.6877316001337,,,,,,,,,,,,,,,,,,,,,,,,,,,,,,,,,,,320.6917960999999,320.703373500146,320.703373500146,321.0880307999905,r,1.0,0.3716404000297189,,,,,sub-104,1,stroop_test,59.80525014864224,
,,,,14.0,2.0,1.0,,,,,,,,,,,,,blau,red,r,0.0,r,1.0,0.3990642998833209,,,,,,,,,,1.0,2.0,14.0,4.0,321.10278260009363,,,,,,,,,,,,,,,,,321.0884762001224,322.3017311000731,323.1013132999651,323.0854746000841,,,,,,,,,,,,,,,,,,,,,,,,,,,,,,,,,,,323.08885239996016,323.1013132999651,323.1013132999651,323.50261329999194,r,1.0,0.3990642998833209,,,,,sub-104,1,stroop_test,59.80525014864224,
,,,,15.0,3.0,1.0,,,,,,,,,,,,,rot,blue,b,0.0,b,1.0,0.4295340999960899,,,,,,,,,,1.0,3.0,15.0,2.0,323.51720719994046,,,,,,,,,,,,,,,,,323.5030004000291,323.86701350007206,324.6664684000425,324.6510050999932,,,,,,,,,,,,,,,,,,,,,,,,,,,,,,,,,,,324.65392960002646,324.6664684000425,324.6664684000425,325.1015256999526,b,1.0,0.4295340999960899,,,,,sub-104,1,stroop_test,59.80525014864224,
,,,,16.0,4.0,1.0,,,,,,,,,,,,,gelb,blue,b,0.0,b,1.0,0.50009880005382,,,,,,,,,,1.0,4.0,16.0,9.0,325.1162264000159,,,,,,,,,,,,,,,,,325.1019961999264,325.2165288000833,326.0319763000589,326.0165611000266,,,,,,,,,,,,,,,,,,,,,,,,,,,,,,,,,,,326.01999659999274,326.0319763000589,326.0319763000589,326.53367880010046,b,1.0,0.50009880005382,,,,,sub-104,1,stroop_test,59.80525014864224,
,,,,17.0,5.0,1.0,,,,,,,,,,,,,rot,red,r,1.0,r,1.0,0.4727648999541998,,,,,,,,,,1.0,5.0,17.0,1.0,326.54820060008205,,,,,,,,,,,,,,,,,326.53400789992884,327.74735260009766,328.546793699963,328.53114999993704,,,,,,,,,,,,,,,,,,,,,,,,,,,,,,,,,,,328.53505580010824,328.546793699963,328.546793699963,329.03141440008767,r,1.0,0.4727648999541998,,,,,sub-104,1,stroop_test,59.80525014864224,
,,,,18.0,6.0,1.0,,,,,,,,,,,,,rot,red,r,1.0,r,1.0,0.4175929999910295,,,,,,,,,,1.0,6.0,18.0,0.0,329.0463924999349,,,,,,,,,,,,,,,,,329.0318227999378,329.84558530012146,330.64511739998125,330.6295036000665,,,,,,,,,,,,,,,,,,,,,,,,,,,,,,,,,,,330.63016659999266,330.64511739998125,330.64511739998125,331.07938210014254,r,1.0,0.4175929999910295,,,,,sub-104,1,stroop_test,59.80525014864224,
,,,,19.0,7.0,1.0,,,,,,,,,,,,,gelb,yellow,g,1.0,g,1.0,0.3351822001859545,,,,,,,,,,1.0,7.0,19.0,11.0,331.09480630001053,,,,,,,,,,,,,,,,,331.07978000002913,331.19452120014466,331.99381839996204,331.9782787000295,,,,,,,,,,,,,,,,,,,,,,,,,,,,,,,,,,,331.9813505001366,331.99381839996204,331.99381839996204,332.34529269998893,g,1.0,0.3351822001859545,,,,,sub-104,1,stroop_test,59.80525014864224,
,,,,20.0,8.0,1.0,,,,,,,,,,,,,blau,blue,b,1.0,b,1.0,0.4649702999740839,,,,,,,,,,1.0,8.0,20.0,6.0,332.3602324000094,,,,,,,,,,,,,,,,,332.34566650004126,332.46015090006404,333.25952690001577,333.2438250000123,,,,,,,,,,,,,,,,,,,,,,,,,,,,,,,,,,,333.2473524999805,333.25952690001577,333.25952690001577,333.728357499931,b,1.0,0.4649702999740839,,,,,sub-104,1,stroop_test,59.80525014864224,
,,,,21.0,9.0,1.0,,,,,,,,,,,,,gelb,yellow,g,1.0,g,1.0,0.5538840000517666,,,,,,,,,,1.0,9.0,21.0,10.0,333.7422130999621,,,,,,,,,,,,,,,,,333.7287942999974,333.84242550004274,334.6582603999413,334.64267350011505,,,,,,,,,,,,,,,,,,,,,,,,,,,,,,,,,,,334.6462451000698,334.6582603999413,334.6582603999413,335.2261612000875,g,1.0,0.5538840000517666,,,,,sub-104,1,stroop_test,59.80525014864224,
,,,,22.0,10.0,1.0,,,,,,,,,,,,,blau,blue,b,1.0,b,1.0,0.5280770000535995,,,,,,,,,,1.0,10.0,22.0,5.0,335.24118350003846,,,,,,,,,,,,,,,,,335.2265254999511,335.3409591000527,336.1403564000502,336.12490539997816,,,,,,,,,,,,,,,,,,,,,,,,,,,,,,,,,,,336.1284026999492,336.1403564000502,336.1403564000502,336.6750837001018,b,1.0,0.5280770000535995,,,,,sub-104,1,stroop_test,59.80525014864224,
,,,,23.0,11.0,1.0,,,,,,,,,,,,,rot,yellow,g,0.0,g,1.0,0.5258108999114484,,,,,,,,,,1.0,11.0,23.0,3.0,336.6899707999546,,,,,,,,,,,,,,,,,336.67550919996575,337.88911580014974,338.6883922000416,338.6727112999652,,,,,,,,,,,,,,,,,,,,,,,,,,,,,,,,,,,338.6757996000815,338.6883922000416,338.6883922000416,339.22275239997543,g,1.0,0.5258108999114484,,,,,sub-104,1,stroop_test,59.80525014864224,
,,,,24.0,0.0,2.0,,,,,,,,,,,,,blau,blue,b,1.0,b,1.0,0.5161168999038637,,,,,,,,,,2.0,0.0,24.0,5.0,339.23792099999264,,,,,,,,,,,,,,,,,339.2231050000992,340.0375981000252,340.83696789992973,340.82093379995786,,,,,,,,,,,,,,,,,,,,,,,,,,,,,,,,,,,340.82453169999644,340.83696789992973,340.83696789992973,341.35522960009985,b,1.0,0.5161168999038637,,,,,sub-104,1,stroop_test,59.80525014864224,
,,,,25.0,1.0,2.0,,,,,,,,,,,,,rot,red,r,1.0,r,1.0,0.6517313001677394,,,,,,,,,,2.0,1.0,25.0,1.0,341.36925849993713,,,,,,,,,,,,,,,,,341.3555888999253,342.1687185000628,342.9681729001459,342.9523475000169,,,,,,,,,,,,,,,,,,,,,,,,,,,,,,,,,,,342.95607360010035,342.9681729001459,342.9681729001459,343.6361881000921,r,1.0,0.6517313001677394,,,,,sub-104,1,stroop_test,59.80525014864224,
,,,,26.0,2.0,2.0,,,,,,,,,,,,,gelb,yellow,g,1.0,g,1.0,0.409808199852705,,,,,,,,,,2.0,2.0,26.0,11.0,343.65096230013296,,,,,,,,,,,,,,,,,343.6365718001034,344.8499613001477,345.64963090000674,345.63363329996355,,,,,,,,,,,,,,,,,,,,,,,,,,,,,,,,,,,345.6378327999264,345.64963090000674,345.64963090000674,346.0669291000813,g,1.0,0.409808199852705,,,,,sub-104,1,stroop_test,59.80525014864224,
,,,,27.0,3.0,2.0,,,,,,,,,,,,,rot,blue,b,0.0,b,1.0,0.360126500017941,,,,,,,,,,2.0,3.0,27.0,2.0,346.0823252000846,,,,,,,,,,,,,,,,,346.0672887000256,346.4318492000457,347.2313657000195,347.21569130010903,,,,,,,,,,,,,,,,,,,,,,,,,,,,,,,,,,,347.2192119001411,347.2313657000195,347.2313657000195,347.59897590009496,b,1.0,0.360126500017941,,,,,sub-104,1,stroop_test,59.80525014864224,
,,,,28.0,4.0,2.0,,,,,,,,,,,,,blau,yellow,g,0.0,g,1.0,0.613393499981612,,,,,,,,,,2.0,4.0,28.0,7.0,347.6140654999763,,,,,,,,,,,,,,,,,347.5992914000526,347.96386820008047,348.76341670006514,348.74784730002284,,,,,,,,,,,,,,,,,,,,,,,,,,,,,,,,,,,348.7511772001162,348.76341670006514,348.76341670006514,349.3801086000167,g,1.0,0.613393499981612,,,,,sub-104,1,stroop_test,59.80525014864224,
,,,,29.0,5.0,2.0,,,,,,,,,,,,,blau,blue,b,1.0,b,1.0,0.5111815000418574,,,,,,,,,,2.0,5.0,29.0,6.0,349.39594430010766,,,,,,,,,,,,,,,,,349.3804391000885,349.7294511999935,350.5285005001351,350.51274839998223,,,,,,,,,,,,,,,,,,,,,,,,,,,,,,,,,,,350.5132462999318,350.5285005001351,350.5285005001351,351.04642669996247,b,1.0,0.5111815000418574,,,,,sub-104,1,stroop_test,59.80525014864224,
,,,,30.0,6.0,2.0,,,,,,,,,,,,,gelb,yellow,g,1.0,g,1.0,0.4971368000842631,,,,,,,,,,2.0,6.0,30.0,10.0,351.061288200086,,,,,,,,,,,,,,,,,351.04685489996336,351.4114316999912,352.21050629997626,352.195110199973,,,,,,,,,,,,,,,,,,,,,,,,,,,,,,,,,,,352.19880210002884,352.21050629997626,352.21050629997626,352.7119166001212,g,1.0,0.4971368000842631,,,,,sub-104,1,stroop_test,59.80525014864224,
,,,,31.0,7.0,2.0,,,,,,,,,,,,,gelb,blue,b,0.0,b,1.0,0.4931176998652518,,,,,,,,,,2.0,7.0,31.0,9.0,352.72678050003015,,,,,,,,,,,,,,,,,352.7123855999671,353.0766771999188,353.8758111000061,353.8605941999704,,,,,,,,,,,,,,,,,,,,,,,,,,,,,,,,,,,353.8612188999541,353.8758111000061,353.8758111000061,354.3768488999922,b,1.0,0.4931176998652518,,,,,sub-104,1,stroop_test,59.80525014864224,
,,,,32.0,8.0,2.0,,,,,,,,,,,,,blau,red,r,0.0,r,1.0,0.5068253001663834,,,,,,,,,,2.0,8.0,32.0,4.0,354.3921513000969,,,,,,,,,,,,,,,,,354.3772406000644,354.49189659999683,355.29121679998934,355.2757566999644,,,,,,,,,,,,,,,,,,,,,,,,,,,,,,,,,,,355.2793376999907,355.29121679998934,355.29121679998934,355.8088481000159,r,1.0,0.5068253001663834,,,,,sub-104,1,stroop_test,59.80525014864224,
,,,,33.0,9.0,2.0,,,,,,,,,,,,,rot,red,r,1.0,r,1.0,0.7265394998248667,,,,,,,,,,2.0,9.0,33.0,0.0,355.8240243999753,,,,,,,,,,,,,,,,,355.8092640999239,356.62382530001923,357.43954039993696,357.4239664999768,,,,,,,,,,,,,,,,,,,,,,,,,,,,,,,,,,,357.42671960010193,357.43954039993696,357.43954039993696,358.1740460000001,r,1.0,0.7265394998248667,,,,,sub-104,1,stroop_test,59.80525014864224,
,,,,34.0,10.0,2.0,,,,,,,,,,,,,rot,yellow,g,0.0,g,1.0,0.543559999903664,,,,,,,,,,2.0,10.0,34.0,3.0,358.1889750000555,,,,,,,,,,,,,,,,,358.1744357000571,359.3880308000371,360.1872499000747,360.1715063001029,,,,,,,,,,,,,,,,,,,,,,,,,,,,,,,,,,,360.1720503999386,360.1872499000747,360.1872499000747,360.738512000069,g,1.0,0.543559999903664,,,,,sub-104,1,stroop_test,59.80525014864224,
,,,,35.0,11.0,2.0,,,,,,,,,,,,,gelb,red,r,0.0,r,1.0,0.6296063999179751,,,,,,,,,,2.0,11.0,35.0,8.0,360.75329970009625,,,,,,,,,,,,,,,,,360.7388311999384,361.1032150001265,361.9029421999585,361.8872581999749,,,,,,,,,,,,,,,,,,,,,,,,,,,,,,,,,,,361.8916440999601,361.9029421999585,361.9029421999585,362.5371719999239,r,1.0,0.6296063999179751,,,,,sub-104,1,stroop_test,59.80525014864224,
,,,,36.0,0.0,3.0,,,,,,,,,,,,,gelb,red,r,0.0,r,1.0,0.6579517000354826,,,,,,,,,,3.0,0.0,36.0,8.0,362.5521379001439,,,,,,,,,,,,,,,,,362.5376365999691,362.65212920005433,363.4512205000501,363.43595580011606,,,,,,,,,,,,,,,,,,,,,,,,,,,,,,,,,,,363.4366079000756,363.4512205000501,363.4512205000501,364.1193452000152,r,1.0,0.6579517000354826,,,,,sub-104,1,stroop_test,59.80525014864224,
,,,,37.0,1.0,3.0,,,,,,,,,,,,,blau,blue,b,1.0,b,1.0,0.3976342000532895,,,,,,,,,,3.0,1.0,37.0,6.0,364.1341258001048,,,,,,,,,,,,,,,,,364.1197995999828,364.48373320000246,365.2832379001193,365.2675970001146,,,,,,,,,,,,,,,,,,,,,,,,,,,,,,,,,,,365.2711789000314,365.2832379001193,365.2832379001193,365.6841130000539,b,1.0,0.3976342000532895,,,,,sub-104,1,stroop_test,59.80525014864224,
,,,,38.0,2.0,3.0,,,,,,,,,,,,,rot,red,r,1.0,r,1.0,0.4777139001525938,,,,,,,,,,3.0,2.0,38.0,0.0,365.6993444000837,,,,,,,,,,,,,,,,,365.6844347999431,366.0490973999258,366.8484604000114,366.8327359000687,,,,,,,,,,,,,,,,,,,,,,,,,,,,,,,,,,,366.83551120013,366.8484604000114,366.8484604000114,367.33279410004616,r,1.0,0.4777139001525938,,,,,sub-104,1,stroop_test,59.80525014864224,
,,,,39.0,3.0,3.0,,,,,,,,,,,,,gelb,blue,b,0.0,b,1.0,0.7892269999720156,,,,,,,,,,3.0,3.0,39.0,9.0,367.3479913000483,,,,,,,,,,,,,,,,,367.3331190999597,368.5472921000328,369.3465621001087,369.330891800113,,,,,,,,,,,,,,,,,,,,,,,,,,,,,,,,,,,369.33545379992574,369.3465621001087,369.3465621001087,370.147409300087,b,1.0,0.7892269999720156,,,,,sub-104,1,stroop_test,59.80525014864224,
,,,,40.0,4.0,3.0,,,,,,,,,,,,,gelb,yellow,g,1.0,g,1.0,0.3464271000120789,,,,,,,,,,3.0,4.0,40.0,10.0,370.1623009999748,,,,,,,,,,,,,,,,,370.1477807001211,371.3614240000024,372.160802599974,372.14513550000265,,,,,,,,,,,,,,,,,,,,,,,,,,,,,,,,,,,372.1457148999907,372.160802599974,372.160802599974,372.5120735000819,g,1.0,0.3464271000120789,,,,,sub-104,1,stroop_test,59.80525014864224,
,,,,41.0,5.0,3.0,,,,,,,,,,,,,blau,blue,b,1.0,b,1.0,0.7359183998778462,,,,,,,,,,3.0,5.0,41.0,5.0,372.5271729999222,,,,,,,,,,,,,,,,,372.51241949992254,372.6268738999497,373.42678890004754,373.41063560009934,,,,,,,,,,,,,,,,,,,,,,,,,,,,,,,,,,,373.41387400007807,373.42678890004754,373.42678890004754,374.1773169001099,b,1.0,0.7359183998778462,,,,,sub-104,1,stroop_test,59.80525014864224,
,,,,42.0,6.0,3.0,,,,,,,,,,,,,rot,yellow,g,0.0,g,1.0,0.6997618000023067,,,,,,,,,,3.0,6.0,42.0,3.0,374.19228870002553,,,,,,,,,,,,,,,,,374.1777137001045,374.2922165999189,375.0916830000933,375.076012799982,,,,,,,,,,,,,,,,,,,,,,,,,,,,,,,,,,,375.0790027999319,375.0916830000933,375.0916830000933,375.7939720000141,g,1.0,0.6997618000023067,,,,,sub-104,1,stroop_test,59.80525014864224,
,,,,43.0,7.0,3.0,,,,,,,,,,,,,rot,blue,b,0.0,b,1.0,0.6088769000489265,,,,,,,,,,3.0,7.0,43.0,2.0,375.80760530009866,,,,,,,,,,,,,,,,,375.7943858001381,376.607469700044,377.4233729999978,377.4076148001477,,,,,,,,,,,,,,,,,,,,,,,,,,,,,,,,,,,377.4081759001128,377.4233729999978,377.4233729999978,378.0415288000368,b,1.0,0.6088769000489265,,,,,sub-104,1,stroop_test,59.80525014864224,
,,,,44.0,8.0,3.0,,,,,,,,,,,,,blau,red,r,0.0,r,1.0,0.4970460999757051,,,,,,,,,,3.0,8.0,44.0,4.0,378.0557743001264,,,,,,,,,,,,,,,,,378.0419718001504,378.4056917999405,379.20519359991886,379.1893601000775,,,,,,,,,,,,,,,,,,,,,,,,,,,,,,,,,,,379.1937136000488,379.20519359991886,379.20519359991886,379.7060972999316,r,1.0,0.4970460999757051,,,,,sub-104,1,stroop_test,59.80525014864224,
,,,,45.0,9.0,3.0,,,,,,,,,,,,,blau,yellow,g,0.0,g,1.0,0.5139740000013262,,,,,,,,,,3.0,9.0,45.0,7.0,379.7211054000072,,,,,,,,,,,,,,,,,379.7065258000512,379.82148130005226,380.620447800029,380.6048783001024,,,,,,,,,,,,,,,,,,,,,,,,,,,,,,,,,,,380.605352899991,380.620447800029,380.620447800029,381.1387984000612,g,1.0,0.5139740000013262,,,,,sub-104,1,stroop_test,59.80525014864224,
,,,,46.0,10.0,3.0,,,,,,,,,,,,,rot,red,r,1.0,r,1.0,0.5376186000648886,,,,,,,,,,3.0,10.0,46.0,1.0,381.15344500006177,,,,,,,,,,,,,,,,,381.1392534000333,382.3522364001256,383.15170800010674,383.1360603000503,,,,,,,,,,,,,,,,,,,,,,,,,,,,,,,,,,,383.1389870999847,383.15170800010674,383.15170800010674,383.70306330011226,r,1.0,0.5376186000648886,,,,,sub-104,1,stroop_test,59.80525014864224,
,,,,47.0,11.0,3.0,,,,,,,,,,,,,gelb,yellow,g,1.0,g,1.0,0.5435446000192314,,,,,,,,,,3.0,11.0,47.0,11.0,383.717785899993,,,,,,,,,,,,,,,,,383.70342419995,383.8179411001038,384.6171149001457,384.6019528999459,,,,,,,,,,,,,,,,,,,,,,,,,,,,,,,,,,,384.6056705999654,384.6171149001457,384.6171149001457,385.1686132999602,g,1.0,0.5435446000192314,,,,,sub-104,1,stroop_test,59.80525014864224,
,,,,48.0,0.0,4.0,,,,,,,,,,,,,rot,yellow,g,0.0,g,1.0,0.8502271999605,,,,,,,,,,4.0,0.0,48.0,3.0,385.1834915999789,,,,,,,,,,,,,,,,,385.1690891000908,385.9831069000065,386.7987808000762,386.78323150007054,,,,,,,,,,,,,,,,,,,,,,,,,,,,,,,,,,,386.7865254001226,386.7987808000762,386.7987808000762,387.6658777999692,g,1.0,0.8502271999605,,,,,sub-104,1,stroop_test,59.80525014864224,
,,,,49.0,1.0,4.0,,,,,,,,,,,,,gelb,blue,b,0.0,b,1.0,0.3976219999603927,,,,,,,,,,4.0,1.0,49.0,9.0,387.6812245999463,,,,,,,,,,,,,,,,,387.6662884999532,388.0312280000653,388.830526500009,388.8148060000967,,,,,,,,,,,,,,,,,,,,,,,,,,,,,,,,,,,388.8188090000767,388.830526500009,388.830526500009,389.2322370000184,b,1.0,0.3976219999603927,,,,,sub-104,1,stroop_test,59.80525014864224,
,,,,50.0,2.0,4.0,,,,,,,,,,,,,gelb,red,r,0.0,r,1.0,0.4224084001034498,,,,,,,,,,4.0,2.0,50.0,8.0,389.2466842001304,,,,,,,,,,,,,,,,,389.2326349001378,389.5966646999586,390.3957410999574,390.3802602000069,,,,,,,,,,,,,,,,,,,,,,,,,,,,,,,,,,,390.3809197000228,390.3957410999574,390.3957410999574,390.8304761999752,r,1.0,0.4224084001034498,,,,,sub-104,1,stroop_test,59.80525014864224,
,,,,51.0,3.0,4.0,,,,,,,,,,,,,rot,blue,b,0.0,b,1.0,0.5436817998997867,,,,,,,,,,4.0,3.0,51.0,2.0,390.84527670009993,,,,,,,,,,,,,,,,,390.8309800000861,391.1949126999825,391.9943564001005,391.9792156999465,,,,,,,,,,,,,,,,,,,,,,,,,,,,,,,,,,,391.982373900013,391.9943564001005,391.9943564001005,392.5452638999559,b,1.0,0.5436817998997867,,,,,sub-104,1,stroop_test,59.80525014864224,
,,,,52.0,4.0,4.0,,,,,,,,,,,,,blau,red,r,0.0,r,1.0,0.5602476999629289,,,,,,,,,,4.0,4.0,52.0,4.0,392.5606150000822,,,,,,,,,,,,,,,,,392.5456554000266,392.6606119000353,393.4602413000539,393.4446149000432,,,,,,,,,,,,,,,,,,,,,,,,,,,,,,,,,,,393.4480024999939,393.4602413000539,393.4602413000539,394.0277460999787,r,1.0,0.5602476999629289,,,,,sub-104,1,stroop_test,59.80525014864224,
,,,,53.0,5.0,4.0,,,,,,,,,,,,,rot,red,r,1.0,r,1.0,0.5039373999461532,,,,,,,,,,4.0,5.0,53.0,0.0,394.0426493999548,,,,,,,,,,,,,,,,,394.0282149000559,394.3925036001019,395.1916296000127,395.1761422001291,,,,,,,,,,,,,,,,,,,,,,,,,,,,,,,,,,,395.1802791999653,395.1916296000127,395.1916296000127,395.7097483000253,r,1.0,0.5039373999461532,,,,,sub-104,1,stroop_test,59.80525014864224,
,,,,54.0,6.0,4.0,,,,,,,,,,,,,gelb,yellow,g,1.0,g,1.0,0.4338402000721544,,,,,,,,,,4.0,6.0,54.0,11.0,395.7246358001139,,,,,,,,,,,,,,,,,395.7101346999407,396.9237168999389,397.7229289999232,397.7076538000256,,,,,,,,,,,,,,,,,,,,,,,,,,,,,,,,,,,397.7114381000865,397.7229289999232,397.7229289999232,398.173933000071,g,1.0,0.4338402000721544,,,,,sub-104,1,stroop_test,59.80525014864224,
,,,,55.0,7.0,4.0,,,,,,,,,,,,,blau,blue,b,1.0,b,1.0,0.460519699845463,,,,,,,,,,4.0,7.0,55.0,6.0,398.1893536001444,,,,,,,,,,,,,,,,,398.17433540010825,398.5390439999756,399.3384788001422,399.322857900057,,,,,,,,,,,,,,,,,,,,,,,,,,,,,,,,,,,399.3260407999624,399.3384788001422,399.3384788001422,399.8062384999357,b,1.0,0.460519699845463,,,,,sub-104,1,stroop_test,59.80525014864224,
,,,,56.0,8.0,4.0,,,,,,,,,,,,,blau,yellow,g,0.0,g,1.0,0.5953552001155913,,,,,,,,,,4.0,8.0,56.0,7.0,399.82118199998513,,,,,,,,,,,,,,,,,399.80669540003873,400.1710916000884,400.9706471001264,400.9548673001118,,,,,,,,,,,,,,,,,,,,,,,,,,,,,,,,,,,400.9554825001396,400.9706471001264,400.9706471001264,401.5715262999293,g,1.0,0.5953552001155913,,,,,sub-104,1,stroop_test,59.80525014864224,
,,,,57.0,9.0,4.0,,,,,,,,,,,,,gelb,yellow,g,1.0,g,1.0,0.3993289000354707,,,,,,,,,,4.0,9.0,57.0,10.0,401.5867499001324,,,,,,,,,,,,,,,,,401.5718682000879,402.3857539999299,403.1853781000245,403.1694738999941,,,,,,,,,,,,,,,,,,,,,,,,,,,,,,,,,,,403.1737297000364,403.1853781000245,403.1853781000245,403.58742740005255,g,1.0,0.3993289000354707,,,,,sub-104,1,stroop_test,59.80525014864224,
,,,,58.0,10.0,4.0,,,,,,,,,,,,,blau,blue,b,1.0,b,1.0,0.47688760003075,,,,,,,,,,4.0,10.0,58.0,5.0,403.60143920010887,,,,,,,,,,,,,,,,,403.5879408000037,404.4013082999736,405.2170246001333,405.201170100132,,,,,,,,,,,,,,,,,,,,,,,,,,,,,,,,,,,405.20433570002206,405.2170246001333,405.2170246001333,405.7015710999258,b,1.0,0.47688760003075,,,,,sub-104,1,stroop_test,59.80525014864224,
,,,,59.0,11.0,4.0,,,,,,,,,,,,,rot,red,r,1.0,r,1.0,0.5000310000032187,,,,,,,,,,4.0,11.0,59.0,1.0,405.71647129999474,,,,,,,,,,,,,,,,,405.70206720009446,405.8168240999803,406.6324769000057,406.61674680002034,,,,,,,,,,,,,,,,,,,,,,,,,,,,,,,,,,,406.6201480999589,406.6324769000057,406.6324769000057,407.1501176999882,r,1.0,0.5000310000032187,,,,,sub-104,1,stroop_test,59.80525014864224,
,,,,60.0,0.0,5.0,,,,,,,,,,,,,rot,yellow,g,0.0,g,1.0,0.6104955000337213,,,,,,,,,,5.0,0.0,60.0,3.0,407.1651976001449,,,,,,,,,,,,,,,,,407.1505158999935,407.2652150001377,408.0645250000525,408.0487792999484,,,,,,,,,,,,,,,,,,,,,,,,,,,,,,,,,,,408.0493785000872,408.0645250000525,408.0645250000525,408.6825393999461,g,1.0,0.6104955000337213,,,,,sub-104,1,stroop_test,59.80525014864224,
,,,,61.0,1.0,5.0,,,,,,,,,,,,,gelb,yellow,g,1.0,g,1.0,0.5060078999958932,,,,,,,,,,5.0,1.0,61.0,10.0,408.6974881000351,,,,,,,,,,,,,,,,,408.6830052000005,409.0470195999369,409.8464128000196,409.8308353000321,,,,,,,,,,,,,,,,,,,,,,,,,,,,,,,,,,,409.8351336000487,409.8464128000196,409.8464128000196,410.3643579999916,g,1.0,0.5060078999958932,,,,,sub-104,1,stroop_test,59.80525014864224,
,,,,62.0,2.0,5.0,,,,,,,,,,,,,blau,blue,b,1.0,b,1.0,0.4247677000239491,,,,,,,,,,5.0,2.0,62.0,5.0,410.3792512000073,,,,,,,,,,,,,,,,,410.3647310999222,411.17863670014776,411.9779581001494,411.9620139000472,,,,,,,,,,,,,,,,,,,,,,,,,,,,,,,,,,,411.9644961999729,411.9779581001494,411.9779581001494,412.4125854000449,b,1.0,0.4247677000239491,,,,,sub-104,1,stroop_test,59.80525014864224,
,,,,63.0,3.0,5.0,,,,,,,,,,,,,blau,yellow,g,0.0,g,1.0,0.4678862001746893,,,,,,,,,,5.0,3.0,63.0,7.0,412.4277751999907,,,,,,,,,,,,,,,,,412.4130150999408,412.7776572001167,413.577189499978,413.56123500014655,,,,,,,,,,,,,,,,,,,,,,,,,,,,,,,,,,,413.5618491000496,413.577189499978,413.577189499978,414.06147920014337,g,1.0,0.4678862001746893,,,,,sub-104,1,stroop_test,59.80525014864224,
,,,,64.0,4.0,5.0,,,,,,,,,,,,,rot,red,r,1.0,r,1.0,0.3599739000201225,,,,,,,,,,5.0,4.0,64.0,0.0,414.07598130009137,,,,,,,,,,,,,,,,,414.0619310000912,414.8754046999384,415.6748445001431,415.6593258001376,,,,,,,,,,,,,,,,,,,,,,,,,,,,,,,,,,,415.6625139999669,415.6748445001431,415.6748445001431,416.0429312000051,r,1.0,0.3599739000201225,,,,,sub-104,1,stroop_test,59.80525014864224,
,,,,65.0,5.0,5.0,,,,,,,,,,,,,gelb,yellow,g,1.0,g,1.0,0.6494903999846429,,,,,,,,,,5.0,5.0,65.0,11.0,416.0580168000888,,,,,,,,,,,,,,,,,416.043302899925,416.15800089994445,416.9572712001391,416.94178620004095,,,,,,,,,,,,,,,,,,,,,,,,,,,,,,,,,,,416.9461871001404,416.9572712001391,416.9572712001391,417.609268500004,g,1.0,0.6494903999846429,,,,,sub-104,1,stroop_test,59.80525014864224,
,,,,66.0,6.0,5.0,,,,,,,,,,,,,gelb,blue,b,0.0,b,1.0,0.3386919000186026,,,,,,,,,,5.0,6.0,66.0,9.0,417.6235404999461,,,,,,,,,,,,,,,,,417.6096900999546,418.422555899946,419.2220056999941,419.2064179999288,,,,,,,,,,,,,,,,,,,,,,,,,,,,,,,,,,,419.207002799958,419.2220056999941,419.2220056999941,419.5733900000341,b,1.0,0.3386919000186026,,,,,sub-104,1,stroop_test,59.80525014864224,
,,,,67.0,7.0,5.0,,,,,,,,,,,,,rot,red,r,1.0,r,1.0,0.5705653999466449,,,,,,,,,,5.0,7.0,67.0,1.0,419.588405800052,,,,,,,,,,,,,,,,,419.5737264000345,420.38784150010906,421.1872390999925,421.1717284999322,,,,,,,,,,,,,,,,,,,,,,,,,,,,,,,,,,,421.17516790004447,421.1872390999925,421.1872390999925,421.7718813000247,r,1.0,0.5705653999466449,,,,,sub-104,1,stroop_test,59.80525014864224,
,,,,68.0,8.0,5.0,,,,,,,,,,,,,gelb,red,r,0.0,r,1.0,0.4582066999282688,,,,,,,,,,5.0,8.0,68.0,8.0,421.7865834000986,,,,,,,,,,,,,,,,,421.772333299974,422.13670810009353,422.952117000008,422.9365654001013,,,,,,,,,,,,,,,,,,,,,,,,,,,,,,,,,,,422.9406117000617,422.952117000008,422.952117000008,423.42010079999454,r,1.0,0.4582066999282688,,,,,sub-104,1,stroop_test,59.80525014864224,
,,,,69.0,9.0,5.0,,,,,,,,,,,,,blau,red,r,0.0,r,1.0,0.4666385999880731,,,,,,,,,,5.0,9.0,69.0,4.0,423.4352287000511,,,,,,,,,,,,,,,,,423.4205126999877,424.6344715000596,425.4336101999506,425.4182393001393,,,,,,,,,,,,,,,,,,,,,,,,,,,,,,,,,,,425.4227225999348,425.4336101999506,425.4336101999506,425.9023978000041,r,1.0,0.4666385999880731,,,,,sub-104,1,stroop_test,59.80525014864224,
,,,,70.0,10.0,5.0,,,,,,,,,,,,,blau,blue,b,1.0,b,1.0,0.3213342002127319,,,,,,,,,,5.0,10.0,70.0,6.0,425.916421599919,,,,,,,,,,,,,,,,,425.90280520007946,426.7158608001191,427.5152607001364,427.4995530000888,,,,,,,,,,,,,,,,,,,,,,,,,,,,,,,,,,,427.5001266000327,427.5152607001364,427.5152607001364,427.84980070008896,b,1.0,0.3213342002127319,,,,,sub-104,1,stroop_test,59.80525014864224,
,,,,71.0,11.0,5.0,,,,,,,,,,,,,rot,blue,b,0.0,b,1.0,0.6348236999474466,,,,,,,,,,5.0,11.0,71.0,2.0,427.86508679995313,,,,,,,,,,,,,,,,,427.8501546999905,428.2146704001352,429.01397270010784,428.9981766000856,,,,,,,,,,,,,,,,,,,,,,,,,,,,,,,,,,,429.0009441999719,429.01397270010784,429.01397270010784,429.6647874999326,b,1.0,0.6348236999474466,,,,,sub-104,1,stroop_test,59.80525014864224,
,,,,72.0,0.0,6.0,,,,,,,,,,,,,gelb,blue,b,0.0,b,1.0,0.4111844999715686,,,,,,,,,,6.0,0.0,72.0,9.0,429.6801211999264,,,,,,,,,,,,,,,,,429.6651161001064,429.78004879993387,430.5791404999327,430.5638204999268,,,,,,,,,,,,,,,,,,,,,,,,,,,,,,,,,,,430.5673961001448,430.5791404999327,430.5791404999327,430.9972572000697,b,1.0,0.4111844999715686,,,,,sub-104,1,stroop_test,59.80525014864224,
,,,,73.0,1.0,6.0,,,,,,,,,,,,,blau,red,r,0.0,r,1.0,0.5836216998286545,,,,,,,,,,6.0,1.0,73.0,4.0,431.0123249001336,,,,,,,,,,,,,,,,,430.9976487001404,431.1120832001325,431.91158380010165,431.89606410008855,,,,,,,,,,,,,,,,,,,,,,,,,,,,,,,,,,,431.89974729996175,431.91158380010165,431.91158380010165,432.4973985000979,r,1.0,0.5836216998286545,,,,,sub-104,1,stroop_test,59.80525014864224,
,,,,74.0,2.0,6.0,,,,,,,,,,,,,rot,blue,b,0.0,b,1.0,0.5391856001224369,,,,,,,,,,6.0,2.0,74.0,2.0,432.5112559001427,,,,,,,,,,,,,,,,,432.4978772001341,433.7104088000488,434.5093674999662,434.49385800003074,,,,,,,,,,,,,,,,,,,,,,,,,,,,,,,,,,,434.4970003000926,434.5093674999662,434.5093674999662,435.0604769000784,b,1.0,0.5391856001224369,,,,,sub-104,1,stroop_test,59.80525014864224,
,,,,75.0,3.0,6.0,,,,,,,,,,,,,gelb,yellow,g,1.0,g,1.0,0.3427853998728096,,,,,,,,,,6.0,3.0,75.0,10.0,435.0754997001495,,,,,,,,,,,,,,,,,435.06082020001486,436.2747706000228,437.0743412000593,437.0586278000847,,,,,,,,,,,,,,,,,,,,,,,,,,,,,,,,,,,437.062671800144,437.0743412000593,437.0743412000593,437.4259200999513,g,1.0,0.3427853998728096,,,,,sub-104,1,stroop_test,59.80525014864224,
,,,,76.0,4.0,6.0,,,,,,,,,,,,,blau,yellow,g,0.0,g,1.0,0.5401824000291526,,,,,,,,,,6.0,4.0,76.0,7.0,437.4406361000147,,,,,,,,,,,,,,,,,437.4263927000575,437.5404997000005,438.33953729993664,438.3238607000094,,,,,,,,,,,,,,,,,,,,,,,,,,,,,,,,,,,438.3271465001162,438.33953729993664,438.33953729993664,438.8908718000166,g,1.0,0.5401824000291526,,,,,sub-104,1,stroop_test,59.80525014864224,
,,,,77.0,5.0,6.0,,,,,,,,,,,,,rot,red,r,1.0,r,1.0,0.5185805999208242,,,,,,,,,,6.0,5.0,77.0,0.0,438.90581890009344,,,,,,,,,,,,,,,,,438.8914241001476,439.0057906000875,439.8051259999629,439.7892394000664,,,,,,,,,,,,,,,,,,,,,,,,,,,,,,,,,,,439.7919324000832,439.8051259999629,439.8051259999629,440.3398734000512,r,1.0,0.5185805999208242,,,,,sub-104,1,stroop_test,59.80525014864224,
,,,,78.0,6.0,6.0,,,,,,,,,,,,,blau,blue,b,1.0,b,1.0,0.4903335999697447,,,,,,,,,,6.0,6.0,78.0,6.0,440.354420500109,,,,,,,,,,,,,,,,,440.3404641000088,440.4545259999577,441.2543142000213,441.238270400092,,,,,,,,,,,,,,,,,,,,,,,,,,,,,,,,,,,441.2421192999464,441.2543142000213,441.2543142000213,441.7554409001023,b,1.0,0.4903335999697447,,,,,sub-104,1,stroop_test,59.80525014864224,
,,,,79.0,7.0,6.0,,,,,,,,,,,,,gelb,red,r,0.0,r,1.0,0.5017876999918371,,,,,,,,,,6.0,7.0,79.0,8.0,441.7701479000971,,,,,,,,,,,,,,,,,441.75591489998624,442.9690374999773,443.7683031000197,443.7528516999446,,,,,,,,,,,,,,,,,,,,,,,,,,,,,,,,,,,443.7563466001302,443.7683031000197,443.7683031000197,444.2863032000605,r,1.0,0.5017876999918371,,,,,sub-104,1,stroop_test,59.80525014864224,
,,,,80.0,8.0,6.0,,,,,,,,,,,,,rot,red,r,1.0,r,1.0,0.4373491001315415,,,,,,,,,,6.0,8.0,80.0,1.0,444.3013724000193,,,,,,,,,,,,,,,,,444.2867431000341,444.6513515000697,445.45038729999214,445.4352756999433,,,,,,,,,,,,,,,,,,,,,,,,,,,,,,,,,,,445.43914000014775,445.45038729999214,445.45038729999214,445.90191769995727,r,1.0,0.4373491001315415,,,,,sub-104,1,stroop_test,59.80525014864224,
,,,,81.0,9.0,6.0,,,,,,,,,,,,,gelb,yellow,g,1.0,b,0.0,0.4843125001061708,,,,,,,,,,6.0,9.0,81.0,11.0,445.9169712001458,,,,,,,,,,,,,,,,,445.902282099938,446.2663281999994,447.0659072000999,447.0501049000304,,,,,,,,,,,,,,,,,,,,,,,,,,,,,,,,,,,447.0530099000316,447.0659072000999,447.0659072000999,447.566699200077,b,0.0,0.4843125001061708,,,,,sub-104,1,stroop_test,59.80525014864224,
,,,,82.0,10.0,6.0,,,,,,,,,,,,,blau,blue,b,1.0,b,1.0,0.5190927998628467,,,,,,,,,,6.0,10.0,82.0,5.0,447.58182050008327,,,,,,,,,,,,,,,,,447.56705239997245,447.682203500066,448.48110720003024,448.4658037000336,,,,,,,,,,,,,,,,,,,,,,,,,,,,,,,,,,,448.4690121000167,448.48110720003024,448.48110720003024,449.0159629001282,b,1.0,0.5190927998628467,,,,,sub-104,1,stroop_test,59.80525014864224,
,,,,83.0,11.0,6.0,,,,,,,,,,,,,rot,yellow,g,0.0,g,1.0,0.6746161000337452,,,,,,,,,,6.0,11.0,83.0,3.0,449.0312594999559,,,,,,,,,,,,,,,,,449.0163644000422,449.8303577001207,450.6294692000374,450.61392070003785,,,,,,,,,,,,,,,,,,,,,,,,,,,,,,,,,,,450.6172522001434,450.6294692000374,450.6294692000374,451.3139184000902,g,1.0,0.6746161000337452,,,,,sub-104,1,stroop_test,59.80525014864224,
,,,,84.0,0.0,7.0,,,,,,,,,,,,,blau,blue,b,1.0,b,1.0,0.4938702997751534,,,,,,,,,,7.0,0.0,84.0,5.0,451.3289922999684,,,,,,,,,,,,,,,,,451.3144436001312,452.5284221000038,453.32732119993307,453.31173210009,,,,,,,,,,,,,,,,,,,,,,,,,,,,,,,,,,,453.31567470007576,453.32732119993307,453.32732119993307,453.82842599996366,b,1.0,0.4938702997751534,,,,,sub-104,1,stroop_test,59.80525014864224,
,,,,85.0,1.0,7.0,,,,,,,,,,,,,gelb,yellow,g,1.0,g,1.0,0.4837015999946743,,,,,,,,,,7.0,1.0,85.0,11.0,453.8436730001122,,,,,,,,,,,,,,,,,453.8287784999702,454.6426921000239,455.4419104999397,455.4264664999209,,,,,,,,,,,,,,,,,,,,,,,,,,,,,,,,,,,455.4302483999636,455.4419104999397,455.4419104999397,455.9279927001335,g,1.0,0.4837015999946743,,,,,sub-104,1,stroop_test,59.80525014864224,
,,,,86.0,2.0,7.0,,,,,,,,,,,,,blau,red,r,0.0,r,1.0,0.3353121001273393,,,,,,,,,,7.0,2.0,86.0,4.0,455.9416684999596,,,,,,,,,,,,,,,,,455.9283988000825,456.2915493000765,457.0908916001208,457.0754516001325,,,,,,,,,,,,,,,,,,,,,,,,,,,,,,,,,,,457.0790214000736,457.0908916001208,457.0908916001208,457.4424924000632,r,1.0,0.3353121001273393,,,,,sub-104,1,stroop_test,59.80525014864224,
,,,,87.0,3.0,7.0,,,,,,,,,,,,,rot,yellow,g,0.0,g,1.0,0.4265914000570774,,,,,,,,,,7.0,3.0,87.0,3.0,457.4572666999884,,,,,,,,,,,,,,,,,457.44287490006536,457.5572120000143,458.3562620000448,458.3409992000088,,,,,,,,,,,,,,,,,,,,,,,,,,,,,,,,,,,458.3445180000272,458.3562620000448,458.3562620000448,458.7908994001336,g,1.0,0.4265914000570774,,,,,sub-104,1,stroop_test,59.80525014864224,
,,,,88.0,4.0,7.0,,,,,,,,,,,,,rot,red,r,1.0,r,1.0,0.7236216000746936,,,,,,,,,,7.0,4.0,88.0,0.0,458.8060538999271,,,,,,,,,,,,,,,,,458.79126229998656,458.9057853000704,459.7053311001509,459.6896363999695,,,,,,,,,,,,,,,,,,,,,,,,,,,,,,,,,,,459.6901726999786,459.7053311001509,459.7053311001509,460.4400138999336,r,1.0,0.7236216000746936,,,,,sub-104,1,stroop_test,59.80525014864224,
,,,,89.0,5.0,7.0,,,,,,,,,,,,,gelb,yellow,g,1.0,g,1.0,0.5247372998856008,,,,,,,,,,7.0,5.0,89.0,10.0,460.4547437999863,,,,,,,,,,,,,,,,,460.44051430001855,460.8049117999617,461.604103300022,461.5882858000696,,,,,,,,,,,,,,,,,,,,,,,,,,,,,,,,,,,461.5925813000649,461.604103300022,461.604103300022,462.13852140004747,g,1.0,0.5247372998856008,,,,,sub-104,1,stroop_test,59.80525014864224,
,,,,90.0,6.0,7.0,,,,,,,,,,,,,blau,blue,b,1.0,b,1.0,0.3563306001015007,,,,,,,,,,7.0,6.0,90.0,6.0,462.15385230001993,,,,,,,,,,,,,,,,,462.1389826000668,462.50299459998496,463.3024729001336,463.2866156999953,,,,,,,,,,,,,,,,,,,,,,,,,,,,,,,,,,,463.2902599000372,463.3024729001336,463.3024729001336,463.67015830008313,b,1.0,0.3563306001015007,,,,,sub-104,1,stroop_test,59.80525014864224,
,,,,91.0,7.0,7.0,,,,,,,,,,,,,rot,blue,b,0.0,b,1.0,0.5838083999697119,,,,,,,,,,7.0,7.0,91.0,2.0,463.6853730001021,,,,,,,,,,,,,,,,,463.6705740999896,463.7852797999512,464.5845824999269,464.56892250012606,,,,,,,,,,,,,,,,,,,,,,,,,,,,,,,,,,,464.5720470000524,464.5845824999269,464.5845824999269,465.1856380000245,b,1.0,0.5838083999697119,,,,,sub-104,1,stroop_test,59.80525014864224,
,,,,92.0,8.0,7.0,,,,,,,,,,,,,blau,yellow,g,0.0,g,1.0,0.5463026999495924,,,,,,,,,,7.0,8.0,92.0,7.0,465.2008651001379,,,,,,,,,,,,,,,,,465.1861260000151,466.3996723000892,467.19885980011895,467.1829210000578,,,,,,,,,,,,,,,,,,,,,,,,,,,,,,,,,,,467.18640180001967,467.19885980011895,467.19885980011895,467.7493843000848,g,1.0,0.5463026999495924,,,,,sub-104,1,stroop_test,59.80525014864224,
,,,,93.0,9.0,7.0,,,,,,,,,,,,,gelb,blue,b,0.0,b,1.0,0.4597670000512153,,,,,,,,,,7.0,9.0,93.0,9.0,467.7648929001298,,,,,,,,,,,,,,,,,467.7496220001485,468.1147549001034,468.9141720000189,468.89818000001833,,,,,,,,,,,,,,,,,,,,,,,,,,,,,,,,,,,468.9003492000047,468.9141720000189,468.9141720000189,469.3820190001279,b,1.0,0.4597670000512153,,,,,sub-104,1,stroop_test,59.80525014864224,
,,,,94.0,10.0,7.0,,,,,,,,,,,,,rot,red,r,1.0,r,1.0,0.3888981998898089,,,,,,,,,,7.0,10.0,94.0,1.0,469.3971067001112,,,,,,,,,,,,,,,,,469.38246130011976,470.5962390000932,471.39555320004,471.3802120999899,,,,,,,,,,,,,,,,,,,,,,,,,,,,,,,,,,,471.3844636001159,471.39555320004,471.39555320004,471.7972645999398,r,1.0,0.3888981998898089,,,,,sub-104,1,stroop_test,59.80525014864224,
,,,,95.0,11.0,7.0,,,,,,,,,,,,,gelb,red,r,0.0,r,1.0,0.3973594000563025,,,,,,,,,,7.0,11.0,95.0,8.0,471.8118036999367,,,,,,,,,,,,,,,,,471.7977452001069,472.1616776001174,472.9610838000663,472.9457523999736,,,,,,,,,,,,,,,,,,,,,,,,,,,,,,,,,,,472.9498634999618,472.9610838000663,472.9610838000663,473.36295460001566,r,1.0,0.3973594000563025,,,,,sub-104,1,stroop_test,59.80525014864224,
,,,,96.0,0.0,8.0,,,,,,,,,,,,,blau,yellow,g,0.0,g,1.0,0.3412603999022394,,,,,,,,,,8.0,0.0,96.0,7.0,473.3773783000652,,,,,,,,,,,,,,,,,473.3634500000626,474.1767208001111,474.9761614999734,474.9602570999414,,,,,,,,,,,,,,,,,,,,,,,,,,,,,,,,,,,474.9635220000055,474.9761614999734,474.9761614999734,475.32821900001727,g,1.0,0.3412603999022394,,,,,sub-104,1,stroop_test,59.80525014864224,
,,,,97.0,1.0,8.0,,,,,,,,,,,,,gelb,blue,b,0.0,b,1.0,0.3313980000093579,,,,,,,,,,8.0,1.0,97.0,9.0,475.34266690001823,,,,,,,,,,,,,,,,,475.328651299933,476.5416707000695,477.3411632999778,477.3256385000423,,,,,,,,,,,,,,,,,,,,,,,,,,,,,,,,,,,477.330399800092,477.3411632999778,477.3411632999778,477.67685139994137,b,1.0,0.3313980000093579,,,,,sub-104,1,stroop_test,59.80525014864224,
,,,,98.0,2.0,8.0,,,,,,,,,,,,,rot,red,r,1.0,r,1.0,0.4678347997833043,,,,,,,,,,8.0,2.0,98.0,0.0,477.6906483001076,,,,,,,,,,,,,,,,,477.6774067999795,478.88982979999855,479.6892242000904,479.673582599964,,,,,,,,,,,,,,,,,,,,,,,,,,,,,,,,,,,479.67626390000805,479.6892242000904,479.6892242000904,480.1739674001001,r,1.0,0.4678347997833043,,,,,sub-104,1,stroop_test,59.80525014864224,
,,,,99.0,3.0,8.0,,,,,,,,,,,,,gelb,yellow,g,1.0,g,1.0,0.2993531001266092,,,,,,,,,,8.0,3.0,99.0,10.0,480.1889110000338,,,,,,,,,,,,,,,,,480.174376500072,481.38772789994255,482.1870548999868,482.1716871000826,,,,,,,,,,,,,,,,,,,,,,,,,,,,,,,,,,,482.17633790010586,482.1870548999868,482.1870548999868,482.48920059995726,g,1.0,0.2993531001266092,,,,,sub-104,1,stroop_test,59.80525014864224,
,,,,100.0,4.0,8.0,,,,,,,,,,,,,gelb,red,r,0.0,g,0.0,0.4645295001100749,,,,,,,,,,8.0,4.0,100.0,8.0,482.5038489000872,,,,,,,,,,,,,,,,,482.48965140013024,482.60299860010855,483.402563800104,483.3869535000995,,,,,,,,,,,,,,,,,,,,,,,,,,,,,,,,,,,483.3874234000687,483.402563800104,483.402563800104,483.8712484000717,g,0.0,0.4645295001100749,,,,,sub-104,1,stroop_test,59.80525014864224,
,,,,101.0,5.0,8.0,,,,,,,,,,,,,rot,blue,b,0.0,b,1.0,0.5133807000238448,,,,,,,,,,8.0,5.0,101.0,2.0,483.8853458999656,,,,,,,,,,,,,,,,,483.8716543000192,484.23518369998783,485.0343385001179,485.0184585000388,,,,,,,,,,,,,,,,,,,,,,,,,,,,,,,,,,,485.0204185999464,485.0343385001179,485.0343385001179,485.5522910000291,b,1.0,0.5133807000238448,,,,,sub-104,1,stroop_test,59.80525014864224,
,,,,102.0,6.0,8.0,,,,,,,,,,,,,blau,red,r,0.0,r,1.0,0.5305965999141335,,,,,,,,,,8.0,6.0,102.0,4.0,485.5677565999795,,,,,,,,,,,,,,,,,485.5526573001407,486.3669426001143,487.1660599000752,487.1505003001075,,,,,,,,,,,,,,,,,,,,,,,,,,,,,,,,,,,487.153808100149,487.1660599000752,487.1660599000752,487.7005525999703,r,1.0,0.5305965999141335,,,,,sub-104,1,stroop_test,59.80525014864224,
,,,,103.0,7.0,8.0,,,,,,,,,,,,,blau,blue,b,1.0,b,1.0,0.4695607998874038,,,,,,,,,,8.0,7.0,103.0,5.0,487.7155842999928,,,,,,,,,,,,,,,,,487.7009914999362,488.5145918999333,489.3143005999737,489.2985310000368,,,,,,,,,,,,,,,,,,,,,,,,,,,,,,,,,,,489.2991194999777,489.3143005999737,489.3143005999737,489.79888210003264,b,1.0,0.4695607998874038,,,,,sub-104,1,stroop_test,59.80525014864224,
,,,,104.0,8.0,8.0,,,,,,,,,,,,,rot,yellow,g,0.0,r,0.0,0.5284384000115097,,,,,,,,,,8.0,8.0,104.0,3.0,489.81431269994937,,,,,,,,,,,,,,,,,489.7992624000181,491.0129593999591,491.81211689999327,491.7965971000958,,,,,,,,,,,,,,,,,,,,,,,,,,,,,,,,,,,491.8000592000317,491.81211689999327,491.81211689999327,492.3465621001087,r,0.0,0.5284384000115097,,,,,sub-104,1,stroop_test,59.80525014864224,
,,,,105.0,9.0,8.0,,,,,,,,,,,,,rot,red,r,1.0,r,1.0,0.7603808999992907,,,,,,,,,,8.0,9.0,105.0,1.0,492.3617398000788,,,,,,,,,,,,,,,,,492.3469040999189,492.7115243999288,493.51097170007415,493.4953884999268,,,,,,,,,,,,,,,,,,,,,,,,,,,,,,,,,,,493.49599039996974,493.51097170007415,493.51097170007415,494.2782799999695,r,1.0,0.7603808999992907,,,,,sub-104,1,stroop_test,59.80525014864224,
,,,,106.0,10.0,8.0,,,,,,,,,,,,,gelb,yellow,g,1.0,g,1.0,0.4515448999591172,,,,,,,,,,8.0,10.0,106.0,11.0,494.293639200041,,,,,,,,,,,,,,,,,494.2786099999212,494.3937365999445,495.1928127000574,495.1771210001316,,,,,,,,,,,,,,,,,,,,,,,,,,,,,,,,,,,495.1806008000858,495.1928127000574,495.1928127000574,495.66086010006256,g,1.0,0.4515448999591172,,,,,sub-104,1,stroop_test,59.80525014864224,
,,,,107.0,11.0,8.0,,,,,,,,,,,,,blau,blue,b,1.0,b,1.0,0.4525063000619411,,,,,,,,,,8.0,11.0,107.0,6.0,495.6758419000544,,,,,,,,,,,,,,,,,495.6613175999373,496.8751207999885,497.69089820003137,497.67496949993074,,,,,,,,,,,,,,,,,,,,,,,,,,,,,,,,,,,497.67748980014585,497.69089820003137,497.69089820003137,498.1583658999298,b,1.0,0.4525063000619411,,,,,sub-104,1,stroop_test,59.80525014864224,
,,,,108.0,0.0,9.0,,,,,,,,,,,,,rot,red,r,1.0,r,1.0,0.5137979998253286,,,,,,,,,,9.0,0.0,108.0,0.0,498.1735420001205,,,,,,,,,,,,,,,,,498.1586601999588,498.5236653999891,499.3225161000155,499.3072385000996,,,,,,,,,,,,,,,,,,,,,,,,,,,,,,,,,,,499.3123188000173,499.3225161000155,499.3225161000155,499.8406161000021,r,1.0,0.5137979998253286,,,,,sub-104,1,stroop_test,59.80525014864224,
,,,,109.0,1.0,9.0,,,,,,,,,,,,,rot,yellow,g,0.0,g,1.0,0.5112951998598874,,,,,,,,,,9.0,1.0,109.0,3.0,499.85582490009256,,,,,,,,,,,,,,,,,499.84122049994767,501.05479760002345,501.8539355001412,501.8382717000786,,,,,,,,,,,,,,,,,,,,,,,,,,,,,,,,,,,501.8388473999221,501.8539355001412,501.8539355001412,502.3720627001021,g,1.0,0.5112951998598874,,,,,sub-104,1,stroop_test,59.80525014864224,
,,,,110.0,2.0,9.0,,,,,,,,,,,,,blau,yellow,g,0.0,g,1.0,0.5303460999857634,,,,,,,,,,9.0,2.0,110.0,7.0,502.3868581999559,,,,,,,,,,,,,,,,,502.37242599995807,502.7363835999277,503.53607750008814,503.5201296000741,,,,,,,,,,,,,,,,,,,,,,,,,,,,,,,,,,,503.5228152000345,503.53607750008814,503.53607750008814,504.0705431001261,g,1.0,0.5303460999857634,,,,,sub-104,1,stroop_test,59.80525014864224,
,,,,111.0,3.0,9.0,,,,,,,,,,,,,blau,blue,b,1.0,b,1.0,0.5252390999812633,,,,,,,,,,9.0,3.0,111.0,5.0,504.085507000098,,,,,,,,,,,,,,,,,504.07102259993553,504.185255800141,504.9848150999751,504.96922129997984,,,,,,,,,,,,,,,,,,,,,,,,,,,,,,,,,,,504.96980830002576,504.9848150999751,504.9848150999751,505.5193994999863,b,1.0,0.5252390999812633,,,,,sub-104,1,stroop_test,59.80525014864224,
,,,,112.0,4.0,9.0,,,,,,,,,,,,,blau,red,r,0.0,r,1.0,0.4511780999600887,,,,,,,,,,9.0,4.0,112.0,4.0,505.5343752999325,,,,,,,,,,,,,,,,,505.5197908000555,505.8843050999567,506.683444699971,506.6676751000341,,,,,,,,,,,,,,,,,,,,,,,,,,,,,,,,,,,506.66824680008,506.683444699971,506.683444699971,507.1510850000195,r,1.0,0.4511780999600887,,,,,sub-104,1,stroop_test,59.80525014864224,
,,,,113.0,5.0,9.0,,,,,,,,,,,,,rot,blue,b,0.0,b,1.0,0.5020802000071853,,,,,,,,,,9.0,5.0,113.0,2.0,507.1661708001048,,,,,,,,,,,,,,,,,507.1514888999518,507.51603229995817,508.31539790006354,508.2997074001469,,,,,,,,,,,,,,,,,,,,,,,,,,,,,,,,,,,508.30285009997897,508.31539790006354,508.31539790006354,508.8332487000153,b,1.0,0.5020802000071853,,,,,sub-104,1,stroop_test,59.80525014864224,
,,,,114.0,6.0,9.0,,,,,,,,,,,,,blau,blue,b,1.0,b,1.0,0.4797700999770313,,,,,,,,,,9.0,6.0,114.0,6.0,508.8481640000828,,,,,,,,,,,,,,,,,508.8336758001242,509.6476036000531,510.4468483000528,510.431156600127,,,,,,,,,,,,,,,,,,,,,,,,,,,,,,,,,,,510.43454080005176,510.4468483000528,510.4468483000528,510.9317974001169,b,1.0,0.4797700999770313,,,,,sub-104,1,stroop_test,59.80525014864224,
,,,,115.0,7.0,9.0,,,,,,,,,,,,,gelb,yellow,g,1.0,g,1.0,0.6521621001884341,,,,,,,,,,9.0,7.0,115.0,11.0,510.9463776999619,,,,,,,,,,,,,,,,,510.93218100001104,511.046323900111,511.8458480001427,511.8300485999789,,,,,,,,,,,,,,,,,,,,,,,,,,,,,,,,,,,511.8339349001181,511.8458480001427,511.8458480001427,512.5135073999409,g,1.0,0.6521621001884341,,,,,sub-104,1,stroop_test,59.80525014864224,
,,,,116.0,8.0,9.0,,,,,,,,,,,,,gelb,yellow,g,1.0,g,1.0,0.3875265999231487,,,,,,,,,,9.0,8.0,116.0,10.0,512.5287963999435,,,,,,,,,,,,,,,,,512.513937199954,513.7276982001495,514.5269013000652,514.5113282001112,,,,,,,,,,,,,,,,,,,,,,,,,,,,,,,,,,,514.5118831000291,514.5269013000652,514.5269013000652,514.9281850999687,g,1.0,0.3875265999231487,,,,,sub-104,1,stroop_test,59.80525014864224,
,,,,117.0,9.0,9.0,,,,,,,,,,,,,gelb,red,r,0.0,r,1.0,0.5013453999999911,,,,,,,,,,9.0,9.0,117.0,8.0,514.9430720999371,,,,,,,,,,,,,,,,,514.9287541001104,515.7425619000569,516.5417508000974,516.526215699967,,,,,,,,,,,,,,,,,,,,,,,,,,,,,,,,,,,516.5268723999616,516.5417508000974,516.5417508000974,517.0597089999355,r,1.0,0.5013453999999911,,,,,sub-104,1,stroop_test,59.80525014864224,
,,,,118.0,10.0,9.0,,,,,,,,,,,,,rot,red,r,1.0,r,1.0,0.4769087999593466,,,,,,,,,,9.0,10.0,118.0,1.0,517.0749699999578,,,,,,,,,,,,,,,,,517.0601673000492,517.4247473999858,518.223735100124,518.2086583999917,,,,,,,,,,,,,,,,,,,,,,,,,,,,,,,,,,,518.2125755001325,518.223735100124,518.223735100124,518.708227199968,r,1.0,0.4769087999593466,,,,,sub-104,1,stroop_test,59.80525014864224,
,,,,119.0,11.0,9.0,,,,,,,,,,,,,gelb,blue,b,0.0,b,1.0,0.4548890001606196,,,,,,,,,,9.0,11.0,119.0,9.0,518.7233200999908,,,,,,,,,,,,,,,,,518.7086143000051,519.9222993000876,520.721898799995,520.7063575000502,,,,,,,,,,,,,,,,,,,,,,,,,,,,,,,,,,,520.7113890000619,520.721898799995,520.721898799995,521.189679400064,b,1.0,0.4548890001606196,,,,,sub-104,1,stroop_test,59.80525014864224,
,,,,,,,,,,,,,,,,,,,,,,,,,,,,,,,,,,,,,,,,,,,,,,,,,,,,,,,,,,,,,,,,,,,,,,,,,,,,,,,,,,,,,,,,,,,,,,,,,,,,,,521.1898986001033,521.204696400091,526.2005589001346,sub-104,1,stroop_test,59.80525014864224,
