direction,corrAns,randomInstr,practice_trials.thisRepN,practice_trials.thisTrialN,practice_trials.thisN,practice_trials.thisIndex,instr_trials.thisRepN,instr_trials.thisTrialN,instr_trials.thisN,instr_trials.thisIndex,test_trials.thisRepN,test_trials.thisTrialN,test_trials.thisN,test_trials.thisIndex,thisRow.t,notes,general_instruction.started,textGeneralInstr.started,respGeneralInstr.started,general_instruction.stopped,respGeneralInstr.keys,respGeneralInstr.rt,respGeneralInstr.duration,ITI.started,fixcross.started,fixcross.stopped,ITI.stopped,dots.started,backgroundDots.started,stimulusDots.started,respDots.started,dots.stopped,respDots.keys,respDots.corr,respDots.rt,respDots.duration,feedback.started,textFeedback.started,feedback.stopped,textFeedback.stopped,stimulusDots.stopped,info.started,textInfo.started,keyRespInfo.started,info.stopped,keyRespInfo.keys,keyRespInfo.rt,keyRespInfo.duration,test_instruction.started,textTestInstr.started,respTestInstr.started,test_instruction.stopped,respTestInstr.keys,respTestInstr.rt,respTestInstr.duration,random_instruction.started,textRandomInstr.started,respRandomInstr.started,random_instruction.stopped,respRandomInstr.keys,respRandomInstr.rt,respRandomInstr.duration,goodbye.started,textGoodbye.started,textGoodbye.stopped,goodbye.stopped,participant,session,expName,frameRate,Unnamed: 74
,,,,,,,,,,,,,,,,,0.0045047999592497,0.0134757999912835,0.0134757999912835,76.58034649997717,space,97.91037480003432,,,,,,,,,,,,,,,,,,,,,,,,,,,,,,,,,,,,,,,,,,,,,sub-232,1.0,random_dot,59.930839814476265,
left,left,,0.0,0.0,0.0,0.0,,,,,,,,,76.64216049999231,,,,,,,,,76.63770859997021,77.39502299996093,78.19597909995355,78.17906219995348,78.17909599997802,78.19597909995355,78.19597909995355,78.19597909995355,79.38034849998076,right,0.0,22.52387869998347,,79.38863989996025,79.40537659998517,79.89480199996615,,,,,,,,,,,,,,,,,,,,,,,,,,,,sub-232,1.0,random_dot,59.930839814476265,
right,right,,0.0,1.0,1.0,1.0,,,,,,,,,79.91135680000298,,,,,,,,,79.89538169995649,81.09448319999501,81.89525889995275,81.87826109997695,81.87827839999227,81.89525889995275,81.89525889995275,81.89525889995275,83.57962599996245,right,1.0,23.02148890000535,,83.5804261000012,83.59381469996879,84.0780434999615,84.0939235999831,,,,,,,,,,,,,,,,,,,,,,,,,,,sub-232,1.0,random_dot,59.930839814476265,
right,right,,1.0,0.0,2.0,1.0,,,,,,,,,84.0939235999831,,,,,,,,,84.07845659996383,84.19408919999842,84.99490739998873,84.97829709999496,84.97834839997813,84.99490739998873,84.99490739998873,84.99490739998873,86.81264339998597,left,0.0,23.156469300040044,,86.81339199998183,86.82709969999269,87.31114720000187,87.32708829996409,,,,,,,,,,,,,,,,,,,,,,,,,,,sub-232,1.0,random_dot,59.930839814476265,
left,left,,1.0,1.0,3.0,0.0,,,,,,,,,87.32708829996409,,,,,,,,,87.31167169997934,87.42687869997462,88.22775069996715,88.21101209998596,88.2110401999671,88.22775069996715,88.22775069996715,88.22775069996715,107.57671049999772,right,0.0,40.700340600044,,107.57735509995835,107.590996599989,108.07501349999802,108.09102599998003,93.21046899998328,,,,,,,,,,,,,,,,,,,,,,,,,,sub-232,1.0,random_dot,59.930839814476265,
left,left,,2.0,0.0,4.0,0.0,,,,,,,,,108.09102599998003,,,,,,,,,108.07556189998286,108.89074959995924,109.6915712999762,109.67504599998938,109.67507529997964,109.6915712999762,109.6915712999762,109.6915712999762,112.10956459998852,right,0.0,23.75999689998571,,112.11041470000056,112.12370289996034,112.60797179996734,112.62363569997252,,,,,,,,,,,,,,,,,,,,,,,,,,,sub-232,1.0,random_dot,59.930839814476265,
right,right,,2.0,1.0,5.0,1.0,,,,,,,,,112.62363569997252,,,,,,,,,112.60858369997004,112.97362519998568,113.77453920000698,113.75746259995503,113.75748869997916,113.77453920000698,113.77453920000698,113.77453920000698,114.35862809995888,left,0.0,21.927667999989357,,114.3591550999554,114.37339269998483,114.85757950000698,114.87335919996258,,,,,,,,,,,,,,,,,,,,,,,,,,,sub-232,1.0,random_dot,59.930839814476265,
right,right,,3.0,0.0,6.0,1.0,,,,,,,,,114.87335919996258,,,,,,,,,114.8580604000017,116.07331379997775,116.87410879996604,116.85684349999065,116.85686090000672,116.87410879996604,116.87410879996604,116.87410879996604,118.8418163000024,right,1.0,23.304124200018123,,118.84265379997667,118.8563254000037,119.34037719998742,119.3560964000062,,,,,,,,,,,,,,,,,,,,,,,,,,,sub-232,1.0,random_dot,59.930839814476265,
left,left,,3.0,1.0,7.0,0.0,,,,,,,,,119.3560964000062,,,,,,,,,119.34098619996804,120.15600660000928,120.9568231999874,120.940061900008,120.9400936999591,120.9568231999874,120.9568231999874,120.9568231999874,124.70774749998236,right,0.0,25.092018500028644,,124.70846349996282,124.72224119998282,125.20596029999432,125.2222202999983,,,,,,,,,,,,,,,,,,,,,,,,,,,sub-232,1.0,random_dot,59.930839814476265,
left,left,,4.0,0.0,8.0,0.0,,,,,,,,,125.2222202999983,,,,,,,,,125.2063130000024,126.02191759995183,126.8227809999953,126.8059052999597,126.8059311999823,126.8227809999953,126.8227809999953,126.8227809999953,129.50700069998857,left,1.0,24.03101490001427,,129.50763780000852,129.52162749995475,130.0056435999577,130.02152259997092,,,,,,,,,,,,,,,,,,,,,,,,,,,sub-232,1.0,random_dot,59.930839814476265,
right,right,,4.0,1.0,9.0,1.0,,,,,,,,,130.02152259997092,,,,,,,,,130.00610989995766,130.82131440000376,131.6222170999972,131.6053450999898,131.6053702000063,131.6222170999972,131.6222170999972,131.6222170999972,134.67316339997342,right,1.0,24.401981500035618,,134.6737900999724,134.68733220000286,135.17147209995892,135.18726599996444,,,,,,,,,,,,,,,,,,,,,,,,,,,sub-232,1.0,random_dot,59.930839814476265,
right,right,,5.0,0.0,10.0,1.0,,,,,,,,,135.18726599996444,,,,,,,,,135.17191669996828,135.53731599997263,136.33810979995178,136.32141889998456,136.3214428999927,136.33810979995178,136.33810979995178,136.33810979995178,137.07260189997032,right,1.0,22.07530590001261,,137.07320009998512,137.08726329996716,137.57118149998132,137.58697050000774,,,,,,,,,,,,,,,,,,,,,,,,,,,sub-232,1.0,random_dot,59.930839814476265,
left,left,,5.0,1.0,11.0,0.0,,,,,,,,,137.58697050000774,,,,,,,,,137.5716190999956,137.93706029996974,138.73814559995662,138.72119589999784,138.72121389996028,138.73814559995662,138.73814559995662,138.73814559995662,139.4225771999918,right,0.0,22.03158379998058,,139.42336869996507,139.4368969000061,139.9210320999846,139.93689419998557,,,,,,,,,,,,,,,,,,,,,,,,,,,sub-232,1.0,random_dot,59.930839814476265,
left,left,,6.0,0.0,12.0,0.0,,,,,,,,,139.93689419998557,,,,,,,,,139.92156619997695,140.28674630000023,141.08775309997145,141.07077799999388,141.07080729998415,141.08775309997145,141.08775309997145,141.08775309997145,144.08874659996945,left,1.0,24.351823700009845,,144.08950129995355,144.10300429997733,144.58696639997652,144.60287159995642,,,,,,,,,,,,,,,,,,,,,,,,,,,sub-232,1.0,random_dot,59.930839814476265,
right,right,,6.0,1.0,13.0,1.0,,,,,,,,,144.60287159995642,,,,,,,,,144.58741079998435,144.7028098999872,145.5038008999545,145.48667159996694,145.48668809997616,145.5038008999545,145.5038008999545,145.5038008999545,149.90455539996037,right,1.0,25.73819360003108,,149.90527699998347,149.918746499985,150.4028787999996,150.41875389998313,,,,,,,,,,,,,,,,,,,,,,,,,,,sub-232,1.0,random_dot,59.930839814476265,
right,right,,7.0,0.0,14.0,1.0,,,,,,,,,150.41875389998313,,,,,,,,,150.4034060999984,150.51869649998844,151.31953079998493,151.30278089997591,151.30280839995248,151.31953079998493,151.31953079998493,151.31953079998493,155.27020929998253,right,1.0,25.297347699990496,,155.27071399998383,155.2849849999766,155.7687635999755,155.78481619997183,,,,,,,,,,,,,,,,,,,,,,,,,,,sub-232,1.0,random_dot,59.930839814476265,
left,left,,7.0,1.0,15.0,0.0,,,,,,,,,155.78481619997183,,,,,,,,,155.76921679999214,156.58462229999714,157.385584499978,157.36868849996245,157.3687144999858,157.385584499978,157.385584499978,157.385584499978,160.50299849995645,left,1.0,24.460666300030425,,160.50372659997083,160.51743099995656,161.001595299982,161.01743499998702,,,,,,,,,,,,,,,,,,,,,,,,,,,sub-232,1.0,random_dot,59.930839814476265,
right,right,,8.0,0.0,16.0,1.0,,,,,,,,,161.01743499998702,,,,,,,,,161.00211269996362,161.11747459997423,161.91819860000396,161.90141589997802,161.9014435999561,161.91819860000396,161.91819860000396,161.91819860000396,163.4194188999827,left,0.0,22.836499099968933,,163.42012799996883,163.43386499996996,163.91786819999106,163.93362129997695,,,,,,,,,,,,,,,,,,,,,,,,,,,sub-232,1.0,random_dot,59.930839814476265,
left,left,,8.0,1.0,17.0,0.0,,,,,,,,,163.93362129997695,,,,,,,,,163.91839690000052,165.1337107999716,165.93430829996942,165.91745059995446,165.91747839999152,165.93430829996942,165.93430829996942,165.93430829996942,166.35250979999546,right,0.0,21.756623700028285,,166.3532198999892,166.3666350999847,166.85087189998012,166.86672190000536,,,,,,,,,,,,,,,,,,,,,,,,,,,sub-232,1.0,random_dot,59.930839814476265,
right,right,,9.0,0.0,18.0,1.0,,,,,,,,,166.86672190000536,,,,,,,,,166.8513865999994,167.21665889996802,168.01748089998728,168.00057559995912,168.0006035999977,168.01748089998728,168.01748089998728,168.01748089998728,168.3689879999729,left,0.0,21.702453600009903,,168.3696986999712,168.38327089999802,168.8670940999873,168.88312640000368,,,,,,,,,,,,,,,,,,,,,,,,,,,sub-232,1.0,random_dot,59.930839814476265,
left,left,,9.0,1.0,19.0,0.0,,,,,,,,,168.88312640000368,,,,,,,,,168.86759360000724,168.98303239996312,169.78379519999726,169.76707790000364,169.7671030999627,169.78379519999726,169.78379519999726,169.78379519999726,170.11844019999262,right,0.0,21.681539500015788,,170.11906090000411,170.1330437999568,170.61687510000775,170.6331689999788,,,,,,,,,,,,,,,,,,,,,,,,,,,sub-232,1.0,random_dot,59.930839814476265,
,,,,,,,,,,,,,,,,,,,,,,,,,,,,,,,,,,,,,,,,,,170.61694679997163,170.6331689999788,170.6331689999788,172.18381669995142,space,22.887912400008645,,,,,,,,,,,,,,,,,,,,sub-232,1.0,random_dot,59.930839814476265,
,,,,,,,,,,,,,,,,,,,,,,,,,,,,,,,,,,,,,,,,,,,,,,,,,172.1838568999665,172.19954619999044,172.19954619999044,181.53304589999607,space,30.670117700006813,,,,,,,,,,,,,sub-232,1.0,random_dot,59.930839814476265,
left,left,accuracy,,,,,0.0,0.0,0.0,0.0,0.0,0.0,0.0,0.0,183.9643938000081,,,,,,,,,183.95780929998728,185.16408570000203,185.96512199996505,185.94823509996056,185.9482564000064,185.96512199996505,185.96512199996505,185.96512199996505,188.11617349996231,right,0.0,23.50109610002255,,,,,,,,,,,,,,,,,,,,,181.5484459999716,181.56854189996372,181.56854189996372,183.9494657999603,space,23.731317099998705,,,,,,sub-232,1.0,random_dot,59.930839814476265,
right,right,accuracy,,,,,0.0,0.0,0.0,0.0,0.0,1.0,1.0,1.0,188.1305044000037,,,,,,,,,188.11779429996383,188.23060059995623,189.0314088999876,189.01451859995723,189.01454519998515,189.0314088999876,189.0314088999876,189.0314088999876,193.24876539997055,right,1.0,25.56321470002877,,,,,,,,,,,,,,,,,,,,,,,,,,,,,,,,sub-232,1.0,random_dot,59.930839814476265,
left,left,accuracy,,,,,0.0,0.0,0.0,0.0,1.0,0.0,2.0,0.0,193.26331469998692,,,,,,,,,193.25008579995483,194.46307050000175,195.2639664000017,195.2471374999732,195.2471641000011,195.2639664000017,195.2639664000017,195.2639664000017,197.9814567999565,left,1.0,24.05677460000152,,,,,,,,,,,,,,,,,,,,,,,,,,,,,,,,sub-232,1.0,random_dot,59.930839814476265,
right,right,accuracy,,,,,0.0,0.0,0.0,0.0,1.0,1.0,3.0,1.0,197.99593249999447,,,,,,,,,197.98279300000289,198.79610779997893,199.5966451999848,199.579791199998,199.579820199986,199.5966451999848,199.5966451999848,199.5966451999848,200.49814579996743,right,1.0,22.24436999997124,,,,,,,,,,,,,,,,,,,,,,,,,,,,,,,,sub-232,1.0,random_dot,59.930839814476265,
left,left,accuracy,,,,,0.0,0.0,0.0,0.0,2.0,0.0,4.0,0.0,200.5123867999646,,,,,,,,,200.49964749999344,201.3122025000048,202.1129718999728,202.09612750000088,202.09615619998655,202.1129718999728,202.1129718999728,202.1129718999728,202.99769309995463,right,0.0,22.23345200001495,,,,,,,,,,,,,,,,,,,,,,,,,,,,,,,,sub-232,1.0,random_dot,59.930839814476265,
right,right,accuracy,,,,,0.0,0.0,0.0,0.0,2.0,1.0,5.0,1.0,203.0118264000048,,,,,,,,,202.99914559995523,204.2119093000074,205.01244799996493,204.9959946000017,204.9960235999897,205.01244799996493,205.01244799996493,205.01244799996493,206.16369009995836,right,1.0,22.502887000038758,,,,,,,,,,,,,,,,,,,,,,,,,,,,,,,,sub-232,1.0,random_dot,59.930839814476265,
right,right,accuracy,,,,,0.0,0.0,0.0,0.0,3.0,0.0,6.0,1.0,206.17858209996484,,,,,,,,,206.1645741999964,207.3780076999683,208.1788381999941,208.1621742999996,208.1622033999884,208.1788381999941,208.1788381999941,208.1788381999941,209.4794777999632,right,1.0,22.64316790003795,,,,,,,,,,,,,,,,,,,,,,,,,,,,,,,,sub-232,1.0,random_dot,59.930839814476265,
left,left,accuracy,,,,,0.0,0.0,0.0,0.0,3.0,1.0,7.0,0.0,209.49430119997123,,,,,,,,,209.48035530000925,210.69447280000892,211.49508149997564,211.47820879996289,211.47823519998929,211.49508149997564,211.49508149997564,211.49508149997564,212.4960772999912,right,0.0,22.34120210004039,,,,,,,,,,,,,,,,,,,,,,,,,,,,,,,,sub-232,1.0,random_dot,59.930839814476265,
left,left,accuracy,,,,,0.0,0.0,0.0,0.0,4.0,0.0,8.0,0.0,212.5106317999889,,,,,,,,,212.49736469995696,213.3106665999512,214.1114131999784,214.0945923999534,214.09461819997523,214.1114131999784,214.1114131999784,214.1114131999784,215.6458964999765,left,1.0,22.87571140006185,,,,,,,,,,,,,,,,,,,,,,,,,,,,,,,,sub-232,1.0,random_dot,59.930839814476265,
right,right,accuracy,,,,,0.0,0.0,0.0,0.0,4.0,1.0,9.0,1.0,215.66030930000124,,,,,,,,,215.647166699986,216.4602748999605,217.2610382999992,217.2441289999988,217.24415359995328,217.2610382999992,217.2610382999992,217.2610382999992,218.0283283999888,right,1.0,22.104810799995903,,,,,,,,,,,,,,,,,,,,,,,,,,,,,,,,sub-232,1.0,random_dot,59.930839814476265,
left,left,accuracy,,,,,0.0,0.0,0.0,0.0,5.0,0.0,10.0,0.0,218.0433124999981,,,,,,,,,218.02917170000728,218.84331929998007,219.6440341999987,219.6271631999989,219.62719279999143,219.6440341999987,219.6440341999987,219.6440341999987,220.44526269997004,right,0.0,22.14483930001734,,,,,,,,,,,,,,,,,,,,,,,,,,,,,,,,sub-232,1.0,random_dot,59.930839814476265,
right,right,accuracy,,,,,0.0,0.0,0.0,0.0,5.0,1.0,11.0,1.0,220.45969579997472,,,,,,,,,220.44672319997332,221.2597416999633,222.06055729999207,222.04366949998075,222.0436994999764,222.06055729999207,222.06055729999207,222.06055729999207,223.0449258000008,right,1.0,22.326844300027005,,,,,,,,,,,,,,,,,,,,,,,,,,,,,,,,sub-232,1.0,random_dot,59.930839814476265,
left,left,accuracy,,,,,0.0,0.0,0.0,0.0,6.0,0.0,12.0,0.0,223.0593739000033,,,,,,,,,223.04639259999385,224.25917819997997,225.06008939997992,225.0431999999564,225.04324049997376,225.06008939997992,225.06008939997992,225.06008939997992,226.27774419996425,right,0.0,22.559152100002397,,,,,,,,,,,,,,,,,,,,,,,,,,,,,,,,sub-232,1.0,random_dot,59.930839814476265,
right,right,accuracy,,,,,0.0,0.0,0.0,0.0,6.0,1.0,13.0,1.0,226.29237089998787,,,,,,,,,226.27925269998377,226.6422182999668,227.4430890000076,227.42637309996644,227.42639139998937,227.4430890000076,227.4430890000076,227.4430890000076,228.1770184999914,right,1.0,22.070547600043938,,,,,,,,,,,,,,,,,,,,,,,,,,,,,,,,sub-232,1.0,random_dot,59.930839814476265,
left,left,accuracy,,,,,0.0,0.0,0.0,0.0,7.0,0.0,14.0,0.0,228.1921810999629,,,,,,,,,228.17790549999336,228.29211350000696,229.0928128999658,229.07611429999812,229.0761389999534,229.0928128999658,229.0928128999658,229.0928128999658,229.8774478999549,right,0.0,22.12453859997913,,,,,,,,,,,,,,,,,,,,,,,,,,,,,,,,sub-232,1.0,random_dot,59.930839814476265,
right,right,accuracy,,,,,0.0,0.0,0.0,0.0,7.0,1.0,15.0,1.0,229.8918784999987,,,,,,,,,229.87872009997955,229.9919292999548,230.7925699999905,230.77609369996932,230.776130299957,230.7925699999905,230.7925699999905,230.7925699999905,231.56065539998235,right,1.0,22.11686970002484,,,,,,,,,,,,,,,,,,,,,,,,,,,,,,,,sub-232,1.0,random_dot,59.930839814476265,
left,left,accuracy,,,,,0.0,0.0,0.0,0.0,8.0,0.0,16.0,0.0,231.57483539998063,,,,,,,,,231.56202839995967,231.67504729999928,232.47576790000312,232.45900149998488,232.4590290999622,232.47576790000312,232.47576790000312,232.47576790000312,237.32652379997307,left,1.0,26.1989766000188,,,,,,,,,,,,,,,,,,,,,,,,,,,,,,,,sub-232,1.0,random_dot,59.930839814476265,
right,right,accuracy,,,,,0.0,0.0,0.0,0.0,8.0,1.0,17.0,1.0,237.3409357999917,,,,,,,,,237.3279121000087,237.4409298999817,238.24170719995163,238.22478329995647,238.2248115999973,238.24170719995163,238.24170719995163,238.24170719995163,239.8430350999697,right,1.0,22.950821500038728,,,,,,,,,,,,,,,,,,,,,,,,,,,,,,,,sub-232,1.0,random_dot,59.930839814476265,
right,right,accuracy,,,,,0.0,0.0,0.0,0.0,9.0,0.0,18.0,1.0,239.85710379999364,,,,,,,,,239.84441530000183,240.2073240999598,241.00798189995112,240.9910496000084,240.99110119999384,241.00798189995112,241.00798189995112,241.00798189995112,242.7924161999836,right,1.0,23.133474199974444,,,,,,,,,,,,,,,,,,,,,,,,,,,,,,,,sub-232,1.0,random_dot,59.930839814476265,
left,left,accuracy,,,,,0.0,0.0,0.0,0.0,9.0,1.0,19.0,0.0,242.8067543999641,,,,,,,,,242.7937455999781,244.0066652999958,244.8076233000029,244.79072799999267,244.79075619997457,244.8076233000029,244.8076233000029,244.8076233000029,249.2247787999804,left,1.0,25.764936900057364,,,,,,,,,,,,,,,,,,,,,,,,,,,,,,,,sub-232,1.0,random_dot,59.930839814476265,
left,left,accuracy,,,,,0.0,0.0,0.0,0.0,10.0,0.0,20.0,0.0,249.2393151999568,,,,,,,,,249.2261254999903,249.33939499995904,250.14015609998023,250.12323099997596,250.1232704999857,250.14015609998023,250.14015609998023,250.14015609998023,251.54180219996488,right,0.0,22.752870900032576,,,,,,,,,,,,,,,,,,,,,,,,,,,,,,,,sub-232,1.0,random_dot,59.930839814476265,
right,right,accuracy,,,,,0.0,0.0,0.0,0.0,10.0,1.0,21.0,1.0,251.5556644999888,,,,,,,,,251.54322299995687,251.65548039996065,252.45646939997096,252.43960300000617,252.43963119998807,252.45646939997096,252.45646939997096,252.45646939997096,253.841031799966,right,1.0,22.722784200042952,,,,,,,,,,,,,,,,,,,,,,,,,,,,,,,,sub-232,1.0,random_dot,59.930839814476265,
left,left,accuracy,,,,,0.0,0.0,0.0,0.0,11.0,0.0,22.0,0.0,253.85557209997205,,,,,,,,,253.8424235999701,254.6551635999931,255.45632199995453,255.43902220000743,255.43904219998512,255.45632199995453,255.45632199995453,255.45632199995453,256.606844599999,right,0.0,22.49518710002303,,,,,,,,,,,,,,,,,,,,,,,,,,,,,,,,sub-232,1.0,random_dot,59.930839814476265,
right,right,accuracy,,,,,0.0,0.0,0.0,0.0,11.0,1.0,23.0,1.0,256.6215724999784,,,,,,,,,256.60790269996505,257.4215760999941,258.2224173999857,258.2056248000008,258.20564800000284,258.2224173999857,258.2224173999857,258.2224173999857,258.70679129997734,right,1.0,21.82946580002317,,,,,,,,,,,,,,,,,,,,,,,,,,,,,,,,sub-232,1.0,random_dot,59.930839814476265,
left,left,accuracy,,,,,0.0,0.0,0.0,0.0,12.0,0.0,24.0,0.0,258.7215064999764,,,,,,,,,258.70762229996035,258.8214402999729,259.622177399986,259.6054529999965,259.6054735999787,259.622177399986,259.622177399986,259.622177399986,260.58991320000496,right,0.0,22.30449220002629,,,,,,,,,,,,,,,,,,,,,,,,,,,,,,,,sub-232,1.0,random_dot,59.930839814476265,
right,right,accuracy,,,,,0.0,0.0,0.0,0.0,12.0,1.0,25.0,1.0,260.6043003000086,,,,,,,,,260.5909005999565,260.7044850999955,261.5051408999716,261.4885463999817,261.4885731999529,261.5051408999716,261.5051408999716,261.5051408999716,262.9062077999697,right,1.0,22.74162500002421,,,,,,,,,,,,,,,,,,,,,,,,,,,,,,,,sub-232,1.0,random_dot,59.930839814476265,
right,right,accuracy,,,,,0.0,0.0,0.0,0.0,13.0,0.0,26.0,1.0,262.92066269996576,,,,,,,,,262.9075065999641,263.0208180999616,263.82164889998967,263.8048908999772,263.8049173000036,263.82164889998967,263.82164889998967,263.82164889998967,264.5228327999939,right,1.0,22.037242399994284,,,,,,,,,,,,,,,,,,,,,,,,,,,,,,,,sub-232,1.0,random_dot,59.930839814476265,
left,left,accuracy,,,,,0.0,0.0,0.0,0.0,13.0,1.0,27.0,0.0,264.5373851999757,,,,,,,,,264.52417449996574,265.3374152999604,266.1379829999641,266.1212680999888,266.1212933000061,266.1379829999641,266.1379829999641,266.1379829999641,266.80605529999593,right,0.0,22.01636820001295,,,,,,,,,,,,,,,,,,,,,,,,,,,,,,,,sub-232,1.0,random_dot,59.930839814476265,
left,left,accuracy,,,,,0.0,0.0,0.0,0.0,14.0,0.0,28.0,0.0,266.8203530999599,,,,,,,,,266.8073041999596,266.9204645999707,267.721249299997,267.70433779997984,267.70436289999634,267.721249299997,267.721249299997,267.721249299997,269.17205180000747,right,0.0,22.792719200020656,,,,,,,,,,,,,,,,,,,,,,,,,,,,,,,,sub-232,1.0,random_dot,59.930839814476265,
right,right,accuracy,,,,,0.0,0.0,0.0,0.0,14.0,1.0,29.0,1.0,269.186760099954,,,,,,,,,269.1733111999929,269.5367038999684,270.3375135999522,270.32080439996207,270.32083350000903,270.3375135999522,270.3375135999522,270.3375135999522,271.8556192999822,right,1.0,22.86365970002953,,,,,,,,,,,,,,,,,,,,,,,,,,,,,,,,sub-232,1.0,random_dot,59.930839814476265,
left,left,accuracy,,,,,0.0,0.0,0.0,0.0,15.0,0.0,30.0,0.0,271.86963339999784,,,,,,,,,271.85707999998704,272.21959489997244,273.02052489999915,273.0036856000079,273.0037251999602,273.02052489999915,273.02052489999915,273.02052489999915,274.038439499971,left,1.0,22.366883800015785,,,,,,,,,,,,,,,,,,,,,,,,,,,,,,,,sub-232,1.0,random_dot,59.930839814476265,
right,right,accuracy,,,,,0.0,0.0,0.0,0.0,15.0,1.0,31.0,1.0,274.05256169999484,,,,,,,,,274.0399066999671,275.2525691000046,276.0534595999634,276.0365792000084,276.036608399998,276.0534595999634,276.0534595999634,276.0534595999634,276.6713785000029,right,1.0,21.96490449999692,,,,,,,,,,,,,,,,,,,,,,,,,,,,,,,,sub-232,1.0,random_dot,59.930839814476265,
right,right,accuracy,,,,,0.0,0.0,0.0,0.0,16.0,0.0,32.0,1.0,276.68563729996094,,,,,,,,,276.672870099952,277.4858028999879,278.28651079995325,278.26947110000765,278.26949639996747,278.28651079995325,278.28651079995325,278.28651079995325,280.3541564999614,left,0.0,23.4076315999846,,,,,,,,,,,,,,,,,,,,,,,,,,,,,,,,sub-232,1.0,random_dot,59.930839814476265,
left,left,accuracy,,,,,0.0,0.0,0.0,0.0,16.0,1.0,33.0,0.0,280.36864870000863,,,,,,,,,280.35539049998624,280.46872239996446,281.2691619999823,281.25208679999923,281.25210099999094,281.2691619999823,281.2691619999823,281.2691619999823,284.7036423999816,right,0.0,24.773066800029483,,,,,,,,,,,,,,,,,,,,,,,,,,,,,,,,sub-232,1.0,random_dot,59.930839814476265,
left,left,accuracy,,,,,0.0,0.0,0.0,0.0,17.0,0.0,34.0,0.0,284.71801119996235,,,,,,,,,284.70488569996087,284.81817629997386,285.6188789999578,285.6020948999794,285.60211969999364,285.6188789999578,285.6188789999578,285.6188789999578,287.3700903999852,left,1.0,23.09600020002108,,,,,,,,,,,,,,,,,,,,,,,,,,,,,,,,sub-232,1.0,random_dot,59.930839814476265,
right,right,accuracy,,,,,0.0,0.0,0.0,0.0,17.0,1.0,35.0,1.0,287.38446919998387,,,,,,,,,287.37161939998623,288.1842924999655,288.98503569996683,288.96830199996475,288.968331299955,288.98503569996683,288.98503569996683,288.98503569996683,289.9031415999634,right,1.0,22.26922450005077,,,,,,,,,,,,,,,,,,,,,,,,,,,,,,,,sub-232,1.0,random_dot,59.930839814476265,
right,right,accuracy,,,,,0.0,0.0,0.0,0.0,18.0,0.0,36.0,1.0,289.9173360999557,,,,,,,,,289.9046365999966,290.2674562999746,291.0681561999954,291.05127659998834,291.0513053999748,291.0681561999954,291.0681561999954,291.0681561999954,293.4861660999595,right,1.0,23.76737100002356,,,,,,,,,,,,,,,,,,,,,,,,,,,,,,,,sub-232,1.0,random_dot,59.930839814476265,
left,left,accuracy,,,,,0.0,0.0,0.0,0.0,18.0,1.0,37.0,0.0,293.50016439997125,,,,,,,,,293.4876206999761,293.8502537999884,294.6510730999871,294.634318299999,294.6343479999923,294.6510730999871,294.6510730999871,294.6510730999871,296.58576739998534,right,0.0,23.270956800028216,,,,,,,,,,,,,,,,,,,,,,,,,,,,,,,,sub-232,1.0,random_dot,59.930839814476265,
right,right,accuracy,,,,,0.0,0.0,0.0,0.0,19.0,0.0,38.0,1.0,296.5997753999545,,,,,,,,,296.5872031999752,296.94977099995594,297.75063319999026,297.7338212999748,297.7338525999803,297.75063319999026,297.75063319999026,297.75063319999026,299.035138599982,right,1.0,22.620681800006423,,,,,,,,,,,,,,,,,,,,,,,,,,,,,,,,sub-232,1.0,random_dot,59.930839814476265,
left,left,accuracy,,,,,0.0,0.0,0.0,0.0,19.0,1.0,39.0,0.0,299.049573700002,,,,,,,,,299.0365830999799,300.2494172999868,301.0501713999547,301.0334540999611,301.0334837999544,301.0501713999547,301.0501713999547,301.0501713999547,301.75173329998506,right,0.0,22.04738450003788,,,,,,,,,,,,,,,,,,,,,,,,,,,,,,,,sub-232,1.0,random_dot,59.930839814476265,
left,left,accuracy,,,,,0.0,0.0,0.0,0.0,20.0,0.0,40.0,0.0,301.7658478000085,,,,,,,,,301.75319879996823,302.1157838999643,302.9166439999826,302.89977139997063,302.89980079996167,302.9166439999826,302.9166439999826,302.9166439999826,303.2845629999647,left,1.0,21.710231199976988,,,,,,,,,,,,,,,,,,,,,,,,,,,,,,,,sub-232,1.0,random_dot,59.930839814476265,
right,right,accuracy,,,,,0.0,0.0,0.0,0.0,20.0,1.0,41.0,1.0,303.2989522999851,,,,,,,,,303.2860216999543,303.6489740999532,304.44974019995425,304.43285320000723,304.4328829000005,304.44974019995425,304.44974019995425,304.44974019995425,305.1177926999517,right,1.0,22.01511850004317,,,,,,,,,,,,,,,,,,,,,,,,,,,,,,,,sub-232,1.0,random_dot,59.930839814476265,
right,right,accuracy,,,,,0.0,0.0,0.0,0.0,21.0,0.0,42.0,1.0,305.13222789997235,,,,,,,,,305.1193046999979,305.2320345999906,306.0328695999924,306.01601089996984,306.01603989995783,306.0328695999924,306.0328695999924,306.0328695999924,309.4666513999691,right,1.0,24.783572900050785,,,,,,,,,,,,,,,,,,,,,,,,,,,,,,,,sub-232,1.0,random_dot,59.930839814476265,
left,left,accuracy,,,,,0.0,0.0,0.0,0.0,21.0,1.0,43.0,0.0,309.481459099974,,,,,,,,,309.467491599964,310.281491199974,311.0823231999529,311.0655535999685,311.0655812000041,311.0823231999529,311.0823231999529,311.0823231999529,311.95007419999456,right,0.0,22.21356000006199,,,,,,,,,,,,,,,,,,,,,,,,,,,,,,,,sub-232,1.0,random_dot,59.930839814476265,
right,right,accuracy,,,,,0.0,0.0,0.0,0.0,22.0,0.0,44.0,1.0,311.9645079000038,,,,,,,,,311.951426899992,312.0645172999939,312.8653843000065,312.8485809999984,312.848608899978,312.8653843000065,312.8653843000065,312.8653843000065,316.3328617999796,left,0.0,24.816940000047907,,,,,,,,,,,,,,,,,,,,,,,,,,,,,,,,sub-232,1.0,random_dot,59.930839814476265,
left,left,accuracy,,,,,0.0,0.0,0.0,0.0,22.0,1.0,45.0,0.0,316.3473822000087,,,,,,,,,316.3342232999857,316.69722460000776,317.4980431000004,317.4810992999701,317.4811270000064,317.4980431000004,317.4980431000004,317.4980431000004,319.5830203999649,right,0.0,23.423205600003712,,,,,,,,,,,,,,,,,,,,,,,,,,,,,,,,sub-232,1.0,random_dot,59.930839814476265,
left,left,accuracy,,,,,0.0,0.0,0.0,0.0,23.0,0.0,46.0,0.0,319.59680229995865,,,,,,,,,319.5851139999577,319.9467670999584,320.7475958999712,320.7310503000044,320.7310846999753,320.7475958999712,320.7475958999712,320.7475958999712,324.2985841999762,right,0.0,24.886289299989585,,,,,,,,,,,,,,,,,,,,,,,,,,,,,,,,sub-232,1.0,random_dot,59.930839814476265,
right,right,accuracy,,,,,0.0,0.0,0.0,0.0,23.0,1.0,47.0,1.0,324.3127729999833,,,,,,,,,324.3002503999742,325.512871599989,326.3138303000014,326.29679880000185,326.2968166999636,326.3138303000014,326.3138303000014,326.3138303000014,328.04800809995504,right,1.0,23.07922170002712,,,,,,,,,,,,,,,,,,,,,,,,,,,,,,,,sub-232,1.0,random_dot,59.930839814476265,
left,left,accuracy,,,,,0.0,0.0,0.0,0.0,24.0,0.0,48.0,0.0,328.0623292999808,,,,,,,,,328.0491124999826,328.86247469997033,329.66315269999905,329.6465895999572,329.6466255999985,329.66315269999905,329.66315269999905,329.66315269999905,331.0476021000068,right,0.0,22.72529360000044,,,,,,,,,,,,,,,,,,,,,,,,,,,,,,,,sub-232,1.0,random_dot,59.930839814476265,
right,right,accuracy,,,,,0.0,0.0,0.0,0.0,24.0,1.0,49.0,1.0,331.0620702999877,,,,,,,,,331.0483277000021,331.8620818000054,332.66283749998547,332.6461272999877,332.64616060000844,332.66283749998547,332.66283749998547,332.66283749998547,333.4140536999912,right,1.0,22.087651400011964,,,,,,,,,,,,,,,,,,,,,,,,,,,,,,,,sub-232,1.0,random_dot,59.930839814476265,
left,left,accuracy,,,,,0.0,0.0,0.0,0.0,25.0,0.0,50.0,0.0,333.4285718000028,,,,,,,,,333.4153521999833,334.22825549996924,335.0292535999906,335.01236749999225,335.01239910000004,335.0292535999906,335.0292535999906,335.0292535999906,335.8803098999779,right,0.0,22.186452500056475,,,,,,,,,,,,,,,,,,,,,,,,,,,,,,,,sub-232,1.0,random_dot,59.930839814476265,
right,right,accuracy,,,,,0.0,0.0,0.0,0.0,25.0,1.0,51.0,1.0,335.8947305000038,,,,,,,,,335.8819221999729,337.09462069999427,337.89549439999973,337.878742699977,337.8787745999871,337.89549439999973,337.89549439999973,337.89549439999973,340.4964564999682,right,1.0,23.94323949998943,,,,,,,,,,,,,,,,,,,,,,,,,,,,,,,,sub-232,1.0,random_dot,59.930839814476265,
left,left,accuracy,,,,,0.0,0.0,0.0,0.0,26.0,0.0,52.0,0.0,340.5107888999628,,,,,,,,,340.49785009998595,340.8607992999605,341.6617060999852,341.64477899996564,341.6448065000004,341.6617060999852,341.6617060999852,341.6617060999852,342.36288709996734,right,0.0,22.03705980000086,,,,,,,,,,,,,,,,,,,,,,,,,,,,,,,,sub-232,1.0,random_dot,59.930839814476265,
right,right,accuracy,,,,,0.0,0.0,0.0,0.0,26.0,1.0,53.0,1.0,342.3771942000021,,,,,,,,,342.3642665999941,342.477181299997,343.2780078999931,343.26136339997174,343.2613913999521,343.2780078999931,343.2780078999931,343.2780078999931,346.36237759998767,right,1.0,24.421078099985607,,,,,,,,,,,,,,,,,,,,,,,,,,,,,,,,sub-232,1.0,random_dot,59.930839814476265,
right,right,accuracy,,,,,0.0,0.0,0.0,0.0,27.0,0.0,54.0,1.0,346.3768485999899,,,,,,,,,346.36366999999154,347.1767879999825,347.97743629995966,347.9606628000038,347.9606907999841,347.97743629995966,347.97743629995966,347.97743629995966,348.6789992999984,right,1.0,22.05096909997519,,,,,,,,,,,,,,,,,,,,,,,,,,,,,,,,sub-232,1.0,random_dot,59.930839814476265,
left,left,accuracy,,,,,0.0,0.0,0.0,0.0,27.0,1.0,55.0,0.0,348.69319079996785,,,,,,,,,348.6804242999642,349.04310239996994,349.84393559995806,349.82716499996604,349.8271922999993,349.84393559995806,349.84393559995806,349.84393559995806,351.5283616000088,right,0.0,23.03298340004403,,,,,,,,,,,,,,,,,,,,,,,,,,,,,,,,sub-232,1.0,random_dot,59.930839814476265,
right,right,accuracy,,,,,0.0,0.0,0.0,0.0,28.0,0.0,56.0,1.0,351.5428506999742,,,,,,,,,351.5297527000075,352.3425572999986,353.1433883999707,353.1267978999531,353.1268256999901,353.1433883999707,353.1433883999707,353.1433883999707,354.2947259999928,left,0.0,22.50265100004617,,,,,,,,,,,,,,,,,,,,,,,,,,,,,,,,sub-232,1.0,random_dot,59.930839814476265,
left,left,accuracy,,,,,0.0,0.0,0.0,0.0,28.0,1.0,57.0,0.0,354.30912739998894,,,,,,,,,354.2960971999564,354.6589204999618,355.45983209996484,355.4429011999746,355.44293049996486,355.45983209996484,355.45983209996484,355.45983209996484,357.7774472999736,right,0.0,23.660101900051814,,,,,,,,,,,,,,,,,,,,,,,,,,,,,,,,sub-232,1.0,random_dot,59.930839814476265,
left,left,accuracy,,,,,0.0,0.0,0.0,0.0,29.0,0.0,58.0,0.0,357.7919255999732,,,,,,,,,357.77880339999683,358.1419625999988,358.94280219997745,358.92586259997915,358.9258906999603,358.94280219997745,358.94280219997745,358.94280219997745,363.7765415000031,left,1.0,26.170368499995675,,,,,,,,,,,,,,,,,,,,,,,,,,,,,,,,sub-232,1.0,random_dot,59.930839814476265,
right,right,accuracy,,,,,0.0,0.0,0.0,0.0,29.0,1.0,59.0,1.0,363.7910298999632,,,,,,,,,363.7773558999761,363.8914062999538,364.6920184000046,364.6753866999643,364.6754218999995,364.6920184000046,364.6920184000046,364.6920184000046,367.7592569999979,left,0.0,24.418210600037128,,,,,,,,,,,,,,,,,,,,,,,,,,,,,,,,sub-232,1.0,random_dot,59.930839814476265,
,,accuracy,,,,,0.0,0.0,0.0,0.0,,,,,,,,,,,,,,,,,,,,,,,,,,,,,,,,,,,,,,,,,,,,,,,,,,,,,,,,,sub-232,1.0,random_dot,59.930839814476265,
right,right,speed,,,,,0.0,1.0,1.0,1.0,0.0,0.0,0.0,1.0,458.2787612999673,,,,,,,,,458.2716271999525,458.37866029998986,459.17973370000254,459.1628526999848,459.1628768999944,459.17973370000254,459.17973370000254,459.17973370000254,459.5308429999859,right,1.0,21.69556730001932,,,,,,,,,,,,,,,,,,,,,367.7600239999592,367.7739569999976,367.7739569999976,458.263615200005,space,111.82933860004414,,,,,,sub-232,1.0,random_dot,59.930839814476265,
left,left,speed,,,,,0.0,1.0,1.0,1.0,0.0,1.0,1.0,0.0,459.5452579999692,,,,,,,,,459.5321475999663,460.7454484999762,461.5461597999674,461.5293143999879,461.5293371999869,461.5461597999674,461.5461597999674,461.5461597999674,461.8640541000059,left,1.0,21.65335259999847,,,,,,,,,,,,,,,,,,,,,,,,,,,,,,,,sub-232,1.0,random_dot,59.930839814476265,
left,left,speed,,,,,0.0,1.0,1.0,1.0,1.0,0.0,2.0,0.0,461.8783142999746,,,,,,,,,461.8651986999903,463.078228599974,463.87907199998153,463.86219049996,463.8622126999544,463.87907199998153,463.87907199998153,463.87907199998153,464.18008039996494,right,0.0,21.645788899972104,,,,,,,,,,,,,,,,,,,,,,,,,,,,,,,,sub-232,1.0,random_dot,59.930839814476265,
right,right,speed,,,,,0.0,1.0,1.0,1.0,1.0,1.0,3.0,1.0,464.1948417999665,,,,,,,,,464.1811458999873,464.5448828999652,465.3456699999515,465.3288391999668,465.3288611999597,465.3456699999515,465.3456699999515,465.3456699999515,467.2133615000057,right,1.0,23.21779060002882,,,,,,,,,,,,,,,,,,,,,,,,,,,,,,,,sub-232,1.0,random_dot,59.930839814476265,
right,right,speed,,,,,0.0,1.0,1.0,1.0,2.0,0.0,4.0,1.0,467.2276816999656,,,,,,,,,467.2144574999693,467.57765419996576,468.3785191999632,468.3617547999602,468.36177769995993,468.3785191999632,468.3785191999632,468.3785191999632,470.9126211999682,left,0.0,23.87208639999153,,,,,,,,,,,,,,,,,,,,,,,,,,,,,,,,sub-232,1.0,random_dot,59.930839814476265,
left,left,speed,,,,,0.0,1.0,1.0,1.0,2.0,1.0,5.0,0.0,470.927048499987,,,,,,,,,470.9137201999547,471.02727530000266,471.8281385999872,471.811327399977,471.8113504999783,471.8281385999872,471.8281385999872,471.8281385999872,474.6288147000014,right,0.0,24.138204500020947,,,,,,,,,,,,,,,,,,,,,,,,,,,,,,,,sub-232,1.0,random_dot,59.930839814476265,
right,right,speed,,,,,0.0,1.0,1.0,1.0,3.0,0.0,6.0,1.0,474.6432673999807,,,,,,,,,474.6299510999816,474.9933851999813,475.79434789996594,475.7771031999728,475.77712449996034,475.79434789996594,475.79434789996594,475.79434789996594,504.4917817999958,right,1.0,50.03414579998935,,,,,,480.77690589998383,,,,,,,,,,,,,,,,,,,,,,,,,,sub-232,1.0,random_dot,59.930839814476265,
left,left,speed,,,,,0.0,1.0,1.0,1.0,3.0,1.0,7.0,0.0,504.506239899958,,,,,,,,,504.4928996999515,505.7061341999797,506.507172899961,506.4901013000053,506.4901197999716,506.507172899961,506.507172899961,506.507172899961,506.5580603999552,right,0.0,21.392239800014067,,,,,,,,,,,,,,,,,,,,,,,,,,,,,,,,sub-232,1.0,random_dot,59.930839814476265,
right,right,speed,,,,,0.0,1.0,1.0,1.0,4.0,0.0,8.0,1.0,506.57293530000607,,,,,,,,,506.5589597999933,506.67298479995225,507.4737614999758,507.4565921999747,507.4566102999961,507.4737614999758,507.4737614999758,507.4737614999758,508.05783169995993,right,1.0,21.925724400032777,,,,,,,,,,,,,,,,,,,,,,,,,,,,,,,,sub-232,1.0,random_dot,59.930839814476265,
left,left,speed,,,,,0.0,1.0,1.0,1.0,4.0,1.0,9.0,0.0,508.0724206999876,,,,,,,,,508.05874809995294,509.2723650999833,510.073246999993,510.0562514999765,510.056278700009,510.073246999993,510.073246999993,510.073246999993,510.574083799962,right,0.0,21.83942940004636,,,,,,,,,,,,,,,,,,,,,,,,,,,,,,,,sub-232,1.0,random_dot,59.930839814476265,
left,left,speed,,,,,0.0,1.0,1.0,1.0,5.0,0.0,10.0,0.0,510.58883899997454,,,,,,,,,510.5753206000081,510.9387413999648,511.7396162999794,511.7227507999633,511.72277589997975,511.7396162999794,511.7396162999794,511.7396162999794,512.3409720999771,right,0.0,21.946924900054,,,,,,,,,,,,,,,,,,,,,,,,,,,,,,,,sub-232,1.0,random_dot,59.930839814476265,
right,right,speed,,,,,0.0,1.0,1.0,1.0,5.0,1.0,11.0,1.0,512.3553421999677,,,,,,,,,512.3422379999538,513.155177699984,513.9560969999875,513.9389318999602,513.9389501999831,513.9560969999875,513.9560969999875,513.9560969999875,514.8403026000015,right,1.0,22.229462200019043,,,,,,,,,,,,,,,,,,,,,,,,,,,,,,,,sub-232,1.0,random_dot,59.930839814476265,
left,left,speed,,,,,0.0,1.0,1.0,1.0,6.0,0.0,12.0,0.0,514.8549422000069,,,,,,,,,514.841248599987,516.0548488000059,516.8556217000005,516.8387504999992,516.8387740000035,516.8556217000005,516.8556217000005,516.8556217000005,518.4570044999709,right,0.0,22.952913400018588,,,,,,,,,,,,,,,,,,,,,,,,,,,,,,,,sub-232,1.0,random_dot,59.930839814476265,
right,right,speed,,,,,0.0,1.0,1.0,1.0,6.0,1.0,13.0,1.0,518.4709041999886,,,,,,,,,518.4580790000036,518.8212262999732,519.6218546999735,519.6051237999927,519.6051548999967,519.6218546999735,519.6218546999735,519.6218546999735,520.7067313999869,right,1.0,22.42880440002773,,,,,,,,,,,,,,,,,,,,,,,,,,,,,,,,sub-232,1.0,random_dot,59.930839814476265,
left,left,speed,,,,,0.0,1.0,1.0,1.0,7.0,0.0,14.0,0.0,520.7207722999738,,,,,,,,,520.7082806999679,521.5208326999564,522.3215047999984,522.3044463999686,522.3044650999946,522.3215047999984,522.3215047999984,522.3215047999984,522.9724122000043,left,1.0,21.99507740000263,,,,,,,,,,,,,,,,,,,,,,,,,,,,,,,,sub-232,1.0,random_dot,59.930839814476265,
right,right,speed,,,,,0.0,1.0,1.0,1.0,7.0,1.0,15.0,1.0,522.9870370999561,,,,,,,,,522.9732910000021,523.3369630000088,524.1380318999873,524.1212068999885,524.1212287999806,524.1380318999873,524.1380318999873,524.1380318999873,526.1221248999937,right,1.0,23.32025310001336,,,,,,,,,,,,,,,,,,,,,,,,,,,,,,,,sub-232,1.0,random_dot,59.930839814476265,
left,left,speed,,,,,0.0,1.0,1.0,1.0,8.0,0.0,16.0,0.0,526.1366584000061,,,,,,,,,526.1232446999638,527.3366422999534,528.1375072000083,528.1206561999861,528.1206780999782,528.1375072000083,528.1375072000083,528.1375072000083,529.5884216999984,right,0.0,22.7936919000349,,,,,,,,,,,,,,,,,,,,,,,,,,,,,,,,sub-232,1.0,random_dot,59.930839814476265,
right,right,speed,,,,,0.0,1.0,1.0,1.0,8.0,1.0,17.0,1.0,529.6031232999521,,,,,,,,,529.5895664999844,529.7031901999726,530.5038115999778,530.487026799994,530.487048799987,530.5038115999778,530.5038115999778,530.5038115999778,532.4546237000031,right,1.0,23.28681429999415,,,,,,,,,,,,,,,,,,,,,,,,,,,,,,,,sub-232,1.0,random_dot,59.930839814476265,
right,right,speed,,,,,0.0,1.0,1.0,1.0,9.0,0.0,18.0,1.0,532.4690942000016,,,,,,,,,532.4557394000003,532.5694583999575,533.3701201999793,533.3532890999923,533.3533112999867,533.3701201999793,533.3701201999793,533.3701201999793,534.1378339999937,right,1.0,22.11324540001806,,,,,,,,,,,,,,,,,,,,,,,,,,,,,,,,sub-232,1.0,random_dot,59.930839814476265,
left,left,speed,,,,,0.0,1.0,1.0,1.0,9.0,1.0,19.0,0.0,534.1522849999601,,,,,,,,,534.1389740000013,534.502465699974,535.3033043000032,535.2861877999967,535.2862100999919,535.3033043000032,535.3033043000032,535.3033043000032,537.6203331999714,right,0.0,23.66463449998992,,,,,,,,,,,,,,,,,,,,,,,,,,,,,,,,sub-232,1.0,random_dot,59.930839814476265,
left,left,speed,,,,,0.0,1.0,1.0,1.0,10.0,0.0,20.0,0.0,537.6352573999902,,,,,,,,,537.6213597999886,537.7354959999793,538.5361513999524,538.5192451999756,538.5192676999723,538.5361513999524,538.5361513999524,538.5361513999524,540.7035474999575,right,0.0,23.514061200025026,,,,,,,,,,,,,,,,,,,,,,,,,,,,,,,,sub-232,1.0,random_dot,59.930839814476265,
right,right,speed,,,,,0.0,1.0,1.0,1.0,10.0,1.0,21.0,1.0,540.7180218999856,,,,,,,,,540.704663499957,541.0682286999654,541.8690272999811,541.8521886999952,541.8522106999881,541.8690272999811,541.8690272999811,541.8690272999811,544.5363610999775,right,1.0,24.013970800035167,,,,,,,,,,,,,,,,,,,,,,,,,,,,,,,,sub-232,1.0,random_dot,59.930839814476265,
left,left,speed,,,,,0.0,1.0,1.0,1.0,11.0,0.0,22.0,0.0,544.5511677999748,,,,,,,,,544.5372417999897,544.6513212999562,545.4518696999876,545.4349383999943,545.4349607999902,545.4518696999876,545.4518696999876,545.4518696999876,548.3526828999748,right,0.0,24.2506418999983,,,,,,,,,,,,,,,,,,,,,,,,,,,,,,,,sub-232,1.0,random_dot,59.930839814476265,
right,right,speed,,,,,0.0,1.0,1.0,1.0,11.0,1.0,23.0,1.0,548.3673236999894,,,,,,,,,548.3537709999946,548.7171696999576,549.5181249000016,549.501187399961,549.50121019996,549.5181249000016,549.5181249000016,549.5181249000016,550.1188610999961,right,1.0,21.94144290004624,,,,,,,,,,,,,,,,,,,,,,,,,,,,,,,,sub-232,1.0,random_dot,59.930839814476265,
right,right,speed,,,,,0.0,1.0,1.0,1.0,12.0,0.0,24.0,1.0,550.1335848000017,,,,,,,,,550.1199575999635,550.4835440999595,551.2844372999971,551.2676116999937,551.2676340999897,551.2844372999971,551.2844372999971,551.2844372999971,554.1184374999721,right,1.0,24.176514499995392,,,,,,,,,,,,,,,,,,,,,,,,,,,,,,,,sub-232,1.0,random_dot,59.930839814476265,
left,left,speed,,,,,0.0,1.0,1.0,1.0,12.0,1.0,25.0,0.0,554.1330126999528,,,,,,,,,554.1196326999925,554.9329938999726,555.7339160999982,555.7170932999579,555.7171153999516,555.7339160999982,555.7339160999982,555.7339160999982,556.4681585999788,right,0.0,22.075043599994387,,,,,,,,,,,,,,,,,,,,,,,,,,,,,,,,sub-232,1.0,random_dot,59.930839814476265,
right,right,speed,,,,,0.0,1.0,1.0,1.0,13.0,0.0,26.0,1.0,556.4826759999851,,,,,,,,,556.4692574999644,556.5828429999528,557.3837862999644,557.3668919999618,557.3669143999577,557.3837862999644,557.3837862999644,557.3837862999644,557.9681429999764,right,1.0,21.932751800050028,,,,,,,,,,,,,,,,,,,,,,,,,,,,,,,,sub-232,1.0,random_dot,59.930839814476265,
left,left,speed,,,,,0.0,1.0,1.0,1.0,13.0,1.0,27.0,0.0,557.9825267999549,,,,,,,,,557.9692758999881,559.1823880999582,559.9832476999727,559.9666323999991,559.966663500003,559.9832476999727,559.9832476999727,559.9832476999727,560.63465979998,right,0.0,22.00084880000213,,,,,,,,,,,,,,,,,,,,,,,,,,,,,,,,sub-232,1.0,random_dot,59.930839814476265,
left,left,speed,,,,,0.0,1.0,1.0,1.0,14.0,0.0,28.0,0.0,560.6490494000027,,,,,,,,,560.6361135999905,560.9989938999643,561.7997898999602,561.7828823999735,561.782911999966,561.7997898999602,561.7997898999602,561.7997898999602,562.8512604999705,right,0.0,22.402040200016927,,,,,,,,,,,,,,,,,,,,,,,,,,,,,,,,sub-232,1.0,random_dot,59.930839814476265,
right,right,speed,,,,,0.0,1.0,1.0,1.0,14.0,1.0,29.0,1.0,562.8652525999933,,,,,,,,,562.8527568999561,563.6654270999716,564.4661947999848,564.4492266000016,564.4492561999941,564.4661947999848,564.4661947999848,564.4661947999848,566.4674057000084,right,1.0,23.343062500003725,,,,,,,,,,,,,,,,,,,,,,,,,,,,,,,,sub-232,1.0,random_dot,59.930839814476265,
left,left,speed,,,,,0.0,1.0,1.0,1.0,15.0,0.0,30.0,0.0,566.4814236999955,,,,,,,,,566.4689158999827,567.28142319998,568.0823627999634,568.0655429000035,568.0655728999991,568.0823627999634,568.0823627999634,568.0823627999634,570.1669766999548,right,0.0,23.432252200029325,,,,,,,,,,,,,,,,,,,,,,,,,,,,,,,,sub-232,1.0,random_dot,59.930839814476265,
right,right,speed,,,,,0.0,1.0,1.0,1.0,15.0,1.0,31.0,1.0,570.1810923999874,,,,,,,,,570.1684334999882,570.2810011999682,571.0818845999893,571.0650705999578,571.0650997000048,571.0818845999893,571.0818845999893,571.0818845999893,575.3328795999987,right,1.0,25.591892900003582,,,,,,,,,,,,,,,,,,,,,,,,,,,,,,,,sub-232,1.0,random_dot,59.930839814476265,
left,left,speed,,,,,0.0,1.0,1.0,1.0,16.0,0.0,32.0,0.0,575.347154899966,,,,,,,,,575.3343926999951,576.5469960999908,577.3478343999595,577.331020099984,577.3310493999743,577.3478343999595,577.3478343999595,577.3478343999595,578.3990049999557,right,0.0,22.40040050004609,,,,,,,,,,,,,,,,,,,,,,,,,,,,,,,,sub-232,1.0,random_dot,59.930839814476265,
right,right,speed,,,,,0.0,1.0,1.0,1.0,16.0,1.0,33.0,1.0,578.4131988000008,,,,,,,,,578.4005369999795,579.6130913999514,580.4141228999943,580.3972257999703,580.3972559999675,580.4141228999943,580.4141228999943,580.4141228999943,581.048603400006,right,1.0,21.9778890000307,,,,,,,,,,,,,,,,,,,,,,,,,,,,,,,,sub-232,1.0,random_dot,59.930839814476265,
right,right,speed,,,,,0.0,1.0,1.0,1.0,17.0,0.0,34.0,1.0,581.0630658000009,,,,,,,,,581.0500723999576,581.8626336999587,582.6636946999934,582.6468512999709,582.6468745999737,582.6636946999934,582.6636946999934,582.6636946999934,583.8983157000039,right,1.0,22.578423900005877,,,,,,,,,,,,,,,,,,,,,,,,,,,,,,,,sub-232,1.0,random_dot,59.930839814476265,
left,left,speed,,,,,0.0,1.0,1.0,1.0,17.0,1.0,35.0,0.0,583.9127386999899,,,,,,,,,583.8994160000002,584.2626323999721,585.063587099954,585.0465728999698,585.046591899998,585.063587099954,585.063587099954,585.063587099954,586.6312528999988,right,0.0,22.90708989999257,,,,,,,,,,,,,,,,,,,,,,,,,,,,,,,,sub-232,1.0,random_dot,59.930839814476265,
left,left,speed,,,,,0.0,1.0,1.0,1.0,18.0,0.0,36.0,0.0,586.6456503999652,,,,,,,,,586.6327428999939,586.74562219996,587.5465263999649,587.5296911000041,587.5297206999967,587.5465263999649,587.5465263999649,587.5465263999649,588.4978474999662,left,1.0,22.29720160004217,,,,,,,,,,,,,,,,,,,,,,,,,,,,,,,,sub-232,1.0,random_dot,59.930839814476265,
right,right,speed,,,,,0.0,1.0,1.0,1.0,18.0,1.0,37.0,1.0,588.5119879999547,,,,,,,,,588.4993276000023,588.6119435,589.4130001000012,589.3959700999549,589.3959993000026,589.4130001000012,589.4130001000012,589.4130001000012,592.1806894000038,left,0.0,24.11836319998838,,,,,,,,,,,,,,,,,,,,,,,,,,,,,,,,sub-232,1.0,random_dot,59.930839814476265,
right,right,speed,,,,,0.0,1.0,1.0,1.0,19.0,0.0,38.0,1.0,592.1949089999544,,,,,,,,,592.1821542999824,592.2948157999781,593.0956941999611,593.0789619999705,593.0789909999585,593.0956941999611,593.0956941999611,593.0956941999611,593.8804644999909,right,1.0,22.124407300027087,,,,,,,,,,,,,,,,,,,,,,,,,,,,,,,,sub-232,1.0,random_dot,59.930839814476265,
left,left,speed,,,,,0.0,1.0,1.0,1.0,19.0,1.0,39.0,0.0,593.8946993999998,,,,,,,,,593.8819916999782,594.6946680999827,595.4954010999645,595.4786582999513,595.4786872999975,595.4954010999645,595.4954010999645,595.4954010999645,596.3295716999564,right,0.0,22.17793030000757,,,,,,,,,,,,,,,,,,,,,,,,,,,,,,,,sub-232,1.0,random_dot,59.930839814476265,
left,left,speed,,,,,0.0,1.0,1.0,1.0,20.0,0.0,40.0,0.0,596.3443222999922,,,,,,,,,596.3307460999931,597.1443403000012,597.9450858999626,597.928343699954,597.9283686999697,597.9450858999626,597.9450858999626,597.9450858999626,598.5463510999689,right,0.0,21.940866900025867,,,,,,,,,,,,,,,,,,,,,,,,,,,,,,,,sub-232,1.0,random_dot,59.930839814476265,
right,right,speed,,,,,0.0,1.0,1.0,1.0,20.0,1.0,41.0,1.0,598.5606895999517,,,,,,,,,598.5475336999516,598.9108810999896,599.711482899962,599.6947630000068,599.6947874999605,599.711482899962,599.711482899962,599.711482899962,600.9793978999951,right,1.0,22.615043900033925,,,,,,,,,,,,,,,,,,,,,,,,,,,,,,,,sub-232,1.0,random_dot,59.930839814476265,
left,left,speed,,,,,0.0,1.0,1.0,1.0,21.0,0.0,42.0,0.0,600.9937413999578,,,,,,,,,600.980594499968,601.0938215999631,601.8945077999961,601.8778826000053,601.8779107999871,601.8945077999961,601.8945077999961,601.8945077999961,604.578739599965,right,0.0,24.033903800009284,,,,,,,,,,,,,,,,,,,,,,,,,,,,,,,,sub-232,1.0,random_dot,59.930839814476265,
right,right,speed,,,,,0.0,1.0,1.0,1.0,21.0,1.0,43.0,1.0,604.5933979999973,,,,,,,,,604.579791600001,604.693391799985,605.494180299982,605.4774071999709,605.4774342000019,605.494180299982,605.494180299982,605.494180299982,606.4783215000061,right,1.0,22.325301200035028,,,,,,,,,,,,,,,,,,,,,,,,,,,,,,,,sub-232,1.0,random_dot,59.930839814476265,
left,left,speed,,,,,0.0,1.0,1.0,1.0,22.0,0.0,44.0,0.0,606.4932177999872,,,,,,,,,606.4791770000011,606.5929721999564,607.3941402999917,607.3772365999757,607.3772544999956,607.3941402999917,607.3941402999917,607.3941402999917,608.3954438999644,right,0.0,22.336902000010014,,,,,,,,,,,,,,,,,,,,,,,,,,,,,,,,sub-232,1.0,random_dot,59.930839814476265,
right,right,speed,,,,,0.0,1.0,1.0,1.0,22.0,1.0,45.0,1.0,608.4094317999552,,,,,,,,,608.3971493999707,609.2093954999582,610.0102551999735,609.9931076999637,609.9931253999821,610.0102551999735,610.0102551999735,610.0102551999735,610.7615278000012,right,1.0,22.09725579997757,,,,,,,,,,,,,,,,,,,,,,,,,,,,,,,,sub-232,1.0,random_dot,59.930839814476265,
left,left,speed,,,,,0.0,1.0,1.0,1.0,23.0,0.0,46.0,0.0,610.7757994999993,,,,,,,,,610.7627217999543,611.1257006999804,611.9267084999592,611.9100694999797,611.9101031000027,611.9267084999592,611.9267084999592,611.9267084999592,612.6778103999677,right,0.0,22.089477300061844,,,,,,,,,,,,,,,,,,,,,,,,,,,,,,,,sub-232,1.0,random_dot,59.930839814476265,
right,right,speed,,,,,0.0,1.0,1.0,1.0,23.0,1.0,47.0,1.0,612.6923340999638,,,,,,,,,612.6791226000059,613.4921735999524,614.2929476999561,614.2760575999855,614.2760845999583,614.2929476999561,614.2929476999561,614.2929476999561,614.6943197000073,left,0.0,21.74656469997717,,,,,,,,,,,,,,,,,,,,,,,,,,,,,,,,sub-232,1.0,random_dot,59.930839814476265,
left,left,speed,,,,,0.0,1.0,1.0,1.0,24.0,0.0,48.0,0.0,614.7084685000009,,,,,,,,,614.6956247999915,614.8087462999974,615.6093758000061,615.5926047999528,615.5926335999975,615.6093758000061,615.6093758000061,615.6093758000061,617.0439853999997,right,0.0,22.78151669999352,,,,,,,,,,,,,,,,,,,,,,,,,,,,,,,,sub-232,1.0,random_dot,59.930839814476265,
right,right,speed,,,,,0.0,1.0,1.0,1.0,24.0,1.0,49.0,1.0,617.0584903999697,,,,,,,,,617.0454311000067,618.2581928999862,619.0591280999943,619.0421138999518,619.0421402999782,619.0591280999943,619.0591280999943,619.0591280999943,619.6434494999703,right,1.0,21.92748740001116,,,,,,,,,,,,,,,,,,,,,,,,,,,,,,,,sub-232,1.0,random_dot,59.930839814476265,
right,right,speed,,,,,0.0,1.0,1.0,1.0,25.0,0.0,50.0,1.0,619.6578989999834,,,,,,,,,619.6447480999632,620.4581186999567,621.2587124999845,621.241798300005,621.2418243999709,621.2587124999845,621.2587124999845,621.2587124999845,621.8433440999943,right,1.0,21.923377899976916,,,,,,,,,,,,,,,,,,,,,,,,,,,,,,,,sub-232,1.0,random_dot,59.930839814476265,
left,left,speed,,,,,0.0,1.0,1.0,1.0,25.0,1.0,51.0,0.0,621.8576360999723,,,,,,,,,621.8446876999806,622.2076685999637,623.0084385999944,622.9917532999534,622.9917885999894,623.0084385999944,623.0084385999944,623.0084385999944,623.7097842000076,right,0.0,22.038211700040847,,,,,,,,,,,,,,,,,,,,,,,,,,,,,,,,sub-232,1.0,random_dot,59.930839814476265,
right,right,speed,,,,,0.0,1.0,1.0,1.0,26.0,0.0,52.0,1.0,623.7241716999561,,,,,,,,,623.7111007999629,624.0742936999886,624.8748404000071,624.8580201999866,624.8580465999548,624.8748404000071,624.8748404000071,624.8748404000071,625.4431058999617,right,1.0,21.912012799992223,,,,,,,,,,,,,,,,,,,,,,,,,,,,,,,,sub-232,1.0,random_dot,59.930839814476265,
left,left,speed,,,,,0.0,1.0,1.0,1.0,26.0,1.0,53.0,0.0,625.4571218999918,,,,,,,,,625.4444014999899,626.2571586999693,627.058120200003,627.0412553999922,627.0412800000049,627.058120200003,627.058120200003,627.058120200003,628.175863899989,right,0.0,22.455128800007515,,,,,,,,,,,,,,,,,,,,,,,,,,,,,,,,sub-232,1.0,random_dot,59.930839814476265,
left,left,speed,,,,,0.0,1.0,1.0,1.0,27.0,0.0,54.0,0.0,628.1903437000001,,,,,,,,,628.1773159999866,628.9901886999724,629.7909330999828,629.7742890999652,629.7743193999631,629.7909330999828,629.7909330999828,629.7909330999828,630.5924159999704,right,0.0,22.147491000010632,,,,,,,,,,,,,,,,,,,,,,,,,,,,,,,,sub-232,1.0,random_dot,59.930839814476265,
right,right,speed,,,,,0.0,1.0,1.0,1.0,27.0,1.0,55.0,1.0,630.6065198999713,,,,,,,,,630.5938993999735,631.8065983999986,632.6074120999547,632.5907540000044,632.5907848000061,632.6074120999547,632.6074120999547,632.6074120999547,634.6250443999888,right,1.0,23.35797160002403,,,,,,,,,,,,,,,,,,,,,,,,,,,,,,,,sub-232,1.0,random_dot,59.930839814476265,
right,right,speed,,,,,0.0,1.0,1.0,1.0,28.0,0.0,56.0,1.0,634.6394890999654,,,,,,,,,634.6264877999783,635.4394490999985,636.2401047999738,636.2232166999602,636.2232459000079,636.2401047999738,636.2401047999738,636.2401047999738,637.1079057999887,right,1.0,22.20495889999438,,,,,,,,,,,,,,,,,,,,,,,,,,,,,,,,sub-232,1.0,random_dot,59.930839814476265,
left,left,speed,,,,,0.0,1.0,1.0,1.0,28.0,1.0,57.0,0.0,637.1222454999806,,,,,,,,,637.1093120999867,637.2224105999921,638.023210699961,638.0065909999539,638.0066198999994,638.023210699961,638.023210699961,638.023210699961,639.6079487999668,right,0.0,22.920130300044548,,,,,,,,,,,,,,,,,,,,,,,,,,,,,,,,sub-232,1.0,random_dot,59.930839814476265,
left,left,speed,,,,,0.0,1.0,1.0,1.0,29.0,0.0,58.0,0.0,639.6221042999532,,,,,,,,,639.6094444000046,640.8219420999521,641.6227653999813,641.6059678999591,641.6059972000076,641.6227653999813,641.6227653999813,641.6227653999813,642.7573866999592,right,0.0,22.48456760001136,,,,,,,,,,,,,,,,,,,,,,,,,,,,,,,,sub-232,1.0,random_dot,59.930839814476265,
right,right,speed,,,,,0.0,1.0,1.0,1.0,29.0,1.0,59.0,1.0,642.7716534999781,,,,,,,,,642.7588380999514,643.9714959999546,644.7724036999862,644.755418899993,644.7554498999962,644.7724036999862,644.7724036999862,644.7724036999862,645.8903398999828,right,1.0,22.468855099985376,,,,,,,,,,,,,,,,,,,,,,,,,,,,,,,,sub-232,1.0,random_dot,59.930839814476265,
,,speed,,,,,0.0,1.0,1.0,1.0,,,,,,,,,,,,,,,,,,,,,,,,,,,,,,,,,,,,,,,,,,,,,,,,,,,,,,,,,sub-232,1.0,random_dot,59.930839814476265,
,,,,,,,,,,,,,,,,,,,,,,,,,,,,,,,,,,,,,,,,,,,,,,,,,,,,,,,,,,,,,,,645.8914294999558,645.9047403999721,650.9040578999557,650.8882658999646,sub-232,,,,
