direction,corrAns,thisN,thisTrialN,thisRepN,respDots.keys,respDots.corr,respDots.rt,respDots.duration,randomInstr,respRandomInstr.keys,respRandomInstr.rt,respRandomInstr.duration,practice_trials.thisRepN,practice_trials.thisTrialN,practice_trials.thisN,practice_trials.thisIndex,instr_trials.thisRepN,instr_trials.thisTrialN,instr_trials.thisN,instr_trials.thisIndex,test_trials.thisRepN,test_trials.thisTrialN,test_trials.thisN,test_trials.thisIndex,thisRow.t,notes,general_instruction.started,textGeneralInstr.started,respGeneralInstr.started,general_instruction.stopped,respGeneralInstr.keys,respGeneralInstr.rt,respGeneralInstr.duration,ITI.started,fixcross.started,fixcross.stopped,ITI.stopped,dots.started,backgroundDots.started,stimulusDots.started,respDots.started,dots.stopped,practice_trials.respDots.keys,practice_trials.respDots.corr,practice_trials.respDots.rt,practice_trials.respDots.duration,feedback.started,textFeedback.started,feedback.stopped,textFeedback.stopped,stimulusDots.stopped,info.started,textInfo.started,keyRespInfo.started,info.stopped,keyRespInfo.keys,keyRespInfo.rt,keyRespInfo.duration,test_instruction.started,textTestInstr.started,respTestInstr.started,test_instruction.stopped,respTestInstr.keys,respTestInstr.rt,respTestInstr.duration,random_instruction.started,textRandomInstr.started,respRandomInstr.started,random_instruction.stopped,instr_trials.respRandomInstr.keys,instr_trials.respRandomInstr.rt,instr_trials.respRandomInstr.duration,test_trials.respDots.keys,test_trials.respDots.corr,test_trials.respDots.rt,test_trials.respDots.duration,goodbye.started,textGoodbye.started,goodbye.stopped,participant,session,expName,frameRate,Unnamed: 87
,,,,,,,,,,,,,,,,,,,,,,,,,,,0.0093837919994257,0.0230775420022837,0.0230775420022837,0.7229749170001014,space,0.657033457999205,,,,,,,,,,,,,,,,,,,,,,,,,,,,,,,,,,,,,,,,,,,,,,,,sub-183,1,random_dot,,
right,right,0.0,0.0,0.0,right,1.0,1.727871375001996,,,,,,0.0,0.0,0.0,1.0,,,,,,,,,0.7940469170025608,,,,,,,,,0.7766072920021543,1.068139250000968,1.8722754170012197,1.8574156670001685,1.8580767500025104,1.8722754170012197,1.8722754170012197,1.8722754170012197,3.608689625001716,right,1.0,1.727871375001996,,3.616682709001907,3.748313625001174,4.112259459001507,,,,,,,,,,,,,,,,,,,,,,,,,,,,,,,sub-183,1,random_dot,,
left,left,1.0,1.0,0.0,left,1.0,2.3585333330011053,,,,,,0.0,1.0,1.0,0.0,,,,,,,,,4.123871209001663,,,,,,,,,4.11276645900216,4.907698459002859,5.698639834001369,5.690849167000124,5.691481249999924,5.698639834001369,5.698639834001369,5.698639834001369,8.061567917000502,left,1.0,2.3585333330011053,,8.061665500001254,8.072770709000906,8.557324625002366,8.56187033400056,,,,,,,,,,,,,,,,,,,,,,,,,,,,,,sub-183,1,random_dot,,
left,left,2.0,0.0,1.0,right,0.0,2.194535415997961,,,,,,1.0,0.0,2.0,0.0,,,,,,,,,8.56187033400056,,,,,,,,,8.557764708999457,9.357151874999545,10.148577209001814,10.140647084001102,10.141257167000733,10.148577209001814,10.148577209001814,10.148577209001814,12.347657834001438,right,0.0,2.194535415997961,,12.353170959002457,12.36096062499928,12.846138834000158,12.857200459002344,,,,,,,,,,,,,,,,,,,,,,,,,,,,,,sub-183,1,random_dot,,
right,right,3.0,1.0,1.0,left,0.0,1.646423041998787,,,,,,1.0,1.0,3.0,1.0,,,,,,,,,12.857200459002344,,,,,,,,,12.846704792002129,12.946691625002131,13.740557417000671,13.729233292000572,13.729739166999934,13.740557417000671,13.740557417000671,13.740557417000671,15.391352417002054,left,0.0,1.646423041998787,,15.39145437499974,15.398427250001989,15.890900209000392,15.895297917002608,,,,,,,,,,,,,,,,,,,,,,,,,,,,,,sub-183,1,random_dot,,
right,right,4.0,0.0,2.0,right,1.0,1.824841916997684,,,,,,2.0,0.0,4.0,1.0,,,,,,,,,15.895297917002608,,,,,,,,,15.891321834002156,16.230296125002496,17.031762917002197,17.023976709002454,17.024559042001783,17.031762917002197,17.031762917002197,17.031762917002197,18.858552749999944,right,1.0,1.824841916997684,,18.862155709000945,18.869335167000827,19.35621108399937,19.36041941700023,,,,,,,,,,,,,,,,,,,,,,,,,,,,,,sub-183,1,random_dot,,
left,left,5.0,1.0,2.0,right,0.0,2.0270366660006403,,,,,,2.0,1.0,5.0,0.0,,,,,,,,,19.36041941700023,,,,,,,,,19.356663459002448,20.147557000000237,20.949410042001546,20.940802500001155,20.94163333400138,20.949410042001546,20.949410042001546,20.949410042001546,22.98165854200124,right,0.0,2.0270366660006403,,22.98569520900128,23.007492042001104,23.49069737500031,,,,,,,,,,,,,,,,,,,,,,,,,,,,,,,sub-183,1,random_dot,,
left,left,6.0,0.0,3.0,right,0.0,1.340900708000845,,,,,,3.0,0.0,6.0,0.0,,,,,,,,,23.49625300000116,,,,,,,,,23.491391167000984,23.82957675000216,24.6224838340022,24.612725125,24.61327120900023,24.6224838340022,24.6224838340022,24.6224838340022,25.97426062500017,right,0.0,1.340900708000845,,25.974335334001807,25.980782500002533,26.47426700000142,26.479897459001226,,,,,,,,,,,,,,,,,,,,,,,,,,,,,,sub-183,1,random_dot,,
right,right,7.0,1.0,3.0,left,0.0,2.054531417001272,,,,,,3.0,1.0,7.0,1.0,,,,,,,,,26.479897459001226,,,,,,,,,26.474951333999343,26.562566709002567,27.3569407089999,27.345394916999798,27.34586770900205,27.3569407089999,27.3569407089999,27.3569407089999,29.413464917000965,left,0.0,2.054531417001272,,29.413563792000787,29.422150375001365,29.907336709002266,29.912755334000398,,,,,,,,,,,,,,,,,,,,,,,,,,,,,,sub-183,1,random_dot,,
left,left,8.0,0.0,4.0,right,0.0,1.347359084000345,,,,,,4.0,0.0,8.0,0.0,,,,,,,,,29.912755334000398,,,,,,,,,29.90786770900013,30.013591167000413,30.814870624999458,30.80728133400044,30.807879792002492,30.814870624999458,30.814870624999458,30.814870624999458,32.16476233399953,right,0.0,1.347359084000345,,32.16481904200191,32.17287125000075,32.6572256670006,32.66183141700094,,,,,,,,,,,,,,,,,,,,,,,,,,,,,,sub-183,1,random_dot,,
right,right,9.0,1.0,4.0,right,1.0,3.590234875002352,,,,,,4.0,1.0,9.0,1.0,,,,,,,,,32.66183141700094,,,,,,,,,32.6576717090029,32.76271879200067,33.55665216700072,33.54605370900026,33.54655491700032,33.55665216700072,33.55665216700072,33.55665216700072,37.14863108400096,right,1.0,3.590234875002352,,37.151822334002645,37.16097550000268,37.645805042000575,37.657110125001054,,,,,,,,,,,,,,,,,,,,,,,,,,,,,,sub-183,1,random_dot,,
left,left,10.0,0.0,5.0,right,0.0,2.5367178750020685,,,,,,5.0,0.0,10.0,0.0,,,,,,,,,37.657110125001054,,,,,,,,,37.64625050000177,37.996286749999854,38.79013808400123,38.77923708399976,38.7797239169995,38.79013808400123,38.79013808400123,38.79013808400123,41.33144850000099,right,0.0,2.5367178750020685,,41.33424466699944,41.34177937500135,41.82942475000164,41.84028324999963,,,,,,,,,,,,,,,,,,,,,,,,,,,,,,sub-183,1,random_dot,,
right,right,11.0,1.0,5.0,left,0.0,2.934891874996538,,,,,,5.0,1.0,11.0,1.0,,,,,,,,,41.84028324999963,,,,,,,,,41.82987520900133,41.929108042000735,42.72373675000199,42.71215591700093,42.71268966700154,42.72373675000199,42.72373675000199,42.72373675000199,45.661644792002335,left,0.0,2.934891874996538,,45.661770292001165,45.67364825000186,46.1574592500001,46.16200920900155,,,,,,,,,,,,,,,,,,,,,,,,,,,,,,sub-183,1,random_dot,,
left,left,12.0,0.0,6.0,right,0.0,4.159433666998666,,,,,,6.0,0.0,12.0,0.0,,,,,,,,,46.16200920900155,,,,,,,,,46.15784745900237,46.2568737090005,47.04887683400011,47.04070012500233,47.04138083400176,47.04887683400011,47.04887683400011,47.04887683400011,51.21421241700227,right,0.0,4.159433666998666,,51.21435291700254,51.22283625000273,51.70749554199938,51.71301433400004,,,,,,,,,,,,,,,,,,,,,,,,,,,,,,sub-183,1,random_dot,,
right,right,13.0,1.0,6.0,left,0.0,3.131488416998764,,,,,,6.0,1.0,13.0,1.0,,,,,,,,,51.71301433400004,,,,,,,,,51.70806566700048,52.51337691700246,53.31470637500024,53.30706587500026,53.30759216700244,53.31470637500024,53.31470637500024,53.31470637500024,56.4580178340002,left,0.0,3.131488416998764,,56.45814237500235,56.46532975000082,56.95715458400082,56.96335170900056,,,,,,,,,,,,,,,,,,,,,,,,,,,,,,sub-183,1,random_dot,,
right,right,14.0,0.0,7.0,right,1.0,2.560078708000219,,,,,,7.0,0.0,14.0,1.0,,,,,,,,,56.96335170900056,,,,,,,,,56.95784241699948,57.05687895899973,57.84868429200287,57.84070058400175,57.841458083999896,57.84868429200287,57.84868429200287,57.84868429200287,60.415011875000346,right,1.0,2.560078708000219,,60.41842495899982,60.42666258400277,60.91262962499968,60.92350450000231,,,,,,,,,,,,,,,,,,,,,,,,,,,,,,sub-183,1,random_dot,,
left,left,15.0,1.0,7.0,right,0.0,2.7844470420022844,,,,,,7.0,1.0,15.0,0.0,,,,,,,,,60.92350450000231,,,,,,,,,60.9130534169999,61.71219962500254,62.50679200000013,62.49584116700135,62.49634641699959,62.50679200000013,62.50679200000013,62.50679200000013,65.30084025000178,right,0.0,2.7844470420022844,,65.30387574999986,65.30896433400267,65.7958190419995,65.80670174999977,,,,,,,,,,,,,,,,,,,,,,,,,,,,,,sub-183,1,random_dot,,
left,left,16.0,0.0,8.0,left,1.0,4.658614125000895,,,,,,8.0,0.0,16.0,0.0,,,,,,,,,65.80670174999977,,,,,,,,,65.79625037500227,66.5961275840018,67.39020279200122,67.37899795900012,67.3794892090009,67.39020279200122,67.39020279200122,67.39020279200122,72.05652116700003,left,1.0,4.658614125000895,,72.05934470899956,72.06627183400269,72.55698325000048,,,,,,,,,,,,,,,,,,,,,,,,,,,,,,,sub-183,1,random_dot,,
right,right,17.0,1.0,8.0,right,1.0,5.0275568750003,,,,,,8.0,1.0,17.0,1.0,,,,,,,,,72.56239470900255,,,,,,,,,72.55755175000013,73.34669616700194,74.1479996670023,74.14021454199974,74.1408270000029,74.1479996670023,74.1479996670023,74.1479996670023,79.1802478339996,right,1.0,5.0275568750003,,79.18035383400274,79.18843729199943,79.67352558399944,79.6788018340012,79.12807000000248,,,,,,,,,,,,,,,,,,,,,,,,,,,,,sub-183,1,random_dot,,
left,left,18.0,0.0,9.0,left,1.0,2.3521497920010006,,,,,,9.0,0.0,18.0,0.0,,,,,,,,,79.6788018340012,,,,,,,,,79.67407237500083,80.87906762500279,81.6723788340023,81.66222183400168,81.66279604200099,81.6723788340023,81.6723788340023,81.6723788340023,84.02969120900161,left,1.0,2.3521497920010006,,84.02978683400215,84.0390150839994,84.5235632920012,84.5286818750028,,,,,,,,,,,,,,,,,,,,,,,,,,,,,,sub-183,1,random_dot,,
right,right,19.0,1.0,9.0,right,1.0,2.0757127920005587,,,,,,9.0,1.0,19.0,1.0,,,,,,,,,84.5286818750028,,,,,,,,,84.52410783400046,84.62965808400259,85.4322287089999,85.4236401670023,85.42441166700155,85.4322287089999,85.4322287089999,85.4322287089999,87.51726066700212,right,1.0,2.0757127920005587,,87.51736895900103,87.52152254199973,88.00697716700233,88.12316004199965,,,,,,,,,,,,,,,,,,,,,,,,,,,,,,sub-183,1,random_dot,,
,,,,,,,,,,,,,,,,,,,,,,,,,,,,,,,,,,,,,,,,,,,,,,,,,,,,88.11866424999971,88.12316004199965,88.12316004199965,89.48116995900273,space,1.3531355000013718,,,,,,,,,,,,,,,,,,,,,,,sub-183,1,random_dot,,
,,,,,,,,,,,,,,,,,,,,,,,,,,,,,,,,,,,,,,,,,,,,,,,,,,,,,,,,,,,89.48126495900215,89.52084229200045,89.52084229200045,90.25806412500242,space,0.7320043750005425,,,,,,,,,,,,,,,,sub-183,1,random_dot,,
left,left,0.0,0.0,0.0,right,0.0,3.603683665998688,,speed,space,3.4603516249990207,,,,,,0.0,0.0,0.0,1.0,0.0,0.0,0.0,0.0,93.77735245900112,,,,,,,,,93.77056104200165,94.55667608400108,95.35510920900197,95.34400837500289,95.34455458400043,95.35510920900197,95.35510920900197,95.35510920900197,98.96252687500235,,,,,,,,,,,,,,,,,,,,,,,,90.28343120900172,90.29051050000272,90.29051050000272,93.75822970900116,space,3.4603516249990207,,right,0.0,3.603683665998688,,,,,sub-183,1,random_dot,,
right,right,1.0,1.0,0.0,left,0.0,2.0435681249982736,,speed,space,3.4603516249990207,,,,,,0.0,0.0,0.0,1.0,0.0,1.0,1.0,1.0,98.97223762500288,,,,,,,,,98.962893584001,99.31294441700084,100.10554041700016,100.09586716700142,100.09636341700023,100.10554041700016,100.10554041700016,100.10554041700016,102.1572546669995,,,,,,,,,,,,,,,,,,,,,,,,,,,,,,,left,0.0,2.0435681249982736,,,,,sub-183,1,random_dot,,
left,left,2.0,0.0,1.0,right,0.0,1.0889599170004658,,speed,space,3.4603516249990207,,,,,,0.0,0.0,0.0,1.0,1.0,0.0,2.0,0.0,102.1637572920008,,,,,,,,,102.15760737500024,103.3453177090014,104.13883279199943,104.1292711669994,104.12976937500208,104.13883279199943,104.13883279199943,104.13883279199943,105.23125912500107,,,,,,,,,,,,,,,,,,,,,,,,,,,,,,,right,0.0,1.0889599170004658,,,,,sub-183,1,random_dot,,
right,right,3.0,1.0,1.0,right,1.0,1.075397749998956,,speed,space,3.4603516249990207,,,,,,0.0,0.0,0.0,1.0,1.0,1.0,3.0,1.0,105.23805241700028,,,,,,,,,105.2316552500015,106.0280127090009,106.8227246250026,106.81197920900011,106.81246170899976,106.8227246250026,106.8227246250026,106.8227246250026,107.90740320899933,,,,,,,,,,,,,,,,,,,,,,,,,,,,,,,right,1.0,1.075397749998956,,,,,sub-183,1,random_dot,,
right,right,4.0,0.0,2.0,left,0.0,1.3598373329987226,,speed,space,3.4603516249990207,,,,,,0.0,0.0,0.0,1.0,2.0,0.0,4.0,1.0,107.91422112500004,,,,,,,,,107.90776950000144,108.0066359170014,108.79718100000171,108.79003650000232,108.79053612500138,108.79718100000171,108.79718100000171,108.79718100000171,110.166354459001,,,,,,,,,,,,,,,,,,,,,,,,,,,,,,,left,0.0,1.3598373329987226,,,,,sub-183,1,random_dot,,
left,left,5.0,1.0,2.0,left,1.0,1.627778665999358,,speed,space,3.4603516249990207,,,,,,0.0,0.0,0.0,1.0,2.0,1.0,5.0,0.0,110.1714794590007,,,,,,,,,110.16670287500165,110.26197095899988,111.0564999590024,111.04519491700194,111.04568754200228,111.0564999590024,111.0564999590024,111.0564999590024,112.69159179200142,,,,,,,,,,,,,,,,,,,,,,,,,,,,,,,left,1.0,1.627778665999358,,,,,sub-183,1,random_dot,,
left,left,6.0,0.0,3.0,right,0.0,0.915665958000318,,speed,space,3.4603516249990207,,,,,,0.0,0.0,0.0,1.0,3.0,0.0,6.0,0.0,112.69845920900116,,,,,,,,,112.69211691700184,113.48980387499978,114.2808097920024,114.27324358400074,114.27386620900144,114.2808097920024,114.2808097920024,114.2808097920024,115.20707345900156,,,,,,,,,,,,,,,,,,,,,,,,,,,,,,,right,0.0,0.915665958000318,,,,,sub-183,1,random_dot,,
right,right,7.0,1.0,3.0,left,0.0,2.2057564159986214,,speed,space,3.4603516249990207,,,,,,0.0,0.0,0.0,1.0,3.0,1.0,7.0,1.0,115.21362904200214,,,,,,,,,115.20741045900286,115.99587954200253,116.78952929200022,116.77849395900192,116.7789756250022,116.78952929200022,116.78952929200022,116.78952929200022,118.99692958400192,,,,,,,,,,,,,,,,,,,,,,,,,,,,,,,left,0.0,2.2057564159986214,,,,,sub-183,1,random_dot,,
right,right,8.0,0.0,4.0,right,1.0,0.69887000000017,,speed,space,3.4603516249990207,,,,,,0.0,0.0,0.0,1.0,4.0,0.0,8.0,1.0,119.0047095000009,,,,,,,,,118.99738929200248,120.1964367090004,120.9981399999997,120.99009945900252,120.99069262500052,120.9981399999997,120.9981399999997,120.9981399999997,121.70593454200208,,,,,,,,,,,,,,,,,,,,,,,,,,,,,,,right,1.0,0.69887000000017,,,,,sub-183,1,random_dot,,
left,left,9.0,1.0,4.0,left,1.0,2.9729570830022567,,speed,space,3.4603516249990207,,,,,,0.0,0.0,0.0,1.0,4.0,1.0,9.0,0.0,121.70931675000249,,,,,,,,,121.70628150000266,122.0461765,122.83898920900174,122.82878133399936,122.82932329200048,122.83898920900174,122.83898920900174,122.83898920900174,125.81339200000002,,,,,,,,,,,,,,,,,,,,,,,,,,,,,,,left,1.0,2.9729570830022567,,,,,sub-183,1,random_dot,,
left,left,10.0,0.0,5.0,left,1.0,2.0703587500029244,,speed,space,3.4603516249990207,,,,,,0.0,0.0,0.0,1.0,5.0,0.0,10.0,0.0,125.82138062500236,,,,,,,,,125.8137537090006,125.91112116700242,126.7058826249995,126.695127125,126.69573033400228,126.7058826249995,126.7058826249995,126.7058826249995,128.7789232089999,,,,,,,,,,,,,,,,,,,,,,,,,,,,,,,left,1.0,2.0703587500029244,,,,,sub-183,1,random_dot,,
right,right,11.0,1.0,5.0,right,1.0,2.0161394999995537,,speed,space,3.4603516249990207,,,,,,0.0,0.0,0.0,1.0,5.0,1.0,11.0,1.0,128.78946791700218,,,,,,,,,128.77927629199985,129.97315466700093,130.76452329200038,130.7565024169999,130.75713858400195,130.76452329200038,130.76452329200038,130.76452329200038,132.78934029200173,,,,,,,,,,,,,,,,,,,,,,,,,,,,,,,right,1.0,2.0161394999995537,,,,,sub-183,1,random_dot,,
left,left,12.0,0.0,6.0,left,1.0,1.7439700840004662,,speed,space,3.4603516249990207,,,,,,0.0,0.0,0.0,1.0,6.0,0.0,12.0,0.0,132.79338787500092,,,,,,,,,132.78970045900132,133.129491959,133.9320847500021,133.92375395899944,133.92455775000053,133.9320847500021,133.9320847500021,133.9320847500021,135.6790064170018,,,,,,,,,,,,,,,,,,,,,,,,,,,,,,,left,1.0,1.7439700840004662,,,,,sub-183,1,random_dot,,
right,right,13.0,1.0,6.0,right,1.0,2.4008018749991606,,speed,space,3.4603516249990207,,,,,,0.0,0.0,0.0,1.0,6.0,1.0,13.0,1.0,135.689171334001,,,,,,,,,135.6793526670008,136.47842516700257,137.27165616700222,137.26167966700086,137.26226912499988,137.27165616700222,137.27165616700222,137.27165616700222,139.67392904200096,,,,,,,,,,,,,,,,,,,,,,,,,,,,,,,right,1.0,2.4008018749991606,,,,,sub-183,1,random_dot,,
right,right,14.0,0.0,7.0,left,0.0,1.2273389589972794,,speed,space,3.4603516249990207,,,,,,0.0,0.0,0.0,1.0,7.0,0.0,14.0,1.0,139.67989841700182,,,,,,,,,139.67431200000283,140.4730980839995,141.26444575000278,141.25638787500066,141.2570152920016,141.26444575000278,141.26444575000278,141.26444575000278,142.49779816700175,,,,,,,,,,,,,,,,,,,,,,,,,,,,,,,left,0.0,1.2273389589972794,,,,,sub-183,1,random_dot,,
left,left,15.0,1.0,7.0,right,0.0,1.3016393750003772,,speed,space,3.4603516249990207,,,,,,0.0,0.0,0.0,1.0,7.0,1.0,15.0,0.0,142.50476433400036,,,,,,,,,142.49818854200203,142.84561541700168,143.63911275000282,143.62844570900052,143.6290227919999,143.63911275000282,143.63911275000282,143.63911275000282,144.94979287500246,,,,,,,,,,,,,,,,,,,,,,,,,,,,,,,right,0.0,1.3016393750003772,,,,,sub-183,1,random_dot,,
left,left,16.0,0.0,8.0,right,0.0,2.298219583997706,,speed,space,3.4603516249990207,,,,,,0.0,0.0,0.0,1.0,8.0,0.0,16.0,0.0,144.9545794170008,,,,,,,,,144.95015000000058,145.0441820840024,145.8419736249998,145.8288260420013,145.82932104200154,145.8419736249998,145.8419736249998,145.8419736249998,148.14557250000144,,,,,,,,,,,,,,,,,,,,,,,,,,,,,,,right,0.0,2.298219583997706,,,,,sub-183,1,random_dot,,
right,right,17.0,1.0,8.0,right,1.0,1.5211499580000236,,speed,space,3.4603516249990207,,,,,,0.0,0.0,0.0,1.0,8.0,1.0,17.0,1.0,148.15565091700046,,,,,,,,,148.1459327090015,148.49585658400247,149.29773950000163,149.2897416670021,149.29033754200282,149.29773950000163,149.29773950000163,149.29773950000163,150.8239940420026,,,,,,,,,,,,,,,,,,,,,,,,,,,,,,,right,1.0,1.5211499580000236,,,,,sub-183,1,random_dot,,
right,right,18.0,0.0,9.0,left,0.0,1.4426273749995744,,speed,space,3.4603516249990207,,,,,,0.0,0.0,0.0,1.0,9.0,0.0,18.0,1.0,150.8306236669996,,,,,,,,,150.8243331670019,152.02311479200216,152.81415058399944,152.80660270900262,152.80711125000016,152.81415058399944,152.81415058399944,152.81415058399944,154.26160325000092,,,,,,,,,,,,,,,,,,,,,,,,,,,,,,,left,0.0,1.4426273749995744,,,,,sub-183,1,random_dot,,
left,left,19.0,1.0,9.0,right,0.0,0.9608130420019734,,speed,space,3.4603516249990207,,,,,,0.0,0.0,0.0,1.0,9.0,1.0,19.0,0.0,154.27125549999982,,,,,,,,,154.26198208400092,155.4624869170002,156.2557156670009,156.24508395900193,156.245611792001,156.2557156670009,156.2557156670009,156.2557156670009,157.22414245899927,,,,,,,,,,,,,,,,,,,,,,,,,,,,,,,right,0.0,0.9608130420019734,,,,,sub-183,1,random_dot,,
right,right,20.0,0.0,10.0,left,0.0,1.5635892499994952,,speed,space,3.4603516249990207,,,,,,0.0,0.0,0.0,1.0,10.0,0.0,20.0,1.0,157.2317158750011,,,,,,,,,157.22462091700072,157.32324058400263,158.1146487920014,158.10646958399957,158.10725741699935,158.1146487920014,158.1146487920014,158.1146487920014,159.67988116700144,,,,,,,,,,,,,,,,,,,,,,,,,,,,,,,left,0.0,1.5635892499994952,,,,,sub-183,1,random_dot,,
left,left,21.0,1.0,10.0,left,1.0,1.523750000000291,,speed,space,3.4603516249990207,,,,,,0.0,0.0,0.0,1.0,10.0,1.0,21.0,0.0,159.68784108399996,,,,,,,,,159.6802762920015,159.77774420900096,160.57113458400272,160.56217220899998,160.5627045000001,160.57113458400272,160.57113458400272,160.57113458400272,162.09719575000054,,,,,,,,,,,,,,,,,,,,,,,,,,,,,,,left,1.0,1.523750000000291,,,,,sub-183,1,random_dot,,
right,right,22.0,0.0,11.0,left,0.0,2.602900000001682,,speed,space,3.4603516249990207,,,,,,0.0,0.0,0.0,1.0,11.0,0.0,22.0,1.0,162.1050197500008,,,,,,,,,162.0975553749995,162.19493487500222,162.98953670899937,162.9781366669995,162.97862108399931,162.98953670899937,162.98953670899937,162.98953670899937,165.59718400000202,,,,,,,,,,,,,,,,,,,,,,,,,,,,,,,left,0.0,2.602900000001682,,,,,sub-183,1,random_dot,,
left,left,23.0,1.0,11.0,right,0.0,0.7761328750020766,,speed,space,3.4603516249990207,,,,,,0.0,0.0,0.0,1.0,11.0,1.0,23.0,0.0,165.60442162500112,,,,,,,,,165.59754041700216,166.79564579200087,167.59801608400085,167.58982062500218,167.59061795900195,167.59801608400085,167.59801608400085,167.59801608400085,168.3835576670026,,,,,,,,,,,,,,,,,,,,,,,,,,,,,,,right,0.0,0.7761328750020766,,,,,sub-183,1,random_dot,,
left,left,24.0,0.0,12.0,left,1.0,1.8366511249987525,,speed,space,3.4603516249990207,,,,,,0.0,0.0,0.0,1.0,12.0,0.0,24.0,0.0,168.3878812920011,,,,,,,,,168.38390837500265,168.72939591700197,169.53087225000127,169.5230190840011,169.52364650000163,169.53087225000127,169.53087225000127,169.53087225000127,171.37381245900178,,,,,,,,,,,,,,,,,,,,,,,,,,,,,,,left,1.0,1.8366511249987525,,,,,sub-183,1,random_dot,,
right,right,25.0,1.0,12.0,right,1.0,1.0922465000003283,,speed,space,3.4603516249990207,,,,,,0.0,0.0,0.0,1.0,12.0,1.0,25.0,1.0,171.38084091700148,,,,,,,,,171.3742462500013,171.47286512500068,172.26432033400124,172.2563352090001,172.25693995899928,172.26432033400124,172.26432033400124,172.26432033400124,173.36581554200166,,,,,,,,,,,,,,,,,,,,,,,,,,,,,,,right,1.0,1.0922465000003283,,,,,sub-183,1,random_dot,,
left,left,26.0,0.0,13.0,left,1.0,2.508972874999017,,speed,space,3.4603516249990207,,,,,,0.0,0.0,0.0,1.0,13.0,0.0,26.0,0.0,173.37106604200017,,,,,,,,,173.36615791700024,174.5623386670013,175.35561666700232,175.3453181670011,175.34581095900285,175.35561666700232,175.35561666700232,175.35561666700232,177.8741976670026,,,,,,,,,,,,,,,,,,,,,,,,,,,,,,,left,1.0,2.508972874999017,,,,,sub-183,1,random_dot,,
right,right,27.0,1.0,13.0,right,1.0,1.1136444160001702,,speed,space,3.4603516249990207,,,,,,0.0,0.0,0.0,1.0,13.0,1.0,27.0,1.0,177.8815871250008,,,,,,,,,177.874734584002,179.0726930000019,179.86457783399965,179.85624787500274,179.85700970900143,179.86457783399965,179.86457783399965,179.86457783399965,180.99015370900088,,,,,,,,,,,,,,,,,,,,,,,,,,,,,,,right,1.0,1.1136444160001702,,,,,sub-183,1,random_dot,,
left,left,28.0,0.0,14.0,right,0.0,0.8638136660010787,,speed,space,3.4603516249990207,,,,,,0.0,0.0,0.0,1.0,14.0,0.0,28.0,0.0,180.9967247500026,,,,,,,,,180.99052616700283,181.32845366699985,182.1225567090005,182.11143341700156,182.1119289590024,182.1225567090005,182.1225567090005,182.1225567090005,182.98935725000047,,,,,,,,,,,,,,,,,,,,,,,,,,,,,,,right,0.0,0.8638136660010787,,,,,sub-183,1,random_dot,,
right,right,29.0,1.0,14.0,left,0.0,1.1860030830030155,,speed,space,3.4603516249990207,,,,,,0.0,0.0,0.0,1.0,14.0,1.0,29.0,1.0,182.99591887499992,,,,,,,,,182.98971295900265,184.1781709999996,184.97267820900012,184.9613468339994,184.96183170900255,184.97267820900012,184.97267820900012,184.97267820900012,186.1641160420004,,,,,,,,,,,,,,,,,,,,,,,,,,,,,,,left,0.0,1.1860030830030155,,,,,sub-183,1,random_dot,,
left,left,30.0,0.0,15.0,left,1.0,1.7164179159990454,,speed,space,3.4603516249990207,,,,,,0.0,0.0,0.0,1.0,15.0,0.0,30.0,0.0,186.17135025000243,,,,,,,,,186.16457783400256,186.9620660420005,187.7642763750009,187.7562237090024,187.75682716700248,187.7642763750009,187.7642763750009,187.7642763750009,189.4905509170021,,,,,,,,,,,,,,,,,,,,,,,,,,,,,,,left,1.0,1.7164179159990454,,,,,sub-183,1,random_dot,,
right,right,31.0,1.0,15.0,right,1.0,1.0292485829995712,,speed,space,3.4603516249990207,,,,,,0.0,0.0,0.0,1.0,15.0,1.0,31.0,1.0,189.4979019590028,,,,,,,,,189.4910289590007,190.28930366699933,191.08060466700044,191.07280399999945,191.07342300000164,191.08060466700044,191.08060466700044,191.08060466700044,192.12402337499952,,,,,,,,,,,,,,,,,,,,,,,,,,,,,,,right,1.0,1.0292485829995712,,,,,sub-183,1,random_dot,,
right,right,32.0,0.0,16.0,left,0.0,0.9030189590012014,,speed,space,3.4603516249990207,,,,,,0.0,0.0,0.0,1.0,16.0,0.0,32.0,1.0,192.13140266700063,,,,,,,,,192.1245254170026,192.47253970900056,193.26402870899983,193.25618962500084,193.25680854200252,193.26402870899983,193.26402870899983,193.26402870899983,194.173135584002,,,,,,,,,,,,,,,,,,,,,,,,,,,,,,,left,0.0,0.9030189590012014,,,,,sub-183,1,random_dot,,
left,left,33.0,1.0,16.0,left,1.0,2.0218276669984334,,speed,space,3.4603516249990207,,,,,,0.0,0.0,0.0,1.0,16.0,1.0,33.0,0.0,194.1802700420012,,,,,,,,,194.17357429200277,195.362287750002,196.16442879200255,196.15622437500133,196.1570172089996,196.16442879200255,196.16442879200255,196.16442879200255,198.19010712499949,,,,,,,,,,,,,,,,,,,,,,,,,,,,,,,left,1.0,2.0218276669984334,,,,,sub-183,1,random_dot,,
right,right,34.0,0.0,17.0,left,0.0,0.8547042079990206,,speed,space,3.4603516249990207,,,,,,0.0,0.0,0.0,1.0,17.0,0.0,34.0,1.0,198.1967211250012,,,,,,,,,198.190463875002,198.5391199170008,199.3303655000018,199.3226142090025,199.32317795900235,199.3303655000018,199.3303655000018,199.3303655000018,200.19013770899983,,,,,,,,,,,,,,,,,,,,,,,,,,,,,,,left,0.0,0.8547042079990206,,,,,sub-183,1,random_dot,,
left,left,35.0,1.0,17.0,left,1.0,1.5488057499969727,,speed,space,3.4603516249990207,,,,,,0.0,0.0,0.0,1.0,17.0,1.0,35.0,0.0,200.1965462090011,,,,,,,,,200.19050733400215,201.3893365420008,202.17982020899944,202.17265079199933,202.17313950000243,202.17982020899944,202.17982020899944,202.17982020899944,203.73010208400228,,,,,,,,,,,,,,,,,,,,,,,,,,,,,,,left,1.0,1.5488057499969727,,,,,sub-183,1,random_dot,,
left,left,36.0,0.0,18.0,right,0.0,1.2693742079973165,,speed,space,3.4603516249990207,,,,,,0.0,0.0,0.0,1.0,18.0,0.0,36.0,0.0,203.7376186670008,,,,,,,,,203.7304574170012,204.5278529999996,205.32084925000163,205.3124531249996,205.3129549590012,205.32084925000163,205.32084925000163,205.32084925000163,206.5984971670005,,,,,,,,,,,,,,,,,,,,,,,,,,,,,,,right,0.0,1.2693742079973165,,,,,sub-183,1,random_dot,,
right,right,37.0,1.0,18.0,right,1.0,0.8454992500010121,,speed,space,3.4603516249990207,,,,,,0.0,0.0,0.0,1.0,18.0,1.0,37.0,1.0,206.60512737500176,,,,,,,,,206.5986510840012,206.945330417002,207.74702637500013,207.7392040420018,207.7398146250016,207.74702637500013,207.74702637500013,207.74702637500013,208.5956231670025,,,,,,,,,,,,,,,,,,,,,,,,,,,,,,,right,1.0,0.8454992500010121,,,,,sub-183,1,random_dot,,
left,left,38.0,0.0,19.0,left,1.0,1.6752987920008309,,speed,space,3.4603516249990207,,,,,,0.0,0.0,0.0,1.0,19.0,0.0,38.0,0.0,208.6042166670013,,,,,,,,,208.5960609169997,209.39563383399943,210.198011667002,210.18960974999936,210.19038470899977,210.198011667002,210.198011667002,210.198011667002,211.8785627920006,,,,,,,,,,,,,,,,,,,,,,,,,,,,,,,left,1.0,1.6752987920008309,,,,,sub-183,1,random_dot,,
right,right,39.0,1.0,19.0,right,1.0,0.9210755839994818,,speed,space,3.4603516249990207,,,,,,0.0,0.0,0.0,1.0,19.0,1.0,39.0,1.0,211.88795225000283,,,,,,,,,211.8789070420025,212.6780910000016,213.47123908399956,213.4618024170013,213.4622975839993,213.47123908399956,213.47123908399956,213.47123908399956,214.39609700000076,,,,,,,,,,,,,,,,,,,,,,,,,,,,,,,right,1.0,0.9210755839994818,,,,,sub-183,1,random_dot,,
right,right,40.0,0.0,20.0,left,0.0,2.426620375001221,,speed,space,3.4603516249990207,,,,,,0.0,0.0,0.0,1.0,20.0,0.0,40.0,1.0,214.4040972090006,,,,,,,,,214.396448042,215.5951692920025,216.3880343750025,216.37827491700227,216.3787752089993,216.3880343750025,216.3880343750025,216.3880343750025,218.82378237500237,,,,,,,,,,,,,,,,,,,,,,,,,,,,,,,left,0.0,2.426620375001221,,,,,sub-183,1,random_dot,,
left,left,41.0,1.0,20.0,right,0.0,2.181305207999685,,speed,space,3.4603516249990207,,,,,,0.0,0.0,0.0,1.0,20.0,1.0,41.0,0.0,218.83098266700108,,,,,,,,,218.82426054200187,219.17229633399984,219.9644361669998,219.9561855840002,219.95696758399936,219.9644361669998,219.9644361669998,219.9644361669998,222.15517104200265,,,,,,,,,,,,,,,,,,,,,,,,,,,,,,,right,0.0,2.181305207999685,,,,,sub-183,1,random_dot,,
right,right,42.0,0.0,21.0,right,1.0,1.0436392090014124,,speed,space,3.4603516249990207,,,,,,0.0,0.0,0.0,1.0,21.0,0.0,42.0,1.0,222.1592648750011,,,,,,,,,222.1555652919997,222.24522783400243,223.03816083399943,223.0281310419996,223.0286308750001,223.03816083399943,223.03816083399943,223.03816083399943,224.0902009590027,,,,,,,,,,,,,,,,,,,,,,,,,,,,,,,right,1.0,1.0436392090014124,,,,,sub-183,1,random_dot,,
left,left,43.0,1.0,21.0,left,1.0,1.0428355000003648,,speed,space,3.4603516249990207,,,,,,0.0,0.0,0.0,1.0,21.0,1.0,43.0,0.0,224.0973675420028,,,,,,,,,224.09069562500008,224.8891970000004,225.68039029200008,225.67260279200127,225.67321025000277,225.68039029200008,225.68039029200008,225.68039029200008,226.72950708400091,,,,,,,,,,,,,,,,,,,,,,,,,,,,,,,left,1.0,1.0428355000003648,,,,,sub-183,1,random_dot,,
right,right,44.0,0.0,22.0,left,0.0,2.4799767500007874,,speed,space,3.4603516249990207,,,,,,0.0,0.0,0.0,1.0,22.0,0.0,44.0,1.0,226.73771787499936,,,,,,,,,226.7299506670024,227.92874266700164,228.72229479200175,228.7114297920016,228.71192220900048,228.72229479200175,228.72229479200175,228.72229479200175,231.2062921670004,,,,,,,,,,,,,,,,,,,,,,,,,,,,,,,left,0.0,2.4799767500007874,,,,,sub-183,1,random_dot,,
left,left,45.0,1.0,22.0,right,0.0,0.8844494580007449,,speed,space,3.4603516249990207,,,,,,0.0,0.0,0.0,1.0,22.0,1.0,45.0,0.0,231.21327041699988,,,,,,,,,231.20674854200115,231.5445106670013,232.33885770900088,232.327752125002,232.32822958399996,232.33885770900088,232.33885770900088,232.33885770900088,233.2324343750006,,,,,,,,,,,,,,,,,,,,,,,,,,,,,,,right,0.0,0.8844494580007449,,,,,sub-183,1,random_dot,,
left,left,46.0,0.0,23.0,right,0.0,0.8002684999992198,,speed,space,3.4603516249990207,,,,,,0.0,0.0,0.0,1.0,23.0,0.0,46.0,0.0,233.2372412500008,,,,,,,,,233.23278683399985,233.32692033400235,234.12219287500196,234.1110820419999,234.11156475000095,234.12219287500196,234.12219287500196,234.12219287500196,234.9267671250018,,,,,,,,,,,,,,,,,,,,,,,,,,,,,,,right,0.0,0.8002684999992198,,,,,sub-183,1,random_dot,,
right,right,47.0,1.0,23.0,right,1.0,1.7618040829984238,,speed,space,3.4603516249990207,,,,,,0.0,0.0,0.0,1.0,23.0,1.0,47.0,1.0,234.93885170900103,,,,,,,,,234.92711775000132,235.272298459,236.064179584002,236.05590804200256,236.0566928750013,236.064179584002,236.064179584002,236.064179584002,237.82899241700213,,,,,,,,,,,,,,,,,,,,,,,,,,,,,,,right,1.0,1.7618040829984238,,,,,sub-183,1,random_dot,,
left,left,48.0,0.0,24.0,left,1.0,1.978246667000349,,speed,space,3.4603516249990207,,,,,,0.0,0.0,0.0,1.0,24.0,0.0,48.0,0.0,237.837764625001,,,,,,,,,237.82943179200083,237.92770908400053,238.7210584170025,238.71181200000137,238.71231708400228,238.7210584170025,238.7210584170025,238.7210584170025,240.7065337090025,,,,,,,,,,,,,,,,,,,,,,,,,,,,,,,left,1.0,1.978246667000349,,,,,sub-183,1,random_dot,,
right,right,49.0,1.0,24.0,right,1.0,0.7641021249983169,,speed,space,3.4603516249990207,,,,,,0.0,0.0,0.0,1.0,24.0,1.0,49.0,1.0,240.7134186250005,,,,,,,,,240.70697029200164,240.80581420900128,241.59679158400104,241.5890475840024,241.58962774999964,241.59679158400104,241.59679158400104,241.59679158400104,242.37275358400075,,,,,,,,,,,,,,,,,,,,,,,,,,,,,,,right,1.0,0.7641021249983169,,,,,sub-183,1,random_dot,,
left,left,50.0,0.0,25.0,left,1.0,1.677357332999236,,speed,space,3.4603516249990207,,,,,,0.0,0.0,0.0,1.0,25.0,0.0,50.0,0.0,242.377070417002,,,,,,,,,242.3730912499996,243.16101837500173,243.9539559590012,243.94514062500093,243.94564429200184,243.9539559590012,243.9539559590012,243.9539559590012,245.63998208400156,,,,,,,,,,,,,,,,,,,,,,,,,,,,,,,left,1.0,1.677357332999236,,,,,sub-183,1,random_dot,,
right,right,51.0,1.0,25.0,left,0.0,1.3984224580017326,,speed,space,3.4603516249990207,,,,,,0.0,0.0,0.0,1.0,25.0,1.0,51.0,1.0,245.64704133399937,,,,,,,,,245.64043379199936,246.8389070420017,247.6301862500004,247.622475917,247.62321920900283,247.6301862500004,247.6301862500004,247.6301862500004,249.03003708400135,,,,,,,,,,,,,,,,,,,,,,,,,,,,,,,left,0.0,1.3984224580017326,,,,,sub-183,1,random_dot,,
left,left,52.0,0.0,26.0,left,1.0,0.893228500000987,,speed,space,3.4603516249990207,,,,,,0.0,0.0,0.0,1.0,26.0,0.0,52.0,0.0,249.03724479200173,,,,,,,,,249.03040258400145,250.22797750000245,251.02203012500104,251.01073145900227,251.0112151249996,251.02203012500104,251.02203012500104,251.02203012500104,251.9227394590016,,,,,,,,,,,,,,,,,,,,,,,,,,,,,,,left,1.0,0.893228500000987,,,,,sub-183,1,random_dot,,
right,right,53.0,1.0,26.0,left,0.0,0.6842269160006254,,speed,space,3.4603516249990207,,,,,,0.0,0.0,0.0,1.0,26.0,1.0,53.0,1.0,251.92956091700037,,,,,,,,,251.92318429200168,253.1224002500021,253.91347154200048,253.90564004200127,253.90626366700235,253.91347154200048,253.91347154200048,253.91347154200048,254.60658620899997,,,,,,,,,,,,,,,,,,,,,,,,,,,,,,,left,0.0,0.6842269160006254,,,,,sub-183,1,random_dot,,
left,left,54.0,0.0,27.0,left,1.0,1.469060499999614,,speed,space,3.4603516249990207,,,,,,0.0,0.0,0.0,1.0,27.0,0.0,54.0,0.0,254.6133229170009,,,,,,,,,254.60703220900177,255.4054602920005,256.1964776669993,256.18895862499994,256.1895707090007,256.1964776669993,256.1964776669993,256.1964776669993,257.67291450000266,,,,,,,,,,,,,,,,,,,,,,,,,,,,,,,left,1.0,1.469060499999614,,,,,sub-183,1,random_dot,,
right,right,55.0,1.0,27.0,left,0.0,1.0952192920012749,,speed,space,3.4603516249990207,,,,,,0.0,0.0,0.0,1.0,27.0,1.0,55.0,1.0,257.6794361249995,,,,,,,,,257.6732545000013,258.4618402090018,259.2552510839996,259.2443727919999,259.2448703750015,259.2552510839996,259.2552510839996,259.2552510839996,260.3563865420001,,,,,,,,,,,,,,,,,,,,,,,,,,,,,,,left,0.0,1.0952192920012749,,,,,sub-183,1,random_dot,,
right,right,56.0,0.0,28.0,left,0.0,3.2259140409987594,,speed,space,3.4603516249990207,,,,,,0.0,0.0,0.0,1.0,28.0,0.0,56.0,1.0,260.3629182500008,,,,,,,,,260.3567244170008,261.155030209,261.9468612920027,261.9390737920003,261.9396961670027,261.9468612920027,261.9468612920027,261.9468612920027,265.182072292002,,,,,,,,,,,,,,,,,,,,,,,,,,,,,,,left,0.0,3.2259140409987594,,,,,sub-183,1,random_dot,,
left,left,57.0,1.0,28.0,left,1.0,1.4301447090001602,,speed,space,3.4603516249990207,,,,,,0.0,0.0,0.0,1.0,28.0,1.0,57.0,0.0,265.1870773340015,,,,,,,,,265.18244308400244,266.3784859590014,267.17997579200164,267.172139667,267.17275870900266,267.17997579200164,267.17997579200164,267.17997579200164,268.6122251670022,,,,,,,,,,,,,,,,,,,,,,,,,,,,,,,left,1.0,1.4301447090001602,,,,,sub-183,1,random_dot,,
right,right,58.0,0.0,29.0,right,1.0,1.7966854579972278,,speed,space,3.4603516249990207,,,,,,0.0,0.0,0.0,1.0,29.0,0.0,58.0,1.0,268.6207611250029,,,,,,,,,268.61257316699994,269.8118368750001,270.6037044170007,270.59485062500244,270.59534412500216,270.6037044170007,270.6037044170007,270.6037044170007,272.4066058749995,,,,,,,,,,,,,,,,,,,,,,,,,,,,,,,right,1.0,1.7966854579972278,,,,,sub-183,1,random_dot,,
left,left,59.0,1.0,29.0,left,1.0,0.9096971669969208,,speed,space,3.4603516249990207,,,,,,0.0,0.0,0.0,1.0,29.0,1.0,59.0,0.0,272.41368004200194,,,,,,,,,272.4070977500014,273.20530783399954,273.99659783400057,273.9887782090009,273.9893752090029,273.99659783400057,273.99659783400057,273.99659783400057,274.9162157089995,,,,,,,,,,,,,,,,,,,,,,,,,,,,,,,left,1.0,0.9096971669969208,,,,,sub-183,1,random_dot,,
,,0.0,0.0,0.0,,,,,speed,space,3.4603516249990207,,,,,,0.0,0.0,0.0,1.0,,,,,,,,,,,,,,,,,,,,,,,,,,,,,,,,,,,,,,,,,,,,,,,,,,,,,,,,,,,,sub-183,1,random_dot,,
right,right,0.0,0.0,0.0,right,1.0,3.506731875000696,,accuracy,space,8.581967958998575,,,,,,0.0,1.0,1.0,0.0,0.0,0.0,0.0,1.0,283.6149498340019,,,,,,,,,283.60732804200234,283.9448838749995,284.7369397090006,284.7279116669997,284.7284359590012,284.7369397090006,284.7369397090006,284.7369397090006,288.24593587500203,,,,,,,,,,,,,,,,,,,,,,,,275.0058345840007,275.0091378340003,275.0091378340003,283.5964245840005,space,8.581967958998575,,right,1.0,3.506731875000696,,,,,sub-183,1,random_dot,,
left,left,1.0,1.0,0.0,right,0.0,1.2205710420021203,,accuracy,space,8.581967958998575,,,,,,0.0,1.0,1.0,0.0,0.0,1.0,1.0,0.0,288.2535620000017,,,,,,,,,288.24628883400146,289.4438511670014,290.2383182090016,290.22707845900004,290.2275704999993,290.2383182090016,290.2383182090016,290.2383182090016,291.4631877089996,,,,,,,,,,,,,,,,,,,,,,,,,,,,,,,right,0.0,1.2205710420021203,,,,,sub-183,1,random_dot,,
left,left,2.0,0.0,1.0,left,1.0,1.4516724589993828,,accuracy,space,8.581967958998575,,,,,,0.0,1.0,1.0,0.0,1.0,0.0,2.0,0.0,291.47019512500265,,,,,,,,,291.463653584,292.26067183399937,293.05519783400086,293.04354500000045,293.0440381250009,293.05519783400086,293.05519783400086,293.05519783400086,294.51164908400096,,,,,,,,,,,,,,,,,,,,,,,,,,,,,,,left,1.0,1.4516724589993828,,,,,sub-183,1,random_dot,,
right,right,3.0,1.0,1.0,right,1.0,1.0276817500016475,,accuracy,space,8.581967958998575,,,,,,0.0,1.0,1.0,0.0,1.0,1.0,3.0,1.0,294.5204723339993,,,,,,,,,294.5119934590002,295.71107045900135,296.5046225840015,296.4943249170028,296.4948132919999,296.5046225840015,296.5046225840015,296.5046225840015,297.53941612500057,,,,,,,,,,,,,,,,,,,,,,,,,,,,,,,right,1.0,1.0276817500016475,,,,,sub-183,1,random_dot,,
right,right,4.0,0.0,2.0,left,0.0,1.4942008329999226,,accuracy,space,8.581967958998575,,,,,,0.0,1.0,1.0,0.0,2.0,0.0,4.0,1.0,297.5459340000016,,,,,,,,,297.5397567090004,297.63842741700137,298.43015387500054,298.42192904200056,298.42249458399965,298.43015387500054,298.43015387500054,298.43015387500054,299.9296910000012,,,,,,,,,,,,,,,,,,,,,,,,,,,,,,,left,0.0,1.4942008329999226,,,,,sub-183,1,random_dot,,
left,left,5.0,1.0,2.0,left,1.0,2.285608709000371,,accuracy,space,8.581967958998575,,,,,,0.0,1.0,1.0,0.0,2.0,1.0,5.0,0.0,299.93687191700155,,,,,,,,,299.9300495839998,300.72653374999936,301.5217308749998,301.5105449170005,301.5110655419994,301.5217308749998,301.5217308749998,301.5217308749998,303.80927900000097,,,,,,,,,,,,,,,,,,,,,,,,,,,,,,,left,1.0,2.285608709000371,,,,,sub-183,1,random_dot,,
right,right,6.0,0.0,3.0,left,0.0,1.9546221250020608,,accuracy,space,8.581967958998575,,,,,,0.0,1.0,1.0,0.0,3.0,0.0,6.0,1.0,303.8217520420003,,,,,,,,,303.80962954200004,304.1551567500028,304.9461982920002,304.9386642919999,304.9392515420004,304.9461982920002,304.9461982920002,304.9461982920002,306.9050226670006,,,,,,,,,,,,,,,,,,,,,,,,,,,,,,,left,0.0,1.9546221250020608,,,,,sub-183,1,random_dot,,
left,left,7.0,1.0,3.0,left,1.0,1.1518892079984653,,accuracy,space,8.581967958998575,,,,,,0.0,1.0,1.0,0.0,3.0,1.0,7.0,0.0,306.91156712500015,,,,,,,,,306.9053654590025,307.2441074590024,308.0383935000027,308.0272923340017,308.02779487500084,308.0383935000027,308.0383935000027,308.0383935000027,309.1959510000015,,,,,,,,,,,,,,,,,,,,,,,,,,,,,,,left,1.0,1.1518892079984653,,,,,sub-183,1,random_dot,,
right,right,8.0,0.0,4.0,right,1.0,1.641943166996498,,accuracy,space,8.581967958998575,,,,,,0.0,1.0,1.0,0.0,4.0,0.0,8.0,1.0,309.2034390000008,,,,,,,,,309.1963037919995,309.2939355840026,310.0885957499995,310.07737295900006,310.0778446250006,310.0885957499995,310.0885957499995,310.0885957499995,311.7397636250025,,,,,,,,,,,,,,,,,,,,,,,,,,,,,,,right,1.0,1.641943166996498,,,,,sub-183,1,random_dot,,
left,left,9.0,1.0,4.0,right,0.0,1.7721433339975192,,accuracy,space,8.581967958998575,,,,,,0.0,1.0,1.0,0.0,4.0,1.0,9.0,0.0,311.74763087500105,,,,,,,,,311.740272084,312.0884428749996,312.87973770900135,312.8719195420017,312.87252133400034,312.87973770900135,312.87973770900135,312.87973770900135,314.6562410840015,,,,,,,,,,,,,,,,,,,,,,,,,,,,,,,right,0.0,1.7721433339975192,,,,,sub-183,1,random_dot,,
left,left,10.0,0.0,5.0,right,0.0,1.6636394999986803,,accuracy,space,8.581967958998575,,,,,,0.0,1.0,1.0,0.0,5.0,0.0,10.0,0.0,314.6634508749994,,,,,,,,,314.6567183340012,314.7549104589998,315.5468536670014,315.5387190420006,315.53933791700183,315.5468536670014,315.5468536670014,315.5468536670014,317.2118004590011,,,,,,,,,,,,,,,,,,,,,,,,,,,,,,,right,0.0,1.6636394999986803,,,,,sub-183,1,random_dot,,
right,right,11.0,1.0,5.0,left,0.0,1.5448220409998612,,accuracy,space,8.581967958998575,,,,,,0.0,1.0,1.0,0.0,5.0,1.0,11.0,1.0,317.2200579170021,,,,,,,,,317.2121443340002,317.56069050000224,318.35481608400005,318.3432547500015,318.34373395900184,318.35481608400005,318.35481608400005,318.35481608400005,319.90642712500266,,,,,,,,,,,,,,,,,,,,,,,,,,,,,,,left,0.0,1.5448220409998612,,,,,sub-183,1,random_dot,,
left,left,12.0,0.0,6.0,right,0.0,2.616112666997651,,accuracy,space,8.581967958998575,,,,,,0.0,1.0,1.0,0.0,6.0,0.0,12.0,0.0,319.91376375000254,,,,,,,,,319.9069397090025,320.0051212920007,320.79636083399964,320.78855725000176,320.7891816670017,320.79636083399964,320.79636083399964,320.79636083399964,323.42098604200146,,,,,,,,,,,,,,,,,,,,,,,,,,,,,,,right,0.0,2.616112666997651,,,,,sub-183,1,random_dot,,
right,right,13.0,1.0,6.0,right,1.0,1.7986663339979714,,accuracy,space,8.581967958998575,,,,,,0.0,1.0,1.0,0.0,6.0,1.0,13.0,1.0,323.42453687500165,,,,,,,,,323.4213318750008,323.51087612500123,324.3033436670012,324.29452883400154,324.2950135840001,324.3033436670012,324.3033436670012,324.3033436670012,326.1061782920005,,,,,,,,,,,,,,,,,,,,,,,,,,,,,,,right,1.0,1.7986663339979714,,,,,sub-183,1,random_dot,,
left,left,14.0,0.0,7.0,right,0.0,1.350125917000696,,accuracy,space,8.581967958998575,,,,,,0.0,1.0,1.0,0.0,7.0,0.0,14.0,0.0,326.113133750001,,,,,,,,,326.106627125002,327.3048893340019,328.0961367500022,328.08833462500115,328.0889344999996,328.0961367500022,328.0961367500022,328.0961367500022,329.4561909590011,,,,,,,,,,,,,,,,,,,,,,,,,,,,,,,right,0.0,1.350125917000696,,,,,sub-183,1,random_dot,,
right,right,15.0,1.0,7.0,left,0.0,1.796352332999959,,accuracy,space,8.581967958998575,,,,,,0.0,1.0,1.0,0.0,7.0,1.0,15.0,1.0,329.46385716700024,,,,,,,,,329.4566860420018,329.55489491700064,330.3457805420003,330.3383783749996,330.33893541699945,330.3457805420003,330.3457805420003,330.3457805420003,332.1462229170029,,,,,,,,,,,,,,,,,,,,,,,,,,,,,,,left,0.0,1.796352332999959,,,,,sub-183,1,random_dot,,
right,right,16.0,0.0,8.0,right,1.0,1.9440465830011815,,accuracy,space,8.581967958998575,,,,,,0.0,1.0,1.0,0.0,8.0,0.0,16.0,1.0,332.15322062500127,,,,,,,,,332.146654209002,332.4936537089998,333.28692299999966,333.2777118340018,333.27820066700224,333.28692299999966,333.28692299999966,333.28692299999966,335.2390491670012,,,,,,,,,,,,,,,,,,,,,,,,,,,,,,,right,1.0,1.9440465830011815,,,,,sub-183,1,random_dot,,
left,left,17.0,1.0,8.0,right,0.0,2.405599749999965,,accuracy,space,8.581967958998575,,,,,,0.0,1.0,1.0,0.0,8.0,1.0,17.0,0.0,335.24564370900043,,,,,,,,,335.23938912499943,336.0280015000026,336.8294315839994,336.8216806670025,336.8222537500005,336.8294315839994,336.8294315839994,336.8294315839994,339.2389065839998,,,,,,,,,,,,,,,,,,,,,,,,,,,,,,,right,0.0,2.405599749999965,,,,,sub-183,1,random_dot,,
right,right,18.0,0.0,9.0,left,0.0,0.7521914999997534,,accuracy,space,8.581967958998575,,,,,,0.0,1.0,1.0,0.0,9.0,0.0,18.0,1.0,339.2454940000025,,,,,,,,,339.23926645900065,340.42715570899963,341.21987812500083,341.2103907920027,341.2108810000027,341.21987812500083,341.21987812500083,341.21987812500083,341.9812461670008,,,,,,,,,,,,,,,,,,,,,,,,,,,,,,,left,0.0,0.7521914999997534,,,,,sub-183,1,random_dot,,
left,left,19.0,1.0,9.0,left,1.0,2.284249666998221,,accuracy,space,8.581967958998575,,,,,,0.0,1.0,1.0,0.0,9.0,1.0,19.0,0.0,341.9865224999994,,,,,,,,,341.9815886670003,342.07777416700264,342.88027579200207,342.8720980420003,342.8728789170018,342.88027579200207,342.88027579200207,342.88027579200207,345.1722248750011,,,,,,,,,,,,,,,,,,,,,,,,,,,,,,,left,1.0,2.284249666998221,,,,,sub-183,1,random_dot,,
right,right,20.0,0.0,10.0,left,0.0,1.002383082999586,,accuracy,space,8.581967958998575,,,,,,0.0,1.0,1.0,0.0,10.0,0.0,20.0,1.0,345.1788190840016,,,,,,,,,345.1725705839999,345.2594665840006,346.0531857919996,346.04373783399933,346.04432525000084,346.0531857919996,346.0531857919996,346.0531857919996,347.06507941699965,,,,,,,,,,,,,,,,,,,,,,,,,,,,,,,left,0.0,1.002383082999586,,,,,sub-183,1,random_dot,,
left,left,21.0,1.0,10.0,left,1.0,1.0818913330003852,,accuracy,space,8.581967958998575,,,,,,0.0,1.0,1.0,0.0,10.0,1.0,21.0,0.0,347.06980300000214,,,,,,,,,347.0654337920023,348.2607070840022,349.0531760840022,349.0443915420001,349.04493941700275,349.0531760840022,349.0531760840022,349.0531760840022,350.13925550000204,,,,,,,,,,,,,,,,,,,,,,,,,,,,,,,left,1.0,1.0818913330003852,,,,,sub-183,1,random_dot,,
left,left,22.0,0.0,11.0,left,1.0,2.2700714170023275,,accuracy,space,8.581967958998575,,,,,,0.0,1.0,1.0,0.0,11.0,0.0,22.0,0.0,350.1463774590011,,,,,,,,,350.1397282500002,350.23808199999985,351.0295670000014,351.0217010000015,351.0224889170022,351.0295670000014,351.0295670000014,351.0295670000014,353.30430820900074,,,,,,,,,,,,,,,,,,,,,,,,,,,,,,,left,1.0,2.2700714170023275,,,,,sub-183,1,random_dot,,
right,right,23.0,1.0,11.0,right,1.0,1.0380077500012703,,accuracy,space,8.581967958998575,,,,,,0.0,1.0,1.0,0.0,11.0,1.0,23.0,1.0,353.31112695900083,,,,,,,,,353.3047284170025,354.0945485420016,354.89608450000014,354.88822749999963,354.8888351250025,354.89608450000014,354.89608450000014,354.89608450000014,355.93886845900124,,,,,,,,,,,,,,,,,,,,,,,,,,,,,,,right,1.0,1.0380077500012703,,,,,sub-183,1,random_dot,,
left,left,24.0,0.0,12.0,right,0.0,0.9632878330012318,,accuracy,space,8.581967958998575,,,,,,0.0,1.0,1.0,0.0,12.0,0.0,24.0,0.0,355.94545262500105,,,,,,,,,355.9392118750002,356.27621858400016,357.069745959001,357.0611370840016,357.06161666700064,357.069745959001,357.069745959001,357.069745959001,358.03940241700184,,,,,,,,,,,,,,,,,,,,,,,,,,,,,,,right,0.0,0.9632878330012318,,,,,sub-183,1,random_dot,,
right,right,25.0,1.0,12.0,left,0.0,0.7476446249966102,,accuracy,space,8.581967958998575,,,,,,0.0,1.0,1.0,0.0,12.0,1.0,25.0,1.0,358.0464982500016,,,,,,,,,358.0398969170019,358.8380843750019,359.6303227499993,359.6219436249994,359.62269341700085,359.6303227499993,359.6303227499993,359.6303227499993,360.3875125000013,,,,,,,,,,,,,,,,,,,,,,,,,,,,,,,left,0.0,0.7476446249966102,,,,,sub-183,1,random_dot,,
right,right,26.0,0.0,13.0,right,1.0,1.4749764169973787,,accuracy,space,8.581967958998575,,,,,,0.0,1.0,1.0,0.0,13.0,0.0,26.0,1.0,360.3912292090026,,,,,,,,,360.387885084001,360.72740516700287,361.5212677920026,361.5101539999996,361.5106412090026,361.5212677920026,361.5212677920026,361.5212677920026,363.0043721670008,,,,,,,,,,,,,,,,,,,,,,,,,,,,,,,right,1.0,1.4749764169973787,,,,,sub-183,1,random_dot,,
left,left,27.0,1.0,13.0,left,1.0,1.4008131659975334,,accuracy,space,8.581967958998575,,,,,,0.0,1.0,1.0,0.0,13.0,1.0,27.0,0.0,363.0108180000025,,,,,,,,,363.00473041700025,364.19442762499966,364.99604008400274,364.98826820900285,364.98887695899975,364.99604008400274,364.99604008400274,364.99604008400274,366.4058879170007,,,,,,,,,,,,,,,,,,,,,,,,,,,,,,,left,1.0,1.4008131659975334,,,,,sub-183,1,random_dot,,
left,left,28.0,0.0,14.0,right,0.0,1.6667754579975735,,accuracy,space,8.581967958998575,,,,,,0.0,1.0,1.0,0.0,14.0,0.0,28.0,0.0,366.4135113750017,,,,,,,,,366.40640170900224,366.50473375,367.2959981250024,367.2881887500007,367.2889303340016,367.2959981250024,367.2959981250024,367.2959981250024,368.9724742500002,,,,,,,,,,,,,,,,,,,,,,,,,,,,,,,right,0.0,1.6667754579975735,,,,,sub-183,1,random_dot,,
right,right,29.0,1.0,14.0,right,1.0,1.0154936669969177,,accuracy,space,8.581967958998575,,,,,,0.0,1.0,1.0,0.0,14.0,1.0,29.0,1.0,368.9796784169994,,,,,,,,,368.97294712499934,369.0712849170013,369.8628844170016,369.8551222919996,369.85572650000177,369.8628844170016,369.8628844170016,369.8628844170016,370.8893442500012,,,,,,,,,,,,,,,,,,,,,,,,,,,,,,,right,1.0,1.0154936669969177,,,,,sub-183,1,random_dot,,
left,left,30.0,0.0,15.0,left,1.0,0.942428624999593,,accuracy,space,8.581967958998575,,,,,,0.0,1.0,1.0,0.0,15.0,0.0,30.0,0.0,370.8966040000014,,,,,,,,,370.8898137920005,371.2378736669998,372.0295852500021,372.0215396670028,372.02213470900097,372.0295852500021,372.0295852500021,372.0295852500021,372.9779807500017,,,,,,,,,,,,,,,,,,,,,,,,,,,,,,,left,1.0,0.942428624999593,,,,,sub-183,1,random_dot,,
right,right,31.0,1.0,15.0,right,1.0,0.8514812079993135,,accuracy,space,8.581967958998575,,,,,,0.0,1.0,1.0,0.0,15.0,1.0,31.0,1.0,372.9864222920005,,,,,,,,,372.9783457090016,373.07674687500185,373.8713181250023,373.8599556670015,373.86048066700096,373.8713181250023,373.8713181250023,373.8713181250023,374.7317207500018,,,,,,,,,,,,,,,,,,,,,,,,,,,,,,,right,1.0,0.8514812079993135,,,,,sub-183,1,random_dot,,
left,left,32.0,0.0,16.0,left,1.0,0.8141607920006209,,accuracy,space,8.581967958998575,,,,,,0.0,1.0,1.0,0.0,16.0,0.0,32.0,0.0,374.7363262920008,,,,,,,,,374.7320750840008,375.0773014590013,375.87131316700106,375.8600436250017,375.860545042,375.87131316700106,375.87131316700106,375.87131316700106,376.6882137089997,,,,,,,,,,,,,,,,,,,,,,,,,,,,,,,left,1.0,0.8141607920006209,,,,,sub-183,1,random_dot,,
right,right,33.0,1.0,16.0,right,1.0,3.81934425000145,,accuracy,space,8.581967958998575,,,,,,0.0,1.0,1.0,0.0,16.0,1.0,33.0,1.0,376.6946287089995,,,,,,,,,376.68855233400245,376.7760689170027,377.57109212499927,377.5602382500001,377.5607600420008,377.57109212499927,377.57109212499927,377.57109212499927,381.3944634590007,,,,,,,,,,,,,,,,,,,,,,,,,,,,,,,right,1.0,3.81934425000145,,,,,sub-183,1,random_dot,,
left,left,34.0,0.0,17.0,right,0.0,4.225003833998926,,accuracy,space,8.581967958998575,,,,,,0.0,1.0,1.0,0.0,17.0,0.0,34.0,0.0,381.40298254200025,,,,,,,,,381.3949320419997,382.5942730420029,383.3867866670007,383.3772710840021,383.3777757919997,383.3867866670007,383.3867866670007,383.3867866670007,387.621515584,,,,,,,,,,,,,,,,,,,,,,,,,,,,,,,right,0.0,4.225003833998926,,,,,sub-183,1,random_dot,,
right,right,35.0,1.0,17.0,right,1.0,1.254127749998588,,accuracy,space,8.581967958998575,,,,,,0.0,1.0,1.0,0.0,17.0,1.0,35.0,1.0,387.6254262500006,,,,,,,,,387.62186825000026,387.7092942500021,388.50458758400055,388.4931382920004,388.493660250002,388.50458758400055,388.50458758400055,388.50458758400055,389.7628586669998,,,,,,,,,,,,,,,,,,,,,,,,,,,,,,,right,1.0,1.254127749998588,,,,,sub-183,1,random_dot,,
right,right,36.0,0.0,18.0,left,0.0,1.1514221249999537,,accuracy,space,8.581967958998575,,,,,,0.0,1.0,1.0,0.0,18.0,0.0,36.0,1.0,389.76979216700056,,,,,,,,,389.763314459,390.5591172919994,391.3544150420021,391.34329716700086,391.3437912920017,391.3544150420021,391.3544150420021,391.3544150420021,392.511769875,,,,,,,,,,,,,,,,,,,,,,,,,,,,,,,left,0.0,1.1514221249999537,,,,,sub-183,1,random_dot,,
left,left,37.0,1.0,18.0,right,0.0,2.997532166999008,,accuracy,space,8.581967958998575,,,,,,0.0,1.0,1.0,0.0,18.0,1.0,37.0,0.0,392.5194847919993,,,,,,,,,392.5121843750021,392.8609283750011,393.6628880419994,393.6549281670013,393.655726500001,393.6628880419994,393.6628880419994,393.6628880419994,396.6621256670005,,,,,,,,,,,,,,,,,,,,,,,,,,,,,,,right,0.0,2.997532166999008,,,,,sub-183,1,random_dot,,
left,left,38.0,0.0,19.0,left,1.0,1.174750458001654,,accuracy,space,8.581967958998575,,,,,,0.0,1.0,1.0,0.0,19.0,0.0,38.0,0.0,396.669464417002,,,,,,,,,396.6624805419997,396.76009737500135,397.5532897500016,397.544204875001,397.54469933400105,397.5532897500016,397.5532897500016,397.5532897500016,398.7386433749998,,,,,,,,,,,,,,,,,,,,,,,,,,,,,,,left,1.0,1.174750458001654,,,,,sub-183,1,random_dot,,
right,right,39.0,1.0,19.0,left,0.0,1.4931440000000291,,accuracy,space,8.581967958998575,,,,,,0.0,1.0,1.0,0.0,19.0,1.0,39.0,1.0,398.7452713340026,,,,,,,,,398.7389850840009,399.0771478339993,399.8707324589996,399.860135875002,399.8606809170015,399.8707324589996,399.8707324589996,399.8707324589996,401.3719601670018,,,,,,,,,,,,,,,,,,,,,,,,,,,,,,,left,0.0,1.4931440000000291,,,,,sub-183,1,random_dot,,
left,left,40.0,0.0,20.0,right,0.0,1.196415040998545,,accuracy,space,8.581967958998575,,,,,,0.0,1.0,1.0,0.0,20.0,0.0,40.0,0.0,401.378490209001,,,,,,,,,401.37229916700016,402.560243709002,403.3531163340013,403.3435164170005,403.3440038340013,403.3531163340013,403.3531163340013,403.3531163340013,404.5553636250006,,,,,,,,,,,,,,,,,,,,,,,,,,,,,,,right,0.0,1.196415040998545,,,,,sub-183,1,random_dot,,
right,right,41.0,1.0,20.0,right,1.0,1.0316622909995203,,accuracy,space,8.581967958998575,,,,,,0.0,1.0,1.0,0.0,20.0,1.0,41.0,1.0,404.5622777919998,,,,,,,,,404.5558045840007,405.7439672090004,406.5458646670013,406.5378732499994,406.5384598340024,406.5458646670013,406.5458646670013,406.5458646670013,407.5793034590024,,,,,,,,,,,,,,,,,,,,,,,,,,,,,,,right,1.0,1.0316622909995203,,,,,sub-183,1,random_dot,,
left,left,42.0,0.0,21.0,left,1.0,1.3846762909997778,,accuracy,space,8.581967958998575,,,,,,0.0,1.0,1.0,0.0,21.0,0.0,42.0,0.0,407.5863635839996,,,,,,,,,407.5797531250028,408.37747720900006,409.1708304590029,409.16010941700006,409.1605927500023,409.1708304590029,409.1708304590029,409.1708304590029,410.5641812499998,,,,,,,,,,,,,,,,,,,,,,,,,,,,,,,left,1.0,1.3846762909997778,,,,,sub-183,1,random_dot,,
right,right,43.0,1.0,21.0,left,0.0,3.4124754579970613,,accuracy,space,8.581967958998575,,,,,,0.0,1.0,1.0,0.0,21.0,1.0,43.0,1.0,410.5692997090009,,,,,,,,,410.5645307500017,410.9101659590015,411.70426662500176,411.6931547919994,411.693641959002,411.70426662500176,411.70426662500176,411.70426662500176,415.1219082919997,,,,,,,,,,,,,,,,,,,,,,,,,,,,,,,left,0.0,3.4124754579970613,,,,,sub-183,1,random_dot,,
left,left,44.0,0.0,22.0,left,1.0,1.1090692910001962,,accuracy,space,8.581967958998575,,,,,,0.0,1.0,1.0,0.0,22.0,0.0,44.0,0.0,415.1285209590024,,,,,,,,,415.1222503749996,415.45887737500016,416.25425491699934,416.24313204200007,416.2436402090025,416.25425491699934,416.25425491699934,416.25425491699934,417.3728672920006,,,,,,,,,,,,,,,,,,,,,,,,,,,,,,,left,1.0,1.1090692910001962,,,,,sub-183,1,random_dot,,
right,right,45.0,1.0,22.0,right,1.0,2.130870166998648,,accuracy,space,8.581967958998575,,,,,,0.0,1.0,1.0,0.0,22.0,1.0,45.0,1.0,417.3794754590017,,,,,,,,,417.3732595420006,418.5711562920005,419.36258666700087,419.3545844170003,419.3551639590005,419.36258666700087,419.36258666700087,419.36258666700087,421.504058292001,,,,,,,,,,,,,,,,,,,,,,,,,,,,,,,right,1.0,2.130870166998648,,,,,sub-183,1,random_dot,,
right,right,46.0,0.0,23.0,right,1.0,1.3090864999976477,,accuracy,space,8.581967958998575,,,,,,0.0,1.0,1.0,0.0,23.0,0.0,46.0,1.0,421.50835491700127,,,,,,,,,421.5044052090016,422.2940834590008,423.0959969169999,423.0880539589998,423.088815375002,423.0959969169999,423.0959969169999,423.0959969169999,424.41474058400127,,,,,,,,,,,,,,,,,,,,,,,,,,,,,,,right,1.0,1.3090864999976477,,,,,sub-183,1,random_dot,,
left,left,47.0,1.0,23.0,left,1.0,1.382651040999917,,accuracy,space,8.581967958998575,,,,,,0.0,1.0,1.0,0.0,23.0,1.0,47.0,0.0,424.4193162920019,,,,,,,,,424.4151039999997,425.21072300000014,426.01196762499967,426.0043320420009,426.004945875,426.01196762499967,426.01196762499967,426.01196762499967,427.4037727499999,,,,,,,,,,,,,,,,,,,,,,,,,,,,,,,left,1.0,1.382651040999917,,,,,sub-183,1,random_dot,,
left,left,48.0,0.0,24.0,left,1.0,1.8993512079978243,,accuracy,space,8.581967958998575,,,,,,0.0,1.0,1.0,0.0,24.0,0.0,48.0,0.0,427.40726191700014,,,,,,,,,427.4041245420012,427.7408099999993,428.53782400000273,428.52632537500176,428.5267647920009,428.53782400000273,428.53782400000273,428.53782400000273,430.4388811669997,,,,,,,,,,,,,,,,,,,,,,,,,,,,,,,left,1.0,1.8993512079978243,,,,,sub-183,1,random_dot,,
right,right,49.0,1.0,24.0,left,0.0,3.89335624999876,,accuracy,space,8.581967958998575,,,,,,0.0,1.0,1.0,0.0,24.0,1.0,49.0,1.0,430.4460895840021,,,,,,,,,430.43941554200137,431.2374427499999,432.03617970900086,432.0248582919994,432.0253866670028,432.03617970900086,432.03617970900086,432.03617970900086,435.9391862500015,,,,,,,,,,,,,,,,,,,,,,,,,,,,,,,left,0.0,3.89335624999876,,,,,sub-183,1,random_dot,,
right,right,50.0,0.0,25.0,right,1.0,1.5705695420001575,,accuracy,space,8.581967958998575,,,,,,0.0,1.0,1.0,0.0,25.0,0.0,50.0,1.0,435.9465023750017,,,,,,,,,435.9397146670017,436.2877803340016,437.0788898339997,437.0710070420028,437.07159341700026,437.0788898339997,437.0788898339997,437.0788898339997,438.654594959,,,,,,,,,,,,,,,,,,,,,,,,,,,,,,,right,1.0,1.5705695420001575,,,,,sub-183,1,random_dot,,
left,left,51.0,1.0,25.0,left,1.0,1.4830519579991233,,accuracy,space,8.581967958998575,,,,,,0.0,1.0,1.0,0.0,25.0,1.0,51.0,0.0,438.6617332919996,,,,,,,,,438.655054584,439.44382670900086,440.2455079169995,440.2376907500002,440.2383065840004,440.2455079169995,440.2455079169995,440.2455079169995,441.73831166700256,,,,,,,,,,,,,,,,,,,,,,,,,,,,,,,left,1.0,1.4830519579991233,,,,,sub-183,1,random_dot,,
right,right,52.0,0.0,26.0,left,0.0,1.4493622080008208,,accuracy,space,8.581967958998575,,,,,,0.0,1.0,1.0,0.0,26.0,0.0,52.0,1.0,441.7449012500001,,,,,,,,,441.7386647919993,442.077065542002,442.878510417002,442.8709725840017,442.8715976670028,442.878510417002,442.878510417002,442.878510417002,444.3390190419996,,,,,,,,,,,,,,,,,,,,,,,,,,,,,,,left,0.0,1.4493622080008208,,,,,sub-183,1,random_dot,,
left,left,53.0,1.0,26.0,left,1.0,1.6322252079989994,,accuracy,space,8.581967958998575,,,,,,0.0,1.0,1.0,0.0,26.0,1.0,53.0,0.0,444.3462760420007,,,,,,,,,444.3395168749994,445.5374682090005,446.3287342090007,446.3209475420008,446.32152633400256,446.3287342090007,446.3287342090007,446.3287342090007,447.970161084002,,,,,,,,,,,,,,,,,,,,,,,,,,,,,,,left,1.0,1.6322252079989994,,,,,sub-183,1,random_dot,,
right,right,54.0,0.0,27.0,left,0.0,0.968837041997176,,accuracy,space,8.581967958998575,,,,,,0.0,1.0,1.0,0.0,27.0,0.0,54.0,1.0,447.9736142500005,,,,,,,,,447.9705175420022,448.3104675840004,449.1120022920004,449.10423662500034,449.104796292002,449.1120022920004,449.1120022920004,449.1120022920004,450.0885768750013,,,,,,,,,,,,,,,,,,,,,,,,,,,,,,,left,0.0,0.968837041997176,,,,,sub-183,1,random_dot,,
left,left,55.0,1.0,27.0,left,1.0,0.7844556249983725,,accuracy,space,8.581967958998575,,,,,,0.0,1.0,1.0,0.0,27.0,1.0,55.0,0.0,450.0955974999997,,,,,,,,,450.08901883400176,450.43741620900255,451.2296014170024,451.2212864590001,451.2218830839993,451.2296014170024,451.2296014170024,451.2296014170024,452.0207805419996,,,,,,,,,,,,,,,,,,,,,,,,,,,,,,,left,1.0,0.7844556249983725,,,,,sub-183,1,random_dot,,
right,right,56.0,0.0,28.0,left,0.0,1.182143834001181,,accuracy,space,8.581967958998575,,,,,,0.0,1.0,1.0,0.0,28.0,0.0,56.0,1.0,452.02721654200286,,,,,,,,,452.02116300000125,453.2107327500016,454.0117228340023,454.0041426250027,454.004755209,454.0117228340023,454.0117228340023,454.0117228340023,455.195628292,,,,,,,,,,,,,,,,,,,,,,,,,,,,,,,left,0.0,1.182143834001181,,,,,sub-183,1,random_dot,,
left,left,57.0,1.0,28.0,right,0.0,0.654631541998242,,accuracy,space,8.581967958998575,,,,,,0.0,1.0,1.0,0.0,28.0,1.0,57.0,0.0,455.2023010000012,,,,,,,,,455.1959846250029,455.9939654590016,456.7954292089999,456.7875559589993,456.78818020900144,456.7954292089999,456.7954292089999,456.7954292089999,457.4551644590029,,,,,,,,,,,,,,,,,,,,,,,,,,,,,,,right,0.0,0.654631541998242,,,,,sub-183,1,random_dot,,
right,right,58.0,0.0,29.0,left,0.0,3.460048459000973,,accuracy,space,8.581967958998575,,,,,,0.0,1.0,1.0,0.0,29.0,0.0,58.0,1.0,457.46184616699975,,,,,,,,,457.4555493750013,457.5540044170011,458.3450374589993,458.3374825000028,458.33809762500096,458.3450374589993,458.3450374589993,458.3450374589993,461.8141367089993,,,,,,,,,,,,,,,,,,,,,,,,,,,,,,,left,0.0,3.460048459000973,,,,,sub-183,1,random_dot,,
left,left,59.0,1.0,29.0,right,0.0,1.2489719160003006,,accuracy,space,8.581967958998575,,,,,,0.0,1.0,1.0,0.0,29.0,1.0,59.0,0.0,461.8191148750011,,,,,,,,,461.8145018340001,463.0106302919994,463.8118200000026,463.8042098750011,463.8048346249998,463.8118200000026,463.8118200000026,463.8118200000026,465.0625466670026,,,,,,,,,,,,,,,,,,,,,,,,,,,,,,,right,0.0,1.2489719160003006,,,,,sub-183,1,random_dot,,
,,1.0,1.0,0.0,,,,,accuracy,space,8.581967958998575,,,,,,0.0,1.0,1.0,0.0,,,,,,,,,,,,,,,,,,,,,,,,,,,,,,,,,,,,,,,,,,,,,,,,,,,,,,,,,,,,sub-183,1,random_dot,,
,,,,,,,,,,,,,,,,,,,,,,,,,,,,,,,,,,,,,,,,,,,,,,,,,,,,,,,,,,,,,,,,,,,,,,,,,,,,,465.1824891670003,465.187213084002,470.07059883400143,sub-183,1,random_dot,,
