direction,corrAns,randomInstr,practice_trials.thisRepN,practice_trials.thisTrialN,practice_trials.thisN,practice_trials.thisIndex,instr_trials.thisRepN,instr_trials.thisTrialN,instr_trials.thisN,instr_trials.thisIndex,test_trials.thisRepN,test_trials.thisTrialN,test_trials.thisN,test_trials.thisIndex,thisRow.t,notes,general_instruction.started,textGeneralInstr.started,respGeneralInstr.started,general_instruction.stopped,respGeneralInstr.keys,respGeneralInstr.rt,respGeneralInstr.duration,ITI.started,fixcross.started,fixcross.stopped,ITI.stopped,dots.started,backgroundDots.started,stimulusDots.started,respDots.started,dots.stopped,respDots.keys,respDots.corr,respDots.rt,respDots.duration,feedback.started,textFeedback.started,feedback.stopped,textFeedback.stopped,info.started,textInfo.started,keyRespInfo.started,info.stopped,keyRespInfo.keys,keyRespInfo.rt,keyRespInfo.duration,test_instruction.started,textTestInstr.started,respTestInstr.started,test_instruction.stopped,respTestInstr.keys,respTestInstr.rt,respTestInstr.duration,random_instruction.started,textRandomInstr.started,respRandomInstr.started,random_instruction.stopped,respRandomInstr.keys,respRandomInstr.rt,respRandomInstr.duration,goodbye.started,textGoodbye.started,textGoodbye.stopped,goodbye.stopped,participant,session,expName,frameRate,Unnamed: 73
,,,,,,,,,,,,,,,,,0.0154537000344134,0.0320677999989129,0.0320677999989129,1.516047500015702,space,16.854863499989733,,,,,,,,,,,,,,,,,,,,,,,,,,,,,,,,,,,,,,,,,,,,sub-082,1.0,random_dot,60.01475164046647,
left,left,,0.0,0.0,0.0,0.0,,,,,,,,,1.5332804000354372,,,,,,,,,1.5225777000305245,1.8653082000091672,2.665382100036368,2.649045600031968,2.6490615000366238,2.665382100036368,2.665382100036368,2.665382100036368,3.999312200001441,left,1.0,16.70340409997152,,3.999861799995415,4.0172019000165164,4.51535950001562,,,,,,,,,,,,,,,,,,,,,,,,,,,sub-082,1.0,random_dot,60.01475164046647,
right,right,,0.0,1.0,1.0,1.0,,,,,,,,,4.532033000024967,,,,,,,,,4.515756200009491,5.315186400024686,6.11525500001153,6.099236000038218,6.099255400011316,6.11525500001153,6.11525500001153,6.11525500001153,7.999053900013678,left,0.0,17.250603099935688,,7.999527900014073,8.015086400031578,8.498855200014077,8.515102300036233,,,,,,,,,,,,,,,,,,,,,,,,,,sub-082,1.0,random_dot,60.01475164046647,
left,left,,1.0,0.0,2.0,0.0,,,,,,,,,8.515102300036233,,,,,,,,,8.49919050000608,9.715095599996856,10.515128900005948,10.49899049999658,10.499007600010373,10.515128900005948,10.515128900005948,10.515128900005948,12.34912590001477,right,0.0,17.2075649999897,,12.349559499998575,12.36514220002573,12.848875900032,12.865114699990954,,,,,,,,,,,,,,,,,,,,,,,,,,sub-082,1.0,random_dot,60.01475164046647,
right,right,,1.0,1.0,3.0,1.0,,,,,,,,,12.865114699990954,,,,,,,,,12.849210800020956,14.064946500002408,14.865053299989086,14.84870420000516,14.848720700014384,14.865053299989086,14.865053299989086,14.865053299989086,17.682227800018154,left,0.0,18.19578609999735,,17.68265660002362,17.698233100003563,18.18186810001498,18.19814960000804,,,,,,,,,,,,,,,,,,,,,,,,,,sub-082,1.0,random_dot,60.01475164046647,
right,right,,2.0,0.0,4.0,1.0,,,,,,,,,18.19814960000804,,,,,,,,,18.182191200030505,18.29828320001252,19.09819889999926,19.08203530003084,19.082053899997845,19.09819889999926,19.09819889999926,19.09819889999926,21.831853400042743,left,0.0,18.10313689999748,,21.83220559998881,21.848043300036807,22.33154350001132,22.347880300018005,,,,,,,,,,,,,,,,,,,,,,,,,,sub-082,1.0,random_dot,60.01475164046647,
left,left,,2.0,1.0,5.0,0.0,,,,,,,,,22.347880300018005,,,,,,,,,22.33194960001856,23.53144670004258,24.33127359999344,24.31504810001934,24.31506410002476,24.33127359999344,24.33127359999344,24.33127359999344,26.748677099996712,left,1.0,17.783594999986235,,26.749081499991007,26.76462440000614,27.248457700014114,27.26468800002476,,,,,,,,,,,,,,,,,,,,,,,,,,sub-082,1.0,random_dot,60.01475164046647,
right,right,,3.0,0.0,6.0,1.0,,,,,,,,,27.26468800002476,,,,,,,,,27.24876500002574,28.064467500022147,28.864591900026426,28.84829950000858,28.84831660002237,28.864591900026426,28.864591900026426,28.864591900026426,31.36536600004183,right,1.0,17.880214900011197,,31.36576529999729,31.38119670003653,31.864780500007328,31.881111700029575,,,,,,,,,,,,,,,,,,,,,,,,,,sub-082,1.0,random_dot,60.01475164046647,
left,left,,3.0,1.0,7.0,0.0,,,,,,,,,31.881111700029575,,,,,,,,,31.865085600002203,33.08103560004383,33.88108349998947,33.86475860001519,33.864774200017564,33.88108349998947,33.88108349998947,33.88108349998947,35.54825640004128,left,1.0,17.042671300005168,,35.54863530001603,35.56439220003085,36.04805060004583,36.06431590003194,,,,,,,,,,,,,,,,,,,,,,,,,,sub-082,1.0,random_dot,60.01475164046647,
left,left,,4.0,0.0,8.0,0.0,,,,,,,,,36.06431590003194,,,,,,,,,36.04837670002598,36.4141955000232,37.21433440002147,37.19802820001496,37.19804380001733,37.21433440002147,37.21433440002147,37.21433440002147,38.548081200046,left,1.0,16.70600440003909,,38.54850979999173,38.56428650004091,39.04806410003221,39.06432720000157,,,,,,,,,,,,,,,,,,,,,,,,,,sub-082,1.0,random_dot,60.01475164046647,
right,right,,4.0,1.0,9.0,1.0,,,,,,,,,39.06432720000157,,,,,,,,,39.04841480002506,39.14767340000253,39.94759420002811,39.93137320003007,39.93139099999098,39.94759420002811,39.94759420002811,39.94759420002811,42.448102800000925,right,1.0,17.864482299948577,,42.4485215000459,42.46419309999328,42.94814749999205,42.96420460002264,,,,,,,,,,,,,,,,,,,,,,,,,,sub-082,1.0,random_dot,60.01475164046647,
left,left,,5.0,0.0,10.0,0.0,,,,,,,,,42.96420460002264,,,,,,,,,42.94847150001442,44.16410680004629,44.9641694999882,44.94788920000428,44.9479065000196,44.9641694999882,44.9641694999882,44.9641694999882,48.29788930003997,right,0.0,18.70398519997252,,48.2982944000396,48.314032900030725,48.79755020001903,48.81391800002893,,,,,,,,,,,,,,,,,,,,,,,,,,sub-082,1.0,random_dot,60.01475164046647,
right,right,,5.0,1.0,11.0,1.0,,,,,,,,,48.81391800002893,,,,,,,,,48.7978296999936,50.013891500013415,50.81391830003122,50.79756850004196,50.79758300003596,50.81391830003122,50.81391830003122,50.81391830003122,52.83105640002759,left,0.0,17.38159679999808,,52.831398500013165,52.84720750001725,53.33090950001497,53.34727610001573,,,,,,,,,,,,,,,,,,,,,,,,,,sub-082,1.0,random_dot,60.01475164046647,
right,right,,6.0,0.0,12.0,1.0,,,,,,,,,53.34727610001573,,,,,,,,,53.33119430002989,53.43061310000485,54.23044010001468,54.21425270003965,54.21426770003745,54.23044010001468,54.23044010001468,54.23044010001468,56.89778840000508,left,0.0,18.0387426999514,,56.89821040001698,56.913832499994896,57.39767350000329,57.41382260003593,,,,,,,,,,,,,,,,,,,,,,,,,,sub-082,1.0,random_dot,60.01475164046647,
left,left,,6.0,1.0,13.0,0.0,,,,,,,,,57.41382260003593,,,,,,,,,57.39800039998954,58.2137447000132,59.01382370002102,58.997580700030085,58.99759710003855,59.01382370002102,59.01382370002102,59.01382370002102,62.04758410004433,left,1.0,18.40004979999503,,62.04802370001562,62.06369280000217,62.54730900004506,62.56364509998821,,,,,,,,,,,,,,,,,,,,,,,,,,sub-082,1.0,random_dot,60.01475164046647,
left,left,,7.0,0.0,14.0,0.0,,,,,,,,,62.56364509998821,,,,,,,,,62.54761370003689,63.36374970001634,64.16380929999286,64.14727320004022,64.14729140000418,64.16380929999286,64.16380929999286,64.16380929999286,67.88074540003436,right,0.0,19.08591249998426,,67.88115600001765,67.89691599999787,68.38040840002941,68.39680580003187,,,,,,,,,,,,,,,,,,,,,,,,,,sub-082,1.0,random_dot,60.01475164046647,
right,right,,7.0,1.0,15.0,1.0,,,,,,,,,68.39680580003187,,,,,,,,,68.38067790004425,68.4801795000094,69.28016070002923,69.26376240001991,69.26377730001695,69.28016070002923,69.28016070002923,69.28016070002923,71.99740430002566,right,1.0,18.08745220000856,,71.99778289999813,72.01348630001303,72.49710969999433,72.51341180002782,,,,,,,,,,,,,,,,,,,,,,,,,,sub-082,1.0,random_dot,60.01475164046647,
right,right,,8.0,0.0,16.0,1.0,,,,,,,,,72.51341180002782,,,,,,,,,72.49741860001814,73.7134262000327,74.51343570003519,74.49718700000085,74.49720610002987,74.51343570003519,74.51343570003519,74.51343570003519,77.94715950003592,left,0.0,18.80475700000534,,77.94756470003631,77.96338070003549,78.44719470001291,78.46326879999833,,,,,,,,,,,,,,,,,,,,,,,,,,sub-082,1.0,random_dot,60.01475164046647,
left,left,,8.0,1.0,17.0,0.0,,,,,,,,,78.46326879999833,,,,,,,,,78.44746049999958,78.54669849999482,79.34660690004239,79.3304255999974,79.33044300001347,79.34660690004239,79.34660690004239,79.34660690004239,81.43056180002168,left,1.0,17.453714600007515,,81.43097119999584,81.44660240004305,81.93023870000616,81.9465068000136,,,,,,,,,,,,,,,,,,,,,,,,,,sub-082,1.0,random_dot,60.01475164046647,
right,right,,9.0,0.0,18.0,1.0,,,,,,,,,81.9465068000136,,,,,,,,,81.93054940004367,83.14647640002659,83.94649270002265,83.93020070000784,83.93021690001478,83.94649270002265,83.94649270002265,83.94649270002265,87.53052640001988,left,0.0,18.96217329998035,,87.53092950000428,87.54647030000342,88.03007259999868,88.0463133000303,,,,,,,,,,,,,,,,,,,,,,,,,,sub-082,1.0,random_dot,60.01475164046647,
left,left,,9.0,1.0,19.0,0.0,,,,,,,,,88.0463133000303,,,,,,,,,88.03040720004356,88.84626720001688,89.64634400000796,89.63006669998867,89.6300831999979,89.64634400000796,89.64634400000796,89.64634400000796,93.23031110002194,right,0.0,18.955792299995665,,93.23071130004246,93.24631389998832,93.72983090003254,93.74618970003212,,,,,,,,,,,,,,,,,,,,,,,,,,sub-082,1.0,random_dot,60.01475164046647,
,,,,,,,,,,,,,,,,,,,,,,,,,,,,,,,,,,,,,,,,,93.72988440003246,93.74618970003212,93.74618970003212,98.67991320003055,space,20.30255759996362,,,,,,,,,,,,,,,,,,,,sub-082,1.0,random_dot,60.01475164046647,
,,,,,,,,,,,,,,,,,,,,,,,,,,,,,,,,,,,,,,,,,,,,,,,,98.67993919999572,98.69613830000162,98.69613830000162,102.69656330003636,space,19.379832699953116,,,,,,,,,,,,,sub-082,1.0,random_dot,60.01475164046647,
left,left,accuracy,,,,,0.0,0.0,0.0,0.0,0.0,0.0,0.0,0.0,104.81769820000044,,,,,,,,,104.80709860002388,105.15469500003384,105.95656250003958,105.93838350003352,105.9384071000386,105.95656250003958,105.95656250003958,105.95656250003958,108.6173055000254,left,1.0,18.024695900036026,,,,,,,,,,,,,,,,,,,,102.69943500001682,102.71798970003148,102.71798970003148,104.80245439999273,space,17.45679680001922,,,,,,sub-082,1.0,random_dot,60.01475164046647,
right,right,accuracy,,,,,0.0,0.0,0.0,0.0,0.0,1.0,1.0,1.0,108.63796750002076,,,,,,,,,108.6183183999965,108.72133170004236,109.52319390000775,109.50503699999535,109.50505530001828,109.52319390000775,109.52319390000775,109.52319390000775,110.69047490000958,right,1.0,16.53254610003205,,,,,,,,,,,,,,,,,,,,,,,,,,,,,,,sub-082,1.0,random_dot,60.01475164046647,
right,right,accuracy,,,,,0.0,0.0,0.0,0.0,1.0,0.0,2.0,1.0,110.7045167000033,,,,,,,,,110.69122770003742,111.89903900003992,112.6997370000463,112.68275490001542,112.68277700000908,112.6997370000463,112.6997370000463,112.6997370000463,114.35058550001122,left,0.0,17.022877799987327,,,,,,,,,,,,,,,,,,,,,,,,,,,,,,,sub-082,1.0,random_dot,60.01475164046647,
left,left,accuracy,,,,,0.0,0.0,0.0,0.0,1.0,1.0,3.0,0.0,114.36544070002856,,,,,,,,,114.35154780000448,115.55452649999644,116.35633770003916,116.33812550001312,116.33814480004366,116.35633770003916,116.35633770003916,116.35633770003916,119.12369000003672,right,0.0,18.13450839999132,,,,,,,,,,,,,,,,,,,,,,,,,,,,,,,sub-082,1.0,random_dot,60.01475164046647,
right,right,accuracy,,,,,0.0,0.0,0.0,0.0,2.0,0.0,4.0,1.0,119.13767460000236,,,,,,,,,119.1244267000002,120.33763930003624,121.13958300004016,121.12146819999909,121.12148630002048,121.13958300004016,121.13958300004016,121.13958300004016,122.80682920000982,left,0.0,17.03543190000346,,,,,,,,,,,,,,,,,,,,,,,,,,,,,,,sub-082,1.0,random_dot,60.01475164046647,
left,left,accuracy,,,,,0.0,0.0,0.0,0.0,2.0,1.0,5.0,0.0,122.82088320003822,,,,,,,,,122.80773020000196,122.9209652999998,123.72283330000936,123.70469450001838,123.70471530000214,123.72283330000936,123.72283330000936,123.72283330000936,126.76695320004364,left,1.0,18.4097339999862,,,,,,,,,,,,,,,,,,,,,,,,,,,,,,,sub-082,1.0,random_dot,60.01475164046647,
left,left,accuracy,,,,,0.0,0.0,0.0,0.0,3.0,0.0,6.0,0.0,126.78222809999716,,,,,,,,,126.76786439999704,127.97078810003586,128.76649310003268,128.7544902000227,128.7545057000243,128.76649310003268,128.76649310003268,128.76649310003268,129.867029200017,left,1.0,16.4796239999705,,,,,,,,,,,,,,,,,,,,,,,,,,,,,,,sub-082,1.0,random_dot,60.01475164046647,
right,right,accuracy,,,,,0.0,0.0,0.0,0.0,3.0,1.0,7.0,1.0,129.88174250000156,,,,,,,,,129.8677696000086,129.97078350000083,130.77264830004424,130.7544284000178,130.75444819999393,130.77264830004424,130.77264830004424,130.77264830004424,131.83362739998847,right,1.0,16.430729699961375,,,,,,,,,,,,,,,,,,,,,,,,,,,,,,,sub-082,1.0,random_dot,60.01475164046647,
left,left,accuracy,,,,,0.0,0.0,0.0,0.0,4.0,0.0,8.0,0.0,131.84834740002407,,,,,,,,,131.8344731000252,133.03740239999024,133.85590930003673,133.83243599999696,133.83245470002294,133.85590930003673,133.85590930003673,133.85590930003673,136.21690729999682,right,0.0,17.740137599990703,,,,,,,,,,,,,,,,,,,,,,,,,,,,,,,sub-082,1.0,random_dot,60.01475164046647,
right,right,accuracy,,,,,0.0,0.0,0.0,0.0,4.0,1.0,9.0,1.0,136.2315854000044,,,,,,,,,136.2177141000284,137.42058929998893,138.23293590004323,138.21537690004334,138.21540089999326,138.23293590004323,138.23293590004323,138.23293590004323,139.85640049999347,right,1.0,16.987069099966902,,,,,,,,,,,,,,,,,,,,,,,,,,,,,,,sub-082,1.0,random_dot,60.01475164046647,
left,left,accuracy,,,,,0.0,0.0,0.0,0.0,5.0,0.0,10.0,0.0,139.8704604000086,,,,,,,,,139.85737500002142,139.97050900000613,140.78242609999143,140.7656460000435,140.76566959999036,140.78242609999143,140.78242609999143,140.78242609999143,141.88363510003546,right,0.0,16.47134940000251,,,,,,,,,,,,,,,,,,,,,,,,,,,,,,,sub-082,1.0,random_dot,60.01475164046647,
right,right,accuracy,,,,,0.0,0.0,0.0,0.0,5.0,1.0,11.0,1.0,141.90375050000148,,,,,,,,,141.8845993000432,142.68712710001273,143.4890171000152,143.47095119999722,143.4709714000346,143.4890171000152,143.4890171000152,143.4890171000152,144.83330749999732,right,1.0,16.722518599999603,,,,,,,,,,,,,,,,,,,,,,,,,,,,,,,sub-082,1.0,random_dot,60.01475164046647,
left,left,accuracy,,,,,0.0,0.0,0.0,0.0,6.0,0.0,12.0,0.0,144.8479714000132,,,,,,,,,144.83422439999413,145.63702720002038,146.4389235000126,146.42079140001442,146.4208110999898,146.4389235000126,146.4389235000126,146.4389235000126,147.5395276999916,left,1.0,16.474695099983364,,,,,,,,,,,,,,,,,,,,,,,,,,,,,,,sub-082,1.0,random_dot,60.01475164046647,
right,right,accuracy,,,,,0.0,0.0,0.0,0.0,6.0,1.0,13.0,1.0,147.55362250003964,,,,,,,,,147.5403523000423,148.34933709999314,149.15556740004104,149.137371800025,149.13738950004335,149.15556740004104,149.15556740004104,149.15556740004104,150.08333069999935,right,1.0,16.30696929997066,,,,,,,,,,,,,,,,,,,,,,,,,,,,,,,sub-082,1.0,random_dot,60.01475164046647,
right,right,accuracy,,,,,0.0,0.0,0.0,0.0,7.0,0.0,14.0,1.0,150.0982367999968,,,,,,,,,150.08464090002235,150.43692800001008,151.23881070001516,151.2206382000004,151.22065690002637,151.23881070001516,151.23881070001516,151.23881070001516,153.10625340003753,right,1.0,17.233865199959837,,,,,,,,,,,,,,,,,,,,,,,,,,,,,,,sub-082,1.0,random_dot,60.01475164046647,
left,left,accuracy,,,,,0.0,0.0,0.0,0.0,7.0,1.0,15.0,0.0,153.120192900009,,,,,,,,,153.10704170004465,153.47023179999087,154.27204640000127,154.25387050001882,154.25388989999192,154.27204640000127,154.27204640000127,154.27204640000127,156.33310049999272,left,1.0,17.428359199955594,,,,,,,,,,,,,,,,,,,,,,,,,,,,,,,sub-082,1.0,random_dot,60.01475164046647,
right,right,accuracy,,,,,0.0,0.0,0.0,0.0,8.0,0.0,16.0,1.0,156.35118769999826,,,,,,,,,156.33417330001248,157.53681950003374,158.33863260003272,158.32045580004342,158.320475000015,158.33863260003272,158.33863260003272,158.33863260003272,160.00591639999766,right,1.0,17.033557699993253,,,,,,,,,,,,,,,,,,,,,,,,,,,,,,,sub-082,1.0,random_dot,60.01475164046647,
left,left,accuracy,,,,,0.0,0.0,0.0,0.0,8.0,1.0,17.0,0.0,160.01996170001803,,,,,,,,,160.0067102999892,160.82003940001596,161.62189800001215,161.603795300005,161.60381430003326,161.62189800001215,161.62189800001215,161.62189800001215,164.48915510001825,left,1.0,18.232837299990933,,,,,,,,,,,,,,,,,,,,,,,,,,,,,,,sub-082,1.0,random_dot,60.01475164046647,
right,right,accuracy,,,,,0.0,0.0,0.0,0.0,9.0,0.0,18.0,1.0,164.5031893000123,,,,,,,,,164.4899304000428,165.30323770001996,166.10510530002648,166.08681160002016,166.08682480000425,166.10510530002648,166.10510530002648,166.10510530002648,169.32256460003555,right,1.0,18.59476430003997,,,,,,,,,,,,,,,,,,,,,,,,,,,,,,,sub-082,1.0,random_dot,60.01475164046647,
left,left,accuracy,,,,,0.0,0.0,0.0,0.0,9.0,1.0,19.0,0.0,169.3364634999889,,,,,,,,,169.32341160002397,170.53644970001187,171.33835070003988,171.32021890004398,171.32025460002478,171.33835070003988,171.33835070003988,171.33835070003988,174.22217780002393,left,1.0,18.2571467999951,,,,,,,,,,,,,,,,,,,,,,,,,,,,,,,sub-082,1.0,random_dot,60.01475164046647,
left,left,accuracy,,,,,0.0,0.0,0.0,0.0,10.0,0.0,20.0,0.0,174.23626169998897,,,,,,,,,174.22293630003696,175.03636460000416,175.83821130002616,175.82012059999397,175.82013960002223,175.83821130002616,175.83821130002616,175.83821130002616,177.00559220003197,left,1.0,16.540247199998703,,,,,,,,,,,,,,,,,,,,,,,,,,,,,,,sub-082,1.0,random_dot,60.01475164046647,
right,right,accuracy,,,,,0.0,0.0,0.0,0.0,10.0,1.0,21.0,1.0,177.0195687999949,,,,,,,,,177.00652580003953,177.81836680002743,178.62146490003215,178.6032867000322,178.60330620000605,178.62146490003215,178.62146490003215,178.62146490003215,180.05552380002337,left,0.0,16.803993799956515,,,,,,,,,,,,,,,,,,,,,,,,,,,,,,,sub-082,1.0,random_dot,60.01475164046647,
left,left,accuracy,,,,,0.0,0.0,0.0,0.0,11.0,0.0,22.0,0.0,180.0694665000192,,,,,,,,,180.05637200002093,180.86957099998835,181.67139410000527,181.6532918000012,181.6533094000188,181.67139410000527,181.67139410000527,181.67139410000527,182.9887811000226,left,1.0,16.68171059997985,,,,,,,,,,,,,,,,,,,,,,,,,,,,,,,sub-082,1.0,random_dot,60.01475164046647,
right,right,accuracy,,,,,0.0,0.0,0.0,0.0,11.0,1.0,23.0,1.0,183.0027570000384,,,,,,,,,182.98951169999785,183.3528098000097,184.1647776000318,184.14735260000447,184.14737399999285,184.1647776000318,184.1647776000318,184.1647776000318,187.20532980002463,right,1.0,18.417418199998792,,,,,,,,,,,,,,,,,,,,,,,,,,,,,,,sub-082,1.0,random_dot,60.01475164046647,
right,right,accuracy,,,,,0.0,0.0,0.0,0.0,12.0,0.0,24.0,1.0,187.21935660002052,,,,,,,,,187.2061549000209,187.3193253999925,188.121242800029,188.1030997000053,188.10312300000805,188.121242800029,188.121242800029,188.121242800029,190.53185239998857,right,1.0,17.7777973000193,,,,,,,,,,,,,,,,,,,,,,,,,,,,,,,sub-082,1.0,random_dot,60.01475164046647,
left,left,accuracy,,,,,0.0,0.0,0.0,0.0,12.0,1.0,25.0,0.0,190.546879200032,,,,,,,,,190.53272690001177,191.7505671000108,192.5504030000302,192.53633430000627,192.53635559999384,192.5504030000302,192.5504030000302,192.5504030000302,194.87178650003625,left,1.0,17.682606699934695,,,,,,,,,,,,,,,,,,,,,,,,,,,,,,,sub-082,1.0,random_dot,60.01475164046647,
left,left,accuracy,,,,,0.0,0.0,0.0,0.0,13.0,0.0,26.0,0.0,194.8857961000176,,,,,,,,,194.87265020003545,195.2358624000335,196.03772270004265,196.0195222999901,196.01954200002365,196.03772270004265,196.03772270004265,196.03772270004265,197.43834600003905,left,1.0,16.770036099944264,,,,,,,,,,,,,,,,,,,,,,,,,,,,,,,sub-082,1.0,random_dot,60.01475164046647,
right,right,accuracy,,,,,0.0,0.0,0.0,0.0,13.0,1.0,27.0,1.0,197.4523768000072,,,,,,,,,197.4390927000204,198.24691690003965,199.05433600000103,199.03629790002012,199.03631890000543,199.05433600000103,199.05433600000103,199.05433600000103,200.35492280003385,right,1.0,16.667520299961325,,,,,,,,,,,,,,,,,,,,,,,,,,,,,,,sub-082,1.0,random_dot,60.01475164046647,
left,left,accuracy,,,,,0.0,0.0,0.0,0.0,14.0,0.0,28.0,0.0,200.36898700002348,,,,,,,,,200.35570559999903,200.7133704000153,201.52088190004,201.5026713000261,201.5026896999916,201.52088190004,201.52088190004,201.52088190004,202.65484630002172,left,1.0,16.512131199997384,,,,,,,,,,,,,,,,,,,,,,,,,,,,,,,sub-082,1.0,random_dot,60.01475164046647,
right,right,accuracy,,,,,0.0,0.0,0.0,0.0,14.0,1.0,29.0,1.0,202.66891150001905,,,,,,,,,202.6556701000081,203.46893570001703,204.2708488000208,204.252624500019,204.25264409999363,204.2708488000208,204.2708488000208,204.2708488000208,205.73759259999497,left,0.0,16.838042500021402,,,,,,,,,,,,,,,,,,,,,,,,,,,,,,,sub-082,1.0,random_dot,60.01475164046647,
left,left,accuracy,,,,,0.0,0.0,0.0,0.0,15.0,0.0,30.0,0.0,205.7468271999969,,,,,,,,,205.7384919000324,205.8522348999977,206.6540759000345,206.63585170003356,206.6358712000074,206.6540759000345,206.6540759000345,206.6540759000345,207.471655500005,left,1.0,16.196911600010935,,,,,,,,,,,,,,,,,,,,,,,,,,,,,,,sub-082,1.0,random_dot,60.01475164046647,
right,right,accuracy,,,,,0.0,0.0,0.0,0.0,15.0,1.0,31.0,1.0,207.4855644000345,,,,,,,,,207.472425999993,207.58553740003845,208.3873836999992,208.3691921000136,208.3692108000396,208.3873836999992,208.3873836999992,208.3873836999992,209.4547256000224,right,1.0,16.441614599956665,,,,,,,,,,,,,,,,,,,,,,,,,,,,,,,sub-082,1.0,random_dot,60.01475164046647,
left,left,accuracy,,,,,0.0,0.0,0.0,0.0,16.0,0.0,32.0,0.0,209.46878950000973,,,,,,,,,209.4555755000329,210.6687414000044,211.47068570001284,211.45255750004435,211.45257810002656,211.47068570001284,211.47068570001284,211.47068570001284,212.19815920002293,left,1.0,16.091510899947025,,,,,,,,,,,,,,,,,,,,,,,,,,,,,,,sub-082,1.0,random_dot,60.01475164046647,
right,right,accuracy,,,,,0.0,0.0,0.0,0.0,16.0,1.0,33.0,1.0,212.2129380000406,,,,,,,,,212.1990497999941,213.0021102000028,213.80389750003812,213.7856926000095,213.7857121000416,213.80389750003812,213.80389750003812,213.80389750003812,215.20457060000624,left,0.0,16.773370099952444,,,,,,,,,,,,,,,,,,,,,,,,,,,,,,,sub-082,1.0,random_dot,60.01475164046647,
right,right,accuracy,,,,,0.0,0.0,0.0,0.0,17.0,0.0,34.0,1.0,215.21862900001,,,,,,,,,215.2052684000228,215.5686714000185,216.37054080003875,216.35236730001637,216.35238640004536,216.37054080003875,216.37054080003875,216.37054080003875,217.3212058999925,right,1.0,16.318986300029792,,,,,,,,,,,,,,,,,,,,,,,,,,,,,,,sub-082,1.0,random_dot,60.01475164046647,
left,left,accuracy,,,,,0.0,0.0,0.0,0.0,17.0,1.0,35.0,0.0,217.3352446000208,,,,,,,,,217.3219606000348,217.6852421000367,218.48718739999455,218.4689399999916,218.46895900001985,218.48718739999455,218.48718739999455,218.48718739999455,219.30457770003704,left,1.0,16.19362590002129,,,,,,,,,,,,,,,,,,,,,,,,,,,,,,,sub-082,1.0,random_dot,60.01475164046647,
right,right,accuracy,,,,,0.0,0.0,0.0,0.0,18.0,0.0,36.0,1.0,219.31856079999125,,,,,,,,,219.3054316000198,219.41859250003472,220.2204400000046,220.2021902000415,220.2022078000009,220.2204400000046,220.2204400000046,220.2204400000046,221.42114789999323,right,1.0,16.575666399963666,,,,,,,,,,,,,,,,,,,,,,,,,,,,,,,sub-082,1.0,random_dot,60.01475164046647,
left,left,accuracy,,,,,0.0,0.0,0.0,0.0,18.0,1.0,37.0,0.0,221.43515780003509,,,,,,,,,221.42188440001337,222.23515960003715,223.03708420001203,223.01892460003728,223.0189437000081,223.03708420001203,223.03708420001203,223.03708420001203,224.1143347999896,left,1.0,16.445620199956466,,,,,,,,,,,,,,,,,,,,,,,,,,,,,,,sub-082,1.0,random_dot,60.01475164046647,
right,right,accuracy,,,,,0.0,0.0,0.0,0.0,19.0,0.0,38.0,1.0,224.13076770002957,,,,,,,,,224.1152111000265,224.2184393000207,225.02033830003347,225.0021746000275,225.00219510000895,225.02033830003347,225.02033830003347,225.02033830003347,226.5709402000066,right,1.0,16.924510599987116,,,,,,,,,,,,,,,,,,,,,,,,,,,,,,,sub-082,1.0,random_dot,60.01475164046647,
left,left,accuracy,,,,,0.0,0.0,0.0,0.0,19.0,1.0,39.0,0.0,226.58505970000988,,,,,,,,,226.5717021000455,226.68504850001773,227.48697150003863,227.4688463000348,227.46886470000027,227.48697150003863,227.48697150003863,227.48697150003863,228.98761770001147,left,1.0,16.876968099968508,,,,,,,,,,,,,,,,,,,,,,,,,,,,,,,sub-082,1.0,random_dot,60.01475164046647,
left,left,accuracy,,,,,0.0,0.0,0.0,0.0,20.0,0.0,40.0,0.0,229.0015987000079,,,,,,,,,228.98833520000332,229.8016102000256,230.6034971000045,230.58527810004307,230.58529650000852,230.6034971000045,230.6034971000045,230.6034971000045,231.30429910001112,left,1.0,16.073675899999216,,,,,,,,,,,,,,,,,,,,,,,,,,,,,,,sub-082,1.0,random_dot,60.01475164046647,
right,right,accuracy,,,,,0.0,0.0,0.0,0.0,20.0,1.0,41.0,1.0,231.318246400042,,,,,,,,,231.3049927999964,231.4183601000113,232.23016830004053,232.21292160003213,232.2129434000235,232.23016830004053,232.23016830004053,232.23016830004053,233.1042610000004,left,0.0,16.24275839998154,,,,,,,,,,,,,,,,,,,,,,,,,,,,,,,sub-082,1.0,random_dot,60.01475164046647,
right,right,accuracy,,,,,0.0,0.0,0.0,0.0,21.0,0.0,42.0,1.0,233.1182487999904,,,,,,,,,233.10515150002905,233.9123716999893,234.71338650002144,234.69638660002963,234.69640880002407,234.71338650002144,234.71338650002144,234.71338650002144,235.7833752000006,left,0.0,16.442408299946692,,,,,,,,,,,,,,,,,,,,,,,,,,,,,,,sub-082,1.0,random_dot,60.01475164046647,
left,left,accuracy,,,,,0.0,0.0,0.0,0.0,21.0,1.0,43.0,0.0,235.798795300012,,,,,,,,,235.7842895000358,236.59581970004365,237.4034911000053,237.38525940000545,237.38527570001315,237.4034911000053,237.4034911000053,237.4034911000053,238.4472263000207,left,1.0,16.420691899955273,,,,,,,,,,,,,,,,,,,,,,,,,,,,,,,sub-082,1.0,random_dot,60.01475164046647,
right,right,accuracy,,,,,0.0,0.0,0.0,0.0,22.0,0.0,44.0,1.0,238.46235200000228,,,,,,,,,238.4480061000213,238.8124255000148,239.62007710000037,239.6019806000404,239.60199890000516,239.62007710000037,239.62007710000037,239.62007710000037,241.32071030000225,right,1.0,17.066981499956455,,,,,,,,,,,,,,,,,,,,,,,,,,,,,,,sub-082,1.0,random_dot,60.01475164046647,
left,left,accuracy,,,,,0.0,0.0,0.0,0.0,22.0,1.0,45.0,0.0,241.33472630003237,,,,,,,,,241.32152370002584,241.4347596000298,242.2465766000096,242.22942079999484,242.2294416000368,242.2465766000096,242.2465766000096,242.2465766000096,243.68722449999768,left,1.0,16.808143200003542,,,,,,,,,,,,,,,,,,,,,,,,,,,,,,,sub-082,1.0,random_dot,60.01475164046647,
right,right,accuracy,,,,,0.0,0.0,0.0,0.0,23.0,0.0,46.0,1.0,243.70129160000943,,,,,,,,,243.6881434000097,244.0455898999935,244.8465236999909,244.82921820000047,244.82923640002264,244.8465236999909,244.8465236999909,244.8465236999909,246.7972025999916,right,1.0,17.314932599954773,,,,,,,,,,,,,,,,,,,,,,,,,,,,,,,sub-082,1.0,random_dot,60.01475164046647,
left,left,accuracy,,,,,0.0,0.0,0.0,0.0,23.0,1.0,47.0,0.0,246.8121681000339,,,,,,,,,246.79824249999365,247.60125140001765,248.4134163000272,248.39585249999072,248.3958735000342,248.4134163000272,248.4134163000272,248.4134163000272,249.5371887999936,left,1.0,16.490714000014123,,,,,,,,,,,,,,,,,,,,,,,,,,,,,,,sub-082,1.0,random_dot,60.01475164046647,
right,right,accuracy,,,,,0.0,0.0,0.0,0.0,24.0,0.0,48.0,1.0,249.55119190004189,,,,,,,,,249.5379026000155,250.345507799997,251.1531036000233,251.13497840001943,251.13499779999256,251.1531036000233,251.1531036000233,251.1531036000233,252.16353439999511,right,1.0,16.374329200014472,,,,,,,,,,,,,,,,,,,,,,,,,,,,,,,sub-082,1.0,random_dot,60.01475164046647,
left,left,accuracy,,,,,0.0,0.0,0.0,0.0,24.0,1.0,49.0,0.0,252.1786653000163,,,,,,,,,252.1645851000212,253.3678357999888,254.1853908000048,254.16284480004103,254.1628633000073,254.1853908000048,254.1853908000048,254.1853908000048,255.37035790004305,left,1.0,16.55686130002141,,,,,,,,,,,,,,,,,,,,,,,,,,,,,,,sub-082,1.0,random_dot,60.01475164046647,
right,right,accuracy,,,,,0.0,0.0,0.0,0.0,25.0,0.0,50.0,1.0,255.38431480003052,,,,,,,,,255.37117610004495,256.5785804000334,257.37993789999746,257.3630067000049,257.3630295000039,257.37993789999746,257.37993789999746,257.37993789999746,259.09692500001984,right,1.0,17.087017599958926,,,,,,,,,,,,,,,,,,,,,,,,,,,,,,,sub-082,1.0,random_dot,60.01475164046647,
left,left,accuracy,,,,,0.0,0.0,0.0,0.0,25.0,1.0,51.0,0.0,259.1119939000346,,,,,,,,,259.09788790001767,259.2122153000091,260.0129730000044,259.99583100003656,259.9958493000013,260.0129730000044,260.0129730000044,260.0129730000044,261.647059000039,right,0.0,17.001505799998995,,,,,,,,,,,,,,,,,,,,,,,,,,,,,,,sub-082,1.0,random_dot,60.01475164046647,
right,right,accuracy,,,,,0.0,0.0,0.0,0.0,26.0,0.0,52.0,1.0,261.6623110999936,,,,,,,,,261.6478993000346,262.45089340000413,263.2627681000158,263.24560490000295,263.24562950001564,263.2627681000158,263.2627681000158,263.2627681000158,265.49689310003305,right,1.0,17.59937979996903,,,,,,,,,,,,,,,,,,,,,,,,,,,,,,,sub-082,1.0,random_dot,60.01475164046647,
left,left,accuracy,,,,,0.0,0.0,0.0,0.0,26.0,1.0,53.0,0.0,265.5117511000135,,,,,,,,,265.4978747999994,266.30092080001486,267.1124885000172,267.09561680001207,267.0956445999909,267.1124885000172,267.1124885000172,267.1124885000172,268.38672950002365,left,1.0,16.636676700029057,,,,,,,,,,,,,,,,,,,,,,,,,,,,,,,sub-082,1.0,random_dot,60.01475164046647,
right,right,accuracy,,,,,0.0,0.0,0.0,0.0,27.0,0.0,54.0,1.0,268.4007467000047,,,,,,,,,268.3875478000264,268.50080480001634,269.30254230002174,269.2842820000369,269.2843007000047,269.30254230002174,269.30254230002174,269.30254230002174,271.5296263000346,left,0.0,17.594697099993937,,,,,,,,,,,,,,,,,,,,,,,,,,,,,,,sub-082,1.0,random_dot,60.01475164046647,
left,left,accuracy,,,,,0.0,0.0,0.0,0.0,27.0,1.0,55.0,0.0,271.5449171999935,,,,,,,,,271.53055960003985,272.3339239000343,273.15248879999854,273.13436500000535,273.1343827000237,273.15248879999854,273.15248879999854,273.15248879999854,274.0531500999932,left,1.0,16.265138599963393,,,,,,,,,,,,,,,,,,,,,,,,,,,,,,,sub-082,1.0,random_dot,60.01475164046647,
right,right,accuracy,,,,,0.0,0.0,0.0,0.0,28.0,0.0,56.0,1.0,274.06725220003864,,,,,,,,,274.05391690001125,274.1673600000213,274.9692097000079,274.9510461000027,274.95106950000627,274.9692097000079,274.9692097000079,274.9692097000079,276.28052030003164,right,1.0,16.678430999978445,,,,,,,,,,,,,,,,,,,,,,,,,,,,,,,sub-082,1.0,random_dot,60.01475164046647,
left,left,accuracy,,,,,0.0,0.0,0.0,0.0,28.0,1.0,57.0,0.0,276.2961051000166,,,,,,,,,276.2815690000425,277.4949150999892,278.2958549000323,278.27888820000226,278.278909100045,278.2958549000323,278.2958549000323,278.2958549000323,279.6635313000297,left,1.0,16.740263099956792,,,,,,,,,,,,,,,,,,,,,,,,,,,,,,,sub-082,1.0,random_dot,60.01475164046647,
left,left,accuracy,,,,,0.0,0.0,0.0,0.0,29.0,0.0,58.0,0.0,279.678165099991,,,,,,,,,279.6645029000356,279.7784006000147,280.5791098999907,280.56172830000287,280.561748200038,280.5791098999907,280.5791098999907,280.5791098999907,281.34625430003507,left,1.0,16.132031799992546,,,,,,,,,,,,,,,,,,,,,,,,,,,,,,,sub-082,1.0,random_dot,60.01475164046647,
right,right,accuracy,,,,,0.0,0.0,0.0,0.0,29.0,1.0,59.0,1.0,281.3618345000432,,,,,,,,,281.3472954000463,281.71136010001646,282.5190278000082,282.5008085000445,282.5008240000461,282.5190278000082,282.5190278000082,282.5190278000082,283.5963290000218,left,0.0,16.445875099976547,,,,,,,,,,,,,,,,,,,,,,,,,,,,,,,sub-082,1.0,random_dot,60.01475164046647,
,,accuracy,,,,,0.0,0.0,0.0,0.0,,,,,,,,,,,,,,,,,,,,,,,,,,,,,,,,,,,,,,,,,,,,,,,,,,,,,,,,sub-082,1.0,random_dot,60.01475164046647,
left,left,speed,,,,,0.0,1.0,1.0,1.0,0.0,0.0,0.0,0.0,288.21118710003793,,,,,,,,,288.20007580000674,288.3112097000121,289.1121530000237,289.0949135000119,289.0949366000132,289.1121530000237,289.1121530000237,289.1121530000237,289.96274200000335,left,1.0,16.224769599968567,,,,,,,,,,,,,,,,,,,,283.5972495999886,283.6138898000354,283.6138898000354,288.1956729000085,space,19.952922699972987,,,,,,sub-082,1.0,random_dot,60.01475164046647,
right,right,speed,,,,,0.0,1.0,1.0,1.0,0.0,1.0,1.0,1.0,289.9776947000064,,,,,,,,,289.9638256999897,290.0781654000166,290.87897570000496,290.861570100009,290.8615917999996,290.87897570000496,290.87897570000496,290.87897570000496,292.53601899999194,left,0.0,17.023176299990155,,,,,,,,,,,,,,,,,,,,,,,,,,,,,,,sub-082,1.0,random_dot,60.01475164046647,
left,left,speed,,,,,0.0,1.0,1.0,1.0,1.0,0.0,2.0,0.0,292.5500587000279,,,,,,,,,292.5368475000141,292.89483020000625,293.6955229000305,293.6781545000267,293.67817740002647,293.6955229000305,293.6955229000305,293.6955229000305,294.4961223000428,left,1.0,16.166255999996793,,,,,,,,,,,,,,,,,,,,,,,,,,,,,,,sub-082,1.0,random_dot,60.01475164046647,
right,right,speed,,,,,0.0,1.0,1.0,1.0,1.0,1.0,3.0,1.0,294.51118070003577,,,,,,,,,294.49714610003866,295.7109104000265,296.51265829999465,296.4947295000311,296.49475190002704,296.51265829999465,296.51265829999465,296.51265829999465,297.62929060001625,right,1.0,16.486978200031444,,,,,,,,,,,,,,,,,,,,,,,,,,,,,,,sub-082,1.0,random_dot,60.01475164046647,
right,right,speed,,,,,0.0,1.0,1.0,1.0,2.0,0.0,4.0,1.0,297.6442835000344,,,,,,,,,297.63028119999217,298.8443195000291,299.64564910001354,299.6281309000333,299.6281542000361,299.64564910001354,299.64564910001354,299.64564910001354,301.39592249999987,left,0.0,17.114480999996886,,,,,,,,,,,,,,,,,,,,,,,,,,,,,,,sub-082,1.0,random_dot,60.01475164046647,
left,left,speed,,,,,0.0,1.0,1.0,1.0,2.0,1.0,5.0,0.0,301.41080100002,,,,,,,,,301.39672540000174,301.51079390000086,302.3122151000425,302.2946715000435,302.29468910000287,302.3122151000425,302.3122151000425,302.3122151000425,303.1127145999926,left,1.0,16.177852599998005,,,,,,,,,,,,,,,,,,,,,,,,,,,,,,,sub-082,1.0,random_dot,60.01475164046647,
left,left,speed,,,,,0.0,1.0,1.0,1.0,3.0,0.0,6.0,0.0,303.1275736000389,,,,,,,,,303.1138121000258,303.9274942000048,304.7282527000061,304.71107170003233,304.7110893999925,304.7282527000061,304.7282527000061,304.7282527000061,305.9455076000304,left,1.0,16.585605799977202,,,,,,,,,,,,,,,,,,,,,,,,,,,,,,,sub-082,1.0,random_dot,60.01475164046647,
right,right,speed,,,,,0.0,1.0,1.0,1.0,3.0,1.0,7.0,1.0,305.96070759999566,,,,,,,,,305.946511999995,306.0611329000094,306.86147450003773,306.84433280001394,306.8443505000323,306.86147450003773,306.86147450003773,306.86147450003773,308.3960272000404,right,1.0,16.90499709994765,,,,,,,,,,,,,,,,,,,,,,,,,,,,,,,sub-082,1.0,random_dot,60.01475164046647,
right,right,speed,,,,,0.0,1.0,1.0,1.0,4.0,0.0,8.0,1.0,308.41095640003914,,,,,,,,,308.3971346000326,309.2105663000257,310.01179860002594,309.9942473000265,309.9942630000296,310.01179860002594,310.01179860002594,310.01179860002594,312.1124267000123,right,1.0,17.466904199973214,,,,,,,,,,,,,,,,,,,,,,,,,,,,,,,sub-082,1.0,random_dot,60.01475164046647,
left,left,speed,,,,,0.0,1.0,1.0,1.0,4.0,1.0,9.0,0.0,312.12744380004006,,,,,,,,,312.1131537000183,312.4664292000234,313.2780985000427,313.2610003000009,313.2610294999904,313.2780985000427,313.2780985000427,313.2780985000427,314.2955517999944,left,1.0,16.392973500012886,,,,,,,,,,,,,,,,,,,,,,,,,,,,,,,sub-082,1.0,random_dot,60.01475164046647,
right,right,speed,,,,,0.0,1.0,1.0,1.0,5.0,0.0,10.0,1.0,314.310698700021,,,,,,,,,314.2963948000106,315.5105920000351,316.3182210000232,316.30005200003507,316.30007120000664,316.3182210000232,316.3182210000232,316.3182210000232,318.4121221000096,left,0.0,17.45921100000851,,,,,,,,,,,,,,,,,,,,,,,,,,,,,,,sub-082,1.0,random_dot,60.01475164046647,
left,left,speed,,,,,0.0,1.0,1.0,1.0,5.0,1.0,11.0,0.0,318.4272894000169,,,,,,,,,318.41314570000395,318.7769951000228,319.57840659999056,319.5607908000238,319.56081430002814,319.57840659999056,319.57840659999056,319.57840659999056,320.48542380001163,left,1.0,16.283839799987618,,,,,,,,,,,,,,,,,,,,,,,,,,,,,,,sub-082,1.0,random_dot,60.01475164046647,
right,right,speed,,,,,0.0,1.0,1.0,1.0,6.0,0.0,12.0,1.0,320.4995972000179,,,,,,,,,320.48616910004057,321.6936748000444,322.49471850000555,322.4774681000272,322.47749330004444,322.49471850000555,322.49471850000555,322.49471850000555,324.1018566000276,right,1.0,16.98178909998387,,,,,,,,,,,,,,,,,,,,,,,,,,,,,,,sub-082,1.0,random_dot,60.01475164046647,
left,left,speed,,,,,0.0,1.0,1.0,1.0,6.0,1.0,13.0,0.0,324.1159852000419,,,,,,,,,324.10254920000443,324.46608909999486,325.27833920001285,325.2608076999895,325.2608304999885,325.27833920001285,325.27833920001285,325.27833920001285,326.30196380004054,left,1.0,16.401527799956966,,,,,,,,,,,,,,,,,,,,,,,,,,,,,,,sub-082,1.0,random_dot,60.01475164046647,
left,left,speed,,,,,0.0,1.0,1.0,1.0,7.0,0.0,14.0,0.0,326.3159069000394,,,,,,,,,326.3027186000254,327.11028870003065,327.9110185999889,327.8939329000423,327.8939628000371,327.9110185999889,327.9110185999889,327.9110185999889,328.9118626000127,left,1.0,16.36814700003015,,,,,,,,,,,,,,,,,,,,,,,,,,,,,,,sub-082,1.0,random_dot,60.01475164046647,
right,right,speed,,,,,0.0,1.0,1.0,1.0,7.0,1.0,15.0,1.0,328.9268558000331,,,,,,,,,328.91290330002084,330.1268667000113,330.92774310003733,330.91059780004434,330.910619900038,330.92774310003733,330.92774310003733,330.92774310003733,332.23512080003275,right,1.0,16.671681499981787,,,,,,,,,,,,,,,,,,,,,,,,,,,,,,,sub-082,1.0,random_dot,60.01475164046647,
right,right,speed,,,,,0.0,1.0,1.0,1.0,8.0,0.0,16.0,1.0,332.2491439000005,,,,,,,,,332.2358882999979,333.4438941000262,334.24449110002024,334.2270194000448,334.2270411000354,334.24449110002024,334.24449110002024,334.24449110002024,335.8116472000256,left,0.0,16.936898799962364,,,,,,,,,,,,,,,,,,,,,,,,,,,,,,,sub-082,1.0,random_dot,60.01475164046647,
left,left,speed,,,,,0.0,1.0,1.0,1.0,8.0,1.0,17.0,0.0,335.826631700038,,,,,,,,,335.8126465000096,336.1824103000108,336.9942071000114,336.9769966000458,336.97701380000217,336.9942071000114,336.9942071000114,336.9942071000114,338.0283129000454,left,1.0,16.409520699933637,,,,,,,,,,,,,,,,,,,,,,,,,,,,,,,sub-082,1.0,random_dot,60.01475164046647,
right,right,speed,,,,,0.0,1.0,1.0,1.0,9.0,0.0,18.0,1.0,338.04336270003114,,,,,,,,,338.0292997999932,339.2436046000221,340.0439124000259,340.0268328000093,340.02685020002536,340.0439124000259,340.0439124000259,340.0439124000259,340.7281097000232,right,1.0,16.055536700005177,,,,,,,,,,,,,,,,,,,,,,,,,,,,,,,sub-082,1.0,random_dot,60.01475164046647,
left,left,speed,,,,,0.0,1.0,1.0,1.0,9.0,1.0,19.0,0.0,340.7432537000277,,,,,,,,,340.7290548000019,340.84324770001695,341.6440988000249,341.6270062000258,341.6270214000251,341.6440988000249,341.6440988000249,341.6440988000249,342.5155866999994,left,1.0,16.24558549997164,,,,,,,,,,,,,,,,,,,,,,,,,,,,,,,sub-082,1.0,random_dot,60.01475164046647,
left,left,speed,,,,,0.0,1.0,1.0,1.0,10.0,0.0,20.0,0.0,342.53218780003954,,,,,,,,,342.51640290004434,343.32671380002284,344.134122700023,344.11029470001813,344.11032179999165,344.134122700023,344.134122700023,344.134122700023,344.99482590000844,left,1.0,16.230733199976385,,,,,,,,,,,,,,,,,,,,,,,,,,,,,,,sub-082,1.0,random_dot,60.01475164046647,
right,right,speed,,,,,0.0,1.0,1.0,1.0,10.0,1.0,21.0,1.0,345.00982209999347,,,,,,,,,344.99583800003165,345.8100154999993,346.61061959998915,346.59347359999083,346.5934942000313,346.61061959998915,346.61061959998915,346.61061959998915,347.51098700001603,left,0.0,16.267408999963664,,,,,,,,,,,,,,,,,,,,,,,,,,,,,,,sub-082,1.0,random_dot,60.01475164046647,
left,left,speed,,,,,0.0,1.0,1.0,1.0,11.0,0.0,22.0,0.0,347.5262634000392,,,,,,,,,347.51185240002815,348.726462599996,349.52739980001934,349.510087200033,349.5101120999898,349.52739980001934,349.52739980001934,349.52739980001934,351.5947691000183,right,0.0,17.446790000016335,,,,,,,,,,,,,,,,,,,,,,,,,,,,,,,sub-082,1.0,random_dot,60.01475164046647,
right,right,speed,,,,,0.0,1.0,1.0,1.0,11.0,1.0,23.0,1.0,351.60962010000367,,,,,,,,,351.59573770000134,351.95961060002446,352.76046200003475,352.74329190002754,352.74331340001663,352.76046200003475,352.76046200003475,352.76046200003475,354.15144740004325,right,1.0,16.77062379999552,,,,,,,,,,,,,,,,,,,,,,,,,,,,,,,sub-082,1.0,random_dot,60.01475164046647,
right,right,speed,,,,,0.0,1.0,1.0,1.0,12.0,0.0,24.0,1.0,354.16520029999083,,,,,,,,,354.1521488000289,354.959725600027,355.76016520004487,355.74339100002544,355.7434166999883,355.76016520004487,355.76016520004487,355.76016520004487,356.6676934999996,right,1.0,16.271409199980553,,,,,,,,,,,,,,,,,,,,,,,,,,,,,,,sub-082,1.0,random_dot,60.01475164046647,
left,left,speed,,,,,0.0,1.0,1.0,1.0,12.0,1.0,25.0,0.0,356.67760719999205,,,,,,,,,356.6684746000101,356.7762093000347,357.57730390003417,357.5598292000359,357.5598502000212,357.57730390003417,357.57730390003417,357.57730390003417,358.51775130000897,left,1.0,16.311861099966336,,,,,,,,,,,,,,,,,,,,,,,,,,,,,,,sub-082,1.0,random_dot,60.01475164046647,
left,left,speed,,,,,0.0,1.0,1.0,1.0,13.0,0.0,26.0,0.0,358.5317695999984,,,,,,,,,358.51858989999164,359.72604290000163,360.53369350003777,360.5101712000324,360.5101901000016,360.53369350003777,360.53369350003777,360.53369350003777,361.7443309000228,left,1.0,16.588064099953044,,,,,,,,,,,,,,,,,,,,,,,,,,,,,,,sub-082,1.0,random_dot,60.01475164046647,
right,right,speed,,,,,0.0,1.0,1.0,1.0,13.0,1.0,27.0,1.0,361.7592405999894,,,,,,,,,361.74506540002767,362.54836850002175,363.3603150999989,363.3431376999943,363.3431575000286,363.3603150999989,363.3603150999989,363.3603150999989,366.1610829000128,right,1.0,18.177750100032423,,,,,,,,,,,,,,,,,,,,,,,,,,,,,,,sub-082,1.0,random_dot,60.01475164046647,
right,right,speed,,,,,0.0,1.0,1.0,1.0,14.0,0.0,28.0,1.0,366.1761706999969,,,,,,,,,366.162071400031,366.275997299992,367.0770781000029,367.0596894000191,367.0597141000326,367.0770781000029,367.0770781000029,367.0770781000029,368.367685300007,right,1.0,16.665913599950727,,,,,,,,,,,,,,,,,,,,,,,,,,,,,,,sub-082,1.0,random_dot,60.01475164046647,
left,left,speed,,,,,0.0,1.0,1.0,1.0,14.0,1.0,29.0,0.0,368.38156460004393,,,,,,,,,368.36841120000463,368.4816356000374,369.29351710004266,369.2770549000125,369.2770843000035,369.29351710004266,369.29351710004266,369.29351710004266,372.5340970000252,right,0.0,18.604990599968005,,,,,,,,,,,,,,,,,,,,,,,,,,,,,,,sub-082,1.0,random_dot,60.01475164046647,
right,right,speed,,,,,0.0,1.0,1.0,1.0,15.0,0.0,30.0,1.0,372.54811500001233,,,,,,,,,372.53490279999096,373.7424398000003,374.5432062000036,374.5261573000462,374.5261790000368,374.5432062000036,374.5432062000036,374.5432062000036,375.4612873000442,left,0.0,16.293200200016145,,,,,,,,,,,,,,,,,,,,,,,,,,,,,,,sub-082,1.0,random_dot,60.01475164046647,
left,left,speed,,,,,0.0,1.0,1.0,1.0,15.0,1.0,31.0,0.0,375.4757053999929,,,,,,,,,375.46225480001885,376.6758131000097,377.4765691999928,377.4596537000034,377.4596751999925,377.4765691999928,377.4765691999928,377.4765691999928,378.31094310001936,left,1.0,16.198051399958786,,,,,,,,,,,,,,,,,,,,,,,,,,,,,,,sub-082,1.0,random_dot,60.01475164046647,
right,right,speed,,,,,0.0,1.0,1.0,1.0,16.0,0.0,32.0,1.0,378.3257611000445,,,,,,,,,378.3119929000386,379.52557679999154,380.3265556000406,380.3092781000305,380.3093022000394,380.3265556000406,380.3265556000406,380.3265556000406,381.6276287999936,right,1.0,16.664686299976893,,,,,,,,,,,,,,,,,,,,,,,,,,,,,,,sub-082,1.0,random_dot,60.01475164046647,
left,left,speed,,,,,0.0,1.0,1.0,1.0,16.0,1.0,33.0,0.0,381.6425061000045,,,,,,,,,381.62848360004136,381.9927672999911,382.7932953000418,382.7765624000458,382.776582200022,382.7932953000418,382.7932953000418,382.7932953000418,383.6104617000092,left,1.0,16.196065299969632,,,,,,,,,,,,,,,,,,,,,,,,,,,,,,,sub-082,1.0,random_dot,60.01475164046647,
left,left,speed,,,,,0.0,1.0,1.0,1.0,17.0,0.0,34.0,0.0,383.6258555999957,,,,,,,,,383.6111896000221,384.82539350003935,385.6261734000291,385.6093403000268,385.609360500006,385.6261734000291,385.6261734000291,385.6261734000291,386.4103452000418,left,1.0,16.151073899993207,,,,,,,,,,,,,,,,,,,,,,,,,,,,,,,sub-082,1.0,random_dot,60.01475164046647,
right,right,speed,,,,,0.0,1.0,1.0,1.0,17.0,1.0,35.0,1.0,386.4253618000075,,,,,,,,,386.4112916000304,386.77546140004415,387.5767379000317,387.5591807000456,387.5592007000232,387.5767379000317,387.5767379000317,387.5767379000317,388.6104256000253,right,1.0,16.405830600007903,,,,,,,,,,,,,,,,,,,,,,,,,,,,,,,sub-082,1.0,random_dot,60.01475164046647,
right,right,speed,,,,,0.0,1.0,1.0,1.0,18.0,0.0,36.0,1.0,388.6253865000326,,,,,,,,,388.61114300001645,389.82524520001607,390.62621150002815,390.60878830001457,390.6088051000261,390.62621150002815,390.62621150002815,390.62621150002815,391.67708799999673,right,1.0,16.421101099986117,,,,,,,,,,,,,,,,,,,,,,,,,,,,,,,sub-082,1.0,random_dot,60.01475164046647,
left,left,speed,,,,,0.0,1.0,1.0,1.0,18.0,1.0,37.0,0.0,391.69187830004375,,,,,,,,,391.6778312000097,392.4919697000296,393.2927322000032,393.27544170001056,393.2754592000274,393.2927322000032,393.2927322000032,393.2927322000032,394.02679730003,left,1.0,16.10751960001653,,,,,,,,,,,,,,,,,,,,,,,,,,,,,,,sub-082,1.0,random_dot,60.01475164046647,
right,right,speed,,,,,0.0,1.0,1.0,1.0,19.0,0.0,38.0,1.0,394.04193810001016,,,,,,,,,394.0274931000313,395.2422166999895,396.043303500046,396.0264137000195,396.0264341000002,396.043303500046,396.043303500046,396.043303500046,398.1767790000304,right,1.0,17.508123699983116,,,,,,,,,,,,,,,,,,,,,,,,,,,,,,,sub-082,1.0,random_dot,60.01475164046647,
left,left,speed,,,,,0.0,1.0,1.0,1.0,19.0,1.0,39.0,0.0,398.1918311000336,,,,,,,,,398.1778432000429,399.3921297999914,400.19272039999487,400.1754728000378,400.1754990000045,400.19272039999487,400.19272039999487,400.19272039999487,400.9598658999894,left,1.0,16.13447729998734,,,,,,,,,,,,,,,,,,,,,,,,,,,,,,,sub-082,1.0,random_dot,60.01475164046647,
right,right,speed,,,,,0.0,1.0,1.0,1.0,20.0,0.0,40.0,1.0,400.9748720999924,,,,,,,,,400.9607251000125,401.7755044000223,402.5756993000396,402.5587865000125,402.55880350002553,402.5756993000396,402.5756993000396,402.5756993000396,403.3933549000066,right,1.0,16.18670249998104,,,,,,,,,,,,,,,,,,,,,,,,,,,,,,,sub-082,1.0,random_dot,60.01475164046647,
left,left,speed,,,,,0.0,1.0,1.0,1.0,20.0,1.0,41.0,0.0,403.408362200018,,,,,,,,,403.394103300001,403.50837380002486,404.3095830000239,404.292765900027,404.2927901000367,404.3095830000239,404.3095830000239,404.3095830000239,405.559688600013,right,0.0,16.6285020999494,,,,,,,,,,,,,,,,,,,,,,,,,,,,,,,sub-082,1.0,random_dot,60.01475164046647,
right,right,speed,,,,,0.0,1.0,1.0,1.0,21.0,0.0,42.0,1.0,405.5748773000087,,,,,,,,,405.5604014000273,405.67490270000417,406.4759320000303,406.4593486000085,406.459371200006,406.4759320000303,406.4759320000303,406.4759320000303,407.25990210002055,right,1.0,16.157365899998695,,,,,,,,,,,,,,,,,,,,,,,,,,,,,,,sub-082,1.0,random_dot,60.01475164046647,
left,left,speed,,,,,0.0,1.0,1.0,1.0,21.0,1.0,43.0,0.0,407.27523269999074,,,,,,,,,407.2606305000372,408.47508950001793,409.2751316000358,409.2593531000312,409.259370499989,409.2751316000358,409.2751316000358,409.2751316000358,410.12655250000535,left,1.0,16.22610229998827,,,,,,,,,,,,,,,,,,,,,,,,,,,,,,,sub-082,1.0,random_dot,60.01475164046647,
right,right,speed,,,,,0.0,1.0,1.0,1.0,22.0,0.0,44.0,1.0,410.1414245000342,,,,,,,,,410.1275598999928,410.9413665999891,411.7425587000325,411.72560589999193,411.7256212999928,411.7425587000325,411.7425587000325,411.7425587000325,412.7264290000312,right,1.0,16.35202659998322,,,,,,,,,,,,,,,,,,,,,,,,,,,,,,,sub-082,1.0,random_dot,60.01475164046647,
left,left,speed,,,,,0.0,1.0,1.0,1.0,22.0,1.0,45.0,0.0,412.7414798000245,,,,,,,,,412.7273581000045,413.542203399993,414.34219729999313,414.3249598999973,414.3249747999944,414.34219729999313,414.34219729999313,414.34219729999313,415.5930051000323,left,1.0,16.62102479999885,,,,,,,,,,,,,,,,,,,,,,,,,,,,,,,sub-082,1.0,random_dot,60.01475164046647,
left,left,speed,,,,,0.0,1.0,1.0,1.0,23.0,0.0,46.0,0.0,415.60788900003536,,,,,,,,,415.5937143000192,416.8086515000323,417.60888740001246,417.5915629999945,417.5915788999992,417.60888740001246,417.60888740001246,417.60888740001246,418.3430116000236,left,1.0,16.107730499992613,,,,,,,,,,,,,,,,,,,,,,,,,,,,,,,sub-082,1.0,random_dot,60.01475164046647,
right,right,speed,,,,,0.0,1.0,1.0,1.0,23.0,1.0,47.0,1.0,418.35835910000606,,,,,,,,,418.344014500035,418.7083953000256,419.50924570002826,419.49199310003314,419.4920095000416,419.50924570002826,419.50924570002826,419.50924570002826,420.54266570002073,left,0.0,16.412746499991044,,,,,,,,,,,,,,,,,,,,,,,,,,,,,,,sub-082,1.0,random_dot,60.01475164046647,
left,left,speed,,,,,0.0,1.0,1.0,1.0,24.0,0.0,48.0,0.0,420.5579231000156,,,,,,,,,420.54344229999697,421.3584691000288,422.158845500031,422.141530700028,422.141551800014,422.158845500031,422.158845500031,422.158845500031,422.92509780003456,left,1.0,16.141147200018167,,,,,,,,,,,,,,,,,,,,,,,,,,,,,,,sub-082,1.0,random_dot,60.01475164046647,
right,right,speed,,,,,0.0,1.0,1.0,1.0,24.0,1.0,49.0,1.0,422.9412100000191,,,,,,,,,422.9259931000415,423.0411967000109,423.8421857000212,423.8249048000434,423.8249248000211,423.8421857000212,423.8421857000212,423.8421857000212,424.8933547000052,right,1.0,16.42116409994196,,,,,,,,,,,,,,,,,,,,,,,,,,,,,,,sub-082,1.0,random_dot,60.01475164046647,
right,right,speed,,,,,0.0,1.0,1.0,1.0,25.0,0.0,50.0,1.0,424.9078503000201,,,,,,,,,424.89412780001294,426.1077262000181,426.9087234000326,426.8919333000085,426.891947600001,426.9087234000326,426.9087234000326,426.9087234000326,429.5759331000154,right,1.0,18.04207209998276,,,,,,,,,,,,,,,,,,,,,,,,,,,,,,,sub-082,1.0,random_dot,60.01475164046647,
left,left,speed,,,,,0.0,1.0,1.0,1.0,25.0,1.0,51.0,0.0,429.5917875000159,,,,,,,,,429.5768870000029,430.39105000003474,431.1924374999944,431.1752416000236,431.17526109999744,431.1924374999944,431.1924374999944,431.1924374999944,432.125800000038,left,1.0,16.297407199977897,,,,,,,,,,,,,,,,,,,,,,,,,,,,,,,sub-082,1.0,random_dot,60.01475164046647,
left,left,speed,,,,,0.0,1.0,1.0,1.0,26.0,0.0,52.0,0.0,432.1409380999976,,,,,,,,,432.1268541000318,432.2409639999969,433.04179660003865,433.0245316000073,433.02454910002416,433.04179660003865,433.04179660003865,433.04179660003865,434.12573750002775,right,0.0,16.45246000000043,,,,,,,,,,,,,,,,,,,,,,,,,,,,,,,sub-082,1.0,random_dot,60.01475164046647,
right,right,speed,,,,,0.0,1.0,1.0,1.0,26.0,1.0,53.0,1.0,434.140881600033,,,,,,,,,434.126622700016,434.94086950004566,435.7417165000225,435.7245737999911,435.72459270001855,435.7417165000225,435.7417165000225,435.7417165000225,436.825665500015,left,0.0,16.453263899951708,,,,,,,,,,,,,,,,,,,,,,,,,,,,,,,sub-082,1.0,random_dot,60.01475164046647,
right,right,speed,,,,,0.0,1.0,1.0,1.0,27.0,0.0,54.0,1.0,436.8407900999882,,,,,,,,,436.82639760000166,438.0411470000399,438.8417095000041,438.8244009999908,438.8244178000023,438.8417095000041,438.8417095000041,438.8417095000041,440.6922588000307,right,1.0,17.225069299980532,,,,,,,,,,,,,,,,,,,,,,,,,,,,,,,sub-082,1.0,random_dot,60.01475164046647,
left,left,speed,,,,,0.0,1.0,1.0,1.0,27.0,1.0,55.0,0.0,440.7080704999971,,,,,,,,,440.6931954000029,441.9072576999897,442.70851990004303,442.691505099996,442.6915251000319,442.70851990004303,442.70851990004303,442.70851990004303,443.5423723999993,left,1.0,16.207425299973693,,,,,,,,,,,,,,,,,,,,,,,,,,,,,,,sub-082,1.0,random_dot,60.01475164046647,
left,left,speed,,,,,0.0,1.0,1.0,1.0,28.0,0.0,56.0,0.0,443.55772869999055,,,,,,,,,443.54308560001664,444.75734539999394,445.5578979999991,445.5417659000377,445.54178650002,445.5578979999991,445.5578979999991,445.5578979999991,446.5090870000422,left,1.0,16.32634789997246,,,,,,,,,,,,,,,,,,,,,,,,,,,,,,,sub-082,1.0,random_dot,60.01475164046647,
right,right,speed,,,,,0.0,1.0,1.0,1.0,28.0,1.0,57.0,1.0,446.5243413000135,,,,,,,,,446.5098064999911,447.72379870002624,448.5250190999941,448.5078249000362,448.5078454000177,448.5250190999941,448.5250190999941,448.5250190999941,449.6252722000354,right,1.0,16.4728670999757,,,,,,,,,,,,,,,,,,,,,,,,,,,,,,,sub-082,1.0,random_dot,60.01475164046647,
right,right,speed,,,,,0.0,1.0,1.0,1.0,29.0,0.0,58.0,1.0,449.6404490999994,,,,,,,,,449.6259791000048,450.4404922000249,451.2413572000223,451.2239898000262,451.2240065000369,451.2413572000223,451.2413572000223,451.2413572000223,452.4918742000009,right,1.0,16.620783900027163,,,,,,,,,,,,,,,,,,,,,,,,,,,,,,,sub-082,1.0,random_dot,60.01475164046647,
left,left,speed,,,,,0.0,1.0,1.0,1.0,29.0,1.0,59.0,0.0,452.5071276000235,,,,,,,,,452.4927393000107,453.3070085000363,454.1080676999991,454.0906877000234,454.0907062999904,454.1080676999991,454.1080676999991,454.1080676999991,455.4751121000154,left,1.0,16.7317307999474,,,,,,,,,,,,,,,,,,,,,,,,,,,,,,,sub-082,1.0,random_dot,60.01475164046647,
,,speed,,,,,0.0,1.0,1.0,1.0,,,,,,,,,,,,,,,,,,,,,,,,,,,,,,,,,,,,,,,,,,,,,,,,,,,,,,,,sub-082,1.0,random_dot,60.01475164046647,
,,,,,,,,,,,,,,,,,,,,,,,,,,,,,,,,,,,,,,,,,,,,,,,,,,,,,,,,,,,,,,455.47566460003145,455.490389899991,460.4901288000401,460.4743477000157,sub-082,,,,
