wordCTK,colorCTK,corrAnsCTK,congruentCTK,thisN,thisTrialN,thisRepN,keyResp_CTK.keys,keyResp_CTK.corr,keyResp_CTK.rt,keyResp_CTK.duration,wordPractice,colorPractice,corrAnsPractice,congruentPractice,respPractice.keys,respPractice.corr,respPractice.rt,respPractice.duration,word,color,corrAns,congruent,keyResp_test_run.keys,keyResp_test_run.corr,keyResp_test_run.rt,keyResp_test_run.duration,trials_CTK.thisRepN,trials_CTK.thisTrialN,trials_CTK.thisN,trials_CTK.thisIndex,trials_practice.thisRepN,trials_practice.thisTrialN,trials_practice.thisN,trials_practice.thisIndex,trials_test.thisRepN,trials_test.thisTrialN,trials_test.thisN,trials_test.thisIndex,thisRow.t,notes,instruction.started,instr_text.started,instr_image.started,instr_resp.started,instruction.stopped,instr_resp.keys,instr_resp.rt,instr_resp.duration,instr_color_to_key.started,instr_ctk.started,resp_ctk.started,instr_color_to_key.stopped,resp_ctk.keys,resp_ctk.rt,resp_ctk.duration,ITI.started,fixcross.started,fixcross.stopped,ITI.stopped,color_to_key_run.started,stimulus_CTK.started,keyResp_CTK.started,color_to_key_run.stopped,trials_CTK.keyResp_CTK.keys,trials_CTK.keyResp_CTK.corr,trials_CTK.keyResp_CTK.rt,trials_CTK.keyResp_CTK.duration,instr_practice.started,instr_practice_text.started,instr_practice_resp.started,instr_practice.stopped,instr_practice_resp.keys,instr_practice_resp.rt,instr_practice_resp.duration,practice_run.started,stimulus_practice.started,respPractice.started,practice_run.stopped,trials_practice.respPractice.keys,trials_practice.respPractice.corr,trials_practice.respPractice.rt,trials_practice.respPractice.duration,feedback.started,textFeedback.started,feedback.stopped,textFeedback.stopped,instr_test.started,instr_test_text.started,instr_test_resp.started,instr_test.stopped,instr_test_resp.keys,instr_test_resp.rt,instr_test_resp.duration,test_run.started,stimulus_test_run.started,keyResp_test_run.started,test_run.stopped,trials_test.keyResp_test_run.keys,trials_test.keyResp_test_run.corr,trials_test.keyResp_test_run.rt,trials_test.keyResp_test_run.duration,goodbye.started,textGoodbye.started,textGoodbye.stopped,goodbye.stopped,participant,session,expName,frameRate,Unnamed: 113
,,,,,,,,,,,,,,,,,,,,,,,,,,,,,,,,,,,,,,,,,0.0067571249965112,0.0244422919931821,0.0244422919931821,0.0244422919931821,36.812160125002265,space,36.656563875003485,,,,,,,,,,,,,,,,,,,,,,,,,,,,,,,,,,,,,,,,,,,,,,,,,,,,,,,,,,,sub-074,1,stroop_test,,
,,,,,,,,,,,,,,,,,,,,,,,,,,,,,,,,,,,,,,,,,,,,,,,,,36.812206249989686,36.83644795899454,36.83644795899454,44.90840854198905,space,8.065471291003632,,,,,,,,,,,,,,,,,,,,,,,,,,,,,,,,,,,,,,,,,,,,,,,,,,,,sub-074,1,stroop_test,,
test,red,r,1.0,0.0,0.0,0.0,r,1.0,1.2481195840082364,,,,,,,,,,,,,,,,,,0.0,0.0,0.0,0.0,,,,,,,,,44.94487983400177,,,,,,,,,,,,,,,,,44.92991783400066,45.26960229199904,46.07054299999436,46.05700324999634,46.06463316699956,46.07054299999436,46.07054299999436,47.32491770898923,r,1.0,1.2481195840082364,,,,,,,,,,,,,,,,,,,,,,,,,,,,,,,,,,,,,,,,sub-074,1,stroop_test,,
test,blue,b,1.0,1.0,1.0,0.0,g,0.0,0.7529750840039924,,,,,,,,,,,,,,,,,,0.0,1.0,1.0,2.0,,,,,,,,,47.333549959002994,,,,,,,,,,,,,,,,,47.325363750002,47.423883833995205,48.21768354199594,48.20691891699971,48.20751599999494,48.21768354199594,48.21768354199594,48.97494124999503,g,0.0,0.7529750840039924,,,,,,,,,,,,,,,,,,,,,,,,,,,,,,,,,,,,,,,,sub-074,1,stroop_test,,
test,yellow,g,1.0,2.0,2.0,0.0,g,1.0,1.1025791249994654,,,,,,,,,,,,,,,,,,0.0,2.0,2.0,1.0,,,,,,,,,48.9835947919928,,,,,,,,,,,,,,,,,48.97538508399157,49.07456749999256,49.87602495899773,49.868182166988845,49.86915358398983,49.87602495899773,49.87602495899773,50.986397542001214,g,1.0,1.1025791249994654,,,,,,,,,,,,,,,,,,,,,,,,,,,,,,,,,,,,,,,,sub-074,1,stroop_test,,
test,red,r,1.0,3.0,0.0,1.0,r,1.0,0.7715535000024829,,,,,,,,,,,,,,,,,,1.0,0.0,3.0,0.0,,,,,,,,,50.9958747089986,,,,,,,,,,,,,,,,,50.987249416997656,51.784421709002345,52.57600345899118,52.56828154200048,52.569266708989744,52.57600345899118,52.57600345899118,53.35312045899627,r,1.0,0.7715535000024829,,,,,,,,,,,,,,,,,,,,,,,,,,,,,,,,,,,,,,,,sub-074,1,stroop_test,,
test,yellow,g,1.0,4.0,1.0,1.0,g,1.0,0.8933735830069054,,,,,,,,,,,,,,,,,,1.0,1.0,4.0,1.0,,,,,,,,,53.36281616699125,,,,,,,,,,,,,,,,,53.354004666995024,53.70113479199063,54.49308279198885,54.48498604199267,54.48597791699285,54.49308279198885,54.49308279198885,55.39082087499264,g,1.0,0.8933735830069054,,,,,,,,,,,,,,,,,,,,,,,,,,,,,,,,,,,,,,,,sub-074,1,stroop_test,,
test,blue,b,1.0,5.0,2.0,1.0,b,1.0,0.3865249169903109,,,,,,,,,,,,,,,,,,1.0,2.0,5.0,2.0,,,,,,,,,55.40034074999858,,,,,,,,,,,,,,,,,55.39125783399504,56.590722041990375,57.38293162499031,57.37400737499411,57.37471945899597,57.38293162499031,57.38293162499031,57.77494633400056,b,1.0,0.3865249169903109,,,,,,,,,,,,,,,,,,,,,,,,,,,,,,,,,,,,,,,,sub-074,1,stroop_test,,
test,blue,b,1.0,6.0,0.0,2.0,b,1.0,0.7774612079956569,,,,,,,,,,,,,,,,,,2.0,0.0,6.0,2.0,,,,,,,,,57.783644791998086,,,,,,,,,,,,,,,,,57.77538237499539,58.974132834002376,59.76780416700058,59.75719899999967,59.757809541988536,59.76780416700058,59.76780416700058,60.55261362499732,b,1.0,0.7774612079956569,,,,,,,,,,,,,,,,,,,,,,,,,,,,,,,,,,,,,,,,sub-074,1,stroop_test,,
test,yellow,g,1.0,7.0,1.0,2.0,g,1.0,0.399598457996035,,,,,,,,,,,,,,,,,,2.0,1.0,7.0,1.0,,,,,,,,,60.561735499999486,,,,,,,,,,,,,,,,,60.55322366699693,61.35111262499413,62.142664958999376,62.13495566700294,62.13593150000088,62.142664958999376,62.142664958999376,62.55289812499541,g,1.0,0.399598457996035,,,,,,,,,,,,,,,,,,,,,,,,,,,,,,,,,,,,,,,,sub-074,1,stroop_test,,
test,red,r,1.0,8.0,2.0,2.0,r,1.0,0.3323516249947715,,,,,,,,,,,,,,,,,,2.0,2.0,8.0,0.0,,,,,,,,,62.56218524998985,,,,,,,,,,,,,,,,,62.553778208995936,63.3512881249917,64.14195995900081,64.13466625000001,64.1354087919899,64.14195995900081,64.14195995900081,64.48643954200088,r,1.0,0.3323516249947715,,,,,,,,,,,,,,,,,,,,,,,,,,,,,,,,,,,,,,,,sub-074,1,stroop_test,,
test,blue,b,1.0,9.0,0.0,3.0,b,1.0,0.4329181670036632,,,,,,,,,,,,,,,,,,3.0,0.0,9.0,2.0,,,,,,,,,64.49599887499062,,,,,,,,,,,,,,,,,64.48724158399273,65.28459587499674,66.07638429199869,66.06828700000187,66.06926208399818,66.07638429199869,66.07638429199869,66.51962058398931,b,1.0,0.4329181670036632,,,,,,,,,,,,,,,,,,,,,,,,,,,,,,,,,,,,,,,,sub-074,1,stroop_test,,
test,red,r,1.0,10.0,1.0,3.0,r,1.0,0.5617761250032345,,,,,,,,,,,,,,,,,,3.0,1.0,10.0,0.0,,,,,,,,,66.52874141700158,,,,,,,,,,,,,,,,,66.52032145900012,66.86773149999499,67.65941624999687,67.65162841699203,67.65261974999157,67.65941624999687,67.65941624999687,68.22534754200024,r,1.0,0.5617761250032345,,,,,,,,,,,,,,,,,,,,,,,,,,,,,,,,,,,,,,,,sub-074,1,stroop_test,,
test,yellow,g,1.0,11.0,2.0,3.0,g,1.0,0.2883712920011021,,,,,,,,,,,,,,,,,,3.0,2.0,11.0,1.0,,,,,,,,,68.23606908399961,,,,,,,,,,,,,,,,,68.22612058398954,69.42297033399518,70.21777491699322,70.20715641698916,70.20775274999323,70.21777491699322,70.21777491699322,70.51919945899863,g,1.0,0.2883712920011021,,,,,,,,,,,,,,,,,,,,,,,,,,,,,,,,,,,,,,,,sub-074,1,stroop_test,,
,,,,,,,,,,,,,,,,,,,,,,,,,,,,,,,,,,,,,,,,,,,,,,,,,,,,,,,,,,,,,,,,,,,,70.5194641249982,70.5308978749963,70.5308978749963,83.09188420898863,space,12.557694040995557,,,,,,,,,,,,,,,,,,,,,,,,,,,,,,,,,sub-074,1,stroop_test,,
,,,,0.0,0.0,0.0,,,,,gelb,yellow,g,1.0,g,1.0,2.329877582989866,,,,,,,,,,,,,,0.0,0.0,0.0,10.0,,,,,83.11510049999924,,,,,,,,,,,,,,,,,83.10854104199097,83.18937883399485,83.98673870899074,83.97315254199202,,,,,,,,,,,,,,,,83.98015312499774,83.98673870899074,83.98673870899074,86.31957220900222,g,1.0,2.329877582989866,,86.3284060839942,86.33717491698917,87.32406324999465,,,,,,,,,,,,,,,,,,,,,sub-074,1,stroop_test,,
,,,,1.0,1.0,0.0,,,,,gelb,blue,b,0.0,b,1.0,1.0578454170026816,,,,,,,,,,,,,,0.0,1.0,1.0,9.0,,,,,87.3345330000011,,,,,,,,,,,,,,,,,87.32457537499431,87.41803029199946,88.21068449999439,88.20189729199046,,,,,,,,,,,,,,,,88.20290795899928,88.21068449999439,88.21068449999439,89.27442987498944,b,1.0,1.0578454170026816,,89.27510366699426,89.28928579199419,90.274060249998,90.28450508399692,,,,,,,,,,,,,,,,,,,,sub-074,1,stroop_test,,
,,,,2.0,2.0,0.0,,,,,rot,yellow,g,0.0,g,1.0,0.9242058749950957,,,,,,,,,,,,,,0.0,2.0,2.0,3.0,,,,,90.28450508399692,,,,,,,,,,,,,,,,,90.2745776669908,91.47363599999515,92.2702634169982,92.2571842920006,,,,,,,,,,,,,,,,92.26337691699156,92.2702634169982,92.2702634169982,93.20318466699972,g,1.0,0.9242058749950957,,93.20445637499506,93.21652629200253,94.20167512499027,94.20748124999228,,,,,,,,,,,,,,,,,,,,sub-074,1,stroop_test,,
,,,,3.0,3.0,0.0,,,,,blau,red,r,0.0,r,1.0,0.5402633330086246,,,,,,,,,,,,,,0.0,3.0,3.0,4.0,,,,,94.20748124999228,,,,,,,,,,,,,,,,,94.2023534589971,95.40111858399176,96.2000175419962,96.18485895899356,,,,,,,,,,,,,,,,96.1933739590022,96.2000175419962,96.2000175419962,96.7523083749984,r,1.0,0.5402633330086246,,96.75296662499022,96.764770416994,97.75144325000292,97.7566242920002,,,,,,,,,,,,,,,,,,,,sub-074,1,stroop_test,,
,,,,4.0,4.0,0.0,,,,,rot,red,r,1.0,r,1.0,0.658186749991728,,,,,,,,,,,,,,0.0,4.0,4.0,1.0,,,,,97.7566242920002,,,,,,,,,,,,,,,,,97.75196187499388,98.10108004198992,98.89718699999504,98.88494112499755,,,,,,,,,,,,,,,,98.89029879200098,98.89718699999504,98.89718699999504,99.55821287499566,r,1.0,0.658186749991728,,99.55905299998994,99.57183658400028,100.55728866699792,100.56771129199478,,,,,,,,,,,,,,,,,,,,sub-074,1,stroop_test,,
,,,,5.0,5.0,0.0,,,,,gelb,red,r,0.0,r,1.0,0.8418524579901714,,,,,,,,,,,,,,0.0,5.0,5.0,8.0,,,,,100.56771129199478,,,,,,,,,,,,,,,,,100.55781333400228,101.3573064999946,102.1674530839955,102.14077683399957,,,,,,,,,,,,,,,,102.14508391699928,102.1674530839955,102.1674530839955,103.01991974998964,r,1.0,0.8418524579901714,,103.02105904200288,103.03286245898926,104.01811704199643,104.02329820899467,,,,,,,,,,,,,,,,,,,,sub-074,1,stroop_test,,
,,,,6.0,6.0,0.0,,,,,rot,blue,b,0.0,b,1.0,0.8106331250019139,,,,,,,,,,,,,,0.0,6.0,6.0,2.0,,,,,104.02329820899467,,,,,,,,,,,,,,,,,104.01862816698848,104.36794287498924,105.16358354200202,105.15162254199096,,,,,,,,,,,,,,,,105.15666358399903,105.16358354200202,105.16358354200202,105.98645745900284,b,1.0,0.8106331250019139,,105.98773545899894,105.99942283399288,106.98491549999744,106.99060341699806,,,,,,,,,,,,,,,,,,,,sub-074,1,stroop_test,,
,,,,7.0,7.0,0.0,,,,,blau,yellow,g,0.0,g,1.0,0.579315625000163,,,,,,,,,,,,,,0.0,7.0,7.0,7.0,,,,,106.99060341699806,,,,,,,,,,,,,,,,,106.98558416699234,107.08457737498976,107.87991141699604,107.86837558400292,,,,,,,,,,,,,,,,107.87329095898896,107.87991141699604,107.87991141699604,108.46979616700264,g,1.0,0.579315625000163,,108.47081533398888,108.4825669589918,109.46833266699105,109.47395558399148,,,,,,,,,,,,,,,,,,,,sub-074,1,stroop_test,,
,,,,8.0,8.0,0.0,,,,,blau,blue,b,1.0,b,1.0,1.0805081250000512,,,,,,,,,,,,,,0.0,8.0,8.0,6.0,,,,,109.47395558399148,,,,,,,,,,,,,,,,,109.46900658399682,109.81787854200228,110.60992045899911,110.60180616698926,,,,,,,,,,,,,,,,110.6027780000004,110.60992045899911,110.60992045899911,111.691653959002,b,1.0,1.0805081250000512,,111.6924204169918,111.7056915419962,112.6905351250025,112.7012276250025,,,,,,,,,,,,,,,,,,,,sub-074,1,stroop_test,,
,,,,9.0,9.0,0.0,,,,,gelb,yellow,g,1.0,g,1.0,0.6189161249931203,,,,,,,,,,,,,,0.0,9.0,9.0,11.0,,,,,112.7012276250025,,,,,,,,,,,,,,,,,112.69095545899472,113.49052374999155,114.28408295899862,114.27399074999266,,,,,,,,,,,,,,,,114.27753537498938,114.28408295899862,114.28408295899862,114.90852812500088,g,1.0,0.6189161249931203,,114.9091858749889,114.92229920899264,115.90553358399484,115.91776054199728,,,,,,,,,,,,,,,,,,,,sub-074,1,stroop_test,,
,,,,10.0,10.0,0.0,,,,,rot,red,r,1.0,r,1.0,0.8772979999921517,,,,,,,,,,,,,,0.0,10.0,10.0,0.0,,,,,115.91776054199728,,,,,,,,,,,,,,,,,115.90595400000166,117.1073178749939,117.91769016699982,117.89054999999644,,,,,,,,,,,,,,,,117.89483287499752,117.91769016699982,117.91769016699982,118.80248837498948,r,1.0,0.8772979999921517,,118.80330025000148,118.81514212499314,119.80164041699028,119.8074526249984,,,,,,,,,,,,,,,,,,,,sub-074,1,stroop_test,,
,,,,11.0,11.0,0.0,,,,,blau,blue,b,1.0,b,1.0,0.6973220410000067,,,,,,,,,,,,,,0.0,11.0,11.0,5.0,,,,,119.8074526249984,,,,,,,,,,,,,,,,,119.8023119589925,120.15123270900222,120.94658483398962,120.9348867499939,,,,,,,,,,,,,,,,120.93987766699864,120.94658483398962,120.94658483398962,121.65253283399215,b,1.0,0.6973220410000067,,121.65319216699572,121.66469700000016,122.6517703749996,122.65758591699704,,,,,,,,,,,,,,,,,,,,sub-074,1,stroop_test,,
,,,,12.0,0.0,1.0,,,,,gelb,blue,b,0.0,b,1.0,0.8451278749998892,,,,,,,,,,,,,,1.0,0.0,12.0,9.0,,,,,122.65758591699704,,,,,,,,,,,,,,,,,122.6524615840026,123.85126862498872,124.6466942919942,124.63497741699392,,,,,,,,,,,,,,,,124.64007970900276,124.6466942919942,124.6466942919942,125.50320241699228,b,1.0,0.8451278749998892,,125.50448233399948,125.5160213749914,126.501827125001,126.50736341699668,,,,,,,,,,,,,,,,,,,,sub-074,1,stroop_test,,
,,,,13.0,1.0,1.0,,,,,gelb,red,r,0.0,r,1.0,0.5845857500098646,,,,,,,,,,,,,,1.0,1.0,13.0,8.0,,,,,126.50736341699668,,,,,,,,,,,,,,,,,126.50251049999495,126.6012681669963,127.39306424999086,127.38500816699523,,,,,,,,,,,,,,,,127.38601320899032,127.39306424999086,127.39306424999086,127.98649170900173,r,1.0,0.5845857500098646,,127.98779166699389,127.99979549999988,128.98512174999632,128.99090024999168,,,,,,,,,,,,,,,,,,,,sub-074,1,stroop_test,,
,,,,14.0,2.0,1.0,,,,,blau,blue,b,1.0,b,1.0,0.4854027500114171,,,,,,,,,,,,,,1.0,2.0,14.0,5.0,,,,,128.99090024999168,,,,,,,,,,,,,,,,,128.98580408398993,129.78454662500008,130.57927712499804,130.5681400839967,,,,,,,,,,,,,,,,130.57260054200017,130.57927712499804,130.57927712499804,131.0697556249943,b,1.0,0.4854027500114171,,131.0708710839972,131.08267579200037,132.06816095899558,132.0728100839915,,,,,,,,,,,,,,,,,,,,sub-074,1,stroop_test,,
,,,,15.0,3.0,1.0,,,,,gelb,yellow,g,1.0,g,1.0,0.5725129580096109,,,,,,,,,,,,,,1.0,3.0,15.0,10.0,,,,,132.0728100839915,,,,,,,,,,,,,,,,,132.0686732920003,132.41661320898857,133.21401562499523,133.20203304199094,,,,,,,,,,,,,,,,133.2067823339894,133.21401562499523,133.21401562499523,133.79185899998993,g,1.0,0.5725129580096109,,133.79256412498944,133.80669512499298,134.7905072089925,134.80163162499957,,,,,,,,,,,,,,,,,,,,sub-074,1,stroop_test,,
,,,,16.0,4.0,1.0,,,,,rot,red,r,1.0,r,1.0,0.5448506249958882,,,,,,,,,,,,,,1.0,4.0,16.0,1.0,,,,,134.80163162499957,,,,,,,,,,,,,,,,,134.79095966699242,135.13897020899458,135.933707624994,135.92340629200044,,,,,,,,,,,,,,,,135.9263601249986,135.933707624994,135.933707624994,136.48588945899974,r,1.0,0.5448506249958882,,136.48671899999317,136.49898987499182,137.48505308399035,137.4907861249958,,,,,,,,,,,,,,,,,,,,sub-074,1,stroop_test,,
,,,,17.0,5.0,1.0,,,,,rot,blue,b,0.0,b,1.0,0.8873817080020672,,,,,,,,,,,,,,1.0,5.0,17.0,2.0,,,,,137.4907861249958,,,,,,,,,,,,,,,,,137.48575504199837,138.2849524589983,139.076149333996,139.0683536669967,,,,,,,,,,,,,,,,139.0693239999964,139.076149333996,139.076149333996,139.96896549999656,b,1.0,0.8873817080020672,,139.9696556669951,139.98165779199917,140.96840212499956,140.9740309589979,,,,,,,,,,,,,,,,,,,,sub-074,1,stroop_test,,
,,,,18.0,6.0,1.0,,,,,rot,red,r,1.0,r,1.0,0.6826644590037176,,,,,,,,,,,,,,1.0,6.0,18.0,0.0,,,,,140.9740309589979,,,,,,,,,,,,,,,,,140.96906799999124,141.06808179199288,141.85884995899687,141.85146479199466,,,,,,,,,,,,,,,,141.85225012499723,141.85884995899687,141.85884995899687,142.5533343749994,r,1.0,0.6826644590037176,,142.55435537498852,142.56654754199553,143.5519535420026,143.55793029199413,,,,,,,,,,,,,,,,,,,,sub-074,1,stroop_test,,
,,,,19.0,7.0,1.0,,,,,blau,blue,b,1.0,b,1.0,1.0591830420016777,,,,,,,,,,,,,,1.0,7.0,19.0,6.0,,,,,143.55793029199413,,,,,,,,,,,,,,,,,143.55264195900236,144.35129904199857,145.15015687499545,145.13824933399155,,,,,,,,,,,,,,,,145.14140470899292,145.15015687499545,145.15015687499545,146.2199570840021,b,1.0,1.0591830420016777,,146.2214412089961,146.2343078339909,147.21778774999257,147.2225006249937,,,,,,,,,,,,,,,,,,,,sub-074,1,stroop_test,,
,,,,20.0,8.0,1.0,,,,,gelb,yellow,g,1.0,g,1.0,0.4764903750037774,,,,,,,,,,,,,,1.0,8.0,20.0,11.0,,,,,147.2225006249937,,,,,,,,,,,,,,,,,147.2183129999903,148.41830954200125,149.21384437500092,149.20152658400184,,,,,,,,,,,,,,,,149.20657566699083,149.21384437500092,149.21384437500092,149.69168054198963,g,1.0,0.4764903750037774,,149.6924185839889,149.70603258399933,150.69130770899935,150.70136854199518,,,,,,,,,,,,,,,,,,,,sub-074,1,stroop_test,,
,,,,21.0,9.0,1.0,,,,,blau,yellow,g,0.0,g,1.0,1.24991100000625,,,,,,,,,,,,,,1.0,9.0,21.0,7.0,,,,,150.70136854199518,,,,,,,,,,,,,,,,,150.6918460839952,151.8902876249922,152.68637441699684,152.67429133399855,,,,,,,,,,,,,,,,152.6786603340006,152.68637441699684,152.68637441699684,153.94012583399308,g,1.0,1.24991100000625,,153.94078262499534,153.9530139999988,154.94051424998906,154.9515784589894,,,,,,,,,,,,,,,,,,,,sub-074,1,stroop_test,,
,,,,22.0,10.0,1.0,,,,,blau,red,r,0.0,r,1.0,0.6496101249940693,,,,,,,,,,,,,,1.0,10.0,22.0,4.0,,,,,154.9515784589894,,,,,,,,,,,,,,,,,154.9410504999978,155.04101345899107,155.83440916700056,155.82383366698923,,,,,,,,,,,,,,,,155.8244341249956,155.83440916700056,155.83440916700056,156.48613116699562,r,1.0,0.6496101249940693,,156.4873575419915,156.49929933399835,157.48479512499762,157.4899498750019,,,,,,,,,,,,,,,,,,,,sub-074,1,stroop_test,,
,,,,23.0,11.0,1.0,,,,,rot,yellow,g,0.0,r,0.0,0.4950030420004623,,,,,,,,,,,,,,1.0,11.0,23.0,3.0,,,,,157.4899498750019,,,,,,,,,,,,,,,,,157.4853270839958,157.8342743749963,158.629838791996,158.61822116699477,,,,,,,,,,,,,,,,158.6227953339985,158.629838791996,158.629838791996,159.13652708398877,r,0.0,0.4950030420004623,,159.14470733399503,159.1552273339912,160.14050604199292,,,,,,,,,,,,,,,,,,,,,sub-074,1,stroop_test,,
,,,,,,,,,,,,,,,,,,,,,,,,,,,,,,,,,,,,,,,,,,,,,,,,,,,,,,,,,,,,,,,,,,,,,,,,,,,,,,,,,,,,,,,160.14077429199824,160.1497955419909,160.1497955419909,166.36953787499806,space,6.216900375002297,,,,,,,,,,,,,,sub-074,1,stroop_test,,
,,,,0.0,0.0,0.0,,,,,,,,,,,,,rot,blue,b,0.0,b,1.0,0.5833727499993984,,,,,,,,,,0.0,0.0,0.0,2.0,166.39418820900028,,,,,,,,,,,,,,,,,166.3875070840004,167.56811649999872,168.36734316698858,168.35447870899225,,,,,,,,,,,,,,,,,,,,,,,,,,,,,,,,,,,168.3578844589938,168.36734316698858,168.36734316698858,168.95325333399524,b,1.0,0.5833727499993984,,,,,,sub-074,1,stroop_test,,
,,,,1.0,1.0,0.0,,,,,,,,,,,,,gelb,red,r,0.0,r,1.0,0.6862695000017993,,,,,,,,,,0.0,1.0,1.0,8.0,168.9652271669911,,,,,,,,,,,,,,,,,168.95430966699496,170.15131716699398,170.94736737498897,170.93507979199055,,,,,,,,,,,,,,,,,,,,,,,,,,,,,,,,,,,170.94026658400253,170.94736737498897,170.94736737498897,171.63600716699148,r,1.0,0.6862695000017993,,,,,,sub-074,1,stroop_test,,
,,,,2.0,2.0,0.0,,,,,,,,,,,,,blau,yellow,g,0.0,g,1.0,0.5047385420039063,,,,,,,,,,0.0,2.0,2.0,7.0,171.64742795898928,,,,,,,,,,,,,,,,,171.6365276669967,171.98472720899736,172.7797523749905,172.76855854199675,,,,,,,,,,,,,,,,,,,,,,,,,,,,,,,,,,,172.77221075000125,172.7797523749905,172.7797523749905,173.28616108399,g,1.0,0.5047385420039063,,,,,,sub-074,1,stroop_test,,
,,,,3.0,3.0,0.0,,,,,,,,,,,,,rot,red,r,1.0,r,1.0,0.4911568749957951,,,,,,,,,,0.0,3.0,3.0,0.0,173.29667804199562,,,,,,,,,,,,,,,,,173.2868184169929,173.63485691699316,174.43328795899288,174.4220807919919,,,,,,,,,,,,,,,,,,,,,,,,,,,,,,,,,,,174.42524799999956,174.43328795899288,174.43328795899288,174.93675520899706,r,1.0,0.4911568749957951,,,,,,sub-074,1,stroop_test,,
,,,,4.0,4.0,0.0,,,,,,,,,,,,,gelb,yellow,g,1.0,g,1.0,0.4905510419921484,,,,,,,,,,0.0,4.0,4.0,10.0,174.9485821249982,,,,,,,,,,,,,,,,,174.9378882500023,175.2852413340006,176.07992245900095,176.0683709589939,,,,,,,,,,,,,,,,,,,,,,,,,,,,,,,,,,,176.0727887499961,176.07992245900095,176.07992245900095,176.5765230419929,g,1.0,0.4905510419921484,,,,,,sub-074,1,stroop_test,,
,,,,5.0,5.0,0.0,,,,,,,,,,,,,rot,yellow,g,0.0,r,0.0,0.7078755000111414,,,,,,,,,,0.0,5.0,5.0,3.0,176.5904000839946,,,,,,,,,,,,,,,,,176.57704483398993,176.92438708400005,177.71750633399645,177.70721758400032,,,,,,,,,,,,,,,,,,,,,,,,,,,,,,,,,,,177.7107085000025,177.71750633399645,177.71750633399645,178.43619466699602,r,0.0,0.7078755000111414,,,,,,sub-074,1,stroop_test,,
,,,,6.0,6.0,0.0,,,,,,,,,,,,,gelb,blue,b,0.0,b,1.0,0.5173082920082379,,,,,,,,,,0.0,6.0,6.0,9.0,178.447612709002,,,,,,,,,,,,,,,,,178.43690354199498,179.23472862500057,180.03214620899234,180.01852695900016,,,,,,,,,,,,,,,,,,,,,,,,,,,,,,,,,,,180.02517329200057,180.03214620899234,180.03214620899234,180.55285133399596,b,1.0,0.5173082920082379,,,,,,sub-074,1,stroop_test,,
,,,,7.0,7.0,0.0,,,,,,,,,,,,,rot,red,r,1.0,r,1.0,0.5241707499953918,,,,,,,,,,0.0,7.0,7.0,1.0,180.56451891700272,,,,,,,,,,,,,,,,,180.5536872090015,181.35145191699849,182.14721829199695,182.1351014999964,,,,,,,,,,,,,,,,,,,,,,,,,,,,,,,,,,,182.13999299998977,182.14721829199695,182.14721829199695,182.6755152919941,r,1.0,0.5241707499953918,,,,,,sub-074,1,stroop_test,,
,,,,8.0,8.0,0.0,,,,,,,,,,,,,gelb,yellow,g,1.0,g,1.0,0.5297712089959532,,,,,,,,,,0.0,8.0,8.0,11.0,182.68689341699064,,,,,,,,,,,,,,,,,182.67616470900248,183.02352220899772,183.81759554200107,183.8073219999933,,,,,,,,,,,,,,,,,,,,,,,,,,,,,,,,,,,183.8110143340018,183.81759554200107,183.81759554200107,184.35297595900192,g,1.0,0.5297712089959532,,,,,,sub-074,1,stroop_test,,
,,,,9.0,9.0,0.0,,,,,,,,,,,,,blau,blue,b,1.0,b,1.0,0.3702334999979939,,,,,,,,,,0.0,9.0,9.0,5.0,184.36449274999904,,,,,,,,,,,,,,,,,184.35399404200143,184.70143283400105,185.49713204200089,185.48516674998973,,,,,,,,,,,,,,,,,,,,,,,,,,,,,,,,,,,185.49021016700132,185.49713204200089,185.49713204200089,185.86996549999455,b,1.0,0.3702334999979939,,,,,,sub-074,1,stroop_test,,
,,,,10.0,10.0,0.0,,,,,,,,,,,,,blau,red,r,0.0,r,1.0,0.753415875005885,,,,,,,,,,0.0,10.0,10.0,4.0,185.88159937498855,,,,,,,,,,,,,,,,,185.8710199999914,187.0680909169896,187.8589036249905,187.85158791700087,,,,,,,,,,,,,,,,,,,,,,,,,,,,,,,,,,,187.8523267089913,187.8589036249905,187.8589036249905,188.61949574999744,r,1.0,0.753415875005885,,,,,,sub-074,1,stroop_test,,
,,,,11.0,11.0,0.0,,,,,,,,,,,,,blau,blue,b,1.0,b,1.0,0.7915212920051999,,,,,,,,,,0.0,11.0,11.0,6.0,188.6305588339892,,,,,,,,,,,,,,,,,188.62013275000209,188.7180682499893,189.50977858398983,189.5018477919948,,,,,,,,,,,,,,,,,,,,,,,,,,,,,,,,,,,189.50284954199745,189.50977858398983,189.50977858398983,190.3040428340028,b,1.0,0.7915212920051999,,,,,,sub-074,1,stroop_test,,
,,,,12.0,0.0,1.0,,,,,,,,,,,,,rot,red,r,1.0,r,1.0,0.6048737090022769,,,,,,,,,,1.0,0.0,12.0,1.0,190.30991562499548,,,,,,,,,,,,,,,,,190.30507912499888,190.40121158400143,191.197352749994,191.18514091699035,,,,,,,,,,,,,,,,,,,,,,,,,,,,,,,,,,,191.19002179199012,191.197352749994,191.197352749994,191.80845279200005,r,1.0,0.6048737090022769,,,,,,sub-074,1,stroop_test,,
,,,,13.0,1.0,1.0,,,,,,,,,,,,,gelb,blue,b,0.0,b,1.0,0.4258314579928992,,,,,,,,,,1.0,1.0,13.0,9.0,191.81973462499445,,,,,,,,,,,,,,,,,191.80895408400104,193.00755029199357,193.80338062500232,193.79147637500137,,,,,,,,,,,,,,,,,,,,,,,,,,,,,,,,,,,193.7956178339955,193.80338062500232,193.80338062500232,194.2367074999929,b,1.0,0.4258314579928992,,,,,,sub-074,1,stroop_test,,
,,,,14.0,2.0,1.0,,,,,,,,,,,,,blau,red,r,0.0,r,1.0,0.5022997500054771,,,,,,,,,,1.0,2.0,14.0,4.0,194.2488854999974,,,,,,,,,,,,,,,,,194.23794133399497,194.33404854199037,195.13179775000023,195.1185271669965,,,,,,,,,,,,,,,,,,,,,,,,,,,,,,,,,,,195.1248564999987,195.13179775000023,195.13179775000023,195.63653820900072,r,1.0,0.5022997500054771,,,,,,sub-074,1,stroop_test,,
,,,,15.0,3.0,1.0,,,,,,,,,,,,,blau,blue,b,1.0,b,1.0,0.4332045829942217,,,,,,,,,,1.0,3.0,15.0,5.0,195.64810662499804,,,,,,,,,,,,,,,,,195.63753779199035,196.8344651249936,197.6269007919909,197.61863862499013,,,,,,,,,,,,,,,,,,,,,,,,,,,,,,,,,,,197.61962970899185,197.6269007919909,197.6269007919909,198.06940512500296,b,1.0,0.4332045829942217,,,,,,sub-074,1,stroop_test,,
,,,,16.0,4.0,1.0,,,,,,,,,,,,,gelb,yellow,g,1.0,g,1.0,0.6506959580001421,,,,,,,,,,1.0,4.0,16.0,10.0,198.08002374999344,,,,,,,,,,,,,,,,,198.0699233339983,198.4180851669953,199.21349662500143,199.20179658399135,,,,,,,,,,,,,,,,,,,,,,,,,,,,,,,,,,,199.20670270899427,199.21349662500143,199.21349662500143,199.86970674998884,g,1.0,0.6506959580001421,,,,,,sub-074,1,stroop_test,,
,,,,17.0,5.0,1.0,,,,,,,,,,,,,rot,yellow,g,0.0,r,0.0,0.558649124999647,,,,,,,,,,1.0,5.0,17.0,3.0,199.8813019590016,,,,,,,,,,,,,,,,,199.87071262499376,201.06800624998868,201.86422579200007,201.8518466669921,,,,,,,,,,,,,,,,,,,,,,,,,,,,,,,,,,,201.8571225420019,201.86422579200007,201.86422579200007,202.42550608399324,r,0.0,0.558649124999647,,,,,,sub-074,1,stroop_test,,
,,,,18.0,6.0,1.0,,,,,,,,,,,,,rot,red,r,1.0,r,1.0,0.7762406669935444,,,,,,,,,,1.0,6.0,18.0,0.0,202.43701712499023,,,,,,,,,,,,,,,,,202.42600808398856,203.62411783399875,204.41665487499267,204.4072404999897,,,,,,,,,,,,,,,,,,,,,,,,,,,,,,,,,,,204.4079781249893,204.41665487499267,204.41665487499267,205.20346624999365,r,1.0,0.7762406669935444,,,,,,sub-074,1,stroop_test,,
,,,,19.0,7.0,1.0,,,,,,,,,,,,,gelb,red,r,0.0,r,1.0,1.0268553749920102,,,,,,,,,,1.0,7.0,19.0,8.0,205.21480466698995,,,,,,,,,,,,,,,,,205.20453908399213,206.00127866699768,206.7970268749923,206.785280666998,,,,,,,,,,,,,,,,,,,,,,,,,,,,,,,,,,,206.789870624998,206.7970268749923,206.7970268749923,207.8359124169947,r,1.0,1.0268553749920102,,,,,,sub-074,1,stroop_test,,
,,,,20.0,8.0,1.0,,,,,,,,,,,,,rot,blue,b,0.0,b,1.0,0.5190331670019077,,,,,,,,,,1.0,8.0,20.0,2.0,207.84712729199964,,,,,,,,,,,,,,,,,207.83657654200212,208.18450737500095,208.9808421249909,208.9684394999931,,,,,,,,,,,,,,,,,,,,,,,,,,,,,,,,,,,208.9736286249972,208.9808421249909,208.9808421249909,209.50324449999607,b,1.0,0.5190331670019077,,,,,,sub-074,1,stroop_test,,
,,,,21.0,9.0,1.0,,,,,,,,,,,,,blau,blue,b,1.0,b,1.0,0.5284164159966167,,,,,,,,,,1.0,9.0,21.0,6.0,209.5146379169892,,,,,,,,,,,,,,,,,209.50401737500212,209.60040408399072,210.39736770899617,210.38524499999767,,,,,,,,,,,,,,,,,,,,,,,,,,,,,,,,,,,210.39048341699527,210.39736770899617,210.39736770899617,210.93611937499367,b,1.0,0.5284164159966167,,,,,,sub-074,1,stroop_test,,
,,,,22.0,10.0,1.0,,,,,,,,,,,,,gelb,yellow,g,1.0,g,1.0,0.5318505000032019,,,,,,,,,,1.0,10.0,22.0,11.0,210.94713062499068,,,,,,,,,,,,,,,,,210.936661499989,211.28471049999644,212.0819545839913,212.06847937499697,,,,,,,,,,,,,,,,,,,,,,,,,,,,,,,,,,,212.07495845899396,212.0819545839913,212.0819545839913,212.61930791698975,g,1.0,0.5318505000032019,,,,,,sub-074,1,stroop_test,,
,,,,23.0,11.0,1.0,,,,,,,,,,,,,blau,yellow,g,0.0,g,1.0,0.4646312080003554,,,,,,,,,,1.0,11.0,23.0,7.0,212.6307077090023,,,,,,,,,,,,,,,,,212.61999158399703,212.71814937499585,213.5141662919923,213.50185970899477,,,,,,,,,,,,,,,,,,,,,,,,,,,,,,,,,,,213.50727904199448,213.5141662919923,213.5141662919923,213.98665224999425,g,1.0,0.4646312080003554,,,,,,sub-074,1,stroop_test,,
,,,,24.0,0.0,2.0,,,,,,,,,,,,,rot,red,r,1.0,g,0.0,0.5800356249965262,,,,,,,,,,2.0,0.0,24.0,0.0,213.9979426669888,,,,,,,,,,,,,,,,,213.98734249999688,214.08478395899877,214.88067541699277,214.86847512499665,,,,,,,,,,,,,,,,,,,,,,,,,,,,,,,,,,,214.87378199999512,214.88067541699277,214.88067541699277,215.4693608749949,g,0.0,0.5800356249965262,,,,,,sub-074,1,stroop_test,,
,,,,25.0,1.0,2.0,,,,,,,,,,,,,blau,red,r,0.0,r,1.0,0.6805369999929098,,,,,,,,,,2.0,1.0,25.0,4.0,215.4800317089976,,,,,,,,,,,,,,,,,215.46986733400263,216.66800141699787,217.4641038339905,217.4519042920001,,,,,,,,,,,,,,,,,,,,,,,,,,,,,,,,,,,217.4573136669933,217.4641038339905,217.4641038339905,218.15278129199575,r,1.0,0.6805369999929098,,,,,,sub-074,1,stroop_test,,
,,,,26.0,2.0,2.0,,,,,,,,,,,,,rot,yellow,g,0.0,g,1.0,0.6549244589987211,,,,,,,,,,2.0,2.0,26.0,3.0,218.16376254199716,,,,,,,,,,,,,,,,,218.15347287499756,218.95136616699165,219.74761387499169,219.7352216250001,,,,,,,,,,,,,,,,,,,,,,,,,,,,,,,,,,,219.74049804199603,219.74761387499169,219.74761387499169,220.408698291998,g,1.0,0.6549244589987211,,,,,,sub-074,1,stroop_test,,
,,,,27.0,3.0,2.0,,,,,,,,,,,,,rot,red,r,1.0,r,1.0,0.5577831660048105,,,,,,,,,,2.0,3.0,27.0,1.0,220.41992437498996,,,,,,,,,,,,,,,,,220.40919979198952,220.50761424998927,221.2997152089956,221.29120887500176,,,,,,,,,,,,,,,,,,,,,,,,,,,,,,,,,,,221.29198279199773,221.2997152089956,221.2997152089956,221.86950570899356,r,1.0,0.5577831660048105,,,,,,sub-074,1,stroop_test,,
,,,,28.0,4.0,2.0,,,,,,,,,,,,,gelb,yellow,g,1.0,g,1.0,0.4718375420052325,,,,,,,,,,2.0,4.0,28.0,10.0,221.88040845899377,,,,,,,,,,,,,,,,,221.87020449999545,223.06807383400155,223.86369179199392,223.85190716700163,,,,,,,,,,,,,,,,,,,,,,,,,,,,,,,,,,,223.8569328339945,223.86369179199392,223.86369179199392,224.34016100000008,g,1.0,0.4718375420052325,,,,,,sub-074,1,stroop_test,,
,,,,29.0,5.0,2.0,,,,,,,,,,,,,rot,blue,b,0.0,b,1.0,0.5213388749980368,,,,,,,,,,2.0,5.0,29.0,2.0,224.35060370899737,,,,,,,,,,,,,,,,,224.34066120898933,224.684606291994,225.48002604200155,225.46811862499453,,,,,,,,,,,,,,,,,,,,,,,,,,,,,,,,,,,225.47304941699255,225.48002604200155,225.48002604200155,226.0084913749888,b,1.0,0.5213388749980368,,,,,,sub-074,1,stroop_test,,
,,,,30.0,6.0,2.0,,,,,,,,,,,,,blau,blue,b,1.0,b,1.0,0.5395049170037964,,,,,,,,,,2.0,6.0,30.0,6.0,226.0345011250029,,,,,,,,,,,,,,,,,226.00903683400247,226.35743608399932,227.1529449590016,227.1410773339885,,,,,,,,,,,,,,,,,,,,,,,,,,,,,,,,,,,227.14540241699436,227.1529449590016,227.1529449590016,227.70360699998852,b,1.0,0.5395049170037964,,,,,,sub-074,1,stroop_test,,
,,,,31.0,7.0,2.0,,,,,,,,,,,,,gelb,red,r,0.0,r,1.0,0.5731460829993011,,,,,,,,,,2.0,7.0,31.0,8.0,227.7152744589985,,,,,,,,,,,,,,,,,227.70465262499056,227.80118708399823,228.5972619169916,228.58511049998924,,,,,,,,,,,,,,,,,,,,,,,,,,,,,,,,,,,228.5904191669979,228.5972619169916,228.5972619169916,229.1742540839914,r,1.0,0.5731460829993011,,,,,,sub-074,1,stroop_test,,
,,,,32.0,8.0,2.0,,,,,,,,,,,,,gelb,blue,b,0.0,r,0.0,0.5634807909955271,,,,,,,,,,2.0,8.0,32.0,9.0,229.18646562499637,,,,,,,,,,,,,,,,,229.1748741249903,229.2682353749988,230.0599331669946,230.0519157499948,,,,,,,,,,,,,,,,,,,,,,,,,,,,,,,,,,,230.05290100000275,230.0599331669946,230.0599331669946,230.63670104199264,r,0.0,0.5634807909955271,,,,,,sub-074,1,stroop_test,,
,,,,33.0,9.0,2.0,,,,,,,,,,,,,blau,blue,b,1.0,b,1.0,0.8987091669987421,,,,,,,,,,2.0,9.0,33.0,5.0,230.6479527499905,,,,,,,,,,,,,,,,,230.6375205840013,231.4348048749962,232.23064875000276,232.2184334170015,,,,,,,,,,,,,,,,,,,,,,,,,,,,,,,,,,,232.22374395899533,232.23064875000276,232.23064875000276,233.1365806669928,b,1.0,0.8987091669987421,,,,,,sub-074,1,stroop_test,,
,,,,34.0,10.0,2.0,,,,,,,,,,,,,gelb,yellow,g,1.0,g,1.0,0.4725291670038132,,,,,,,,,,2.0,10.0,34.0,11.0,233.14767012499212,,,,,,,,,,,,,,,,,233.1372637500026,233.93473158399863,234.73082779199467,234.7185765839968,,,,,,,,,,,,,,,,,,,,,,,,,,,,,,,,,,,234.72403974999904,234.73082779199467,234.73082779199467,235.20830395899247,g,1.0,0.4725291670038132,,,,,,sub-074,1,stroop_test,,
,,,,35.0,11.0,2.0,,,,,,,,,,,,,blau,yellow,g,0.0,g,1.0,0.4334433750045718,,,,,,,,,,2.0,11.0,35.0,7.0,235.21970629200223,,,,,,,,,,,,,,,,,235.20880995898915,235.3105502089893,236.11382037500152,236.1018877089955,,,,,,,,,,,,,,,,,,,,,,,,,,,,,,,,,,,236.10706366699011,236.11382037500152,236.11382037500152,236.55315016699024,g,1.0,0.4334433750045718,,,,,,sub-074,1,stroop_test,,
,,,,36.0,0.0,3.0,,,,,,,,,,,,,rot,red,r,1.0,r,1.0,0.4689604579907609,,,,,,,,,,3.0,0.0,36.0,0.0,236.56440887499772,,,,,,,,,,,,,,,,,236.5541437919892,237.351289083992,238.1472995840013,238.13518466700043,,,,,,,,,,,,,,,,,,,,,,,,,,,,,,,,,,,238.1399959999981,238.1472995840013,238.1472995840013,238.61951120899172,r,1.0,0.4689604579907609,,,,,,sub-074,1,stroop_test,,
,,,,37.0,1.0,3.0,,,,,,,,,,,,,blau,blue,b,1.0,b,1.0,0.5554324999975506,,,,,,,,,,3.0,1.0,37.0,5.0,238.6308562499908,,,,,,,,,,,,,,,,,238.6204773339996,238.9681997919979,239.7626969999983,239.75154516698967,,,,,,,,,,,,,,,,,,,,,,,,,,,,,,,,,,,239.75586654199287,239.7626969999983,239.7626969999983,240.31998158399077,b,1.0,0.5554324999975506,,,,,,sub-074,1,stroop_test,,
,,,,38.0,2.0,3.0,,,,,,,,,,,,,gelb,yellow,g,1.0,g,1.0,0.6007545000029495,,,,,,,,,,3.0,2.0,38.0,11.0,240.3254543749936,,,,,,,,,,,,,,,,,240.3206995419896,241.51819887499727,242.31547008399505,242.3018549999979,,,,,,,,,,,,,,,,,,,,,,,,,,,,,,,,,,,242.3085674999893,242.31547008399505,242.31547008399505,242.9196695839928,g,1.0,0.6007545000029495,,,,,,sub-074,1,stroop_test,,
,,,,39.0,3.0,3.0,,,,,,,,,,,,,rot,blue,b,0.0,b,1.0,1.223254625001573,,,,,,,,,,3.0,3.0,39.0,2.0,242.93117495899787,,,,,,,,,,,,,,,,,242.9206738339999,243.0177384169947,243.81387962499863,243.8019302499888,,,,,,,,,,,,,,,,,,,,,,,,,,,,,,,,,,,243.8068805419898,243.81387962499863,243.81387962499863,245.0408256249939,b,1.0,1.223254625001573,,,,,,sub-074,1,stroop_test,,
,,,,40.0,4.0,3.0,,,,,,,,,,,,,rot,yellow,g,0.0,g,1.0,0.6311397910030792,,,,,,,,,,3.0,4.0,40.0,3.0,245.06784629198955,,,,,,,,,,,,,,,,,245.04136120899057,245.39082333398983,246.1839972089947,246.17435316699263,,,,,,,,,,,,,,,,,,,,,,,,,,,,,,,,,,,246.17496066699096,246.1839972089947,246.1839972089947,246.81939920899455,g,1.0,0.6311397910030792,,,,,,sub-074,1,stroop_test,,
,,,,41.0,5.0,3.0,,,,,,,,,,,,,blau,red,r,0.0,r,1.0,0.306279666008777,,,,,,,,,,3.0,5.0,41.0,4.0,246.83036549999088,,,,,,,,,,,,,,,,,246.82008074999607,248.01812766699004,248.8128216249897,248.80163624999116,,,,,,,,,,,,,,,,,,,,,,,,,,,,,,,,,,,248.8058988749981,248.8128216249897,248.8128216249897,249.1250932089897,r,1.0,0.306279666008777,,,,,,sub-074,1,stroop_test,,
,,,,42.0,6.0,3.0,,,,,,,,,,,,,gelb,red,r,0.0,r,1.0,0.932194499997422,,,,,,,,,,3.0,6.0,42.0,8.0,249.13648795899644,,,,,,,,,,,,,,,,,249.1255934999936,250.3235852499929,251.1198103339993,251.1076815839915,,,,,,,,,,,,,,,,,,,,,,,,,,,,,,,,,,,251.1120421669912,251.1198103339993,251.1198103339993,252.05848604199127,r,1.0,0.932194499997422,,,,,,sub-074,1,stroop_test,,
,,,,43.0,7.0,3.0,,,,,,,,,,,,,gelb,yellow,g,1.0,b,0.0,0.905807666000328,,,,,,,,,,3.0,7.0,43.0,10.0,252.06983579199004,,,,,,,,,,,,,,,,,252.05897862499117,253.2576225840021,254.0510903749964,254.04097287499465,,,,,,,,,,,,,,,,,,,,,,,,,,,,,,,,,,,254.04156649998916,254.0510903749964,254.0510903749964,254.9586368750024,b,0.0,0.905807666000328,,,,,,sub-074,1,stroop_test,,
,,,,44.0,8.0,3.0,,,,,,,,,,,,,rot,red,r,1.0,r,1.0,0.5610478339949623,,,,,,,,,,3.0,8.0,44.0,1.0,254.96812974999196,,,,,,,,,,,,,,,,,254.95910520899636,255.05732770900067,255.86780266699495,255.8413437499985,,,,,,,,,,,,,,,,,,,,,,,,,,,,,,,,,,,255.84483883398931,255.86780266699495,255.86780266699495,256.4366949999967,r,1.0,0.5610478339949623,,,,,,sub-074,1,stroop_test,,
,,,,45.0,9.0,3.0,,,,,,,,,,,,,blau,yellow,g,0.0,g,1.0,0.4225325419974979,,,,,,,,,,3.0,9.0,45.0,7.0,256.4482032919914,,,,,,,,,,,,,,,,,256.43779870899743,257.63483262500085,258.4293381669995,258.4183574589988,,,,,,,,,,,,,,,,,,,,,,,,,,,,,,,,,,,258.42259524999827,258.4293381669995,258.4293381669995,258.85897845900035,g,1.0,0.4225325419974979,,,,,,sub-074,1,stroop_test,,
,,,,46.0,10.0,3.0,,,,,,,,,,,,,blau,blue,b,1.0,b,1.0,0.7705251250008587,,,,,,,,,,3.0,10.0,46.0,6.0,258.8699769169907,,,,,,,,,,,,,,,,,258.85947924999346,259.6572216249915,260.4512655419967,260.44075258399243,,,,,,,,,,,,,,,,,,,,,,,,,,,,,,,,,,,260.4413466249971,260.4512655419967,260.4512655419967,261.2254492499924,b,1.0,0.7705251250008587,,,,,,sub-074,1,stroop_test,,
,,,,47.0,11.0,3.0,,,,,,,,,,,,,gelb,blue,b,0.0,b,1.0,0.4234087079967139,,,,,,,,,,3.0,11.0,47.0,9.0,261.23652241699165,,,,,,,,,,,,,,,,,261.22594645900244,261.3242317499971,262.1342522920022,262.1185785419948,,,,,,,,,,,,,,,,,,,,,,,,,,,,,,,,,,,262.1275019589957,262.1342522920022,262.1342522920022,262.56930837499385,b,1.0,0.4234087079967139,,,,,,sub-074,1,stroop_test,,
,,,,48.0,0.0,4.0,,,,,,,,,,,,,rot,red,r,1.0,r,1.0,0.5197941250080476,,,,,,,,,,4.0,0.0,48.0,1.0,262.58009587498964,,,,,,,,,,,,,,,,,262.569821416997,263.76834495899675,264.56397024999023,264.5518895419955,,,,,,,,,,,,,,,,,,,,,,,,,,,,,,,,,,,264.556548291992,264.56397024999023,264.56397024999023,265.0867567499954,r,1.0,0.5197941250080476,,,,,,sub-074,1,stroop_test,,
,,,,49.0,1.0,4.0,,,,,,,,,,,,,gelb,yellow,g,1.0,g,1.0,0.6738610830070684,,,,,,,,,,4.0,1.0,49.0,11.0,265.0983063339954,,,,,,,,,,,,,,,,,265.0875043749984,265.8848820839921,266.67979604199354,266.66831066699524,,,,,,,,,,,,,,,,,,,,,,,,,,,,,,,,,,,266.6727460839902,266.67979604199354,266.67979604199354,267.35674212499,g,1.0,0.6738610830070684,,,,,,sub-074,1,stroop_test,,
,,,,50.0,2.0,4.0,,,,,,,,,,,,,blau,red,r,0.0,r,1.0,0.7417098750011064,,,,,,,,,,4.0,2.0,50.0,4.0,267.36758133399417,,,,,,,,,,,,,,,,,267.35719312498986,267.45609558399883,268.267993417001,268.2411292089964,,,,,,,,,,,,,,,,,,,,,,,,,,,,,,,,,,,268.2445966669912,268.267993417001,268.267993417001,269.020104833995,r,1.0,0.7417098750011064,,,,,,sub-074,1,stroop_test,,
,,,,51.0,3.0,4.0,,,,,,,,,,,,,gelb,red,r,0.0,r,1.0,0.6523247910081409,,,,,,,,,,4.0,3.0,51.0,8.0,269.03180829199846,,,,,,,,,,,,,,,,,269.02123462499003,270.2179654169886,271.0142871669959,271.0018882500008,,,,,,,,,,,,,,,,,,,,,,,,,,,,,,,,,,,271.0070764589909,271.0142871669959,271.0142871669959,271.6696131669887,r,1.0,0.6523247910081409,,,,,,sub-074,1,stroop_test,,
,,,,52.0,4.0,4.0,,,,,,,,,,,,,rot,red,r,1.0,r,1.0,0.4994619579956634,,,,,,,,,,4.0,4.0,52.0,0.0,271.68173491700145,,,,,,,,,,,,,,,,,271.67062454199186,272.86803916699137,273.664155874998,273.65182362499763,,,,,,,,,,,,,,,,,,,,,,,,,,,,,,,,,,,273.6569135000027,273.664155874998,273.664155874998,274.16993674999685,r,1.0,0.4994619579956634,,,,,,sub-074,1,stroop_test,,
,,,,53.0,5.0,4.0,,,,,,,,,,,,,blau,blue,b,1.0,b,1.0,0.712881583996932,,,,,,,,,,4.0,5.0,53.0,6.0,274.18182520900154,,,,,,,,,,,,,,,,,274.17101583399926,274.96814316698874,275.7636247920018,275.7518093339895,,,,,,,,,,,,,,,,,,,,,,,,,,,,,,,,,,,275.7564691669977,275.7636247920018,275.7636247920018,276.4866417089943,b,1.0,0.712881583996932,,,,,,sub-074,1,stroop_test,,
,,,,54.0,6.0,4.0,,,,,,,,,,,,,gelb,yellow,g,1.0,g,1.0,0.57197516701126,,,,,,,,,,4.0,6.0,54.0,10.0,276.4984149590018,,,,,,,,,,,,,,,,,276.48776324999926,276.83447400000296,277.63251762499567,277.61879004199,,,,,,,,,,,,,,,,,,,,,,,,,,,,,,,,,,,277.6254021670029,277.63251762499567,277.63251762499567,278.20885716700286,g,1.0,0.57197516701126,,,,,,sub-074,1,stroop_test,,
,,,,55.0,7.0,4.0,,,,,,,,,,,,,rot,yellow,g,0.0,g,1.0,0.3171343750000233,,,,,,,,,,4.0,7.0,55.0,3.0,278.2201648749906,,,,,,,,,,,,,,,,,278.2093512499996,279.40765979199205,280.2182754169917,280.1912222089886,,,,,,,,,,,,,,,,,,,,,,,,,,,,,,,,,,,280.1946902089985,280.2182754169917,280.2182754169917,280.54242820899526,g,1.0,0.3171343750000233,,,,,,sub-074,1,stroop_test,,
,,,,56.0,8.0,4.0,,,,,,,,,,,,,gelb,blue,b,0.0,r,0.0,0.5591679170029238,,,,,,,,,,4.0,8.0,56.0,9.0,280.5537507499976,,,,,,,,,,,,,,,,,280.54292133399576,280.64098654199915,281.4363329589978,281.4246630419948,,,,,,,,,,,,,,,,,,,,,,,,,,,,,,,,,,,281.42827845898864,281.4363329589978,281.4363329589978,282.0028255419893,r,0.0,0.5591679170029238,,,,,,sub-074,1,stroop_test,,
,,,,57.0,9.0,4.0,,,,,,,,,,,,,blau,blue,b,1.0,b,1.0,0.6657600829930743,,,,,,,,,,4.0,9.0,57.0,5.0,282.0143397089996,,,,,,,,,,,,,,,,,282.00351945900184,282.8012762500002,283.59765016699384,283.5854017919919,,,,,,,,,,,,,,,,,,,,,,,,,,,,,,,,,,,283.5903828750015,283.59765016699384,283.59765016699384,284.2694752499956,b,1.0,0.6657600829930743,,,,,,sub-074,1,stroop_test,,
,,,,58.0,10.0,4.0,,,,,,,,,,,,,blau,yellow,g,0.0,g,1.0,0.5405932499998016,,,,,,,,,,4.0,10.0,58.0,7.0,284.28075333399465,,,,,,,,,,,,,,,,,284.27014841699565,285.4680430000008,286.26071808399865,286.25204279199534,,,,,,,,,,,,,,,,,,,,,,,,,,,,,,,,,,,286.2530685840029,286.26071808399865,286.26071808399865,286.8083130419982,g,1.0,0.5405932499998016,,,,,,sub-074,1,stroop_test,,
,,,,59.0,11.0,4.0,,,,,,,,,,,,,rot,blue,b,0.0,b,1.0,0.5912817909993464,,,,,,,,,,4.0,11.0,59.0,2.0,286.8199528749974,,,,,,,,,,,,,,,,,286.8087930420006,287.1574562089954,287.96793195899227,287.9409633339965,,,,,,,,,,,,,,,,,,,,,,,,,,,,,,,,,,,287.94446600000083,287.96793195899227,287.96793195899227,288.56998595899495,b,1.0,0.5912817909993464,,,,,,sub-074,1,stroop_test,,
,,,,60.0,0.0,5.0,,,,,,,,,,,,,rot,yellow,g,0.0,g,1.0,0.6688585410011001,,,,,,,,,,5.0,0.0,60.0,3.0,288.5813284169999,,,,,,,,,,,,,,,,,288.570961541991,289.76820483399206,290.56038045899186,290.55194837499585,,,,,,,,,,,,,,,,,,,,,,,,,,,,,,,,,,,290.5529624589981,290.56038045899186,290.56038045899186,291.23695579200285,g,1.0,0.6688585410011001,,,,,,sub-074,1,stroop_test,,
,,,,61.0,1.0,5.0,,,,,,,,,,,,,gelb,yellow,g,1.0,g,1.0,0.7654678340040846,,,,,,,,,,5.0,1.0,61.0,11.0,291.2487936249963,,,,,,,,,,,,,,,,,291.23801979199925,291.33461704199726,292.13075087498873,292.11871887499,,,,,,,,,,,,,,,,,,,,,,,,,,,,,,,,,,,292.1238369999919,292.13075087498873,292.13075087498873,292.9030917499913,g,1.0,0.7654678340040846,,,,,,sub-074,1,stroop_test,,
,,,,62.0,2.0,5.0,,,,,,,,,,,,,gelb,blue,b,0.0,b,1.0,0.5356471659906674,,,,,,,,,,5.0,2.0,62.0,9.0,292.91443604198867,,,,,,,,,,,,,,,,,292.9037858749944,294.1014387089963,294.8923599169939,294.88505912499386,,,,,,,,,,,,,,,,,,,,,,,,,,,,,,,,,,,294.8857940839953,294.8923599169939,294.8923599169939,295.43611650000094,b,1.0,0.5356471659906674,,,,,,sub-074,1,stroop_test,,
,,,,63.0,3.0,5.0,,,,,,,,,,,,,gelb,red,r,0.0,r,1.0,0.5931549999950221,,,,,,,,,,5.0,3.0,63.0,8.0,295.4469010419998,,,,,,,,,,,,,,,,,295.43662829199457,296.2349181250029,297.0259505419963,297.01839562499663,,,,,,,,,,,,,,,,,,,,,,,,,,,,,,,,,,,297.0191446669924,297.0259505419963,297.0259505419963,297.62562945899845,r,1.0,0.5931549999950221,,,,,,sub-074,1,stroop_test,,
,,,,64.0,4.0,5.0,,,,,,,,,,,,,gelb,yellow,g,1.0,g,1.0,0.6668938749935478,,,,,,,,,,5.0,4.0,64.0,10.0,297.6367819589941,,,,,,,,,,,,,,,,,297.62613258400233,297.72393979199114,298.51716441698954,298.5076167919906,,,,,,,,,,,,,,,,,,,,,,,,,,,,,,,,,,,298.5082297499903,298.51716441698954,298.51716441698954,299.1868505839957,g,1.0,0.6668938749935478,,,,,,sub-074,1,stroop_test,,
,,,,65.0,5.0,5.0,,,,,,,,,,,,,blau,yellow,g,0.0,g,1.0,0.6099109170027077,,,,,,,,,,5.0,5.0,65.0,7.0,299.1980043749936,,,,,,,,,,,,,,,,,299.1876323339966,300.38486354199995,301.1820420000004,301.1685197499901,,,,,,,,,,,,,,,,,,,,,,,,,,,,,,,,,,,301.17514620898874,301.1820420000004,301.1820420000004,301.8034423339996,g,1.0,0.6099109170027077,,,,,,sub-074,1,stroop_test,,
,,,,66.0,6.0,5.0,,,,,,,,,,,,,blau,blue,b,1.0,b,1.0,0.7020845830120379,,,,,,,,,,5.0,6.0,66.0,5.0,301.8150879589957,,,,,,,,,,,,,,,,,301.8043933750014,302.6013669590029,303.3929167500028,303.3852064169914,,,,,,,,,,,,,,,,,,,,,,,,,,,,,,,,,,,303.38595499999064,303.3929167500028,303.3929167500028,304.1033461670013,b,1.0,0.7020845830120379,,,,,,sub-074,1,stroop_test,,
,,,,67.0,7.0,5.0,,,,,,,,,,,,,blau,blue,b,1.0,b,1.0,0.7686177919968031,,,,,,,,,,5.0,7.0,67.0,6.0,304.1147054999892,,,,,,,,,,,,,,,,,304.1043168749893,304.90147979199537,305.6933174169972,305.6852772499988,,,,,,,,,,,,,,,,,,,,,,,,,,,,,,,,,,,305.686282249997,305.6933174169972,305.6933174169972,306.4699594999984,b,1.0,0.7686177919968031,,,,,,sub-074,1,stroop_test,,
,,,,68.0,8.0,5.0,,,,,,,,,,,,,rot,blue,b,0.0,b,1.0,0.6110847499949159,,,,,,,,,,5.0,8.0,68.0,2.0,306.481555624996,,,,,,,,,,,,,,,,,306.4709867089987,306.56805145899125,307.36377033399185,307.3517753339984,,,,,,,,,,,,,,,,,,,,,,,,,,,,,,,,,,,307.3568355419993,307.36377033399185,307.36377033399185,307.9867644999904,b,1.0,0.6110847499949159,,,,,,sub-074,1,stroop_test,,
,,,,69.0,9.0,5.0,,,,,,,,,,,,,rot,red,r,1.0,r,1.0,0.5169967080000788,,,,,,,,,,5.0,9.0,69.0,0.0,307.9982154169993,,,,,,,,,,,,,,,,,307.9878663749987,308.08454625000013,308.87677991700184,308.8686303339928,,,,,,,,,,,,,,,,,,,,,,,,,,,,,,,,,,,308.86958445899654,308.87677991700184,308.87677991700184,309.4027158749959,r,1.0,0.5169967080000788,,,,,,sub-074,1,stroop_test,,
,,,,70.0,10.0,5.0,,,,,,,,,,,,,blau,red,r,0.0,r,1.0,0.3776582499995129,,,,,,,,,,5.0,10.0,70.0,4.0,309.4133200419892,,,,,,,,,,,,,,,,,309.4033897499903,309.7516120419896,310.5470683750027,310.53523816699453,,,,,,,,,,,,,,,,,,,,,,,,,,,,,,,,,,,310.5403572919895,310.5470683750027,310.5470683750027,310.9366221669916,r,1.0,0.3776582499995129,,,,,,sub-074,1,stroop_test,,
,,,,71.0,11.0,5.0,,,,,,,,,,,,,rot,red,r,1.0,r,1.0,0.3749237080046441,,,,,,,,,,5.0,11.0,71.0,1.0,310.9475394170004,,,,,,,,,,,,,,,,,310.93732129198906,312.1348318340024,312.9298230419954,312.918367374994,,,,,,,,,,,,,,,,,,,,,,,,,,,,,,,,,,,312.92284266700153,312.9298230419954,312.9298230419954,313.30809279199457,r,1.0,0.3749237080046441,,,,,,sub-074,1,stroop_test,,
,,,,72.0,0.0,6.0,,,,,,,,,,,,,rot,red,r,1.0,r,1.0,0.3294659160019364,,,,,,,,,,6.0,0.0,72.0,1.0,313.31966233399,,,,,,,,,,,,,,,,,313.308714874991,313.65752191698994,314.4513461250026,314.4407029169961,,,,,,,,,,,,,,,,,,,,,,,,,,,,,,,,,,,314.44128849999106,314.4513461250026,314.4513461250026,314.78663908399176,r,1.0,0.3294659160019364,,,,,,sub-074,1,stroop_test,,
,,,,73.0,1.0,6.0,,,,,,,,,,,,,blau,yellow,g,0.0,b,0.0,0.5134867909946479,,,,,,,,,,6.0,1.0,73.0,7.0,314.79844512499403,,,,,,,,,,,,,,,,,314.7876447919989,314.8848405000026,315.6802464999928,315.66847362500266,,,,,,,,,,,,,,,,,,,,,,,,,,,,,,,,,,,315.67350429199,315.6802464999928,315.6802464999928,316.20257424999727,b,0.0,0.5134867909946479,,,,,,sub-074,1,stroop_test,,
,,,,74.0,2.0,6.0,,,,,,,,,,,,,rot,blue,b,0.0,b,1.0,0.433907333004754,,,,,,,,,,6.0,2.0,74.0,2.0,316.2131739999895,,,,,,,,,,,,,,,,,316.20308529199974,317.40156645899697,318.1967838749988,318.1852233339887,,,,,,,,,,,,,,,,,,,,,,,,,,,,,,,,,,,318.18985124999017,318.1967838749988,318.1967838749988,318.6366034590028,b,1.0,0.433907333004754,,,,,,sub-074,1,stroop_test,,
,,,,75.0,3.0,6.0,,,,,,,,,,,,,gelb,red,r,0.0,r,1.0,0.6461882079893257,,,,,,,,,,6.0,3.0,75.0,8.0,318.6481979999953,,,,,,,,,,,,,,,,,318.63758479199896,319.8348350000015,320.6305094169948,320.61830866699165,,,,,,,,,,,,,,,,,,,,,,,,,,,,,,,,,,,320.62374116700084,320.6305094169948,320.6305094169948,321.28611095900123,r,1.0,0.6461882079893257,,,,,,sub-074,1,stroop_test,,
,,,,76.0,4.0,6.0,,,,,,,,,,,,,gelb,yellow,g,1.0,g,1.0,0.7479494589933893,,,,,,,,,,6.0,4.0,76.0,10.0,321.29679999999644,,,,,,,,,,,,,,,,,321.2866319169989,321.63475254199875,322.42659308399016,322.41866712499177,,,,,,,,,,,,,,,,,,,,,,,,,,,,,,,,,,,322.41970979199687,322.42659308399016,322.42659308399016,323.1868629590026,g,1.0,0.7479494589933893,,,,,,sub-074,1,stroop_test,,
,,,,77.0,5.0,6.0,,,,,,,,,,,,,blau,blue,b,1.0,b,1.0,0.5114267080061836,,,,,,,,,,6.0,5.0,77.0,5.0,323.1981353750016,,,,,,,,,,,,,,,,,323.1878802089923,324.3847399590013,325.18003437499283,325.16867370899126,,,,,,,,,,,,,,,,,,,,,,,,,,,,,,,,,,,325.1734014169924,325.18003437499283,325.18003437499283,325.7027343749942,b,1.0,0.5114267080061836,,,,,,sub-074,1,stroop_test,,
,,,,78.0,6.0,6.0,,,,,,,,,,,,,rot,yellow,g,0.0,g,1.0,0.5909389580046991,,,,,,,,,,6.0,6.0,78.0,3.0,325.71385191699665,,,,,,,,,,,,,,,,,325.7034247919946,326.5015287089918,327.2965274589951,327.2850352499954,,,,,,,,,,,,,,,,,,,,,,,,,,,,,,,,,,,327.28955545899225,327.2965274589951,327.2965274589951,327.8913806670025,g,1.0,0.5909389580046991,,,,,,sub-074,1,stroop_test,,
,,,,79.0,7.0,6.0,,,,,,,,,,,,,gelb,blue,b,0.0,b,1.0,0.7309137499978533,,,,,,,,,,6.0,7.0,79.0,9.0,327.9031536669936,,,,,,,,,,,,,,,,,327.8920251249947,329.09122516699426,329.88453879200097,329.874290791995,,,,,,,,,,,,,,,,,,,,,,,,,,,,,,,,,,,329.8778412919928,329.88453879200097,329.88453879200097,330.62010166699474,b,1.0,0.7309137499978533,,,,,,sub-074,1,stroop_test,,
,,,,80.0,8.0,6.0,,,,,,,,,,,,,gelb,yellow,g,1.0,g,1.0,0.6093893330107676,,,,,,,,,,6.0,8.0,80.0,11.0,330.6315657919913,,,,,,,,,,,,,,,,,330.6209525839949,330.7180250419915,331.50999933399726,331.50207462499384,,,,,,,,,,,,,,,,,,,,,,,,,,,,,,,,,,,331.50305254200066,331.50999933399726,331.50999933399726,332.1257864169893,g,1.0,0.6093893330107676,,,,,,sub-074,1,stroop_test,,
,,,,81.0,9.0,6.0,,,,,,,,,,,,,rot,red,r,1.0,r,1.0,0.6825410410092445,,,,,,,,,,6.0,9.0,81.0,0.0,332.1367346249899,,,,,,,,,,,,,,,,,332.1262718340004,332.4738573749928,333.2697463749937,333.2578765840008,,,,,,,,,,,,,,,,,,,,,,,,,,,,,,,,,,,333.2620837089926,333.2697463749937,333.2697463749937,333.9584731669893,r,1.0,0.6825410410092445,,,,,,sub-074,1,stroop_test,,
,,,,82.0,10.0,6.0,,,,,,,,,,,,,blau,blue,b,1.0,b,1.0,0.5491405420034425,,,,,,,,,,6.0,10.0,82.0,6.0,333.97001495899167,,,,,,,,,,,,,,,,,333.9589813749917,335.1566691670014,335.95115212499513,335.9409261249966,,,,,,,,,,,,,,,,,,,,,,,,,,,,,,,,,,,335.94446866698854,335.95115212499513,335.95115212499513,336.5034748749895,b,1.0,0.5491405420034425,,,,,,sub-074,1,stroop_test,,
,,,,83.0,11.0,6.0,,,,,,,,,,,,,blau,red,r,0.0,g,0.0,0.5450095419946592,,,,,,,,,,6.0,11.0,83.0,4.0,336.51501004199963,,,,,,,,,,,,,,,,,336.5044754589908,337.70157791698875,338.49314566700195,338.48526279198995,,,,,,,,,,,,,,,,,,,,,,,,,,,,,,,,,,,338.48623787499673,338.49314566700195,338.49314566700195,339.0416812920012,g,0.0,0.5450095419946592,,,,,,sub-074,1,stroop_test,,
,,,,84.0,0.0,7.0,,,,,,,,,,,,,gelb,red,r,0.0,g,0.0,0.4764596250024624,,,,,,,,,,7.0,0.0,84.0,8.0,339.0532654169947,,,,,,,,,,,,,,,,,339.0422997499991,340.2409904590022,341.0477411669999,341.035117374995,,,,,,,,,,,,,,,,,,,,,,,,,,,,,,,,,,,341.0410808750021,341.0477411669999,341.0477411669999,341.525529541992,g,0.0,0.4764596250024624,,,,,,sub-074,1,stroop_test,,
,,,,85.0,1.0,7.0,,,,,,,,,,,,,rot,red,r,1.0,g,0.0,0.6335950420034351,,,,,,,,,,7.0,1.0,85.0,1.0,341.5342699169996,,,,,,,,,,,,,,,,,341.52600491700287,341.6242302499886,342.4196222499886,342.40785679199325,,,,,,,,,,,,,,,,,,,,,,,,,,,,,,,,,,,342.41207820898853,342.4196222499886,342.4196222499886,343.0586541669909,g,0.0,0.6335950420034351,,,,,,sub-074,1,stroop_test,,
,,,,86.0,2.0,7.0,,,,,,,,,,,,,rot,yellow,g,0.0,g,1.0,0.9575469580013304,,,,,,,,,,7.0,2.0,86.0,3.0,343.0697227089986,,,,,,,,,,,,,,,,,343.0591537500004,343.1573509589944,343.95139012500294,343.9408641670016,,,,,,,,,,,,,,,,,,,,,,,,,,,,,,,,,,,343.9414680839982,343.95139012500294,343.95139012500294,344.9202203750028,g,1.0,0.9575469580013304,,,,,,sub-074,1,stroop_test,,
,,,,87.0,3.0,7.0,,,,,,,,,,,,,rot,red,r,1.0,r,1.0,0.6598227499925997,,,,,,,,,,7.0,3.0,87.0,0.0,344.9315616249951,,,,,,,,,,,,,,,,,344.9212253339938,345.71816925000167,346.510158124991,346.50204845899134,,,,,,,,,,,,,,,,,,,,,,,,,,,,,,,,,,,346.5030137499998,346.510158124991,346.510158124991,347.17534916699515,r,1.0,0.6598227499925997,,,,,,sub-074,1,stroop_test,,
,,,,88.0,4.0,7.0,,,,,,,,,,,,,blau,red,r,0.0,g,0.0,1.0373580839950591,,,,,,,,,,7.0,4.0,88.0,4.0,347.18633687499096,,,,,,,,,,,,,,,,,347.1758378749946,348.3743242920027,349.16760941699613,349.15758954199555,,,,,,,,,,,,,,,,,,,,,,,,,,,,,,,,,,,349.161164249992,349.16760941699613,349.16760941699613,350.2077212919976,g,0.0,1.0373580839950591,,,,,,sub-074,1,stroop_test,,
,,,,89.0,5.0,7.0,,,,,,,,,,,,,blau,blue,b,1.0,b,1.0,0.8654539580020355,,,,,,,,,,7.0,5.0,89.0,5.0,350.23474487499334,,,,,,,,,,,,,,,,,350.20869195899286,350.5559576669912,351.3515031669958,351.340973458995,,,,,,,,,,,,,,,,,,,,,,,,,,,,,,,,,,,351.34154808399035,351.3515031669958,351.3515031669958,352.21971358399605,b,1.0,0.8654539580020355,,,,,,sub-074,1,stroop_test,,
,,,,90.0,6.0,7.0,,,,,,,,,,,,,blau,yellow,g,0.0,g,1.0,0.7489371249976102,,,,,,,,,,7.0,6.0,90.0,7.0,352.23132770899974,,,,,,,,,,,,,,,,,352.2205998339923,352.3181471249991,353.1099527089973,353.10211433398945,,,,,,,,,,,,,,,,,,,,,,,,,,,,,,,,,,,353.10309791700274,353.1099527089973,353.1099527089973,353.87001666700235,g,1.0,0.7489371249976102,,,,,,sub-074,1,stroop_test,,
,,,,91.0,7.0,7.0,,,,,,,,,,,,,rot,blue,b,0.0,b,1.0,0.7012807079881895,,,,,,,,,,7.0,7.0,91.0,2.0,353.8811854590021,,,,,,,,,,,,,,,,,353.87072966698906,353.9682310419885,354.76359099999536,354.7515448339982,,,,,,,,,,,,,,,,,,,,,,,,,,,,,,,,,,,354.75665237499925,354.76359099999536,354.76359099999536,355.4699231669947,b,1.0,0.7012807079881895,,,,,,sub-074,1,stroop_test,,
,,,,92.0,8.0,7.0,,,,,,,,,,,,,gelb,blue,b,0.0,b,1.0,1.115111999999499,,,,,,,,,,7.0,8.0,92.0,9.0,355.48129124999105,,,,,,,,,,,,,,,,,355.4709137089958,356.6682305419963,357.4637603750016,357.45201741700293,,,,,,,,,,,,,,,,,,,,,,,,,,,,,,,,,,,357.45694599999115,357.4637603750016,357.4637603750016,358.5862835000007,b,1.0,1.115111999999499,,,,,,sub-074,1,stroop_test,,
,,,,93.0,9.0,7.0,,,,,,,,,,,,,gelb,yellow,g,1.0,g,1.0,0.5140464159921976,,,,,,,,,,7.0,9.0,93.0,11.0,358.5974479169963,,,,,,,,,,,,,,,,,358.587001833992,359.7849798339885,360.5767517499917,360.56861470900185,,,,,,,,,,,,,,,,,,,,,,,,,,,,,,,,,,,360.569640709,360.5767517499917,360.5767517499917,361.1029031249928,g,1.0,0.5140464159921976,,,,,,sub-074,1,stroop_test,,
,,,,94.0,10.0,7.0,,,,,,,,,,,,,blau,blue,b,1.0,b,1.0,0.4681852920039091,,,,,,,,,,7.0,10.0,94.0,6.0,361.1139342499955,,,,,,,,,,,,,,,,,361.1035664169904,361.4513562919892,362.2465504169959,362.2352045839944,,,,,,,,,,,,,,,,,,,,,,,,,,,,,,,,,,,362.2395172499964,362.2465504169959,362.2465504169959,362.7201573339989,b,1.0,0.4681852920039091,,,,,,sub-074,1,stroop_test,,
,,,,95.0,11.0,7.0,,,,,,,,,,,,,gelb,yellow,g,1.0,g,1.0,0.3278184999944642,,,,,,,,,,7.0,11.0,95.0,10.0,362.7315308749967,,,,,,,,,,,,,,,,,362.7211210419919,362.81838012499793,363.6148655839934,363.60198383399984,,,,,,,,,,,,,,,,,,,,,,,,,,,,,,,,,,,363.6080473339971,363.6148655839934,363.6148655839934,363.9510982919892,g,1.0,0.3278184999944642,,,,,,sub-074,1,stroop_test,,
,,,,96.0,0.0,8.0,,,,,,,,,,,,,rot,yellow,g,0.0,g,1.0,0.577419249995728,,,,,,,,,,8.0,0.0,96.0,3.0,363.9574142089986,,,,,,,,,,,,,,,,,363.9515319999919,364.3001214999968,365.0911912919983,365.08373220899375,,,,,,,,,,,,,,,,,,,,,,,,,,,,,,,,,,,365.0863806249981,365.0911912919983,365.0911912919983,365.67198879198986,g,1.0,0.577419249995728,,,,,,sub-074,1,stroop_test,,
,,,,97.0,1.0,8.0,,,,,,,,,,,,,gelb,yellow,g,1.0,g,1.0,0.5442721250001341,,,,,,,,,,8.0,1.0,97.0,11.0,365.68398324999725,,,,,,,,,,,,,,,,,365.6723682500015,365.7670406249963,366.5653843339969,366.5523477919924,,,,,,,,,,,,,,,,,,,,,,,,,,,,,,,,,,,366.5580584589916,366.5653843339969,366.5653843339969,367.1181442090019,g,1.0,0.5442721250001341,,,,,,sub-074,1,stroop_test,,
,,,,98.0,2.0,8.0,,,,,,,,,,,,,rot,red,r,1.0,r,1.0,0.567382291003014,,,,,,,,,,8.0,2.0,98.0,1.0,367.12519958399935,,,,,,,,,,,,,,,,,367.1186040419998,367.4565734999924,368.25917341699824,368.25047795899445,,,,,,,,,,,,,,,,,,,,,,,,,,,,,,,,,,,368.25365337499534,368.25917341699824,368.25917341699824,368.83651312500297,r,1.0,0.567382291003014,,,,,,sub-074,1,stroop_test,,
,,,,99.0,3.0,8.0,,,,,,,,,,,,,blau,yellow,g,0.0,b,0.0,0.5670903749996796,,,,,,,,,,8.0,3.0,99.0,7.0,368.84889774999465,,,,,,,,,,,,,,,,,368.83716929199,370.0342738749896,370.82832212500216,370.81758066698967,,,,,,,,,,,,,,,,,,,,,,,,,,,,,,,,,,,370.82282449999184,370.82832212500216,370.82832212500216,371.402932166995,b,0.0,0.5670903749996796,,,,,,sub-074,1,stroop_test,,
,,,,100.0,4.0,8.0,,,,,,,,,,,,,gelb,blue,b,0.0,b,1.0,0.5340358749963343,,,,,,,,,,8.0,4.0,100.0,9.0,371.4105927920027,,,,,,,,,,,,,,,,,371.4035543749924,372.6009767919895,373.39131408400135,373.38391091699305,,,,,,,,,,,,,,,,,,,,,,,,,,,,,,,,,,,373.3865234999976,373.39131408400135,373.39131408400135,373.9346007089917,b,1.0,0.5340358749963343,,,,,,sub-074,1,stroop_test,,
,,,,101.0,5.0,8.0,,,,,,,,,,,,,blau,blue,b,1.0,b,1.0,0.3998341249971417,,,,,,,,,,8.0,5.0,101.0,6.0,373.9408822499972,,,,,,,,,,,,,,,,,373.934981917002,374.733413458991,375.5245554589928,375.5172657499934,,,,,,,,,,,,,,,,,,,,,,,,,,,,,,,,,,,375.5198388749996,375.5245554589928,375.5245554589928,375.93466170899046,b,1.0,0.3998341249971417,,,,,,sub-074,1,stroop_test,,
,,,,102.0,6.0,8.0,,,,,,,,,,,,,blau,blue,b,1.0,b,1.0,0.393688457988901,,,,,,,,,,8.0,6.0,102.0,5.0,375.94100508399424,,,,,,,,,,,,,,,,,375.9350655839953,377.1336256249924,377.9235709170025,377.9176985419908,,,,,,,,,,,,,,,,,,,,,,,,,,,,,,,,,,,377.9185287919972,377.9235709170025,377.9235709170025,378.3226334999927,b,1.0,0.393688457988901,,,,,,sub-074,1,stroop_test,,
,,,,103.0,7.0,8.0,,,,,,,,,,,,,blau,red,r,0.0,g,0.0,0.644463792006718,,,,,,,,,,8.0,7.0,103.0,4.0,378.3336504170002,,,,,,,,,,,,,,,,,378.32301829199423,379.12169524999626,379.9168854589952,379.9084318340029,,,,,,,,,,,,,,,,,,,,,,,,,,,,,,,,,,,379.9090093749983,379.9168854589952,379.9168854589952,380.5698357919901,g,0.0,0.644463792006718,,,,,,sub-074,1,stroop_test,,
,,,,104.0,8.0,8.0,,,,,,,,,,,,,rot,red,r,1.0,r,1.0,0.6418613329879008,,,,,,,,,,8.0,8.0,104.0,0.0,380.5805683340004,,,,,,,,,,,,,,,,,380.57042362500215,381.7669291670027,382.5612980839942,382.5514834999922,,,,,,,,,,,,,,,,,,,,,,,,,,,,,,,,,,,382.5560821669933,382.5612980839942,382.5612980839942,383.2065504170023,r,1.0,0.6418613329879008,,,,,,sub-074,1,stroop_test,,
,,,,105.0,9.0,8.0,,,,,,,,,,,,,rot,blue,b,0.0,b,1.0,1.5207442920072936,,,,,,,,,,8.0,9.0,105.0,2.0,383.21698599999945,,,,,,,,,,,,,,,,,383.207068083997,384.005502999993,384.8003399169975,384.78958574999706,,,,,,,,,,,,,,,,,,,,,,,,,,,,,,,,,,,384.7906272499968,384.8003399169975,384.8003399169975,386.3244454999949,b,1.0,1.5207442920072936,,,,,,sub-074,1,stroop_test,,
,,,,106.0,10.0,8.0,,,,,,,,,,,,,gelb,yellow,g,1.0,g,1.0,0.9909537910134532,,,,,,,,,,8.0,10.0,106.0,10.0,386.3344249590009,,,,,,,,,,,,,,,,,386.32540449999215,386.6725187499978,387.4671067500021,387.4561311669968,,,,,,,,,,,,,,,,,,,,,,,,,,,,,,,,,,,387.4596414169937,387.4671067500021,387.4671067500021,388.4699020839908,g,1.0,0.9909537910134532,,,,,,sub-074,1,stroop_test,,
,,,,107.0,11.0,8.0,,,,,,,,,,,,,gelb,red,r,0.0,r,1.0,0.7899970419966849,,,,,,,,,,8.0,11.0,107.0,8.0,388.4779143339984,,,,,,,,,,,,,,,,,388.47082437499193,388.8168938750023,389.6060135839944,389.6007157089916,,,,,,,,,,,,,,,,,,,,,,,,,,,,,,,,,,,389.6013133749948,389.6060135839944,389.6060135839944,390.4019157089933,r,1.0,0.7899970419966849,,,,,,sub-074,1,stroop_test,,
,,,,108.0,0.0,9.0,,,,,,,,,,,,,blau,yellow,g,0.0,g,1.0,2.5232768340065377,,,,,,,,,,9.0,0.0,108.0,7.0,390.40868720899743,,,,,,,,,,,,,,,,,390.4023196670023,390.5004609169992,391.29172737499175,391.2840540420002,,,,,,,,,,,,,,,,,,,,,,,,,,,,,,,,,,,391.28680791700026,391.29172737499175,391.29172737499175,393.8186055839906,g,1.0,2.5232768340065377,,,,,,sub-074,1,stroop_test,,
,,,,109.0,1.0,9.0,,,,,,,,,,,,,gelb,blue,b,0.0,b,1.0,0.5737524580035824,,,,,,,,,,9.0,1.0,109.0,9.0,393.8251277919917,,,,,,,,,,,,,,,,,393.8190278339898,394.1674397500028,394.9582802499936,394.9506738749915,,,,,,,,,,,,,,,,,,,,,,,,,,,,,,,,,,,394.95338391698897,394.9582802499936,394.9582802499936,395.5360217499983,b,1.0,0.5737524580035824,,,,,,sub-074,1,stroop_test,,
,,,,110.0,2.0,9.0,,,,,,,,,,,,,rot,red,r,1.0,r,1.0,0.5061800830007996,,,,,,,,,,9.0,2.0,110.0,1.0,395.5439126669953,,,,,,,,,,,,,,,,,395.5366052919999,395.8837081669917,396.6768102919887,396.6672221670015,,,,,,,,,,,,,,,,,,,,,,,,,,,,,,,,,,,396.67155529199226,396.6768102919887,396.6768102919887,397.1849351249985,r,1.0,0.5061800830007996,,,,,,sub-074,1,stroop_test,,
,,,,111.0,3.0,9.0,,,,,,,,,,,,,gelb,red,r,0.0,r,1.0,0.9110866669943788,,,,,,,,,,9.0,3.0,111.0,8.0,397.19179570899,,,,,,,,,,,,,,,,,397.1854967089894,397.9836875839974,398.77680337498896,398.7675660419918,,,,,,,,,,,,,,,,,,,,,,,,,,,,,,,,,,,398.771313499994,398.77680337498896,398.77680337498896,399.6903940420016,r,1.0,0.9110866669943788,,,,,,sub-074,1,stroop_test,,
,,,,112.0,4.0,9.0,,,,,,,,,,,,,rot,red,r,1.0,r,1.0,0.823512999995728,,,,,,,,,,9.0,4.0,112.0,0.0,399.7003823749983,,,,,,,,,,,,,,,,,399.6908877090027,400.4893643749965,401.2834137089958,401.27274616700015,,,,,,,,,,,,,,,,,,,,,,,,,,,,,,,,,,,401.2767102919897,401.2834137089958,401.2834137089958,402.119543333989,r,1.0,0.823512999995728,,,,,,sub-074,1,stroop_test,,
,,,,113.0,5.0,9.0,,,,,,,,,,,,,blau,red,r,0.0,r,1.0,0.4980949580058222,,,,,,,,,,9.0,5.0,113.0,4.0,402.12748408399057,,,,,,,,,,,,,,,,,402.1203380840016,403.317001916992,404.1107314169931,404.1008681669919,,,,,,,,,,,,,,,,,,,,,,,,,,,,,,,,,,,404.1053950420028,404.1107314169931,404.1107314169931,404.6185968749924,r,1.0,0.4980949580058222,,,,,,sub-074,1,stroop_test,,
,,,,114.0,6.0,9.0,,,,,,,,,,,,,rot,blue,b,0.0,b,1.0,0.6120957079983782,,,,,,,,,,9.0,6.0,114.0,2.0,404.62747108399344,,,,,,,,,,,,,,,,,404.61929404200055,404.9670054169983,405.7596136249922,405.75050329200167,,,,,,,,,,,,,,,,,,,,,,,,,,,,,,,,,,,405.7543964590004,405.7596136249922,405.7596136249922,406.3730964169954,b,1.0,0.6120957079983782,,,,,,sub-074,1,stroop_test,,
,,,,115.0,7.0,9.0,,,,,,,,,,,,,gelb,yellow,g,1.0,g,1.0,1.0959126660018228,,,,,,,,,,9.0,7.0,115.0,10.0,406.38339691699366,,,,,,,,,,,,,,,,,406.3735649169976,407.5724825840007,408.366804749996,408.3554845839972,,,,,,,,,,,,,,,,,,,,,,,,,,,,,,,,,,,408.3590395840001,408.366804749996,408.366804749996,409.4699777089991,g,1.0,1.0959126660018228,,,,,,sub-074,1,stroop_test,,
,,,,116.0,8.0,9.0,,,,,,,,,,,,,blau,blue,b,1.0,b,1.0,0.6693894589989213,,,,,,,,,,9.0,8.0,116.0,6.0,409.4814911249996,,,,,,,,,,,,,,,,,409.47039620899886,409.5679427919968,410.3602369589935,410.3517297090002,,,,,,,,,,,,,,,,,,,,,,,,,,,,,,,,,,,410.3548928340024,410.3602369589935,410.3602369589935,411.034885999994,b,1.0,0.6693894589989213,,,,,,sub-074,1,stroop_test,,
,,,,117.0,9.0,9.0,,,,,,,,,,,,,blau,blue,b,1.0,b,1.0,0.3536651250033173,,,,,,,,,,9.0,9.0,117.0,5.0,411.04242729199177,,,,,,,,,,,,,,,,,411.03537812500144,411.3748236669926,412.1669066249888,412.1583830419986,,,,,,,,,,,,,,,,,,,,,,,,,,,,,,,,,,,412.15905366699735,412.1669066249888,412.1669066249888,412.524534583994,b,1.0,0.3536651250033173,,,,,,sub-074,1,stroop_test,,
,,,,118.0,10.0,9.0,,,,,,,,,,,,,gelb,yellow,g,1.0,g,1.0,0.5527782079880126,,,,,,,,,,9.0,10.0,118.0,11.0,412.5339915840013,,,,,,,,,,,,,,,,,412.524982834002,412.8718751249981,413.6668299169978,413.65541212499375,,,,,,,,,,,,,,,,,,,,,,,,,,,,,,,,,,,413.65935324999737,413.6668299169978,413.6668299169978,414.2261287500005,g,1.0,0.5527782079880126,,,,,,sub-074,1,stroop_test,,
,,,,119.0,11.0,9.0,,,,,,,,,,,,,rot,yellow,g,0.0,g,1.0,0.6285261250013718,,,,,,,,,,9.0,11.0,119.0,3.0,414.2392811250029,,,,,,,,,,,,,,,,,414.2269092919887,415.4243569169921,416.22599979199,416.2174734589935,,,,,,,,,,,,,,,,,,,,,,,,,,,,,,,,,,,416.2206413340027,416.22599979199,416.22599979199,416.8573326670012,g,1.0,0.6285261250013718,,,,,,sub-074,1,stroop_test,,
,,,,,,,,,,,,,,,,,,,,,,,,,,,,,,,,,,,,,,,,,,,,,,,,,,,,,,,,,,,,,,,,,,,,,,,,,,,,,,,,,,,,,,,,,,,,,,,,,,,,,,416.8577154999948,416.86780787499447,421.85589145899576,421.85159604199,sub-074,1,stroop_test,,
