direction,corrAns,thisN,thisTrialN,thisRepN,respDots.keys,respDots.corr,respDots.rt,respDots.duration,randomInstr,respRandomInstr.keys,respRandomInstr.rt,respRandomInstr.duration,practice_trials.thisRepN,practice_trials.thisTrialN,practice_trials.thisN,practice_trials.thisIndex,instr_trials.thisRepN,instr_trials.thisTrialN,instr_trials.thisN,instr_trials.thisIndex,test_trials.thisRepN,test_trials.thisTrialN,test_trials.thisN,test_trials.thisIndex,thisRow.t,notes,general_instruction.started,textGeneralInstr.started,respGeneralInstr.started,general_instruction.stopped,respGeneralInstr.keys,respGeneralInstr.rt,respGeneralInstr.duration,ITI.started,fixcross.started,fixcross.stopped,ITI.stopped,dots.started,backgroundDots.started,stimulusDots.started,respDots.started,stimulusDots.stopped,dots.stopped,practice_trials.respDots.keys,practice_trials.respDots.corr,practice_trials.respDots.rt,practice_trials.respDots.duration,feedback.started,textFeedback.started,feedback.stopped,textFeedback.stopped,info.started,textInfo.started,keyRespInfo.started,info.stopped,keyRespInfo.keys,keyRespInfo.rt,keyRespInfo.duration,test_instruction.started,textTestInstr.started,respTestInstr.started,test_instruction.stopped,respTestInstr.keys,respTestInstr.rt,respTestInstr.duration,random_instruction.started,textRandomInstr.started,respRandomInstr.started,random_instruction.stopped,instr_trials.respRandomInstr.keys,instr_trials.respRandomInstr.rt,instr_trials.respRandomInstr.duration,test_trials.respDots.keys,test_trials.respDots.corr,test_trials.respDots.rt,test_trials.respDots.duration,goodbye.started,textGoodbye.started,goodbye.stopped,participant,session,expName,frameRate,Unnamed: 87
,,,,,,,,,,,,,,,,,,,,,,,,,,,0.007434666971676,0.0187432499369606,0.0187432499369606,1.771308916970156,space,1.5835109580075368,,,,,,,,,,,,,,,,,,,,,,,,,,,,,,,,,,,,,,,,,,,,,,,,sub-112,1,random_dot,,
right,right,0.0,0.0,0.0,right,1.0,12.49882824998349,,,,,,0.0,0.0,0.0,1.0,,,,,,,,,1.8095482919598,,,,,,,,,1.7990625839447605,1.878510584007017,2.6795767499133945,2.663368749897927,2.663877874962054,2.6795767499133945,2.6795767499133945,2.6795767499133945,7.651599625009112,15.190994667005723,right,1.0,12.49882824998349,,15.20142620895058,15.265252958983185,15.696063874987884,,,,,,,,,,,,,,,,,,,,,,,,,,,,,,sub-112,1,random_dot,,
left,left,1.0,1.0,0.0,left,1.0,5.600539290928282,,,,,,0.0,1.0,1.0,0.0,,,,,,,,,15.702966791926883,,,,,,,,,15.697283749934286,16.485877083963715,17.28443904197775,17.278935124981217,17.279243499971926,17.28443904197775,17.28443904197775,17.28443904197775,22.2686424999265,22.90033687499817,left,1.0,5.600539290928282,,22.90095516690053,22.913625166984275,23.402776666916907,,,,,,,,,,,,,,,,,,,,,,,,,,,,,,sub-112,1,random_dot,,
right,right,2.0,0.0,1.0,right,1.0,4.130392124061473,,,,,,1.0,0.0,2.0,1.0,,,,,,,,,23.4124834589893,,,,,,,,,23.40338266699109,23.495994749944657,24.28818566689733,24.27932041697204,24.28003137500491,24.28818566689733,24.28818566689733,24.28818566689733,,28.42112683400046,right,1.0,4.130392124061473,,28.421414083917625,28.43151291692629,28.91955087496899,28.92889149999246,,,,,,,,,,,,,,,,,,,,,,,,,,,,,sub-112,1,random_dot,,
left,left,3.0,1.0,1.0,right,0.0,3.1551484159426764,,,,,,1.0,1.0,3.0,0.0,,,,,,,,,28.92889149999246,,,,,,,,,28.92010420898441,30.11919520900119,30.910761500010267,30.902069708914496,30.90276074991561,30.910761500010267,30.910761500010267,30.910761500010267,,34.070484083960764,right,0.0,3.1551484159426764,,34.07949304196518,34.085983124910854,34.56922049995046,34.579097541980445,,,,,,,,,,,,,,,,,,,,,,,,,,,,,sub-112,1,random_dot,,
right,right,4.0,0.0,2.0,left,0.0,2.045019207056612,,,,,,2.0,0.0,4.0,1.0,,,,,,,,,34.579097541980445,,,,,,,,,34.56974654190708,34.67547354195267,35.471342374919914,35.4625999169657,35.463254874921404,35.471342374919914,35.471342374919914,35.471342374919914,,37.520495250006206,left,0.0,2.045019207056612,,37.52073183399625,37.53117991692852,38.01944804191589,38.0290030419128,,,,,,,,,,,,,,,,,,,,,,,,,,,,,sub-112,1,random_dot,,
left,left,5.0,1.0,2.0,right,0.0,1.5585305410204455,,,,,,2.0,1.0,5.0,0.0,,,,,,,,,38.0290030419128,,,,,,,,,38.01984687498771,38.36932420893572,39.16182566690259,39.1531377088977,39.15376041689888,39.16182566690259,39.16182566690259,39.16182566690259,,40.72939554194454,right,0.0,1.5585305410204455,,40.7295644589467,40.738955041975714,41.22953383391723,41.24577874992974,,,,,,,,,,,,,,,,,,,,,,,,,,,,,sub-112,1,random_dot,,
right,right,6.0,0.0,3.0,left,0.0,8.170406499993987,,,,,,3.0,0.0,6.0,1.0,,,,,,,,,41.24577874992974,,,,,,,,,41.23021570895799,41.318455583998,42.12120666692499,42.1104947499698,42.11131587496493,42.12120666692499,42.12120666692499,42.12120666692499,47.09971424995456,50.299969666986726,left,0.0,8.170406499993987,,50.30044754198752,50.31206324999221,50.79593729192857,50.80219129193574,,,,,,,,,,,,,,,,,,,,,,,,,,,,,sub-112,1,random_dot,,
left,left,7.0,1.0,3.0,left,1.0,7.516396416001953,,,,,,3.0,1.0,7.0,0.0,,,,,,,,,50.80219129193574,,,,,,,,,50.79666870890651,51.598546499968506,52.39516091695987,52.38526762498077,52.386481791967526,52.39516091695987,52.39516091695987,52.39516091695987,57.37874549999833,59.92060183396097,left,1.0,7.516396416001953,,59.929833874921314,59.93904349999502,60.42884974996559,,,,,,,,,,,,,,,,,,,,,,,,,,,,,,sub-112,1,random_dot,,
left,left,8.0,0.0,4.0,right,0.0,3.9365082079311833,,,,,,4.0,0.0,8.0,0.0,,,,,,,,,60.43518829194363,,,,,,,,,60.42974920896813,61.21890441700816,62.02033137495164,62.01212016690988,62.01285883400124,62.02033137495164,62.02033137495164,62.02033137495164,,65.96399916696828,right,0.0,3.9365082079311833,,65.96959508396685,65.97820783394855,66.4613979998976,66.46663325000554,,,,,,,,,,,,,,,,,,,,,,,,,,,,,sub-112,1,random_dot,,
right,right,9.0,1.0,4.0,right,1.0,4.009050998953171,,,,,,4.0,1.0,9.0,1.0,,,,,,,,,66.46663325000554,,,,,,,,,66.46207420900464,67.26220424997155,68.05537516693585,68.04610729194246,68.04705874994397,68.05537516693585,68.05537516693585,68.05537516693585,,72.07137120899279,right,1.0,4.009050998953171,,72.0775474589318,72.0858182089869,72.57903233391698,,,,,,,,,,,,,,,,,,,,,,,,,,,,,,sub-112,1,random_dot,,
right,right,10.0,0.0,5.0,left,0.0,10.529834666056558,,,,,,5.0,0.0,10.0,1.0,,,,,,,,,72.58532470895443,,,,,,,,,72.57981745898724,72.66905395896174,73.46152799995616,73.45281637494918,73.45329820900224,73.46152799995616,73.46152799995616,73.46152799995616,78.44513370899949,84.00009291700553,left,0.0,10.529834666056558,,84.00919074995909,84.01734962500632,84.50140191696119,,,,,,,,,,,,,,,,,,,,,,,,,,,,,,sub-112,1,random_dot,,
left,left,11.0,1.0,5.0,left,1.0,4.1562864989973605,,,,,,5.0,1.0,11.0,0.0,,,,,,,,,84.51183316693641,,,,,,,,,84.50211041700095,85.69499504193664,86.48864258395042,86.4790793339489,86.48051179200411,86.48864258395042,86.48864258395042,86.48864258395042,,90.65623199997935,left,1.0,4.1562864989973605,,90.66155041696038,90.66725558391772,91.15178999991622,91.16168729192576,,,,,,,,,,,,,,,,,,,,,,,,,,,,,sub-112,1,random_dot,,
left,left,12.0,0.0,6.0,left,1.0,3.3261391239939258,,,,,,6.0,0.0,12.0,0.0,,,,,,,,,91.16168729192576,,,,,,,,,91.15242241695525,92.35029145900626,93.14703195891344,93.133570667007,93.13745866692624,93.14703195891344,93.14703195891344,93.14703195891344,,96.48945249989627,left,1.0,3.3261391239939258,,96.4896716249641,96.49699016695376,96.9854787089862,96.99518279195765,,,,,,,,,,,,,,,,,,,,,,,,,,,,,sub-112,1,random_dot,,
right,right,13.0,1.0,6.0,left,0.0,5.5408357080305,,,,,,6.0,1.0,13.0,1.0,,,,,,,,,96.99518279195765,,,,,,,,,96.98605179192964,97.78524479200132,98.57766587496737,98.56864966696594,98.56927066692153,98.57766587496737,98.57766587496737,98.57766587496737,103.56204454193356,104.12153708399272,left,0.0,5.5408357080305,,104.1298228339292,104.13856570899952,104.6286266669631,,,,,,,,,,,,,,,,,,,,,,,,,,,,,,sub-112,1,random_dot,,
left,left,14.0,0.0,7.0,right,0.0,2.9765794579871,,,,,,7.0,0.0,14.0,0.0,,,,,,,,,104.63575458398554,,,,,,,,,104.62965795898344,105.41814879199956,106.21118166693486,106.20218116696924,106.20278358389623,106.21118166693486,106.21118166693486,106.21118166693486,,109.19523854192812,right,0.0,2.9765794579871,,109.19529616693036,109.20034174993634,109.68533195892816,109.69477404200006,,,,,,,,,,,,,,,,,,,,,,,,,,,,,sub-112,1,random_dot,,
right,right,15.0,1.0,7.0,left,0.0,2.5365307080792263,,,,,,7.0,1.0,15.0,1.0,,,,,,,,,109.69477404200006,,,,,,,,,109.68573279189876,110.8849685419118,111.67732841696125,111.66869662492536,111.66919824993238,111.67732841696125,111.67732841696125,111.67732841696125,,114.23955883400048,left,0.0,2.5365307080792263,,114.2406561669195,114.2510696669342,114.7348746249918,114.74487566691823,,,,,,,,,,,,,,,,,,,,,,,,,,,,,sub-112,1,random_dot,,
right,right,16.0,0.0,8.0,right,1.0,2.942875707987696,,,,,,8.0,0.0,16.0,1.0,,,,,,,,,114.74487566691823,,,,,,,,,114.73548145894893,115.53570595895872,116.32783120893872,116.31840187497436,116.31913112499753,116.32783120893872,116.32783120893872,116.32783120893872,,119.28567745897452,right,1.0,2.942875707987696,,119.28925074997824,119.29577812494244,119.7786446249811,119.78464483399875,,,,,,,,,,,,,,,,,,,,,,,,,,,,,sub-112,1,random_dot,,
left,left,17.0,1.0,8.0,right,0.0,1.66167174896691,,,,,,8.0,1.0,17.0,0.0,,,,,,,,,119.78464483399875,,,,,,,,,119.77925245894583,119.88494204194284,120.68662466690876,120.67844845890068,120.67906754196156,120.68662466690876,120.68662466690876,120.68662466690876,,122.35313612490428,right,0.0,1.66167174896691,,122.35750904190354,122.36564466694836,122.85179470898584,122.8615050839726,,,,,,,,,,,,,,,,,,,,,,,,,,,,,sub-112,1,random_dot,,
left,left,18.0,0.0,9.0,left,1.0,2.9084347910247743,,,,,,9.0,0.0,18.0,0.0,,,,,,,,,122.8615050839726,,,,,,,,,122.85231574997306,122.95159266691188,123.75260654196607,123.744314208976,123.7453744589584,123.75260654196607,123.75260654196607,123.75260654196607,,126.66937562497333,left,1.0,2.9084347910247743,,126.67764166695996,126.68586041696835,127.17812449997292,,,,,,,,,,,,,,,,,,,,,,,,,,,,,,sub-112,1,random_dot,,
right,right,19.0,1.0,9.0,right,1.0,2.762072581914253,,,,,,9.0,1.0,19.0,1.0,,,,,,,,,127.1832662919769,,,,,,,,,127.1786134999711,128.36985241691582,129.17044362495653,129.16175949992612,129.16255779191852,129.17044362495653,129.17044362495653,129.17044362495653,,131.9352414169116,right,1.0,2.762072581914253,,131.9354544589296,131.94356291694567,132.42853699997067,132.4391254169168,,,,,,,,,,,,,,,,,,,,,,,,,,,,,sub-112,1,random_dot,,
,,,,,,,,,,,,,,,,,,,,,,,,,,,,,,,,,,,,,,,,,,,,,,,,,,,,132.42885549995117,132.4391254169168,132.4391254169168,140.51949854195118,space,8.076864333008416,,,,,,,,,,,,,,,,,,,,,,,sub-112,1,random_dot,,
,,,,,,,,,,,,,,,,,,,,,,,,,,,,,,,,,,,,,,,,,,,,,,,,,,,,,,,,,,,140.51966541691218,140.53338274999987,140.53338274999987,142.21948720898945,space,1.6795517490245402,,,,,,,,,,,,,,,,sub-112,1,random_dot,,
left,left,0.0,0.0,0.0,right,0.0,5.317539874929935,,speed,space,2.7354163740528747,,,,,,0.0,0.0,0.0,1.0,0.0,0.0,0.0,0.0,145.02135554200504,,,,,,,,,145.01374291698448,145.10089154192246,145.89489845896605,145.88507624994963,145.88584966689814,145.89489845896605,145.89489845896605,145.89489845896605,150.87752887490203,151.2218029589858,,,,,,,,,,,,,,,,,,,,,,,142.25329320901074,142.26046416698955,142.26046416698955,145.0018118339358,space,2.7354163740528747,,right,0.0,5.317539874929935,,,,,sub-112,1,random_dot,,
right,right,1.0,1.0,0.0,right,1.0,2.3791896660113707,,speed,space,2.7354163740528747,,,,,,0.0,0.0,0.0,1.0,0.0,1.0,1.0,1.0,151.2293541249819,,,,,,,,,151.22231916699093,151.56898062489927,152.36984595900867,152.3616446669912,152.36231699993368,152.36984595900867,152.36984595900867,152.36984595900867,,154.75163862493355,,,,,,,,,,,,,,,,,,,,,,,,,,,,,,right,1.0,2.3791896660113707,,,,,sub-112,1,random_dot,,
right,right,2.0,0.0,1.0,right,1.0,2.6823137080064043,,speed,space,2.7354163740528747,,,,,,0.0,0.0,0.0,1.0,1.0,0.0,2.0,1.0,154.76035670889542,,,,,,,,,154.7521512499079,155.55182616692036,156.34399191697594,156.33493616699707,156.3355529169785,156.34399191697594,156.34399191697594,156.34399191697594,,159.02924333396368,,,,,,,,,,,,,,,,,,,,,,,,,,,,,,right,1.0,2.6823137080064043,,,,,sub-112,1,random_dot,,
left,left,3.0,1.0,1.0,right,0.0,4.002714916015975,,speed,space,2.7354163740528747,,,,,,0.0,0.0,0.0,1.0,1.0,1.0,3.0,0.0,159.0384721669834,,,,,,,,,159.03036504192278,159.37775291700382,160.17021074995864,160.16171741695143,160.16255187499337,160.17021074995864,160.17021074995864,160.17021074995864,,164.17820345889777,,,,,,,,,,,,,,,,,,,,,,,,,,,,,,right,0.0,4.002714916015975,,,,,sub-112,1,random_dot,,
right,right,4.0,0.0,2.0,left,0.0,2.9178367500426248,,speed,space,2.7354163740528747,,,,,,0.0,0.0,0.0,1.0,2.0,0.0,4.0,1.0,164.1866672500037,,,,,,,,,164.17899141693488,164.51801237498876,165.30960479192436,165.30166083399672,165.30212337500416,165.30960479192436,165.30960479192436,165.30960479192436,,168.24081524997018,,,,,,,,,,,,,,,,,,,,,,,,,,,,,,left,0.0,2.9178367500426248,,,,,sub-112,1,random_dot,,
left,left,5.0,1.0,2.0,left,1.0,3.668749332078733,,speed,space,2.7354163740528747,,,,,,0.0,0.0,0.0,1.0,2.0,1.0,5.0,0.0,168.2467849169625,,,,,,,,,168.24182237498462,169.43495091691148,170.2364122919971,170.2280092089204,170.2286779169226,170.2364122919971,170.2364122919971,170.2364122919971,,173.9107649589423,,,,,,,,,,,,,,,,,,,,,,,,,,,,,,left,1.0,3.668749332078733,,,,,sub-112,1,random_dot,,
right,right,6.0,0.0,3.0,left,0.0,3.176190415979363,,speed,space,2.7354163740528747,,,,,,0.0,0.0,0.0,1.0,3.0,0.0,6.0,1.0,173.9194224999519,,,,,,,,,173.9113313339185,175.1015378339216,175.893903166987,175.88512220897246,175.8857092919061,175.893903166987,175.893903166987,175.893903166987,,179.0797871669056,,,,,,,,,,,,,,,,,,,,,,,,,,,,,,left,0.0,3.176190415979363,,,,,sub-112,1,random_dot,,
left,left,7.0,1.0,3.0,right,0.0,3.2416761240456253,,speed,space,2.7354163740528747,,,,,,0.0,0.0,0.0,1.0,3.0,1.0,7.0,0.0,179.0901139169,,,,,,,,,179.08116258389782,179.42771966697185,180.2201414589072,180.21137558401097,180.2120990839321,180.2201414589072,180.2201414589072,180.2201414589072,,183.46818149997853,,,,,,,,,,,,,,,,,,,,,,,,,,,,,,right,0.0,3.2416761240456253,,,,,sub-112,1,random_dot,,
left,left,8.0,0.0,4.0,right,0.0,5.270244957995601,,speed,space,2.7354163740528747,,,,,,0.0,0.0,0.0,1.0,4.0,0.0,8.0,0.0,183.47704595897807,,,,,,,,,183.46877479192332,184.66823537496384,185.45934025000315,185.4509329999564,185.45151937496848,185.45934025000315,185.45934025000315,185.45934025000315,190.449675333919,190.7449852919672,,,,,,,,,,,,,,,,,,,,,,,,,,,,,,right,0.0,5.270244957995601,,,,,sub-112,1,random_dot,,
right,right,9.0,1.0,4.0,right,1.0,2.8726936660241336,,speed,space,2.7354163740528747,,,,,,0.0,0.0,0.0,1.0,4.0,1.0,9.0,1.0,190.7606352498988,,,,,,,,,190.74599624995608,190.84284895891324,191.63733966695145,191.62792887492105,191.6287486249348,191.63733966695145,191.63733966695145,191.63733966695145,,194.52113675000143,,,,,,,,,,,,,,,,,,,,,,,,,,,,,,right,1.0,2.8726936660241336,,,,,sub-112,1,random_dot,,
right,right,10.0,0.0,5.0,left,0.0,2.3313176659867167,,speed,space,2.7354163740528747,,,,,,0.0,0.0,0.0,1.0,5.0,0.0,10.0,1.0,194.5277928339783,,,,,,,,,194.52191429201048,195.3178611249896,196.10970112495124,196.10070024989545,196.10126820893493,196.10970112495124,196.10970112495124,196.10970112495124,,198.4464351249626,,,,,,,,,,,,,,,,,,,,,,,,,,,,,,left,0.0,2.3313176659867167,,,,,sub-112,1,random_dot,,
left,left,11.0,1.0,5.0,right,0.0,4.253693165956065,,speed,space,2.7354163740528747,,,,,,0.0,0.0,0.0,1.0,5.0,1.0,11.0,0.0,198.45509179192595,,,,,,,,,198.44741958391387,198.54254666692577,199.3427316249581,199.33306074992288,199.33379712491296,199.3427316249581,199.3427316249581,199.3427316249581,,203.60377141693607,,,,,,,,,,,,,,,,,,,,,,,,,,,,,,right,0.0,4.253693165956065,,,,,sub-112,1,random_dot,,
right,right,12.0,0.0,6.0,right,1.0,3.2688180409604684,,speed,space,2.7354163740528747,,,,,,0.0,0.0,0.0,1.0,6.0,0.0,12.0,1.0,203.61246804194525,,,,,,,,,203.6043772919802,203.95106166694316,204.75384908390697,204.74489866697692,204.7458322918974,204.75384908390697,204.75384908390697,204.75384908390697,,208.02996620896735,,,,,,,,,,,,,,,,,,,,,,,,,,,,,,right,1.0,3.2688180409604684,,,,,sub-112,1,random_dot,,
left,left,13.0,1.0,6.0,right,0.0,2.6139540820149705,,speed,space,2.7354163740528747,,,,,,0.0,0.0,0.0,1.0,6.0,1.0,13.0,0.0,208.04018716700372,,,,,,,,,208.0313576669432,208.82730133400764,209.61991641693749,209.61109895899423,209.61197979201097,209.61991641693749,209.61991641693749,209.61991641693749,,212.24522691697348,,,,,,,,,,,,,,,,,,,,,,,,,,,,,,right,0.0,2.6139540820149705,,,,,sub-112,1,random_dot,,
right,right,14.0,0.0,7.0,right,1.0,2.6904641250148416,,speed,space,2.7354163740528747,,,,,,0.0,0.0,0.0,1.0,7.0,0.0,14.0,1.0,212.2536187089281,,,,,,,,,212.2458474589512,213.0441404999001,213.8356093339389,213.8276244169101,213.8282220839756,213.8356093339389,213.8356093339389,213.8356093339389,,216.530328291934,,,,,,,,,,,,,,,,,,,,,,,,,,,,,,right,1.0,2.6904641250148416,,,,,sub-112,1,random_dot,,
left,left,15.0,1.0,7.0,left,1.0,2.390165540971793,,speed,space,2.7354163740528747,,,,,,0.0,0.0,0.0,1.0,7.0,1.0,15.0,0.0,216.5404958339641,,,,,,,,,216.53164512501095,217.7273890839424,218.51881387492176,218.5108253749786,218.51143829198557,218.51881387492176,218.51881387492176,218.51881387492176,,220.91108291700948,,,,,,,,,,,,,,,,,,,,,,,,,,,,,,left,1.0,2.390165540971793,,,,,sub-112,1,random_dot,,
right,right,16.0,0.0,8.0,right,1.0,2.3208700829418376,,speed,space,2.7354163740528747,,,,,,0.0,0.0,0.0,1.0,8.0,0.0,16.0,1.0,220.9194103749469,,,,,,,,,220.9117151669925,221.00070433400103,221.7927464169916,221.7837189169368,221.7841579999076,221.7927464169916,221.7927464169916,221.7927464169916,,224.1203266249504,,,,,,,,,,,,,,,,,,,,,,,,,,,,,,right,1.0,2.3208700829418376,,,,,sub-112,1,random_dot,,
left,left,17.0,1.0,8.0,right,0.0,4.431707206997089,,speed,space,2.7354163740528747,,,,,,0.0,0.0,0.0,1.0,8.0,1.0,17.0,0.0,224.129652124946,,,,,,,,,224.12109341693576,225.31784866692036,226.12008820893243,226.11094633396715,226.1115865840111,226.12008820893243,226.12008820893243,226.12008820893243,,230.56183983397204,,,,,,,,,,,,,,,,,,,,,,,,,,,,,,right,0.0,4.431707206997089,,,,,sub-112,1,random_dot,,
left,left,18.0,0.0,9.0,left,1.0,3.904707500012592,,speed,space,2.7354163740528747,,,,,,0.0,0.0,0.0,1.0,9.0,0.0,18.0,0.0,230.5701322919922,,,,,,,,,230.5624005419668,230.6589422499528,231.4542517089285,231.4442768339068,231.44503179192543,231.4542517089285,231.4542517089285,231.4542517089285,,235.36249587498605,,,,,,,,,,,,,,,,,,,,,,,,,,,,,,left,1.0,3.904707500012592,,,,,sub-112,1,random_dot,,
right,right,19.0,1.0,9.0,left,0.0,4.081895250012167,,speed,space,2.7354163740528747,,,,,,0.0,0.0,0.0,1.0,9.0,1.0,19.0,1.0,235.37260637490544,,,,,,,,,235.36369412497152,235.4606449590065,236.25306012493093,236.24445291690063,236.244939749944,236.25306012493093,236.25306012493093,236.25306012493093,,240.3363742500078,,,,,,,,,,,,,,,,,,,,,,,,,,,,,,left,0.0,4.081895250012167,,,,,sub-112,1,random_dot,,
left,left,20.0,0.0,10.0,right,0.0,5.165619750041515,,speed,space,2.7354163740528747,,,,,,0.0,0.0,0.0,1.0,10.0,0.0,20.0,0.0,240.3457102499669,,,,,,,,,240.3369506249437,240.6839697919786,241.47548858390653,241.4668405419216,241.46735766693016,241.47548858390653,241.47548858390653,241.47548858390653,246.4601590419188,246.64706316695083,,,,,,,,,,,,,,,,,,,,,,,,,,,,,,right,0.0,5.165619750041515,,,,,sub-112,1,random_dot,,
right,right,21.0,1.0,10.0,left,0.0,3.039690083009191,,speed,space,2.7354163740528747,,,,,,0.0,0.0,0.0,1.0,10.0,1.0,21.0,1.0,246.6578026249772,,,,,,,,,246.64832549996208,247.8436181249563,248.63584633392747,248.6268026669277,248.6284414589172,248.63584633392747,248.63584633392747,248.63584633392747,,251.67727762495636,,,,,,,,,,,,,,,,,,,,,,,,,,,,,,left,0.0,3.039690083009191,,,,,sub-112,1,random_dot,,
left,left,22.0,0.0,11.0,right,0.0,4.798689624993131,,speed,space,2.7354163740528747,,,,,,0.0,0.0,0.0,1.0,11.0,0.0,22.0,0.0,251.68587716692127,,,,,,,,,251.67798116698395,252.4668475840008,253.26932962494905,253.2608268338954,253.2615302919876,253.26932962494905,253.26932962494905,253.26932962494905,,258.08027387491893,,,,,,,,,,,,,,,,,,,,,,,,,,,,,,right,0.0,4.798689624993131,,,,,sub-112,1,random_dot,,
right,right,23.0,1.0,11.0,left,0.0,4.373900499078445,,speed,space,2.7354163740528747,,,,,,0.0,0.0,0.0,1.0,11.0,1.0,23.0,1.0,258.0936600419227,,,,,,,,,258.08084662491456,259.27722658391576,260.06981174997054,260.06075208389666,260.06162391696125,260.06981174997054,260.06981174997054,260.06981174997054,,264.44805637490936,,,,,,,,,,,,,,,,,,,,,,,,,,,,,,left,0.0,4.373900499078445,,,,,sub-112,1,random_dot,,
left,left,24.0,0.0,12.0,left,1.0,2.3309354989323765,,speed,space,2.7354163740528747,,,,,,0.0,0.0,0.0,1.0,12.0,0.0,24.0,0.0,264.4604688339168,,,,,,,,,264.44832599989604,265.25159799994435,266.0542724169791,266.04428212495986,266.0454754589591,266.0542724169791,266.0542724169791,266.0542724169791,,268.39615920896176,,,,,,,,,,,,,,,,,,,,,,,,,,,,,,left,1.0,2.3309354989323765,,,,,sub-112,1,random_dot,,
right,right,25.0,1.0,12.0,left,0.0,2.94477291603107,,speed,space,2.7354163740528747,,,,,,0.0,0.0,0.0,1.0,12.0,1.0,25.0,1.0,268.40619733394124,,,,,,,,,268.3973090839572,269.1936256668996,269.9869624169078,269.97753699996974,269.97829979192466,269.9869624169078,269.9869624169078,269.9869624169078,,272.935175874969,,,,,,,,,,,,,,,,,,,,,,,,,,,,,,left,0.0,2.94477291603107,,,,,sub-112,1,random_dot,,
left,left,26.0,0.0,13.0,right,0.0,3.778839457081631,,speed,space,2.7354163740528747,,,,,,0.0,0.0,0.0,1.0,13.0,0.0,26.0,0.0,272.9599926669616,,,,,,,,,272.935756541905,273.03467799990904,273.8366689590039,273.827421041904,273.82824850000907,273.8366689590039,273.8366689590039,273.8366689590039,,277.6185644589132,,,,,,,,,,,,,,,,,,,,,,,,,,,,,,right,0.0,3.778839457081631,,,,,sub-112,1,random_dot,,
right,right,27.0,1.0,13.0,right,1.0,3.154691457981244,,speed,space,2.7354163740528747,,,,,,0.0,0.0,0.0,1.0,13.0,1.0,27.0,1.0,277.6283984169131,,,,,,,,,277.6195091669215,277.7168939999537,278.50931558397133,278.5004711669171,278.50104487501085,278.50931558397133,278.50931558397133,278.50931558397133,,281.6690475419164,,,,,,,,,,,,,,,,,,,,,,,,,,,,,,right,1.0,3.154691457981244,,,,,sub-112,1,random_dot,,
left,left,28.0,0.0,14.0,right,0.0,2.450117291067727,,speed,space,2.7354163740528747,,,,,,0.0,0.0,0.0,1.0,14.0,0.0,28.0,0.0,281.6787322089076,,,,,,,,,281.6699248749064,282.4765104169492,283.26986341690645,283.2607454590034,283.2619249999989,283.26986341690645,283.26986341690645,283.26986341690645,,285.7291610419052,,,,,,,,,,,,,,,,,,,,,,,,,,,,,,right,0.0,2.450117291067727,,,,,sub-112,1,random_dot,,
right,right,29.0,1.0,14.0,right,1.0,2.225964291021228,,speed,space,2.7354163740528747,,,,,,0.0,0.0,0.0,1.0,14.0,1.0,29.0,1.0,285.73676862497814,,,,,,,,,285.7299212089274,285.8268298750045,286.6199214590015,286.61078699992504,286.6114247089717,286.6199214590015,286.6199214590015,286.6199214590015,,288.8502364999149,,,,,,,,,,,,,,,,,,,,,,,,,,,,,,right,1.0,2.225964291021228,,,,,sub-112,1,random_dot,,
left,left,30.0,0.0,15.0,right,0.0,1.8249627080513164,,speed,space,2.7354163740528747,,,,,,0.0,0.0,0.0,1.0,15.0,0.0,30.0,0.0,288.85914170893375,,,,,,,,,288.8508277089568,288.9507079999894,289.7517587089678,289.7435183339985,289.74408145900816,289.7517587089678,289.7517587089678,289.7517587089678,,291.5807472919114,,,,,,,,,,,,,,,,,,,,,,,,,,,,,,right,0.0,1.8249627080513164,,,,,sub-112,1,random_dot,,
right,right,31.0,1.0,15.0,right,1.0,1.6004790830193087,,speed,space,2.7354163740528747,,,,,,0.0,0.0,0.0,1.0,15.0,1.0,31.0,1.0,291.5930268749362,,,,,,,,,291.5809238340007,291.9267104169121,292.7193616669392,292.71077512495685,292.7114167920081,292.7193616669392,292.7193616669392,292.7193616669392,,294.3253914589295,,,,,,,,,,,,,,,,,,,,,,,,,,,,,,right,1.0,1.6004790830193087,,,,,sub-112,1,random_dot,,
right,right,32.0,0.0,16.0,left,0.0,4.021354874013923,,speed,space,2.7354163740528747,,,,,,0.0,0.0,0.0,1.0,16.0,0.0,32.0,1.0,294.331483624992,,,,,,,,,294.32584304199554,295.1158024589531,295.9087071669055,295.9001074999105,295.90062316693366,295.9087071669055,295.9087071669055,295.9087071669055,,299.935715583968,,,,,,,,,,,,,,,,,,,,,,,,,,,,,,left,0.0,4.021354874013923,,,,,sub-112,1,random_dot,,
left,left,33.0,1.0,16.0,left,1.0,4.886817790917121,,speed,space,2.7354163740528747,,,,,,0.0,0.0,0.0,1.0,16.0,1.0,33.0,0.0,299.94535783398896,,,,,,,,,299.93705458391923,301.1341045419685,301.9257527498994,301.9167723339051,301.9175943339942,301.9257527498994,301.9257527498994,301.9257527498994,,306.8194167499896,,,,,,,,,,,,,,,,,,,,,,,,,,,,,,left,1.0,4.886817790917121,,,,,sub-112,1,random_dot,,
left,left,34.0,0.0,17.0,right,0.0,7.113631499931216,,speed,space,2.7354163740528747,,,,,,0.0,0.0,0.0,1.0,17.0,0.0,34.0,0.0,306.8293769169832,,,,,,,,,306.82082866691053,307.6183582089143,308.41907241696026,308.41047141700983,308.4111983749317,308.41907241696026,308.41907241696026,308.41907241696026,313.4097637089435,315.5509321249556,,,,,,,,,,,,,,,,,,,,,,,,,,,,,,right,0.0,7.113631499931216,,,,,sub-112,1,random_dot,,
right,right,35.0,1.0,17.0,left,0.0,1.4452379990834745,,speed,space,2.7354163740528747,,,,,,0.0,0.0,0.0,1.0,17.0,1.0,35.0,1.0,315.56193633400835,,,,,,,,,315.55237341695465,316.7511444169795,317.5599310839316,317.54454633395653,317.5474952919176,317.5599310839316,317.5599310839316,317.5599310839316,,319.0098766669398,,,,,,,,,,,,,,,,,,,,,,,,,,,,,,left,0.0,1.4452379990834745,,,,,sub-112,1,random_dot,,
left,left,36.0,0.0,18.0,left,1.0,2.0735740410164,,speed,space,2.7354163740528747,,,,,,0.0,0.0,0.0,1.0,18.0,0.0,36.0,0.0,319.018209834001,,,,,,,,,319.01044433400966,320.1998759589624,320.99150129198097,320.9833749589743,320.9838617499918,320.99150129198097,320.99150129198097,320.99150129198097,,323.06757712492254,,,,,,,,,,,,,,,,,,,,,,,,,,,,,,left,1.0,2.0735740410164,,,,,sub-112,1,random_dot,,
right,right,37.0,1.0,18.0,left,0.0,2.340805582003668,,speed,space,2.7354163740528747,,,,,,0.0,0.0,0.0,1.0,18.0,1.0,37.0,1.0,323.0757375420071,,,,,,,,,323.0680164999794,323.4170564999804,324.2192994169891,324.21019120898563,324.211140083964,324.2192994169891,324.2192994169891,324.2192994169891,,326.56302999996115,,,,,,,,,,,,,,,,,,,,,,,,,,,,,,left,0.0,2.340805582003668,,,,,sub-112,1,random_dot,,
right,right,38.0,0.0,19.0,right,1.0,2.844734999001957,,speed,space,2.7354163740528747,,,,,,0.0,0.0,0.0,1.0,19.0,0.0,38.0,1.0,326.5760593749583,,,,,,,,,326.5635503339581,327.35977191699203,328.1524107499281,328.14351629198063,328.14432508393656,328.1524107499281,328.1524107499281,328.1524107499281,,331.0112516669324,,,,,,,,,,,,,,,,,,,,,,,,,,,,,,right,1.0,2.844734999001957,,,,,sub-112,1,random_dot,,
left,left,39.0,1.0,19.0,right,0.0,1.873178748995997,,speed,space,2.7354163740528747,,,,,,0.0,0.0,0.0,1.0,19.0,1.0,39.0,0.0,331.0190298749367,,,,,,,,,331.0119569589151,331.3597429589136,332.15148899995256,332.1433247500099,332.1440002499148,332.15148899995256,332.15148899995256,332.15148899995256,,334.02654049999546,,,,,,,,,,,,,,,,,,,,,,,,,,,,,,right,0.0,1.873178748995997,,,,,sub-112,1,random_dot,,
right,right,40.0,0.0,20.0,right,1.0,1.3198361239628866,,speed,space,2.7354163740528747,,,,,,0.0,0.0,0.0,1.0,20.0,0.0,40.0,1.0,334.0352665419923,,,,,,,,,334.02717670891434,334.82549170893617,335.61979299993254,335.6092738748994,335.61122624995187,335.61979299993254,335.61979299993254,335.61979299993254,,336.94406612496823,,,,,,,,,,,,,,,,,,,,,,,,,,,,,,right,1.0,1.3198361239628866,,,,,sub-112,1,random_dot,,
left,left,41.0,1.0,20.0,right,0.0,2.8084616659907624,,speed,space,2.7354163740528747,,,,,,0.0,0.0,0.0,1.0,20.0,1.0,41.0,0.0,336.9535479999613,,,,,,,,,336.9449998339405,337.0488203749992,337.8500452089356,337.84262916690204,337.84330579196103,337.8500452089356,337.8500452089356,337.8500452089356,,340.6631632919889,,,,,,,,,,,,,,,,,,,,,,,,,,,,,,right,0.0,2.8084616659907624,,,,,sub-112,1,random_dot,,
left,left,42.0,0.0,21.0,left,1.0,1.025339791085571,,speed,space,2.7354163740528747,,,,,,0.0,0.0,0.0,1.0,21.0,0.0,42.0,0.0,340.6745241249446,,,,,,,,,340.6635062498972,340.7587774998974,341.5482452919241,341.54259783390444,341.5428507919423,341.5482452919241,341.5482452919241,341.5482452919241,,342.5770778749138,,,,,,,,,,,,,,,,,,,,,,,,,,,,,,left,1.0,1.025339791085571,,,,,sub-112,1,random_dot,,
right,right,43.0,1.0,21.0,right,1.0,1.5954086660640314,,speed,space,2.7354163740528747,,,,,,0.0,0.0,0.0,1.0,21.0,1.0,43.0,1.0,342.5844534999924,,,,,,,,,342.5775682500098,342.9165766249644,343.70791849994566,343.69916979200207,343.6996350839036,343.70791849994566,343.70791849994566,343.70791849994566,,345.3111198749393,,,,,,,,,,,,,,,,,,,,,,,,,,,,,,right,1.0,1.5954086660640314,,,,,sub-112,1,random_dot,,
right,right,44.0,0.0,22.0,right,1.0,1.3518695828970522,,speed,space,2.7354163740528747,,,,,,0.0,0.0,0.0,1.0,22.0,0.0,44.0,1.0,345.3201323749963,,,,,,,,,345.3121421249816,346.5090100419475,347.3023822499672,347.2934038749663,347.2943210839294,347.3023822499672,347.3023822499672,347.3023822499672,,348.65921829198487,,,,,,,,,,,,,,,,,,,,,,,,,,,,,,right,1.0,1.3518695828970522,,,,,sub-112,1,random_dot,,
left,left,45.0,1.0,22.0,right,0.0,1.815221166005358,,speed,space,2.7354163740528747,,,,,,0.0,0.0,0.0,1.0,22.0,1.0,45.0,0.0,348.66720829193946,,,,,,,,,348.659727249993,348.99996595899574,349.80202754191123,349.7929812920047,349.79378408391494,349.80202754191123,349.80202754191123,349.80202754191123,,351.6272330000065,,,,,,,,,,,,,,,,,,,,,,,,,,,,,,right,0.0,1.815221166005358,,,,,sub-112,1,random_dot,,
right,right,46.0,0.0,23.0,left,0.0,2.349182875012048,,speed,space,2.7354163740528747,,,,,,0.0,0.0,0.0,1.0,23.0,0.0,46.0,1.0,351.63529849995393,,,,,,,,,351.6278329999186,351.9761588339461,352.76796495891176,352.7596344589256,352.76022691698745,352.76796495891176,352.76796495891176,352.76796495891176,,355.1198137499159,,,,,,,,,,,,,,,,,,,,,,,,,,,,,,left,0.0,2.349182875012048,,,,,sub-112,1,random_dot,,
left,left,47.0,1.0,23.0,left,1.0,5.622858750051819,,speed,space,2.7354163740528747,,,,,,0.0,0.0,0.0,1.0,23.0,1.0,47.0,0.0,355.12850899994373,,,,,,,,,355.1204736249056,356.3165423339233,357.10775524994824,357.09918241691776,357.0997583749704,357.10775524994824,357.10775524994824,357.10775524994824,362.09268141700886,362.73436187498737,,,,,,,,,,,,,,,,,,,,,,,,,,,,,,left,1.0,5.622858750051819,,,,,sub-112,1,random_dot,,
right,right,48.0,0.0,24.0,right,1.0,2.336166915949434,,speed,space,2.7354163740528747,,,,,,0.0,0.0,0.0,1.0,24.0,0.0,48.0,1.0,362.7443737089634,,,,,,,,,362.735152249923,363.9428057089681,364.7354002089705,364.7263665419305,364.7272592089139,364.7354002089705,364.7354002089705,364.7354002089705,,367.07649654196575,,,,,,,,,,,,,,,,,,,,,,,,,,,,,,right,1.0,2.336166915949434,,,,,sub-112,1,random_dot,,
left,left,49.0,1.0,24.0,left,1.0,2.359877374023199,,speed,space,2.7354163740528747,,,,,,0.0,0.0,0.0,1.0,24.0,1.0,49.0,0.0,367.0850043339888,,,,,,,,,367.0771857500076,368.2666617919458,369.0762980419677,369.0598902089987,369.0608374169096,369.0762980419677,369.0762980419677,369.0762980419677,,371.4452113748994,,,,,,,,,,,,,,,,,,,,,,,,,,,,,,left,1.0,2.359877374023199,,,,,sub-112,1,random_dot,,
right,right,50.0,0.0,25.0,right,1.0,5.186590125085786,,speed,space,2.7354163740528747,,,,,,0.0,0.0,0.0,1.0,25.0,0.0,50.0,1.0,371.4553088749526,,,,,,,,,371.4463478749385,371.5410397920059,372.33658329199534,372.3267144589918,372.3278817919781,372.33658329199534,372.33658329199534,372.33658329199534,377.3257591249421,377.5277175839292,,,,,,,,,,,,,,,,,,,,,,,,,,,,,,right,1.0,5.186590125085786,,,,,sub-112,1,random_dot,,
left,left,51.0,1.0,25.0,right,0.0,1.6761534160468727,,speed,space,2.7354163740528747,,,,,,0.0,0.0,0.0,1.0,25.0,1.0,51.0,0.0,377.53701079194434,,,,,,,,,377.528661249904,377.8757415419677,378.6674647089094,378.6593549589161,378.6599884589669,378.6674647089094,378.6674647089094,378.6674647089094,,380.3499899168965,,,,,,,,,,,,,,,,,,,,,,,,,,,,,,right,0.0,1.6761534160468727,,,,,sub-112,1,random_dot,,
left,left,52.0,0.0,26.0,left,1.0,4.216464541037567,,speed,space,2.7354163740528747,,,,,,0.0,0.0,0.0,1.0,26.0,0.0,52.0,0.0,380.3574063749984,,,,,,,,,380.3504038339015,381.1499407920055,381.94101412489545,381.93484154192265,381.9350384589052,381.94101412489545,381.94101412489545,381.94101412489545,,386.16207129193936,,,,,,,,,,,,,,,,,,,,,,,,,,,,,,left,1.0,4.216464541037567,,,,,sub-112,1,random_dot,,
right,right,53.0,1.0,26.0,left,0.0,3.2387137910118327,,speed,space,2.7354163740528747,,,,,,0.0,0.0,0.0,1.0,26.0,1.0,53.0,1.0,386.17146954196505,,,,,,,,,386.1632792499149,386.50896312494297,387.3025139169768,387.29289895889815,387.2940145839239,387.3025139169768,387.3025139169768,387.3025139169768,,390.5524696669309,,,,,,,,,,,,,,,,,,,,,,,,,,,,,,left,0.0,3.2387137910118327,,,,,sub-112,1,random_dot,,
left,left,54.0,0.0,27.0,left,1.0,3.838783207000233,,speed,space,2.7354163740528747,,,,,,0.0,0.0,0.0,1.0,27.0,0.0,54.0,0.0,390.55873074999545,,,,,,,,,390.5529987500049,391.74857349996455,392.5419771249872,392.5331054169219,392.5337091669208,392.5419771249872,392.5419771249872,392.5419771249872,,396.384069083957,,,,,,,,,,,,,,,,,,,,,,,,,,,,,,left,1.0,3.838783207000233,,,,,sub-112,1,random_dot,,
right,right,55.0,1.0,27.0,left,0.0,1.3842605830868706,,speed,space,2.7354163740528747,,,,,,0.0,0.0,0.0,1.0,27.0,1.0,55.0,1.0,396.3922825419577,,,,,,,,,396.3846427089302,397.5834859999595,398.3760960419895,398.3662951249862,398.3670029999921,398.3760960419895,398.3760960419895,398.3760960419895,,399.77616104192566,,,,,,,,,,,,,,,,,,,,,,,,,,,,,,left,0.0,1.3842605830868706,,,,,sub-112,1,random_dot,,
right,right,56.0,0.0,28.0,left,0.0,1.6329766659764573,,speed,space,2.7354163740528747,,,,,,0.0,0.0,0.0,1.0,28.0,0.0,56.0,1.0,399.7827925418969,,,,,,,,,399.7763762919931,399.8662180840038,400.66615841700695,400.6580587920034,400.65912254189607,400.66615841700695,400.66615841700695,400.66615841700695,,402.3101109169656,,,,,,,,,,,,,,,,,,,,,,,,,,,,,,left,0.0,1.6329766659764573,,,,,sub-112,1,random_dot,,
left,left,57.0,1.0,28.0,left,1.0,1.683318082941696,,speed,space,2.7354163740528747,,,,,,0.0,0.0,0.0,1.0,28.0,1.0,57.0,0.0,402.3205994999735,,,,,,,,,402.3112940419233,403.108980833902,403.9028581249295,403.8929432919249,403.89411274995655,403.9028581249295,403.9028581249295,403.9028581249295,,405.59337891696487,,,,,,,,,,,,,,,,,,,,,,,,,,,,,,left,1.0,1.683318082941696,,,,,sub-112,1,random_dot,,
right,right,58.0,0.0,29.0,left,0.0,0.8874160830164328,,speed,space,2.7354163740528747,,,,,,0.0,0.0,0.0,1.0,29.0,0.0,58.0,1.0,405.6007818339858,,,,,,,,,405.5940138339065,405.94228758395184,406.7346370419255,406.725960916956,406.72671595891006,406.7346370419255,406.7346370419255,406.7346370419255,,407.6263869169634,,,,,,,,,,,,,,,,,,,,,,,,,,,,,,left,0.0,0.8874160830164328,,,,,sub-112,1,random_dot,,
left,left,59.0,1.0,29.0,left,1.0,3.745154206990264,,speed,space,2.7354163740528747,,,,,,0.0,0.0,0.0,1.0,29.0,1.0,59.0,0.0,407.6351398749976,,,,,,,,,407.6273260839516,408.8255076250061,409.6185358749936,409.6092872919981,409.6101809169632,409.6185358749936,409.6185358749936,409.6185358749936,,413.3679521669401,,,,,,,,,,,,,,,,,,,,,,,,,,,,,,left,1.0,3.745154206990264,,,,,sub-112,1,random_dot,,
,,0.0,0.0,0.0,,,,,speed,space,2.7354163740528747,,,,,,0.0,0.0,0.0,1.0,,,,,,,,,,,,,,,,,,,,,,,,,,,,,,,,,,,,,,,,,,,,,,,,,,,,,,,,,,,,sub-112,1,random_dot,,
left,left,0.0,0.0,0.0,left,1.0,1.7286325409077108,,accuracy,space,45.32785716594663,,,,,,0.0,1.0,1.0,0.0,0.0,0.0,0.0,0.0,458.77834991691634,,,,,,,,,458.7697228749748,458.84581708395854,459.6499630420003,459.6412895839894,459.6421434999211,459.6499630420003,459.6499630420003,459.6499630420003,,461.38322566694114,,,,,,,,,,,,,,,,,,,,,,,413.4020884589991,413.40923549991567,413.40923549991567,458.7468743339414,space,45.32785716594663,,left,1.0,1.7286325409077108,,,,,sub-112,1,random_dot,,
right,right,1.0,1.0,0.0,left,0.0,1.4171285410411656,,accuracy,space,45.32785716594663,,,,,,0.0,1.0,1.0,0.0,0.0,1.0,1.0,1.0,461.39199712499976,,,,,,,,,461.3837612089701,461.73216608399525,462.5398284170078,462.5254217919428,462.5260823749704,462.5398284170078,462.5398284170078,462.5398284170078,,463.96093904192094,,,,,,,,,,,,,,,,,,,,,,,,,,,,,,left,0.0,1.4171285410411656,,,,,sub-112,1,random_dot,,
left,left,2.0,0.0,1.0,left,1.0,0.6458787079900503,,accuracy,space,45.32785716594663,,,,,,0.0,1.0,1.0,0.0,1.0,0.0,2.0,0.0,463.968475917005,,,,,,,,,463.961610917002,465.15853866690304,465.9525528749218,465.9423459589016,465.94373262498993,465.9525528749218,465.9525528749218,465.9525528749218,,466.5999214169569,,,,,,,,,,,,,,,,,,,,,,,,,,,,,,left,1.0,0.6458787079900503,,,,,sub-112,1,random_dot,,
right,right,3.0,1.0,1.0,left,0.0,1.118117374018766,,accuracy,space,45.32785716594663,,,,,,0.0,1.0,1.0,0.0,1.0,1.0,3.0,1.0,466.6088414589176,,,,,,,,,466.60076308390126,467.3985781249357,468.1900569169084,468.18201020895503,468.18244995898567,468.1900569169084,468.1900569169084,468.1900569169084,,469.3177777499659,,,,,,,,,,,,,,,,,,,,,,,,,,,,,,left,0.0,1.118117374018766,,,,,sub-112,1,random_dot,,
left,left,4.0,0.0,2.0,left,1.0,2.1848015829455107,,accuracy,space,45.32785716594663,,,,,,0.0,1.0,1.0,0.0,2.0,0.0,4.0,0.0,469.32340966700576,,,,,,,,,469.3182343340013,470.1154902919661,470.9073076249333,470.8981750839157,470.89869345899206,470.9073076249333,470.9073076249333,470.9073076249333,,473.09935462498106,,,,,,,,,,,,,,,,,,,,,,,,,,,,,,left,1.0,2.1848015829455107,,,,,sub-112,1,random_dot,,
right,right,5.0,1.0,2.0,left,0.0,0.9526682490250096,,accuracy,space,45.32785716594663,,,,,,0.0,1.0,1.0,0.0,2.0,1.0,5.0,1.0,473.1078577499138,,,,,,,,,473.0999513339484,473.4489646669245,474.2505597089184,474.24195420893375,474.24253074999433,474.2505597089184,474.2505597089184,474.2505597089184,,475.2090606249403,,,,,,,,,,,,,,,,,,,,,,,,,,,,,,left,0.0,0.9526682490250096,,,,,sub-112,1,random_dot,,
left,left,6.0,0.0,3.0,left,1.0,0.5088626239448786,,accuracy,space,45.32785716594663,,,,,,0.0,1.0,1.0,0.0,3.0,0.0,6.0,0.0,475.2159427499864,,,,,,,,,475.209502166952,475.29742799990345,476.09014187497087,476.0821565838996,476.08267491695005,476.09014187497087,476.09014187497087,476.09014187497087,,476.6091003749752,,,,,,,,,,,,,,,,,,,,,,,,,,,,,,left,1.0,0.5088626239448786,,,,,sub-112,1,random_dot,,
right,right,7.0,1.0,3.0,left,0.0,1.2652773750014603,,accuracy,space,45.32785716594663,,,,,,0.0,1.0,1.0,0.0,3.0,1.0,7.0,1.0,476.61454908398446,,,,,,,,,476.609587749932,477.8086561249802,478.6006887089461,478.5919627919793,478.592571208952,478.6006887089461,478.6006887089461,478.6006887089461,,479.8757250419585,,,,,,,,,,,,,,,,,,,,,,,,,,,,,,left,0.0,1.2652773750014603,,,,,sub-112,1,random_dot,,
left,left,8.0,0.0,4.0,left,1.0,0.8922628320287913,,accuracy,space,45.32785716594663,,,,,,0.0,1.0,1.0,0.0,4.0,0.0,8.0,0.0,479.8807995419484,,,,,,,,,479.8761277499143,479.9650485839229,480.7566515419167,480.7483047089772,480.7488614999456,480.7566515419167,480.7566515419167,480.7566515419167,,481.6586982499575,,,,,,,,,,,,,,,,,,,,,,,,,,,,,,left,1.0,0.8922628320287913,,,,,sub-112,1,random_dot,,
right,right,9.0,1.0,4.0,left,0.0,1.673910333076492,,accuracy,space,45.32785716594663,,,,,,0.0,1.0,1.0,0.0,4.0,1.0,9.0,1.0,481.6669082919834,,,,,,,,,481.65927729196846,482.4487351669232,483.2408959589666,483.2323524589883,483.2328166669468,483.2408959589666,483.2408959589666,483.2408959589666,,484.9259744998999,,,,,,,,,,,,,,,,,,,,,,,,,,,,,,left,0.0,1.673910333076492,,,,,sub-112,1,random_dot,,
left,left,10.0,0.0,5.0,left,1.0,1.2285208739340303,,accuracy,space,45.32785716594663,,,,,,0.0,1.0,1.0,0.0,5.0,0.0,10.0,0.0,484.9337398339994,,,,,,,,,484.9264962499728,485.7250111670001,486.51719933399,486.50853983394336,486.509234291967,486.51719933399,486.51719933399,486.51719933399,,487.7493444998981,,,,,,,,,,,,,,,,,,,,,,,,,,,,,,left,1.0,1.2285208739340303,,,,,sub-112,1,random_dot,,
right,right,11.0,1.0,5.0,left,0.0,1.471926625003107,,accuracy,space,45.32785716594663,,,,,,0.0,1.0,1.0,0.0,5.0,1.0,11.0,1.0,487.7583497919841,,,,,,,,,487.7499489999609,488.0988524169661,488.9008361248998,488.8919653339544,488.8930076669203,488.9008361248998,488.9008361248998,488.9008361248998,,490.37521587498486,,,,,,,,,,,,,,,,,,,,,,,,,,,,,,left,0.0,1.471926625003107,,,,,sub-112,1,random_dot,,
right,right,12.0,0.0,6.0,left,0.0,5.706372915999964,,accuracy,space,45.32785716594663,,,,,,0.0,1.0,1.0,0.0,6.0,0.0,12.0,1.0,490.3841014999198,,,,,,,,,490.37603862490505,491.5654427499976,492.3576408749213,492.34869149990845,492.3493091670098,492.3576408749213,492.3576408749213,492.3576408749213,497.3419639999047,498.06841945892666,,,,,,,,,,,,,,,,,,,,,,,,,,,,,,left,0.0,5.706372915999964,,,,,sub-112,1,random_dot,,
left,left,13.0,1.0,6.0,right,0.0,5.28483162401244,,accuracy,space,45.32785716594663,,,,,,0.0,1.0,1.0,0.0,6.0,1.0,13.0,0.0,498.0784737089416,,,,,,,,,498.0697229589569,498.1690253749257,498.9649852499133,498.95711074990686,498.95777749991976,498.9649852499133,498.9649852499133,498.9649852499133,503.9470774589572,504.25936766690575,,,,,,,,,,,,,,,,,,,,,,,,,,,,,,right,0.0,5.28483162401244,,,,,sub-112,1,random_dot,,
left,left,14.0,0.0,7.0,right,0.0,5.572598958038725,,accuracy,space,45.32785716594663,,,,,,0.0,1.0,1.0,0.0,7.0,0.0,14.0,0.0,504.2679050839506,,,,,,,,,504.25997762498446,504.3579832499381,505.14987924997695,505.1416099169292,505.142252416932,505.14987924997695,505.14987924997695,505.14987924997695,510.130315208924,510.72771449992433,,,,,,,,,,,,,,,,,,,,,,,,,,,,,,right,0.0,5.572598958038725,,,,,sub-112,1,random_dot,,
right,right,15.0,1.0,7.0,right,1.0,2.4845642909640446,,accuracy,space,45.32785716594663,,,,,,0.0,1.0,1.0,0.0,7.0,1.0,15.0,1.0,510.7382902499521,,,,,,,,,510.72887012490537,511.924857166945,512.7170246669557,512.7083905419568,512.7091939589009,512.7170246669557,512.7170246669557,512.7170246669557,,515.2081337919226,,,,,,,,,,,,,,,,,,,,,,,,,,,,,,right,1.0,2.4845642909640446,,,,,sub-112,1,random_dot,,
right,right,16.0,0.0,8.0,right,1.0,3.326374249067157,,accuracy,space,45.32785716594663,,,,,,0.0,1.0,1.0,0.0,8.0,0.0,16.0,1.0,515.2163433749229,,,,,,,,,515.2086729169823,515.9982737919781,516.7911231669132,516.7817842499353,516.7823616249952,516.7911231669132,516.7911231669132,516.7911231669132,,520.1267075419892,,,,,,,,,,,,,,,,,,,,,,,,,,,,,,right,1.0,3.326374249067157,,,,,sub-112,1,random_dot,,
left,left,17.0,1.0,8.0,right,0.0,3.41034441604279,,accuracy,space,45.32785716594663,,,,,,0.0,1.0,1.0,0.0,8.0,1.0,17.0,0.0,520.1373245419236,,,,,,,,,520.1278986670077,520.9244090419961,521.7177226669155,521.7083229169948,521.7092547919601,521.7177226669155,521.7177226669155,521.7177226669155,,525.1324120839126,,,,,,,,,,,,,,,,,,,,,,,,,,,,,,right,0.0,3.41034441604279,,,,,sub-112,1,random_dot,,
left,left,18.0,0.0,9.0,right,0.0,3.312421457027085,,accuracy,space,45.32785716594663,,,,,,0.0,1.0,1.0,0.0,9.0,0.0,18.0,0.0,525.1412257089978,,,,,,,,,525.1329758339562,525.9307948749047,526.7337802089751,526.7251144169131,526.726050583995,526.7337802089751,526.7337802089751,526.7337802089751,,530.0654704999179,,,,,,,,,,,,,,,,,,,,,,,,,,,,,,right,0.0,3.312421457027085,,,,,sub-112,1,random_dot,,
right,right,19.0,1.0,9.0,right,1.0,3.709342791000381,,accuracy,space,45.32785716594663,,,,,,0.0,1.0,1.0,0.0,9.0,1.0,19.0,1.0,530.0731619999278,,,,,,,,,530.066236124956,530.1636296249926,530.9567700839834,530.9464634169126,530.9469713749131,530.9567700839834,530.9567700839834,530.9567700839834,,534.6750717919786,,,,,,,,,,,,,,,,,,,,,,,,,,,,,,right,1.0,3.709342791000381,,,,,sub-112,1,random_dot,,
left,left,20.0,0.0,10.0,right,0.0,2.57242070697248,,accuracy,space,45.32785716594663,,,,,,0.0,1.0,1.0,0.0,10.0,0.0,20.0,0.0,534.6820487919031,,,,,,,,,534.6757947090082,534.7675082089845,535.5648533339845,535.5566999169532,535.5573805419262,535.5648533339845,535.5648533339845,535.5648533339845,,538.1425197919598,,,,,,,,,,,,,,,,,,,,,,,,,,,,,,right,0.0,2.57242070697248,,,,,sub-112,1,random_dot,,
right,right,21.0,1.0,10.0,right,1.0,3.497633248916827,,accuracy,space,45.32785716594663,,,,,,0.0,1.0,1.0,0.0,10.0,1.0,21.0,1.0,538.1509339589393,,,,,,,,,538.1431947089732,538.4893814999377,539.2826599999098,539.2746463340009,539.2752893749857,539.2826599999098,539.2826599999098,539.2826599999098,,542.7825390839716,,,,,,,,,,,,,,,,,,,,,,,,,,,,,,right,1.0,3.497633248916827,,,,,sub-112,1,random_dot,,
left,left,22.0,0.0,11.0,right,0.0,4.406807666062377,,accuracy,space,45.32785716594663,,,,,,0.0,1.0,1.0,0.0,11.0,0.0,22.0,0.0,542.7910933339735,,,,,,,,,542.7830460419646,542.8807391669834,543.6731432089582,543.6638358749915,543.6644007919822,543.6731432089582,543.6731432089582,543.6731432089582,,548.1013357919874,,,,,,,,,,,,,,,,,,,,,,,,,,,,,,right,0.0,4.406807666062377,,,,,sub-112,1,random_dot,,
right,right,23.0,1.0,11.0,right,1.0,3.076284790993668,,accuracy,space,45.32785716594663,,,,,,0.0,1.0,1.0,0.0,11.0,1.0,23.0,1.0,548.1069662919035,,,,,,,,,548.1019881250104,548.1982724169502,548.9912202499108,548.9813689999282,548.9823803749168,548.9912202499108,548.9912202499108,548.9912202499108,,552.0755418749759,,,,,,,,,,,,,,,,,,,,,,,,,,,,,,right,1.0,3.076284790993668,,,,,sub-112,1,random_dot,,
left,left,24.0,0.0,12.0,left,1.0,3.2936368740629405,,accuracy,space,45.32785716594663,,,,,,0.0,1.0,1.0,0.0,12.0,0.0,24.0,0.0,552.0839832499623,,,,,,,,,552.0761538340012,552.8744205000112,553.6676283339038,553.6583425839199,553.659223124967,553.6676283339038,553.6676283339038,553.6676283339038,,556.9660564169753,,,,,,,,,,,,,,,,,,,,,,,,,,,,,,left,1.0,3.2936368740629405,,,,,sub-112,1,random_dot,,
right,right,25.0,1.0,12.0,right,1.0,2.789413041085936,,accuracy,space,45.32785716594663,,,,,,0.0,1.0,1.0,0.0,12.0,1.0,25.0,1.0,556.9765956249321,,,,,,,,,556.9671591669321,557.0647291250061,557.866355458973,557.8578674589517,557.8587331669405,557.866355458973,557.866355458973,557.866355458973,,560.6665223339805,,,,,,,,,,,,,,,,,,,,,,,,,,,,,,right,1.0,2.789413041085936,,,,,sub-112,1,random_dot,,
right,right,26.0,0.0,13.0,right,1.0,4.277552666026168,,accuracy,space,45.32785716594663,,,,,,0.0,1.0,1.0,0.0,13.0,0.0,26.0,1.0,560.6731627919944,,,,,,,,,560.6670750839403,561.0094947499456,561.8058634169865,561.7966974169249,561.7971848339075,561.8058634169865,561.8058634169865,561.8058634169865,,566.0919527919032,,,,,,,,,,,,,,,,,,,,,,,,,,,,,,right,1.0,4.277552666026168,,,,,sub-112,1,random_dot,,
left,left,27.0,1.0,13.0,right,0.0,1.5088230000110343,,accuracy,space,45.32785716594663,,,,,,0.0,1.0,1.0,0.0,13.0,1.0,27.0,0.0,566.1025653749239,,,,,,,,,566.093196208938,566.4409004169283,567.2342463339446,567.2246274169302,567.2256073749159,567.2342463339446,567.2342463339446,567.2342463339446,,568.7494997089962,,,,,,,,,,,,,,,,,,,,,,,,,,,,,,right,0.0,1.5088230000110343,,,,,sub-112,1,random_dot,,
left,left,28.0,0.0,14.0,right,0.0,3.342119707958773,,accuracy,space,45.32785716594663,,,,,,0.0,1.0,1.0,0.0,14.0,0.0,28.0,0.0,568.757266666973,,,,,,,,,568.749960666988,569.947793875006,570.74062645901,570.7315666249488,570.7320806249045,570.74062645901,570.74062645901,570.74062645901,,574.09363733395,,,,,,,,,,,,,,,,,,,,,,,,,,,,,,right,0.0,3.342119707958773,,,,,sub-112,1,random_dot,,
right,right,29.0,1.0,14.0,right,1.0,5.555916875018738,,accuracy,space,45.32785716594663,,,,,,0.0,1.0,1.0,0.0,14.0,1.0,29.0,1.0,574.1036146669649,,,,,,,,,574.0952063339064,575.2906447919086,576.0905361250043,576.0803149169078,576.0804957089713,576.0905361250043,576.0905361250043,576.0905361250043,581.073454291909,581.6611549169756,,,,,,,,,,,,,,,,,,,,,,,,,,,,,,right,1.0,5.555916875018738,,,,,sub-112,1,random_dot,,
left,left,30.0,0.0,15.0,right,0.0,2.747195790987462,,accuracy,space,45.32785716594663,,,,,,0.0,1.0,1.0,0.0,15.0,0.0,30.0,0.0,581.6722766249441,,,,,,,,,581.6626530420035,582.0056872499408,582.7996955419658,582.7912264169427,582.7919349999866,582.7996955419658,582.7996955419658,582.7996955419658,,585.5482311249943,,,,,,,,,,,,,,,,,,,,,,,,,,,,,,right,0.0,2.747195790987462,,,,,sub-112,1,random_dot,,
right,right,31.0,1.0,15.0,right,1.0,3.544423666084185,,accuracy,space,45.32785716594663,,,,,,0.0,1.0,1.0,0.0,15.0,1.0,31.0,1.0,585.5562427089317,,,,,,,,,585.5487057919381,586.347035249928,587.1390008339658,587.1301886669826,587.1307283749338,587.1390008339658,587.1390008339658,587.1390008339658,,590.6906143339584,,,,,,,,,,,,,,,,,,,,,,,,,,,,,,right,1.0,3.544423666084185,,,,,sub-112,1,random_dot,,
left,left,32.0,0.0,16.0,left,1.0,2.986806957051158,,accuracy,space,45.32785716594663,,,,,,0.0,1.0,1.0,0.0,16.0,0.0,32.0,0.0,590.6994519169675,,,,,,,,,590.6913090839516,590.7802939169342,591.5731839999789,591.5631095420104,591.5635570839513,591.5731839999789,591.5731839999789,591.5731839999789,,594.565501583973,,,,,,,,,,,,,,,,,,,,,,,,,,,,,,left,1.0,2.986806957051158,,,,,sub-112,1,random_dot,,
right,right,33.0,1.0,16.0,left,0.0,4.870515623944812,,accuracy,space,45.32785716594663,,,,,,0.0,1.0,1.0,0.0,16.0,1.0,33.0,1.0,594.5741112089017,,,,,,,,,594.5660258339485,594.6624810419744,595.456080666976,595.4464891249081,595.4471772919642,595.456080666976,595.456080666976,595.456080666976,,600.3436072499026,,,,,,,,,,,,,,,,,,,,,,,,,,,,,,left,0.0,4.870515623944812,,,,,sub-112,1,random_dot,,
left,left,34.0,0.0,17.0,left,1.0,1.8691297909244893,,accuracy,space,45.32785716594663,,,,,,0.0,1.0,1.0,0.0,17.0,0.0,34.0,0.0,600.3609815000091,,,,,,,,,600.3459835000103,601.5395789169706,602.334141624975,602.3243046249263,602.3255859169876,602.334141624975,602.334141624975,602.334141624975,,604.2077532089315,,,,,,,,,,,,,,,,,,,,,,,,,,,,,,left,1.0,1.8691297909244893,,,,,sub-112,1,random_dot,,
right,right,35.0,1.0,17.0,right,1.0,2.8788452909793705,,accuracy,space,45.32785716594663,,,,,,0.0,1.0,1.0,0.0,17.0,1.0,35.0,1.0,604.2153609169181,,,,,,,,,604.2082052089972,605.3973023749422,606.1898280419409,606.1808650000021,606.181564916973,606.1898280419409,606.1898280419409,606.1898280419409,,609.0755983749405,,,,,,,,,,,,,,,,,,,,,,,,,,,,,,right,1.0,2.8788452909793705,,,,,sub-112,1,random_dot,,
left,left,36.0,0.0,18.0,right,0.0,4.2579901239369065,,accuracy,space,45.32785716594663,,,,,,0.0,1.0,1.0,0.0,18.0,0.0,36.0,0.0,609.083731291932,,,,,,,,,609.0762851249892,610.2736251669703,611.0656917499145,611.0572276669554,611.057919083978,611.0656917499145,611.0656917499145,611.0656917499145,,615.335386791965,,,,,,,,,,,,,,,,,,,,,,,,,,,,,,right,0.0,4.2579901239369065,,,,,sub-112,1,random_dot,,
right,right,37.0,1.0,18.0,left,0.0,2.5988023329991847,,accuracy,space,45.32785716594663,,,,,,0.0,1.0,1.0,0.0,18.0,1.0,37.0,1.0,615.3692142919172,,,,,,,,,615.3360443339916,615.4305655419594,616.2224478749558,616.2133297919063,616.2139079169137,616.2224478749558,616.2224478749558,616.2224478749558,,618.8251151249278,,,,,,,,,,,,,,,,,,,,,,,,,,,,,,left,0.0,2.5988023329991847,,,,,sub-112,1,random_dot,,
left,left,38.0,0.0,19.0,right,0.0,3.7137514989590272,,accuracy,space,45.32785716594663,,,,,,0.0,1.0,1.0,0.0,19.0,0.0,38.0,0.0,618.8338055839995,,,,,,,,,618.8258766669314,619.6236023339443,620.4156449169386,620.4073073340114,620.407987167011,620.4156449169386,620.4156449169386,620.4156449169386,,624.1428320419509,,,,,,,,,,,,,,,,,,,,,,,,,,,,,,right,0.0,3.7137514989590272,,,,,sub-112,1,random_dot,,
right,right,39.0,1.0,19.0,right,1.0,5.770713124074973,,accuracy,space,45.32785716594663,,,,,,0.0,1.0,1.0,0.0,19.0,1.0,39.0,1.0,624.1516027919715,,,,,,,,,624.1439364589751,624.4889523339225,625.2823733749101,625.2738273749128,625.2745163339423,625.2823733749101,625.2823733749101,625.2823733749101,630.2734081669478,631.0611652089283,,,,,,,,,,,,,,,,,,,,,,,,,,,,,,right,1.0,5.770713124074973,,,,,sub-112,1,random_dot,,
left,left,40.0,0.0,20.0,right,0.0,4.4417899990221485,,accuracy,space,45.32785716594663,,,,,,0.0,1.0,1.0,0.0,20.0,0.0,40.0,0.0,631.0724603339331,,,,,,,,,631.0625383339357,631.4067555839429,632.1997341249371,632.1906949999975,632.1918846250046,632.1997341249371,632.1997341249371,632.1997341249371,,636.6479818338994,,,,,,,,,,,,,,,,,,,,,,,,,,,,,,right,0.0,4.4417899990221485,,,,,sub-112,1,random_dot,,
right,right,41.0,1.0,20.0,right,1.0,4.417489666026086,,accuracy,space,45.32785716594663,,,,,,0.0,1.0,1.0,0.0,20.0,1.0,41.0,1.0,636.6556948749349,,,,,,,,,636.6484009999549,637.8465659589274,638.6386333339615,638.6302854589885,638.6311121669132,638.6386333339615,638.6386333339615,638.6386333339615,,643.0577292089583,,,,,,,,,,,,,,,,,,,,,,,,,,,,,,right,1.0,4.417489666026086,,,,,sub-112,1,random_dot,,
right,right,42.0,0.0,21.0,left,0.0,2.4967535830801357,,accuracy,space,45.32785716594663,,,,,,0.0,1.0,1.0,0.0,21.0,0.0,42.0,1.0,643.0670982499141,,,,,,,,,643.0585950840032,643.1476305839606,643.9490000839578,643.9404745419743,643.9410885419929,643.9490000839578,643.9490000839578,643.9490000839578,,646.4486920419149,,,,,,,,,,,,,,,,,,,,,,,,,,,,,,left,0.0,2.4967535830801357,,,,,sub-112,1,random_dot,,
left,left,43.0,1.0,21.0,left,1.0,1.8922140409704296,,accuracy,space,45.32785716594663,,,,,,0.0,1.0,1.0,0.0,21.0,1.0,43.0,0.0,646.4731739589479,,,,,,,,,646.4492965840036,646.7971664170036,647.5894083749736,647.5800593749154,647.5808656669687,647.5894083749736,647.5894083749736,647.5894083749736,,649.490521541913,,,,,,,,,,,,,,,,,,,,,,,,,,,,,,left,1.0,1.8922140409704296,,,,,sub-112,1,random_dot,,
left,left,44.0,0.0,22.0,left,1.0,2.487511415965855,,accuracy,space,45.32785716594663,,,,,,0.0,1.0,1.0,0.0,22.0,0.0,44.0,0.0,649.4983547090087,,,,,,,,,649.4910233749542,649.8295803749934,650.6220887919189,650.612230583909,650.6126638749847,650.6220887919189,650.6220887919189,650.6220887919189,,653.1138847499387,,,,,,,,,,,,,,,,,,,,,,,,,,,,,,left,1.0,2.487511415965855,,,,,sub-112,1,random_dot,,
right,right,45.0,1.0,22.0,left,0.0,3.3245067490497604,,accuracy,space,45.32785716594663,,,,,,0.0,1.0,1.0,0.0,22.0,1.0,45.0,1.0,653.1215639999136,,,,,,,,,653.1143806249602,653.2135847499594,654.0059596669162,653.9971122089773,653.9976537089096,654.0059596669162,654.0059596669162,654.0059596669162,,657.3421415420016,,,,,,,,,,,,,,,,,,,,,,,,,,,,,,left,0.0,3.3245067490497604,,,,,sub-112,1,random_dot,,
right,right,46.0,0.0,23.0,left,0.0,7.996051374007948,,accuracy,space,45.32785716594663,,,,,,0.0,1.0,1.0,0.0,23.0,0.0,46.0,1.0,657.348125499906,,,,,,,,,657.342786458903,658.5401287499117,659.3356278749416,659.3241122089094,659.3264015419409,659.3356278749416,659.3356278749416,659.3356278749416,664.3231216249987,667.3437692919979,,,,,,,,,,,,,,,,,,,,,,,,,,,,,,left,0.0,7.996051374007948,,,,,sub-112,1,random_dot,,
left,left,47.0,1.0,23.0,right,0.0,5.664767915965058,,accuracy,space,45.32785716594663,,,,,,0.0,1.0,1.0,0.0,23.0,1.0,47.0,0.0,667.3546013339655,,,,,,,,,667.3452121249866,667.4496099170065,668.2496553339297,668.240454541985,668.2417415420059,668.2496553339297,668.2496553339297,668.2496553339297,673.2397729589138,673.9242486249423,,,,,,,,,,,,,,,,,,,,,,,,,,,,,,right,0.0,5.664767915965058,,,,,sub-112,1,random_dot,,
right,right,48.0,0.0,24.0,right,1.0,5.547326582018286,,accuracy,space,45.32785716594663,,,,,,0.0,1.0,1.0,0.0,24.0,0.0,48.0,1.0,673.9331973749213,,,,,,,,,673.9250573340105,674.7235139589757,675.5157448749524,675.5066632919479,675.5075797499157,675.5157448749524,675.5157448749524,675.5157448749524,680.4953678339953,681.0673334168969,,,,,,,,,,,,,,,,,,,,,,,,,,,,,,right,1.0,5.547326582018286,,,,,sub-112,1,random_dot,,
left,left,49.0,1.0,24.0,left,1.0,5.388620082987472,,accuracy,space,45.32785716594663,,,,,,0.0,1.0,1.0,0.0,24.0,1.0,49.0,0.0,681.0773949169088,,,,,,,,,681.0686504169134,681.8646636249032,682.6732865839731,682.6568127089413,682.6576552499318,682.6732865839731,682.6732865839731,682.6732865839731,687.6562808749732,688.0664841670077,,,,,,,,,,,,,,,,,,,,,,,,,,,,,,left,1.0,5.388620082987472,,,,,sub-112,1,random_dot,,
left,left,50.0,0.0,25.0,left,1.0,2.971478332998231,,accuracy,space,45.32785716594663,,,,,,0.0,1.0,1.0,0.0,25.0,0.0,50.0,0.0,688.0763483339688,,,,,,,,,688.0678520419169,688.4122933339095,689.2088538749376,689.1984524589498,689.199521166971,689.2088538749376,689.2088538749376,689.2088538749376,,692.1916231249925,,,,,,,,,,,,,,,,,,,,,,,,,,,,,,left,1.0,2.971478332998231,,,,,sub-112,1,random_dot,,
right,right,51.0,1.0,25.0,right,1.0,4.464533749036491,,accuracy,space,45.32785716594663,,,,,,0.0,1.0,1.0,0.0,25.0,1.0,51.0,1.0,692.1972646669019,,,,,,,,,692.1921573749278,692.9896864169277,693.784149749903,693.7738427919103,693.7754082499305,693.784149749903,693.784149749903,693.784149749903,,698.2580695420038,,,,,,,,,,,,,,,,,,,,,,,,,,,,,,right,1.0,4.464533749036491,,,,,sub-112,1,random_dot,,
left,left,52.0,0.0,26.0,right,0.0,5.955690498929471,,accuracy,space,45.32785716594663,,,,,,0.0,1.0,1.0,0.0,26.0,0.0,52.0,0.0,698.265849999967,,,,,,,,,698.258912374964,699.4550162919331,700.2496856249636,700.2399578338955,700.2412784589687,700.2496856249636,700.2496856249636,700.2496856249636,705.2290297090076,706.209148041904,,,,,,,,,,,,,,,,,,,,,,,,,,,,,,right,0.0,5.955690498929471,,,,,sub-112,1,random_dot,,
right,right,53.0,1.0,26.0,left,0.0,4.863727665971965,,accuracy,space,45.32785716594663,,,,,,0.0,1.0,1.0,0.0,26.0,1.0,53.0,1.0,706.2226176249096,,,,,,,,,706.2103945419658,706.3060594999697,707.1064694589004,707.0905579999089,707.0914037089096,707.1064694589004,707.1064694589004,707.1064694589004,,711.9732744999928,,,,,,,,,,,,,,,,,,,,,,,,,,,,,,left,0.0,4.863727665971965,,,,,sub-112,1,random_dot,,
left,left,54.0,0.0,27.0,left,1.0,4.73171658301726,,accuracy,space,45.32785716594663,,,,,,0.0,1.0,1.0,0.0,27.0,0.0,54.0,0.0,711.9816207919503,,,,,,,,,711.9738717919681,713.1632983749732,713.9548937919317,713.9459878338967,713.9466359999496,713.9548937919317,713.9548937919317,713.9548937919317,,718.7085097499657,,,,,,,,,,,,,,,,,,,,,,,,,,,,,,left,1.0,4.73171658301726,,,,,sub-112,1,random_dot,,
right,right,55.0,1.0,27.0,left,0.0,3.090186749002896,,accuracy,space,45.32785716594663,,,,,,0.0,1.0,1.0,0.0,27.0,1.0,55.0,1.0,718.7177132499637,,,,,,,,,718.70954583399,719.9060825419147,720.6980228339089,720.6899863749277,720.6904980839463,720.6980228339089,720.6980228339089,720.6980228339089,,723.7901863749139,,,,,,,,,,,,,,,,,,,,,,,,,,,,,,left,0.0,3.090186749002896,,,,,sub-112,1,random_dot,,
left,left,56.0,0.0,28.0,right,0.0,4.620111832977273,,accuracy,space,45.32785716594663,,,,,,0.0,1.0,1.0,0.0,28.0,0.0,56.0,0.0,723.7990804169094,,,,,,,,,723.7911726249149,723.8797766249627,724.6719212919706,724.662901124917,724.6635247919476,724.6719212919706,724.6719212919706,724.6719212919706,,729.2994915419258,,,,,,,,,,,,,,,,,,,,,,,,,,,,,,right,0.0,4.620111832977273,,,,,sub-112,1,random_dot,,
right,right,57.0,1.0,28.0,right,1.0,2.941043666098267,,accuracy,space,45.32785716594663,,,,,,0.0,1.0,1.0,0.0,28.0,1.0,57.0,1.0,729.3089185419958,,,,,,,,,729.3008242499782,729.647896584007,730.4483104589162,730.4397867089137,730.4404901670059,730.4483104589162,730.4483104589162,730.4483104589162,,733.3990814998979,,,,,,,,,,,,,,,,,,,,,,,,,,,,,,right,1.0,2.941043666098267,,,,,sub-112,1,random_dot,,
left,left,58.0,0.0,29.0,right,0.0,2.119943541008979,,accuracy,space,45.32785716594663,,,,,,0.0,1.0,1.0,0.0,29.0,0.0,58.0,0.0,733.4046259589959,,,,,,,,,733.3996308749774,734.1966575419065,734.9983621248975,734.9898082499858,734.9907436670037,734.9983621248975,734.9983621248975,734.9983621248975,,737.1239800839685,,,,,,,,,,,,,,,,,,,,,,,,,,,,,,right,0.0,2.119943541008979,,,,,sub-112,1,random_dot,,
right,right,59.0,1.0,29.0,right,1.0,2.500419831951149,,accuracy,space,45.32785716594663,,,,,,0.0,1.0,1.0,0.0,29.0,1.0,59.0,1.0,737.1332401249092,,,,,,,,,737.1249061669223,737.4724729169393,738.2657450839179,738.2564169589896,738.2572638749843,738.2657450839179,738.2657450839179,738.2657450839179,,740.7727573339362,,,,,,,,,,,,,,,,,,,,,,,,,,,,,,right,1.0,2.500419831951149,,,,,sub-112,1,random_dot,,
,,1.0,1.0,0.0,,,,,accuracy,space,45.32785716594663,,,,,,0.0,1.0,1.0,0.0,,,,,,,,,,,,,,,,,,,,,,,,,,,,,,,,,,,,,,,,,,,,,,,,,,,,,,,,,,,,sub-112,1,random_dot,,
,,,,,,,,,,,,,,,,,,,,,,,,,,,,,,,,,,,,,,,,,,,,,,,,,,,,,,,,,,,,,,,,,,,,,,,,,,,,,740.7844061249634,740.7937909999164,745.7785371670034,sub-112,1,random_dot,,
