direction,corrAns,randomInstr,practice_trials.thisRepN,practice_trials.thisTrialN,practice_trials.thisN,practice_trials.thisIndex,instr_trials.thisRepN,instr_trials.thisTrialN,instr_trials.thisN,instr_trials.thisIndex,test_trials.thisRepN,test_trials.thisTrialN,test_trials.thisN,test_trials.thisIndex,thisRow.t,notes,general_instruction.started,textGeneralInstr.started,respGeneralInstr.started,general_instruction.stopped,respGeneralInstr.keys,respGeneralInstr.rt,respGeneralInstr.duration,ITI.started,fixcross.started,fixcross.stopped,ITI.stopped,dots.started,backgroundDots.started,stimulusDots.started,respDots.started,dots.stopped,respDots.keys,respDots.corr,respDots.rt,respDots.duration,feedback.started,textFeedback.started,feedback.stopped,textFeedback.stopped,info.started,textInfo.started,keyRespInfo.started,info.stopped,keyRespInfo.keys,keyRespInfo.rt,keyRespInfo.duration,test_instruction.started,textTestInstr.started,respTestInstr.started,test_instruction.stopped,respTestInstr.keys,respTestInstr.rt,respTestInstr.duration,random_instruction.started,textRandomInstr.started,respRandomInstr.started,random_instruction.stopped,respRandomInstr.keys,respRandomInstr.rt,respRandomInstr.duration,goodbye.started,textGoodbye.started,participant,session,expName,frameRate,Unnamed: 71
,,,,,,,,,,,,,,,,,0.0182064000036916,0.0235933000003569,0.0235933000003569,14.989644900000712,space,31.59226579999813,,,,,,,,,,,,,,,,,,,,,,,,,,,,,,,,,,,,,,,,,,sub-020,1.0,random_dot,59.92900809713151,
right,right,,0.0,0.0,0.0,1.0,,,,,,,,,15.004595500002324,,,,,,,,,14.999136800004637,16.204172100005962,17.00456960000156,16.987516799999867,16.987534400002914,17.00456960000156,17.00456960000156,17.00456960000156,17.788285900001938,right,1.0,17.408246999999392,,17.792251000006218,17.804438400002255,18.303213099999997,,,,,,,,,,,,,,,,,,,,,,,,,sub-020,1.0,random_dot,59.92900809713151,
left,left,,0.0,1.0,1.0,0.0,,,,,,,,,18.31944150000345,,,,,,,,,18.30364120000013,18.6526887,19.453192600005423,19.43616330000077,19.436178900003146,19.453192600005423,19.453192600005423,19.453192600005423,19.754079500002263,left,1.0,16.91655200000241,,19.754535200001555,19.768377899999905,20.252301700005773,20.268143600005715,,,,,,,,,,,,,,,,,,,,,,,,sub-020,1.0,random_dot,59.92900809713151,
left,left,,1.0,0.0,2.0,0.0,,,,,,,,,20.268143600005715,,,,,,,,,20.25264480000624,20.61798980000458,21.418652300002577,21.401317100004235,21.40133380000043,21.418652300002577,21.418652300002577,21.418652300002577,21.93578250000428,right,0.0,17.132004099999904,,21.936207200000357,21.95049180000205,22.434062400003317,22.45016890000261,,,,,,,,,,,,,,,,,,,,,,,,sub-020,1.0,random_dot,59.92900809713151,
right,right,,1.0,1.0,3.0,1.0,,,,,,,,,22.45016890000261,,,,,,,,,22.434379800004532,23.64934190000349,24.44974010000442,24.43251980000059,24.432537700005923,24.44974010000442,24.44974010000442,24.44974010000442,25.05034990000422,right,1.0,17.226257700000133,,25.05078979999962,25.064855800002988,25.54919840000366,25.564695500004746,,,,,,,,,,,,,,,,,,,,,,,,sub-020,1.0,random_dot,59.92900809713151,
right,right,,2.0,0.0,4.0,1.0,,,,,,,,,25.564695500004746,,,,,,,,,25.549525800000996,25.66456660000404,26.46540960000129,26.44832740000129,26.448343500000192,26.46540960000129,26.46540960000129,26.46540960000129,27.24908570000116,right,1.0,17.396425300001283,,27.24951069999952,27.26353519999975,27.747676099999808,27.763685700003407,,,,,,,,,,,,,,,,,,,,,,,,sub-020,1.0,random_dot,59.92900809713151,
left,left,,2.0,1.0,5.0,0.0,,,,,,,,,27.763685700003407,,,,,,,,,27.748000800005684,28.962758500005293,29.76304450000316,29.745950500000617,29.74596670000028,29.76304450000316,29.76304450000316,29.76304450000316,30.38117280000006,left,1.0,17.23970410000038,,30.38160450000578,30.39508050000586,30.87886900000012,30.89462440000352,,,,,,,,,,,,,,,,,,,,,,,,sub-020,1.0,random_dot,59.92900809713151,
left,left,,3.0,0.0,6.0,0.0,,,,,,,,,30.89462440000352,,,,,,,,,30.87924010000279,31.24487720000616,32.04514210000343,32.02849060000153,32.02850690000196,32.04514210000343,32.04514210000343,32.04514210000343,32.879054500001075,right,0.0,17.448212399998738,,32.879527800003416,32.89358500000526,33.37735100000282,33.39307640000334,,,,,,,,,,,,,,,,,,,,,,,,sub-020,1.0,random_dot,59.92900809713151,
right,right,,3.0,1.0,7.0,1.0,,,,,,,,,33.39307640000334,,,,,,,,,33.377685100000235,33.49307930000214,34.293517500002054,34.277451500005554,34.27746770000522,34.293517500002054,34.293517500002054,34.293517500002054,35.21056740000495,right,1.0,17.535432800003036,,35.21099500000128,35.22525840000162,35.708881600003224,35.7247467000052,,,,,,,,,,,,,,,,,,,,,,,,sub-020,1.0,random_dot,59.92900809713151,
right,right,,4.0,0.0,8.0,1.0,,,,,,,,,35.7247467000052,,,,,,,,,35.70923700000276,35.82474980000552,36.62592220000079,36.608726000005845,36.60874250000052,36.62592220000079,36.62592220000079,36.62592220000079,37.57635160000064,right,1.0,17.57724749999761,,37.57678800000576,37.59031859999959,38.07403680000425,38.09025020000263,,,,,,,,,,,,,,,,,,,,,,,,sub-020,1.0,random_dot,59.92900809713151,
left,left,,4.0,1.0,9.0,0.0,,,,,,,,,38.09025020000263,,,,,,,,,38.074354700002,38.88965490000555,39.68998560000182,39.67280230000324,39.67282030000206,39.68998560000182,39.68998560000182,39.68998560000182,40.490630899999815,right,0.0,17.42270109999663,,40.4910658000008,40.50527829999919,40.98909410000488,41.00492920000397,,,,,,,,,,,,,,,,,,,,,,,,sub-020,1.0,random_dot,59.92900809713151,
right,right,,5.0,0.0,10.0,1.0,,,,,,,,,41.00492920000397,,,,,,,,,40.98944210000627,41.10477309999988,41.9054757000049,41.88912669999991,41.88914270000532,41.9054757000049,41.9054757000049,41.9054757000049,42.97229650000372,right,1.0,17.680979199998546,,42.972749600005045,42.98687610000343,43.47087590000592,43.48685280000064,,,,,,,,,,,,,,,,,,,,,,,,sub-020,1.0,random_dot,59.92900809713151,
left,left,,5.0,1.0,11.0,0.0,,,,,,,,,43.48685280000064,,,,,,,,,43.47120800000266,44.685883800004376,45.48669599999994,45.46933640000498,45.46935240000312,45.48669599999994,45.48669599999994,45.48669599999994,46.35400930000469,left,1.0,17.47853980000218,,46.3545660000018,46.36813680000341,46.85226020000118,46.86796529999992,,,,,,,,,,,,,,,,,,,,,,,,sub-020,1.0,random_dot,59.92900809713151,
left,left,,6.0,0.0,12.0,0.0,,,,,,,,,46.86796529999992,,,,,,,,,46.85258070000418,47.21763720000308,48.01828350000142,48.00165430000197,48.00167540000257,48.01828350000142,48.01828350000142,48.01828350000142,48.73560110000108,right,0.0,17.335348000000522,,48.73602450000181,48.75026459999936,49.2340181000036,49.24992380000185,,,,,,,,,,,,,,,,,,,,,,,,sub-020,1.0,random_dot,59.92900809713151,
right,right,,6.0,1.0,13.0,1.0,,,,,,,,,49.24992380000185,,,,,,,,,49.23434970000381,50.04940120000538,50.84962010000163,50.83269870000368,50.8327214000019,50.84962010000163,50.84962010000163,50.84962010000163,51.41728700000385,right,1.0,17.185018399999535,,51.417704100000265,51.43197770000552,51.91530700000294,51.93146970000089,,,,,,,,,,,,,,,,,,,,,,,,sub-020,1.0,random_dot,59.92900809713151,
right,right,,7.0,0.0,14.0,1.0,,,,,,,,,51.93146970000089,,,,,,,,,51.91563130000577,52.73067020000599,53.53132349999942,53.51421780000237,53.514236700000765,53.53132349999942,53.53132349999942,53.53132349999942,54.01544439999998,right,1.0,17.10621180000453,,54.01587040000595,54.03014090000215,54.51378880000266,54.52971140000591,,,,,,,,,,,,,,,,,,,,,,,,sub-020,1.0,random_dot,59.92900809713151,
left,left,,7.0,1.0,15.0,0.0,,,,,,,,,54.52971140000591,,,,,,,,,54.51412300000084,54.629869100004726,55.44686130000628,55.42994090000138,55.42995910000173,55.44686130000628,55.44686130000628,55.44686130000628,55.7644386000029,left,1.0,16.928988800005754,,55.76485450000473,55.77910420000262,56.26294510000298,56.27857439999934,,,,,,,,,,,,,,,,,,,,,,,,sub-020,1.0,random_dot,59.92900809713151,
right,right,,8.0,0.0,16.0,1.0,,,,,,,,,56.27857439999934,,,,,,,,,56.263305300002685,56.3785754000055,57.179032600004575,57.16216250000434,57.16218510000181,57.179032600004575,57.179032600004575,57.179032600004575,57.28039750000608,left,0.0,16.7204944000041,,57.28081360000215,57.2947473000022,57.77841210000042,57.794434200004616,,,,,,,,,,,,,,,,,,,,,,,,sub-020,1.0,random_dot,59.92900809713151,
left,left,,8.0,1.0,17.0,0.0,,,,,,,,,57.794434200004616,,,,,,,,,57.778734300001815,57.894150300002366,58.69467050000094,58.67790249999962,58.67791840000427,58.69467050000094,58.69467050000094,58.69467050000094,59.21185510000214,right,0.0,17.12979450000421,,59.21228610000253,59.22660259999975,59.71050580000156,59.72616879999987,,,,,,,,,,,,,,,,,,,,,,,,sub-020,1.0,random_dot,59.92900809713151,
left,left,,9.0,0.0,18.0,0.0,,,,,,,,,59.72616879999987,,,,,,,,,59.710916399999405,59.82662390000041,60.62706230000185,60.60973070000182,60.60975049999979,60.62706230000185,60.62706230000185,60.62706230000185,61.72732209999958,right,0.0,17.719441299996106,,61.72774130000471,61.74200840000413,62.22591359999933,62.24172879999969,,,,,,,,,,,,,,,,,,,,,,,,sub-020,1.0,random_dot,59.92900809713151,
right,right,,9.0,1.0,19.0,1.0,,,,,,,,,62.24172879999969,,,,,,,,,62.226267400001234,62.591519900001,63.39193119999982,63.3747799000048,63.37480530000175,63.39193119999982,63.39193119999982,63.39193119999982,64.12584070000594,right,1.0,17.35989249999693,,64.12627250000514,64.14045410000108,64.62402390000352,64.63996120000229,,,,,,,,,,,,,,,,,,,,,,,,sub-020,1.0,random_dot,59.92900809713151,
,,,,,,,,,,,,,,,,,,,,,,,,,,,,,,,,,,,,,,,,,64.62407969999913,64.63996120000229,64.63996120000229,66.989831400002,space,18.972889500000747,,,,,,,,,,,,,,,,,,sub-020,1.0,random_dot,59.92900809713151,
,,,,,,,,,,,,,,,,,,,,,,,,,,,,,,,,,,,,,,,,,,,,,,,,66.98985770000581,67.00553729999956,67.00553729999956,70.58731280000211,space,20.201351499999877,,,,,,,,,,,sub-020,1.0,random_dot,59.92900809713151,
left,left,accuracy,,,,,0.0,0.0,0.0,0.0,0.0,0.0,0.0,0.0,71.60209320000286,,,,,,,,,71.59258920000138,72.40143150000222,73.20210710000538,73.18557350000629,73.18559160000586,73.20210710000538,73.20210710000538,73.20210710000538,74.45288920000166,right,0.0,17.875124800004414,,,,,,,,,,,,,,,,,,,,70.59030120000534,70.60785820000456,70.60785820000456,71.58697970000503,space,17.604482499998994,,,,sub-020,1.0,random_dot,59.92900809713151,
right,right,accuracy,,,,,0.0,0.0,0.0,0.0,0.0,1.0,1.0,1.0,74.46694820000266,,,,,,,,,74.45392830000492,75.26665140000114,76.06718810000166,76.05012200000056,76.05014550000487,76.06718810000166,76.06718810000166,76.06718810000166,77.20056640000257,right,1.0,17.75474409999879,,,,,,,,,,,,,,,,,,,,,,,,,,,,,sub-020,1.0,random_dot,59.92900809713151,
left,left,accuracy,,,,,0.0,0.0,0.0,0.0,1.0,0.0,2.0,0.0,77.21539260000282,,,,,,,,,77.20147420000285,78.41444870000123,79.21502220000548,79.19814820000465,79.19817300000432,79.21502220000548,79.21502220000548,79.21502220000548,80.64853399999993,left,1.0,18.048069600001327,,,,,,,,,,,,,,,,,,,,,,,,,,,,,sub-020,1.0,random_dot,59.92900809713151,
right,right,accuracy,,,,,0.0,0.0,0.0,0.0,1.0,1.0,3.0,1.0,80.66327799999999,,,,,,,,,80.64937250000366,81.46295620000456,82.26306720000139,82.24605720000545,82.2460732000036,82.26306720000139,82.26306720000139,82.26306720000139,84.24611640000512,right,1.0,18.596084299999347,,,,,,,,,,,,,,,,,,,,,,,,,,,,,sub-020,1.0,random_dot,59.92900809713151,
left,left,accuracy,,,,,0.0,0.0,0.0,0.0,2.0,0.0,4.0,0.0,84.26076029999967,,,,,,,,,84.24700040000607,85.06108740000491,85.87763000000268,85.86105210000096,85.86107540000376,85.87763000000268,85.87763000000268,85.87763000000268,87.22787880000396,left,1.0,17.969455799997377,,,,,,,,,,,,,,,,,,,,,,,,,,,,,sub-020,1.0,random_dot,59.92900809713151,
right,right,accuracy,,,,,0.0,0.0,0.0,0.0,2.0,1.0,5.0,1.0,87.24235540000518,,,,,,,,,87.22867140000017,87.59188700000232,88.39251080000395,88.37571540000499,88.37574290000339,88.39251080000395,88.39251080000395,88.39251080000395,89.12657450000552,right,1.0,17.35912790000293,,,,,,,,,,,,,,,,,,,,,,,,,,,,,sub-020,1.0,random_dot,59.92900809713151,
left,left,accuracy,,,,,0.0,0.0,0.0,0.0,3.0,0.0,6.0,0.0,89.14117719999922,,,,,,,,,89.12739169999986,89.490959200004,90.2916311000008,90.27452190000622,90.27454190000572,90.2916311000008,90.2916311000008,90.2916311000008,92.40806890000384,left,1.0,18.72807599999942,,,,,,,,,,,,,,,,,,,,,,,,,,,,,sub-020,1.0,random_dot,59.92900809713151,
right,right,accuracy,,,,,0.0,0.0,0.0,0.0,3.0,1.0,7.0,1.0,92.42226959999972,,,,,,,,,92.40887530000327,92.7721043000056,93.57264950000535,93.55569470000046,93.55571939999936,93.57264950000535,93.57264950000535,93.57264950000535,95.20603820000542,right,1.0,18.25944349999918,,,,,,,,,,,,,,,,,,,,,,,,,,,,,sub-020,1.0,random_dot,59.92900809713151,
left,left,accuracy,,,,,0.0,0.0,0.0,0.0,4.0,0.0,8.0,0.0,95.22046310000589,,,,,,,,,95.20686690000002,95.57041300000128,96.3705637000021,96.353683500005,96.35370270000568,96.3705637000021,96.3705637000021,96.3705637000021,98.08752350000576,left,1.0,18.33369870000024,,,,,,,,,,,,,,,,,,,,,,,,,,,,,sub-020,1.0,random_dot,59.92900809713151,
right,right,accuracy,,,,,0.0,0.0,0.0,0.0,4.0,1.0,9.0,1.0,98.1021185999998,,,,,,,,,98.08836780000274,99.3011084000027,100.10173310000393,100.084918200002,100.08494250000513,100.10173310000393,100.10173310000393,100.10173310000393,101.18518760000006,right,1.0,17.708726299999398,,,,,,,,,,,,,,,,,,,,,,,,,,,,,sub-020,1.0,random_dot,59.92900809713151,
right,right,accuracy,,,,,0.0,0.0,0.0,0.0,5.0,0.0,10.0,1.0,101.19986160000552,,,,,,,,,101.18604900000356,101.99967430000106,102.80024989999949,102.78321649999998,102.7832339000015,102.80024989999949,102.80024989999949,102.80024989999949,104.41648450000504,left,0.0,18.23293840000406,,,,,,,,,,,,,,,,,,,,,,,,,,,,,sub-020,1.0,random_dot,59.92900809713151,
left,left,accuracy,,,,,0.0,0.0,0.0,0.0,5.0,1.0,11.0,0.0,104.43137260000368,,,,,,,,,104.41731280000386,104.53129810000246,105.33182900000249,105.31475450000288,105.31477260000248,105.33182900000249,105.33182900000249,105.33182900000249,107.61474750000345,left,1.0,18.90306520000013,,,,,,,,,,,,,,,,,,,,,,,,,,,,,sub-020,1.0,random_dot,59.92900809713151,
right,right,accuracy,,,,,0.0,0.0,0.0,0.0,6.0,0.0,12.0,1.0,107.62921280000592,,,,,,,,,107.615824600005,107.72927370000252,108.5300098000007,108.51255050000329,108.5125668000037,108.5300098000007,108.5300098000007,108.5300098000007,109.5970984000014,right,1.0,17.682235400003265,,,,,,,,,,,,,,,,,,,,,,,,,,,,,sub-020,1.0,random_dot,59.92900809713151,
left,left,accuracy,,,,,0.0,0.0,0.0,0.0,6.0,1.0,13.0,0.0,109.61142540000584,,,,,,,,,109.59789720000116,110.41069860000424,111.21147400000336,111.19465730000228,111.19467360000272,111.21147400000336,111.21147400000336,111.21147400000336,112.27873450000334,right,0.0,17.68134899999859,,,,,,,,,,,,,,,,,,,,,,,,,,,,,sub-020,1.0,random_dot,59.92900809713151,
right,right,accuracy,,,,,0.0,0.0,0.0,0.0,7.0,0.0,14.0,1.0,112.29318950000015,,,,,,,,,112.27952780000489,112.39288230000238,113.1932608000061,113.1763018000056,113.1763185000018,113.1932608000061,113.1932608000061,113.1932608000061,114.26027640000392,left,0.0,17.687532900003134,,,,,,,,,,,,,,,,,,,,,,,,,,,,,sub-020,1.0,random_dot,59.92900809713151,
left,left,accuracy,,,,,0.0,0.0,0.0,0.0,7.0,1.0,15.0,0.0,114.27493060000415,,,,,,,,,114.26108980000572,114.62480080000388,115.4253258000026,115.40819150000608,115.4082131000032,115.4253258000026,115.4253258000026,115.4253258000026,116.326095000004,left,1.0,17.521267300006002,,,,,,,,,,,,,,,,,,,,,,,,,,,,,sub-020,1.0,random_dot,59.92900809713151,
right,right,accuracy,,,,,0.0,0.0,0.0,0.0,8.0,0.0,16.0,1.0,116.3402611000056,,,,,,,,,116.32697760000156,116.6902665000016,117.49096580000332,117.474111800002,117.47412959999927,117.49096580000332,117.49096580000332,117.49096580000332,118.62495470000432,right,1.0,17.745201599995198,,,,,,,,,,,,,,,,,,,,,,,,,,,,,sub-020,1.0,random_dot,59.92900809713151,
left,left,accuracy,,,,,0.0,0.0,0.0,0.0,8.0,1.0,17.0,0.0,118.63910000000033,,,,,,,,,118.62573580000026,119.83836910000537,120.63876159999928,120.6218305000002,120.62184669999988,120.63876159999928,120.63876159999928,120.63876159999928,121.72241400000348,left,1.0,17.701730200002203,,,,,,,,,,,,,,,,,,,,,,,,,,,,,sub-020,1.0,random_dot,59.92900809713151,
left,left,accuracy,,,,,0.0,0.0,0.0,0.0,9.0,0.0,18.0,0.0,121.73698250000598,,,,,,,,,121.72325439999986,122.53664470000513,123.3372589999999,123.3198682000002,123.3198837000018,123.3372589999999,123.3372589999999,123.3372589999999,125.07015410000167,right,0.0,18.344458400002623,,,,,,,,,,,,,,,,,,,,,,,,,,,,,sub-020,1.0,random_dot,59.92900809713151,
right,right,accuracy,,,,,0.0,0.0,0.0,0.0,9.0,1.0,19.0,1.0,125.08488080000096,,,,,,,,,125.07094430000144,125.4347132000039,126.23497560000396,126.21833329999936,126.2183559000041,126.23497560000396,126.23497560000396,126.23497560000396,128.75172640000528,right,1.0,19.13249120000546,,,,,,,,,,,,,,,,,,,,,,,,,,,,,sub-020,1.0,random_dot,59.92900809713151,
right,right,accuracy,,,,,0.0,0.0,0.0,0.0,10.0,0.0,20.0,1.0,128.76607250000234,,,,,,,,,128.75260930000513,129.96516130000236,130.76543030000175,130.74841000000015,130.7484248000037,130.76543030000175,130.76543030000175,130.76543030000175,132.39898350000294,left,0.0,18.258546500001103,,,,,,,,,,,,,,,,,,,,,,,,,,,,,sub-020,1.0,random_dot,59.92900809713151,
left,left,accuracy,,,,,0.0,0.0,0.0,0.0,10.0,1.0,21.0,0.0,132.4137486000036,,,,,,,,,132.39990670000407,133.61274960000446,134.41320590000396,134.39642820000154,134.3964479999995,134.41320590000396,134.41320590000396,134.41320590000396,135.66370040000038,left,1.0,17.863364699995145,,,,,,,,,,,,,,,,,,,,,,,,,,,,,sub-020,1.0,random_dot,59.92900809713151,
left,left,accuracy,,,,,0.0,0.0,0.0,0.0,11.0,0.0,22.0,0.0,135.6782802000016,,,,,,,,,135.66449990000547,136.87770230000024,137.67777470000146,137.66095889999997,137.66097509999963,137.67777470000146,137.67777470000146,137.67777470000146,139.1777629000062,left,1.0,18.112582399997336,,,,,,,,,,,,,,,,,,,,,,,,,,,,,sub-020,1.0,random_dot,59.92900809713151,
right,right,accuracy,,,,,0.0,0.0,0.0,0.0,11.0,1.0,23.0,1.0,139.19246679999924,,,,,,,,,139.17873160000454,139.2928222000046,140.09301210000558,140.076284200004,140.07630350000545,140.09301210000558,140.09301210000558,140.09301210000558,141.4597697000063,right,1.0,17.989560000001802,,,,,,,,,,,,,,,,,,,,,,,,,,,,,sub-020,1.0,random_dot,59.92900809713151,
right,right,accuracy,,,,,0.0,0.0,0.0,0.0,12.0,0.0,24.0,1.0,141.47428170000055,,,,,,,,,141.4605773000003,141.57435790000454,142.37518470000214,142.35834050000267,142.35836120000022,142.37518470000214,142.37518470000214,142.37518470000214,144.09159920000093,right,1.0,18.32983360000071,,,,,,,,,,,,,,,,,,,,,,,,,,,,,sub-020,1.0,random_dot,59.92900809713151,
left,left,accuracy,,,,,0.0,0.0,0.0,0.0,12.0,1.0,25.0,0.0,144.1061664000008,,,,,,,,,144.09260429999995,144.90572249999968,145.70637120000174,145.68927620000613,145.6892927000008,145.70637120000174,145.70637120000174,145.70637120000174,147.1730877000009,left,1.0,18.089849500000128,,,,,,,,,,,,,,,,,,,,,,,,,,,,,sub-020,1.0,random_dot,59.92900809713151,
right,right,accuracy,,,,,0.0,0.0,0.0,0.0,13.0,0.0,26.0,1.0,147.18749790000584,,,,,,,,,147.17404589999933,147.98709110000345,148.78759880000143,148.77060970000457,148.77062610000576,148.78759880000143,148.78759880000143,148.78759880000143,150.00463100000343,right,1.0,17.841344500004197,,,,,,,,,,,,,,,,,,,,,,,,,,,,,sub-020,1.0,random_dot,59.92900809713151,
left,left,accuracy,,,,,0.0,0.0,0.0,0.0,13.0,1.0,27.0,0.0,150.01887960000022,,,,,,,,,150.00542649999988,150.1190315999993,150.91947749999963,150.9025438000026,150.90255969999998,150.91947749999963,150.91947749999963,150.91947749999963,153.36913020000063,left,1.0,19.062176600004022,,,,,,,,,,,,,,,,,,,,,,,,,,,,,sub-020,1.0,random_dot,59.92900809713151,
right,right,accuracy,,,,,0.0,0.0,0.0,0.0,14.0,0.0,28.0,1.0,153.3834891000006,,,,,,,,,153.37028429999918,153.4835230000026,154.2838816000003,154.26718550000078,154.26721270000417,154.2838816000003,154.2838816000003,154.2838816000003,156.58366980000574,left,0.0,18.92269099999976,,,,,,,,,,,,,,,,,,,,,,,,,,,,,sub-020,1.0,random_dot,59.92900809713151,
left,left,accuracy,,,,,0.0,0.0,0.0,0.0,14.0,1.0,29.0,0.0,156.5981455000001,,,,,,,,,156.58446910000202,157.79748739999923,158.5979324,158.58116100000188,158.58117700000005,158.5979324,158.5979324,158.5979324,160.71441530000448,left,1.0,18.73358919999737,,,,,,,,,,,,,,,,,,,,,,,,,,,,,sub-020,1.0,random_dot,59.92900809713151,
left,left,accuracy,,,,,0.0,0.0,0.0,0.0,15.0,0.0,30.0,0.0,160.72890120000375,,,,,,,,,160.7152156000011,160.82932010000513,161.6295470000041,161.61242800000036,161.6124448000046,161.6295470000041,161.6295470000041,161.6295470000041,163.5293021000034,left,1.0,18.5110457999981,,,,,,,,,,,,,,,,,,,,,,,,,,,,,sub-020,1.0,random_dot,59.92900809713151,
right,right,accuracy,,,,,0.0,0.0,0.0,0.0,15.0,1.0,31.0,1.0,163.54375120000623,,,,,,,,,163.53010670000367,164.74299109999993,165.5433944000033,165.5264554000023,165.52647640000214,165.5433944000033,165.5433944000033,165.5433944000033,167.89312780000182,left,0.0,18.965298000002804,,,,,,,,,,,,,,,,,,,,,,,,,,,,,sub-020,1.0,random_dot,59.92900809713151,
right,right,accuracy,,,,,0.0,0.0,0.0,0.0,16.0,0.0,32.0,1.0,167.9079392000058,,,,,,,,,167.89400680000108,168.00770660000126,168.8081886,168.79114320000372,168.7911596000049,168.8081886,168.8081886,168.8081886,170.6248928000059,right,1.0,18.43091280000226,,,,,,,,,,,,,,,,,,,,,,,,,,,,,sub-020,1.0,random_dot,59.92900809713151,
left,left,accuracy,,,,,0.0,0.0,0.0,0.0,16.0,1.0,33.0,0.0,170.6392460000061,,,,,,,,,170.62569720000465,171.43894620000356,172.2392106000043,172.2220610000004,172.22208390000014,172.2392106000043,172.2392106000043,172.2392106000043,174.10634450000362,left,1.0,18.491440599995254,,,,,,,,,,,,,,,,,,,,,,,,,,,,,sub-020,1.0,random_dot,59.92900809713151,
left,left,accuracy,,,,,0.0,0.0,0.0,0.0,17.0,0.0,34.0,0.0,174.12036880000232,,,,,,,,,174.10714170000574,174.22023099999933,175.02069160000246,175.0037572000001,175.00377450000087,175.02069160000246,175.02069160000246,175.02069160000246,177.03737760000513,left,1.0,18.64267199999449,,,,,,,,,,,,,,,,,,,,,,,,,,,,,sub-020,1.0,random_dot,59.92900809713151,
right,right,accuracy,,,,,0.0,0.0,0.0,0.0,17.0,1.0,35.0,1.0,177.05197390000103,,,,,,,,,177.03816410000582,177.85131920000276,178.6522146999996,178.63490830000228,178.63492480000423,178.6522146999996,178.6522146999996,178.6522146999996,180.4182677999997,right,1.0,18.38560519999737,,,,,,,,,,,,,,,,,,,,,,,,,,,,,sub-020,1.0,random_dot,59.92900809713151,
right,right,accuracy,,,,,0.0,0.0,0.0,0.0,18.0,0.0,36.0,1.0,180.43288510000275,,,,,,,,,180.41911690000416,181.23265530000208,182.03304620000563,182.01627650000592,182.0163018000021,182.03304620000563,182.03304620000563,182.03304620000563,183.8495918000044,left,0.0,18.44255780000094,,,,,,,,,,,,,,,,,,,,,,,,,,,,,sub-020,1.0,random_dot,59.92900809713151,
left,left,accuracy,,,,,0.0,0.0,0.0,0.0,18.0,1.0,37.0,0.0,183.8640200000009,,,,,,,,,183.8504161000019,184.21374970000036,185.0144776000016,184.99819800000117,184.99821820000216,185.0144776000016,185.0144776000016,185.0144776000016,187.38108130000185,right,0.0,18.99089770000137,,,,,,,,,,,,,,,,,,,,,,,,,,,,,sub-020,1.0,random_dot,59.92900809713151,
right,right,accuracy,,,,,0.0,0.0,0.0,0.0,19.0,0.0,38.0,1.0,187.3954070000036,,,,,,,,,187.3819059000016,187.74495140000363,188.5456726000048,188.52870930000063,188.5287348000056,188.5456726000048,188.5456726000048,188.5456726000048,190.5119330000016,left,0.0,18.58549280000443,,,,,,,,,,,,,,,,,,,,,,,,,,,,,sub-020,1.0,random_dot,59.92900809713151,
left,left,accuracy,,,,,0.0,0.0,0.0,0.0,19.0,1.0,39.0,0.0,190.52708610000263,,,,,,,,,190.51279060000525,191.32598800000412,192.12660030000552,192.1095686000044,192.10959160000493,192.12660030000552,192.12660030000552,192.12660030000552,193.80981520000205,right,0.0,18.29965679999441,,,,,,,,,,,,,,,,,,,,,,,,,,,,,sub-020,1.0,random_dot,59.92900809713151,
left,left,accuracy,,,,,0.0,0.0,0.0,0.0,20.0,0.0,40.0,0.0,193.8245456000004,,,,,,,,,193.81064360000164,194.6238971999992,195.4245177000048,195.4073879000061,195.4074044000008,195.4245177000048,195.4245177000048,195.4245177000048,198.1070419000025,right,0.0,19.29861510000046,,,,,,,,,,,,,,,,,,,,,,,,,,,,,sub-020,1.0,random_dot,59.92900809713151,
right,right,accuracy,,,,,0.0,0.0,0.0,0.0,20.0,1.0,41.0,1.0,198.12165240000468,,,,,,,,,198.1080812,198.47152970000025,199.2721437,199.25504890000596,199.2550679000051,199.2721437,199.2721437,199.2721437,201.10519449999995,right,1.0,18.444959100001142,,,,,,,,,,,,,,,,,,,,,,,,,,,,,sub-020,1.0,random_dot,59.92900809713151,
right,right,accuracy,,,,,0.0,0.0,0.0,0.0,21.0,0.0,42.0,1.0,201.1198491000032,,,,,,,,,201.10606250000276,201.21977960000368,202.02030419999937,202.0033279000054,202.00335210000048,202.02030419999937,202.02030419999937,202.02030419999937,203.5205358000021,left,0.0,18.120172800001452,,,,,,,,,,,,,,,,,,,,,,,,,,,,,sub-020,1.0,random_dot,59.92900809713151,
left,left,accuracy,,,,,0.0,0.0,0.0,0.0,21.0,1.0,43.0,0.0,203.5349753000046,,,,,,,,,203.5213644000032,204.3344930000021,205.13502690000317,205.1178405000028,205.1178577000028,205.13502690000317,205.13502690000317,205.13502690000317,206.96815659999996,left,1.0,18.45403559999977,,,,,,,,,,,,,,,,,,,,,,,,,,,,,sub-020,1.0,random_dot,59.92900809713151,
right,right,accuracy,,,,,0.0,0.0,0.0,0.0,22.0,0.0,44.0,1.0,206.9827449000004,,,,,,,,,206.9689660000004,208.1819856000002,208.98254740000263,208.9655507999996,208.96557100000064,208.98254740000263,208.98254740000263,208.98254740000263,209.9830770000044,right,1.0,17.618669399998907,,,,,,,,,,,,,,,,,,,,,,,,,,,,,sub-020,1.0,random_dot,59.92900809713151,
left,left,accuracy,,,,,0.0,0.0,0.0,0.0,22.0,1.0,45.0,0.0,209.99745570000232,,,,,,,,,209.98393030000443,210.34727199999907,211.14800640000607,211.1307032000041,211.1307192000022,211.14800640000607,211.14800640000607,211.14800640000607,212.71457790000568,left,1.0,18.184873199999856,,,,,,,,,,,,,,,,,,,,,,,,,,,,,sub-020,1.0,random_dot,59.92900809713151,
left,left,accuracy,,,,,0.0,0.0,0.0,0.0,23.0,0.0,46.0,0.0,212.72919360000375,,,,,,,,,212.71543100000417,212.82916540000588,213.62960350000503,213.6125528000048,213.6125691000052,213.62960350000503,213.62960350000503,213.62960350000503,215.27949540000557,left,1.0,18.261030699999537,,,,,,,,,,,,,,,,,,,,,,,,,,,,,sub-020,1.0,random_dot,59.92900809713151,
right,right,accuracy,,,,,0.0,0.0,0.0,0.0,23.0,1.0,47.0,1.0,215.29407800000627,,,,,,,,,215.2804806999993,215.64381430000503,216.4444724000059,216.4274360000054,216.42745339999965,216.4444724000059,216.4444724000059,216.4444724000059,218.49463690000263,right,1.0,18.66990230000374,,,,,,,,,,,,,,,,,,,,,,,,,,,,,sub-020,1.0,random_dot,59.92900809713151,
left,left,accuracy,,,,,0.0,0.0,0.0,0.0,24.0,0.0,48.0,0.0,218.5087296000056,,,,,,,,,218.4954522000044,219.7081166999997,220.50857910000195,220.4915627000009,220.49158040000475,220.50857910000195,220.50857910000195,220.50857910000195,222.3586776000011,left,1.0,18.472291399993992,,,,,,,,,,,,,,,,,,,,,,,,,,,,,sub-020,1.0,random_dot,59.92900809713151,
right,right,accuracy,,,,,0.0,0.0,0.0,0.0,24.0,1.0,49.0,1.0,222.37298750000627,,,,,,,,,222.3595239999995,223.5722064000001,224.37281810000425,224.35578490000623,224.35580300000584,224.37281810000425,224.37281810000425,224.37281810000425,227.2552627000041,right,1.0,19.5058235999968,,,,,,,,,,,,,,,,,,,,,,,,,,,,,sub-020,1.0,random_dot,59.92900809713151,
left,left,accuracy,,,,,0.0,0.0,0.0,0.0,25.0,0.0,50.0,0.0,227.2701436999996,,,,,,,,,227.25610400000005,227.3698011000015,228.1706531000018,228.15345550000347,228.1534716000024,228.1706531000018,228.1706531000018,228.1706531000018,230.2874007999999,left,1.0,18.74317369999335,,,,,,,,,,,,,,,,,,,,,,,,,,,,,sub-020,1.0,random_dot,59.92900809713151,
right,right,accuracy,,,,,0.0,0.0,0.0,0.0,25.0,1.0,51.0,1.0,230.30152820000512,,,,,,,,,230.2881978000005,231.1008796000024,231.901383000004,231.88428600000043,231.8843022000001,231.901383000004,231.901383000004,231.901383000004,233.65154630000325,right,1.0,18.371769999997923,,,,,,,,,,,,,,,,,,,,,,,,,,,,,sub-020,1.0,random_dot,59.92900809713151,
left,left,accuracy,,,,,0.0,0.0,0.0,0.0,26.0,0.0,52.0,0.0,233.6660229000045,,,,,,,,,233.6523601000008,234.86510120000457,235.665911300006,235.6486589000051,235.6486747000017,235.665911300006,235.665911300006,235.665911300006,237.415751200002,left,1.0,18.37179450000258,,,,,,,,,,,,,,,,,,,,,,,,,,,,,sub-020,1.0,random_dot,59.92900809713151,
right,right,accuracy,,,,,0.0,0.0,0.0,0.0,26.0,1.0,53.0,1.0,237.4301584000059,,,,,,,,,237.41655430000537,237.78021780000563,238.5806331000058,238.563564300006,238.56358159999945,238.5806331000058,238.5806331000058,238.5806331000058,240.0970229000013,right,1.0,18.13537180000276,,,,,,,,,,,,,,,,,,,,,,,,,,,,,sub-020,1.0,random_dot,59.92900809713151,
left,left,accuracy,,,,,0.0,0.0,0.0,0.0,27.0,0.0,54.0,0.0,240.11156800000023,,,,,,,,,240.09784230000517,241.3112465000013,242.11163859999945,242.09483850000103,242.0948665000033,242.11163859999945,242.11163859999945,242.11163859999945,245.6769351000039,left,1.0,20.18050169999333,,,,,,,,,,,,,,,,,,,,,,,,,,,,,sub-020,1.0,random_dot,59.92900809713151,
right,right,accuracy,,,,,0.0,0.0,0.0,0.0,27.0,1.0,55.0,1.0,245.691476,,,,,,,,,245.67796760000056,246.8908588000049,247.69119599999976,247.6742516000013,247.67427429999952,247.69119599999976,247.69119599999976,247.69119599999976,249.74103040000043,right,1.0,18.665789799997583,,,,,,,,,,,,,,,,,,,,,,,,,,,,,sub-020,1.0,random_dot,59.92900809713151,
left,left,accuracy,,,,,0.0,0.0,0.0,0.0,28.0,0.0,56.0,0.0,249.755628400002,,,,,,,,,249.74185690000013,250.95496970000383,251.75541499999963,251.7384005999993,251.73842200000217,251.75541499999963,251.75541499999963,251.75541499999963,253.98842380000133,left,1.0,18.8558439000044,,,,,,,,,,,,,,,,,,,,,,,,,,,,,sub-020,1.0,random_dot,59.92900809713151,
right,right,accuracy,,,,,0.0,0.0,0.0,0.0,28.0,1.0,57.0,1.0,254.0028678000017,,,,,,,,,253.98936560000584,254.80237920000215,255.60299930000477,255.585928600005,255.58594850000367,255.60299930000477,255.60299930000477,255.60299930000477,259.9015067,left,0.0,20.90998219999892,,,,,,,,,,,,,,,,,,,,,,,,,,,,,sub-020,1.0,random_dot,59.92900809713151,
right,right,accuracy,,,,,0.0,0.0,0.0,0.0,29.0,0.0,58.0,1.0,259.915816700006,,,,,,,,,259.9023434000046,260.01602140000614,260.8161429000029,260.7990798000028,260.7990981000039,260.8161429000029,260.8161429000029,260.8161429000029,264.0489480000033,left,0.0,19.858706599996367,,,,,,,,,,,,,,,,,,,,,,,,,,,,,sub-020,1.0,random_dot,59.92900809713151,
left,left,accuracy,,,,,0.0,0.0,0.0,0.0,29.0,1.0,59.0,0.0,264.0632523000022,,,,,,,,,264.0497564000034,264.8627992000038,265.6632530000061,265.6465338000053,265.6465629000013,265.6632530000061,265.6632530000061,265.6632530000061,266.9635297999994,right,0.0,17.916056500005652,,,,,,,,,,,,,,,,,,,,,,,,,,,,,sub-020,1.0,random_dot,59.92900809713151,
,,accuracy,,,,,0.0,0.0,0.0,0.0,,,,,,,,,,,,,,,,,,,,,,,,,,,,,,,,,,,,,,,,,,,,,,,,,,,,,,sub-020,1.0,random_dot,59.92900809713151,
left,left,speed,,,,,0.0,1.0,1.0,1.0,0.0,0.0,0.0,0.0,269.1433621000033,,,,,,,,,269.13363540000137,269.24326660000224,270.0440432000032,270.0271553999992,270.0271756000002,270.0440432000032,270.0440432000032,270.0440432000032,271.8769686000014,left,1.0,18.45403019999503,,,,,,,,,,,,,,,,,,,,266.9642875999998,266.97826650000206,266.97826650000206,269.1278406000056,space,18.770807000000787,,,,sub-020,1.0,random_dot,59.92900809713151,
right,right,speed,,,,,0.0,1.0,1.0,1.0,0.0,1.0,1.0,1.0,271.89139440000145,,,,,,,,,271.87805240000307,273.0910518000019,273.8913753000015,273.87414400000125,273.8741601000001,273.8913753000015,273.8913753000015,273.8913753000015,275.3914944000062,right,1.0,18.120461599995902,,,,,,,,,,,,,,,,,,,,,,,,,,,,,sub-020,1.0,random_dot,59.92900809713151,
right,right,speed,,,,,0.0,1.0,1.0,1.0,1.0,0.0,2.0,1.0,275.40586610000173,,,,,,,,,275.392440100004,276.2053586000038,277.0059752000016,276.98909480000293,276.9891162000058,277.0059752000016,277.0059752000016,277.0059752000016,278.2228938000044,right,1.0,17.84042000000045,,,,,,,,,,,,,,,,,,,,,,,,,,,,,sub-020,1.0,random_dot,59.92900809713151,
left,left,speed,,,,,0.0,1.0,1.0,1.0,1.0,1.0,3.0,0.0,278.2375439000025,,,,,,,,,278.22393840000586,278.3373986000006,279.1379742000063,279.12089630000264,279.1209158000056,279.1379742000063,279.1379742000063,279.1379742000063,280.45522370000253,left,1.0,17.944023600000946,,,,,,,,,,,,,,,,,,,,,,,,,,,,,sub-020,1.0,random_dot,59.92900809713151,
right,right,speed,,,,,0.0,1.0,1.0,1.0,2.0,0.0,4.0,1.0,280.46937120000075,,,,,,,,,280.456273900003,281.6687549000053,282.46917690000555,282.45228620000125,282.45230420000007,282.46917690000555,282.46917690000555,282.46917690000555,285.3183422000002,right,1.0,19.465729100003955,,,,,,,,,,,,,,,,,,,,,,,,,,,,,sub-020,1.0,random_dot,59.92900809713151,
left,left,speed,,,,,0.0,1.0,1.0,1.0,2.0,1.0,5.0,0.0,285.3330468999993,,,,,,,,,285.3193807000061,285.4328430000023,286.2333915000054,286.2164391000042,286.21646420000616,286.2333915000054,286.2333915000054,286.2333915000054,287.1340111000027,left,1.0,17.526281300000846,,,,,,,,,,,,,,,,,,,,,,,,,,,,,sub-020,1.0,random_dot,59.92900809713151,
left,left,speed,,,,,0.0,1.0,1.0,1.0,3.0,0.0,6.0,0.0,287.1484341000032,,,,,,,,,287.1351532000044,287.94796920000226,288.74850900000456,288.7318576000034,288.7318740000046,288.74850900000456,288.74850900000456,288.74850900000456,289.4826189000014,left,1.0,17.347902800000156,,,,,,,,,,,,,,,,,,,,,,,,,,,,,sub-020,1.0,random_dot,59.92900809713151,
right,right,speed,,,,,0.0,1.0,1.0,1.0,3.0,1.0,7.0,1.0,289.4968764000005,,,,,,,,,289.4836979000029,290.2966232000035,291.0972277000037,291.08056950000173,291.0805920999992,291.0972277000037,291.0972277000037,291.0972277000037,291.7145681000038,right,1.0,17.242406099998334,,,,,,,,,,,,,,,,,,,,,,,,,,,,,sub-020,1.0,random_dot,59.92900809713151,
right,right,speed,,,,,0.0,1.0,1.0,1.0,4.0,0.0,8.0,1.0,291.72922920000565,,,,,,,,,291.7153575000048,291.8290294000035,292.6296278000009,292.6124079000001,292.6124238000048,292.6296278000009,292.6296278000009,292.6296278000009,293.6298903999996,left,0.0,17.62336890000006,,,,,,,,,,,,,,,,,,,,,,,,,,,,,sub-020,1.0,random_dot,59.92900809713151,
left,left,speed,,,,,0.0,1.0,1.0,1.0,4.0,1.0,9.0,0.0,293.64449830000376,,,,,,,,,293.6306809000016,293.99447650000366,294.7948935000022,294.7777276000052,294.7777436000033,294.7948935000022,294.7948935000022,294.7948935000022,295.84522930000094,left,1.0,17.66253069999948,,,,,,,,,,,,,,,,,,,,,,,,,,,,,sub-020,1.0,random_dot,59.92900809713151,
right,right,speed,,,,,0.0,1.0,1.0,1.0,5.0,0.0,10.0,1.0,295.859924000004,,,,,,,,,295.84601490000205,296.6594860000041,297.4762422000058,297.459663600006,297.45968690000154,297.4762422000058,297.4762422000058,297.4762422000058,298.4769451000029,right,1.0,17.625542500005395,,,,,,,,,,,,,,,,,,,,,,,,,,,,,sub-020,1.0,random_dot,59.92900809713151,
left,left,speed,,,,,0.0,1.0,1.0,1.0,5.0,1.0,11.0,0.0,298.4913929000031,,,,,,,,,298.47773810000217,299.2907761000024,300.0914460999993,300.07466510000086,300.074680800004,300.0914460999993,300.0914460999993,300.0914460999993,300.8919145000036,left,1.0,17.423526200000197,,,,,,,,,,,,,,,,,,,,,,,,,,,,,sub-020,1.0,random_dot,59.92900809713151,
right,right,speed,,,,,0.0,1.0,1.0,1.0,6.0,0.0,12.0,1.0,300.9066601000013,,,,,,,,,300.8927069000056,301.25629990000016,302.0566575000048,302.0399388000005,302.0399627000006,302.0566575000048,302.0566575000048,302.0566575000048,302.9242655000053,right,1.0,17.478408599999966,,,,,,,,,,,,,,,,,,,,,,,,,,,,,sub-020,1.0,random_dot,59.92900809713151,
left,left,speed,,,,,0.0,1.0,1.0,1.0,6.0,1.0,13.0,0.0,302.9386205000046,,,,,,,,,302.92510230000335,303.03852950000146,303.8390983999998,303.82240110000566,303.82241700000304,303.8390983999998,303.8390983999998,303.8390983999998,304.8729750000057,left,1.0,17.653663800003415,,,,,,,,,,,,,,,,,,,,,,,,,,,,,sub-020,1.0,random_dot,59.92900809713151,
right,right,speed,,,,,0.0,1.0,1.0,1.0,7.0,0.0,14.0,1.0,304.8874072000035,,,,,,,,,304.8738236000063,306.08653530000447,306.8871846000038,306.8703553000014,306.8703808999999,306.8871846000038,306.8871846000038,306.8871846000038,307.7044513000001,right,1.0,17.433100000002014,,,,,,,,,,,,,,,,,,,,,,,,,,,,,sub-020,1.0,random_dot,59.92900809713151,
left,left,speed,,,,,0.0,1.0,1.0,1.0,7.0,1.0,15.0,0.0,307.71908070000063,,,,,,,,,307.70533350000187,307.81870809999964,308.61970770000335,308.60233470000094,308.60235040000407,308.61970770000335,308.61970770000335,308.61970770000335,310.0362537000037,left,1.0,18.033122699998785,,,,,,,,,,,,,,,,,,,,,,,,,,,,,sub-020,1.0,random_dot,59.92900809713151,
right,right,speed,,,,,0.0,1.0,1.0,1.0,8.0,0.0,16.0,1.0,310.0508480999997,,,,,,,,,310.037055700006,310.15050340000016,310.9511359000025,310.9339334000033,310.93395220000093,310.9511359000025,310.9511359000025,310.9511359000025,312.451747900006,right,1.0,18.12470079999912,,,,,,,,,,,,,,,,,,,,,,,,,,,,,sub-020,1.0,random_dot,59.92900809713151,
left,left,speed,,,,,0.0,1.0,1.0,1.0,8.0,1.0,17.0,0.0,312.465790000002,,,,,,,,,312.4525395000019,312.81578979999904,313.6167654000019,313.59926090000226,313.5992780000015,313.6167654000019,313.6167654000019,313.6167654000019,314.8665958999991,right,0.0,17.860819399997126,,,,,,,,,,,,,,,,,,,,,,,,,,,,,sub-020,1.0,random_dot,59.92900809713151,
left,left,speed,,,,,0.0,1.0,1.0,1.0,9.0,0.0,18.0,0.0,314.8810694000058,,,,,,,,,314.8674334000025,315.2309015999999,316.03142850000586,316.0146351000003,316.0146553000013,316.03142850000586,316.03142850000586,316.03142850000586,317.11509410000144,left,1.0,17.700704299997597,,,,,,,,,,,,,,,,,,,,,,,,,,,,,sub-020,1.0,random_dot,59.92900809713151,
right,right,speed,,,,,0.0,1.0,1.0,1.0,9.0,1.0,19.0,1.0,317.1293414000029,,,,,,,,,317.11590799999976,317.4793529000017,318.28003940000053,318.26269760000287,318.26271460000135,318.28003940000053,318.28003940000053,318.28003940000053,319.41389220000565,right,1.0,17.750457299996924,,,,,,,,,,,,,,,,,,,,,,,,,,,,,sub-020,1.0,random_dot,59.92900809713151,
right,right,speed,,,,,0.0,1.0,1.0,1.0,10.0,0.0,20.0,1.0,319.4282488000026,,,,,,,,,319.41472010000143,320.2276803999994,321.02807620000385,321.01162530000147,321.01164170000266,321.02807620000385,321.02807620000385,321.02807620000385,322.2952984000003,left,0.0,17.878149499993015,,,,,,,,,,,,,,,,,,,,,,,,,,,,,sub-020,1.0,random_dot,59.92900809713151,
left,left,speed,,,,,0.0,1.0,1.0,1.0,10.0,1.0,21.0,0.0,322.30959630000143,,,,,,,,,322.2961140000043,322.4096217000042,323.21027270000195,323.19302590000007,323.1930472000022,323.21027270000195,323.21027270000195,323.21027270000195,324.1773381000021,left,1.0,17.583441200004017,,,,,,,,,,,,,,,,,,,,,,,,,,,,,sub-020,1.0,random_dot,59.92900809713151,
left,left,speed,,,,,0.0,1.0,1.0,1.0,11.0,0.0,22.0,0.0,324.1917495000016,,,,,,,,,324.17825350000203,324.5415374000004,325.341892000004,325.3252629000053,325.32528000000457,325.341892000004,325.341892000004,325.341892000004,326.4593562000009,left,1.0,17.73781869999948,,,,,,,,,,,,,,,,,,,,,,,,,,,,,sub-020,1.0,random_dot,59.92900809713151,
right,right,speed,,,,,0.0,1.0,1.0,1.0,11.0,1.0,23.0,1.0,326.4738070000021,,,,,,,,,326.4601951000004,326.8235397000026,327.6239486000049,327.6070256000021,327.6070420000033,327.6239486000049,327.6239486000049,327.6239486000049,328.7410100000052,right,1.0,17.73494170000049,,,,,,,,,,,,,,,,,,,,,,,,,,,,,sub-020,1.0,random_dot,59.92900809713151,
right,right,speed,,,,,0.0,1.0,1.0,1.0,12.0,0.0,24.0,1.0,328.75544380000065,,,,,,,,,328.7419863000032,329.9548924000046,330.75514770000154,330.7384263999993,330.73845319999964,330.75514770000154,330.75514770000154,330.75514770000154,331.9888910000009,right,1.0,17.847106100001838,,,,,,,,,,,,,,,,,,,,,,,,,,,,,sub-020,1.0,random_dot,59.92900809713151,
left,left,speed,,,,,0.0,1.0,1.0,1.0,12.0,1.0,25.0,0.0,332.00320120000106,,,,,,,,,331.9897394,333.2029088000054,334.0030890000053,333.9862274000043,333.98624969999946,334.0030890000053,334.0030890000053,334.0030890000053,334.8375337000034,left,1.0,17.459183899998607,,,,,,,,,,,,,,,,,,,,,,,,,,,,,sub-020,1.0,random_dot,59.92900809713151,
left,left,speed,,,,,0.0,1.0,1.0,1.0,13.0,0.0,26.0,0.0,334.8515014000004,,,,,,,,,334.8384839999999,334.9515324000022,335.7521865000017,335.7351273000022,335.73514350000187,335.7521865000017,335.7521865000017,335.7521865000017,337.10260080000444,left,1.0,17.965773699994315,,,,,,,,,,,,,,,,,,,,,,,,,,,,,sub-020,1.0,random_dot,59.92900809713151,
right,right,speed,,,,,0.0,1.0,1.0,1.0,13.0,1.0,27.0,1.0,337.1169155000025,,,,,,,,,337.1034310000032,337.91637620000256,338.71692720000283,338.6997401000044,338.6997558000003,338.71692720000283,338.71692720000283,338.71692720000283,340.05048140000144,right,1.0,17.949586399998225,,,,,,,,,,,,,,,,,,,,,,,,,,,,,sub-020,1.0,random_dot,59.92900809713151,
right,right,speed,,,,,0.0,1.0,1.0,1.0,14.0,0.0,28.0,1.0,340.0649277000048,,,,,,,,,340.0513445000033,340.86458870000206,341.6650598000051,341.64851840000483,341.6485366000052,341.6650598000051,341.6650598000051,341.6650598000051,343.5646679000056,right,1.0,18.521755000001576,,,,,,,,,,,,,,,,,,,,,,,,,,,,,sub-020,1.0,random_dot,59.92900809713151,
left,left,speed,,,,,0.0,1.0,1.0,1.0,14.0,1.0,29.0,0.0,343.5793801000036,,,,,,,,,343.565482500002,343.679180500003,344.47998880000523,344.46313300000475,344.4631523999997,344.47998880000523,344.47998880000523,344.47998880000523,345.82988789999945,left,1.0,17.966669900000852,,,,,,,,,,,,,,,,,,,,,,,,,,,,,sub-020,1.0,random_dot,59.92900809713151,
left,left,speed,,,,,0.0,1.0,1.0,1.0,15.0,0.0,30.0,0.0,345.84450769999967,,,,,,,,,345.8310730000012,347.0441296000063,347.84419690000504,347.82720320000226,347.82721990000573,347.84419690000504,347.84419690000504,347.84419690000504,348.9115050000037,left,1.0,17.685943399999815,,,,,,,,,,,,,,,,,,,,,,,,,,,,,sub-020,1.0,random_dot,59.92900809713151,
right,right,speed,,,,,0.0,1.0,1.0,1.0,15.0,1.0,31.0,1.0,348.9261112000022,,,,,,,,,348.9123345000044,349.02615190000506,349.8265482999996,349.80956320000405,349.8095795000045,349.8265482999996,349.8265482999996,349.8265482999996,350.5100760999994,right,1.0,17.30917860000045,,,,,,,,,,,,,,,,,,,,,,,,,,,,,sub-020,1.0,random_dot,59.92900809713151,
left,left,speed,,,,,0.0,1.0,1.0,1.0,16.0,0.0,32.0,0.0,350.5247282000055,,,,,,,,,350.5109400000001,350.62503760000254,351.42552050000086,351.4086282999997,351.40864420000435,351.42552050000086,351.42552050000086,351.42552050000086,353.5252832000042,right,0.0,18.720528000005288,,,,,,,,,,,,,,,,,,,,,,,,,,,,,sub-020,1.0,random_dot,59.92900809713151,
right,right,speed,,,,,0.0,1.0,1.0,1.0,16.0,1.0,33.0,1.0,353.5397391000006,,,,,,,,,353.52609620000294,354.3390376000025,355.1399562000006,355.1233034000033,355.12337370000023,355.1399562000006,355.1399562000006,355.1399562000006,356.2069298999995,right,1.0,17.68129119999503,,,,,,,,,,,,,,,,,,,,,,,,,,,,,sub-020,1.0,random_dot,59.92900809713151,
left,left,speed,,,,,0.0,1.0,1.0,1.0,17.0,0.0,34.0,0.0,356.2213386000003,,,,,,,,,356.2077353000059,356.3215431999997,357.13841089999914,357.12125150000065,357.12126920000446,357.13841089999914,357.13841089999914,357.13841089999914,358.821820600002,right,0.0,18.29479540000466,,,,,,,,,,,,,,,,,,,,,,,,,,,,,sub-020,1.0,random_dot,59.92900809713151,
right,right,speed,,,,,0.0,1.0,1.0,1.0,17.0,1.0,35.0,1.0,358.8362649000046,,,,,,,,,358.82268900000054,359.18592530000024,359.98676700000215,359.9700229000009,359.9700391000006,359.98676700000215,359.98676700000215,359.98676700000215,360.4709864000033,right,1.0,17.094797899997502,,,,,,,,,,,,,,,,,,,,,,,,,,,,,sub-020,1.0,random_dot,59.92900809713151,
left,left,speed,,,,,0.0,1.0,1.0,1.0,18.0,0.0,36.0,0.0,360.4858043000058,,,,,,,,,360.4718345000001,360.5855157000042,361.3856717000017,361.36885330000223,361.3688728000052,361.3856717000017,361.3856717000017,361.3856717000017,362.03655450000224,right,0.0,17.26525579999725,,,,,,,,,,,,,,,,,,,,,,,,,,,,,sub-020,1.0,random_dot,59.92900809713151,
right,right,speed,,,,,0.0,1.0,1.0,1.0,18.0,1.0,37.0,1.0,362.0508238000039,,,,,,,,,362.0373736000038,362.40061550000246,363.2010863000032,363.1841093000039,363.1841251000005,363.2010863000032,363.2010863000032,363.2010863000032,363.7354573000048,right,1.0,17.15366250000079,,,,,,,,,,,,,,,,,,,,,,,,,,,,,sub-020,1.0,random_dot,59.92900809713151,
right,right,speed,,,,,0.0,1.0,1.0,1.0,19.0,0.0,38.0,1.0,363.74972450000496,,,,,,,,,363.7363751000012,364.54966350000177,365.3500320000021,365.3331711999999,365.3331879000034,365.3500320000021,365.3500320000021,365.3500320000021,366.35061960000166,right,1.0,17.626969799996004,,,,,,,,,,,,,,,,,,,,,,,,,,,,,sub-020,1.0,random_dot,59.92900809713151,
left,left,speed,,,,,0.0,1.0,1.0,1.0,19.0,1.0,39.0,0.0,366.3650749000008,,,,,,,,,366.3514517000003,367.164640300005,367.96489239999937,367.9479764999997,367.9480006000013,367.96489239999937,367.96489239999937,367.96489239999937,369.1320409000036,right,0.0,17.78632259999722,,,,,,,,,,,,,,,,,,,,,,,,,,,,,sub-020,1.0,random_dot,59.92900809713151,
right,right,speed,,,,,0.0,1.0,1.0,1.0,20.0,0.0,40.0,1.0,369.1464256000036,,,,,,,,,369.13287290000153,369.24651260000246,370.0471785000045,370.0303641999999,370.0303849000047,370.0471785000045,370.0471785000045,370.0471785000045,371.8470738000033,left,0.0,18.4246650999994,,,,,,,,,,,,,,,,,,,,,,,,,,,,,sub-020,1.0,random_dot,59.92900809713151,
left,left,speed,,,,,0.0,1.0,1.0,1.0,20.0,1.0,41.0,0.0,371.8616774000038,,,,,,,,,371.8478926000025,373.0608587000024,373.8613480000058,373.8443919999991,373.84440840000025,373.8613480000058,373.8613480000058,373.8613480000058,375.777846200006,right,0.0,18.53139729999384,,,,,,,,,,,,,,,,,,,,,,,,,,,,,sub-020,1.0,random_dot,59.92900809713151,
right,right,speed,,,,,0.0,1.0,1.0,1.0,21.0,0.0,42.0,1.0,375.79218380000384,,,,,,,,,375.7787049000035,376.1419718000034,376.9428198000023,376.92570780000096,376.9257245000044,376.9428198000023,376.9428198000023,376.9428198000023,378.0600520000007,right,1.0,17.743452299997443,,,,,,,,,,,,,,,,,,,,,,,,,,,,,sub-020,1.0,random_dot,59.92900809713151,
left,left,speed,,,,,0.0,1.0,1.0,1.0,21.0,1.0,43.0,0.0,378.0742543000015,,,,,,,,,378.0608322000044,378.4243009999991,379.2247858000046,379.2074797000023,379.2074951000032,379.2247858000046,379.2247858000046,379.2247858000046,379.9748213999992,left,1.0,17.361164000001736,,,,,,,,,,,,,,,,,,,,,,,,,,,,,sub-020,1.0,random_dot,59.92900809713151,
right,right,speed,,,,,0.0,1.0,1.0,1.0,22.0,0.0,44.0,1.0,379.9893684000053,,,,,,,,,379.9756397000019,380.78932480000367,381.58994680000615,381.5726882000017,381.5727040000056,381.58994680000615,381.58994680000615,381.58994680000615,382.2400911000004,right,1.0,17.26933879999706,,,,,,,,,,,,,,,,,,,,,,,,,,,,,sub-020,1.0,random_dot,59.92900809713151,
left,left,speed,,,,,0.0,1.0,1.0,1.0,22.0,1.0,45.0,0.0,382.2547330000016,,,,,,,,,382.2409683000005,383.05448389999947,383.8552549000015,383.8378292000052,383.8378449000011,383.8552549000015,383.8552549000015,383.8552549000015,384.5220938000057,left,1.0,17.287019499999587,,,,,,,,,,,,,,,,,,,,,,,,,,,,,sub-020,1.0,random_dot,59.92900809713151,
left,left,speed,,,,,0.0,1.0,1.0,1.0,23.0,0.0,46.0,0.0,384.5364641000051,,,,,,,,,384.5229584000044,384.6367618000004,385.4374986000039,385.4203955000048,385.420411900006,385.4374986000039,385.4374986000039,385.4374986000039,386.5377972999995,left,1.0,17.724733700000797,,,,,,,,,,,,,,,,,,,,,,,,,,,,,sub-020,1.0,random_dot,59.92900809713151,
right,right,speed,,,,,0.0,1.0,1.0,1.0,23.0,1.0,47.0,1.0,386.5521112000061,,,,,,,,,386.5387766999993,386.90187600000354,387.70234860000346,387.6852650000001,387.6852806000024,387.70234860000346,387.70234860000346,387.70234860000346,388.7031172000061,right,1.0,17.618883000002825,,,,,,,,,,,,,,,,,,,,,,,,,,,,,sub-020,1.0,random_dot,59.92900809713151,
right,right,speed,,,,,0.0,1.0,1.0,1.0,24.0,0.0,48.0,1.0,388.7176260000051,,,,,,,,,388.7040974000047,389.91693959999975,390.7170627000014,390.700370700004,390.7003860000041,390.7170627000014,390.7170627000014,390.7170627000014,391.534395900002,right,1.0,17.440811200001917,,,,,,,,,,,,,,,,,,,,,,,,,,,,,sub-020,1.0,random_dot,59.92900809713151,
left,left,speed,,,,,0.0,1.0,1.0,1.0,24.0,1.0,49.0,0.0,391.5491339,,,,,,,,,391.5352117000002,391.6490319000004,392.4491915000035,392.43245630000456,392.4324778000009,392.4491915000035,392.4491915000035,392.4491915000035,393.2999511000016,right,0.0,17.471217700003763,,,,,,,,,,,,,,,,,,,,,,,,,,,,,sub-020,1.0,random_dot,59.92900809713151,
right,right,speed,,,,,0.0,1.0,1.0,1.0,25.0,0.0,50.0,1.0,393.3145593000008,,,,,,,,,393.3007541000042,393.6643450000047,394.4646522000039,394.4477040999991,394.4477195,394.4646522000039,394.4646522000039,394.4646522000039,395.6151103000011,right,1.0,17.761830999996164,,,,,,,,,,,,,,,,,,,,,,,,,,,,,sub-020,1.0,random_dot,59.92900809713151,
left,left,speed,,,,,0.0,1.0,1.0,1.0,25.0,1.0,51.0,0.0,395.62951050000265,,,,,,,,,395.61600980000367,395.72967880000215,396.5299110000051,396.5129826000048,396.5129989000052,396.5299110000051,396.5299110000051,396.5299110000051,397.1643325000041,left,1.0,17.252913999996963,,,,,,,,,,,,,,,,,,,,,,,,,,,,,sub-020,1.0,random_dot,59.92900809713151,
left,left,speed,,,,,0.0,1.0,1.0,1.0,26.0,0.0,52.0,0.0,397.1784783000039,,,,,,,,,397.16516820000106,397.278748100005,398.0793699999994,398.0622661000016,398.0622826000035,398.0793699999994,398.0793699999994,398.0793699999994,399.0637627000033,right,0.0,17.610859000000346,,,,,,,,,,,,,,,,,,,,,,,,,,,,,sub-020,1.0,random_dot,59.92900809713151,
right,right,speed,,,,,0.0,1.0,1.0,1.0,26.0,1.0,53.0,1.0,399.0776864,,,,,,,,,399.06456170000456,400.276761000001,401.07737780000025,401.0606226000018,401.0606440000047,401.07737780000025,401.07737780000025,401.07737780000025,401.8949962000042,right,1.0,17.439872099996137,,,,,,,,,,,,,,,,,,,,,,,,,,,,,sub-020,1.0,random_dot,59.92900809713151,
left,left,speed,,,,,0.0,1.0,1.0,1.0,27.0,0.0,54.0,0.0,401.9090068000005,,,,,,,,,401.8958020999999,402.0092081000039,402.8100399000032,402.7927408000032,402.7927650999991,402.8100399000032,402.8100399000032,402.8100399000032,403.5769039000006,left,1.0,17.383223400000134,,,,,,,,,,,,,,,,,,,,,,,,,,,,,sub-020,1.0,random_dot,59.92900809713151,
right,right,speed,,,,,0.0,1.0,1.0,1.0,27.0,1.0,55.0,1.0,403.591339000006,,,,,,,,,403.5777075000005,404.7908341000002,405.60790900000575,405.5910586000027,405.5910795000018,405.60790900000575,405.60790900000575,405.60790900000575,406.3415476000009,right,1.0,17.348158399996464,,,,,,,,,,,,,,,,,,,,,,,,,,,,,sub-020,1.0,random_dot,59.92900809713151,
left,left,speed,,,,,0.0,1.0,1.0,1.0,28.0,0.0,56.0,0.0,406.3560975,,,,,,,,,406.3425287999999,407.55558949999977,408.35581520000414,408.3392251000041,408.33924050000496,408.35581520000414,408.35581520000414,408.35581520000414,409.1564547000016,left,1.0,17.411698799995065,,,,,,,,,,,,,,,,,,,,,,,,,,,,,sub-020,1.0,random_dot,59.92900809713151,
right,right,speed,,,,,0.0,1.0,1.0,1.0,28.0,1.0,57.0,1.0,409.171095800004,,,,,,,,,409.1572465999998,409.5207127000031,410.32140690000233,410.304498700003,410.3045226000031,410.32140690000233,410.32140690000233,410.32140690000233,411.05515350000496,right,1.0,17.355278699993505,,,,,,,,,,,,,,,,,,,,,,,,,,,,,sub-020,1.0,random_dot,59.92900809713151,
left,left,speed,,,,,0.0,1.0,1.0,1.0,29.0,0.0,58.0,0.0,411.07007539999904,,,,,,,,,411.0559829000049,411.1699391000002,411.9702814000048,411.9536163000012,411.9536532000057,411.9702814000048,411.9702814000048,411.9702814000048,413.1874097000036,right,0.0,17.83479459999944,,,,,,,,,,,,,,,,,,,,,,,,,,,,,sub-020,1.0,random_dot,59.92900809713151,
right,right,speed,,,,,0.0,1.0,1.0,1.0,29.0,1.0,59.0,1.0,413.20203870000114,,,,,,,,,413.1882622000048,413.5518941000046,414.3520930000013,414.33540229999926,414.3354183000047,414.3520930000013,414.3520930000013,414.3520930000013,415.3528048000008,right,1.0,17.61850169999525,,,,,,,,,,,,,,,,,,,,,,,,,,,,,sub-020,1.0,random_dot,59.92900809713151,
,,speed,,,,,0.0,1.0,1.0,1.0,,,,,,,,,,,,,,,,,,,,,,,,,,,,,,,,,,,,,,,,,,,,,,,,,,,,,,sub-020,1.0,random_dot,59.92900809713151,
,,,,,,,,,,,,,,,,,,,,,,,,,,,,,,,,,,,,,,,,,,,,,,,,,,,,,,,,,,,,,,415.3534295999998,415.3671755000032,sub-020,,,,
