wordCTK,colorCTK,corrAnsCTK,congruentCTK,thisN,thisTrialN,thisRepN,keyResp_CTK.keys,keyResp_CTK.corr,keyResp_CTK.rt,keyResp_CTK.duration,wordPractice,colorPractice,corrAnsPractice,congruentPractice,respPractice.keys,respPractice.corr,respPractice.rt,respPractice.duration,word,color,corrAns,congruent,keyResp_test_run.keys,keyResp_test_run.corr,keyResp_test_run.rt,keyResp_test_run.duration,trials_CTK.thisRepN,trials_CTK.thisTrialN,trials_CTK.thisN,trials_CTK.thisIndex,trials_practice.thisRepN,trials_practice.thisTrialN,trials_practice.thisN,trials_practice.thisIndex,trials_test.thisRepN,trials_test.thisTrialN,trials_test.thisN,trials_test.thisIndex,thisRow.t,notes,instruction.started,instr_text.started,instr_image.started,instr_resp.started,instruction.stopped,instr_resp.keys,instr_resp.rt,instr_resp.duration,instr_color_to_key.started,instr_ctk.started,resp_ctk.started,instr_color_to_key.stopped,resp_ctk.keys,resp_ctk.rt,resp_ctk.duration,ITI.started,fixcross.started,fixcross.stopped,ITI.stopped,color_to_key_run.started,stimulus_CTK.started,keyResp_CTK.started,color_to_key_run.stopped,trials_CTK.keyResp_CTK.keys,trials_CTK.keyResp_CTK.corr,trials_CTK.keyResp_CTK.rt,trials_CTK.keyResp_CTK.duration,instr_practice.started,instr_practice_text.started,instr_practice_resp.started,instr_practice.stopped,instr_practice_resp.keys,instr_practice_resp.rt,instr_practice_resp.duration,practice_run.started,stimulus_practice.started,respPractice.started,practice_run.stopped,trials_practice.respPractice.keys,trials_practice.respPractice.corr,trials_practice.respPractice.rt,trials_practice.respPractice.duration,feedback.started,textFeedback.started,feedback.stopped,textFeedback.stopped,instr_test.started,instr_test_text.started,instr_test_resp.started,instr_test.stopped,instr_test_resp.keys,instr_test_resp.rt,instr_test_resp.duration,test_run.started,stimulus_test_run.started,keyResp_test_run.started,test_run.stopped,trials_test.keyResp_test_run.keys,trials_test.keyResp_test_run.corr,trials_test.keyResp_test_run.rt,trials_test.keyResp_test_run.duration,goodbye.started,textGoodbye.started,textGoodbye.stopped,goodbye.stopped,participant,session,expName,frameRate,Unnamed: 113
,,,,,,,,,,,,,,,,,,,,,,,,,,,,,,,,,,,,,,,,,0.009476374980295,0.0341448339750058,0.0341448339750058,0.0341448339750058,45.34129558398854,space,45.26666654198198,,,,,,,,,,,,,,,,,,,,,,,,,,,,,,,,,,,,,,,,,,,,,,,,,,,,,,,,,,,sub-226,1,stroop_test,119.33916032777556,
,,,,,,,,,,,,,,,,,,,,,,,,,,,,,,,,,,,,,,,,,,,,,,,,,45.34138504197472,45.36199762497563,45.36199762497563,53.53305441699922,space,8.16507637500763,,,,,,,,,,,,,,,,,,,,,,,,,,,,,,,,,,,,,,,,,,,,,,,,,,,,sub-226,1,stroop_test,119.33916032777556,
test,blue,b,1.0,0.0,0.0,0.0,b,1.0,1.0542109999805689,,,,,,,,,,,,,,,,,,0.0,0.0,0.0,2.0,,,,,,,,,53.56500429197331,,,,,,,,,,,,,,,,,53.549725958990166,54.337554041994736,55.14162124998984,55.12667429199792,55.13395341698197,55.14162124998984,55.14162124998984,56.20037187499111,b,1.0,1.0542109999805689,,,,,,,,,,,,,,,,,,,,,,,,,,,,,,,,,,,,,,,,sub-226,1,stroop_test,119.33916032777556,
test,red,r,1.0,1.0,1.0,0.0,r,1.0,1.1419170839944854,,,,,,,,,,,,,,,,,,0.0,1.0,1.0,0.0,,,,,,,,,56.20991658398998,,,,,,,,,,,,,,,,,56.20075524999993,56.30036799999653,57.10106233399711,57.093334124976536,57.09400958399056,57.10106233399711,57.10106233399711,58.24544424997293,r,1.0,1.1419170839944854,,,,,,,,,,,,,,,,,,,,,,,,,,,,,,,,,,,,,,,,sub-226,1,stroop_test,119.33916032777556,
test,yellow,g,1.0,2.0,2.0,0.0,g,1.0,0.9694774170056916,,,,,,,,,,,,,,,,,,0.0,2.0,2.0,1.0,,,,,,,,,58.25464220897993,,,,,,,,,,,,,,,,,58.245880333997775,59.0427832089772,59.83466408398817,59.82666391698877,59.82731154197245,59.83466408398817,59.83466408398817,60.81132033397444,g,1.0,0.9694774170056916,,,,,,,,,,,,,,,,,,,,,,,,,,,,,,,,,,,,,,,,sub-226,1,stroop_test,119.33916032777556,
test,blue,b,1.0,3.0,0.0,1.0,b,1.0,0.5285814169910736,,,,,,,,,,,,,,,,,,1.0,0.0,3.0,2.0,,,,,,,,,60.82043054199312,,,,,,,,,,,,,,,,,60.81170624998049,61.15953299999819,61.95121166697936,61.9434425419895,61.94408341697999,61.95121166697936,61.95121166697936,62.48379270898295,b,1.0,0.5285814169910736,,,,,,,,,,,,,,,,,,,,,,,,,,,,,,,,,,,,,,,,sub-226,1,stroop_test,119.33916032777556,
test,yellow,g,1.0,4.0,1.0,1.0,g,1.0,0.8675421670195647,,,,,,,,,,,,,,,,,,1.0,1.0,4.0,1.0,,,,,,,,,62.49307549998048,,,,,,,,,,,,,,,,,62.48415766697144,62.83262216698495,63.63480962498579,63.62683616697905,63.62748595897574,63.63480962498579,63.63480962498579,64.51132133399369,g,1.0,0.8675421670195647,,,,,,,,,,,,,,,,,,,,,,,,,,,,,,,,,,,,,,,,sub-226,1,stroop_test,119.33916032777556,
test,red,r,1.0,5.0,2.0,1.0,r,1.0,0.5753804589912761,,,,,,,,,,,,,,,,,,1.0,2.0,5.0,0.0,,,,,,,,,64.52031679198262,,,,,,,,,,,,,,,,,64.51170108397491,64.60957670898642,65.40145383399795,65.39360541698989,65.39427904199692,65.40145383399795,65.40145383399795,65.98886804198264,r,1.0,0.5753804589912761,,,,,,,,,,,,,,,,,,,,,,,,,,,,,,,,,,,,,,,,sub-226,1,stroop_test,119.33916032777556,
test,blue,b,1.0,6.0,0.0,2.0,b,1.0,0.6915428749925923,,,,,,,,,,,,,,,,,,2.0,0.0,6.0,2.0,,,,,,,,,65.99416745899362,,,,,,,,,,,,,,,,,65.98925329197664,67.18285554199247,67.98515499997302,67.97706062498037,67.97776666699792,67.98515499997302,67.98515499997302,68.68814937499701,b,1.0,0.6915428749925923,,,,,,,,,,,,,,,,,,,,,,,,,,,,,,,,,,,,,,,,sub-226,1,stroop_test,119.33916032777556,
test,yellow,g,1.0,7.0,1.0,2.0,g,1.0,1.02128645798075,,,,,,,,,,,,,,,,,,2.0,1.0,7.0,1.0,,,,,,,,,68.70926291699288,,,,,,,,,,,,,,,,,68.68852004199289,68.78154087497387,69.57578599997214,69.56595820898656,69.56660370898317,69.57578599997214,69.57578599997214,70.60153958399314,g,1.0,1.02128645798075,,,,,,,,,,,,,,,,,,,,,,,,,,,,,,,,,,,,,,,,sub-226,1,stroop_test,119.33916032777556,
test,red,r,1.0,8.0,2.0,2.0,r,1.0,0.2993570420076139,,,,,,,,,,,,,,,,,,2.0,2.0,8.0,0.0,,,,,,,,,70.61097787498147,,,,,,,,,,,,,,,,,70.60201883397531,70.95021579199238,71.75128370898892,71.74358641699655,71.74421649999567,71.75128370898892,71.75128370898892,72.06164279198856,r,1.0,0.2993570420076139,,,,,,,,,,,,,,,,,,,,,,,,,,,,,,,,,,,,,,,,sub-226,1,stroop_test,119.33916032777556,
test,red,r,1.0,9.0,0.0,3.0,r,1.0,0.43622983401292,,,,,,,,,,,,,,,,,,3.0,0.0,9.0,0.0,,,,,,,,,72.07092329199077,,,,,,,,,,,,,,,,,72.06209291698178,72.4096379999828,73.2018461249827,73.19382387498626,73.19444095899235,73.2018461249827,73.2018461249827,73.64471574997879,r,1.0,0.43622983401292,,,,,,,,,,,,,,,,,,,,,,,,,,,,,,,,,,,,,,,,sub-226,1,stroop_test,119.33916032777556,
test,yellow,g,1.0,10.0,1.0,3.0,g,1.0,0.5126494579890277,,,,,,,,,,,,,,,,,,3.0,1.0,10.0,1.0,,,,,,,,,73.65349362499546,,,,,,,,,,,,,,,,,73.64512408399605,73.74303824998788,74.53526841697749,74.52713999999105,74.52783054197789,74.53526841697749,74.53526841697749,75.05100616699201,g,1.0,0.5126494579890277,,,,,,,,,,,,,,,,,,,,,,,,,,,,,,,,,,,,,,,,sub-226,1,stroop_test,119.33916032777556,
test,blue,b,1.0,11.0,2.0,3.0,b,1.0,0.3279747500200756,,,,,,,,,,,,,,,,,,3.0,2.0,11.0,2.0,,,,,,,,,75.05966904197703,,,,,,,,,,,,,,,,,75.05137933397782,76.2497104590002,77.05177537497366,77.04376712499652,77.04440941699431,77.05177537497366,77.05177537497366,77.38448629199411,b,1.0,0.3279747500200756,,,,,,,,,,,,,,,,,,,,,,,,,,,,,,,,,,,,,,,,sub-226,1,stroop_test,119.33916032777556,
,,,,,,,,,,,,,,,,,,,,,,,,,,,,,,,,,,,,,,,,,,,,,,,,,,,,,,,,,,,,,,,,,,,,77.38465337498928,77.39557341698674,77.39557341698674,81.71221937498194,space,4.314106582984095,,,,,,,,,,,,,,,,,,,,,,,,,,,,,,,,,sub-226,1,stroop_test,119.33916032777556,
,,,,0.0,0.0,0.0,,,,,rot,red,r,1.0,r,1.0,1.5875734580040444,,,,,,,,,,,,,,0.0,0.0,0.0,0.0,,,,,81.73356799999601,,,,,,,,,,,,,,,,,81.72535354198772,81.8097480419965,82.60660929197911,82.59394141699886,,,,,,,,,,,,,,,,82.59925158397527,82.60660929197911,82.60660929197911,84.20129487497616,r,1.0,1.5875734580040444,,84.20941358397249,84.21975029198802,85.21015658398392,,,,,,,,,,,,,,,,,,,,,sub-226,1,stroop_test,119.33916032777556,
,,,,1.0,1.0,0.0,,,,,blau,blue,b,1.0,b,1.0,0.3889913330203853,,,,,,,,,,,,,,0.0,1.0,1.0,5.0,,,,,85.2164505419787,,,,,,,,,,,,,,,,,85.21069345899741,86.399956749985,87.20881945898873,87.19408629197278,,,,,,,,,,,,,,,,87.20108799997251,87.20881945898873,87.20881945898873,87.6013702499913,b,1.0,0.3889913330203853,,87.60192504199222,87.61227866698755,88.59918887499953,88.61004458399839,,,,,,,,,,,,,,,,,,,,sub-226,1,stroop_test,119.33916032777556,
,,,,2.0,2.0,0.0,,,,,gelb,blue,b,0.0,b,1.0,1.025918166997144,,,,,,,,,,,,,,0.0,2.0,2.0,9.0,,,,,88.61004458399839,,,,,,,,,,,,,,,,,88.59964720899006,88.95047708399943,89.7547906669788,89.74388274998637,,,,,,,,,,,,,,,,89.7475431249768,89.7547906669788,89.7547906669788,90.78531724997448,b,1.0,1.025918166997144,,90.78587274998426,90.79861770899151,91.78384245897178,91.79317062499469,,,,,,,,,,,,,,,,,,,,sub-226,1,stroop_test,119.33916032777556,
,,,,3.0,3.0,0.0,,,,,blau,blue,b,1.0,b,1.0,0.4403896250005346,,,,,,,,,,,,,,0.0,3.0,3.0,6.0,,,,,91.79317062499469,,,,,,,,,,,,,,,,,91.78433583397418,91.88336212499416,92.68813062499976,92.67743933398742,,,,,,,,,,,,,,,,92.68102499999804,92.68813062499976,92.68813062499976,93.13369629197403,b,1.0,0.4403896250005346,,93.13424133398804,93.14557049999712,94.13263195898617,94.1434378339909,,,,,,,,,,,,,,,,,,,,sub-226,1,stroop_test,119.33916032777556,
,,,,4.0,4.0,0.0,,,,,blau,yellow,g,0.0,g,1.0,0.5681350420054514,,,,,,,,,,,,,,0.0,4.0,4.0,7.0,,,,,94.1434378339909,,,,,,,,,,,,,,,,,94.133144041989,94.23340379199362,95.035330624989,95.02737862497452,,,,,,,,,,,,,,,,95.02803091699025,95.035330624989,95.035330624989,95.61219599997276,g,1.0,0.5681350420054514,,95.6127794169879,95.62284912497852,96.6107198339887,96.61665937499492,,,,,,,,,,,,,,,,,,,,sub-226,1,stroop_test,119.33916032777556,
,,,,5.0,5.0,0.0,,,,,blau,red,r,0.0,r,1.0,0.2742605410167016,,,,,,,,,,,,,,0.0,5.0,5.0,4.0,,,,,96.61665937499492,,,,,,,,,,,,,,,,,96.6111687089724,97.41020062498863,98.20284645899665,98.19437641699916,,,,,,,,,,,,,,,,98.19521333399462,98.20284645899665,98.20284645899665,98.47968845898868,r,1.0,0.2742605410167016,,98.48033637498156,98.49054641698604,99.47761291699136,99.48349341697758,,,,,,,,,,,,,,,,,,,,sub-226,1,stroop_test,119.33916032777556,
,,,,6.0,6.0,0.0,,,,,gelb,red,r,0.0,r,1.0,1.046464790997561,,,,,,,,,,,,,,0.0,6.0,6.0,8.0,,,,,99.48349341697758,,,,,,,,,,,,,,,,,99.4780529589916,99.57703445898368,100.37288591699324,100.36092766697402,,,,,,,,,,,,,,,,100.36530508397846,100.37288591699324,100.37288591699324,101.42871629199362,r,1.0,1.046464790997561,,101.42931241699262,101.43964487497578,102.42764262499986,102.4336447089736,,,,,,,,,,,,,,,,,,,,sub-226,1,stroop_test,119.33916032777556,
,,,,7.0,7.0,0.0,,,,,gelb,yellow,g,1.0,g,1.0,0.4021275420091115,,,,,,,,,,,,,,0.0,7.0,7.0,11.0,,,,,102.4336447089736,,,,,,,,,,,,,,,,,102.42813416698482,103.2269583749876,104.01893745898268,104.0109827919805,,,,,,,,,,,,,,,,104.01160962498398,104.01893745898268,104.01893745898268,104.42873999997391,g,1.0,0.4021275420091115,,104.42931066697928,104.4391991669836,105.42775333399186,105.4336774169933,,,,,,,,,,,,,,,,,,,,sub-226,1,stroop_test,119.33916032777556,
,,,,8.0,8.0,0.0,,,,,rot,red,r,1.0,r,1.0,0.5044612500059884,,,,,,,,,,,,,,0.0,8.0,8.0,1.0,,,,,105.4336774169933,,,,,,,,,,,,,,,,,105.42829908398562,106.6271647089743,107.42376587499166,107.4108551669924,,,,,,,,,,,,,,,,107.41610079197562,107.42376587499166,107.42376587499166,107.93509333397378,r,1.0,0.5044612500059884,,107.93564508398411,107.94627054198644,108.93295379198388,108.9436348749732,,,,,,,,,,,,,,,,,,,,sub-226,1,stroop_test,119.33916032777556,
,,,,9.0,9.0,0.0,,,,,rot,yellow,g,0.0,g,1.0,0.6907463750103489,,,,,,,,,,,,,,0.0,9.0,9.0,3.0,,,,,108.9436348749732,,,,,,,,,,,,,,,,,108.93342191699776,109.28369904198917,110.08607574997586,110.07807095898896,,,,,,,,,,,,,,,,110.07885470899056,110.08607574997586,110.08607574997586,110.7789529169968,g,1.0,0.6907463750103489,,110.77951699998812,110.78980337499524,111.777995041979,111.7839394589828,,,,,,,,,,,,,,,,,,,,sub-226,1,stroop_test,119.33916032777556,
,,,,10.0,10.0,0.0,,,,,rot,blue,b,0.0,b,1.0,0.3464936249947641,,,,,,,,,,,,,,0.0,10.0,10.0,2.0,,,,,111.7839394589828,,,,,,,,,,,,,,,,,111.778498959,111.87721762497677,112.6690647089854,112.66102754199528,,,,,,,,,,,,,,,,112.66166916699147,112.6690647089854,112.6690647089854,113.01900449997628,b,1.0,0.3464936249947641,,113.01955437497236,113.03205295899534,114.01617424999132,114.02717037498952,,,,,,,,,,,,,,,,,,,,sub-226,1,stroop_test,119.33916032777556,
,,,,11.0,11.0,0.0,,,,,gelb,yellow,g,1.0,g,1.0,0.381809707992943,,,,,,,,,,,,,,0.0,11.0,11.0,10.0,,,,,114.02717037498952,,,,,,,,,,,,,,,,,114.01665974999196,114.11760833399605,114.9230721249769,114.9112203749828,,,,,,,,,,,,,,,,114.91552795897589,114.9230721249769,114.9230721249769,115.31273420897196,g,1.0,0.381809707992943,,115.31341912498463,115.3236061669886,116.31104299999424,116.31696604198078,,,,,,,,,,,,,,,,,,,,sub-226,1,stroop_test,119.33916032777556,
,,,,12.0,0.0,1.0,,,,,rot,yellow,g,0.0,g,1.0,0.4077364160038996,,,,,,,,,,,,,,1.0,0.0,12.0,3.0,,,,,116.31696604198078,,,,,,,,,,,,,,,,,116.3114888749842,116.41043912500028,117.2057927089918,117.19450749998214,,,,,,,,,,,,,,,,117.1983367089997,117.2057927089918,117.2057927089918,117.61804641698836,g,1.0,0.4077364160038996,,117.61859316698974,117.62945749997743,118.61844079199363,118.62689862499246,,,,,,,,,,,,,,,,,,,,sub-226,1,stroop_test,119.33916032777556,
,,,,13.0,1.0,1.0,,,,,blau,blue,b,1.0,b,1.0,0.4304504170140717,,,,,,,,,,,,,,1.0,1.0,13.0,6.0,,,,,118.62689862499246,,,,,,,,,,,,,,,,,118.61887862498406,119.81770620899624,120.61332999999286,120.60123133397428,,,,,,,,,,,,,,,,120.60537062498042,120.61332999999286,120.61332999999286,121.04639691699413,b,1.0,0.4304504170140717,,121.04709083397756,121.05748254197532,122.04453420898062,122.05002770898864,,,,,,,,,,,,,,,,,,,,sub-226,1,stroop_test,119.33916032777556,
,,,,14.0,2.0,1.0,,,,,gelb,yellow,g,1.0,g,1.0,0.3866440829879138,,,,,,,,,,,,,,1.0,2.0,14.0,11.0,,,,,122.05002770898864,,,,,,,,,,,,,,,,,122.04496808399564,122.1440124589717,122.93828291699174,122.92785449998335,,,,,,,,,,,,,,,,122.9311109999835,122.93828291699174,122.93828291699174,123.32926199998474,g,1.0,0.3866440829879138,,123.32992525000007,123.34014170899172,124.32791887497297,124.33388841699345,,,,,,,,,,,,,,,,,,,,sub-226,1,stroop_test,119.33916032777556,
,,,,15.0,3.0,1.0,,,,,gelb,red,r,0.0,r,1.0,0.2611180839885492,,,,,,,,,,,,,,1.0,3.0,15.0,8.0,,,,,124.33388841699345,,,,,,,,,,,,,,,,,124.3283627499768,125.1273127089953,125.9187815419864,125.91120524998404,,,,,,,,,,,,,,,,125.91184499999508,125.9187815419864,125.9187815419864,126.1855729589879,r,1.0,0.2611180839885492,,126.1861173339712,126.19644795899512,127.18337737498224,127.19413662498118,,,,,,,,,,,,,,,,,,,,sub-226,1,stroop_test,119.33916032777556,
,,,,16.0,4.0,1.0,,,,,gelb,blue,b,0.0,b,1.0,0.4207408340007532,,,,,,,,,,,,,,1.0,4.0,16.0,9.0,,,,,127.19413662498118,,,,,,,,,,,,,,,,,127.18375779199414,127.28368308398058,128.08551024997723,128.07798779199948,,,,,,,,,,,,,,,,128.07865424998454,128.08551024997723,128.08551024997723,128.51255554199452,b,1.0,0.4207408340007532,,128.51311958397855,128.5226183339837,129.51125862498884,129.5169812499953,,,,,,,,,,,,,,,,,,,,sub-226,1,stroop_test,119.33916032777556,
,,,,17.0,5.0,1.0,,,,,blau,red,r,0.0,r,1.0,0.5548340840032324,,,,,,,,,,,,,,1.0,5.0,17.0,4.0,,,,,129.5169812499953,,,,,,,,,,,,,,,,,129.5117025839863,130.3107318749826,131.106536916981,131.09474366699578,,,,,,,,,,,,,,,,131.09924629199668,131.106536916981,131.106536916981,131.67291337499046,r,1.0,0.5548340840032324,,131.67348704198957,131.67968391699833,132.6667072919954,132.67757562498446,,,,,,,,,,,,,,,,,,,,sub-226,1,stroop_test,119.33916032777556,
,,,,18.0,6.0,1.0,,,,,blau,yellow,g,0.0,g,1.0,0.3992664170218631,,,,,,,,,,,,,,1.0,6.0,18.0,7.0,,,,,132.67757562498446,,,,,,,,,,,,,,,,,132.66715429199394,133.46769683397724,134.26951304197428,134.26148549999925,,,,,,,,,,,,,,,,134.26213549997192,134.26951304197428,134.26951304197428,134.6789186669921,g,1.0,0.3992664170218631,,134.67949974999647,134.68619216699153,135.678332416981,135.6848326669715,,,,,,,,,,,,,,,,,,,,sub-226,1,stroop_test,119.33916032777556,
,,,,19.0,7.0,1.0,,,,,rot,red,r,1.0,r,1.0,0.4789734590158332,,,,,,,,,,,,,,1.0,7.0,19.0,1.0,,,,,135.6848326669715,,,,,,,,,,,,,,,,,135.67882704199292,136.477654583985,137.2741054999933,137.26182720897486,,,,,,,,,,,,,,,,137.2663509589911,137.2741054999933,137.2741054999933,137.76318270899355,r,1.0,0.4789734590158332,,137.7640827499854,137.77449379197787,138.7618185839965,138.7680044589797,,,,,,,,,,,,,,,,,,,,sub-226,1,stroop_test,119.33916032777556,
,,,,20.0,8.0,1.0,,,,,rot,blue,b,0.0,b,1.0,0.5114570419827942,,,,,,,,,,,,,,1.0,8.0,20.0,2.0,,,,,138.7680044589797,,,,,,,,,,,,,,,,,138.76232562499354,138.86105691699777,139.65297841699794,139.64495387498755,,,,,,,,,,,,,,,,139.6456400839961,139.65297841699794,139.65297841699794,140.16806529197493,b,1.0,0.5114570419827942,,140.16861495899502,140.17961141699925,141.1667560839851,141.17763324998668,,,,,,,,,,,,,,,,,,,,sub-226,1,stroop_test,119.33916032777556,
,,,,21.0,9.0,1.0,,,,,blau,blue,b,1.0,b,1.0,0.8027787909959443,,,,,,,,,,,,,,1.0,9.0,21.0,5.0,,,,,141.17763324998668,,,,,,,,,,,,,,,,,141.1672122499731,142.36677574997884,143.1632994589745,143.15191579199745,,,,,,,,,,,,,,,,143.15596787497634,143.1632994589745,143.1632994589745,143.96881104199565,b,1.0,0.8027787909959443,,143.9694141249929,143.98003066697856,144.96669316699263,144.9777849999955,,,,,,,,,,,,,,,,,,,,sub-226,1,stroop_test,119.33916032777556,
,,,,22.0,10.0,1.0,,,,,gelb,yellow,g,1.0,g,1.0,0.3717818750010337,,,,,,,,,,,,,,1.0,10.0,22.0,10.0,,,,,144.9777849999955,,,,,,,,,,,,,,,,,144.96717762498884,145.0681324999896,145.8729987499828,145.8618016249966,,,,,,,,,,,,,,,,145.86561079198145,145.8729987499828,145.8729987499828,146.2472524169716,g,1.0,0.3717818750010337,,146.24786324999877,146.258008166973,147.24502658398706,147.25082787498832,,,,,,,,,,,,,,,,,,,,sub-226,1,stroop_test,119.33916032777556,
,,,,23.0,11.0,1.0,,,,,rot,red,r,1.0,r,1.0,0.318899666017387,,,,,,,,,,,,,,1.0,11.0,23.0,0.0,,,,,147.25082787498832,,,,,,,,,,,,,,,,,147.2454813749937,148.04440466698725,148.8394892499782,148.8283759999904,,,,,,,,,,,,,,,,148.83212062498205,148.8394892499782,148.8394892499782,149.16324254198116,r,1.0,0.318899666017387,,149.1637959999789,149.1738230839837,150.161788916972,150.1690020839742,,,,,,,,,,,,,,,,,,,,sub-226,1,stroop_test,119.33916032777556,
,,,,,,,,,,,,,,,,,,,,,,,,,,,,,,,,,,,,,,,,,,,,,,,,,,,,,,,,,,,,,,,,,,,,,,,,,,,,,,,,,,,,,,,150.16197958399425,150.1690020839742,150.1690020839742,152.19667099998333,space,2.0250843340181746,,,,,,,,,,,,,,sub-226,1,stroop_test,119.33916032777556,
,,,,0.0,0.0,0.0,,,,,,,,,,,,,blau,blue,b,1.0,b,1.0,0.6963535419781692,,,,,,,,,,0.0,0.0,0.0,6.0,152.2205647919909,,,,,,,,,,,,,,,,,152.21198479199666,152.29455387499183,153.08994204198825,153.0784202089999,,,,,,,,,,,,,,,,,,,,,,,,,,,,,,,,,,,153.08268529199995,153.08994204198825,153.08994204198825,153.79677491699113,b,1.0,0.6963535419781692,,,,,,sub-226,1,stroop_test,119.33916032777556,
,,,,1.0,1.0,0.0,,,,,,,,,,,,,gelb,red,r,0.0,r,1.0,0.3738316670060158,,,,,,,,,,0.0,1.0,1.0,8.0,153.80616258399095,,,,,,,,,,,,,,,,,153.7973487089912,154.59469887497835,155.3905265419744,155.37873441699776,,,,,,,,,,,,,,,,,,,,,,,,,,,,,,,,,,,155.38312437498826,155.3905265419744,155.3905265419744,155.76932891699835,r,1.0,0.3738316670060158,,,,,,sub-226,1,stroop_test,119.33916032777556,
,,,,2.0,2.0,0.0,,,,,,,,,,,,,rot,yellow,g,0.0,g,1.0,0.4339527920237742,,,,,,,,,,0.0,2.0,2.0,3.0,155.79421333398204,,,,,,,,,,,,,,,,,155.7697817919834,156.11821995899663,156.9276069169864,156.9013253749872,,,,,,,,,,,,,,,,,,,,,,,,,,,,,,,,,,,156.90470758397714,156.9276069169864,156.9276069169864,157.36397112498526,g,1.0,0.4339527920237742,,,,,,sub-226,1,stroop_test,119.33916032777556,
,,,,3.0,3.0,0.0,,,,,,,,,,,,,blau,yellow,g,0.0,g,1.0,0.6074968340108171,,,,,,,,,,0.0,3.0,3.0,7.0,157.37340241699712,,,,,,,,,,,,,,,,,157.36445162497694,157.46131995899486,158.25717241698294,158.24547720898408,,,,,,,,,,,,,,,,,,,,,,,,,,,,,,,,,,,158.24971766697126,158.25717241698294,158.25717241698294,158.86884033397655,g,1.0,0.6074968340108171,,,,,,sub-226,1,stroop_test,119.33916032777556,
,,,,4.0,4.0,0.0,,,,,,,,,,,,,rot,red,r,1.0,r,1.0,0.4250548749987501,,,,,,,,,,0.0,4.0,4.0,0.0,158.87844270898495,,,,,,,,,,,,,,,,,158.86929983398295,158.96766933397157,159.77289683397976,159.76209524998558,,,,,,,,,,,,,,,,,,,,,,,,,,,,,,,,,,,159.76564787499956,159.77289683397976,159.77289683397976,160.2026620839897,r,1.0,0.4250548749987501,,,,,,sub-226,1,stroop_test,119.33916032777556,
,,,,5.0,5.0,0.0,,,,,,,,,,,,,rot,blue,b,0.0,b,1.0,0.3543340420001186,,,,,,,,,,0.0,5.0,5.0,2.0,160.22773941699415,,,,,,,,,,,,,,,,,160.20310116698963,161.00083137498586,161.79419887499537,161.7840067499783,,,,,,,,,,,,,,,,,,,,,,,,,,,,,,,,,,,161.78466304199537,161.79419887499537,161.79419887499537,162.15270783397136,b,1.0,0.3543340420001186,,,,,,sub-226,1,stroop_test,119.33916032777556,
,,,,6.0,6.0,0.0,,,,,,,,,,,,,gelb,blue,b,0.0,b,1.0,0.4673394590208772,,,,,,,,,,0.0,6.0,6.0,9.0,162.1778787089861,,,,,,,,,,,,,,,,,162.1531386669958,163.35107149998657,164.1444323749747,164.13412045899895,,,,,,,,,,,,,,,,,,,,,,,,,,,,,,,,,,,164.13759570897673,164.1444323749747,164.1444323749747,164.6143823339953,b,1.0,0.4673394590208772,,,,,,sub-226,1,stroop_test,119.33916032777556,
,,,,7.0,7.0,0.0,,,,,,,,,,,,,blau,blue,b,1.0,b,1.0,0.5711814160167705,,,,,,,,,,0.0,7.0,7.0,5.0,164.62406345899217,,,,,,,,,,,,,,,,,164.61497699999018,164.71146512497216,165.5070978749718,165.4955227499886,,,,,,,,,,,,,,,,,,,,,,,,,,,,,,,,,,,165.49994233399048,165.5070978749718,165.5070978749718,166.08070158399642,b,1.0,0.5711814160167705,,,,,,sub-226,1,stroop_test,119.33916032777556,
,,,,8.0,8.0,0.0,,,,,,,,,,,,,rot,red,r,1.0,r,1.0,0.4751422919798642,,,,,,,,,,0.0,8.0,8.0,1.0,166.09007170898258,,,,,,,,,,,,,,,,,166.0812070419779,166.42820199998096,167.2227612499846,167.21212558398838,,,,,,,,,,,,,,,,,,,,,,,,,,,,,,,,,,,167.21538874998805,167.2227612499846,167.2227612499846,167.70234999997774,r,1.0,0.4751422919798642,,,,,,sub-226,1,stroop_test,119.33916032777556,
,,,,9.0,9.0,0.0,,,,,,,,,,,,,gelb,yellow,g,1.0,g,1.0,0.2720388750021811,,,,,,,,,,0.0,9.0,9.0,10.0,167.71120633397368,,,,,,,,,,,,,,,,,167.7027967919712,168.50151358399307,169.30667799999355,169.2954176669882,,,,,,,,,,,,,,,,,,,,,,,,,,,,,,,,,,,169.29932645897495,169.30667799999355,169.30667799999355,169.59031712499564,g,1.0,0.2720388750021811,,,,,,sub-226,1,stroop_test,119.33916032777556,
,,,,10.0,10.0,0.0,,,,,,,,,,,,,gelb,yellow,g,1.0,g,1.0,0.4781017919885926,,,,,,,,,,0.0,10.0,10.0,11.0,169.5965747499722,,,,,,,,,,,,,,,,,169.59076166697196,170.78538612497505,171.5777130839997,171.56851666697185,,,,,,,,,,,,,,,,,,,,,,,,,,,,,,,,,,,171.56919691700023,171.5777130839997,171.5777130839997,172.06336320898845,g,1.0,0.4781017919885926,,,,,,sub-226,1,stroop_test,119.33916032777556,
,,,,11.0,11.0,0.0,,,,,,,,,,,,,blau,red,r,0.0,r,1.0,0.6703848329780158,,,,,,,,,,0.0,11.0,11.0,4.0,172.072994541988,,,,,,,,,,,,,,,,,172.06381404199055,172.1613929589803,172.95552974997554,172.94538879199536,,,,,,,,,,,,,,,,,,,,,,,,,,,,,,,,,,,172.94845483399695,172.95552974997554,172.95552974997554,173.63073829197674,r,1.0,0.6703848329780158,,,,,,sub-226,1,stroop_test,119.33916032777556,
,,,,12.0,0.0,1.0,,,,,,,,,,,,,rot,yellow,g,0.0,g,1.0,0.5688249160011765,,,,,,,,,,1.0,0.0,12.0,3.0,173.64020891697146,,,,,,,,,,,,,,,,,173.63126841699705,174.8283977919782,175.6236790419789,175.6122830839886,,,,,,,,,,,,,,,,,,,,,,,,,,,,,,,,,,,175.6161419999844,175.6236790419789,175.6236790419789,176.19695112499176,g,1.0,0.5688249160011765,,,,,,sub-226,1,stroop_test,119.33916032777556,
,,,,13.0,1.0,1.0,,,,,,,,,,,,,blau,blue,b,1.0,b,1.0,0.3260020419838838,,,,,,,,,,1.0,1.0,13.0,6.0,176.2061970839859,,,,,,,,,,,,,,,,,176.19739124999614,177.39511391698034,178.18950395897264,178.17911691698828,,,,,,,,,,,,,,,,,,,,,,,,,,,,,,,,,,,178.1827589169843,178.18950395897264,178.18950395897264,178.51982175000012,b,1.0,0.3260020419838838,,,,,,sub-226,1,stroop_test,119.33916032777556,
,,,,14.0,2.0,1.0,,,,,,,,,,,,,rot,blue,b,0.0,b,1.0,0.5455594579980243,,,,,,,,,,1.0,2.0,14.0,2.0,178.544819541974,,,,,,,,,,,,,,,,,178.5202492089884,178.61787974997424,179.4118150419963,179.4009025839914,,,,,,,,,,,,,,,,,,,,,,,,,,,,,,,,,,,179.40439804198104,179.4118150419963,179.4118150419963,179.9634400419891,b,1.0,0.5455594579980243,,,,,,sub-226,1,stroop_test,119.33916032777556,
,,,,15.0,3.0,1.0,,,,,,,,,,,,,gelb,yellow,g,1.0,g,1.0,0.7878707089985255,,,,,,,,,,1.0,3.0,15.0,11.0,179.97222137497738,,,,,,,,,,,,,,,,,179.9638736669731,180.06112062497414,180.8575659589842,180.84559570899,,,,,,,,,,,,,,,,,,,,,,,,,,,,,,,,,,,180.850156874978,180.8575659589842,180.8575659589842,181.647952208994,g,1.0,0.7878707089985255,,,,,,sub-226,1,stroop_test,119.33916032777556,
,,,,16.0,4.0,1.0,,,,,,,,,,,,,blau,yellow,g,0.0,g,1.0,0.4605424160254188,,,,,,,,,,1.0,4.0,16.0,7.0,181.6572654999909,,,,,,,,,,,,,,,,,181.6484338339942,181.9950653749984,182.7912727499788,182.7793766669929,,,,,,,,,,,,,,,,,,,,,,,,,,,,,,,,,,,182.78384699998423,182.7912727499788,182.7912727499788,183.2790136669937,g,1.0,0.4605424160254188,,,,,,sub-226,1,stroop_test,119.33916032777556,
,,,,17.0,5.0,1.0,,,,,,,,,,,,,blau,red,r,0.0,r,1.0,0.5193706249992829,,,,,,,,,,1.0,5.0,17.0,4.0,183.29515124997124,,,,,,,,,,,,,,,,,183.27957437498844,183.36725366697647,184.16126791699207,184.1510607089731,,,,,,,,,,,,,,,,,,,,,,,,,,,,,,,,,,,184.1517170839943,184.16126791699207,184.16126791699207,184.68672570897616,r,1.0,0.5193706249992829,,,,,,sub-226,1,stroop_test,119.33916032777556,
,,,,18.0,6.0,1.0,,,,,,,,,,,,,rot,red,r,1.0,r,1.0,0.6181045839912258,,,,,,,,,,1.0,6.0,18.0,1.0,184.69697912497213,,,,,,,,,,,,,,,,,184.6872929999954,185.48510995897232,186.2898932089738,186.2790212919936,,,,,,,,,,,,,,,,,,,,,,,,,,,,,,,,,,,186.28251804198956,186.2898932089738,186.2898932089738,186.91357445897305,r,1.0,0.6181045839912258,,,,,,sub-226,1,stroop_test,119.33916032777556,
,,,,19.0,7.0,1.0,,,,,,,,,,,,,gelb,yellow,g,1.0,g,1.0,0.5795398749760352,,,,,,,,,,1.0,7.0,19.0,10.0,186.9230720839987,,,,,,,,,,,,,,,,,186.9140122089884,187.2619789999735,188.0569674999861,188.04581316697292,,,,,,,,,,,,,,,,,,,,,,,,,,,,,,,,,,,188.04970887498348,188.0569674999861,188.0569674999861,188.6475030419824,g,1.0,0.5795398749760352,,,,,,sub-226,1,stroop_test,119.33916032777556,
,,,,20.0,8.0,1.0,,,,,,,,,,,,,gelb,red,r,0.0,r,1.0,0.5869123330048751,,,,,,,,,,1.0,8.0,20.0,8.0,188.65744741697563,,,,,,,,,,,,,,,,,188.64815537497637,189.845397499972,190.63707124997745,190.6290767089813,,,,,,,,,,,,,,,,,,,,,,,,,,,,,,,,,,,190.6297243339941,190.63707124997745,190.63707124997745,191.2294931249926,r,1.0,0.5869123330048751,,,,,,sub-226,1,stroop_test,119.33916032777556,
,,,,21.0,9.0,1.0,,,,,,,,,,,,,rot,red,r,1.0,r,1.0,0.4833312919945456,,,,,,,,,,1.0,9.0,21.0,0.0,191.2383397919766,,,,,,,,,,,,,,,,,191.22994579197257,191.31818049997676,192.1238971669809,192.11267579198463,,,,,,,,,,,,,,,,,,,,,,,,,,,,,,,,,,,192.11644108398468,192.1238971669809,192.1238971669809,192.61367362499004,r,1.0,0.4833312919945456,,,,,,sub-226,1,stroop_test,119.33916032777556,
,,,,22.0,10.0,1.0,,,,,,,,,,,,,blau,blue,b,1.0,b,1.0,0.5255669160105754,,,,,,,,,,1.0,10.0,22.0,5.0,192.6225686669932,,,,,,,,,,,,,,,,,192.61412349998136,192.71196129199237,193.5068447919912,193.49578033399305,,,,,,,,,,,,,,,,,,,,,,,,,,,,,,,,,,,193.4995547089784,193.5068447919912,193.5068447919912,194.0359797089768,b,1.0,0.5255669160105754,,,,,,sub-226,1,stroop_test,119.33916032777556,
,,,,23.0,11.0,1.0,,,,,,,,,,,,,gelb,blue,b,0.0,b,1.0,0.633720749989152,,,,,,,,,,1.0,11.0,23.0,9.0,194.04500979199656,,,,,,,,,,,,,,,,,194.03640066698424,194.1354074999981,194.93137008399933,194.9191275839985,,,,,,,,,,,,,,,,,,,,,,,,,,,,,,,,,,,194.9228503749764,194.93137008399933,194.93137008399933,195.5697399999772,b,1.0,0.633720749989152,,,,,,sub-226,1,stroop_test,119.33916032777556,
,,,,24.0,0.0,2.0,,,,,,,,,,,,,blau,blue,b,1.0,b,1.0,0.5002779169881251,,,,,,,,,,2.0,0.0,24.0,5.0,195.5949376669887,,,,,,,,,,,,,,,,,195.57027466699947,196.7687633339956,197.5643805839936,197.55232483398868,,,,,,,,,,,,,,,,,,,,,,,,,,,,,,,,,,,197.55628741698456,197.5643805839936,197.5643805839936,198.06986520899227,b,1.0,0.5002779169881251,,,,,,sub-226,1,stroop_test,119.33916032777556,
,,,,25.0,1.0,2.0,,,,,,,,,,,,,rot,red,r,1.0,r,1.0,0.505225667002378,,,,,,,,,,2.0,1.0,25.0,0.0,198.09513087497908,,,,,,,,,,,,,,,,,198.070287333976,199.2689568339847,200.0733042499924,200.0626087089768,,,,,,,,,,,,,,,,,,,,,,,,,,,,,,,,,,,200.0658869999752,200.0733042499924,200.0733042499924,200.58098604198312,r,1.0,0.505225667002378,,,,,,sub-226,1,stroop_test,119.33916032777556,
,,,,26.0,2.0,2.0,,,,,,,,,,,,,gelb,yellow,g,1.0,g,1.0,0.4261916670075152,,,,,,,,,,2.0,2.0,26.0,11.0,200.59034787499692,,,,,,,,,,,,,,,,,200.58142533397768,201.77879299997585,202.57294041698333,202.5626449589909,,,,,,,,,,,,,,,,,,,,,,,,,,,,,,,,,,,202.5658974169928,202.57294041698333,202.57294041698333,203.0031245839782,g,1.0,0.4261916670075152,,,,,,sub-226,1,stroop_test,119.33916032777556,
,,,,27.0,3.0,2.0,,,,,,,,,,,,,blau,yellow,g,0.0,g,1.0,0.7492496670165565,,,,,,,,,,2.0,3.0,27.0,7.0,203.01192708397863,,,,,,,,,,,,,,,,,203.0035661669972,203.8019633339718,204.59772899997188,204.58597483398623,,,,,,,,,,,,,,,,,,,,,,,,,,,,,,,,,,,204.58942058397224,204.59772899997188,204.59772899997188,205.35284129198408,g,1.0,0.7492496670165565,,,,,,sub-226,1,stroop_test,119.33916032777556,
,,,,28.0,4.0,2.0,,,,,,,,,,,,,blau,red,r,0.0,r,1.0,0.6768220830126666,,,,,,,,,,2.0,4.0,28.0,4.0,205.36179479199927,,,,,,,,,,,,,,,,,205.35326637499384,205.7021249589743,206.50426520899052,206.49625408399152,,,,,,,,,,,,,,,,,,,,,,,,,,,,,,,,,,,206.49693841699627,206.50426520899052,206.50426520899052,207.18676166699152,r,1.0,0.6768220830126666,,,,,,sub-226,1,stroop_test,119.33916032777556,
,,,,29.0,5.0,2.0,,,,,,,,,,,,,gelb,red,r,0.0,r,1.0,0.644072374998359,,,,,,,,,,2.0,5.0,29.0,8.0,207.19580766698343,,,,,,,,,,,,,,,,,207.18719241698275,208.38561804199708,209.1815053749888,209.16968612498025,,,,,,,,,,,,,,,,,,,,,,,,,,,,,,,,,,,209.17370095898517,209.1815053749888,209.1815053749888,209.83099533399215,r,1.0,0.644072374998359,,,,,,sub-226,1,stroop_test,119.33916032777556,
,,,,30.0,6.0,2.0,,,,,,,,,,,,,rot,red,r,1.0,r,1.0,0.4890527499956079,,,,,,,,,,2.0,6.0,30.0,1.0,209.84028087498157,,,,,,,,,,,,,,,,,209.8314536249964,210.17918483397807,210.97372054198055,210.96288783397176,,,,,,,,,,,,,,,,,,,,,,,,,,,,,,,,,,,210.9662449589814,210.97372054198055,210.97372054198055,211.4653894589865,r,1.0,0.4890527499956079,,,,,,sub-226,1,stroop_test,119.33916032777556,
,,,,31.0,7.0,2.0,,,,,,,,,,,,,rot,yellow,g,0.0,g,1.0,0.3848280839738436,,,,,,,,,,2.0,7.0,31.0,3.0,211.47455262497533,,,,,,,,,,,,,,,,,211.46591279198765,212.6619747919904,213.45439620898105,213.4462972919864,,,,,,,,,,,,,,,,,,,,,,,,,,,,,,,,,,,213.4469393749896,213.45439620898105,213.45439620898105,213.84782587498196,g,1.0,0.3848280839738436,,,,,,sub-226,1,stroop_test,119.33916032777556,
,,,,32.0,8.0,2.0,,,,,,,,,,,,,rot,blue,b,0.0,b,1.0,0.3588146249821875,,,,,,,,,,2.0,8.0,32.0,2.0,213.8572337089863,,,,,,,,,,,,,,,,,213.848380624986,214.6459586249839,215.4367354589922,215.42928937499528,,,,,,,,,,,,,,,,,,,,,,,,,,,,,,,,,,,215.42993616699823,215.4367354589922,215.4367354589922,215.79800724997767,b,1.0,0.3588146249821875,,,,,,sub-226,1,stroop_test,119.33916032777556,
,,,,33.0,9.0,2.0,,,,,,,,,,,,,gelb,blue,b,0.0,b,1.0,0.4708543330198154,,,,,,,,,,2.0,9.0,33.0,9.0,215.8072331669973,,,,,,,,,,,,,,,,,215.798504958977,215.8956438339956,216.69135774997997,216.67972308397293,,,,,,,,,,,,,,,,,,,,,,,,,,,,,,,,,,,216.68412154199905,216.69135774997997,216.69135774997997,217.16462249998585,b,1.0,0.4708543330198154,,,,,,sub-226,1,stroop_test,119.33916032777556,
,,,,34.0,10.0,2.0,,,,,,,,,,,,,blau,blue,b,1.0,b,1.0,0.443095374997938,,,,,,,,,,2.0,10.0,34.0,6.0,217.1741233339999,,,,,,,,,,,,,,,,,217.16505774998225,217.96211612498155,218.75666595899384,218.7462734999717,,,,,,,,,,,,,,,,,,,,,,,,,,,,,,,,,,,218.7495518749929,218.75666595899384,218.75666595899384,219.2038816249988,b,1.0,0.443095374997938,,,,,,sub-226,1,stroop_test,119.33916032777556,
,,,,35.0,11.0,2.0,,,,,,,,,,,,,gelb,yellow,g,1.0,g,1.0,0.4935705829993821,,,,,,,,,,2.0,11.0,35.0,10.0,219.22880962499767,,,,,,,,,,,,,,,,,219.20442683398144,220.4021546669828,221.19804666697743,221.186094374978,,,,,,,,,,,,,,,,,,,,,,,,,,,,,,,,,,,221.1899319169752,221.19804666697743,221.19804666697743,221.69790095899955,g,1.0,0.4935705829993821,,,,,,sub-226,1,stroop_test,119.33916032777556,
,,,,36.0,0.0,3.0,,,,,,,,,,,,,rot,yellow,g,0.0,g,1.0,0.5380436669802293,,,,,,,,,,3.0,0.0,36.0,3.0,221.7070109169872,,,,,,,,,,,,,,,,,221.69833537499653,222.0458989169856,222.84097495899184,222.82983295898885,,,,,,,,,,,,,,,,,,,,,,,,,,,,,,,,,,,222.83355958398897,222.84097495899184,222.84097495899184,223.38163299998268,g,1.0,0.5380436669802293,,,,,,sub-226,1,stroop_test,119.33916032777556,
,,,,37.0,1.0,3.0,,,,,,,,,,,,,blau,red,r,0.0,r,1.0,0.5481311660259962,,,,,,,,,,3.0,1.0,37.0,4.0,223.39122712498647,,,,,,,,,,,,,,,,,223.38214174998572,224.579052999994,225.3742818339961,225.36314066697375,,,,,,,,,,,,,,,,,,,,,,,,,,,,,,,,,,,225.367019583995,225.3742818339961,225.3742818339961,225.93107158399653,r,1.0,0.5481311660259962,,,,,,sub-226,1,stroop_test,119.33916032777556,
,,,,38.0,2.0,3.0,,,,,,,,,,,,,gelb,yellow,g,1.0,g,1.0,0.5028989170095883,,,,,,,,,,3.0,2.0,38.0,10.0,225.94036962499376,,,,,,,,,,,,,,,,,225.93151062499965,227.12937258399324,227.92389270899,227.91315516698523,,,,,,,,,,,,,,,,,,,,,,,,,,,,,,,,,,,227.91681133399837,227.92389270899,227.92389270899,228.43168595898896,g,1.0,0.5028989170095883,,,,,,sub-226,1,stroop_test,119.33916032777556,
,,,,39.0,3.0,3.0,,,,,,,,,,,,,rot,blue,b,0.0,b,1.0,0.5242425000178628,,,,,,,,,,3.0,3.0,39.0,2.0,228.44122470897852,,,,,,,,,,,,,,,,,228.4322379999794,229.62934224997295,230.4242579169804,230.4132177499996,,,,,,,,,,,,,,,,,,,,,,,,,,,,,,,,,,,230.41680283399185,230.4242579169804,230.4242579169804,230.9528792919882,b,1.0,0.5242425000178628,,,,,,sub-226,1,stroop_test,119.33916032777556,
,,,,40.0,4.0,3.0,,,,,,,,,,,,,gelb,yellow,g,1.0,g,1.0,0.7733314590004738,,,,,,,,,,3.0,4.0,40.0,11.0,230.96201208399725,,,,,,,,,,,,,,,,,230.9532978339994,232.1524875419855,232.95784574997376,232.94655495899497,,,,,,,,,,,,,,,,,,,,,,,,,,,,,,,,,,,232.95052445898185,232.95784574997376,232.95784574997376,233.73757104197284,g,1.0,0.7733314590004738,,,,,,sub-226,1,stroop_test,119.33916032777556,
,,,,41.0,5.0,3.0,,,,,,,,,,,,,blau,blue,b,1.0,b,1.0,0.7241149590117857,,,,,,,,,,3.0,5.0,41.0,5.0,233.74765908397967,,,,,,,,,,,,,,,,,233.7381064589717,234.9355744169734,235.72857683399343,235.71837470898757,,,,,,,,,,,,,,,,,,,,,,,,,,,,,,,,,,,235.72146449997672,235.72857683399343,235.72857683399343,236.45513637497788,b,1.0,0.7241149590117857,,,,,,sub-226,1,stroop_test,119.33916032777556,
,,,,42.0,6.0,3.0,,,,,,,,,,,,,rot,red,r,1.0,r,1.0,0.7814987079764251,,,,,,,,,,3.0,6.0,42.0,1.0,236.4647863339924,,,,,,,,,,,,,,,,,236.455576791981,237.2530457919929,238.04852337497869,238.03633454197552,,,,,,,,,,,,,,,,,,,,,,,,,,,,,,,,,,,238.039965791977,238.04852337497869,238.04852337497869,238.8332007919962,r,1.0,0.7814987079764251,,,,,,sub-226,1,stroop_test,119.33916032777556,
,,,,43.0,7.0,3.0,,,,,,,,,,,,,blau,yellow,g,0.0,g,1.0,0.5251990419928916,,,,,,,,,,3.0,7.0,43.0,7.0,238.84281787497457,,,,,,,,,,,,,,,,,238.8337964169914,239.17941529199013,239.97416104198783,239.9633878749737,,,,,,,,,,,,,,,,,,,,,,,,,,,,,,,,,,,239.9668788339768,239.97416104198783,239.97416104198783,240.50421854198797,g,1.0,0.5251990419928916,,,,,,sub-226,1,stroop_test,119.33916032777556,
,,,,44.0,8.0,3.0,,,,,,,,,,,,,rot,red,r,1.0,r,1.0,0.5310567500127945,,,,,,,,,,3.0,8.0,44.0,0.0,240.5292354169942,,,,,,,,,,,,,,,,,240.5046392089862,240.602955749986,241.40890029197908,241.3972817089816,,,,,,,,,,,,,,,,,,,,,,,,,,,,,,,,,,,241.40138495899737,241.40890029197908,241.40890029197908,241.9482571249828,r,1.0,0.5310567500127945,,,,,,sub-226,1,stroop_test,119.33916032777556,
,,,,45.0,9.0,3.0,,,,,,,,,,,,,blau,blue,b,1.0,b,1.0,0.3238445419992786,,,,,,,,,,3.0,9.0,45.0,6.0,241.95764470897848,,,,,,,,,,,,,,,,,241.94875579199288,243.1462093339942,243.94123224998475,243.9302458339953,,,,,,,,,,,,,,,,,,,,,,,,,,,,,,,,,,,243.9340429589793,243.94123224998475,243.94123224998475,244.2708710419829,b,1.0,0.3238445419992786,,,,,,sub-226,1,stroop_test,119.33916032777556,
,,,,46.0,10.0,3.0,,,,,,,,,,,,,gelb,blue,b,0.0,b,1.0,0.5512553750013467,,,,,,,,,,3.0,10.0,46.0,9.0,244.2958964589925,,,,,,,,,,,,,,,,,244.2713053339976,244.370916749991,245.17418520897627,245.16346574999625,,,,,,,,,,,,,,,,,,,,,,,,,,,,,,,,,,,245.1670392919914,245.17418520897627,245.17418520897627,245.73164999997243,b,1.0,0.5512553750013467,,,,,,sub-226,1,stroop_test,119.33916032777556,
,,,,47.0,11.0,3.0,,,,,,,,,,,,,gelb,red,r,0.0,r,1.0,0.4387163749779574,,,,,,,,,,3.0,11.0,47.0,8.0,245.74094595899803,,,,,,,,,,,,,,,,,245.7320803339826,246.92957537499024,247.72118337498975,247.7134327919921,,,,,,,,,,,,,,,,,,,,,,,,,,,,,,,,,,,247.7140915419732,247.72118337498975,247.72118337498975,248.16522266698303,r,1.0,0.4387163749779574,,,,,,sub-226,1,stroop_test,119.33916032777556,
,,,,48.0,0.0,4.0,,,,,,,,,,,,,rot,yellow,g,0.0,g,1.0,0.2959573749976698,,,,,,,,,,4.0,0.0,48.0,3.0,248.1745156669931,,,,,,,,,,,,,,,,,248.16576124998392,248.5130133749917,249.3087249999808,249.2968572499813,,,,,,,,,,,,,,,,,,,,,,,,,,,,,,,,,,,249.3014755419863,249.3087249999808,249.3087249999808,249.6147951249732,g,1.0,0.2959573749976698,,,,,,sub-226,1,stroop_test,119.33916032777556,
,,,,49.0,1.0,4.0,,,,,,,,,,,,,blau,blue,b,1.0,b,1.0,0.4994766659801826,,,,,,,,,,4.0,1.0,49.0,6.0,249.6241446249769,,,,,,,,,,,,,,,,,249.61523399999717,250.8130842919927,251.60798916697968,251.59694579200004,,,,,,,,,,,,,,,,,,,,,,,,,,,,,,,,,,,251.6007922089775,251.60798916697968,251.60798916697968,252.1152041249734,b,1.0,0.4994766659801826,,,,,,sub-226,1,stroop_test,119.33916032777556,
,,,,50.0,2.0,4.0,,,,,,,,,,,,,gelb,blue,b,0.0,b,1.0,0.5547982080024667,,,,,,,,,,4.0,2.0,50.0,9.0,252.12471237499267,,,,,,,,,,,,,,,,,252.11574158398437,252.4630929589912,253.25913370898343,253.2471098749957,,,,,,,,,,,,,,,,,,,,,,,,,,,,,,,,,,,253.2515185419761,253.25913370898343,253.25913370898343,253.82131749999823,b,1.0,0.5547982080024667,,,,,,sub-226,1,stroop_test,119.33916032777556,
,,,,51.0,3.0,4.0,,,,,,,,,,,,,blau,yellow,g,0.0,g,1.0,0.7390531669952907,,,,,,,,,,4.0,3.0,51.0,7.0,253.8459134589939,,,,,,,,,,,,,,,,,253.8217681669921,254.1699271669786,254.97459079197145,254.96358583398975,,,,,,,,,,,,,,,,,,,,,,,,,,,,,,,,,,,254.9672861250001,254.97459079197145,254.97459079197145,255.72583424998447,g,1.0,0.7390531669952907,,,,,,sub-226,1,stroop_test,119.33916032777556,
,,,,52.0,4.0,4.0,,,,,,,,,,,,,blau,red,r,0.0,r,1.0,0.324845416995231,,,,,,,,,,4.0,4.0,52.0,4.0,255.7311963749817,,,,,,,,,,,,,,,,,255.72627308397205,256.91958991697174,257.7126238339988,257.7044154169853,,,,,,,,,,,,,,,,,,,,,,,,,,,,,,,,,,,257.7051363339997,257.7126238339988,257.7126238339988,258.04871574998833,r,1.0,0.324845416995231,,,,,,sub-226,1,stroop_test,119.33916032777556,
,,,,53.0,5.0,4.0,,,,,,,,,,,,,blau,blue,b,1.0,b,1.0,0.4700870410015341,,,,,,,,,,4.0,5.0,53.0,5.0,258.05817591698724,,,,,,,,,,,,,,,,,258.0492624169856,259.24653008399764,260.03842358398833,260.03039370899205,,,,,,,,,,,,,,,,,,,,,,,,,,,,,,,,,,,260.0310356669943,260.03842358398833,260.03842358398833,260.5152232499968,b,1.0,0.4700870410015341,,,,,,sub-226,1,stroop_test,119.33916032777556,
,,,,54.0,6.0,4.0,,,,,,,,,,,,,gelb,red,r,0.0,r,1.0,0.5247967089817394,,,,,,,,,,4.0,6.0,54.0,8.0,260.5244942919817,,,,,,,,,,,,,,,,,260.5157127499988,261.7131285839714,262.50951970898313,262.4972182089987,,,,,,,,,,,,,,,,,,,,,,,,,,,,,,,,,,,262.501981666981,262.50951970898313,262.50951970898313,263.0392360419792,r,1.0,0.5247967089817394,,,,,,sub-226,1,stroop_test,119.33916032777556,
,,,,55.0,7.0,4.0,,,,,,,,,,,,,rot,red,r,1.0,r,1.0,0.4659589590155519,,,,,,,,,,4.0,7.0,55.0,0.0,263.0491184999992,,,,,,,,,,,,,,,,,263.0397804169916,263.83691512499354,264.6418213750003,264.63050054199994,,,,,,,,,,,,,,,,,,,,,,,,,,,,,,,,,,,264.63439566697343,264.6418213750003,264.6418213750003,265.1155849169881,r,1.0,0.4659589590155519,,,,,,sub-226,1,stroop_test,119.33916032777556,
,,,,56.0,8.0,4.0,,,,,,,,,,,,,gelb,yellow,g,1.0,g,1.0,0.387082500004908,,,,,,,,,,4.0,8.0,56.0,11.0,265.12504824998905,,,,,,,,,,,,,,,,,265.11603837498114,266.3132369169907,267.1090378339868,267.0971843339794,,,,,,,,,,,,,,,,,,,,,,,,,,,,,,,,,,,267.1017061669845,267.1090378339868,267.1090378339868,267.498388374981,g,1.0,0.387082500004908,,,,,,sub-226,1,stroop_test,119.33916032777556,
,,,,57.0,9.0,4.0,,,,,,,,,,,,,rot,red,r,1.0,r,1.0,0.5125599580060225,,,,,,,,,,4.0,9.0,57.0,1.0,267.5077016669966,,,,,,,,,,,,,,,,,267.49881649998133,268.69671116699465,269.4930553749728,269.4809175839764,,,,,,,,,,,,,,,,,,,,,,,,,,,,,,,,,,,269.4853334169893,269.4930553749728,269.4930553749728,270.0154713749944,r,1.0,0.5125599580060225,,,,,,sub-226,1,stroop_test,119.33916032777556,
,,,,58.0,10.0,4.0,,,,,,,,,,,,,rot,blue,b,0.0,b,1.0,0.3479754579893779,,,,,,,,,,4.0,10.0,58.0,2.0,270.0246239169792,,,,,,,,,,,,,,,,,270.01591587497387,270.8133814999892,271.60536358397803,271.59744445898104,,,,,,,,,,,,,,,,,,,,,,,,,,,,,,,,,,,271.5981462499767,271.60536358397803,271.60536358397803,271.9557582499983,b,1.0,0.3479754579893779,,,,,,sub-226,1,stroop_test,119.33916032777556,
,,,,59.0,11.0,4.0,,,,,,,,,,,,,gelb,yellow,g,1.0,g,1.0,0.3610232499777339,,,,,,,,,,4.0,11.0,59.0,10.0,271.9654757089738,,,,,,,,,,,,,,,,,271.9562056249997,272.75344608398154,273.54685799998697,273.536382041988,,,,,,,,,,,,,,,,,,,,,,,,,,,,,,,,,,,273.53970054199453,273.54685799998697,273.54685799998697,273.9152143749816,g,1.0,0.3610232499777339,,,,,,sub-226,1,stroop_test,119.33916032777556,
,,,,60.0,0.0,5.0,,,,,,,,,,,,,blau,yellow,g,0.0,g,1.0,0.6559232079889625,,,,,,,,,,5.0,0.0,60.0,7.0,273.924373249989,,,,,,,,,,,,,,,,,273.9156597919937,274.0136817499879,274.8080176669755,274.7972127919784,,,,,,,,,,,,,,,,,,,,,,,,,,,,,,,,,,,274.8009289589827,274.8080176669755,274.8080176669755,275.46653841697844,g,1.0,0.6559232079889625,,,,,,sub-226,1,stroop_test,119.33916032777556,
,,,,61.0,1.0,5.0,,,,,,,,,,,,,blau,blue,b,1.0,b,1.0,0.5532819590007421,,,,,,,,,,5.0,1.0,61.0,5.0,275.47601141699124,,,,,,,,,,,,,,,,,275.46699695897405,275.81347354198806,276.6056483749999,276.5975089169806,,,,,,,,,,,,,,,,,,,,,,,,,,,,,,,,,,,276.5982134589867,276.6056483749999,276.6056483749999,277.16539395897416,b,1.0,0.5532819590007421,,,,,,sub-226,1,stroop_test,119.33916032777556,
,,,,62.0,2.0,5.0,,,,,,,,,,,,,gelb,blue,b,0.0,b,1.0,0.622182791994419,,,,,,,,,,5.0,2.0,62.0,9.0,277.1746897499834,,,,,,,,,,,,,,,,,277.1659336249868,277.9634233749821,278.7595922089822,278.7475588749803,,,,,,,,,,,,,,,,,,,,,,,,,,,,,,,,,,,278.75194499999634,278.7595922089822,278.7595922089822,279.3882568749832,b,1.0,0.622182791994419,,,,,,sub-226,1,stroop_test,119.33916032777556,
,,,,63.0,3.0,5.0,,,,,,,,,,,,,blau,blue,b,1.0,b,1.0,0.4856099159806035,,,,,,,,,,5.0,3.0,63.0,6.0,279.41317462499137,,,,,,,,,,,,,,,,,279.38868020899827,279.4894147499872,280.29118287499296,280.2806765419955,,,,,,,,,,,,,,,,,,,,,,,,,,,,,,,,,,,280.28404216698254,280.29118287499296,280.29118287499296,280.7823933749751,b,1.0,0.4856099159806035,,,,,,sub-226,1,stroop_test,119.33916032777556,
,,,,64.0,4.0,5.0,,,,,,,,,,,,,rot,red,r,1.0,r,1.0,0.321392082987586,,,,,,,,,,5.0,4.0,64.0,0.0,280.7918917919742,,,,,,,,,,,,,,,,,280.7829226249887,281.130199666979,281.92636633399525,281.91435954198823,,,,,,,,,,,,,,,,,,,,,,,,,,,,,,,,,,,281.9184432919719,281.92636633399525,281.92636633399525,282.2542330839788,r,1.0,0.321392082987586,,,,,,sub-226,1,stroop_test,119.33916032777556,
,,,,65.0,5.0,5.0,,,,,,,,,,,,,blau,red,r,0.0,r,1.0,0.4732157500111498,,,,,,,,,,5.0,5.0,65.0,4.0,282.26366524997866,,,,,,,,,,,,,,,,,282.25466158398194,282.6034706669743,283.4110043339897,283.39782645899686,,,,,,,,,,,,,,,,,,,,,,,,,,,,,,,,,,,283.403409541992,283.4110043339897,283.4110043339897,283.88835195897263,r,1.0,0.4732157500111498,,,,,,sub-226,1,stroop_test,119.33916032777556,
,,,,66.0,6.0,5.0,,,,,,,,,,,,,gelb,yellow,g,1.0,g,1.0,0.56373970900313,,,,,,,,,,5.0,6.0,66.0,10.0,283.91326883397414,,,,,,,,,,,,,,,,,283.88877424999373,285.08708199998364,285.8830970419804,285.8720407499932,,,,,,,,,,,,,,,,,,,,,,,,,,,,,,,,,,,285.8755906249862,285.8830970419804,285.8830970419804,286.44947370898444,g,1.0,0.56373970900313,,,,,,sub-226,1,stroop_test,119.33916032777556,
,,,,67.0,7.0,5.0,,,,,,,,,,,,,rot,red,r,1.0,r,1.0,0.4883035839884542,,,,,,,,,,5.0,7.0,67.0,1.0,286.45962462498574,,,,,,,,,,,,,,,,,286.4502518749796,286.79701924999245,287.5920178339875,287.58089054198354,,,,,,,,,,,,,,,,,,,,,,,,,,,,,,,,,,,287.5846479589818,287.5920178339875,287.5920178339875,288.0828704169835,r,1.0,0.4883035839884542,,,,,,sub-226,1,stroop_test,119.33916032777556,
,,,,68.0,8.0,5.0,,,,,,,,,,,,,rot,yellow,g,0.0,g,1.0,0.6162785419728607,,,,,,,,,,5.0,8.0,68.0,3.0,288.09265958398464,,,,,,,,,,,,,,,,,288.08342654199805,288.8803779999725,289.6726677089755,289.66454562498257,,,,,,,,,,,,,,,,,,,,,,,,,,,,,,,,,,,289.66518841698417,289.6726677089755,289.6726677089755,290.29885949997697,g,1.0,0.6162785419728607,,,,,,sub-226,1,stroop_test,119.33916032777556,
,,,,69.0,9.0,5.0,,,,,,,,,,,,,rot,blue,b,0.0,b,1.0,0.3783687920076772,,,,,,,,,,5.0,9.0,69.0,2.0,290.30806804198073,,,,,,,,,,,,,,,,,290.29929708398413,291.4970553339808,292.2887399589817,292.2810350419895,,,,,,,,,,,,,,,,,,,,,,,,,,,,,,,,,,,292.28166970898747,292.2887399589817,292.2887399589817,292.6708452499879,b,1.0,0.3783687920076772,,,,,,sub-226,1,stroop_test,119.33916032777556,
,,,,70.0,10.0,5.0,,,,,,,,,,,,,gelb,yellow,g,1.0,g,1.0,0.5858965830120724,,,,,,,,,,5.0,10.0,70.0,11.0,292.67975949999527,,,,,,,,,,,,,,,,,292.6712709169951,293.02060220899875,293.81612220898387,293.8043655839865,,,,,,,,,,,,,,,,,,,,,,,,,,,,,,,,,,,293.8080392089905,293.81612220898387,293.81612220898387,294.40559474998736,g,1.0,0.5858965830120724,,,,,,sub-226,1,stroop_test,119.33916032777556,
,,,,71.0,11.0,5.0,,,,,,,,,,,,,gelb,red,r,0.0,r,1.0,0.3337962919904385,,,,,,,,,,5.0,11.0,71.0,8.0,294.4154004169977,,,,,,,,,,,,,,,,,294.40614245898905,294.50386574998265,295.2966111249989,295.2872614999942,,,,,,,,,,,,,,,,,,,,,,,,,,,,,,,,,,,295.2879118749988,295.2966111249989,295.2966111249989,295.6327904589998,r,1.0,0.3337962919904385,,,,,,sub-226,1,stroop_test,119.33916032777556,
,,,,72.0,0.0,6.0,,,,,,,,,,,,,rot,red,r,1.0,r,1.0,0.5258426249783952,,,,,,,,,,6.0,0.0,72.0,0.0,295.6420569589827,,,,,,,,,,,,,,,,,295.63322324998444,296.4305284169968,297.2258923749905,297.2145644169941,,,,,,,,,,,,,,,,,,,,,,,,,,,,,,,,,,,297.2183072499756,297.2258923749905,297.2258923749905,297.75523404197884,r,1.0,0.5258426249783952,,,,,,sub-226,1,stroop_test,119.33916032777556,
,,,,73.0,1.0,6.0,,,,,,,,,,,,,gelb,yellow,g,1.0,g,1.0,0.8307686670159455,,,,,,,,,,6.0,1.0,73.0,11.0,297.7802153339726,,,,,,,,,,,,,,,,,297.75566091699875,298.10352274999605,298.8995978749881,298.88772587498534,,,,,,,,,,,,,,,,,,,,,,,,,,,,,,,,,,,298.8914575839881,298.8995978749881,298.8995978749881,299.7335957919713,g,1.0,0.8307686670159455,,,,,,sub-226,1,stroop_test,119.33916032777556,
,,,,74.0,2.0,6.0,,,,,,,,,,,,,blau,blue,b,1.0,b,1.0,0.4463260420016013,,,,,,,,,,6.0,2.0,74.0,6.0,299.7431260419835,,,,,,,,,,,,,,,,,299.7341261669935,300.0806224169792,300.8759307919827,300.8645644589851,,,,,,,,,,,,,,,,,,,,,,,,,,,,,,,,,,,300.8688312499726,300.8759307919827,300.8759307919827,301.3327061669843,b,1.0,0.4463260420016013,,,,,,sub-226,1,stroop_test,119.33916032777556,
,,,,75.0,3.0,6.0,,,,,,,,,,,,,gelb,yellow,g,1.0,g,1.0,0.4391456250159535,,,,,,,,,,6.0,3.0,75.0,10.0,301.3422188749828,,,,,,,,,,,,,,,,,301.3332499169919,301.68058770897915,302.4763505839801,302.46464987497893,,,,,,,,,,,,,,,,,,,,,,,,,,,,,,,,,,,302.46897087499383,302.4763505839801,302.4763505839801,302.92149683399475,g,1.0,0.4391456250159535,,,,,,sub-226,1,stroop_test,119.33916032777556,
,,,,76.0,4.0,6.0,,,,,,,,,,,,,rot,blue,b,0.0,b,1.0,1.1250564160000067,,,,,,,,,,6.0,4.0,76.0,2.0,302.9303573339712,,,,,,,,,,,,,,,,,302.9219220839732,303.0210100419936,303.82575408398407,303.8144675839867,,,,,,,,,,,,,,,,,,,,,,,,,,,,,,,,,,,303.8182611249795,303.82575408398407,303.82575408398407,304.95432679197984,b,1.0,1.1250564160000067,,,,,,sub-226,1,stroop_test,119.33916032777556,
,,,,77.0,5.0,6.0,,,,,,,,,,,,,rot,yellow,g,0.0,g,1.0,0.6856895409873687,,,,,,,,,,6.0,5.0,77.0,3.0,304.96358624999993,,,,,,,,,,,,,,,,,304.9547510839766,306.1541979169997,306.9566365839855,306.9483251249767,,,,,,,,,,,,,,,,,,,,,,,,,,,,,,,,,,,306.94905437499983,306.9566365839855,306.9566365839855,307.6492681249801,g,1.0,0.6856895409873687,,,,,,sub-226,1,stroop_test,119.33916032777556,
,,,,78.0,6.0,6.0,,,,,,,,,,,,,blau,red,r,0.0,r,1.0,0.5471264579973649,,,,,,,,,,6.0,6.0,78.0,4.0,307.65859599999385,,,,,,,,,,,,,,,,,307.6497033749765,308.84727883397136,309.64281624997966,309.63138883397914,,,,,,,,,,,,,,,,,,,,,,,,,,,,,,,,,,,309.6354976249859,309.64281624997966,309.64281624997966,310.19936054199934,r,1.0,0.5471264579973649,,,,,,sub-226,1,stroop_test,119.33916032777556,
,,,,79.0,7.0,6.0,,,,,,,,,,,,,gelb,red,r,0.0,r,1.0,0.604734416003339,,,,,,,,,,6.0,7.0,79.0,8.0,310.2089707919804,,,,,,,,,,,,,,,,,310.1998039999744,311.3975613749936,312.19364316697465,312.1814761669957,,,,,,,,,,,,,,,,,,,,,,,,,,,,,,,,,,,312.18605166699854,312.19364316697465,312.19364316697465,312.8059146249725,r,1.0,0.604734416003339,,,,,,sub-226,1,stroop_test,119.33916032777556,
,,,,80.0,8.0,6.0,,,,,,,,,,,,,blau,yellow,g,0.0,g,1.0,1.3016987089940812,,,,,,,,,,6.0,8.0,80.0,7.0,312.8155884999724,,,,,,,,,,,,,,,,,312.8064550839772,314.00467662498704,314.80847224997706,314.797971958993,,,,,,,,,,,,,,,,,,,,,,,,,,,,,,,,,,,314.8011768339784,314.80847224997706,314.80847224997706,316.1157347919943,g,1.0,1.3016987089940812,,,,,,sub-226,1,stroop_test,119.33916032777556,
,,,,81.0,9.0,6.0,,,,,,,,,,,,,blau,blue,b,1.0,b,1.0,0.4082745000196155,,,,,,,,,,6.0,9.0,81.0,5.0,316.1249307919934,,,,,,,,,,,,,,,,,316.116174625,317.31426916699274,318.10701833397616,318.0983111669775,,,,,,,,,,,,,,,,,,,,,,,,,,,,,,,,,,,318.098952417,318.10701833397616,318.10701833397616,318.5274281249731,b,1.0,0.4082745000196155,,,,,,sub-226,1,stroop_test,119.33916032777556,
,,,,82.0,10.0,6.0,,,,,,,,,,,,,rot,red,r,1.0,r,1.0,0.5256564579904079,,,,,,,,,,6.0,10.0,82.0,1.0,318.53336333399056,,,,,,,,,,,,,,,,,318.52785341697745,319.7208939999982,320.5164329169784,320.5043459169974,,,,,,,,,,,,,,,,,,,,,,,,,,,,,,,,,,,320.5083212919999,320.5164329169784,320.5164329169784,321.04986958397785,r,1.0,0.5256564579904079,,,,,,sub-226,1,stroop_test,119.33916032777556,
,,,,83.0,11.0,6.0,,,,,,,,,,,,,gelb,blue,b,0.0,b,1.0,1.1299195419996977,,,,,,,,,,6.0,11.0,83.0,9.0,321.0592870839755,,,,,,,,,,,,,,,,,321.0504130839836,321.39768262498546,322.1927467089845,322.18151041699457,,,,,,,,,,,,,,,,,,,,,,,,,,,,,,,,,,,322.1853783749975,322.1927467089845,322.1927467089845,323.33223012497183,b,1.0,1.1299195419996977,,,,,,sub-226,1,stroop_test,119.33916032777556,
,,,,84.0,0.0,7.0,,,,,,,,,,,,,rot,blue,b,0.0,b,1.0,0.6040124999999534,,,,,,,,,,7.0,0.0,84.0,2.0,323.3419519169838,,,,,,,,,,,,,,,,,323.3327797089878,323.43091616698075,324.22684308397584,324.21488912499626,,,,,,,,,,,,,,,,,,,,,,,,,,,,,,,,,,,324.21945537498686,324.22684308397584,324.22684308397584,324.8329818749917,b,1.0,0.6040124999999534,,,,,,sub-226,1,stroop_test,119.33916032777556,
,,,,85.0,1.0,7.0,,,,,,,,,,,,,blau,yellow,g,0.0,g,1.0,0.5467794580035843,,,,,,,,,,7.0,1.0,85.0,7.0,324.8422599589976,,,,,,,,,,,,,,,,,324.83341499997186,324.9306857919728,325.7255795839883,325.7150289589772,,,,,,,,,,,,,,,,,,,,,,,,,,,,,,,,,,,325.71831933397334,325.7255795839883,325.7255795839883,326.282884958986,g,1.0,0.5467794580035843,,,,,,sub-226,1,stroop_test,119.33916032777556,
,,,,86.0,2.0,7.0,,,,,,,,,,,,,rot,red,r,1.0,r,1.0,0.3296644590154756,,,,,,,,,,7.0,2.0,86.0,0.0,326.2922790419834,,,,,,,,,,,,,,,,,326.28332299998146,327.0811233749846,327.8755607919884,327.86498895898694,,,,,,,,,,,,,,,,,,,,,,,,,,,,,,,,,,,327.8683149169956,327.8755607919884,327.8755607919884,328.2159293339937,r,1.0,0.3296644590154756,,,,,,sub-226,1,stroop_test,119.33916032777556,
,,,,87.0,3.0,7.0,,,,,,,,,,,,,gelb,red,r,0.0,r,1.0,0.6536856669990811,,,,,,,,,,7.0,3.0,87.0,8.0,328.22527570897364,,,,,,,,,,,,,,,,,328.21635462497943,329.4144128749904,330.2105949999823,330.1985623749788,,,,,,,,,,,,,,,,,,,,,,,,,,,,,,,,,,,330.2031446249748,330.2105949999823,330.2105949999823,330.8663784589735,r,1.0,0.6536856669990811,,,,,,sub-226,1,stroop_test,119.33916032777556,
,,,,88.0,4.0,7.0,,,,,,,,,,,,,blau,red,r,0.0,r,1.0,0.5240620839758776,,,,,,,,,,7.0,4.0,88.0,4.0,330.875695041992,,,,,,,,,,,,,,,,,330.86681199999293,331.2144504999742,332.0107624169905,331.9986249169742,,,,,,,,,,,,,,,,,,,,,,,,,,,,,,,,,,,332.00330924999435,332.0107624169905,332.0107624169905,332.53880958398804,r,1.0,0.5240620839758776,,,,,,sub-226,1,stroop_test,119.33916032777556,
,,,,89.0,5.0,7.0,,,,,,,,,,,,,rot,red,r,1.0,r,1.0,0.5008721250051167,,,,,,,,,,7.0,5.0,89.0,1.0,332.54799875000026,,,,,,,,,,,,,,,,,332.5393396669824,333.7376752089767,334.54373108397704,334.5317664999748,,,,,,,,,,,,,,,,,,,,,,,,,,,,,,,,,,,334.53622866698424,334.54373108397704,334.54373108397704,335.0500996669871,r,1.0,0.5008721250051167,,,,,,sub-226,1,stroop_test,119.33916032777556,
,,,,90.0,6.0,7.0,,,,,,,,,,,,,blau,blue,b,1.0,b,1.0,0.4564427500008605,,,,,,,,,,7.0,6.0,90.0,5.0,335.0602941669931,,,,,,,,,,,,,,,,,335.0508206669765,336.2478639999754,337.0435212919838,337.03180587498355,,,,,,,,,,,,,,,,,,,,,,,,,,,,,,,,,,,337.03602283398504,337.0435212919838,337.0435212919838,337.5065489999833,b,1.0,0.4564427500008605,,,,,,sub-226,1,stroop_test,119.33916032777556,
,,,,91.0,7.0,7.0,,,,,,,,,,,,,gelb,yellow,g,1.0,g,1.0,0.2907392499910202,,,,,,,,,,7.0,7.0,91.0,10.0,337.51626741699874,,,,,,,,,,,,,,,,,337.50698720899527,338.7047131669824,339.5107733749901,339.49882179198903,,,,,,,,,,,,,,,,,,,,,,,,,,,,,,,,,,,339.5032690839725,339.5107733749901,339.5107733749901,339.80595408397494,g,1.0,0.2907392499910202,,,,,,sub-226,1,stroop_test,119.33916032777556,
,,,,92.0,8.0,7.0,,,,,,,,,,,,,gelb,blue,b,0.0,b,1.0,0.6917854999774136,,,,,,,,,,7.0,8.0,92.0,9.0,339.83091529199737,,,,,,,,,,,,,,,,,339.806388291996,340.15421337497537,340.94737770897336,340.9381202919758,,,,,,,,,,,,,,,,,,,,,,,,,,,,,,,,,,,340.93881166697247,340.94737770897336,340.94737770897336,341.65010124997934,b,1.0,0.6917854999774136,,,,,,sub-226,1,stroop_test,119.33916032777556,
,,,,93.0,9.0,7.0,,,,,,,,,,,,,gelb,yellow,g,1.0,g,1.0,0.546709957998246,,,,,,,,,,7.0,9.0,93.0,11.0,341.65938945897506,,,,,,,,,,,,,,,,,341.65054262499325,341.7478594169952,342.5395959589805,342.53189458398265,,,,,,,,,,,,,,,,,,,,,,,,,,,,,,,,,,,342.5326318339794,342.5395959589805,342.5395959589805,343.0894112919923,g,1.0,0.546709957998246,,,,,,sub-226,1,stroop_test,119.33916032777556,
,,,,94.0,10.0,7.0,,,,,,,,,,,,,blau,blue,b,1.0,b,1.0,0.6267080830002669,,,,,,,,,,7.0,10.0,94.0,6.0,343.1142812499893,,,,,,,,,,,,,,,,,343.089828458993,344.2877654589829,345.0843198749935,345.07164591699257,,,,,,,,,,,,,,,,,,,,,,,,,,,,,,,,,,,345.07559079199564,345.0843198749935,345.0843198749935,345.7166253749747,b,1.0,0.6267080830002669,,,,,,sub-226,1,stroop_test,119.33916032777556,
,,,,95.0,11.0,7.0,,,,,,,,,,,,,rot,yellow,g,0.0,g,1.0,0.7003310839936603,,,,,,,,,,7.0,11.0,95.0,3.0,345.7257609589724,,,,,,,,,,,,,,,,,345.7170592089824,345.8147864169732,346.60986024999875,346.5986687499972,,,,,,,,,,,,,,,,,,,,,,,,,,,,,,,,,,,346.602468416997,346.60986024999875,346.60986024999875,347.31675383399124,g,1.0,0.7003310839936603,,,,,,sub-226,1,stroop_test,119.33916032777556,
,,,,96.0,0.0,8.0,,,,,,,,,,,,,gelb,yellow,g,1.0,g,1.0,0.5275939170096535,,,,,,,,,,8.0,0.0,96.0,10.0,347.3259350839944,,,,,,,,,,,,,,,,,347.3171905419731,348.51473104199977,349.30904462499893,349.29858449997846,,,,,,,,,,,,,,,,,,,,,,,,,,,,,,,,,,,349.3018644589756,349.30904462499893,349.30904462499893,349.8399159999972,g,1.0,0.5275939170096535,,,,,,sub-226,1,stroop_test,119.33916032777556,
,,,,97.0,1.0,8.0,,,,,,,,,,,,,blau,red,r,0.0,r,1.0,0.3817713749886025,,,,,,,,,,8.0,1.0,97.0,4.0,349.8642057089892,,,,,,,,,,,,,,,,,349.8403442089912,350.1880254999851,350.9933547919791,350.9820614169876,,,,,,,,,,,,,,,,,,,,,,,,,,,,,,,,,,,350.9860508749844,350.9933547919791,350.9933547919791,351.38349029197707,r,1.0,0.3817713749886025,,,,,,sub-226,1,stroop_test,119.33916032777556,
,,,,98.0,2.0,8.0,,,,,,,,,,,,,gelb,red,r,0.0,r,1.0,0.3257718340028077,,,,,,,,,,8.0,2.0,98.0,8.0,351.3929632919899,,,,,,,,,,,,,,,,,351.38401724997675,352.5814101669821,353.3771624589863,353.3655144169752,,,,,,,,,,,,,,,,,,,,,,,,,,,,,,,,,,,353.3698145839735,353.3771624589863,353.3771624589863,353.70557424999424,r,1.0,0.3257718340028077,,,,,,sub-226,1,stroop_test,119.33916032777556,
,,,,99.0,3.0,8.0,,,,,,,,,,,,,blau,blue,b,1.0,b,1.0,0.6227263339969795,,,,,,,,,,8.0,3.0,99.0,6.0,353.71446466699126,,,,,,,,,,,,,,,,,353.70600687499973,354.90514487499604,355.7099019169982,355.698712124984,,,,,,,,,,,,,,,,,,,,,,,,,,,,,,,,,,,355.702567374974,355.7099019169982,355.7099019169982,356.3388750419836,b,1.0,0.6227263339969795,,,,,,sub-226,1,stroop_test,119.33916032777556,
,,,,100.0,4.0,8.0,,,,,,,,,,,,,blau,blue,b,1.0,b,1.0,0.5108794170082547,,,,,,,,,,8.0,4.0,100.0,5.0,356.34790354198776,,,,,,,,,,,,,,,,,356.3394155839924,356.431017083989,357.22342812499846,357.21557187498547,,,,,,,,,,,,,,,,,,,,,,,,,,,,,,,,,,,357.2162479169783,357.22342812499846,357.22342812499846,357.7391096669889,b,1.0,0.5108794170082547,,,,,,sub-226,1,stroop_test,119.33916032777556,
,,,,101.0,5.0,8.0,,,,,,,,,,,,,rot,red,r,1.0,r,1.0,0.4758357079990674,,,,,,,,,,8.0,5.0,101.0,1.0,357.7480688749929,,,,,,,,,,,,,,,,,357.7395265839877,358.53842387499753,359.3479108339816,359.32156854198547,,,,,,,,,,,,,,,,,,,,,,,,,,,,,,,,,,,359.3248414169939,359.3479108339816,359.3479108339816,359.8333333749906,r,1.0,0.4758357079990674,,,,,,sub-226,1,stroop_test,119.33916032777556,
,,,,102.0,6.0,8.0,,,,,,,,,,,,,rot,blue,b,0.0,b,1.0,0.7022269580047578,,,,,,,,,,8.0,6.0,102.0,2.0,359.8426584999834,,,,,,,,,,,,,,,,,359.83376845897874,360.631663083972,361.4238143339753,361.4155429169769,,,,,,,,,,,,,,,,,,,,,,,,,,,,,,,,,,,361.4163021249988,361.4238143339753,361.4238143339753,362.1332789589942,b,1.0,0.7022269580047578,,,,,,sub-226,1,stroop_test,119.33916032777556,
,,,,103.0,7.0,8.0,,,,,,,,,,,,,rot,red,r,1.0,r,1.0,0.9197656250034923,,,,,,,,,,8.0,7.0,103.0,0.0,362.1424178339949,,,,,,,,,,,,,,,,,362.133715916978,362.4816119589959,363.27372004199424,363.265697625,,,,,,,,,,,,,,,,,,,,,,,,,,,,,,,,,,,363.2663458339812,363.27372004199424,363.27372004199424,364.2001810419897,r,1.0,0.9197656250034923,,,,,,sub-226,1,stroop_test,119.33916032777556,
,,,,104.0,8.0,8.0,,,,,,,,,,,,,blau,yellow,g,0.0,g,1.0,0.4048844159988221,,,,,,,,,,8.0,8.0,104.0,7.0,364.2096085419762,,,,,,,,,,,,,,,,,364.2006441669946,364.2986727919779,365.09342941700015,365.0822522499948,,,,,,,,,,,,,,,,,,,,,,,,,,,,,,,,,,,365.08612699998775,365.09342941700015,365.09342941700015,365.5008618749853,g,1.0,0.4048844159988221,,,,,,sub-226,1,stroop_test,119.33916032777556,
,,,,105.0,9.0,8.0,,,,,,,,,,,,,gelb,yellow,g,1.0,g,1.0,0.4617216250044293,,,,,,,,,,8.0,9.0,105.0,11.0,365.51106612497824,,,,,,,,,,,,,,,,,365.5015714169713,365.5983064169996,366.3933319999778,366.3822310839896,,,,,,,,,,,,,,,,,,,,,,,,,,,,,,,,,,,366.3860526249919,366.3933319999778,366.3933319999778,366.8576356249978,g,1.0,0.4617216250044293,,,,,,sub-226,1,stroop_test,119.33916032777556,
,,,,106.0,10.0,8.0,,,,,,,,,,,,,gelb,blue,b,0.0,b,1.0,0.6928624589927495,,,,,,,,,,8.0,10.0,106.0,9.0,366.867235541984,,,,,,,,,,,,,,,,,366.85810229199706,367.203894708975,368.0066554999794,367.9989136669901,,,,,,,,,,,,,,,,,,,,,,,,,,,,,,,,,,,367.9995618339744,368.0066554999794,368.0066554999794,368.7057017499756,b,1.0,0.6928624589927495,,,,,,sub-226,1,stroop_test,119.33916032777556,
,,,,107.0,11.0,8.0,,,,,,,,,,,,,rot,yellow,g,0.0,g,1.0,0.6737084159976803,,,,,,,,,,8.0,11.0,107.0,3.0,368.7145297499956,,,,,,,,,,,,,,,,,368.70612054198864,368.8035655419808,369.61463833399466,369.5874593339977,,,,,,,,,,,,,,,,,,,,,,,,,,,,,,,,,,,369.59167241698015,369.61463833399466,369.61463833399466,370.31622374997823,g,1.0,0.6737084159976803,,,,,,sub-226,1,stroop_test,119.33916032777556,
,,,,108.0,0.0,9.0,,,,,,,,,,,,,blau,red,r,0.0,r,1.0,0.3134843750158325,,,,,,,,,,9.0,0.0,108.0,4.0,370.3317857919901,,,,,,,,,,,,,,,,,370.3167602089816,370.4150637919957,371.2109733749821,371.19910008399165,,,,,,,,,,,,,,,,,,,,,,,,,,,,,,,,,,,371.2034756249923,371.2109733749821,371.2109733749821,371.5334414999816,r,1.0,0.3134843750158325,,,,,,sub-226,1,stroop_test,119.33916032777556,
,,,,109.0,1.0,9.0,,,,,,,,,,,,,blau,blue,b,1.0,b,1.0,0.4351685000001453,,,,,,,,,,9.0,1.0,109.0,5.0,371.5426619169885,,,,,,,,,,,,,,,,,371.5338890839776,372.3318578339822,373.1245789589884,373.1157780839712,,,,,,,,,,,,,,,,,,,,,,,,,,,,,,,,,,,373.1166018339864,373.1245789589884,373.1245789589884,373.5669019999914,b,1.0,0.4351685000001453,,,,,,sub-226,1,stroop_test,119.33916032777556,
,,,,110.0,2.0,9.0,,,,,,,,,,,,,gelb,red,r,0.0,r,1.0,0.5359452500124462,,,,,,,,,,9.0,2.0,110.0,8.0,373.57611004199134,,,,,,,,,,,,,,,,,373.5673392499739,374.3649284589919,375.1600472089776,375.149023416976,,,,,,,,,,,,,,,,,,,,,,,,,,,,,,,,,,,375.1528010839829,375.1600472089776,375.1600472089776,375.7009733339946,r,1.0,0.5359452500124462,,,,,,sub-226,1,stroop_test,119.33916032777556,
,,,,111.0,3.0,9.0,,,,,,,,,,,,,blau,blue,b,1.0,b,1.0,0.4607175830169581,,,,,,,,,,9.0,3.0,111.0,6.0,375.70979954197537,,,,,,,,,,,,,,,,,375.7013995839807,376.8984690839716,377.6936631669814,377.6824299999862,,,,,,,,,,,,,,,,,,,,,,,,,,,,,,,,,,,377.68628283397993,377.6936631669814,377.6936631669814,378.1568979589792,b,1.0,0.4607175830169581,,,,,,sub-226,1,stroop_test,119.33916032777556,
,,,,112.0,4.0,9.0,,,,,,,,,,,,,rot,blue,b,0.0,b,1.0,0.4722170000022743,,,,,,,,,,9.0,4.0,112.0,2.0,378.1671338749875,,,,,,,,,,,,,,,,,378.157322583982,378.5054324589728,379.3098597089993,379.2990896669799,,,,,,,,,,,,,,,,,,,,,,,,,,,,,,,,,,,379.302704583999,379.3098597089993,379.3098597089993,379.7846541249892,b,1.0,0.4722170000022743,,,,,,sub-226,1,stroop_test,119.33916032777556,
,,,,113.0,5.0,9.0,,,,,,,,,,,,,rot,yellow,g,0.0,g,1.0,0.4681332499894779,,,,,,,,,,9.0,5.0,113.0,3.0,379.7940246249782,,,,,,,,,,,,,,,,,379.7851932499907,379.8812827919901,380.67379558397806,380.6658105419774,,,,,,,,,,,,,,,,,,,,,,,,,,,,,,,,,,,380.6664618749928,380.67379558397806,380.67379558397806,381.15092158399057,g,1.0,0.4681332499894779,,,,,,sub-226,1,stroop_test,119.33916032777556,
,,,,114.0,6.0,9.0,,,,,,,,,,,,,gelb,blue,b,0.0,g,0.0,0.4056344580021687,,,,,,,,,,9.0,6.0,114.0,9.0,381.160366666998,,,,,,,,,,,,,,,,,381.1514659999812,381.94865295899217,382.74439466698095,382.7326344999892,,,,,,,,,,,,,,,,,,,,,,,,,,,,,,,,,,,382.7370302089839,382.74439466698095,382.74439466698095,383.1567121669941,g,0.0,0.4056344580021687,,,,,,sub-226,1,stroop_test,119.33916032777556,
,,,,115.0,7.0,9.0,,,,,,,,,,,,,blau,yellow,g,0.0,g,1.0,1.0549485000083223,,,,,,,,,,9.0,7.0,115.0,7.0,383.1817182089726,,,,,,,,,,,,,,,,,383.1571444169968,383.255972458981,384.060943916993,384.0491744169849,,,,,,,,,,,,,,,,,,,,,,,,,,,,,,,,,,,384.0538884999987,384.060943916993,384.060943916993,385.1184713339899,g,1.0,1.0549485000083223,,,,,,sub-226,1,stroop_test,119.33916032777556,
,,,,116.0,8.0,9.0,,,,,,,,,,,,,gelb,yellow,g,1.0,g,1.0,0.6965703339956235,,,,,,,,,,9.0,8.0,116.0,11.0,385.12751999998,,,,,,,,,,,,,,,,,385.1190144169959,385.2154240839882,386.0116676669859,385.9995762499748,,,,,,,,,,,,,,,,,,,,,,,,,,,,,,,,,,,386.0039849589812,386.0116676669859,386.0116676669859,386.71764799999073,g,1.0,0.6965703339956235,,,,,,sub-226,1,stroop_test,119.33916032777556,
,,,,117.0,9.0,9.0,,,,,,,,,,,,,rot,red,r,1.0,r,1.0,0.5290386249835137,,,,,,,,,,9.0,9.0,117.0,0.0,386.7270049589861,,,,,,,,,,,,,,,,,386.718121916987,387.5152411669842,388.3105869999854,388.2993182919745,,,,,,,,,,,,,,,,,,,,,,,,,,,,,,,,,,,388.30307716698735,388.3105869999854,388.3105869999854,388.8509776669962,r,1.0,0.5290386249835137,,,,,,sub-226,1,stroop_test,119.33916032777556,
,,,,118.0,10.0,9.0,,,,,,,,,,,,,gelb,yellow,g,1.0,g,1.0,0.5405005830107257,,,,,,,,,,9.0,10.0,118.0,10.0,388.86025733398856,,,,,,,,,,,,,,,,,388.85141966698575,390.04876558398246,390.84491570899263,390.832890708989,,,,,,,,,,,,,,,,,,,,,,,,,,,,,,,,,,,390.8373909589718,390.84491570899263,390.84491570899263,391.3893167919887,g,1.0,0.5405005830107257,,,,,,sub-226,1,stroop_test,119.33916032777556,
,,,,119.0,11.0,9.0,,,,,,,,,,,,,rot,red,r,1.0,r,1.0,0.7603580410068389,,,,,,,,,,9.0,11.0,119.0,1.0,391.3985422089754,,,,,,,,,,,,,,,,,391.3898278339766,391.7386043339793,392.5421855839959,392.5316067919776,,,,,,,,,,,,,,,,,,,,,,,,,,,,,,,,,,,392.5349367919844,392.5421855839959,392.5421855839959,393.3073163749941,r,1.0,0.7603580410068389,,,,,,sub-226,1,stroop_test,119.33916032777556,
,,,,,,,,,,,,,,,,,,,,,,,,,,,,,,,,,,,,,,,,,,,,,,,,,,,,,,,,,,,,,,,,,,,,,,,,,,,,,,,,,,,,,,,,,,,,,,,,,,,,,,393.3076131249836,393.3208533339785,398.31552362497314,398.3048739169899,sub-226,1,stroop_test,119.33916032777556,
