direction,corrAns,thisN,thisTrialN,thisRepN,respDots.keys,respDots.corr,respDots.rt,respDots.duration,randomInstr,respRandomInstr.keys,respRandomInstr.rt,respRandomInstr.duration,practice_trials.thisRepN,practice_trials.thisTrialN,practice_trials.thisN,practice_trials.thisIndex,instr_trials.thisRepN,instr_trials.thisTrialN,instr_trials.thisN,instr_trials.thisIndex,test_trials.thisRepN,test_trials.thisTrialN,test_trials.thisN,test_trials.thisIndex,thisRow.t,notes,general_instruction.started,textGeneralInstr.started,respGeneralInstr.started,general_instruction.stopped,respGeneralInstr.keys,respGeneralInstr.rt,respGeneralInstr.duration,ITI.started,fixcross.started,fixcross.stopped,ITI.stopped,dots.started,backgroundDots.started,stimulusDots.started,respDots.started,stimulusDots.stopped,dots.stopped,practice_trials.respDots.keys,practice_trials.respDots.corr,practice_trials.respDots.rt,practice_trials.respDots.duration,feedback.started,textFeedback.started,feedback.stopped,textFeedback.stopped,info.started,textInfo.started,keyRespInfo.started,info.stopped,keyRespInfo.keys,keyRespInfo.rt,keyRespInfo.duration,test_instruction.started,textTestInstr.started,respTestInstr.started,test_instruction.stopped,respTestInstr.keys,respTestInstr.rt,respTestInstr.duration,random_instruction.started,textRandomInstr.started,respRandomInstr.started,random_instruction.stopped,instr_trials.respRandomInstr.keys,instr_trials.respRandomInstr.rt,instr_trials.respRandomInstr.duration,test_trials.respDots.keys,test_trials.respDots.corr,test_trials.respDots.rt,test_trials.respDots.duration,goodbye.started,textGoodbye.started,textGoodbye.stopped,goodbye.stopped,participant,session,expName,frameRate,Unnamed: 88
,,,,,,,,,,,,,,,,,,,,,,,,,,,0.0023773999419063,0.0066994000226259,0.0066994000226259,22.325636000023223,space,22.30224840005394,,,,,,,,,,,,,,,,,,,,,,,,,,,,,,,,,,,,,,,,,,,,,,,,,sub-113,1,random_dot,59.90115114871237,
right,right,0.0,0.0,0.0,right,1.0,21.563951799995262,,,,,,0.0,0.0,0.0,1.0,,,,,,,,,22.39383860002272,,,,,,,,,22.390154300024733,23.134520099963996,23.951878699939694,23.918553599971347,23.919246700010262,23.951878699939694,23.951878699939694,23.951878699939694,28.91885470005218,45.51929189998191,right,1.0,21.563951799995262,,45.53346820001025,45.539049300015904,46.03533169999719,,,,,,,,,,,,,,,,,,,,,,,,,,,,,,,sub-113,1,random_dot,59.90115114871237,
left,left,1.0,1.0,0.0,left,1.0,2.452276399941184,,,,,,0.0,1.0,1.0,0.0,,,,,,,,,46.051420200034045,,,,,,,,,46.03577369998675,46.38640950003173,47.2020843999926,47.1855685999617,47.186042799963616,47.2020843999926,47.2020843999926,47.2020843999926,,49.67345819994807,left,1.0,2.452276399941184,,49.67359849996865,49.68493939994369,50.16889309999533,50.18493310001213,,,,,,,,,,,,,,,,,,,,,,,,,,,,,,sub-113,1,random_dot,59.90115114871237,
right,right,2.0,0.0,1.0,right,1.0,1.2122047999873755,,,,,,1.0,0.0,2.0,1.0,,,,,,,,,50.18493310001213,,,,,,,,,50.16944359999616,50.98469680000562,51.78565610002261,51.7686547000194,51.76911490003113,51.78565610002261,51.78565610002261,51.78565610002261,,53.002983700018376,right,1.0,1.2122047999873755,,53.00311519997194,53.018284899997525,53.502057099947706,53.51821210002527,,,,,,,,,,,,,,,,,,,,,,,,,,,,,,sub-113,1,random_dot,59.90115114871237,
left,left,3.0,1.0,1.0,left,1.0,5.542871300014667,,,,,,1.0,1.0,3.0,0.0,,,,,,,,,53.51821210002527,,,,,,,,,53.502451700042,54.31825350003783,55.11943910003174,55.10243069997523,55.1029652999714,55.11943910003174,55.11943910003174,55.11943910003174,60.10258389997762,60.669211599975824,left,1.0,5.542871300014667,,60.66935620002914,60.68466110003647,61.1685205999529,61.184489400009625,,,,,,,,,,,,,,,,,,,,,,,,,,,,,,sub-113,1,random_dot,59.90115114871237,
right,right,4.0,0.0,2.0,right,1.0,1.03466100001242,,,,,,2.0,0.0,4.0,1.0,,,,,,,,,61.184489400009625,,,,,,,,,61.16896080004517,61.53454370005056,62.33509890001733,62.31866959994659,62.319201500038616,62.33509890001733,62.33509890001733,62.33509890001733,,63.38547820004169,right,1.0,1.03466100001242,,63.38561749993824,63.401251400006,63.885123100015335,63.90141599997878,,,,,,,,,,,,,,,,,,,,,,,,,,,,,,sub-113,1,random_dot,59.90115114871237,
left,left,5.0,1.0,2.0,left,1.0,1.5714455000124872,,,,,,2.0,1.0,5.0,0.0,,,,,,,,,63.90141599997878,,,,,,,,,63.88560669997241,65.08481120003853,65.8855669000186,65.86881110002287,65.86931039998308,65.8855669000186,65.8855669000186,65.8855669000186,,67.47019280004315,left,1.0,1.5714455000124872,,67.4703606000403,67.48511609993875,67.96877100004349,67.98508919996675,,,,,,,,,,,,,,,,,,,,,,,,,,,,,,sub-113,1,random_dot,59.90115114871237,
left,left,6.0,0.0,3.0,left,1.0,5.679108100011945,,,,,,3.0,0.0,6.0,0.0,,,,,,,,,67.98508919996675,,,,,,,,,67.96919149998575,69.1853011000203,69.98611529998016,69.96921310003381,69.96968119998928,69.98611529998016,69.98611529998016,69.98611529998016,74.9694566000253,75.67029409995303,left,1.0,5.679108100011945,,75.67042650002986,75.6852764999494,76.16934829996899,76.18529910000507,,,,,,,,,,,,,,,,,,,,,,,,,,,,,,sub-113,1,random_dot,59.90115114871237,
right,right,7.0,1.0,3.0,right,1.0,3.375443600001745,,,,,,3.0,1.0,7.0,1.0,,,,,,,,,76.18529910000507,,,,,,,,,76.16974469996057,76.53520449995995,77.33618450001813,77.31930329999886,77.31975050002802,77.33618450001813,77.33618450001813,77.33618450001813,,80.72017630003393,right,1.0,3.375443600001745,,80.72031420003623,80.73527920001652,81.21942360000685,81.23542120005004,,,,,,,,,,,,,,,,,,,,,,,,,,,,,,sub-113,1,random_dot,59.90115114871237,
left,left,8.0,0.0,4.0,left,1.0,3.45075600000564,,,,,,4.0,0.0,8.0,0.0,,,,,,,,,81.23542120005004,,,,,,,,,81.21990210004151,81.5853506999556,82.38631700002588,82.3692898999434,82.3697185999481,82.38631700002588,82.38631700002588,82.38631700002588,,85.93147389998194,left,1.0,3.45075600000564,,85.93170990003273,85.93519009999,86.41930199996568,86.4354756999528,,,,,,,,,,,,,,,,,,,,,,,,,,,,,,sub-113,1,random_dot,59.90115114871237,
right,right,9.0,1.0,4.0,right,1.0,1.4207410999806598,,,,,,4.0,1.0,9.0,1.0,,,,,,,,,86.4354756999528,,,,,,,,,86.4196792000439,87.23515850002877,88.03600379999261,88.01930359995458,88.01976469997317,88.03600379999261,88.03600379999261,88.03600379999261,,89.46999200002756,right,1.0,1.4207410999806598,,89.47012509999331,89.48558149999008,89.96936620003544,89.98569919995498,,,,,,,,,,,,,,,,,,,,,,,,,,,,,,sub-113,1,random_dot,59.90115114871237,
right,right,10.0,0.0,5.0,right,1.0,2.370026799966581,,,,,,5.0,0.0,10.0,1.0,,,,,,,,,89.98569919995498,,,,,,,,,89.96973619994242,90.7852669999702,91.58622319996356,91.5695032000076,91.56995409994852,91.58622319996356,91.58622319996356,91.58622319996356,,93.97006149997468,right,1.0,2.370026799966581,,93.970213899971,93.9854385999497,94.46944809996056,94.48550760000944,,,,,,,,,,,,,,,,,,,,,,,,,,,,,,sub-113,1,random_dot,59.90115114871237,
left,left,11.0,1.0,5.0,left,1.0,2.0092321999836718,,,,,,5.0,1.0,11.0,0.0,,,,,,,,,94.48550760000944,,,,,,,,,94.46984999999404,95.68518689996564,96.48644580005202,96.46964300004764,96.47017630003393,96.48644580005202,96.48644580005202,96.48644580005202,,98.50374229997396,left,1.0,2.0092321999836718,,98.5038829999976,98.51894880004691,99.00287560001016,99.01888440002222,,,,,,,,,,,,,,,,,,,,,,,,,,,,,,sub-113,1,random_dot,59.90115114871237,
right,right,12.0,0.0,6.0,right,1.0,3.499518100055866,,,,,,6.0,0.0,12.0,1.0,,,,,,,,,99.01888440002222,,,,,,,,,99.00324969994836,100.21916900004726,101.0196890999796,101.00328639999498,101.00381100003142,101.0196890999796,101.0196890999796,101.0196890999796,,104.52053490001708,right,1.0,3.499518100055866,,104.52067979995628,104.53562209999654,105.01958109997211,105.03564569994342,,,,,,,,,,,,,,,,,,,,,,,,,,,,,,sub-113,1,random_dot,59.90115114871237,
left,left,13.0,1.0,6.0,left,1.0,0.9805710999062284,,,,,,6.0,1.0,13.0,0.0,,,,,,,,,105.03564569994342,,,,,,,,,105.02000979997683,105.38563230005091,106.18670600000767,106.1697598999599,106.1702201999724,106.18670600000767,106.18670600000767,106.18670600000767,,107.17033069999889,left,1.0,0.9805710999062284,,107.17047310003544,107.18545250000898,107.66927509999368,107.68535389995668,,,,,,,,,,,,,,,,,,,,,,,,,,,,,,sub-113,1,random_dot,59.90115114871237,
right,right,14.0,0.0,7.0,left,0.0,3.8888218000065535,,,,,,7.0,0.0,14.0,1.0,,,,,,,,,107.68535389995668,,,,,,,,,107.66986929997802,108.88567640003748,109.68665319995488,109.66951739997604,109.67021689994726,109.68665319995488,109.68665319995488,109.68665319995488,,113.58715589996427,left,0.0,3.8888218000065535,,113.59721180005,113.60235129995272,114.08640210004523,114.10248560004402,,,,,,,,,,,,,,,,,,,,,,,,,,,,,,sub-113,1,random_dot,59.90115114871237,
left,left,15.0,1.0,7.0,left,1.0,4.618576899985783,,,,,,7.0,1.0,15.0,0.0,,,,,,,,,114.10248560004402,,,,,,,,,114.08680829999504,115.30267300002744,116.10352240002248,116.08666260004976,116.0871839999454,116.10352240002248,116.10352240002248,116.10352240002248,,120.72346390003804,left,1.0,4.618576899985783,,120.72805679996964,120.73592949996235,121.2198879000498,121.23587480001152,,,,,,,,,,,,,,,,,,,,,,,,,,,,,,sub-113,1,random_dot,59.90115114871237,
left,left,16.0,0.0,8.0,left,1.0,2.317279399954714,,,,,,8.0,0.0,16.0,0.0,,,,,,,,,121.23587480001152,,,,,,,,,121.22025929996744,121.58588959998453,122.3868828000268,122.3700485000154,122.37051080004312,122.3868828000268,122.3868828000268,122.3868828000268,,124.7207167999586,left,1.0,2.317279399954714,,124.72085729998072,124.73593399999665,125.21980810002424,125.23597749997862,,,,,,,,,,,,,,,,,,,,,,,,,,,,,,sub-113,1,random_dot,59.90115114871237,
right,right,17.0,1.0,8.0,right,1.0,3.904337999993004,,,,,,8.0,1.0,17.0,1.0,,,,,,,,,125.23597749997862,,,,,,,,,125.22020440001506,125.5859411000274,126.38694530003704,126.37004650000016,126.37054280005395,126.38694530003704,126.38694530003704,126.38694530003704,,130.3040843999479,right,1.0,3.904337999993004,,130.3042151000118,130.3194185999455,130.8032644999912,130.81949280004483,,,,,,,,,,,,,,,,,,,,,,,,,,,,,,sub-113,1,random_dot,59.90115114871237,
left,left,18.0,0.0,9.0,right,0.0,1.846135800005868,,,,,,9.0,0.0,18.0,0.0,,,,,,,,,130.81949280004483,,,,,,,,,130.8036623999942,131.16939529997762,131.97011290001683,131.95359010004904,131.95407019997947,131.97011290001683,131.97011290001683,131.97011290001683,,133.82081199996173,right,0.0,1.846135800005868,,133.82465019996744,133.83613269997295,134.3199735999806,134.33603310002945,,,,,,,,,,,,,,,,,,,,,,,,,,,,,,sub-113,1,random_dot,59.90115114871237,
right,right,19.0,1.0,9.0,left,0.0,0.9568320999387652,,,,,,9.0,1.0,19.0,1.0,,,,,,,,,134.33603310002945,,,,,,,,,134.32036699994933,134.4360717999516,135.2366862000199,135.21959849994164,135.22025490005035,135.2366862000199,135.2366862000199,135.2366862000199,,136.2045877999626,left,0.0,0.9568320999387652,,136.20472979999613,136.21910129999742,136.70329249999486,136.71950120001566,,,,,,,,,,,,,,,,,,,,,,,,,,,,,,sub-113,1,random_dot,59.90115114871237,
,,,,,,,,,,,,,,,,,,,,,,,,,,,,,,,,,,,,,,,,,,,,,,,,,,,,136.7034431999782,136.71950120001566,136.71950120001566,140.38700109999627,space,3.6657426999881855,,,,,,,,,,,,,,,,,,,,,,,,sub-113,1,random_dot,59.90115114871237,
,,,,,,,,,,,,,,,,,,,,,,,,,,,,,,,,,,,,,,,,,,,,,,,,,,,,,,,,,,,140.38709329999983,140.40280369995162,140.40280369995162,146.57028139999602,space,6.15784130000975,,,,,,,,,,,,,,,,,sub-113,1,random_dot,59.90115114871237,
left,left,0.0,0.0,0.0,left,1.0,0.906163200037554,,speed,space,2.7861129000084475,,,,,,0.0,0.0,0.0,1.0,0.0,0.0,0.0,0.0,149.45242119999602,,,,,,,,,149.44315359997563,150.23633720004,151.0373249000404,151.02045029995497,151.02093260001857,151.0373249000404,151.0373249000404,151.0373249000404,,151.95460679999087,,,,,,,,,,,,,,,,,,,,,,,146.62808639998548,146.63415439997334,146.63415439997334,149.43622260005213,space,2.7861129000084475,,left,1.0,0.906163200037554,,,,,,sub-113,1,random_dot,59.90115114871237,
right,right,1.0,1.0,0.0,right,1.0,0.7983825999544933,,speed,space,2.7861129000084475,,,,,,0.0,0.0,0.0,1.0,0.0,1.0,1.0,1.0,151.96970789995976,,,,,,,,,151.95523289998528,152.06964040000457,152.8705172999762,152.8535885999445,152.85405359999277,152.8705172999762,152.8705172999762,152.8705172999762,,153.67138660000637,,,,,,,,,,,,,,,,,,,,,,,,,,,,,,right,1.0,0.7983825999544933,,,,,,sub-113,1,random_dot,59.90115114871237,
right,right,2.0,0.0,1.0,left,0.0,0.8326505000004545,,speed,space,2.7861129000084475,,,,,,0.0,0.0,0.0,1.0,1.0,0.0,2.0,1.0,153.6861099000089,,,,,,,,,153.6719005999621,154.03643430001102,154.83720910002012,154.8204335999908,154.8209311000537,154.83720910002012,154.83720910002012,154.83720910002012,,155.67129460000433,,,,,,,,,,,,,,,,,,,,,,,,,,,,,,left,0.0,0.8326505000004545,,,,,,sub-113,1,random_dot,59.90115114871237,
left,left,3.0,1.0,1.0,left,1.0,2.534419800038449,,speed,space,2.7861129000084475,,,,,,0.0,0.0,0.0,1.0,1.0,1.0,3.0,0.0,155.68619249993935,,,,,,,,,155.6718507000478,155.78637079999316,156.58729509997647,156.57039979996625,156.57088310003746,156.58729509997647,156.58729509997647,156.58729509997647,,159.13792769995052,,,,,,,,,,,,,,,,,,,,,,,,,,,,,,left,1.0,2.534419800038449,,,,,,sub-113,1,random_dot,59.90115114871237,
right,right,4.0,0.0,2.0,left,0.0,3.978456499986351,,speed,space,2.7861129000084475,,,,,,0.0,0.0,0.0,1.0,2.0,0.0,4.0,1.0,159.1530673999805,,,,,,,,,159.13845369999763,159.2531547000399,160.0538582999725,160.0365094000008,160.03712859994266,160.0538582999725,160.0538582999725,160.0538582999725,,164.03762690001167,,,,,,,,,,,,,,,,,,,,,,,,,,,,,,left,0.0,3.978456499986351,,,,,,sub-113,1,random_dot,59.90115114871237,
left,left,5.0,1.0,2.0,left,1.0,5.806361000053585,,speed,space,2.7861129000084475,,,,,,0.0,0.0,0.0,1.0,2.0,1.0,5.0,0.0,164.0529504000442,,,,,,,,,164.03813270002138,164.85317030001897,165.65337389998604,165.63705060002394,165.63751669996418,165.65337389998604,165.65337389998604,165.65337389998604,170.63691290002316,171.47113489999902,,,,,,,,,,,,,,,,,,,,,,,,,,,,,,left,1.0,5.806361000053585,,,,,,sub-113,1,random_dot,59.90115114871237,
left,left,6.0,0.0,3.0,right,0.0,3.469303600024432,,speed,space,2.7861129000084475,,,,,,0.0,0.0,0.0,1.0,3.0,0.0,6.0,0.0,171.4862817999674,,,,,,,,,171.47229279996827,171.83631559996866,172.63732179999352,172.62027479999233,172.62083359993994,172.63732179999352,172.63732179999352,172.63732179999352,,176.12130939995404,,,,,,,,,,,,,,,,,,,,,,,,,,,,,,right,0.0,3.469303600024432,,,,,,sub-113,1,random_dot,59.90115114871237,
right,right,7.0,1.0,3.0,right,1.0,1.6126927000004798,,speed,space,2.7861129000084475,,,,,,0.0,0.0,0.0,1.0,3.0,1.0,7.0,1.0,176.13654420000967,,,,,,,,,176.12197570002172,176.93681400001515,177.73764750000555,177.72073810000438,177.72126440005377,177.73764750000555,177.73764750000555,177.73764750000555,,179.35419179999735,,,,,,,,,,,,,,,,,,,,,,,,,,,,,,right,1.0,1.6126927000004798,,,,,,sub-113,1,random_dot,59.90115114871237,
left,left,8.0,0.0,4.0,left,1.0,0.7022790999617428,,speed,space,2.7861129000084475,,,,,,0.0,0.0,0.0,1.0,4.0,0.0,8.0,0.0,179.3699752000393,,,,,,,,,179.35453130002134,180.55352880002465,181.3534539999673,181.33706990000792,181.33752249996175,181.3534539999673,181.3534539999673,181.3534539999673,,182.07089059997816,,,,,,,,,,,,,,,,,,,,,,,,,,,,,,left,1.0,0.7022790999617428,,,,,,sub-113,1,random_dot,59.90115114871237,
right,right,9.0,1.0,4.0,right,1.0,0.6535416999831796,,speed,space,2.7861129000084475,,,,,,0.0,0.0,0.0,1.0,4.0,1.0,9.0,1.0,182.08630119997545,,,,,,,,,182.07139789999928,183.28624149993996,184.0870436000405,184.0704293999588,184.0710356000345,184.0870436000405,184.0870436000405,184.0870436000405,,184.7538396000164,,,,,,,,,,,,,,,,,,,,,,,,,,,,,,right,1.0,0.6535416999831796,,,,,,sub-113,1,random_dot,59.90115114871237,
right,right,10.0,0.0,5.0,right,1.0,0.6354847999755293,,speed,space,2.7861129000084475,,,,,,0.0,0.0,0.0,1.0,5.0,0.0,10.0,1.0,184.76956189994235,,,,,,,,,184.7543777000392,185.9530929999892,186.75349519995507,186.73711889993865,186.73757560004012,186.75349519995507,186.75349519995507,186.75349519995507,,187.4045230000047,,,,,,,,,,,,,,,,,,,,,,,,,,,,,,right,1.0,0.6354847999755293,,,,,,sub-113,1,random_dot,59.90115114871237,
left,left,11.0,1.0,5.0,left,1.0,0.6220477999886498,,speed,space,2.7861129000084475,,,,,,0.0,0.0,0.0,1.0,5.0,1.0,11.0,0.0,187.4198527999688,,,,,,,,,187.4051004999783,188.6201595000457,189.42075749998912,189.40416999999437,189.40462060004936,189.42075749998912,189.42075749998912,189.42075749998912,,190.05501200002615,,,,,,,,,,,,,,,,,,,,,,,,,,,,,,left,1.0,0.6220477999886498,,,,,,sub-113,1,random_dot,59.90115114871237,
left,left,12.0,0.0,6.0,right,0.0,0.7150080000283197,,speed,space,2.7861129000084475,,,,,,0.0,0.0,0.0,1.0,6.0,0.0,12.0,0.0,190.0701935000252,,,,,,,,,190.055551599944,190.42019079998136,191.22103989997413,191.20411349995996,191.20460579998328,191.22103989997413,191.22103989997413,191.22103989997413,,191.938703599968,,,,,,,,,,,,,,,,,,,,,,,,,,,,,,right,0.0,0.7150080000283197,,,,,,sub-113,1,random_dot,59.90115114871237,
right,right,13.0,1.0,6.0,right,1.0,1.1180943000363186,,speed,space,2.7861129000084475,,,,,,0.0,0.0,0.0,1.0,6.0,1.0,13.0,1.0,191.9535442000488,,,,,,,,,191.93922269996256,192.0533997999737,192.85443269996904,192.83711790002417,192.8375434000045,192.85443269996904,192.85443269996904,192.85443269996904,,193.9884058999596,,,,,,,,,,,,,,,,,,,,,,,,,,,,,,right,1.0,1.1180943000363186,,,,,,sub-113,1,random_dot,59.90115114871237,
right,right,14.0,0.0,7.0,left,0.0,0.6945566999493167,,speed,space,2.7861129000084475,,,,,,0.0,0.0,0.0,1.0,7.0,0.0,14.0,1.0,194.00355160003528,,,,,,,,,193.9889225000516,194.3534537999658,195.15422839997336,195.1371523999842,195.13770469999872,195.15422839997336,195.15422839997336,195.15422839997336,,195.85507579997648,,,,,,,,,,,,,,,,,,,,,,,,,,,,,,left,0.0,0.6945566999493167,,,,,,sub-113,1,random_dot,59.90115114871237,
left,left,15.0,1.0,7.0,left,1.0,0.8096582000143826,,speed,space,2.7861129000084475,,,,,,0.0,0.0,0.0,1.0,7.0,1.0,15.0,0.0,195.87026340002197,,,,,,,,,195.85561530001,195.970295200008,196.7709883999778,196.75392479996663,196.75441940000744,196.7709883999778,196.7709883999778,196.7709883999778,,197.58767629996876,,,,,,,,,,,,,,,,,,,,,,,,,,,,,,left,1.0,0.8096582000143826,,,,,,sub-113,1,random_dot,59.90115114871237,
right,right,16.0,0.0,8.0,right,1.0,0.7143924999982119,,speed,space,2.7861129000084475,,,,,,0.0,0.0,0.0,1.0,8.0,0.0,16.0,1.0,197.60311619995628,,,,,,,,,197.5882113999687,198.4032897000434,199.20385169994552,199.1871905999724,199.18766960001085,199.20385169994552,199.20385169994552,199.20385169994552,,199.920796600054,,,,,,,,,,,,,,,,,,,,,,,,,,,,,,right,1.0,0.7143924999982119,,,,,,sub-113,1,random_dot,59.90115114871237,
left,left,17.0,1.0,8.0,left,1.0,0.6569814999820665,,speed,space,2.7861129000084475,,,,,,0.0,0.0,0.0,1.0,8.0,1.0,17.0,0.0,199.93652480002493,,,,,,,,,199.9213334999513,201.13662240002304,201.93680509994735,201.9201025000075,201.920654800022,201.93680509994735,201.93680509994735,201.93680509994735,,202.6046506999992,,,,,,,,,,,,,,,,,,,,,,,,,,,,,,left,1.0,0.6569814999820665,,,,,,sub-113,1,random_dot,59.90115114871237,
right,right,18.0,0.0,9.0,right,1.0,1.985321699990891,,speed,space,2.7861129000084475,,,,,,0.0,0.0,0.0,1.0,9.0,0.0,18.0,1.0,202.61982589995023,,,,,,,,,202.60501219995783,202.9699919000268,203.7708241000073,203.754086800036,203.75458609999623,203.7708241000073,203.7708241000073,203.7708241000073,,205.77172089996748,,,,,,,,,,,,,,,,,,,,,,,,,,,,,,right,1.0,1.985321699990891,,,,,,sub-113,1,random_dot,59.90115114871237,
left,left,19.0,1.0,9.0,right,0.0,4.262526500038803,,speed,space,2.7861129000084475,,,,,,0.0,0.0,0.0,1.0,9.0,1.0,19.0,0.0,205.78703959996344,,,,,,,,,205.7722721999744,206.98703149997164,207.78794720000587,207.7711707999697,207.7716389000416,207.78794720000587,207.78794720000587,207.78794720000587,,212.05516310001255,,,,,,,,,,,,,,,,,,,,,,,,,,,,,,right,0.0,4.262526500038803,,,,,,sub-113,1,random_dot,59.90115114871237,
right,right,20.0,0.0,10.0,right,1.0,0.9540782000403852,,speed,space,2.7861129000084475,,,,,,0.0,0.0,0.0,1.0,10.0,0.0,20.0,1.0,212.07043730001897,,,,,,,,,212.0556491999887,212.8705631999765,213.67139160004444,213.65454160002992,213.65495899994855,213.67139160004444,213.67139160004444,213.67139160004444,,214.6386597000528,,,,,,,,,,,,,,,,,,,,,,,,,,,,,,right,1.0,0.9540782000403852,,,,,,sub-113,1,random_dot,59.90115114871237,
left,left,21.0,1.0,10.0,left,1.0,1.2253696999978274,,speed,space,2.7861129000084475,,,,,,0.0,0.0,0.0,1.0,10.0,1.0,21.0,0.0,214.65387299994472,,,,,,,,,214.6391578000039,214.75388570001812,215.5546985999681,215.53774159995373,215.53816170000937,215.5546985999681,215.5546985999681,215.5546985999681,,216.7887424000073,,,,,,,,,,,,,,,,,,,,,,,,,,,,,,left,1.0,1.2253696999978274,,,,,,sub-113,1,random_dot,59.90115114871237,
right,right,22.0,0.0,11.0,right,1.0,2.0521109000546858,,speed,space,2.7861129000084475,,,,,,0.0,0.0,0.0,1.0,11.0,0.0,22.0,1.0,216.80393259995617,,,,,,,,,216.78927870001644,217.60394940001424,218.40455420000944,218.3876865999773,218.388181700022,218.40455420000944,218.40455420000944,218.40455420000944,,220.47201519995,,,,,,,,,,,,,,,,,,,,,,,,,,,,,,right,1.0,2.0521109000546858,,,,,,sub-113,1,random_dot,59.90115114871237,
left,left,23.0,1.0,11.0,left,1.0,2.8958228999981657,,speed,space,2.7861129000084475,,,,,,0.0,0.0,0.0,1.0,11.0,1.0,23.0,0.0,220.48729169997387,,,,,,,,,220.4725119000068,221.68730380001944,222.48812789993823,222.47521049994972,222.4757492999779,222.48812789993823,222.48812789993823,222.48812789993823,,225.3928859999869,,,,,,,,,,,,,,,,,,,,,,,,,,,,,,left,1.0,2.8958228999981657,,,,,,sub-113,1,random_dot,59.90115114871237,
left,left,24.0,0.0,12.0,left,1.0,0.9299871000694112,,speed,space,2.7861129000084475,,,,,,0.0,0.0,0.0,1.0,12.0,0.0,24.0,0.0,225.4046124999877,,,,,,,,,225.39340559998527,226.20403220003936,227.00486860005185,226.9878954000305,226.98834519996308,227.00486860005185,227.00486860005185,227.00486860005185,,227.938638899941,,,,,,,,,,,,,,,,,,,,,,,,,,,,,,left,1.0,0.9299871000694112,,,,,,sub-113,1,random_dot,59.90115114871237,
right,right,25.0,1.0,12.0,right,1.0,0.8784717000089586,,speed,space,2.7861129000084475,,,,,,0.0,0.0,0.0,1.0,12.0,1.0,25.0,1.0,227.9542916000355,,,,,,,,,227.93912939995064,229.15409580001145,229.95505710004363,229.93812529998831,229.93862060003448,229.95505710004363,229.95505710004363,229.95505710004363,,230.83898410003167,,,,,,,,,,,,,,,,,,,,,,,,,,,,,,right,1.0,0.8784717000089586,,,,,,sub-113,1,random_dot,59.90115114871237,
right,right,26.0,0.0,13.0,left,0.0,5.707216399954632,,speed,space,2.7861129000084475,,,,,,0.0,0.0,0.0,1.0,13.0,0.0,26.0,1.0,230.8540992999915,,,,,,,,,230.83953650004696,231.20416580000887,232.00490529998208,231.9880100999726,231.9885158999823,232.00490529998208,232.00490529998208,232.00490529998208,236.9882600000128,237.72221120004545,,,,,,,,,,,,,,,,,,,,,,,,,,,,,,left,0.0,5.707216399954632,,,,,,sub-113,1,random_dot,59.90115114871237,
left,left,27.0,1.0,13.0,right,0.0,3.745634599938058,,speed,space,2.7861129000084475,,,,,,0.0,0.0,0.0,1.0,13.0,1.0,27.0,0.0,237.73750030004885,,,,,,,,,237.7227111000102,238.9370094999904,239.7378189000301,239.7211976000108,239.7217482000124,239.7378189000301,239.7378189000301,239.7378189000301,,243.4885132999625,,,,,,,,,,,,,,,,,,,,,,,,,,,,,,right,0.0,3.745634599938058,,,,,,sub-113,1,random_dot,59.90115114871237,
left,left,28.0,0.0,14.0,left,1.0,1.7550824000500145,,speed,space,2.7861129000084475,,,,,,0.0,0.0,0.0,1.0,14.0,0.0,28.0,0.0,243.50391990004573,,,,,,,,,243.4890266000293,244.3040210000472,245.10512520000336,245.08813579997516,245.0886413999833,245.10512520000336,245.10512520000336,245.10512520000336,,246.87251599994488,,,,,,,,,,,,,,,,,,,,,,,,,,,,,,left,1.0,1.7550824000500145,,,,,,sub-113,1,random_dot,59.90115114871237,
right,right,29.0,1.0,14.0,right,1.0,3.316017400007695,,speed,space,2.7861129000084475,,,,,,0.0,0.0,0.0,1.0,14.0,1.0,29.0,1.0,246.88763649994507,,,,,,,,,246.87305739999283,248.08767749997787,248.88865590002388,248.87172729999293,248.8722137999721,248.88865590002388,248.88865590002388,248.88865590002388,,252.2057683999883,,,,,,,,,,,,,,,,,,,,,,,,,,,,,,right,1.0,3.316017400007695,,,,,,sub-113,1,random_dot,59.90115114871237,
left,left,30.0,0.0,15.0,left,1.0,1.7597764000529423,,speed,space,2.7861129000084475,,,,,,0.0,0.0,0.0,1.0,15.0,0.0,30.0,0.0,252.2210228999611,,,,,,,,,252.2063086000271,253.02107949997296,253.82196309999563,253.80521669995505,253.80573989998084,253.82196309999563,253.82196309999563,253.82196309999563,,255.58921570004892,,,,,,,,,,,,,,,,,,,,,,,,,,,,,,left,1.0,1.7597764000529423,,,,,,sub-113,1,random_dot,59.90115114871237,
right,right,31.0,1.0,15.0,right,1.0,4.656540199997835,,speed,space,2.7861129000084475,,,,,,0.0,0.0,0.0,1.0,15.0,1.0,31.0,1.0,255.6043943000259,,,,,,,,,255.5897456000093,255.70449369994455,256.5052954000421,256.488305100007,256.48885500000324,256.5052954000421,256.5052954000421,256.5052954000421,,261.1726281000301,,,,,,,,,,,,,,,,,,,,,,,,,,,,,,right,1.0,4.656540199997835,,,,,,sub-113,1,random_dot,59.90115114871237,
right,right,32.0,0.0,16.0,right,1.0,2.711367700016126,,speed,space,2.7861129000084475,,,,,,0.0,0.0,0.0,1.0,16.0,0.0,32.0,1.0,261.18790729995817,,,,,,,,,261.1731877999846,261.5379373000469,262.3377908000257,262.32139719999395,262.3218239999842,262.3377908000257,262.3377908000257,262.3377908000257,,265.05526479997206,,,,,,,,,,,,,,,,,,,,,,,,,,,,,,right,1.0,2.711367700016126,,,,,,sub-113,1,random_dot,59.90115114871237,
left,left,33.0,1.0,16.0,left,1.0,1.23521869990509,,speed,space,2.7861129000084475,,,,,,0.0,0.0,0.0,1.0,16.0,1.0,33.0,0.0,265.070751799969,,,,,,,,,265.05583460000344,265.8539109999547,266.6548896000022,266.6382184999529,266.6386745000491,266.6548896000022,266.6548896000022,266.6548896000022,,267.9057294999948,,,,,,,,,,,,,,,,,,,,,,,,,,,,,,left,1.0,1.23521869990509,,,,,,sub-113,1,random_dot,59.90115114871237,
right,right,34.0,0.0,17.0,right,1.0,1.060255100019276,,speed,space,2.7861129000084475,,,,,,0.0,0.0,0.0,1.0,17.0,0.0,34.0,1.0,267.9210278999526,,,,,,,,,267.9062056000112,268.02105400001165,268.8218528999714,268.8048690999858,268.8053370999405,268.8218528999714,268.8218528999714,268.8218528999714,,269.88948440004606,,,,,,,,,,,,,,,,,,,,,,,,,,,,,,right,1.0,1.060255100019276,,,,,,sub-113,1,random_dot,59.90115114871237,
left,left,35.0,1.0,17.0,left,1.0,2.510992299998179,,speed,space,2.7861129000084475,,,,,,0.0,0.0,0.0,1.0,17.0,1.0,35.0,0.0,269.9046988999471,,,,,,,,,269.8900265999837,271.10472840000875,271.9057825000491,271.88864479993936,271.8891553999856,271.9057825000491,271.9057825000491,271.9057825000491,,274.42286679998506,,,,,,,,,,,,,,,,,,,,,,,,,,,,,,left,1.0,2.510992299998179,,,,,,sub-113,1,random_dot,59.90115114871237,
left,left,36.0,0.0,18.0,right,0.0,1.3713046999182552,,speed,space,2.7861129000084475,,,,,,0.0,0.0,0.0,1.0,18.0,0.0,36.0,0.0,274.4380511000054,,,,,,,,,274.42340600001626,274.5381155000068,275.338551199995,275.32185850001406,275.3223447999917,275.338551199995,275.338551199995,275.338551199995,,276.72320440004114,,,,,,,,,,,,,,,,,,,,,,,,,,,,,,right,0.0,1.3713046999182552,,,,,,sub-113,1,random_dot,59.90115114871237,
right,right,37.0,1.0,18.0,right,1.0,1.1697227000258863,,speed,space,2.7861129000084475,,,,,,0.0,0.0,0.0,1.0,18.0,1.0,37.0,1.0,276.7382123999996,,,,,,,,,276.72380739997607,277.0880294999806,277.8889048999408,277.87192519998644,277.8723592000315,277.8889048999408,277.8889048999408,277.8889048999408,,279.0726639999775,,,,,,,,,,,,,,,,,,,,,,,,,,,,,,right,1.0,1.1697227000258863,,,,,,sub-113,1,random_dot,59.90115114871237,
right,right,38.0,0.0,19.0,left,0.0,1.2972928999224678,,speed,space,2.7861129000084475,,,,,,0.0,0.0,0.0,1.0,19.0,0.0,38.0,1.0,279.0877608000301,,,,,,,,,279.07336639997084,279.43820490001235,280.23901689995546,280.2219621000113,280.2224631999852,280.23901689995546,280.23901689995546,280.23901689995546,,281.5393052999861,,,,,,,,,,,,,,,,,,,,,,,,,,,,,,left,0.0,1.2972928999224678,,,,,,sub-113,1,random_dot,59.90115114871237,
left,left,39.0,1.0,19.0,right,0.0,0.9184855000348762,,speed,space,2.7861129000084475,,,,,,0.0,0.0,0.0,1.0,19.0,1.0,39.0,0.0,281.554814800038,,,,,,,,,281.539805599954,282.3544651999837,283.15571640001144,283.1389056999469,283.13937290001195,283.15571640001144,283.15571640001144,283.15571640001144,,284.0895252999617,,,,,,,,,,,,,,,,,,,,,,,,,,,,,,right,0.0,0.9184855000348762,,,,,,sub-113,1,random_dot,59.90115114871237,
right,right,40.0,0.0,20.0,right,1.0,0.9138052000198512,,speed,space,2.7861129000084475,,,,,,0.0,0.0,0.0,1.0,20.0,0.0,40.0,1.0,284.1047914000228,,,,,,,,,284.09004000003915,284.9050367999589,285.70589870004915,285.6889402000233,285.6894041999476,285.70589870004915,285.70589870004915,285.70589870004915,,286.6230212999508,,,,,,,,,,,,,,,,,,,,,,,,,,,,,,right,1.0,0.9138052000198512,,,,,,sub-113,1,random_dot,59.90115114871237,
left,left,41.0,1.0,20.0,left,1.0,0.8158080999273807,,speed,space,2.7861129000084475,,,,,,0.0,0.0,0.0,1.0,20.0,1.0,41.0,0.0,286.63815150002483,,,,,,,,,286.62353989994153,287.4383016000502,288.23926089995075,288.2223165000323,288.22288849996403,288.23926089995075,288.23926089995075,288.23926089995075,,289.0563326999545,,,,,,,,,,,,,,,,,,,,,,,,,,,,,,left,1.0,0.8158080999273807,,,,,,sub-113,1,random_dot,59.90115114871237,
left,left,42.0,0.0,21.0,left,1.0,1.9800821000244468,,speed,space,2.7861129000084475,,,,,,0.0,0.0,0.0,1.0,21.0,0.0,42.0,0.0,289.07155710004736,,,,,,,,,289.056824099971,289.1715673999861,289.972358900006,289.955522299977,289.9559534,289.972358900006,289.972358900006,289.972358900006,,291.95623649994377,,,,,,,,,,,,,,,,,,,,,,,,,,,,,,left,1.0,1.9800821000244468,,,,,,sub-113,1,random_dot,59.90115114871237,
right,right,43.0,1.0,21.0,right,1.0,1.5972696000244468,,speed,space,2.7861129000084475,,,,,,0.0,0.0,0.0,1.0,21.0,1.0,43.0,1.0,291.97163519996684,,,,,,,,,291.95679179998115,292.0715992000187,292.8724624000024,292.8554301999975,292.855946799973,292.8724624000024,292.8724624000024,292.8724624000024,,294.4729287000373,,,,,,,,,,,,,,,,,,,,,,,,,,,,,,right,1.0,1.5972696000244468,,,,,,sub-113,1,random_dot,59.90115114871237,
left,left,44.0,0.0,22.0,left,1.0,3.5886458000168204,,speed,space,2.7861129000084475,,,,,,0.0,0.0,0.0,1.0,22.0,0.0,44.0,0.0,294.48833179997746,,,,,,,,,294.47351100004744,294.8383258000249,295.6392444999656,295.621908799978,295.622347699944,295.6392444999656,295.6392444999656,295.6392444999656,,299.23963970004115,,,,,,,,,,,,,,,,,,,,,,,,,,,,,,left,1.0,3.5886458000168204,,,,,,sub-113,1,random_dot,59.90115114871237,
right,right,45.0,1.0,22.0,right,1.0,1.565134499920532,,speed,space,2.7861129000084475,,,,,,0.0,0.0,0.0,1.0,22.0,1.0,45.0,1.0,299.25477680005133,,,,,,,,,299.24011679994874,299.60506760003045,300.40587160002906,300.3892153999768,300.38965130003635,300.40587160002906,300.40587160002906,300.40587160002906,,301.9735072000185,,,,,,,,,,,,,,,,,,,,,,,,,,,,,,right,1.0,1.565134499920532,,,,,,sub-113,1,random_dot,59.90115114871237,
left,left,46.0,0.0,23.0,left,1.0,0.9550487999804318,,speed,space,2.7861129000084475,,,,,,0.0,0.0,0.0,1.0,23.0,0.0,46.0,0.0,301.9884332000511,,,,,,,,,301.9740252000047,302.3384268999798,303.13936689996626,303.1224339000182,303.1229981000069,303.13936689996626,303.13936689996626,303.13936689996626,,304.10665249999147,,,,,,,,,,,,,,,,,,,,,,,,,,,,,,left,1.0,0.9550487999804318,,,,,,sub-113,1,random_dot,59.90115114871237,
right,right,47.0,1.0,23.0,right,1.0,1.3665758999995887,,speed,space,2.7861129000084475,,,,,,0.0,0.0,0.0,1.0,23.0,1.0,47.0,1.0,304.1218047000002,,,,,,,,,304.1072575999424,305.3219533000374,306.12283540004864,306.1054943000199,306.10634129995015,306.12283540004864,306.12283540004864,306.12283540004864,,307.49015269998927,,,,,,,,,,,,,,,,,,,,,,,,,,,,,,right,1.0,1.3665758999995887,,,,,,sub-113,1,random_dot,59.90115114871237,
right,right,48.0,0.0,24.0,right,1.0,1.7342946000862869,,speed,space,2.7861129000084475,,,,,,0.0,0.0,0.0,1.0,24.0,0.0,48.0,1.0,307.505217500031,,,,,,,,,307.4906537999632,307.85529029998,308.656016199966,308.63877449999563,308.63922210002784,308.656016199966,308.656016199966,308.656016199966,,310.40666310000233,,,,,,,,,,,,,,,,,,,,,,,,,,,,,,right,1.0,1.7342946000862869,,,,,,sub-113,1,random_dot,59.90115114871237,
left,left,49.0,1.0,24.0,left,1.0,0.9359333000611514,,speed,space,2.7861129000084475,,,,,,0.0,0.0,0.0,1.0,24.0,1.0,49.0,0.0,310.42183090001345,,,,,,,,,310.4071985000046,311.22190809994936,312.02285239996854,312.00596690003294,312.0064545000205,312.02285239996854,312.02285239996854,312.02285239996854,,312.97355909994803,,,,,,,,,,,,,,,,,,,,,,,,,,,,,,left,1.0,0.9359333000611514,,,,,,sub-113,1,random_dot,59.90115114871237,
right,right,50.0,0.0,25.0,right,1.0,0.9263956999639048,,speed,space,2.7861129000084475,,,,,,0.0,0.0,0.0,1.0,25.0,0.0,50.0,1.0,312.98858769994695,,,,,,,,,312.9740710000042,313.78861040004995,314.58959210000467,314.5727194000501,314.57317650003824,314.58959210000467,314.58959210000467,314.58959210000467,,315.52354790002573,,,,,,,,,,,,,,,,,,,,,,,,,,,,,,right,1.0,0.9263956999639048,,,,,,sub-113,1,random_dot,59.90115114871237,
left,left,51.0,1.0,25.0,left,1.0,1.0978590999729931,,speed,space,2.7861129000084475,,,,,,0.0,0.0,0.0,1.0,25.0,1.0,51.0,0.0,315.53861920000054,,,,,,,,,315.52406500000507,316.7386406000005,317.5396004000213,317.5227334999945,317.5231961000245,317.5396004000213,317.5396004000213,317.5396004000213,,318.6401331999805,,,,,,,,,,,,,,,,,,,,,,,,,,,,,,left,1.0,1.0978590999729931,,,,,,sub-113,1,random_dot,59.90115114871237,
left,left,52.0,0.0,26.0,left,1.0,2.325128399999812,,speed,space,2.7861129000084475,,,,,,0.0,0.0,0.0,1.0,26.0,0.0,52.0,0.0,318.6553078000434,,,,,,,,,318.6407186000142,319.0053246000316,319.8063260000199,319.7889728000155,319.7894130999921,319.8063260000199,319.8063260000199,319.8063260000199,,322.1405925999861,,,,,,,,,,,,,,,,,,,,,,,,,,,,,,left,1.0,2.325128399999812,,,,,,sub-113,1,random_dot,59.90115114871237,
right,right,53.0,1.0,26.0,right,1.0,1.3280368999112395,,speed,space,2.7861129000084475,,,,,,0.0,0.0,0.0,1.0,26.0,1.0,53.0,1.0,322.1553627999965,,,,,,,,,322.14110609993804,323.35541950003244,324.15631460002623,324.13952550000977,324.140027299989,324.15631460002623,324.15631460002623,324.15631460002623,,325.49016769998707,,,,,,,,,,,,,,,,,,,,,,,,,,,,,,right,1.0,1.3280368999112395,,,,,,sub-113,1,random_dot,59.90115114871237,
left,left,54.0,0.0,27.0,left,1.0,1.067265999969095,,speed,space,2.7861129000084475,,,,,,0.0,0.0,0.0,1.0,27.0,0.0,54.0,0.0,325.5054022000404,,,,,,,,,325.49069839995354,325.85561950004194,326.656312200008,326.63944459997583,326.63999589998275,326.656312200008,326.656312200008,326.656312200008,,327.74059459997807,,,,,,,,,,,,,,,,,,,,,,,,,,,,,,left,1.0,1.067265999969095,,,,,,sub-113,1,random_dot,59.90115114871237,
right,right,55.0,1.0,27.0,right,1.0,1.8020300000207496,,speed,space,2.7861129000084475,,,,,,0.0,0.0,0.0,1.0,27.0,1.0,55.0,1.0,327.75549909996334,,,,,,,,,327.7412887000246,328.9556400999427,329.7563147000037,329.7395927000325,329.7400520000374,329.7563147000037,329.7563147000037,329.7563147000037,,331.5736603999976,,,,,,,,,,,,,,,,,,,,,,,,,,,,,,right,1.0,1.8020300000207496,,,,,,sub-113,1,random_dot,59.90115114871237,
left,left,56.0,0.0,28.0,left,1.0,1.2290026999544352,,speed,space,2.7861129000084475,,,,,,0.0,0.0,0.0,1.0,28.0,0.0,56.0,0.0,331.5889651000034,,,,,,,,,331.5741793999914,332.3889182000421,333.18992459995206,333.1735101999948,333.1739990999922,333.18992459995206,333.18992459995206,333.18992459995206,,334.42384039994795,,,,,,,,,,,,,,,,,,,,,,,,,,,,,,left,1.0,1.2290026999544352,,,,,,sub-113,1,random_dot,59.90115114871237,
right,right,57.0,1.0,28.0,right,1.0,0.9871864999877288,,speed,space,2.7861129000084475,,,,,,0.0,0.0,0.0,1.0,28.0,1.0,57.0,1.0,334.43886750005186,,,,,,,,,334.424368100008,335.2388832999859,336.039932899992,336.0231637000106,336.0236251000315,336.039932899992,336.039932899992,336.039932899992,,337.04059720004443,,,,,,,,,,,,,,,,,,,,,,,,,,,,,,right,1.0,0.9871864999877288,,,,,,sub-113,1,random_dot,59.90115114871237,
left,left,58.0,0.0,29.0,left,1.0,5.275028200005181,,speed,space,2.7861129000084475,,,,,,0.0,0.0,0.0,1.0,29.0,0.0,58.0,0.0,337.0556274999399,,,,,,,,,337.041126199998,337.4053677000338,338.20646729995497,338.1894640000537,338.18993029999547,338.20646729995497,338.20646729995497,338.20646729995497,343.1898962999694,343.4902529999381,,,,,,,,,,,,,,,,,,,,,,,,,,,,,,left,1.0,5.275028200005181,,,,,,sub-113,1,random_dot,59.90115114871237,
right,right,59.0,1.0,29.0,right,1.0,2.2184851000783965,,speed,space,2.7861129000084475,,,,,,0.0,0.0,0.0,1.0,29.0,1.0,59.0,1.0,343.50545900000725,,,,,,,,,343.4907071000198,344.3057015000377,345.1066363999853,345.0898336999817,345.090325600002,345.1066363999853,345.1066363999853,345.1066363999853,,347.340297000017,,,,,,,,,,,,,,,,,,,,,,,,,,,,,,right,1.0,2.2184851000783965,,,,,,sub-113,1,random_dot,59.90115114871237,
,,0.0,0.0,0.0,,,,,speed,space,2.7861129000084475,,,,,,0.0,0.0,0.0,1.0,,,,,,,,,,,,,,,,,,,,,,,,,,,,,,,,,,,,,,,,,,,,,,,,,,,,,,,,,,,,,sub-113,1,random_dot,59.90115114871237,
left,left,0.0,0.0,0.0,left,1.0,2.339254099992104,,accuracy,space,6.1893383000278845,,,,,,0.0,1.0,1.0,0.0,0.0,0.0,0.0,0.0,353.5888158000307,,,,,,,,,353.5845561999595,353.6725456999848,354.4733122000471,354.456453199964,354.4569837000454,354.4733122000471,354.4733122000471,354.4733122000471,,356.82411429996137,,,,,,,,,,,,,,,,,,,,,,,347.3682089999784,347.37200620002113,347.37200620002113,353.5733662999701,space,6.1893383000278845,,left,1.0,2.339254099992104,,,,,,sub-113,1,random_dot,59.90115114871237,
right,right,1.0,1.0,0.0,right,1.0,1.8023854999337343,,accuracy,space,6.1893383000278845,,,,,,0.0,1.0,1.0,0.0,0.0,1.0,1.0,1.0,356.83953680004925,,,,,,,,,356.82560540002305,358.0394406999694,358.8401988999685,358.8233503999654,358.82397130003665,358.8401988999685,358.8401988999685,358.8401988999685,,360.6575045000063,,,,,,,,,,,,,,,,,,,,,,,,,,,,,,right,1.0,1.8023854999337343,,,,,,sub-113,1,random_dot,59.90115114871237,
left,left,2.0,0.0,1.0,left,1.0,1.4681844998849556,,accuracy,space,6.1893383000278845,,,,,,0.0,1.0,1.0,0.0,1.0,0.0,2.0,0.0,360.6726313999389,,,,,,,,,360.6580257000169,360.7726295000175,361.57315660000313,361.55628060002346,361.55692350002937,361.57315660000313,361.57315660000313,361.57315660000313,,363.0572156000417,,,,,,,,,,,,,,,,,,,,,,,,,,,,,,left,1.0,1.4681844998849556,,,,,,sub-113,1,random_dot,59.90115114871237,
right,right,3.0,1.0,1.0,right,1.0,1.0698231999995187,,accuracy,space,6.1893383000278845,,,,,,0.0,1.0,1.0,0.0,1.0,1.0,3.0,1.0,363.0724687000038,,,,,,,,,363.0576748000458,363.1726818999741,363.9737102000509,363.9566444000229,363.95725470001344,363.9737102000509,363.9737102000509,363.9737102000509,,365.0574290000368,,,,,,,,,,,,,,,,,,,,,,,,,,,,,,right,1.0,1.0698231999995187,,,,,,sub-113,1,random_dot,59.90115114871237,
left,left,4.0,0.0,2.0,left,1.0,2.009533599950373,,accuracy,space,6.1893383000278845,,,,,,0.0,1.0,1.0,0.0,2.0,0.0,4.0,0.0,365.072617799975,,,,,,,,,365.0579178000335,365.8726830000524,366.673611599952,366.65630419994704,366.6567883000244,366.673611599952,366.673611599952,366.673611599952,,368.6907147000311,,,,,,,,,,,,,,,,,,,,,,,,,,,,,,left,1.0,2.009533599950373,,,,,,sub-113,1,random_dot,59.90115114871237,
right,right,5.0,1.0,2.0,right,1.0,1.459733200026676,,accuracy,space,6.1893383000278845,,,,,,0.0,1.0,1.0,0.0,2.0,1.0,5.0,1.0,368.7061026999727,,,,,,,,,368.6912319000112,369.9061067999573,370.7069834000431,370.6900422000326,370.6905010000337,370.7069834000431,370.7069834000431,370.7069834000431,,372.1748230999801,,,,,,,,,,,,,,,,,,,,,,,,,,,,,,right,1.0,1.459733200026676,,,,,,sub-113,1,random_dot,59.90115114871237,
right,right,6.0,0.0,3.0,right,1.0,1.2280407000798732,,accuracy,space,6.1893383000278845,,,,,,0.0,1.0,1.0,0.0,3.0,0.0,6.0,1.0,372.18925579998177,,,,,,,,,372.1752994999988,372.28949959995225,373.09032590000425,373.0732608999824,373.0737038999796,373.09032590000425,373.09032590000425,373.09032590000425,,374.32410349999554,,,,,,,,,,,,,,,,,,,,,,,,,,,,,,right,1.0,1.2280407000798732,,,,,,sub-113,1,random_dot,59.90115114871237,
left,left,7.0,1.0,3.0,left,1.0,1.6046752999536693,,accuracy,space,6.1893383000278845,,,,,,0.0,1.0,1.0,0.0,3.0,1.0,7.0,0.0,374.33946799999103,,,,,,,,,374.3246562000131,374.4395829000277,375.2402779000113,375.2235175999813,375.2240315000527,375.2402779000113,375.2402779000113,375.2402779000113,,376.8579080000054,,,,,,,,,,,,,,,,,,,,,,,,,,,,,,left,1.0,1.6046752999536693,,,,,,sub-113,1,random_dot,59.90115114871237,
left,left,8.0,0.0,4.0,left,1.0,5.794359999941662,,accuracy,space,6.1893383000278845,,,,,,0.0,1.0,1.0,0.0,4.0,0.0,8.0,0.0,376.87286999996286,,,,,,,,,376.85844630002975,377.22299020003993,378.0237759000156,378.0067079999717,378.0072660000296,378.0237759000156,378.0237759000156,378.0237759000156,383.00725020002574,383.82436089997645,,,,,,,,,,,,,,,,,,,,,,,,,,,,,,left,1.0,5.794359999941662,,,,,,sub-113,1,random_dot,59.90115114871237,
right,right,9.0,1.0,4.0,right,1.0,1.1685976999578995,,accuracy,space,6.1893383000278845,,,,,,0.0,1.0,1.0,0.0,4.0,1.0,9.0,1.0,383.8396986000007,,,,,,,,,383.82482950005215,383.9396197999595,384.7402267999714,384.72344239999074,384.7238636999391,384.7402267999714,384.7402267999714,384.7402267999714,,385.9244198000524,,,,,,,,,,,,,,,,,,,,,,,,,,,,,,right,1.0,1.1685976999578995,,,,,,sub-113,1,random_dot,59.90115114871237,
left,left,10.0,0.0,5.0,left,1.0,0.7966552000725642,,accuracy,space,6.1893383000278845,,,,,,0.0,1.0,1.0,0.0,5.0,0.0,10.0,0.0,385.9396428000182,,,,,,,,,385.9248807999538,386.7396836000262,387.5401912999805,387.5230483999476,387.52367180003785,387.5401912999805,387.5401912999805,387.5401912999805,,388.34126999997534,,,,,,,,,,,,,,,,,,,,,,,,,,,,,,left,1.0,0.7966552000725642,,,,,,sub-113,1,random_dot,59.90115114871237,
right,right,11.0,1.0,5.0,right,1.0,1.2967036999762058,,accuracy,space,6.1893383000278845,,,,,,0.0,1.0,1.0,0.0,5.0,1.0,11.0,1.0,388.35641580005176,,,,,,,,,388.3418048999738,389.5560178000014,390.3570723000448,390.33987260004506,390.3402469999856,390.3570723000448,390.3570723000448,390.3570723000448,,391.6569611999439,,,,,,,,,,,,,,,,,,,,,,,,,,,,,,right,1.0,1.2967036999762058,,,,,,sub-113,1,random_dot,59.90115114871237,
right,right,12.0,0.0,6.0,left,0.0,1.9708422999829052,,accuracy,space,6.1893383000278845,,,,,,0.0,1.0,1.0,0.0,6.0,0.0,12.0,1.0,391.67219409998506,,,,,,,,,391.6576922000386,391.7721337999683,392.572678699973,392.5559069999727,392.5563857000088,392.572678699973,392.572678699973,392.572678699973,,394.5568164000288,,,,,,,,,,,,,,,,,,,,,,,,,,,,,,left,0.0,1.9708422999829052,,,,,,sub-113,1,random_dot,59.90115114871237,
left,left,13.0,1.0,6.0,left,1.0,1.6178219999419523,,accuracy,space,6.1893383000278845,,,,,,0.0,1.0,1.0,0.0,6.0,1.0,13.0,0.0,394.57237800001167,,,,,,,,,394.55742339999415,395.37219419993926,396.1729783000192,396.15610699995887,396.1565015000524,396.1729783000192,396.1729783000192,396.1729783000192,,397.8067977000028,,,,,,,,,,,,,,,,,,,,,,,,,,,,,,left,1.0,1.6178219999419523,,,,,,sub-113,1,random_dot,59.90115114871237,
left,left,14.0,0.0,7.0,right,0.0,4.180701100034639,,accuracy,space,6.1893383000278845,,,,,,0.0,1.0,1.0,0.0,7.0,0.0,14.0,0.0,397.8222544000018,,,,,,,,,397.80716259998735,397.9057711999631,398.7061417000368,398.68923819996417,398.6895276999567,398.7061417000368,398.7061417000368,398.7061417000368,,402.8903317999793,,,,,,,,,,,,,,,,,,,,,,,,,,,,,,right,0.0,4.180701100034639,,,,,,sub-113,1,random_dot,59.90115114871237,
right,right,15.0,1.0,7.0,left,0.0,5.953231599996798,,accuracy,space,6.1893383000278845,,,,,,0.0,1.0,1.0,0.0,7.0,1.0,15.0,1.0,402.9057901999913,,,,,,,,,402.89085750002414,403.70549890003167,404.5061266999692,404.4896502000047,404.4900474000024,404.5061266999692,404.5061266999692,404.5061266999692,409.4897453000304,410.4735403000377,,,,,,,,,,,,,,,,,,,,,,,,,,,,,,left,0.0,5.953231599996798,,,,,,sub-113,1,random_dot,59.90115114871237,
left,left,16.0,0.0,8.0,right,0.0,1.364193000015803,,accuracy,space,6.1893383000278845,,,,,,0.0,1.0,1.0,0.0,8.0,0.0,16.0,0.0,410.48908500000834,,,,,,,,,410.4739473999944,411.2889382999856,412.0902370000258,412.0728723000502,412.0732835000381,412.0902370000258,412.0902370000258,412.0902370000258,,413.4568206999684,,,,,,,,,,,,,,,,,,,,,,,,,,,,,,right,0.0,1.364193000015803,,,,,,sub-113,1,random_dot,59.90115114871237,
right,right,17.0,1.0,8.0,left,0.0,1.2558941000606865,,accuracy,space,6.1893383000278845,,,,,,0.0,1.0,1.0,0.0,8.0,1.0,17.0,1.0,413.4727333999472,,,,,,,,,413.457113499986,413.8058344000019,414.60682560002897,414.589515300002,414.5897957000416,414.60682560002897,414.60682560002897,414.60682560002897,,415.873789699981,,,,,,,,,,,,,,,,,,,,,,,,,,,,,,left,0.0,1.2558941000606865,,,,,,sub-113,1,random_dot,59.90115114871237,
right,right,18.0,0.0,9.0,right,1.0,2.4038710000459105,,accuracy,space,6.1893383000278845,,,,,,0.0,1.0,1.0,0.0,9.0,0.0,18.0,1.0,415.8894797000103,,,,,,,,,415.8742820000043,416.23941429995466,417.040074700024,417.0237357999431,417.0242208000273,417.040074700024,417.040074700024,417.040074700024,,419.4576310999692,,,,,,,,,,,,,,,,,,,,,,,,,,,,,,right,1.0,2.4038710000459105,,,,,,sub-113,1,random_dot,59.90115114871237,
left,left,19.0,1.0,9.0,left,1.0,1.6357571999542415,,accuracy,space,6.1893383000278845,,,,,,0.0,1.0,1.0,0.0,9.0,1.0,19.0,0.0,419.4727167000528,,,,,,,,,419.4583964999765,420.27320159995,421.0734374000458,421.05698640004266,421.0574344999623,421.0734374000458,421.0734374000458,421.0734374000458,,422.7240097000031,,,,,,,,,,,,,,,,,,,,,,,,,,,,,,left,1.0,1.6357571999542415,,,,,,sub-113,1,random_dot,59.90115114871237,
right,right,20.0,0.0,10.0,right,1.0,1.5205087999347595,,accuracy,space,6.1893383000278845,,,,,,0.0,1.0,1.0,0.0,10.0,0.0,20.0,1.0,422.7396113999421,,,,,,,,,422.72456580004655,422.83982909994666,423.6406926000491,423.623596600024,423.624062799965,423.6406926000491,423.6406926000491,423.6406926000491,,425.17453850002494,,,,,,,,,,,,,,,,,,,,,,,,,,,,,,right,1.0,1.5205087999347595,,,,,,sub-113,1,random_dot,59.90115114871237,
left,left,21.0,1.0,10.0,left,1.0,0.8936141999438405,,accuracy,space,6.1893383000278845,,,,,,0.0,1.0,1.0,0.0,10.0,1.0,21.0,0.0,425.18997950002085,,,,,,,,,425.17516480002087,425.99016439996194,426.79116709996015,426.77419050002936,426.7746831999393,426.79116709996015,426.79116709996015,426.79116709996015,,427.69163070002105,,,,,,,,,,,,,,,,,,,,,,,,,,,,,,left,1.0,0.8936141999438405,,,,,,sub-113,1,random_dot,59.90115114871237,
left,left,22.0,0.0,11.0,right,0.0,2.2739128000102937,,accuracy,space,6.1893383000278845,,,,,,0.0,1.0,1.0,0.0,11.0,0.0,22.0,0.0,427.707371699973,,,,,,,,,427.69311400002334,428.907042899984,429.70761899999343,429.6908768999856,429.69135670003016,429.70761899999343,429.70761899999343,429.70761899999343,,431.9921815999551,,,,,,,,,,,,,,,,,,,,,,,,,,,,,,right,0.0,2.2739128000102937,,,,,,sub-113,1,random_dot,59.90115114871237,
right,right,23.0,1.0,11.0,right,1.0,1.068791199941188,,accuracy,space,6.1893383000278845,,,,,,0.0,1.0,1.0,0.0,11.0,1.0,23.0,1.0,432.00689469999634,,,,,,,,,431.9928985999432,432.1070468999678,432.9077908999752,432.89092699997127,432.8913808000507,432.9077908999752,432.9077908999752,432.9077908999752,,433.9919689999661,,,,,,,,,,,,,,,,,,,,,,,,,,,,,,right,1.0,1.068791199941188,,,,,,sub-113,1,random_dot,59.90115114871237,
right,right,24.0,0.0,12.0,right,1.0,0.8554590999847278,,accuracy,space,6.1893383000278845,,,,,,0.0,1.0,1.0,0.0,12.0,0.0,24.0,1.0,434.0070348000154,,,,,,,,,433.9925488999579,435.206840800005,436.0077930999687,435.9903415000299,435.990700299968,436.0077930999687,436.0077930999687,436.0077930999687,,436.8745630000485,,,,,,,,,,,,,,,,,,,,,,,,,,,,,,right,1.0,0.8554590999847278,,,,,,sub-113,1,random_dot,59.90115114871237,
left,left,25.0,1.0,12.0,left,1.0,0.7646978999255225,,accuracy,space,6.1893383000278845,,,,,,0.0,1.0,1.0,0.0,12.0,1.0,25.0,0.0,436.8899028999731,,,,,,,,,436.8751669999911,437.2409317999845,438.0412347000092,438.02416000003,438.0246250999626,438.0412347000092,438.0412347000092,438.0412347000092,,438.8082306999713,,,,,,,,,,,,,,,,,,,,,,,,,,,,,,left,1.0,0.7646978999255225,,,,,,sub-113,1,random_dot,59.90115114871237,
left,left,26.0,0.0,13.0,right,0.0,1.7900418000062928,,accuracy,space,6.1893383000278845,,,,,,0.0,1.0,1.0,0.0,13.0,0.0,26.0,0.0,438.8235478999559,,,,,,,,,438.8087992999936,440.0228448000271,440.82337680005,440.80682079994585,440.8076022999594,440.82337680005,440.82337680005,440.82337680005,,442.6245461000362,,,,,,,,,,,,,,,,,,,,,,,,,,,,,,right,0.0,1.7900418000062928,,,,,,sub-113,1,random_dot,59.90115114871237,
right,right,27.0,1.0,13.0,right,1.0,0.8638015000615269,,accuracy,space,6.1893383000278845,,,,,,0.0,1.0,1.0,0.0,13.0,1.0,27.0,1.0,442.6396299999906,,,,,,,,,442.62507850001566,443.83971450000536,444.64041790005285,444.62385289999656,444.6244728999445,444.64041790005285,444.64041790005285,444.64041790005285,,445.5076078999555,,,,,,,,,,,,,,,,,,,,,,,,,,,,,,right,1.0,0.8638015000615269,,,,,,sub-113,1,random_dot,59.90115114871237,
left,left,28.0,0.0,14.0,left,1.0,1.2443864000961185,,accuracy,space,6.1893383000278845,,,,,,0.0,1.0,1.0,0.0,14.0,0.0,28.0,0.0,445.5234116000356,,,,,,,,,445.5081393000437,446.322962300037,447.1234481999418,447.1067849999527,447.10726750001777,447.1234481999418,447.1234481999418,447.1234481999418,,448.3746972000226,,,,,,,,,,,,,,,,,,,,,,,,,,,,,,left,1.0,1.2443864000961185,,,,,,sub-113,1,random_dot,59.90115114871237,
right,right,29.0,1.0,14.0,right,1.0,0.9905365000013262,,accuracy,space,6.1893383000278845,,,,,,0.0,1.0,1.0,0.0,14.0,1.0,29.0,1.0,448.3897517999867,,,,,,,,,448.3751845000079,449.5897825999418,450.3907129999716,450.3736366999801,450.3740838000085,450.3907129999716,450.3907129999716,450.3907129999716,,451.3910843000049,,,,,,,,,,,,,,,,,,,,,,,,,,,,,,right,1.0,0.9905365000013262,,,,,,sub-113,1,random_dot,59.90115114871237,
left,left,30.0,0.0,15.0,left,1.0,0.9235056000761688,,accuracy,space,6.1893383000278845,,,,,,0.0,1.0,1.0,0.0,15.0,0.0,30.0,0.0,451.4069279000396,,,,,,,,,451.3918565999484,452.6063652000157,453.4072159000207,453.3901531000156,453.3906184999505,453.4072159000207,453.4072159000207,453.4072159000207,,454.3410306000151,,,,,,,,,,,,,,,,,,,,,,,,,,,,,,left,1.0,0.9235056000761688,,,,,,sub-113,1,random_dot,59.90115114871237,
right,right,31.0,1.0,15.0,right,1.0,1.7506129998946562,,accuracy,space,6.1893383000278845,,,,,,0.0,1.0,1.0,0.0,15.0,1.0,31.0,1.0,454.35642119997647,,,,,,,,,454.341514699976,454.4564490000485,455.2573331999593,455.2403693000088,455.2409470999846,455.2573331999593,455.2573331999593,455.2573331999593,,457.0245217999909,,,,,,,,,,,,,,,,,,,,,,,,,,,,,,right,1.0,1.7506129998946562,,,,,,sub-113,1,random_dot,59.90115114871237,
right,right,32.0,0.0,16.0,right,1.0,3.915163700003177,,accuracy,space,6.1893383000278845,,,,,,0.0,1.0,1.0,0.0,16.0,0.0,32.0,1.0,457.03988749999553,,,,,,,,,457.0252257999964,457.839831899968,458.6405039000092,458.623883399996,458.6242707000347,458.6405039000092,458.6405039000092,458.6405039000092,,462.5743976000231,,,,,,,,,,,,,,,,,,,,,,,,,,,,,,right,1.0,3.915163700003177,,,,,,sub-113,1,random_dot,59.90115114871237,
left,left,33.0,1.0,16.0,left,1.0,2.0424915000330657,,accuracy,space,6.1893383000278845,,,,,,0.0,1.0,1.0,0.0,16.0,1.0,33.0,0.0,462.5898730000481,,,,,,,,,462.5749469000148,462.9399226000533,463.7408818999538,463.7238075999776,463.7242801999673,463.7408818999538,463.7408818999538,463.7408818999538,,465.7912226000335,,,,,,,,,,,,,,,,,,,,,,,,,,,,,,left,1.0,2.0424915000330657,,,,,,sub-113,1,random_dot,59.90115114871237,
right,right,34.0,0.0,17.0,right,1.0,1.2845698000164705,,accuracy,space,6.1893383000278845,,,,,,0.0,1.0,1.0,0.0,17.0,0.0,34.0,1.0,465.8065785999642,,,,,,,,,465.7916759999935,465.9066320999991,466.7071245999541,466.69039889995474,466.6907327000517,466.7071245999541,466.7071245999541,466.7071245999541,,468.0077551000286,,,,,,,,,,,,,,,,,,,,,,,,,,,,,,right,1.0,1.2845698000164705,,,,,,sub-113,1,random_dot,59.90115114871237,
left,left,35.0,1.0,17.0,left,1.0,1.8778523000655696,,accuracy,space,6.1893383000278845,,,,,,0.0,1.0,1.0,0.0,17.0,1.0,35.0,0.0,468.0235988999484,,,,,,,,,468.00831319997087,468.1233221000293,468.92409760004375,468.9075626999838,468.9080665999791,468.92409760004375,468.92409760004375,468.92409760004375,,470.8079726999858,,,,,,,,,,,,,,,,,,,,,,,,,,,,,,left,1.0,1.8778523000655696,,,,,,sub-113,1,random_dot,59.90115114871237,
left,left,36.0,0.0,18.0,left,1.0,4.111056499998085,,accuracy,space,6.1893383000278845,,,,,,0.0,1.0,1.0,0.0,18.0,0.0,36.0,0.0,470.8244567000074,,,,,,,,,470.8085015999386,470.92321999999695,471.724067299976,471.7072331999661,471.7077459000284,471.724067299976,471.724067299976,471.724067299976,,475.8413218000205,,,,,,,,,,,,,,,,,,,,,,,,,,,,,,left,1.0,4.111056499998085,,,,,,sub-113,1,random_dot,59.90115114871237,
right,right,37.0,1.0,18.0,right,1.0,0.9330668998882174,,accuracy,space,6.1893383000278845,,,,,,0.0,1.0,1.0,0.0,18.0,1.0,37.0,1.0,475.8566640999634,,,,,,,,,475.84175839996897,476.6569526999956,477.4575166000286,477.4404730000533,477.4408564999467,477.4575166000286,477.4575166000286,477.4575166000286,,478.3917637999402,,,,,,,,,,,,,,,,,,,,,,,,,,,,,,right,1.0,0.9330668998882174,,,,,,sub-113,1,random_dot,59.90115114871237,
right,right,38.0,0.0,19.0,left,0.0,1.6958442999748513,,accuracy,space,6.1893383000278845,,,,,,0.0,1.0,1.0,0.0,19.0,0.0,38.0,1.0,478.40668350004125,,,,,,,,,478.3923765999498,479.20691499998793,480.008058300009,479.9904818000505,479.9908760000253,480.008058300009,480.008058300009,480.008058300009,,481.70826810004655,,,,,,,,,,,,,,,,,,,,,,,,,,,,,,left,0.0,1.6958442999748513,,,,,,sub-113,1,random_dot,59.90115114871237,
left,left,39.0,1.0,19.0,left,1.0,1.845959100057371,,accuracy,space,6.1893383000278845,,,,,,0.0,1.0,1.0,0.0,19.0,1.0,39.0,0.0,481.7235711000394,,,,,,,,,481.70872110000346,481.8237749999389,482.6244845000329,482.6078108999645,482.6083324999781,482.6244845000329,482.6244845000329,482.6244845000329,,484.4757287999382,,,,,,,,,,,,,,,,,,,,,,,,,,,,,,left,1.0,1.845959100057371,,,,,,sub-113,1,random_dot,59.90115114871237,
right,right,40.0,0.0,20.0,right,1.0,2.1557003000052646,,accuracy,space,6.1893383000278845,,,,,,0.0,1.0,1.0,0.0,20.0,0.0,40.0,1.0,484.4906058999477,,,,,,,,,484.4764203999657,485.6910570999608,486.4916940999683,486.4747655999381,486.4750476999907,486.4916940999683,486.4916940999683,486.4916940999683,,488.6589969999623,,,,,,,,,,,,,,,,,,,,,,,,,,,,,,right,1.0,2.1557003000052646,,,,,,sub-113,1,random_dot,59.90115114871237,
left,left,41.0,1.0,20.0,left,1.0,1.0352200999623165,,accuracy,space,6.1893383000278845,,,,,,0.0,1.0,1.0,0.0,20.0,1.0,41.0,0.0,488.67428899998777,,,,,,,,,488.6597376000136,489.8740677000024,490.674616000033,490.657713499968,490.6582874000305,490.674616000033,490.674616000033,490.674616000033,,491.7250933999894,,,,,,,,,,,,,,,,,,,,,,,,,,,,,,left,1.0,1.0352200999623165,,,,,,sub-113,1,random_dot,59.90115114871237,
left,left,42.0,0.0,21.0,left,1.0,4.981917600031011,,accuracy,space,6.1893383000278845,,,,,,0.0,1.0,1.0,0.0,21.0,0.0,42.0,0.0,491.7403142999392,,,,,,,,,491.7256753999973,492.0907605000539,492.89112159993965,492.8745298000285,492.8749547000043,492.89112159993965,492.89112159993965,492.89112159993965,497.87499259994365,497.8757478999905,,,,,,,,,,,,,,,,,,,,,,,,,,,,,,left,1.0,4.981917600031011,,,,,,sub-113,1,random_dot,59.90115114871237,
right,right,43.0,1.0,21.0,left,0.0,1.5510058000218123,,accuracy,space,6.1893383000278845,,,,,,0.0,1.0,1.0,0.0,21.0,1.0,43.0,1.0,497.89120519999415,,,,,,,,,497.8762535999995,498.6746688999701,499.4755413000239,499.4586302000098,499.4592694999883,499.4755413000239,499.4755413000239,499.4755413000239,,501.0270123999799,,,,,,,,,,,,,,,,,,,,,,,,,,,,,,left,0.0,1.5510058000218123,,,,,,sub-113,1,random_dot,59.90115114871237,
left,left,44.0,0.0,22.0,left,1.0,1.1214951999718323,,accuracy,space,6.1893383000278845,,,,,,0.0,1.0,1.0,0.0,22.0,0.0,44.0,0.0,501.0412030000007,,,,,,,,,501.0274761000183,502.241343599977,503.0418975000503,503.0247842000099,503.0252080999781,503.0418975000503,503.0418975000503,503.0418975000503,,504.17596170003526,,,,,,,,,,,,,,,,,,,,,,,,,,,,,,left,1.0,1.1214951999718323,,,,,,sub-113,1,random_dot,59.90115114871237,
right,right,45.0,1.0,22.0,right,1.0,1.777656799997203,,accuracy,space,6.1893383000278845,,,,,,0.0,1.0,1.0,0.0,22.0,1.0,45.0,1.0,504.191027999972,,,,,,,,,504.1763951999601,504.99131650000345,505.79220379993785,505.7753862000536,505.7758395000128,505.79220379993785,505.79220379993785,505.79220379993785,,507.57604439998977,,,,,,,,,,,,,,,,,,,,,,,,,,,,,,right,1.0,1.777656799997203,,,,,,sub-113,1,random_dot,59.90115114871237,
right,right,46.0,0.0,23.0,right,1.0,0.9338530999375508,,accuracy,space,6.1893383000278845,,,,,,0.0,1.0,1.0,0.0,23.0,0.0,46.0,1.0,507.59138510003686,,,,,,,,,507.5765438999515,508.7912921999814,509.5923872999847,509.5753729999997,509.5759090000065,509.5923872999847,509.5923872999847,509.5923872999847,,510.54258799995296,,,,,,,,,,,,,,,,,,,,,,,,,,,,,,right,1.0,0.9338530999375508,,,,,,sub-113,1,random_dot,59.90115114871237,
left,left,47.0,1.0,23.0,left,1.0,0.6377337999874726,,accuracy,space,6.1893383000278845,,,,,,0.0,1.0,1.0,0.0,23.0,1.0,47.0,0.0,510.5580418000464,,,,,,,,,510.54308269999456,511.3580729999812,512.158984299982,512.1422106999671,512.1426553999772,512.158984299982,512.158984299982,512.158984299982,,512.8094983999617,,,,,,,,,,,,,,,,,,,,,,,,,,,,,,left,1.0,0.6377337999874726,,,,,,sub-113,1,random_dot,59.90115114871237,
left,left,48.0,0.0,24.0,right,0.0,5.8939162999158725,,accuracy,space,6.1893383000278845,,,,,,0.0,1.0,1.0,0.0,24.0,0.0,48.0,0.0,512.8248660999816,,,,,,,,,512.8100560000166,512.9248740000185,513.7255894000409,513.7086758000078,513.7094526999863,513.7255894000409,513.7255894000409,513.7255894000409,518.7090479000472,519.6262131000403,,,,,,,,,,,,,,,,,,,,,,,,,,,,,,right,0.0,5.8939162999158725,,,,,,sub-113,1,random_dot,59.90115114871237,
right,right,49.0,1.0,24.0,left,0.0,1.6447184999706224,,accuracy,space,6.1893383000278845,,,,,,0.0,1.0,1.0,0.0,24.0,1.0,49.0,1.0,519.6415442000143,,,,,,,,,519.6267170000356,520.44171309995,521.2416968999896,521.2252016999992,521.2257058999967,521.2416968999896,521.2416968999896,521.2416968999896,,522.892574599944,,,,,,,,,,,,,,,,,,,,,,,,,,,,,,left,0.0,1.6447184999706224,,,,,,sub-113,1,random_dot,59.90115114871237,
left,left,50.0,0.0,25.0,left,1.0,1.195034999982454,,accuracy,space,6.1893383000278845,,,,,,0.0,1.0,1.0,0.0,25.0,0.0,50.0,0.0,522.907549800002,,,,,,,,,522.8934430000372,523.2576240999624,524.0582433999516,524.0416131999809,524.0420386999613,524.0582433999516,524.0582433999516,524.0582433999516,,525.2590900999494,,,,,,,,,,,,,,,,,,,,,,,,,,,,,,left,1.0,1.195034999982454,,,,,,sub-113,1,random_dot,59.90115114871237,
right,right,51.0,1.0,25.0,right,1.0,1.3875545000191778,,accuracy,space,6.1893383000278845,,,,,,0.0,1.0,1.0,0.0,25.0,1.0,51.0,1.0,525.2744821000379,,,,,,,,,525.2596252999501,525.6245723000029,526.4253754999954,526.4085362999467,526.4090372000355,526.4253754999954,526.4253754999954,526.4253754999954,,527.8264744000044,,,,,,,,,,,,,,,,,,,,,,,,,,,,,,right,1.0,1.3875545000191778,,,,,,sub-113,1,random_dot,59.90115114871237,
right,right,52.0,0.0,26.0,right,1.0,1.0697234000544995,,accuracy,space,6.1893383000278845,,,,,,0.0,1.0,1.0,0.0,26.0,0.0,52.0,1.0,527.841584000038,,,,,,,,,527.8269737999653,529.0416972000385,529.8426814000122,529.8257721000118,529.8263631999725,529.8426814000122,529.8426814000122,529.8426814000122,,530.9265453999396,,,,,,,,,,,,,,,,,,,,,,,,,,,,,,right,1.0,1.0697234000544995,,,,,,sub-113,1,random_dot,59.90115114871237,
left,left,53.0,1.0,26.0,left,1.0,2.4211803000653163,,accuracy,space,6.1893383000278845,,,,,,0.0,1.0,1.0,0.0,26.0,1.0,53.0,0.0,530.9417103000451,,,,,,,,,530.9271553000435,531.0417577000335,531.842472899938,531.8253527999623,531.8259307999397,531.842472899938,531.842472899938,531.842472899938,,534.2768783000065,,,,,,,,,,,,,,,,,,,,,,,,,,,,,,left,1.0,2.4211803000653163,,,,,,sub-113,1,random_dot,59.90115114871237,
right,right,54.0,0.0,27.0,right,1.0,1.2181673999875784,,accuracy,space,6.1893383000278845,,,,,,0.0,1.0,1.0,0.0,27.0,0.0,54.0,1.0,534.291711900034,,,,,,,,,534.2774527999572,535.4918013999704,536.2928228999954,536.2759519000538,536.2764420999447,536.2928228999954,536.2928228999954,536.2928228999954,,537.526829999988,,,,,,,,,,,,,,,,,,,,,,,,,,,,,,right,1.0,1.2181673999875784,,,,,,sub-113,1,random_dot,59.90115114871237,
left,left,55.0,1.0,27.0,left,1.0,0.953892800025642,,accuracy,space,6.1893383000278845,,,,,,0.0,1.0,1.0,0.0,27.0,1.0,55.0,0.0,537.5417956999736,,,,,,,,,537.5273966999957,538.741793800029,539.5423321999842,539.5259038000368,539.5263808999443,539.5423321999842,539.5423321999842,539.5423321999842,,540.5097132000374,,,,,,,,,,,,,,,,,,,,,,,,,,,,,,left,1.0,0.953892800025642,,,,,,sub-113,1,random_dot,59.90115114871237,
right,right,56.0,0.0,28.0,right,1.0,1.0678057000041008,,accuracy,space,6.1893383000278845,,,,,,0.0,1.0,1.0,0.0,28.0,0.0,56.0,1.0,540.5251227000263,,,,,,,,,540.5102231999626,540.625185700017,541.4258933999809,541.4090268999571,541.4094594999915,541.4258933999809,541.4258933999809,541.4258933999809,,542.5098063000478,,,,,,,,,,,,,,,,,,,,,,,,,,,,,,right,1.0,1.0678057000041008,,,,,,sub-113,1,random_dot,59.90115114871237,
left,left,57.0,1.0,28.0,left,1.0,1.165076300036162,,accuracy,space,6.1893383000278845,,,,,,0.0,1.0,1.0,0.0,28.0,1.0,57.0,0.0,542.5251520000165,,,,,,,,,542.5103317999747,542.875193099957,543.6760411999421,543.6589406999992,543.6593741000397,543.6760411999421,543.6760411999421,543.6760411999421,,544.8438971999567,,,,,,,,,,,,,,,,,,,,,,,,,,,,,,left,1.0,1.165076300036162,,,,,,sub-113,1,random_dot,59.90115114871237,
left,left,58.0,0.0,29.0,left,1.0,1.0898185999831185,,accuracy,space,6.1893383000278845,,,,,,0.0,1.0,1.0,0.0,29.0,0.0,58.0,0.0,544.8586122000124,,,,,,,,,544.84447859996,545.2085811999859,546.0094027000014,545.9925037999637,545.9929802999832,546.0094027000014,546.0094027000014,546.0094027000014,,547.1098634999944,,,,,,,,,,,,,,,,,,,,,,,,,,,,,,left,1.0,1.0898185999831185,,,,,,sub-113,1,random_dot,59.90115114871237,
right,right,59.0,1.0,29.0,right,1.0,1.128150700009428,,accuracy,space,6.1893383000278845,,,,,,0.0,1.0,1.0,0.0,29.0,1.0,59.0,1.0,547.1249560000142,,,,,,,,,547.1106461000163,547.9252224999946,548.726208499982,548.7094411000144,548.7099085999653,548.726208499982,548.726208499982,548.726208499982,,549.8600276999641,,,,,,,,,,,,,,,,,,,,,,,,,,,,,,right,1.0,1.128150700009428,,,,,,sub-113,1,random_dot,59.90115114871237,
,,1.0,1.0,0.0,,,,,accuracy,space,6.1893383000278845,,,,,,0.0,1.0,1.0,0.0,,,,,,,,,,,,,,,,,,,,,,,,,,,,,,,,,,,,,,,,,,,,,,,,,,,,,,,,,,,,,sub-113,1,random_dot,59.90115114871237,
,,,,,,,,,,,,,,,,,,,,,,,,,,,,,,,,,,,,,,,,,,,,,,,,,,,,,,,,,,,,,,,,,,,,,,,,,,,,,549.8679294999456,549.8753364000004,554.8760823999764,554.8600486000068,sub-113,1,random_dot,59.90115114871237,
