direction,corrAns,thisN,thisTrialN,thisRepN,respDots.keys,respDots.corr,respDots.rt,respDots.duration,randomInstr,respRandomInstr.keys,respRandomInstr.rt,respRandomInstr.duration,practice_trials.thisRepN,practice_trials.thisTrialN,practice_trials.thisN,practice_trials.thisIndex,instr_trials.thisRepN,instr_trials.thisTrialN,instr_trials.thisN,instr_trials.thisIndex,test_trials.thisRepN,test_trials.thisTrialN,test_trials.thisN,test_trials.thisIndex,thisRow.t,notes,general_instruction.started,textGeneralInstr.started,respGeneralInstr.started,general_instruction.stopped,respGeneralInstr.keys,respGeneralInstr.rt,respGeneralInstr.duration,ITI.started,fixcross.started,fixcross.stopped,ITI.stopped,dots.started,backgroundDots.started,stimulusDots.started,respDots.started,dots.stopped,practice_trials.respDots.keys,practice_trials.respDots.corr,practice_trials.respDots.rt,practice_trials.respDots.duration,feedback.started,textFeedback.started,feedback.stopped,textFeedback.stopped,info.started,textInfo.started,keyRespInfo.started,info.stopped,keyRespInfo.keys,keyRespInfo.rt,keyRespInfo.duration,test_instruction.started,textTestInstr.started,respTestInstr.started,test_instruction.stopped,respTestInstr.keys,respTestInstr.rt,respTestInstr.duration,random_instruction.started,textRandomInstr.started,respRandomInstr.started,random_instruction.stopped,instr_trials.respRandomInstr.keys,instr_trials.respRandomInstr.rt,instr_trials.respRandomInstr.duration,test_trials.respDots.keys,test_trials.respDots.corr,test_trials.respDots.rt,test_trials.respDots.duration,stimulusDots.stopped,goodbye.started,textGoodbye.started,goodbye.stopped,participant,session,expName,frameRate,Unnamed: 87
,,,,,,,,,,,,,,,,,,,,,,,,,,,0.0354407089999995,0.0597315940000271,0.0597315940000271,12.69266390000007,space,12.594949746999989,,,,,,,,,,,,,,,,,,,,,,,,,,,,,,,,,,,,,,,,,,,,,,,,sub-154,1,random_dot,,
left,left,0.0,0.0,0.0,left,1.0,3.195311773999947,,,,,,0.0,0.0,0.0,0.0,,,,,,,,,12.736865959000056,,,,,,,,,12.721379275000004,13.055736516000024,13.86428464900007,13.847338824000076,13.84764824800004,13.86428464900007,13.86428464900007,13.86428464900007,17.066191215000003,left,1.0,3.195311773999947,,17.075288742999987,17.11278023,17.582000815000015,,,,,,,,,,,,,,,,,,,,,,,,,,,,,,,sub-154,1,random_dot,,
right,right,1.0,1.0,0.0,left,0.0,2.2968814189999875,,,,,,0.0,1.0,1.0,1.0,,,,,,,,,17.592649926000036,,,,,,,,,17.582668811000076,17.91888038700006,18.72876891800001,18.717736618000004,18.71803366900008,18.72876891800001,18.72876891800001,18.72876891800001,21.03219971800001,left,0.0,2.2968814189999875,,21.04038777100004,21.048304057999985,21.544224816999986,,,,,,,,,,,,,,,,,,,,,,,,,,,,,,,sub-154,1,random_dot,,
right,right,2.0,0.0,1.0,right,1.0,1.6517936999999847,,,,,,1.0,0.0,2.0,1.0,,,,,,,,,21.554031539999983,,,,,,,,,21.544481192000035,21.630539621000025,22.448572989000013,22.436720127000054,22.43703171800007,22.448572989000013,22.448572989000013,22.448572989000013,24.108313553000016,right,1.0,1.6517936999999847,,24.11165637900001,24.123269268000055,24.617394584000067,,,,,,,,,,,,,,,,,,,,,,,,,,,,,,,sub-154,1,random_dot,,
left,left,3.0,1.0,1.0,left,1.0,1.2125283070000703,,,,,,1.0,1.0,3.0,0.0,,,,,,,,,24.62697958900003,,,,,,,,,24.617709801000046,24.969847964,25.77291015000003,25.761416261000026,25.76207315600004,25.77291015000003,25.77291015000003,25.77291015000003,26.992234388000043,left,1.0,1.2125283070000703,,26.992343865000063,27.00375637100001,27.49535922300004,,,,,,,,,,,,,,,,,,,,,,,,,,,,,,,sub-154,1,random_dot,,
left,left,4.0,0.0,2.0,right,0.0,1.1156593430000612,,,,,,2.0,0.0,4.0,0.0,,,,,,,,,27.50737335000008,,,,,,,,,27.49564508900005,27.85676220000005,28.663296584000022,28.650418882000054,28.65071278100004,28.663296584000022,28.663296584000022,28.663296584000022,29.787865675000035,right,0.0,1.1156593430000612,,29.790459896000016,29.80142626400004,30.289026535000065,,,,,,,,,,,,,,,,,,,,,,,,,,,,,,,sub-154,1,random_dot,,
right,right,5.0,1.0,2.0,right,1.0,2.237951382999995,,,,,,2.0,1.0,5.0,1.0,,,,,,,,,30.299788248000027,,,,,,,,,30.28948187600008,31.095557529000075,31.906247265000047,31.89404640800001,31.894428488000017,31.906247265000047,31.906247265000047,31.906247265000047,34.15224561299999,right,1.0,2.237951382999995,,34.15535641300005,34.16740948900008,34.66010013599998,,,,,,,,,,,,,,,,,,,,,,,,,,,,,,,sub-154,1,random_dot,,
left,left,6.0,0.0,3.0,right,0.0,3.2557556479999903,,,,,,3.0,0.0,6.0,0.0,,,,,,,,,34.670211273000064,,,,,,,,,34.660496710000075,35.023613179999984,35.830554647999975,35.819322175000025,35.819834995000065,35.830554647999975,35.830554647999975,35.830554647999975,39.09097982600008,right,0.0,3.2557556479999903,,39.09502161299997,39.10759619999999,39.59295780299999,,,,,,,,,,,,,,,,,,,,,,,,,,,,,,,sub-154,1,random_dot,,
right,right,7.0,1.0,3.0,right,1.0,2.9170307919999914,,,,,,3.0,1.0,7.0,1.0,,,,,,,,,39.603769512999975,,,,,,,,,39.59381787899997,40.80244485000003,41.60529063700005,41.59417150600007,41.59444565800004,41.60529063700005,41.60529063700005,41.60529063700005,44.54191571199999,right,1.0,2.9170307919999914,,44.54534628900001,44.557062813000016,45.04416022200007,,,,,,,,,,,,,,,,,,,,,,,,,,,,,,,sub-154,1,random_dot,,
left,left,8.0,0.0,4.0,left,1.0,1.5719187859999693,,,,,,4.0,0.0,8.0,0.0,,,,,,,,,45.05452599800003,,,,,,,,,45.04452462699999,45.84187233900002,46.65303054700007,46.6406227,46.64100076400007,46.65303054700007,46.65303054700007,46.65303054700007,48.235626560000014,left,1.0,1.5719187859999693,,48.23582534800005,48.24827446900008,48.74561988400001,,,,,,,,,,,,,,,,,,,,,,,,,,,,,,,sub-154,1,random_dot,,
right,right,9.0,1.0,4.0,left,0.0,2.752466002999995,,,,,,4.0,1.0,9.0,1.0,,,,,,,,,48.755319526,,,,,,,,,48.745941266000045,49.084221835,49.89540979600008,49.88465233400007,49.88505127000008,49.89540979600008,49.89540979600008,49.89540979600008,52.663390797000034,left,0.0,2.752466002999995,,52.66778120599997,52.67950668399999,53.171750781000014,,,,,,,,,,,,,,,,,,,,,,,,,,,,,,,sub-154,1,random_dot,,
right,right,10.0,0.0,5.0,right,1.0,1.936935835999975,,,,,,5.0,0.0,10.0,1.0,,,,,,,,,53.19357074800007,,,,,,,,,53.17201689299998,53.51958060800007,54.33300314400003,54.32120260900001,54.32150178699999,54.33300314400003,54.33300314400003,54.33300314400003,56.276515023,right,1.0,1.936935835999975,,56.279175603,56.29199044500001,56.78845401800004,,,,,,,,,,,,,,,,,,,,,,,,,,,,,,,sub-154,1,random_dot,,
left,left,11.0,1.0,5.0,left,1.0,1.6731079830000226,,,,,,5.0,1.0,11.0,0.0,,,,,,,,,56.79833644799999,,,,,,,,,56.78881420800008,57.97917041800008,58.788483076000034,58.77570831100002,58.77608061400008,58.788483076000034,58.788483076000034,58.788483076000034,60.47159281300003,left,1.0,1.6731079830000226,,60.471705423,60.482232650000014,60.97185432700008,60.98146259400005,,,,,,,,,,,,,,,,,,,,,,,,,,,,,,sub-154,1,random_dot,,
left,left,12.0,0.0,6.0,left,1.0,1.571001345000013,,,,,,6.0,0.0,12.0,0.0,,,,,,,,,60.98146259400005,,,,,,,,,60.97247474699998,62.17439765400002,62.979539929,62.968637141000045,62.968949338000016,62.979539929,62.979539929,62.979539929,64.55542582700002,left,1.0,1.571001345000013,,64.55554161300006,64.56809087600004,65.06935539000006,,,,,,,,,,,,,,,,,,,,,,,,,,,,,,,sub-154,1,random_dot,,
right,right,13.0,1.0,6.0,right,1.0,1.5662420229999725,,,,,,6.0,1.0,13.0,1.0,,,,,,,,,65.07816255300008,,,,,,,,,65.06959638400008,66.25615816800007,67.070774411,67.05975713100008,67.06004204999999,67.070774411,67.070774411,67.070774411,68.64239128500003,right,1.0,1.5662420229999725,,68.64249541000004,68.65308565600003,69.15119811500006,,,,,,,,,,,,,,,,,,,,,,,,,,,,,,,sub-154,1,random_dot,,
right,right,14.0,0.0,7.0,left,0.0,2.243314897999994,,,,,,7.0,0.0,14.0,1.0,,,,,,,,,69.16054748400006,,,,,,,,,69.15204313100003,70.34548974799998,71.15542745000005,71.14344098499998,71.14373720700007,71.15542745000005,71.15542745000005,71.15542745000005,73.41565004000006,left,0.0,2.243314897999994,,73.41858636100005,73.42898322999997,73.92048565800008,,,,,,,,,,,,,,,,,,,,,,,,,,,,,,,sub-154,1,random_dot,,
left,left,15.0,1.0,7.0,right,0.0,2.8204070660000298,,,,,,7.0,1.0,15.0,0.0,,,,,,,,,73.93002508500001,,,,,,,,,73.92074924400004,74.27559826200002,75.08797310800003,75.06576629400001,75.06603901800008,75.08797310800003,75.08797310800003,75.08797310800003,77.917342889,right,0.0,2.8204070660000298,,77.91749790400002,77.92727491800008,78.41750084400007,78.42614186000003,,,,,,,,,,,,,,,,,,,,,,,,,,,,,,sub-154,1,random_dot,,
right,right,16.0,0.0,8.0,left,0.0,2.98070884699996,,,,,,8.0,0.0,16.0,1.0,,,,,,,,,78.42614186000003,,,,,,,,,78.41785857399998,78.527933018,79.338664214,79.32817994800007,79.32846492400006,79.338664214,79.338664214,79.338664214,82.32389504100001,left,0.0,2.98070884699996,,82.32399817500004,82.33417749800003,82.82896031799999,,,,,,,,,,,,,,,,,,,,,,,,,,,,,,,sub-154,1,random_dot,,
left,left,17.0,1.0,8.0,left,1.0,1.1968161519999967,,,,,,8.0,1.0,17.0,0.0,,,,,,,,,82.83839069800001,,,,,,,,,82.82922841000004,82.92599280700006,83.73036628600005,83.71918704300003,83.71944903000008,83.73036628600005,83.73036628600005,83.73036628600005,84.93828259899999,left,1.0,1.1968161519999967,,84.94191096300005,84.95539186200006,85.44990135800003,,,,,,,,,,,,,,,,,,,,,,,,,,,,,,,sub-154,1,random_dot,,
right,right,18.0,0.0,9.0,left,0.0,1.4647934490000123,,,,,,9.0,0.0,18.0,1.0,,,,,,,,,85.45954256599998,,,,,,,,,85.45015547399998,85.79829791200007,86.60132611900008,86.58859058000007,86.588857426,86.60132611900008,86.60132611900008,86.60132611900008,88.08191647000001,left,0.0,1.4647934490000123,,88.08568509700001,88.09872187600001,88.58960721900007,,,,,,,,,,,,,,,,,,,,,,,,,,,,,,,sub-154,1,random_dot,,
left,left,19.0,1.0,9.0,right,0.0,0.8541849150000189,,,,,,9.0,1.0,19.0,0.0,,,,,,,,,88.59915454600002,,,,,,,,,88.58984929899998,88.93168895400004,89.735822772,89.724230713,89.72452062600007,89.735822772,89.735822772,89.735822772,90.60583145700002,right,0.0,0.8541849150000189,,90.60593655399998,90.61692090100009,91.11756726700004,,,,,,,,,,,,,,,,,,,,,,,,,,,,,,,sub-154,1,random_dot,,
,,,,,,,,,,,,,,,,,,,,,,,,,,,,,,,,,,,,,,,,,,,,,,,,,,,91.11769473100004,91.12769930700006,91.12769930700006,94.187818278,space,3.0451087190000408,,,,,,,,,,,,,,,,,,,,,,,,sub-154,1,random_dot,,
,,,,,,,,,,,,,,,,,,,,,,,,,,,,,,,,,,,,,,,,,,,,,,,,,,,,,,,,,,94.187912556,94.202254831,94.202254831,102.935369551,space,8.723300576999918,,,,,,,,,,,,,,,,,sub-154,1,random_dot,,
left,left,0.0,0.0,0.0,left,1.0,1.26803721400006,,speed,space,1.9883545389999424,,,,,,0.0,0.0,0.0,1.0,0.0,0.0,0.0,0.0,104.992551952,,,,,,,,,104.98104703299998,106.18475966699998,106.99326504099996,106.98229085900005,106.98256522999998,106.99326504099996,106.99326504099996,106.99326504099996,108.27697500400006,,,,,,,,,,,,,,,,,,,,,,,102.95943751100005,102.96905396600005,102.96905396600005,104.97448672899998,space,1.9883545389999424,,left,1.0,1.26803721400006,,,,,,sub-154,1,random_dot,,
right,right,1.0,1.0,0.0,right,1.0,1.8274579080000424,,speed,space,1.9883545389999424,,,,,,0.0,0.0,0.0,1.0,0.0,1.0,1.0,1.0,108.28718423500004,,,,,,,,,108.27732695600002,108.38509050000005,109.19417996100005,109.18225890300003,109.18262231200003,109.19417996100005,109.19417996100005,109.19417996100005,111.025053619,,,,,,,,,,,,,,,,,,,,,,,,,,,,,,right,1.0,1.8274579080000424,,,,,,sub-154,1,random_dot,,
right,right,2.0,0.0,1.0,right,1.0,1.9184336580000263,,speed,space,1.9883545389999424,,,,,,0.0,0.0,0.0,1.0,1.0,0.0,2.0,1.0,111.036084125,,,,,,,,,111.02551408300008,111.38771866000002,112.19576305700002,112.184821694,112.18508283100005,112.19576305700002,112.19576305700002,112.19576305700002,114.13073949500006,,,,,,,,,,,,,,,,,,,,,,,,,,,,,,right,1.0,1.9184336580000263,,,,,,sub-154,1,random_dot,,
left,left,3.0,1.0,1.0,left,1.0,1.0710310550000486,,speed,space,1.9883545389999424,,,,,,0.0,0.0,0.0,1.0,1.0,1.0,3.0,0.0,114.14143315,,,,,,,,,114.13110446400005,114.48112094700002,115.28453447100004,115.274095105,115.27437707500007,115.28453447100004,115.28453447100004,115.28453447100004,116.367352838,,,,,,,,,,,,,,,,,,,,,,,,,,,,,,left,1.0,1.0710310550000486,,,,,,sub-154,1,random_dot,,
right,right,4.0,0.0,2.0,right,1.0,1.627617050999902,,speed,space,1.9883545389999424,,,,,,0.0,0.0,0.0,1.0,2.0,0.0,4.0,1.0,116.37777115699998,,,,,,,,,116.36775679700008,117.181773389,117.98186281699998,117.97111323700004,117.971390596,117.98186281699998,117.98186281699998,117.98186281699998,119.61569579399998,,,,,,,,,,,,,,,,,,,,,,,,,,,,,,right,1.0,1.627617050999902,,,,,,sub-154,1,random_dot,,
left,left,5.0,1.0,2.0,left,1.0,1.2363772910000534,,speed,space,1.9883545389999424,,,,,,0.0,0.0,0.0,1.0,2.0,1.0,5.0,0.0,119.62698088900004,,,,,,,,,119.616139589,120.42087735300004,121.23889145400004,121.22694911500002,121.22722549499996,121.23889145400004,121.23889145400004,121.23889145400004,122.48280116,,,,,,,,,,,,,,,,,,,,,,,,,,,,,,left,1.0,1.2363772910000534,,,,,,sub-154,1,random_dot,,
right,right,6.0,0.0,3.0,right,1.0,0.9528629650000084,,speed,space,1.9883545389999424,,,,,,0.0,0.0,0.0,1.0,3.0,0.0,6.0,1.0,122.49440416699996,,,,,,,,,122.48317742400002,122.832785243,123.64567527400004,123.63469919700005,123.635012898,123.64567527400004,123.64567527400004,123.64567527400004,124.603540061,,,,,,,,,,,,,,,,,,,,,,,,,,,,,,right,1.0,0.9528629650000084,,,,,,sub-154,1,random_dot,,
left,left,7.0,1.0,3.0,left,1.0,1.590104393000047,,speed,space,1.9883545389999424,,,,,,0.0,0.0,0.0,1.0,3.0,1.0,7.0,0.0,124.615492475,,,,,,,,,124.603892837,125.410862641,126.21928673800004,126.207532925,126.20786883100004,126.21928673800004,126.21928673800004,126.21928673800004,127.81243971599996,,,,,,,,,,,,,,,,,,,,,,,,,,,,,,left,1.0,1.590104393000047,,,,,,sub-154,1,random_dot,,
left,left,8.0,0.0,4.0,left,1.0,1.864947763999908,,speed,space,1.9883545389999424,,,,,,0.0,0.0,0.0,1.0,4.0,0.0,8.0,0.0,127.82521729200003,,,,,,,,,127.81296356200004,128.169709947,128.97810475900008,128.96525465000002,128.96571382800005,128.97810475900008,128.97810475900008,128.97810475900008,130.84574358200007,,,,,,,,,,,,,,,,,,,,,,,,,,,,,,left,1.0,1.864947763999908,,,,,,sub-154,1,random_dot,,
right,right,9.0,1.0,4.0,right,1.0,1.4861539149999317,,speed,space,1.9883545389999424,,,,,,0.0,0.0,0.0,1.0,4.0,1.0,9.0,1.0,130.856976024,,,,,,,,,130.84613026800002,130.95491739,131.765229547,131.753816551,131.754099547,131.765229547,131.765229547,131.765229547,133.26131696699997,,,,,,,,,,,,,,,,,,,,,,,,,,,,,,right,1.0,1.4861539149999317,,,,,,sub-154,1,random_dot,,
left,left,10.0,0.0,5.0,left,1.0,1.254343906000031,,speed,space,1.9883545389999424,,,,,,0.0,0.0,0.0,1.0,5.0,0.0,10.0,0.0,133.27190308500008,,,,,,,,,133.26168402000008,133.62266998100006,134.43481976099997,134.42430614900002,134.424610389,134.43481976099997,134.43481976099997,134.43481976099997,135.69415301700008,,,,,,,,,,,,,,,,,,,,,,,,,,,,,,left,1.0,1.254343906000031,,,,,,sub-154,1,random_dot,,
right,right,11.0,1.0,5.0,right,1.0,1.1668484819999776,,speed,space,1.9883545389999424,,,,,,0.0,0.0,0.0,1.0,5.0,1.0,11.0,1.0,135.70481762600002,,,,,,,,,135.694513595,135.794044761,136.59723551600007,136.58669414200006,136.58696252200002,136.59723551600007,136.59723551600007,136.59723551600007,137.77082787900008,,,,,,,,,,,,,,,,,,,,,,,,,,,,,,right,1.0,1.1668484819999776,,,,,,sub-154,1,random_dot,,
left,left,12.0,0.0,6.0,left,1.0,0.8612869190000083,,speed,space,1.9883545389999424,,,,,,0.0,0.0,0.0,1.0,6.0,0.0,12.0,0.0,137.782040597,,,,,,,,,137.77119712400008,137.88093508400004,138.68214256099998,138.670771318,138.67104558900007,138.68214256099998,138.68214256099998,138.68214256099998,139.55110435000006,,,,,,,,,,,,,,,,,,,,,,,,,,,,,,left,1.0,0.8612869190000083,,,,,,sub-154,1,random_dot,,
right,right,13.0,1.0,6.0,left,0.0,2.502068309000037,,speed,space,1.9883545389999424,,,,,,0.0,0.0,0.0,1.0,6.0,1.0,13.0,1.0,139.56255392100002,,,,,,,,,139.55144549700003,139.90604616000007,140.71057458500002,140.69896525299998,140.69922759000008,140.71057458500002,140.71057458500002,140.71057458500002,143.222232522,,,,,,,,,,,,,,,,,,,,,,,,,,,,,,left,0.0,2.502068309000037,,,,,,sub-154,1,random_dot,,
right,right,14.0,0.0,7.0,right,1.0,1.516371690000028,,speed,space,1.9883545389999424,,,,,,0.0,0.0,0.0,1.0,7.0,0.0,14.0,1.0,143.23311023999997,,,,,,,,,143.22259457000007,144.02873087900002,144.83098290500004,144.81995232100007,144.82023947599998,144.83098290500004,144.83098290500004,144.83098290500004,146.35386831300002,,,,,,,,,,,,,,,,,,,,,,,,,,,,,,right,1.0,1.516371690000028,,,,,,sub-154,1,random_dot,,
left,left,15.0,1.0,7.0,right,0.0,1.1624986240000226,,speed,space,1.9883545389999424,,,,,,0.0,0.0,0.0,1.0,7.0,1.0,15.0,0.0,146.36662132700008,,,,,,,,,146.354356262,147.56006167600003,148.36542446400006,148.35414242800005,148.35452917600003,148.36542446400006,148.36542446400006,148.36542446400006,149.537104215,,,,,,,,,,,,,,,,,,,,,,,,,,,,,,right,0.0,1.1624986240000226,,,,,,sub-154,1,random_dot,,
left,left,16.0,0.0,8.0,left,1.0,0.9979243349999932,,speed,space,1.9883545389999424,,,,,,0.0,0.0,0.0,1.0,8.0,0.0,16.0,0.0,149.54738796100003,,,,,,,,,149.537455605,150.34036064600002,151.1523572460001,151.14112045000002,151.14139515300008,151.1523572460001,151.1523572460001,151.1523572460001,152.16667758799997,,,,,,,,,,,,,,,,,,,,,,,,,,,,,,left,1.0,0.9979243349999932,,,,,,sub-154,1,random_dot,,
right,right,17.0,1.0,8.0,right,1.0,1.8109015820000425,,speed,space,1.9883545389999424,,,,,,0.0,0.0,0.0,1.0,8.0,1.0,17.0,1.0,152.17863393000005,,,,,,,,,152.167251501,152.51425144799998,153.32099147600002,153.30920067500006,153.30953166400002,153.32099147600002,153.32099147600002,153.32099147600002,155.14012478300003,,,,,,,,,,,,,,,,,,,,,,,,,,,,,,right,1.0,1.8109015820000425,,,,,,sub-154,1,random_dot,,
right,right,18.0,0.0,9.0,left,0.0,1.7752415589999373,,speed,space,1.9883545389999424,,,,,,0.0,0.0,0.0,1.0,9.0,0.0,18.0,1.0,155.15065007400003,,,,,,,,,155.140465522,155.94225141599998,156.74290866600006,156.731087257,156.73188646900007,156.74290866600006,156.74290866600006,156.74290866600006,158.53143348900005,,,,,,,,,,,,,,,,,,,,,,,,,,,,,,left,0.0,1.7752415589999373,,,,,,sub-154,1,random_dot,,
left,left,19.0,1.0,9.0,left,1.0,1.104606290999982,,speed,space,1.9883545389999424,,,,,,0.0,0.0,0.0,1.0,9.0,1.0,19.0,0.0,158.54173056399998,,,,,,,,,158.53178307400003,159.34104505699997,160.14527608100002,160.13462352700003,160.13489205000008,160.14527608100002,160.14527608100002,160.14527608100002,161.25746254600006,,,,,,,,,,,,,,,,,,,,,,,,,,,,,,left,1.0,1.104606290999982,,,,,,sub-154,1,random_dot,,
right,right,20.0,0.0,10.0,left,0.0,1.3357081460000018,,speed,space,1.9883545389999424,,,,,,0.0,0.0,0.0,1.0,10.0,0.0,20.0,1.0,161.267408371,,,,,,,,,161.257799104,162.45551855500003,163.261132491,163.25060194800005,163.25088995099998,163.261132491,163.261132491,163.261132491,164.60303093000005,,,,,,,,,,,,,,,,,,,,,,,,,,,,,,left,0.0,1.3357081460000018,,,,,,sub-154,1,random_dot,,
left,left,21.0,1.0,10.0,left,1.0,1.823467337000011,,speed,space,1.9883545389999424,,,,,,0.0,0.0,0.0,1.0,10.0,1.0,21.0,0.0,164.61505602800003,,,,,,,,,164.60338017200002,164.95178235000003,165.7575204560001,165.74676047600008,165.74703671100008,165.7575204560001,165.7575204560001,165.7575204560001,167.58647091600005,,,,,,,,,,,,,,,,,,,,,,,,,,,,,,left,1.0,1.823467337000011,,,,,,sub-154,1,random_dot,,
right,right,22.0,0.0,11.0,right,1.0,1.820777716000066,,speed,space,1.9883545389999424,,,,,,0.0,0.0,0.0,1.0,11.0,0.0,22.0,1.0,167.59824568200008,,,,,,,,,167.58690229299998,168.39644836000002,169.20367058500003,169.19235707400003,169.192632666,169.20367058500003,169.20367058500003,169.20367058500003,171.03369432800002,,,,,,,,,,,,,,,,,,,,,,,,,,,,,,right,1.0,1.820777716000066,,,,,,sub-154,1,random_dot,,
left,left,23.0,1.0,11.0,left,1.0,1.2088980199999924,,speed,space,1.9883545389999424,,,,,,0.0,0.0,0.0,1.0,11.0,1.0,23.0,0.0,171.04431204500008,,,,,,,,,171.034049654,172.23846038500005,173.04021375500008,173.02892294600008,173.02921556600006,173.04021375500008,173.04021375500008,173.04021375500008,174.25812857300002,,,,,,,,,,,,,,,,,,,,,,,,,,,,,,left,1.0,1.2088980199999924,,,,,,sub-154,1,random_dot,,
left,left,24.0,0.0,12.0,left,1.0,0.8935756969999602,,speed,space,1.9883545389999424,,,,,,0.0,0.0,0.0,1.0,12.0,0.0,24.0,0.0,174.26880258900007,,,,,,,,,174.25849489200004,175.066417451,175.87291218899998,175.859882901,175.86032222799997,175.87291218899998,175.87291218899998,175.87291218899998,176.77212749800003,,,,,,,,,,,,,,,,,,,,,,,,,,,,,,left,1.0,0.8935756969999602,,,,,,sub-154,1,random_dot,,
right,right,25.0,1.0,12.0,left,0.0,1.121036363999906,,speed,space,1.9883545389999424,,,,,,0.0,0.0,0.0,1.0,12.0,1.0,25.0,1.0,176.78336883200006,,,,,,,,,176.772508033,177.98206499499997,178.79082975699998,178.77983552600006,178.78011539199997,178.79082975699998,178.79082975699998,178.79082975699998,179.918735438,,,,,,,,,,,,,,,,,,,,,,,,,,,,,,left,0.0,1.121036363999906,,,,,,sub-154,1,random_dot,,
left,left,26.0,0.0,13.0,left,1.0,1.1387234830000352,,speed,space,1.9883545389999424,,,,,,0.0,0.0,0.0,1.0,13.0,0.0,26.0,0.0,179.92911512,,,,,,,,,179.91907809400004,180.27819436700008,181.08096785100008,181.0690986120001,181.06942795200007,181.08096785100008,181.08096785100008,181.08096785100008,182.22296056100004,,,,,,,,,,,,,,,,,,,,,,,,,,,,,,left,1.0,1.1387234830000352,,,,,,sub-154,1,random_dot,,
right,right,27.0,1.0,13.0,right,1.0,2.099984919000008,,speed,space,1.9883545389999424,,,,,,0.0,0.0,0.0,1.0,13.0,1.0,27.0,1.0,182.233374649,,,,,,,,,182.223301536,183.43231395600003,184.23554324000008,184.2246781590001,184.22495454800003,184.23554324000008,184.23554324000008,184.23554324000008,186.34456071600005,,,,,,,,,,,,,,,,,,,,,,,,,,,,,,right,1.0,2.099984919000008,,,,,,sub-154,1,random_dot,,
right,right,28.0,0.0,14.0,right,1.0,1.4774590210000724,,speed,space,1.9883545389999424,,,,,,0.0,0.0,0.0,1.0,14.0,0.0,28.0,1.0,186.35526437500005,,,,,,,,,186.34491967400004,187.54576204,188.37356124300004,188.361891044,188.3622212930001,188.37356124300004,188.37356124300004,188.37356124300004,189.856886851,,,,,,,,,,,,,,,,,,,,,,,,,,,,,,right,1.0,1.4774590210000724,,,,,,sub-154,1,random_dot,,
left,left,29.0,1.0,14.0,left,1.0,0.8111529510000537,,speed,space,1.9883545389999424,,,,,,0.0,0.0,0.0,1.0,14.0,1.0,29.0,0.0,189.869720778,,,,,,,,,189.857464349,191.06697681000003,191.87032560400007,191.85762455100007,191.858183413,191.87032560400007,191.87032560400007,191.87032560400007,192.693691223,,,,,,,,,,,,,,,,,,,,,,,,,,,,,,left,1.0,0.8111529510000537,,,,,,sub-154,1,random_dot,,
right,right,30.0,0.0,15.0,right,1.0,1.8368732760000055,,speed,space,1.9883545389999424,,,,,,0.0,0.0,0.0,1.0,15.0,0.0,30.0,1.0,192.704253245,,,,,,,,,192.69406741,193.053833145,193.876789442,193.864046604,193.864506151,193.876789442,193.876789442,193.876789442,195.722023778,,,,,,,,,,,,,,,,,,,,,,,,,,,,,,right,1.0,1.8368732760000055,,,,,,sub-154,1,random_dot,,
left,left,31.0,1.0,15.0,left,1.0,1.0680530070000032,,speed,space,1.9883545389999424,,,,,,0.0,0.0,0.0,1.0,15.0,1.0,31.0,0.0,195.732750001,,,,,,,,,195.72237680600009,196.52898496400007,197.35167266400003,197.33786503,197.33838720100005,197.35167266400003,197.35167266400003,197.35167266400003,198.4339115610001,,,,,,,,,,,,,,,,,,,,,,,,,,,,,,left,1.0,1.0680530070000032,,,,,,sub-154,1,random_dot,,
right,right,32.0,0.0,16.0,left,0.0,3.0269088680000777,,speed,space,1.9883545389999424,,,,,,0.0,0.0,0.0,1.0,16.0,0.0,32.0,1.0,198.446374784,,,,,,,,,198.43429499400008,199.235974349,200.041530361,200.02930785400008,200.02959555000007,200.041530361,200.041530361,200.041530361,203.076909149,,,,,,,,,,,,,,,,,,,,,,,,,,,,,,left,0.0,3.0269088680000777,,,,,,sub-154,1,random_dot,,
left,left,33.0,1.0,16.0,left,1.0,1.454066977000025,,speed,space,1.9883545389999424,,,,,,0.0,0.0,0.0,1.0,16.0,1.0,33.0,0.0,203.088887095,,,,,,,,,203.077376921,203.429240508,204.24274390100004,204.2315239760001,204.231798519,204.24274390100004,204.24274390100004,204.24274390100004,205.70169869200004,,,,,,,,,,,,,,,,,,,,,,,,,,,,,,left,1.0,1.454066977000025,,,,,,sub-154,1,random_dot,,
right,right,34.0,0.0,17.0,right,1.0,1.7988789760000827,,speed,space,1.9883545389999424,,,,,,0.0,0.0,0.0,1.0,17.0,0.0,34.0,1.0,205.713163239,,,,,,,,,205.702031048,205.81119301400008,206.6282744060001,206.6153094050001,206.615655339,206.6282744060001,206.6282744060001,206.6282744060001,208.437625186,,,,,,,,,,,,,,,,,,,,,,,,,,,,,,right,1.0,1.7988789760000827,,,,,,sub-154,1,random_dot,,
left,left,35.0,1.0,17.0,left,1.0,2.8984675359999983,,speed,space,1.9883545389999424,,,,,,0.0,0.0,0.0,1.0,17.0,1.0,35.0,0.0,208.44869363400005,,,,,,,,,208.438036343,209.65022592600008,210.46806723,210.45427351700005,210.45460908200005,210.46806723,210.46806723,210.46806723,213.370681946,,,,,,,,,,,,,,,,,,,,,,,,,,,,,,left,1.0,2.8984675359999983,,,,,,sub-154,1,random_dot,,
left,left,36.0,0.0,18.0,left,1.0,1.1779624650000642,,speed,space,1.9883545389999424,,,,,,0.0,0.0,0.0,1.0,18.0,0.0,36.0,0.0,213.3816180590001,,,,,,,,,213.371028165,214.576321905,215.382147626,215.37145803500005,215.371731459,215.382147626,215.382147626,215.382147626,216.56994089400007,,,,,,,,,,,,,,,,,,,,,,,,,,,,,,left,1.0,1.1779624650000642,,,,,,sub-154,1,random_dot,,
right,right,37.0,1.0,18.0,right,1.0,1.403237171000001,,speed,space,1.9883545389999424,,,,,,0.0,0.0,0.0,1.0,18.0,1.0,37.0,1.0,216.58070410000005,,,,,,,,,216.570285916,216.923439811,217.72647966500008,217.714662417,217.715059224,217.72647966500008,217.72647966500008,217.72647966500008,219.133009096,,,,,,,,,,,,,,,,,,,,,,,,,,,,,,right,1.0,1.403237171000001,,,,,,sub-154,1,random_dot,,
right,right,38.0,0.0,19.0,right,1.0,2.750170670999978,,speed,space,1.9883545389999424,,,,,,0.0,0.0,0.0,1.0,19.0,0.0,38.0,1.0,219.144376481,,,,,,,,,219.13336787000003,219.49454152300007,220.30241422300003,220.291038126,220.29138012400009,220.30241422300003,220.30241422300003,220.30241422300003,223.056472439,,,,,,,,,,,,,,,,,,,,,,,,,,,,,,right,1.0,2.750170670999978,,,,,,sub-154,1,random_dot,,
left,left,39.0,1.0,19.0,right,0.0,3.074551452000037,,speed,space,1.9883545389999424,,,,,,0.0,0.0,0.0,1.0,19.0,1.0,39.0,0.0,223.069068476,,,,,,,,,223.057046154,223.16021403800005,223.967454548,223.956148817,223.95643165700005,223.967454548,223.967454548,223.967454548,227.047381278,,,,,,,,,,,,,,,,,,,,,,,,,,,,,,right,0.0,3.074551452000037,,,,,,sub-154,1,random_dot,,
right,right,40.0,0.0,20.0,left,0.0,1.6593683370000465,,speed,space,1.9883545389999424,,,,,,0.0,0.0,0.0,1.0,20.0,0.0,40.0,1.0,227.058912857,,,,,,,,,227.047740699,227.15032148400007,227.951586069,227.94040503500003,227.940681585,227.951586069,227.951586069,227.951586069,229.620490907,,,,,,,,,,,,,,,,,,,,,,,,,,,,,,left,0.0,1.6593683370000465,,,,,,sub-154,1,random_dot,,
left,left,41.0,1.0,20.0,left,1.0,1.8313720930000272,,speed,space,1.9883545389999424,,,,,,0.0,0.0,0.0,1.0,20.0,1.0,41.0,0.0,229.631068614,,,,,,,,,229.620843069,229.973913962,230.797819258,230.78526110400003,230.78555591400004,230.797819258,230.797819258,230.797819258,232.639675807,,,,,,,,,,,,,,,,,,,,,,,,,,,,,,left,1.0,1.8313720930000272,,,,,,sub-154,1,random_dot,,
left,left,42.0,0.0,21.0,left,1.0,2.213856576000012,,speed,space,1.9883545389999424,,,,,,0.0,0.0,0.0,1.0,21.0,0.0,42.0,0.0,232.650529453,,,,,,,,,232.640158292,232.74687024600007,233.55399430300008,233.543524393,233.543812547,233.55399430300008,233.55399430300008,233.55399430300008,235.770890171,,,,,,,,,,,,,,,,,,,,,,,,,,,,,,left,1.0,2.213856576000012,,,,,,sub-154,1,random_dot,,
right,right,43.0,1.0,21.0,right,1.0,2.7948706990000574,,speed,space,1.9883545389999424,,,,,,0.0,0.0,0.0,1.0,21.0,1.0,43.0,1.0,235.780974293,,,,,,,,,235.771220129,235.877644765,236.685798845,236.67471580300003,236.67498987500005,236.685798845,236.685798845,236.685798845,239.48599293300003,,,,,,,,,,,,,,,,,,,,,,,,,,,,,,right,1.0,2.7948706990000574,,,,,,sub-154,1,random_dot,,
right,right,44.0,0.0,22.0,right,1.0,0.8757969270000103,,speed,space,1.9883545389999424,,,,,,0.0,0.0,0.0,1.0,22.0,0.0,44.0,1.0,239.49656561200004,,,,,,,,,239.48632797800008,240.30579498,241.108660881,241.09782133700003,241.098099282,241.108660881,241.108660881,241.108660881,241.999191646,,,,,,,,,,,,,,,,,,,,,,,,,,,,,,right,1.0,0.8757969270000103,,,,,,sub-154,1,random_dot,,
left,left,45.0,1.0,22.0,right,0.0,1.188030898000079,,speed,space,1.9883545389999424,,,,,,0.0,0.0,0.0,1.0,22.0,1.0,45.0,0.0,242.010983422,,,,,,,,,241.99954728400007,242.10512536700003,242.907976051,242.896033344,242.89651194,242.907976051,242.907976051,242.907976051,244.100556525,,,,,,,,,,,,,,,,,,,,,,,,,,,,,,right,0.0,1.188030898000079,,,,,,sub-154,1,random_dot,,
right,right,46.0,0.0,23.0,left,0.0,1.0275373670000365,,speed,space,1.9883545389999424,,,,,,0.0,0.0,0.0,1.0,23.0,0.0,46.0,1.0,244.1107155450001,,,,,,,,,244.100882169,244.458091135,245.276890621,245.254869396,245.255142428,245.276890621,245.276890621,245.276890621,246.310154957,,,,,,,,,,,,,,,,,,,,,,,,,,,,,,left,0.0,1.0275373670000365,,,,,,sub-154,1,random_dot,,
left,left,47.0,1.0,23.0,left,1.0,0.9292073259999823,,speed,space,1.9883545389999424,,,,,,0.0,0.0,0.0,1.0,23.0,1.0,47.0,0.0,246.320052679,,,,,,,,,246.31049922300008,246.66303081400008,247.467004871,247.45636163200004,247.456634378,247.467004871,247.467004871,247.467004871,248.40024522600004,,,,,,,,,,,,,,,,,,,,,,,,,,,,,,left,1.0,0.9292073259999823,,,,,,sub-154,1,random_dot,,
left,left,48.0,0.0,24.0,right,0.0,0.6692726530000073,,speed,space,1.9883545389999424,,,,,,0.0,0.0,0.0,1.0,24.0,0.0,48.0,0.0,248.411797448,,,,,,,,,248.400725741,249.20716103200004,250.01845374000004,250.007164503,250.007471398,250.01845374000004,250.01845374000004,250.01845374000004,250.70486893600005,,,,,,,,,,,,,,,,,,,,,,,,,,,,,,right,0.0,0.6692726530000073,,,,,,sub-154,1,random_dot,,
right,right,49.0,1.0,24.0,right,1.0,1.4040281669999786,,speed,space,1.9883545389999424,,,,,,0.0,0.0,0.0,1.0,24.0,1.0,49.0,1.0,250.716249404,,,,,,,,,250.70528300800004,251.05209774900004,251.853942147,251.843504899,251.843822843,251.853942147,251.853942147,251.853942147,253.274779479,,,,,,,,,,,,,,,,,,,,,,,,,,,,,,right,1.0,1.4040281669999786,,,,,,sub-154,1,random_dot,,
left,left,50.0,0.0,25.0,left,1.0,1.921579974999986,,speed,space,1.9883545389999424,,,,,,0.0,0.0,0.0,1.0,25.0,0.0,50.0,0.0,253.284990732,,,,,,,,,253.275125755,253.383631057,254.19622722100007,254.1849514740001,254.1852466180001,254.19622722100007,254.19622722100007,254.19622722100007,256.124001551,,,,,,,,,,,,,,,,,,,,,,,,,,,,,,left,1.0,1.921579974999986,,,,,,sub-154,1,random_dot,,
right,right,51.0,1.0,25.0,right,1.0,1.933712370999956,,speed,space,1.9883545389999424,,,,,,0.0,0.0,0.0,1.0,25.0,1.0,51.0,1.0,256.13461577600003,,,,,,,,,256.124349595,256.242306986,257.046246774,257.03528682600006,257.035615884,257.046246774,257.046246774,257.046246774,258.989881342,,,,,,,,,,,,,,,,,,,,,,,,,,,,,,right,1.0,1.933712370999956,,,,,,sub-154,1,random_dot,,
left,left,52.0,0.0,26.0,left,1.0,1.6362169210000277,,speed,space,1.9883545389999424,,,,,,0.0,0.0,0.0,1.0,26.0,0.0,52.0,0.0,259.001878624,,,,,,,,,258.990280826,259.088606012,259.89503163200004,259.8838659720001,259.88418115600007,259.89503163200004,259.89503163200004,259.89503163200004,261.537803336,,,,,,,,,,,,,,,,,,,,,,,,,,,,,,left,1.0,1.6362169210000277,,,,,,sub-154,1,random_dot,,
right,right,53.0,1.0,26.0,left,0.0,1.2910964349999858,,speed,space,1.9883545389999424,,,,,,0.0,0.0,0.0,1.0,26.0,1.0,53.0,1.0,261.54855505800003,,,,,,,,,261.538159263,262.3443299510001,263.150867738,263.137999456,263.138280358,263.150867738,263.150867738,263.150867738,264.462480819,,,,,,,,,,,,,,,,,,,,,,,,,,,,,,left,0.0,1.2910964349999858,,,,,,sub-154,1,random_dot,,
right,right,54.0,0.0,27.0,right,1.0,2.404622383999936,,speed,space,1.9883545389999424,,,,,,0.0,0.0,0.0,1.0,27.0,0.0,54.0,1.0,264.473137694,,,,,,,,,264.462861105,265.26151344100003,266.061021589,266.0497093160001,266.049985075,266.061021589,266.061021589,266.061021589,268.472664504,,,,,,,,,,,,,,,,,,,,,,,,,,,,,,right,1.0,2.404622383999936,,,,,,sub-154,1,random_dot,,
left,left,55.0,1.0,27.0,left,1.0,1.9169646319999172,,speed,space,1.9883545389999424,,,,,,0.0,0.0,0.0,1.0,27.0,1.0,55.0,0.0,268.4826929210001,,,,,,,,,268.47299398300004,268.82845715300004,269.64105560200005,269.6294237100001,269.62973172,269.64105560200005,269.64105560200005,269.64105560200005,271.566045736,,,,,,,,,,,,,,,,,,,,,,,,,,,,,,left,1.0,1.9169646319999172,,,,,,sub-154,1,random_dot,,
right,right,56.0,0.0,28.0,left,0.0,2.2443527420000464,,speed,space,1.9883545389999424,,,,,,0.0,0.0,0.0,1.0,28.0,0.0,56.0,1.0,271.57716669700005,,,,,,,,,271.5665658930001,271.928322846,272.733444868,272.721551115,272.721858538,272.733444868,272.733444868,272.733444868,274.99520507,,,,,,,,,,,,,,,,,,,,,,,,,,,,,,left,0.0,2.2443527420000464,,,,,,sub-154,1,random_dot,,
left,left,57.0,1.0,28.0,left,1.0,1.0738516680000885,,speed,space,1.9883545389999424,,,,,,0.0,0.0,0.0,1.0,28.0,1.0,57.0,0.0,275.005174106,,,,,,,,,274.99557386000004,275.101917995,275.90614635200006,275.89489285800005,275.89519466800004,275.90614635200006,275.90614635200006,275.90614635200006,276.98503437600004,,,,,,,,,,,,,,,,,,,,,,,,,,,,,,left,1.0,1.0738516680000885,,,,,,sub-154,1,random_dot,,
left,left,58.0,0.0,29.0,left,1.0,2.161924193999994,,speed,space,1.9883545389999424,,,,,,0.0,0.0,0.0,1.0,29.0,0.0,58.0,0.0,276.995171875,,,,,,,,,276.985377976,277.33346182,278.143958087,278.13293287700003,278.13321421800003,278.143958087,278.143958087,278.143958087,280.326058516,,,,,,,,,,,,,,,,,,,,,,,,,,,,,,left,1.0,2.161924193999994,,,,,,sub-154,1,random_dot,,
right,right,59.0,1.0,29.0,left,0.0,1.6627134189999424,,speed,space,1.9883545389999424,,,,,,0.0,0.0,0.0,1.0,29.0,1.0,59.0,1.0,280.334682421,,,,,,,,,280.32640077300005,281.1337392930001,281.9391491690001,281.92799886600005,281.9283020280001,281.9391491690001,281.9391491690001,281.9391491690001,283.620793671,,,,,,,,,,,,,,,,,,,,,,,,,,,,,,left,0.0,1.6627134189999424,,,,,,sub-154,1,random_dot,,
,,0.0,0.0,0.0,,,,,speed,space,1.9883545389999424,,,,,,0.0,0.0,0.0,1.0,,,,,,,,,,,,,,,,,,,,,,,,,,,,,,,,,,,,,,,,,,,,,,,,,,,,,,,,,,,,sub-154,1,random_dot,,
left,left,0.0,0.0,0.0,left,1.0,2.7679518500000317,,accuracy,space,3.2654840739999145,,,,,,0.0,1.0,1.0,0.0,0.0,0.0,0.0,0.0,286.933560868,,,,,,,,,286.9220202050001,287.026284532,287.831606739,287.81975544400007,287.82006989900003,287.831606739,287.831606739,287.831606739,290.6132132160001,,,,,,,,,,,,,,,,,,,,,,,283.63764492100006,283.64538022,283.64538022,286.91403640500005,space,3.2654840739999145,,left,1.0,2.7679518500000317,,,,,,sub-154,1,random_dot,,
right,right,1.0,1.0,0.0,left,0.0,1.8380083020000484,,accuracy,space,3.2654840739999145,,,,,,0.0,1.0,1.0,0.0,0.0,1.0,1.0,1.0,290.624005343,,,,,,,,,290.61360553200007,290.72423813600005,291.53045677500006,291.518577228,291.518869657,291.53045677500006,291.53045677500006,291.53045677500006,293.376777155,,,,,,,,,,,,,,,,,,,,,,,,,,,,,,left,0.0,1.8380083020000484,,,,,,sub-154,1,random_dot,,
right,right,2.0,0.0,1.0,left,0.0,1.0652277189999495,,accuracy,space,3.2654840739999145,,,,,,0.0,1.0,1.0,0.0,1.0,0.0,2.0,1.0,293.38750736500003,,,,,,,,,293.377124363,293.733203612,294.53736439500005,294.524741352,294.525003587,294.53736439500005,294.53736439500005,294.53736439500005,295.61188535400004,,,,,,,,,,,,,,,,,,,,,,,,,,,,,,left,0.0,1.0652277189999495,,,,,,sub-154,1,random_dot,,
left,left,3.0,1.0,1.0,left,1.0,0.9051854479999976,,accuracy,space,3.2654840739999145,,,,,,0.0,1.0,1.0,0.0,1.0,1.0,3.0,0.0,295.62301799400007,,,,,,,,,295.612240346,296.4156466410001,297.226274451,297.21449628000005,297.214927086,297.226274451,297.226274451,297.226274451,298.14412897700004,,,,,,,,,,,,,,,,,,,,,,,,,,,,,,left,1.0,0.9051854479999976,,,,,,sub-154,1,random_dot,,
right,right,4.0,0.0,2.0,right,1.0,1.2105200590000322,,accuracy,space,3.2654840739999145,,,,,,0.0,1.0,1.0,0.0,2.0,0.0,4.0,1.0,298.15425159000006,,,,,,,,,298.144483414,298.241163453,299.052841113,299.04184170300005,299.042138871,299.052841113,299.052841113,299.052841113,300.270021111,,,,,,,,,,,,,,,,,,,,,,,,,,,,,,right,1.0,1.2105200590000322,,,,,,sub-154,1,random_dot,,
left,left,5.0,1.0,2.0,right,0.0,0.9982782370000224,,accuracy,space,3.2654840739999145,,,,,,0.0,1.0,1.0,0.0,2.0,1.0,5.0,0.0,300.280749698,,,,,,,,,300.27038542,301.47482246800007,302.2771804910001,302.264783233,302.26531250200003,302.2771804910001,302.2771804910001,302.2771804910001,303.29074158000003,,,,,,,,,,,,,,,,,,,,,,,,,,,,,,right,0.0,0.9982782370000224,,,,,,sub-154,1,random_dot,,
right,right,6.0,0.0,3.0,left,0.0,1.0408613360000345,,accuracy,space,3.2654840739999145,,,,,,0.0,1.0,1.0,0.0,3.0,0.0,6.0,1.0,303.30152465900005,,,,,,,,,303.29112015600003,303.39271689,304.204441579,304.192377489,304.192654899,304.204441579,304.204441579,304.204441579,305.25368685700005,,,,,,,,,,,,,,,,,,,,,,,,,,,,,,left,0.0,1.0408613360000345,,,,,,sub-154,1,random_dot,,
left,left,7.0,1.0,3.0,left,1.0,1.4451517229999808,,accuracy,space,3.2654840739999145,,,,,,0.0,1.0,1.0,0.0,3.0,1.0,7.0,0.0,305.265568874,,,,,,,,,305.254058706,306.065214846,306.8678401860001,306.857130913,306.85740934500006,306.8678401860001,306.8678401860001,306.8678401860001,308.322410814,,,,,,,,,,,,,,,,,,,,,,,,,,,,,,left,1.0,1.4451517229999808,,,,,,sub-154,1,random_dot,,
right,right,8.0,0.0,4.0,left,0.0,2.934465374000069,,accuracy,space,3.2654840739999145,,,,,,0.0,1.0,1.0,0.0,4.0,0.0,8.0,1.0,308.33315150500005,,,,,,,,,308.322752015,308.43566939100003,309.247397318,309.236583462,309.236868607,309.247397318,309.247397318,309.247397318,312.18797701000005,,,,,,,,,,,,,,,,,,,,,,,,,,,,,,left,0.0,2.934465374000069,,,,,,sub-154,1,random_dot,,
left,left,9.0,1.0,4.0,right,0.0,0.1875775949999933,,accuracy,space,3.2654840739999145,,,,,,0.0,1.0,1.0,0.0,4.0,1.0,9.0,0.0,312.198409267,,,,,,,,,312.18834812,312.55778967900005,313.370439669,313.357281727,313.357778876,313.370439669,313.370439669,313.370439669,313.568189843,,,,,,,,,,,,,,,,,,,,,,,,,,,,,,right,0.0,0.1875775949999933,,,,,,sub-154,1,random_dot,,
right,right,10.0,0.0,5.0,right,1.0,2.9355747359999214,,accuracy,space,3.2654840739999145,,,,,,0.0,1.0,1.0,0.0,5.0,0.0,10.0,1.0,313.578949741,,,,,,,,,313.56865805300004,314.774209939,315.57773059400006,315.56574352300004,315.566728741,315.57773059400006,315.57773059400006,315.57773059400006,318.5348386200001,,,,,,,,,,,,,,,,,,,,,,,,,,,,,,right,1.0,2.9355747359999214,,,,,,sub-154,1,random_dot,,
left,left,11.0,1.0,5.0,left,1.0,1.5983511819999876,,accuracy,space,3.2654840739999145,,,,,,0.0,1.0,1.0,0.0,5.0,1.0,11.0,0.0,318.543933608,,,,,,,,,318.53515812700005,318.88802767000004,319.698104863,319.6850700030001,319.685356459,319.698104863,319.698104863,319.698104863,321.30691723100006,,,,,,,,,,,,,,,,,,,,,,,,,,,,,,left,1.0,1.5983511819999876,,,,,,sub-154,1,random_dot,,
left,left,12.0,0.0,6.0,left,1.0,2.2814178759999777,,accuracy,space,3.2654840739999145,,,,,,0.0,1.0,1.0,0.0,6.0,0.0,12.0,0.0,321.317201993,,,,,,,,,321.30728681000005,321.668506301,322.471361472,322.459808779,322.46013195600005,322.471361472,322.471361472,322.471361472,324.766837021,,,,,,,,,,,,,,,,,,,,,,,,,,,,,,left,1.0,2.2814178759999777,,,,,,sub-154,1,random_dot,,
right,right,13.0,1.0,6.0,right,1.0,3.583703749999927,,accuracy,space,3.2654840739999145,,,,,,0.0,1.0,1.0,0.0,6.0,1.0,13.0,1.0,324.777545563,,,,,,,,,324.767201557,324.875618969,325.69058993600004,325.679923184,325.68022185200005,325.69058993600004,325.69058993600004,325.69058993600004,329.2858571930001,,,,,,,,,,,,,,,,,,,,,,,,,,,,,,right,1.0,3.583703749999927,,,,,,sub-154,1,random_dot,,
right,right,14.0,0.0,7.0,right,1.0,1.5485783540000284,,accuracy,space,3.2654840739999145,,,,,,0.0,1.0,1.0,0.0,7.0,0.0,14.0,1.0,329.2960344300001,,,,,,,,,329.28621221900005,329.635565025,330.434597318,330.4236127600001,330.423888034,330.434597318,330.434597318,330.434597318,331.999685011,,,,,,,,,,,,,,,,,,,,,,,,,,,,,,right,1.0,1.5485783540000284,,,,,,sub-154,1,random_dot,,
left,left,15.0,1.0,7.0,left,1.0,2.194581972000037,,accuracy,space,3.2654840739999145,,,,,,0.0,1.0,1.0,0.0,7.0,1.0,15.0,0.0,332.010570656,,,,,,,,,332.000023068,332.80143273400006,333.602624592,333.59170995700003,333.59199738200005,333.602624592,333.602624592,333.602624592,335.804484774,,,,,,,,,,,,,,,,,,,,,,,,,,,,,,left,1.0,2.194581972000037,,,,,,sub-154,1,random_dot,,
left,left,16.0,0.0,8.0,left,1.0,4.537507710999989,,accuracy,space,3.2654840739999145,,,,,,0.0,1.0,1.0,0.0,8.0,0.0,16.0,0.0,335.81701257,,,,,,,,,335.80482836600004,335.90908094400004,336.71102306700004,336.69965543700005,336.699921915,336.71102306700004,336.71102306700004,336.71102306700004,341.260509778,,,,,,,,,,,,,,,,,,,,,,,,,,,,,,left,1.0,4.537507710999989,,,,,,sub-154,1,random_dot,,
right,right,17.0,1.0,8.0,right,1.0,2.285175620000018,,accuracy,space,3.2654840739999145,,,,,,0.0,1.0,1.0,0.0,8.0,1.0,17.0,1.0,341.272258844,,,,,,,,,341.260891153,342.073903612,342.8860700050001,342.874825324,342.875105748,342.8860700050001,342.8860700050001,342.8860700050001,345.17969593,,,,,,,,,,,,,,,,,,,,,,,,,,,,,,right,1.0,2.285175620000018,,,,,,sub-154,1,random_dot,,
left,left,18.0,0.0,9.0,left,1.0,2.2480793709999034,,accuracy,space,3.2654840739999145,,,,,,0.0,1.0,1.0,0.0,9.0,0.0,18.0,0.0,345.190142361,,,,,,,,,345.180017828,346.37846408300004,347.1877443640001,347.17666256200005,347.17693399200004,347.1877443640001,347.1877443640001,347.1877443640001,349.452465951,,,,,,,,,,,,,,,,,,,,,,,,,,,,,,left,1.0,2.2480793709999034,,,,,,sub-154,1,random_dot,,
right,right,19.0,1.0,9.0,right,1.0,2.054203282999993,,accuracy,space,3.2654840739999145,,,,,,0.0,1.0,1.0,0.0,9.0,1.0,19.0,1.0,349.463979331,,,,,,,,,349.452827306,349.557300218,350.35965660400007,350.34883220300003,350.349118225,350.35965660400007,350.35965660400007,350.35965660400007,352.41819178000003,,,,,,,,,,,,,,,,,,,,,,,,,,,,,,right,1.0,2.054203282999993,,,,,,sub-154,1,random_dot,,
right,right,20.0,0.0,10.0,right,1.0,0.9941802370000232,,accuracy,space,3.2654840739999145,,,,,,0.0,1.0,1.0,0.0,10.0,0.0,20.0,1.0,352.4286083420001,,,,,,,,,352.418548202,353.62314131000005,354.4314633480001,354.42074316700007,354.42102623100004,354.4314633480001,354.4314633480001,354.4314633480001,355.436889941,,,,,,,,,,,,,,,,,,,,,,,,,,,,,,right,1.0,0.9941802370000232,,,,,,sub-154,1,random_dot,,
left,left,21.0,1.0,10.0,left,1.0,1.7775886929999842,,accuracy,space,3.2654840739999145,,,,,,0.0,1.0,1.0,0.0,10.0,1.0,21.0,0.0,355.447537334,,,,,,,,,355.43722910100007,355.53340759800005,356.34601081900007,356.33493975700003,356.33523435100005,356.34601081900007,356.34601081900007,356.34601081900007,358.133680388,,,,,,,,,,,,,,,,,,,,,,,,,,,,,,left,1.0,1.7775886929999842,,,,,,sub-154,1,random_dot,,
right,right,22.0,0.0,11.0,right,1.0,1.625015707999978,,accuracy,space,3.2654840739999145,,,,,,0.0,1.0,1.0,0.0,11.0,0.0,22.0,1.0,358.145155916,,,,,,,,,358.13403169900005,359.332483735,360.138824367,360.12767988100006,360.1279762390001,360.138824367,360.138824367,360.138824367,361.770068778,,,,,,,,,,,,,,,,,,,,,,,,,,,,,,right,1.0,1.625015707999978,,,,,,sub-154,1,random_dot,,
left,left,23.0,1.0,11.0,left,1.0,1.597727831000043,,accuracy,space,3.2654840739999145,,,,,,0.0,1.0,1.0,0.0,11.0,1.0,23.0,0.0,361.780542128,,,,,,,,,361.770421152,361.872875087,362.6802203250001,362.669354149,362.6696287330001,362.6802203250001,362.6802203250001,362.6802203250001,364.28471224,,,,,,,,,,,,,,,,,,,,,,,,,,,,,,left,1.0,1.597727831000043,,,,,,sub-154,1,random_dot,,
right,right,24.0,0.0,12.0,right,1.0,1.4617919159999246,,accuracy,space,3.2654840739999145,,,,,,0.0,1.0,1.0,0.0,12.0,0.0,24.0,1.0,364.295694702,,,,,,,,,364.285070818,365.083085323,365.89469649,365.88342499,365.883739356,365.89469649,365.89469649,365.89469649,367.37359411500006,,,,,,,,,,,,,,,,,,,,,,,,,,,,,,right,1.0,1.4617919159999246,,,,,,sub-154,1,random_dot,,
left,left,25.0,1.0,12.0,left,1.0,1.0834481559999176,,accuracy,space,3.2654840739999145,,,,,,0.0,1.0,1.0,0.0,12.0,1.0,25.0,0.0,367.38430667,,,,,,,,,367.373935971,368.171729633,368.9805741690001,368.96969789,368.969978848,368.9805741690001,368.9805741690001,368.9805741690001,370.0708466660001,,,,,,,,,,,,,,,,,,,,,,,,,,,,,,left,1.0,1.0834481559999176,,,,,,sub-154,1,random_dot,,
right,right,26.0,0.0,13.0,right,1.0,0.884733939000057,,accuracy,space,3.2654840739999145,,,,,,0.0,1.0,1.0,0.0,13.0,0.0,26.0,1.0,370.081916954,,,,,,,,,370.071217554,370.8788692760001,371.6897096720001,371.6782722820001,371.678648856,371.6897096720001,371.6897096720001,371.6897096720001,372.578572578,,,,,,,,,,,,,,,,,,,,,,,,,,,,,,right,1.0,0.884733939000057,,,,,,sub-154,1,random_dot,,
left,left,27.0,1.0,13.0,left,1.0,0.8013816259999658,,accuracy,space,3.2654840739999145,,,,,,0.0,1.0,1.0,0.0,13.0,1.0,27.0,0.0,372.58981463200007,,,,,,,,,372.57890921,372.9294282860001,373.7403721090001,373.72916062600007,373.7294495560001,373.7403721090001,373.7403721090001,373.7403721090001,374.547032297,,,,,,,,,,,,,,,,,,,,,,,,,,,,,,left,1.0,0.8013816259999658,,,,,,sub-154,1,random_dot,,
left,left,28.0,0.0,14.0,right,0.0,0.6491236099999469,,accuracy,space,3.2654840739999145,,,,,,0.0,1.0,1.0,0.0,14.0,0.0,28.0,0.0,374.558396519,,,,,,,,,374.547399436,374.895447245,375.7096585830001,375.696890158,375.697451818,375.7096585830001,375.7096585830001,375.7096585830001,376.373582508,,,,,,,,,,,,,,,,,,,,,,,,,,,,,,right,0.0,0.6491236099999469,,,,,,sub-154,1,random_dot,,
right,right,29.0,1.0,14.0,right,1.0,0.7508073259999719,,accuracy,space,3.2654840739999145,,,,,,0.0,1.0,1.0,0.0,14.0,1.0,29.0,1.0,376.384189243,,,,,,,,,376.373958043,376.473932485,377.285010669,377.27334990200006,377.2736434440001,377.285010669,377.285010669,377.285010669,378.038478551,,,,,,,,,,,,,,,,,,,,,,,,,,,,,,right,1.0,0.7508073259999719,,,,,,sub-154,1,random_dot,,
left,left,30.0,0.0,15.0,left,1.0,0.871336786000029,,accuracy,space,3.2654840739999145,,,,,,0.0,1.0,1.0,0.0,15.0,0.0,30.0,0.0,378.051044249,,,,,,,,,378.0388372910001,379.24880285000006,380.05579782100006,380.04270909600007,380.043010739,380.05579782100006,380.05579782100006,380.05579782100006,380.93886473300006,,,,,,,,,,,,,,,,,,,,,,,,,,,,,,left,1.0,0.871336786000029,,,,,,sub-154,1,random_dot,,
right,right,31.0,1.0,15.0,right,1.0,1.023537916000009,,accuracy,space,3.2654840739999145,,,,,,0.0,1.0,1.0,0.0,15.0,1.0,31.0,1.0,380.949489504,,,,,,,,,380.939225815,381.737374712,382.539967499,382.527376689,382.527669435,382.539967499,382.539967499,382.539967499,383.56997013600005,,,,,,,,,,,,,,,,,,,,,,,,,,,,,,right,1.0,1.023537916000009,,,,,,sub-154,1,random_dot,,
right,right,32.0,0.0,16.0,right,1.0,0.8216223509999736,,accuracy,space,3.2654840739999145,,,,,,0.0,1.0,1.0,0.0,16.0,0.0,32.0,1.0,383.580736396,,,,,,,,,383.57029849700007,383.678400464,384.4838131940001,384.472093536,384.472364876,384.4838131940001,384.4838131940001,384.4838131940001,385.3111653,,,,,,,,,,,,,,,,,,,,,,,,,,,,,,right,1.0,0.8216223509999736,,,,,,sub-154,1,random_dot,,
left,left,33.0,1.0,16.0,left,1.0,1.268022753000082,,accuracy,space,3.2654840739999145,,,,,,0.0,1.0,1.0,0.0,16.0,1.0,33.0,0.0,385.32195790800006,,,,,,,,,385.311567309,385.6631182880001,386.469792689,386.4594214780001,386.45971992,386.469792689,386.469792689,386.469792689,387.742922422,,,,,,,,,,,,,,,,,,,,,,,,,,,,,,left,1.0,1.268022753000082,,,,,,sub-154,1,random_dot,,
right,right,34.0,0.0,17.0,right,1.0,0.7195232100000339,,accuracy,space,3.2654840739999145,,,,,,0.0,1.0,1.0,0.0,17.0,0.0,34.0,1.0,387.7540972750001,,,,,,,,,387.743502506,387.843381692,388.650242604,388.6389410190001,388.639213144,388.650242604,388.650242604,388.650242604,389.37754899800007,,,,,,,,,,,,,,,,,,,,,,,,,,,,,,right,1.0,0.7195232100000339,,,,,,sub-154,1,random_dot,,
left,left,35.0,1.0,17.0,left,1.0,0.7905738550000478,,accuracy,space,3.2654840739999145,,,,,,0.0,1.0,1.0,0.0,17.0,1.0,35.0,0.0,389.389022912,,,,,,,,,389.377898879,389.491273697,390.291637916,390.28098242400006,390.281267671,390.291637916,390.291637916,390.291637916,391.085143965,,,,,,,,,,,,,,,,,,,,,,,,,,,,,,left,1.0,0.7905738550000478,,,,,,sub-154,1,random_dot,,
right,right,36.0,0.0,18.0,right,1.0,0.7315001179999854,,accuracy,space,3.2654840739999145,,,,,,0.0,1.0,1.0,0.0,18.0,0.0,36.0,1.0,391.096218258,,,,,,,,,391.08550531,391.18600274900007,392.008240513,391.98596508800006,391.98625293,392.008240513,392.008240513,392.008240513,392.744966094,,,,,,,,,,,,,,,,,,,,,,,,,,,,,,right,1.0,0.7315001179999854,,,,,,sub-154,1,random_dot,,
left,left,37.0,1.0,18.0,left,1.0,0.8306857410000248,,accuracy,space,3.2654840739999145,,,,,,0.0,1.0,1.0,0.0,18.0,1.0,37.0,0.0,392.755617773,,,,,,,,,392.745319428,393.54525309100006,394.345553384,394.333458115,394.333906196,394.345553384,394.345553384,394.345553384,395.189726497,,,,,,,,,,,,,,,,,,,,,,,,,,,,,,left,1.0,0.8306857410000248,,,,,,sub-154,1,random_dot,,
left,left,38.0,0.0,19.0,left,1.0,0.8621143750000329,,accuracy,space,3.2654840739999145,,,,,,0.0,1.0,1.0,0.0,19.0,0.0,38.0,0.0,395.201140879,,,,,,,,,395.190081794,395.99338709000006,396.803175331,396.791525836,396.791788764,396.803175331,396.803175331,396.803175331,397.671241721,,,,,,,,,,,,,,,,,,,,,,,,,,,,,,left,1.0,0.8621143750000329,,,,,,sub-154,1,random_dot,,
right,right,39.0,1.0,19.0,right,1.0,1.3273635620000732,,accuracy,space,3.2654840739999145,,,,,,0.0,1.0,1.0,0.0,19.0,1.0,39.0,1.0,397.682435206,,,,,,,,,397.6716410590001,398.8721845580001,399.682067414,399.670372662,399.671094443,399.682067414,399.682067414,399.682067414,401.012863232,,,,,,,,,,,,,,,,,,,,,,,,,,,,,,right,1.0,1.3273635620000732,,,,,,sub-154,1,random_dot,,
left,left,40.0,0.0,20.0,left,1.0,1.2537591679999878,,accuracy,space,3.2654840739999145,,,,,,0.0,1.0,1.0,0.0,20.0,0.0,40.0,0.0,401.027092624,,,,,,,,,401.013428448,401.812438501,402.616773752,402.6036538750001,402.6039462060001,402.616773752,402.616773752,402.616773752,403.889404881,,,,,,,,,,,,,,,,,,,,,,,,,,,,,,left,1.0,1.2537591679999878,,,,,,sub-154,1,random_dot,,
right,right,41.0,1.0,20.0,right,1.0,0.8039231220000147,,accuracy,space,3.2654840739999145,,,,,,0.0,1.0,1.0,0.0,20.0,1.0,41.0,1.0,403.902074892,,,,,,,,,403.889768131,405.092523732,405.894080055,405.882803909,405.88311737900005,405.894080055,405.894080055,405.894080055,406.719351974,,,,,,,,,,,,,,,,,,,,,,,,,,,,,,right,1.0,0.8039231220000147,,,,,,sub-154,1,random_dot,,
right,right,42.0,0.0,21.0,right,1.0,4.119987173000027,,accuracy,space,3.2654840739999145,,,,,,0.0,1.0,1.0,0.0,21.0,0.0,42.0,1.0,406.729717872,,,,,,,,,406.719718282,406.8202015940001,407.63129969500005,407.6205051760001,407.620827993,407.63129969500005,407.63129969500005,407.63129969500005,411.771274416,,,,,,,,,,,,,,,,,,,,,,,,,,,,,,right,1.0,4.119987173000027,,,,,,sub-154,1,random_dot,,
left,left,43.0,1.0,21.0,left,1.0,1.110710049999966,,accuracy,space,3.2654840739999145,,,,,,0.0,1.0,1.0,0.0,21.0,1.0,43.0,0.0,411.781870671,,,,,,,,,411.77165020000007,411.887095523,412.687400129,412.676952186,412.677256469,412.687400129,412.687400129,412.687400129,413.806711093,,,,,,,,,,,,,,,,,,,,,,,,,,,,,,left,1.0,1.110710049999966,,,,,,sub-154,1,random_dot,,
right,right,44.0,0.0,22.0,right,1.0,1.0388907110000218,,accuracy,space,3.2654840739999145,,,,,,0.0,1.0,1.0,0.0,22.0,0.0,44.0,1.0,413.81949476,,,,,,,,,413.80723195200005,415.017084265,415.823559413,415.81060349100005,415.8109206950001,415.823559413,415.823559413,415.823559413,416.86787435200006,,,,,,,,,,,,,,,,,,,,,,,,,,,,,,right,1.0,1.0388907110000218,,,,,,sub-154,1,random_dot,,
left,left,45.0,1.0,22.0,left,1.0,0.8622147019999602,,accuracy,space,3.2654840739999145,,,,,,0.0,1.0,1.0,0.0,22.0,1.0,45.0,0.0,416.878588842,,,,,,,,,416.8682305980001,418.07233390400006,418.878324112,418.86582520600007,418.866213058,418.878324112,418.878324112,418.878324112,419.7485417950001,,,,,,,,,,,,,,,,,,,,,,,,,,,,,,left,1.0,0.8622147019999602,,,,,,sub-154,1,random_dot,,
right,right,46.0,0.0,23.0,left,0.0,1.0419259870000133,,accuracy,space,3.2654840739999145,,,,,,0.0,1.0,1.0,0.0,23.0,0.0,46.0,1.0,419.75986495100005,,,,,,,,,419.7488880780001,419.850570245,420.662654343,420.6498738,420.65017916400006,420.662654343,420.662654343,420.662654343,421.721901228,,,,,,,,,,,,,,,,,,,,,,,,,,,,,,left,0.0,1.0419259870000133,,,,,,sub-154,1,random_dot,,
left,left,47.0,1.0,23.0,left,1.0,0.6876880869999695,,accuracy,space,3.2654840739999145,,,,,,0.0,1.0,1.0,0.0,23.0,1.0,47.0,0.0,421.732722833,,,,,,,,,421.7222592090001,422.072784952,422.87287364200006,422.8606002480001,422.860884212,422.87287364200006,422.87287364200006,422.87287364200006,423.574547771,,,,,,,,,,,,,,,,,,,,,,,,,,,,,,left,1.0,0.6876880869999695,,,,,,sub-154,1,random_dot,,
right,right,48.0,0.0,24.0,left,0.0,10.176530284000023,,accuracy,space,3.2654840739999145,,,,,,0.0,1.0,1.0,0.0,24.0,0.0,48.0,1.0,423.586470585,,,,,,,,,423.574921527,424.3875133300001,425.1932812490001,425.17951807,425.179826422,425.1932812490001,425.1932812490001,425.1932812490001,435.379430342,,,,,,,,,,,,,,,,,,,,,,,,,,,,,,left,0.0,10.176530284000023,,430.189730712,,,,sub-154,1,random_dot,,
left,left,49.0,1.0,24.0,left,1.0,1.327011844000026,,accuracy,space,3.2654840739999145,,,,,,0.0,1.0,1.0,0.0,24.0,1.0,49.0,0.0,435.390054745,,,,,,,,,435.3799097880001,436.182479959,436.993751559,436.982683411,436.982966893,436.993751559,436.993751559,436.993751559,438.335753266,,,,,,,,,,,,,,,,,,,,,,,,,,,,,,left,1.0,1.327011844000026,,,,,,sub-154,1,random_dot,,
right,right,50.0,0.0,25.0,right,1.0,2.1126908119999825,,accuracy,space,3.2654840739999145,,,,,,0.0,1.0,1.0,0.0,25.0,0.0,50.0,1.0,438.358191876,,,,,,,,,438.3360831680001,438.6945322170001,439.504889404,439.4940614970001,439.49432446700007,439.504889404,439.504889404,439.504889404,441.621413585,,,,,,,,,,,,,,,,,,,,,,,,,,,,,,right,1.0,2.1126908119999825,,,,,,sub-154,1,random_dot,,
left,left,51.0,1.0,25.0,left,1.0,0.942812553000067,,accuracy,space,3.2654840739999145,,,,,,0.0,1.0,1.0,0.0,25.0,1.0,51.0,0.0,441.631866198,,,,,,,,,441.621752281,442.8248638430001,443.624199167,443.613478677,443.613765442,443.624199167,443.624199167,443.624199167,444.580572295,,,,,,,,,,,,,,,,,,,,,,,,,,,,,,left,1.0,0.942812553000067,,,,,,sub-154,1,random_dot,,
left,left,52.0,0.0,26.0,left,1.0,1.790515312000025,,accuracy,space,3.2654840739999145,,,,,,0.0,1.0,1.0,0.0,26.0,0.0,52.0,0.0,444.59120809600006,,,,,,,,,444.5809049150001,444.67912288700006,445.481032236,445.4691008210001,445.469364446,445.481032236,445.481032236,445.481032236,447.280435329,,,,,,,,,,,,,,,,,,,,,,,,,,,,,,left,1.0,1.790515312000025,,,,,,sub-154,1,random_dot,,
right,right,53.0,1.0,26.0,right,1.0,1.021604337000099,,accuracy,space,3.2654840739999145,,,,,,0.0,1.0,1.0,0.0,26.0,1.0,53.0,1.0,447.291700398,,,,,,,,,447.280864035,447.38001969999993,448.18039997,448.1695847100001,448.169858401,448.18039997,448.18039997,448.18039997,449.2228351130001,,,,,,,,,,,,,,,,,,,,,,,,,,,,,,right,1.0,1.021604337000099,,,,,,sub-154,1,random_dot,,
right,right,54.0,0.0,27.0,left,0.0,4.705741689999968,,accuracy,space,3.2654840739999145,,,,,,0.0,1.0,1.0,0.0,27.0,0.0,54.0,1.0,449.232171903,,,,,,,,,449.2231776290001,449.574778431,450.3864079190001,450.374303442,450.374660307,450.3864079190001,450.3864079190001,450.3864079190001,455.105285002,,,,,,,,,,,,,,,,,,,,,,,,,,,,,,left,0.0,4.705741689999968,,,,,,sub-154,1,random_dot,,
left,left,55.0,1.0,27.0,left,1.0,1.8893137079999176,,accuracy,space,3.2654840739999145,,,,,,0.0,1.0,1.0,0.0,27.0,1.0,55.0,0.0,455.117898895,,,,,,,,,455.10581467300005,455.9123028620001,456.7233497200001,456.71158912499993,456.712068944,456.7233497200001,456.7233497200001,456.7233497200001,458.6288421210001,,,,,,,,,,,,,,,,,,,,,,,,,,,,,,left,1.0,1.8893137079999176,,,,,,sub-154,1,random_dot,,
right,right,56.0,0.0,28.0,right,1.0,0.8079450390000602,,accuracy,space,3.2654840739999145,,,,,,0.0,1.0,1.0,0.0,28.0,0.0,56.0,1.0,458.638981834,,,,,,,,,458.629174651,459.833007002,460.653698384,460.64125023200006,460.64153614200006,460.653698384,460.653698384,460.653698384,461.470866389,,,,,,,,,,,,,,,,,,,,,,,,,,,,,,right,1.0,0.8079450390000602,,,,,,sub-154,1,random_dot,,
left,left,57.0,1.0,28.0,left,1.0,0.7486603059999197,,accuracy,space,3.2654840739999145,,,,,,0.0,1.0,1.0,0.0,28.0,1.0,57.0,0.0,461.480987818,,,,,,,,,461.4712085120001,461.81972321900014,462.630820857,462.61997507500007,462.62027969100006,462.630820857,462.630820857,462.630820857,463.399135385,,,,,,,,,,,,,,,,,,,,,,,,,,,,,,left,1.0,0.7486603059999197,,,,,,sub-154,1,random_dot,,
left,left,58.0,0.0,29.0,left,1.0,1.2332670450000478,,accuracy,space,3.2654840739999145,,,,,,0.0,1.0,1.0,0.0,29.0,0.0,58.0,0.0,463.4081353350001,,,,,,,,,463.399467935,464.1960362620001,464.999296507,464.987482183,464.987787362,464.999296507,464.999296507,464.999296507,466.24185335,,,,,,,,,,,,,,,,,,,,,,,,,,,,,,left,1.0,1.2332670450000478,,,,,,sub-154,1,random_dot,,
right,right,59.0,1.0,29.0,right,1.0,3.674559173000034,,accuracy,space,3.2654840739999145,,,,,,0.0,1.0,1.0,0.0,29.0,1.0,59.0,1.0,466.252374669,,,,,,,,,466.242187258,467.05093808,467.8625553160001,467.85043344200005,467.850749865,467.8625553160001,467.8625553160001,467.8625553160001,471.5442503610001,,,,,,,,,,,,,,,,,,,,,,,,,,,,,,right,1.0,3.674559173000034,,,,,,sub-154,1,random_dot,,
,,1.0,1.0,0.0,,,,,accuracy,space,3.2654840739999145,,,,,,0.0,1.0,1.0,0.0,,,,,,,,,,,,,,,,,,,,,,,,,,,,,,,,,,,,,,,,,,,,,,,,,,,,,,,,,,,,sub-154,1,random_dot,,
,,,,,,,,,,,,,,,,,,,,,,,,,,,,,,,,,,,,,,,,,,,,,,,,,,,,,,,,,,,,,,,,,,,,,,,,,,,,,471.5490438620001,471.5620160530001,476.546806796,sub-154,1,random_dot,,
