direction,corrAns,thisN,thisTrialN,thisRepN,respDots.keys,respDots.corr,respDots.rt,respDots.duration,randomInstr,respRandomInstr.keys,respRandomInstr.rt,respRandomInstr.duration,practice_trials.thisRepN,practice_trials.thisTrialN,practice_trials.thisN,practice_trials.thisIndex,instr_trials.thisRepN,instr_trials.thisTrialN,instr_trials.thisN,instr_trials.thisIndex,test_trials.thisRepN,test_trials.thisTrialN,test_trials.thisN,test_trials.thisIndex,thisRow.t,notes,general_instruction.started,textGeneralInstr.started,respGeneralInstr.started,general_instruction.stopped,respGeneralInstr.keys,respGeneralInstr.rt,respGeneralInstr.duration,ITI.started,fixcross.started,fixcross.stopped,ITI.stopped,dots.started,backgroundDots.started,stimulusDots.started,respDots.started,stimulusDots.stopped,dots.stopped,practice_trials.respDots.keys,practice_trials.respDots.corr,practice_trials.respDots.rt,practice_trials.respDots.duration,feedback.started,textFeedback.started,feedback.stopped,textFeedback.stopped,info.started,textInfo.started,keyRespInfo.started,info.stopped,keyRespInfo.keys,keyRespInfo.rt,keyRespInfo.duration,test_instruction.started,textTestInstr.started,respTestInstr.started,test_instruction.stopped,respTestInstr.keys,respTestInstr.rt,respTestInstr.duration,random_instruction.started,textRandomInstr.started,respRandomInstr.started,random_instruction.stopped,instr_trials.respRandomInstr.keys,instr_trials.respRandomInstr.rt,instr_trials.respRandomInstr.duration,test_trials.respDots.keys,test_trials.respDots.corr,test_trials.respDots.rt,test_trials.respDots.duration,goodbye.started,textGoodbye.started,goodbye.stopped,participant,session,expName,frameRate,Unnamed: 87
,,,,,,,,,,,,,,,,,,,,,,,,,,,0.011438230000067,0.0319328790001236,0.0319328790001236,17.392624909999995,space,17.126592330999983,,,,,,,,,,,,,,,,,,,,,,,,,,,,,,,,,,,,,,,,,,,,,,,,sub-147,1,random_dot,74.78676423852926,
right,right,0.0,0.0,0.0,left,0.0,5.148253509999904,,,,,,0.0,0.0,0.0,1.0,,,,,,,,,17.573530979999987,,,,,,,,,17.55802615000016,17.573530979999987,18.39937705400007,18.373523678000083,18.37417495600016,18.39937705400007,18.39937705400007,18.39937705400007,23.373297203999982,23.551948797000023,left,0.0,5.148253509999904,,23.559363664000102,23.585029830000167,24.053011461000096,,,,,,,,,,,,,,,,,,,,,,,,,,,,,,sub-147,1,random_dot,74.78676423852926,
left,left,1.0,1.0,0.0,right,0.0,5.137048039000092,,,,,,0.0,1.0,1.0,0.0,,,,,,,,,24.062035594000008,,,,,,,,,24.05359511300003,25.252825984000083,26.07306183600008,26.05524584500017,26.05572461600013,26.07306183600008,26.07306183600008,26.07306183600008,31.07161026000017,31.213358986000003,right,0.0,5.137048039000092,,31.213462058000005,31.223349259000088,31.72328847100016,,,,,,,,,,,,,,,,,,,,,,,,,,,,,,sub-147,1,random_dot,74.78676423852926,
left,left,2.0,0.0,1.0,right,0.0,4.30350124000006,,,,,,1.0,0.0,2.0,0.0,,,,,,,,,31.73166615200012,,,,,,,,,31.72371813800009,32.91144773600013,33.72308722499997,33.70517903000018,33.70565566900018,33.72308722499997,33.72308722499997,33.72308722499997,,38.03166415300007,right,0.0,4.30350124000006,,38.03182577100006,38.04533514800005,38.53984496500016,,,,,,,,,,,,,,,,,,,,,,,,,,,,,,sub-147,1,random_dot,74.78676423852926,
right,right,3.0,1.0,1.0,left,0.0,10.570021333000112,,,,,,1.0,1.0,3.0,1.0,,,,,,,,,38.54827134800007,,,,,,,,,38.54027921400007,38.62918374300011,39.43962310300003,39.42174250400012,39.42221434300018,39.43962310300003,39.43962310300003,39.43962310300003,44.4153301880001,50.0168390660001,left,0.0,10.570021333000112,,50.01697549100004,50.02765853100004,50.51566424600014,50.52791304700008,,,,,,,,,,,,,,,,,,,,,,,,,,,,,sub-147,1,random_dot,74.78676423852926,
left,left,4.0,0.0,2.0,right,0.0,2.8663867980001214,,,,,,2.0,0.0,4.0,0.0,,,,,,,,,50.52791304700008,,,,,,,,,50.51655378100008,51.71790089900014,52.53946128999996,52.52157745099999,52.52205239800014,52.53946128999996,52.53946128999996,52.53946128999996,,55.410546781,right,0.0,2.8663867980001214,,55.41074768400017,55.42035997100015,55.90647099700004,55.91485306300001,,,,,,,,,,,,,,,,,,,,,,,,,,,,,sub-147,1,random_dot,74.78676423852926,
right,right,5.0,1.0,2.0,right,1.0,5.271118734000083,,,,,,2.0,1.0,5.0,1.0,,,,,,,,,55.91485306300001,,,,,,,,,55.906871147000174,57.108687919999966,57.91308466500004,57.89923846700003,57.900338724,57.91308466500004,57.91308466500004,57.91308466500004,62.89733512800012,63.19068536000009,right,1.0,5.271118734000083,,63.195120663000125,63.20440164299998,63.68972135000013,63.69813309200004,,,,,,,,,,,,,,,,,,,,,,,,,,,,,sub-147,1,random_dot,74.78676423852926,
right,right,6.0,0.0,3.0,left,0.0,4.624217703999875,,,,,,3.0,0.0,6.0,1.0,,,,,,,,,63.69813309200004,,,,,,,,,63.69012416800001,64.03934718100004,64.8559617410001,64.83804401500015,64.83852089400011,64.8559617410001,64.8559617410001,64.8559617410001,,69.48424536900006,left,0.0,4.624217703999875,,69.48804747400004,69.49702799900001,69.98205228400002,69.99434469300013,,,,,,,,,,,,,,,,,,,,,,,,,,,,,sub-147,1,random_dot,74.78676423852926,
left,left,7.0,1.0,3.0,left,1.0,5.6702583759999925,,,,,,3.0,1.0,7.0,0.0,,,,,,,,,69.99434469300013,,,,,,,,,69.9829873430001,70.33438413700014,71.15583639800002,71.13796735400001,71.13844858700008,71.15583639800002,71.15583639800002,71.15583639800002,76.13912012700007,76.84008388899997,left,1.0,5.6702583759999925,,76.84273110499998,76.85239685300007,77.35435288999997,,,,,,,,,,,,,,,,,,,,,,,,,,,,,,sub-147,1,random_dot,74.78676423852926,
right,right,8.0,0.0,4.0,left,0.0,2.5942251300000407,,,,,,4.0,0.0,8.0,1.0,,,,,,,,,77.37244621200011,,,,,,,,,77.3547939560001,77.68880416800016,78.48293816700016,78.47264592600004,78.47311885800013,78.48293816700016,78.48293816700016,78.48293816700016,,81.08976093000001,left,0.0,2.5942251300000407,,81.09217753300004,81.10125880400005,81.60434813500001,,,,,,,,,,,,,,,,,,,,,,,,,,,,,,sub-147,1,random_dot,74.78676423852926,
left,left,9.0,1.0,4.0,right,0.0,6.787962324999853,,,,,,4.0,1.0,9.0,0.0,,,,,,,,,81.62246984900003,,,,,,,,,81.60479455500013,82.78093607400001,83.57868905700002,83.56516740100005,83.56623685600016,83.57868905700002,83.57868905700002,83.57868905700002,88.56268783100018,90.37386830800006,right,0.0,6.787962324999853,,90.37400945500008,90.384038552,90.87461751600016,90.88506066500008,,,,,,,,,,,,,,,,,,,,,,,,,,,,,sub-147,1,random_dot,74.78676423852926,
left,left,10.0,0.0,5.0,left,1.0,2.8036441310000555,,,,,,5.0,0.0,10.0,0.0,,,,,,,,,90.88506066500008,,,,,,,,,90.87581969300004,91.67426086,92.48301783000012,92.47252213700015,92.47299167000006,92.48301783000012,92.48301783000012,92.48301783000012,,95.29011450899998,left,1.0,2.8036441310000555,,95.29277781400016,95.30187658800014,95.7891775390001,95.79753462899998,,,,,,,,,,,,,,,,,,,,,,,,,,,,,sub-147,1,random_dot,74.78676423852926,
right,right,11.0,1.0,5.0,right,1.0,1.962665240999968,,,,,,5.0,1.0,11.0,1.0,,,,,,,,,95.79753462899998,,,,,,,,,95.78958010500014,95.903947517,96.70543999899996,96.68763926099996,96.68811750000008,96.70543999899996,96.70543999899996,96.70543999899996,,98.67348806200016,right,1.0,1.962665240999968,,98.67357832700009,98.682376534,99.18740475900016,,,,,,,,,,,,,,,,,,,,,,,,,,,,,,sub-147,1,random_dot,74.78676423852926,
left,left,12.0,0.0,6.0,left,1.0,3.942674057999966,,,,,,6.0,0.0,12.0,0.0,,,,,,,,,99.20545623199996,,,,,,,,,99.18784623200008,99.97219871000016,100.76633048899998,100.75584132900008,100.75630807100016,100.76633048899998,100.76633048899998,100.76633048899998,,104.72279713400007,left,1.0,3.942674057999966,,104.72302991800008,104.73325037500013,105.22242746000006,105.23514876500008,,,,,,,,,,,,,,,,,,,,,,,,,,,,,sub-147,1,random_dot,74.78676423852926,
right,right,13.0,1.0,6.0,right,1.0,2.2291642420000244,,,,,,6.0,1.0,13.0,1.0,,,,,,,,,105.23514876500008,,,,,,,,,105.22378717900006,105.33069163799996,106.128632723,106.11475729100016,106.11576922300014,106.128632723,106.128632723,106.128632723,,108.35911574600004,right,1.0,2.2291642420000244,,108.35922620700012,108.37178600000016,108.87060647600016,,,,,,,,,,,,,,,,,,,,,,,,,,,,,,sub-147,1,random_dot,74.78676423852926,
left,left,14.0,0.0,7.0,left,1.0,4.439967862999993,,,,,,7.0,0.0,14.0,0.0,,,,,,,,,108.88873150600013,,,,,,,,,108.87117584300016,108.95534466699996,109.7501592000001,109.739000346,109.73946779700007,109.7501592000001,109.7501592000001,109.7501592000001,,114.19541615000004,left,1.0,4.439967862999993,,114.19550989699997,114.2073125710001,114.69842894500016,,,,,,,,,,,,,,,,,,,,,,,,,,,,,,sub-147,1,random_dot,74.78676423852926,
right,right,15.0,1.0,7.0,right,1.0,2.2335937160000867,,,,,,7.0,1.0,15.0,1.0,,,,,,,,,114.71097167700007,,,,,,,,,114.69969029900015,115.90381852400014,116.69906469500006,116.68896556699995,116.68943448599998,116.69906469500006,116.69906469500006,116.69906469500006,,118.94732367200004,right,1.0,2.2335937160000867,,118.9474372950001,118.95685461000016,119.45544854100012,,,,,,,,,,,,,,,,,,,,,,,,,,,,,,sub-147,1,random_dot,74.78676423852926,
right,right,16.0,0.0,8.0,right,1.0,2.7528027569999267,,,,,,8.0,0.0,16.0,1.0,,,,,,,,,119.46387766900013,,,,,,,,,119.455878815,120.64713520400004,121.45523728500008,121.43724843200016,121.43772106000006,121.45523728500008,121.45523728500008,121.45523728500008,,124.21817357999998,right,1.0,2.7528027569999267,,124.218284326,124.22817479200012,124.71487222600013,124.72730171400008,,,,,,,,,,,,,,,,,,,,,,,,,,,,,sub-147,1,random_dot,74.78676423852926,
left,left,17.0,1.0,8.0,left,1.0,0.952266441999882,,,,,,8.0,1.0,17.0,0.0,,,,,,,,,124.72730171400008,,,,,,,,,124.71568929199998,125.91381790900004,126.711749177,126.69805173300006,126.69909649100008,126.711749177,126.711749177,126.711749177,,127.66806815400014,left,1.0,0.952266441999882,,127.66827503400008,127.67762453900012,128.16446995399997,128.17674256100008,,,,,,,,,,,,,,,,,,,,,,,,,,,,,sub-147,1,random_dot,74.78676423852926,
left,left,18.0,0.0,9.0,left,1.0,1.0779907430001003,,,,,,9.0,0.0,18.0,0.0,,,,,,,,,128.17674256100008,,,,,,,,,128.16540740799996,128.97227509900017,129.76596236800015,129.75543339,129.75589626500005,129.76596236800015,129.76596236800015,129.76596236800015,,130.84578573400017,left,1.0,1.0779907430001003,,130.845984887,130.85696145099996,131.347393603,,,,,,,,,,,,,,,,,,,,,,,,,,,,,,sub-147,1,random_dot,74.78676423852926,
right,right,19.0,1.0,9.0,right,1.0,0.9990636339998672,,,,,,9.0,1.0,19.0,1.0,,,,,,,,,131.37019806400008,,,,,,,,,131.34865471400008,132.55348030900018,133.35503467400008,133.3371232730001,133.337591535,133.35503467400008,133.35503467400008,133.35503467400008,,134.35888166500013,right,1.0,0.9990636339998672,,134.35908723400007,134.36874010600013,134.85531273000015,134.86636856200016,,,,,,,,,,,,,,,,,,,,,,,,,,,,,sub-147,1,random_dot,74.78676423852926,
,,,,,,,,,,,,,,,,,,,,,,,,,,,,,,,,,,,,,,,,,,,,,,,,,,,,134.85547547700003,134.86636856200016,134.86636856200016,163.93828598000005,space,29.061480400000164,,,,,,,,,,,,,,,,,,,,,,,sub-147,1,random_dot,74.78676423852926,
,,,,,,,,,,,,,,,,,,,,,,,,,,,,,,,,,,,,,,,,,,,,,,,,,,,,,,,,,,,163.93834713299998,163.94907420000004,163.94907420000004,172.30584672300006,space,8.349530469000001,,,,,,,,,,,,,,,,sub-147,1,random_dot,74.78676423852926,
left,left,0.0,0.0,0.0,left,1.0,2.7110303490001115,,accuracy,space,3.1263175599999613,,,,,,0.0,0.0,0.0,0.0,0.0,0.0,0.0,0.0,175.50410300700014,,,,,,,,,175.49459288599996,175.58911582100018,176.40441264100014,176.38669798800015,176.38718440900016,176.40441264100014,176.40441264100014,176.40441264100014,,179.122200991,,,,,,,,,,,,,,,,,,,,,,,172.32755857200004,172.3382254820001,172.3382254820001,175.48755639800015,space,3.1263175599999613,,left,1.0,2.7110303490001115,,,,,sub-147,1,random_dot,74.78676423852926,
right,right,1.0,1.0,0.0,left,0.0,5.366613231999963,,accuracy,space,3.1263175599999613,,,,,,0.0,0.0,0.0,0.0,0.0,1.0,1.0,1.0,179.13146787000005,,,,,,,,,179.12251176900008,179.46621633600012,180.28774043500016,180.26980717700008,180.2702798970001,180.28774043500016,180.28774043500016,180.28774043500016,185.27108137100004,185.6572371490001,,,,,,,,,,,,,,,,,,,,,,,,,,,,,,left,0.0,5.366613231999963,,,,,sub-147,1,random_dot,74.78676423852926,
right,right,2.0,0.0,1.0,right,1.0,2.095208733000163,,accuracy,space,3.1263175599999613,,,,,,0.0,0.0,0.0,0.0,1.0,0.0,2.0,1.0,185.67100967600004,,,,,,,,,185.657615286,186.85580580300007,187.66525755500012,187.65474456800007,187.65520969400015,187.66525755500012,187.66525755500012,187.66525755500012,,189.76739531800013,,,,,,,,,,,,,,,,,,,,,,,,,,,,,,right,1.0,2.095208733000163,,,,,sub-147,1,random_dot,74.78676423852926,
left,left,3.0,1.0,1.0,right,0.0,1.4680627160000768,,accuracy,space,3.1263175599999613,,,,,,0.0,0.0,0.0,0.0,1.0,1.0,3.0,0.0,189.77826926300008,,,,,,,,,189.768127048,190.111890678,190.91911716100003,190.89609900200003,190.89724362100011,190.91911716100003,190.91911716100003,190.91911716100003,,192.388657919,,,,,,,,,,,,,,,,,,,,,,,,,,,,,,right,0.0,1.4680627160000768,,,,,sub-147,1,random_dot,74.78676423852926,
left,left,4.0,0.0,2.0,left,1.0,1.868831999999884,,accuracy,space,3.1263175599999613,,,,,,0.0,0.0,0.0,0.0,2.0,0.0,4.0,0.0,192.396732962,,,,,,,,,192.38899123200008,193.18762548200016,193.98172693700008,193.97123272600012,193.97169516300005,193.98172693700008,193.98172693700008,193.98172693700008,,195.8636901520001,,,,,,,,,,,,,,,,,,,,,,,,,,,,,,left,1.0,1.868831999999884,,,,,sub-147,1,random_dot,74.78676423852926,
right,right,5.0,1.0,2.0,left,0.0,3.635942768000177,,accuracy,space,3.1263175599999613,,,,,,0.0,0.0,0.0,0.0,2.0,1.0,5.0,1.0,195.8859547280001,,,,,,,,,195.86402081000008,195.9709794370001,196.76552838400016,196.754364144,196.754826288,196.76552838400016,196.76552838400016,196.76552838400016,,200.4082077590001,,,,,,,,,,,,,,,,,,,,,,,,,,,,,,left,0.0,3.635942768000177,,,,,sub-147,1,random_dot,74.78676423852926,
right,right,6.0,0.0,3.0,right,1.0,0.8900350750000143,,accuracy,space,3.1263175599999613,,,,,,0.0,0.0,0.0,0.0,3.0,0.0,6.0,1.0,200.42063096200013,,,,,,,,,200.40851401100008,201.61923544800013,202.43750742300017,202.41956355900012,202.4200348050001,202.43750742300017,202.43750742300017,202.43750742300017,,203.33723836500008,,,,,,,,,,,,,,,,,,,,,,,,,,,,,,right,1.0,0.8900350750000143,,,,,sub-147,1,random_dot,74.78676423852926,
left,left,7.0,1.0,3.0,left,1.0,0.9055065479999485,,accuracy,space,3.1263175599999613,,,,,,0.0,0.0,0.0,0.0,3.0,1.0,7.0,0.0,203.34645031600007,,,,,,,,,203.33766376100016,203.68948368600013,204.504058364,204.48634853,204.486820975,204.504058364,204.504058364,204.504058364,,205.4111753500001,,,,,,,,,,,,,,,,,,,,,,,,,,,,,,left,1.0,0.9055065479999485,,,,,sub-147,1,random_dot,74.78676423852926,
left,left,8.0,0.0,4.0,left,1.0,3.929390395000155,,accuracy,space,3.1263175599999613,,,,,,0.0,0.0,0.0,0.0,4.0,0.0,8.0,0.0,205.422401197,,,,,,,,,205.41153576300007,206.6093342690001,207.4102750760001,207.3967050430001,207.397778478,207.4102750760001,207.4102750760001,207.4102750760001,,211.34974059800012,,,,,,,,,,,,,,,,,,,,,,,,,,,,,,left,1.0,3.929390395000155,,,,,sub-147,1,random_dot,74.78676423852926,
right,right,9.0,1.0,4.0,right,1.0,1.9267861759999505,,accuracy,space,3.1263175599999613,,,,,,0.0,0.0,0.0,0.0,4.0,1.0,9.0,1.0,211.35963788900017,,,,,,,,,211.350472803,212.154060202,212.94808286400007,212.93757388200012,212.9380432600001,212.94808286400007,212.94808286400007,212.94808286400007,,214.87894425500008,,,,,,,,,,,,,,,,,,,,,,,,,,,,,,right,1.0,1.9267861759999505,,,,,sub-147,1,random_dot,74.78676423852926,
left,left,10.0,0.0,5.0,left,1.0,2.304212801999938,,accuracy,space,3.1263175599999613,,,,,,0.0,0.0,0.0,0.0,5.0,0.0,10.0,0.0,214.89017967500013,,,,,,,,,214.879320368,215.2357225610001,216.03725342200005,216.01943884900012,216.019918989,216.03725342200005,216.03725342200005,216.03725342200005,,218.354732196,,,,,,,,,,,,,,,,,,,,,,,,,,,,,,left,1.0,2.304212801999938,,,,,sub-147,1,random_dot,74.78676423852926,
right,right,11.0,1.0,5.0,left,0.0,5.399541179999915,,accuracy,space,3.1263175599999613,,,,,,0.0,0.0,0.0,0.0,5.0,1.0,11.0,1.0,218.36407762800013,,,,,,,,,218.3551901190001,219.55396522700016,220.36468912100008,220.35421408,220.35467649400016,220.36468912100008,220.36468912100008,220.36468912100008,225.35942435000013,225.77394678100015,,,,,,,,,,,,,,,,,,,,,,,,,,,,,,left,0.0,5.399541179999915,,,,,sub-147,1,random_dot,74.78676423852926,
left,left,12.0,0.0,6.0,left,1.0,5.275071951999962,,accuracy,space,3.1263175599999613,,,,,,0.0,0.0,0.0,0.0,6.0,0.0,12.0,0.0,225.7868660650001,,,,,,,,,225.77442475300015,225.87562069700016,226.67675177,226.663147665,226.66420369700015,226.67675177,226.67675177,226.67675177,231.659362677,231.9612705470001,,,,,,,,,,,,,,,,,,,,,,,,,,,,,,left,1.0,5.275071951999962,,,,,sub-147,1,random_dot,74.78676423852926,
right,right,13.0,1.0,6.0,right,1.0,1.457216272999858,,accuracy,space,3.1263175599999613,,,,,,0.0,0.0,0.0,0.0,6.0,1.0,13.0,1.0,231.971426692,,,,,,,,,231.96173222700008,232.762509403,233.5644917,233.55402975000013,233.55449556100007,233.5644917,233.5644917,233.5644917,,235.029143668,,,,,,,,,,,,,,,,,,,,,,,,,,,,,,right,1.0,1.457216272999858,,,,,sub-147,1,random_dot,74.78676423852926,
left,left,14.0,0.0,7.0,right,0.0,6.30332000899989,,accuracy,space,3.1263175599999613,,,,,,0.0,0.0,0.0,0.0,7.0,0.0,14.0,0.0,235.03861354900005,,,,,,,,,235.029459458,235.8354622930001,236.65371673100003,236.635799119,236.63628855,236.65371673100003,236.65371673100003,236.65371673100003,241.63981511700013,242.960742969,,,,,,,,,,,,,,,,,,,,,,,,,,,,,,right,0.0,6.30332000899989,,,,,sub-147,1,random_dot,74.78676423852926,
right,right,15.0,1.0,7.0,right,1.0,1.097540398999854,,accuracy,space,3.1263175599999613,,,,,,0.0,0.0,0.0,0.0,7.0,1.0,15.0,1.0,242.971105201,,,,,,,,,242.96113578900008,244.16867054700012,244.9642923250001,244.953825176,244.954297516,244.9642923250001,244.9642923250001,244.9642923250001,,246.06456473800017,,,,,,,,,,,,,,,,,,,,,,,,,,,,,,right,1.0,1.097540398999854,,,,,sub-147,1,random_dot,74.78676423852926,
right,right,16.0,0.0,8.0,left,0.0,0.8715398360000108,,accuracy,space,3.1263175599999613,,,,,,0.0,0.0,0.0,0.0,8.0,0.0,16.0,1.0,246.0753747450001,,,,,,,,,246.065009506,246.41216755900015,247.21430346300008,247.20382979300007,247.20429377000005,247.21430346300008,247.21430346300008,247.21430346300008,,248.090766563,,,,,,,,,,,,,,,,,,,,,,,,,,,,,,left,0.0,0.8715398360000108,,,,,sub-147,1,random_dot,74.78676423852926,
left,left,17.0,1.0,8.0,right,0.0,0.78304588900005,,accuracy,space,3.1263175599999613,,,,,,0.0,0.0,0.0,0.0,8.0,1.0,17.0,0.0,248.103361622,,,,,,,,,248.0910742820001,248.44263416400008,249.242945236,249.22957011900007,249.230585239,249.242945236,249.242945236,249.242945236,,250.03306365700016,,,,,,,,,,,,,,,,,,,,,,,,,,,,,,right,0.0,0.78304588900005,,,,,sub-147,1,random_dot,74.78676423852926,
right,right,18.0,0.0,9.0,right,1.0,1.1803208450000966,,accuracy,space,3.1263175599999613,,,,,,0.0,0.0,0.0,0.0,9.0,0.0,18.0,1.0,250.043056367,,,,,,,,,250.0336886990001,250.13677954600007,250.953488657,250.93546961000013,250.935950691,250.953488657,250.953488657,250.953488657,,252.1446037000001,,,,,,,,,,,,,,,,,,,,,,,,,,,,,,right,1.0,1.1803208450000966,,,,,sub-147,1,random_dot,74.78676423852926,
left,left,19.0,1.0,9.0,left,1.0,0.9297826459999214,,accuracy,space,3.1263175599999613,,,,,,0.0,0.0,0.0,0.0,9.0,1.0,19.0,0.0,252.15618200100016,,,,,,,,,252.144909674,252.94266432200016,253.74294799300012,253.72957244000008,253.73059019000016,253.74294799300012,253.74294799300012,253.74294799300012,,254.68797808400015,,,,,,,,,,,,,,,,,,,,,,,,,,,,,,left,1.0,0.9297826459999214,,,,,sub-147,1,random_dot,74.78676423852926,
right,right,20.0,0.0,10.0,right,1.0,0.9112115450000148,,accuracy,space,3.1263175599999613,,,,,,0.0,0.0,0.0,0.0,10.0,0.0,20.0,1.0,254.697282634,,,,,,,,,254.68845513400012,254.8018494840001,255.60342326700012,255.585482878,255.58595706200003,255.60342326700012,255.60342326700012,255.60342326700012,,256.528564684,,,,,,,,,,,,,,,,,,,,,,,,,,,,,,right,1.0,0.9112115450000148,,,,,sub-147,1,random_dot,74.78676423852926,
left,left,21.0,1.0,10.0,left,1.0,0.9304790460000733,,accuracy,space,3.1263175599999613,,,,,,0.0,0.0,0.0,0.0,10.0,1.0,21.0,0.0,256.55182238600014,,,,,,,,,256.52943789200003,256.885114145,257.70332992500016,257.68536444100005,257.68583589700006,257.70332992500016,257.70332992500016,257.70332992500016,,258.6409675130001,,,,,,,,,,,,,,,,,,,,,,,,,,,,,,left,1.0,0.9304790460000733,,,,,sub-147,1,random_dot,74.78676423852926,
left,left,22.0,0.0,11.0,left,1.0,4.138691004000066,,accuracy,space,3.1263175599999613,,,,,,0.0,0.0,0.0,0.0,11.0,0.0,22.0,0.0,258.65058699300016,,,,,,,,,258.6414648760001,259.438585097,260.242858629,260.2294228190001,260.2304998710001,260.242858629,260.242858629,260.242858629,,264.386645735,,,,,,,,,,,,,,,,,,,,,,,,,,,,,,left,1.0,4.138691004000066,,,,,sub-147,1,random_dot,74.78676423852926,
right,right,23.0,1.0,11.0,right,1.0,3.380688939000038,,accuracy,space,3.1263175599999613,,,,,,0.0,0.0,0.0,0.0,11.0,1.0,23.0,1.0,264.395289222,,,,,,,,,264.3871863070001,264.4822450020001,265.3032681510001,265.28539534200013,265.2858674490001,265.3032681510001,265.3032681510001,265.3032681510001,,268.68775504200016,,,,,,,,,,,,,,,,,,,,,,,,,,,,,,right,1.0,3.380688939000038,,,,,sub-147,1,random_dot,74.78676423852926,
right,right,24.0,0.0,12.0,right,1.0,5.317456229000072,,accuracy,space,3.1263175599999613,,,,,,0.0,0.0,0.0,0.0,12.0,0.0,24.0,1.0,268.69675033400017,,,,,,,,,268.6881333650001,269.03840216000003,269.8473336490001,269.83687051800007,269.83732847600004,269.8473336490001,269.8473336490001,269.8473336490001,274.8516048600002,275.1713643120001,,,,,,,,,,,,,,,,,,,,,,,,,,,,,,right,1.0,5.317456229000072,,,,,sub-147,1,random_dot,74.78676423852926,
left,left,25.0,1.0,12.0,left,1.0,1.867123844999924,,accuracy,space,3.1263175599999613,,,,,,0.0,0.0,0.0,0.0,12.0,1.0,25.0,0.0,275.182007998,,,,,,,,,275.1718173900001,276.38479305600003,277.2031211840001,277.185212786,277.185684476,277.2031211840001,277.2031211840001,277.2031211840001,,279.0748401760002,,,,,,,,,,,,,,,,,,,,,,,,,,,,,,left,1.0,1.867123844999924,,,,,sub-147,1,random_dot,74.78676423852926,
left,left,26.0,0.0,13.0,left,1.0,1.7850337840000066,,accuracy,space,3.1263175599999613,,,,,,0.0,0.0,0.0,0.0,13.0,0.0,26.0,0.0,279.08554763300003,,,,,,,,,279.0751549260001,279.1711031310001,279.975982983,279.9623429200001,279.96338068900013,279.975982983,279.975982983,279.975982983,,281.76505974300017,,,,,,,,,,,,,,,,,,,,,,,,,,,,,,left,1.0,1.7850337840000066,,,,,sub-147,1,random_dot,74.78676423852926,
right,right,27.0,1.0,13.0,right,1.0,0.6813542419999976,,accuracy,space,3.1263175599999613,,,,,,0.0,0.0,0.0,0.0,13.0,1.0,27.0,1.0,281.7753834050002,,,,,,,,,281.765507698,282.1153022560002,282.919658371,282.90176826900006,282.9022385600001,282.919658371,282.919658371,282.919658371,,283.60717047900016,,,,,,,,,,,,,,,,,,,,,,,,,,,,,,right,1.0,0.6813542419999976,,,,,sub-147,1,random_dot,74.78676423852926,
left,left,28.0,0.0,14.0,left,1.0,2.035639132000142,,accuracy,space,3.1263175599999613,,,,,,0.0,0.0,0.0,0.0,14.0,0.0,28.0,0.0,283.61952690500016,,,,,,,,,283.60747663200004,283.95874851200006,284.7583454950002,284.74574464500006,284.746781353,284.7583454950002,284.7583454950002,284.7583454950002,,286.79847299900007,,,,,,,,,,,,,,,,,,,,,,,,,,,,,,left,1.0,2.035639132000142,,,,,sub-147,1,random_dot,74.78676423852926,
right,right,29.0,1.0,14.0,right,1.0,0.6697056919999795,,accuracy,space,3.1263175599999613,,,,,,0.0,0.0,0.0,0.0,14.0,1.0,29.0,1.0,286.809310222,,,,,,,,,286.7990831220002,287.6030315730002,288.3971586700002,288.386620323,288.3871086610002,288.3971586700002,288.3971586700002,288.3971586700002,,289.07373002200006,,,,,,,,,,,,,,,,,,,,,,,,,,,,,,right,1.0,0.6697056919999795,,,,,sub-147,1,random_dot,74.78676423852926,
left,left,30.0,0.0,15.0,left,1.0,1.4819965860001505,,accuracy,space,3.1263175599999613,,,,,,0.0,0.0,0.0,0.0,15.0,0.0,30.0,0.0,289.086234936,,,,,,,,,289.0740377960001,289.884692716,290.7029931280001,290.68500866,290.685477733,290.7029931280001,290.7029931280001,290.7029931280001,,292.1906533660001,,,,,,,,,,,,,,,,,,,,,,,,,,,,,,left,1.0,1.4819965860001505,,,,,sub-147,1,random_dot,74.78676423852926,
right,right,31.0,1.0,15.0,right,1.0,1.0299297090000437,,accuracy,space,3.1263175599999613,,,,,,0.0,0.0,0.0,0.0,15.0,1.0,31.0,1.0,292.2006021320001,,,,,,,,,292.19116657100017,292.53797244600014,293.33882077600015,293.3250316440001,293.32550294,293.33882077600015,293.33882077600015,293.33882077600015,,294.3783172840001,,,,,,,,,,,,,,,,,,,,,,,,,,,,,,right,1.0,1.0299297090000437,,,,,sub-147,1,random_dot,74.78676423852926,
left,left,32.0,0.0,16.0,left,1.0,0.964426585999945,,accuracy,space,3.1263175599999613,,,,,,0.0,0.0,0.0,0.0,16.0,0.0,32.0,0.0,294.387837019,,,,,,,,,294.3786338,295.1714595120002,295.9864408390001,295.9682675050001,295.968735508,295.9864408390001,295.9864408390001,295.9864408390001,,296.95400884700007,,,,,,,,,,,,,,,,,,,,,,,,,,,,,,left,1.0,0.964426585999945,,,,,sub-147,1,random_dot,74.78676423852926,
right,right,33.0,1.0,16.0,right,1.0,1.2941786420001336,,accuracy,space,3.1263175599999613,,,,,,0.0,0.0,0.0,0.0,16.0,1.0,33.0,1.0,296.963067613,,,,,,,,,296.95433786700005,297.7528255930001,298.563663812,298.5531974170001,298.553660066,298.563663812,298.563663812,298.563663812,,299.866491044,,,,,,,,,,,,,,,,,,,,,,,,,,,,,,right,1.0,1.2941786420001336,,,,,sub-147,1,random_dot,74.78676423852926,
right,right,34.0,0.0,17.0,right,1.0,1.0879725600000256,,accuracy,space,3.1263175599999613,,,,,,0.0,0.0,0.0,0.0,17.0,0.0,34.0,1.0,299.876656959,,,,,,,,,299.8673757480001,300.208628485,301.013651493,301.00314284700016,301.003604712,301.013651493,301.013651493,301.013651493,,302.10392397600003,,,,,,,,,,,,,,,,,,,,,,,,,,,,,,right,1.0,1.0879725600000256,,,,,sub-147,1,random_dot,74.78676423852926,
left,left,35.0,1.0,17.0,left,1.0,1.1719083899999987,,accuracy,space,3.1263175599999613,,,,,,0.0,0.0,0.0,0.0,17.0,1.0,35.0,0.0,302.112188046,,,,,,,,,302.1042915610001,302.4492730720001,303.2526901000001,303.2348900910001,303.23535793200017,303.2526901000001,303.2526901000001,303.2526901000001,,304.4285608990001,,,,,,,,,,,,,,,,,,,,,,,,,,,,,,left,1.0,1.1719083899999987,,,,,sub-147,1,random_dot,74.78676423852926,
left,left,36.0,0.0,18.0,right,0.0,1.2629374309999548,,accuracy,space,3.1263175599999613,,,,,,0.0,0.0,0.0,0.0,18.0,0.0,36.0,0.0,304.4375799880001,,,,,,,,,304.4289804690002,305.2344420940001,306.052683874,306.034763997,306.03523577600004,306.052683874,306.052683874,306.052683874,,307.3206150650001,,,,,,,,,,,,,,,,,,,,,,,,,,,,,,right,0.0,1.2629374309999548,,,,,sub-147,1,random_dot,74.78676423852926,
right,right,37.0,1.0,18.0,right,1.0,3.3865799459999835,,accuracy,space,3.1263175599999613,,,,,,0.0,0.0,0.0,0.0,18.0,1.0,37.0,1.0,307.32948740100005,,,,,,,,,307.3209950390001,308.11931069,308.9301539790001,308.91968945100007,308.920153565,308.9301539790001,308.9301539790001,308.9301539790001,,312.3289188670001,,,,,,,,,,,,,,,,,,,,,,,,,,,,,,right,1.0,3.3865799459999835,,,,,sub-147,1,random_dot,74.78676423852926,
left,left,38.0,0.0,19.0,left,1.0,3.192980311000156,,accuracy,space,3.1263175599999613,,,,,,0.0,0.0,0.0,0.0,19.0,0.0,38.0,0.0,312.341573335,,,,,,,,,312.3292322520001,312.43182059900005,313.25252433800006,313.23472009500006,313.2351929380002,313.25252433800006,313.25252433800006,313.25252433800006,,316.4567474360001,,,,,,,,,,,,,,,,,,,,,,,,,,,,,,left,1.0,3.192980311000156,,,,,sub-147,1,random_dot,74.78676423852926,
right,right,39.0,1.0,19.0,right,1.0,1.0419380210000782,,accuracy,space,3.1263175599999613,,,,,,0.0,0.0,0.0,0.0,19.0,1.0,39.0,1.0,316.4691479380001,,,,,,,,,316.45705790400007,317.661222617,318.4588431940001,318.4452343110001,318.4462925350001,318.4588431940001,318.4588431940001,318.4588431940001,,319.51418813400005,,,,,,,,,,,,,,,,,,,,,,,,,,,,,,right,1.0,1.0419380210000782,,,,,sub-147,1,random_dot,74.78676423852926,
right,right,40.0,0.0,20.0,right,1.0,2.615730259999964,,accuracy,space,3.1263175599999613,,,,,,0.0,0.0,0.0,0.0,20.0,0.0,40.0,1.0,319.524394992,,,,,,,,,319.514516511,320.31917397100005,321.1133288840001,321.10283247200005,321.10329887800003,321.1133288840001,321.1133288840001,321.1133288840001,,323.73972454,,,,,,,,,,,,,,,,,,,,,,,,,,,,,,right,1.0,2.615730259999964,,,,,sub-147,1,random_dot,74.78676423852926,
left,left,41.0,1.0,20.0,left,1.0,1.194333744000005,,accuracy,space,3.1263175599999613,,,,,,0.0,0.0,0.0,0.0,20.0,1.0,41.0,0.0,323.749364109,,,,,,,,,323.7402164700002,324.0875795000002,324.88827759100013,324.8746612780001,324.8751308760002,324.88827759100013,324.88827759100013,324.88827759100013,,326.085808566,,,,,,,,,,,,,,,,,,,,,,,,,,,,,,left,1.0,1.194333744000005,,,,,sub-147,1,random_dot,74.78676423852926,
left,left,42.0,0.0,21.0,left,1.0,2.130061324999815,,accuracy,space,3.1263175599999613,,,,,,0.0,0.0,0.0,0.0,21.0,0.0,42.0,0.0,326.094703453,,,,,,,,,326.0862571270002,326.1857139000001,326.996583975,326.98607051800013,326.9865332260001,326.996583975,326.996583975,326.996583975,,329.140989774,,,,,,,,,,,,,,,,,,,,,,,,,,,,,,left,1.0,2.130061324999815,,,,,sub-147,1,random_dot,74.78676423852926,
right,right,43.0,1.0,21.0,right,1.0,0.9556686980001814,,accuracy,space,3.1263175599999613,,,,,,0.0,0.0,0.0,0.0,21.0,1.0,43.0,1.0,329.15450476,,,,,,,,,329.1415285830001,329.94444676500007,330.74201450600003,330.728586426,330.72958759300013,330.74201450600003,330.74201450600003,330.74201450600003,,331.70666923500016,,,,,,,,,,,,,,,,,,,,,,,,,,,,,,right,1.0,0.9556686980001814,,,,,sub-147,1,random_dot,74.78676423852926,
right,right,44.0,0.0,22.0,right,1.0,3.1102615100001003,,accuracy,space,3.1263175599999613,,,,,,0.0,0.0,0.0,0.0,22.0,0.0,44.0,1.0,331.7188640510001,,,,,,,,,331.7069708040001,332.0674932420002,332.8689970610001,332.85109255600014,332.85156244200016,332.8689970610001,332.8689970610001,332.8689970610001,,335.98649717600006,,,,,,,,,,,,,,,,,,,,,,,,,,,,,,right,1.0,3.1102615100001003,,,,,sub-147,1,random_dot,74.78676423852926,
left,left,45.0,1.0,22.0,left,1.0,1.970176315999879,,accuracy,space,3.1263175599999613,,,,,,0.0,0.0,0.0,0.0,22.0,1.0,45.0,0.0,335.995353326,,,,,,,,,335.98680179200005,336.0811692880002,336.8798066870001,336.86930777400016,336.8697901160001,336.8798066870001,336.8798066870001,336.8798066870001,,338.8568393360001,,,,,,,,,,,,,,,,,,,,,,,,,,,,,,left,1.0,1.970176315999879,,,,,sub-147,1,random_dot,74.78676423852926,
left,left,46.0,0.0,23.0,right,0.0,2.767612930000041,,accuracy,space,3.1263175599999613,,,,,,0.0,0.0,0.0,0.0,23.0,0.0,46.0,0.0,338.869121446,,,,,,,,,338.85727861600003,339.2108603430001,340.00851812,339.9950177110002,339.9960466140001,340.00851812,340.00851812,340.00851812,,342.7802370210002,,,,,,,,,,,,,,,,,,,,,,,,,,,,,,right,0.0,2.767612930000041,,,,,sub-147,1,random_dot,74.78676423852926,
right,right,47.0,1.0,23.0,right,1.0,1.6389791250001051,,accuracy,space,3.1263175599999613,,,,,,0.0,0.0,0.0,0.0,23.0,1.0,47.0,1.0,342.790953192,,,,,,,,,342.78068394700017,343.985604727,344.7963958580001,344.78590554900006,344.78637697600016,344.7963958580001,344.7963958580001,344.7963958580001,,346.4470305110001,,,,,,,,,,,,,,,,,,,,,,,,,,,,,,right,1.0,1.6389791250001051,,,,,sub-147,1,random_dot,74.78676423852926,
left,left,48.0,0.0,24.0,left,1.0,1.9288459750000584,,accuracy,space,3.1263175599999613,,,,,,0.0,0.0,0.0,0.0,24.0,0.0,48.0,0.0,346.4572837970002,,,,,,,,,346.447450011,347.252113625,348.0463039650001,348.03577181700007,348.0362530900002,348.0463039650001,348.0463039650001,348.0463039650001,,349.98183841000014,,,,,,,,,,,,,,,,,,,,,,,,,,,,,,left,1.0,1.9288459750000584,,,,,sub-147,1,random_dot,74.78676423852926,
right,right,49.0,1.0,24.0,right,1.0,0.8368575190002048,,accuracy,space,3.1263175599999613,,,,,,0.0,0.0,0.0,0.0,24.0,1.0,49.0,1.0,349.991831349,,,,,,,,,349.982533978,350.327651006,351.12516826900014,351.11144272800016,351.11249132800003,351.12516826900014,351.12516826900014,351.12516826900014,,351.971776289,,,,,,,,,,,,,,,,,,,,,,,,,,,,,,right,1.0,0.8368575190002048,,,,,sub-147,1,random_dot,74.78676423852926,
right,right,50.0,0.0,25.0,right,1.0,1.0407100690001698,,accuracy,space,3.1263175599999613,,,,,,0.0,0.0,0.0,0.0,25.0,0.0,50.0,1.0,351.9811012970001,,,,,,,,,351.972196362,352.32449450900003,353.12626528600003,353.1113415980001,353.112362976,353.12626528600003,353.12626528600003,353.12626528600003,,354.1758772400001,,,,,,,,,,,,,,,,,,,,,,,,,,,,,,right,1.0,1.0407100690001698,,,,,sub-147,1,random_dot,74.78676423852926,
left,left,51.0,1.0,25.0,right,0.0,2.66587262500002,,accuracy,space,3.1263175599999613,,,,,,0.0,0.0,0.0,0.0,25.0,1.0,51.0,0.0,354.187479597,,,,,,,,,354.176176296,355.37488987300003,356.185321447,356.1673933510001,356.16786653400004,356.185321447,356.185321447,356.185321447,,358.85605288500005,,,,,,,,,,,,,,,,,,,,,,,,,,,,,,right,0.0,2.66587262500002,,,,,sub-147,1,random_dot,74.78676423852926,
left,left,52.0,0.0,26.0,left,1.0,1.476806090999844,,accuracy,space,3.1263175599999613,,,,,,0.0,0.0,0.0,0.0,26.0,0.0,52.0,0.0,358.86856201600017,,,,,,,,,358.8563533900001,360.06055692100017,360.8628240820001,360.85233759200014,360.85280429,360.8628240820001,360.8628240820001,360.8628240820001,,362.34397236300015,,,,,,,,,,,,,,,,,,,,,,,,,,,,,,left,1.0,1.476806090999844,,,,,sub-147,1,random_dot,74.78676423852926,
right,right,53.0,1.0,26.0,right,1.0,0.6493523229999028,,accuracy,space,3.1263175599999613,,,,,,0.0,0.0,0.0,0.0,26.0,1.0,53.0,1.0,362.366991524,,,,,,,,,362.3443141120001,363.14108464700007,363.946104981,363.935589873,363.9360706330001,363.946104981,363.946104981,363.946104981,,364.59807455300006,,,,,,,,,,,,,,,,,,,,,,,,,,,,,,right,1.0,0.6493523229999028,,,,,sub-147,1,random_dot,74.78676423852926,
right,right,54.0,0.0,27.0,right,1.0,1.0088303279999309,,accuracy,space,3.1263175599999613,,,,,,0.0,0.0,0.0,0.0,27.0,0.0,54.0,1.0,364.6074236420002,,,,,,,,,364.5986435530001,365.401930191,366.212714858,366.202249725,366.2027130170002,366.212714858,366.212714858,366.212714858,,367.235639968,,,,,,,,,,,,,,,,,,,,,,,,,,,,,,right,1.0,1.0088303279999309,,,,,sub-147,1,random_dot,74.78676423852926,
left,left,55.0,1.0,27.0,left,1.0,0.695360237000159,,accuracy,space,3.1263175599999613,,,,,,0.0,0.0,0.0,0.0,27.0,1.0,55.0,0.0,367.244987264,,,,,,,,,367.236056402,367.3307454190001,368.15192458,368.1339211740001,368.134392465,368.15192458,368.15192458,368.15192458,,368.8528576890001,,,,,,,,,,,,,,,,,,,,,,,,,,,,,,left,1.0,0.695360237000159,,,,,sub-147,1,random_dot,74.78676423852926,
right,right,56.0,0.0,28.0,right,1.0,0.6684157510001114,,accuracy,space,3.1263175599999613,,,,,,0.0,0.0,0.0,0.0,28.0,0.0,56.0,1.0,368.8616866460002,,,,,,,,,368.85315111600016,369.666956001,370.48516230400014,370.4673133250001,370.467782104,370.48516230400014,370.48516230400014,370.48516230400014,,371.1594214280001,,,,,,,,,,,,,,,,,,,,,,,,,,,,,,right,1.0,0.6684157510001114,,,,,sub-147,1,random_dot,74.78676423852926,
left,left,57.0,1.0,28.0,left,1.0,1.2364893829999346,,accuracy,space,3.1263175599999613,,,,,,0.0,0.0,0.0,0.0,28.0,1.0,57.0,0.0,371.1712830040001,,,,,,,,,371.159723583,371.516918456,372.31273747700016,372.302188098,372.3026490360001,372.31273747700016,372.31273747700016,372.31273747700016,,373.5529650210001,,,,,,,,,,,,,,,,,,,,,,,,,,,,,,left,1.0,1.2364893829999346,,,,,sub-147,1,random_dot,74.78676423852926,
left,left,58.0,0.0,29.0,left,1.0,2.300808798000162,,accuracy,space,3.1263175599999613,,,,,,0.0,0.0,0.0,0.0,29.0,0.0,58.0,0.0,373.5620000690001,,,,,,,,,373.553292951,374.753570437,375.5579788960001,375.544471875,375.54552841300006,375.5579788960001,375.5579788960001,375.5579788960001,,377.8646864090001,,,,,,,,,,,,,,,,,,,,,,,,,,,,,,left,1.0,2.300808798000162,,,,,sub-147,1,random_dot,74.78676423852926,
right,right,59.0,1.0,29.0,right,1.0,0.631336580000152,,accuracy,space,3.1263175599999613,,,,,,0.0,0.0,0.0,0.0,29.0,1.0,59.0,1.0,377.87476730900016,,,,,,,,,377.8653198690001,378.659518615,379.4683391860001,379.45043190900014,379.450902731,379.4683391860001,379.4683391860001,379.4683391860001,,380.10589669800015,,,,,,,,,,,,,,,,,,,,,,,,,,,,,,right,1.0,0.631336580000152,,,,,sub-147,1,random_dot,74.78676423852926,
,,0.0,0.0,0.0,,,,,accuracy,space,3.1263175599999613,,,,,,0.0,0.0,0.0,0.0,,,,,,,,,,,,,,,,,,,,,,,,,,,,,,,,,,,,,,,,,,,,,,,,,,,,,,,,,,,,sub-147,1,random_dot,74.78676423852926,
right,right,0.0,0.0,0.0,right,1.0,0.6090679920000639,,speed,space,5.191509314000086,,,,,,0.0,1.0,1.0,1.0,0.0,0.0,0.0,1.0,385.3531970600002,,,,,,,,,385.3434702080001,386.134965409,386.929253708,386.9186396910002,386.91910351700017,386.929253708,386.929253708,386.929253708,,387.5474301960001,,,,,,,,,,,,,,,,,,,,,,,380.11657993000017,380.12602063300005,380.12602063300005,385.3363378820002,space,5.191509314000086,,right,1.0,0.6090679920000639,,,,,sub-147,1,random_dot,74.78676423852926,
left,left,1.0,1.0,0.0,left,1.0,0.4646394910000708,,speed,space,5.191509314000086,,,,,,0.0,1.0,1.0,1.0,0.0,1.0,1.0,0.0,387.55721464700014,,,,,,,,,387.54806313300014,387.6515720090001,388.4624733630001,388.4518689820002,388.45233653000014,388.4624733630001,388.4624733630001,388.4624733630001,,388.9393889810001,,,,,,,,,,,,,,,,,,,,,,,,,,,,,,left,1.0,0.4646394910000708,,,,,sub-147,1,random_dot,74.78676423852926,
right,right,2.0,0.0,1.0,right,1.0,0.5416177189999871,,speed,space,5.191509314000086,,,,,,0.0,1.0,1.0,1.0,1.0,0.0,2.0,1.0,388.95156546700014,,,,,,,,,388.93976493000014,389.290638235,390.0957356230001,390.0852581030001,390.0857289350001,390.0957356230001,390.0957356230001,390.0957356230001,,390.6468225450001,,,,,,,,,,,,,,,,,,,,,,,,,,,,,,right,1.0,0.5416177189999871,,,,,sub-147,1,random_dot,74.78676423852926,
left,left,3.0,1.0,1.0,left,1.0,0.5978362949999791,,speed,space,5.191509314000086,,,,,,0.0,1.0,1.0,1.0,1.0,1.0,3.0,0.0,390.65686235500016,,,,,,,,,390.6471493390002,390.743458165,391.5515010020001,391.533582171,391.534057032,391.5515010020001,391.5515010020001,391.5515010020001,,392.15269480100005,,,,,,,,,,,,,,,,,,,,,,,,,,,,,,left,1.0,0.5978362949999791,,,,,sub-147,1,random_dot,74.78676423852926,
right,right,4.0,0.0,2.0,right,1.0,0.5937191560001338,,speed,space,5.191509314000086,,,,,,0.0,1.0,1.0,1.0,2.0,0.0,4.0,1.0,392.1616496260001,,,,,,,,,392.153066391,393.36670260000005,394.1623320360002,394.15189485,394.152356267,394.1623320360002,394.1623320360002,394.1623320360002,,394.7688474480001,,,,,,,,,,,,,,,,,,,,,,,,,,,,,,right,1.0,0.5937191560001338,,,,,sub-147,1,random_dot,74.78676423852926,
left,left,5.0,1.0,2.0,left,1.0,0.6231528939999862,,speed,space,5.191509314000086,,,,,,0.0,1.0,1.0,1.0,2.0,1.0,5.0,0.0,394.777686611,,,,,,,,,394.769209564,394.867927389,395.6789399920001,395.668415934,395.6688808810002,395.6789399920001,395.6789399920001,395.6789399920001,,396.305734306,,,,,,,,,,,,,,,,,,,,,,,,,,,,,,left,1.0,0.6231528939999862,,,,,sub-147,1,random_dot,74.78676423852926,
left,left,6.0,0.0,3.0,right,0.0,0.7241662390001693,,speed,space,5.191509314000086,,,,,,0.0,1.0,1.0,1.0,3.0,0.0,6.0,0.0,396.31814020800016,,,,,,,,,396.306160007,397.5031012520001,398.31815564,398.30022070400014,398.3006906310002,398.31815564,398.31815564,398.31815564,,399.047524179,,,,,,,,,,,,,,,,,,,,,,,,,,,,,,right,0.0,0.7241662390001693,,,,,sub-147,1,random_dot,74.78676423852926,
right,right,7.0,1.0,3.0,right,1.0,1.2655780960001266,,speed,space,5.191509314000086,,,,,,0.0,1.0,1.0,1.0,3.0,1.0,7.0,1.0,399.057973726,,,,,,,,,399.0484787120001,400.251443398,401.06223988400006,401.051739343,401.0522017540002,401.06223988400006,401.06223988400006,401.06223988400006,,402.3402341990002,,,,,,,,,,,,,,,,,,,,,,,,,,,,,,right,1.0,1.2655780960001266,,,,,sub-147,1,random_dot,74.78676423852926,
right,right,8.0,0.0,4.0,left,0.0,0.8052954859999772,,speed,space,5.191509314000086,,,,,,0.0,1.0,1.0,1.0,4.0,0.0,8.0,1.0,402.3500990350001,,,,,,,,,402.340605205,402.4348409620002,403.24554236300014,403.2350622250001,403.23552275,403.24554236300014,403.24554236300014,403.24554236300014,,404.06021861800014,,,,,,,,,,,,,,,,,,,,,,,,,,,,,,left,0.0,0.8052954859999772,,,,,sub-147,1,random_dot,74.78676423852926,
left,left,9.0,1.0,4.0,right,0.0,0.6262056200000643,,speed,space,5.191509314000086,,,,,,0.0,1.0,1.0,1.0,4.0,1.0,9.0,0.0,404.0696831110001,,,,,,,,,404.060534534,405.266433944,406.084674253,406.0667282500001,406.0672026790001,406.084674253,406.084674253,406.084674253,,406.723131165,,,,,,,,,,,,,,,,,,,,,,,,,,,,,,right,0.0,0.6262056200000643,,,,,sub-147,1,random_dot,74.78676423852926,
left,left,10.0,0.0,5.0,left,1.0,0.8270334410001396,,speed,space,5.191509314000086,,,,,,0.0,1.0,1.0,1.0,5.0,0.0,10.0,0.0,406.73329536000006,,,,,,,,,406.723544465,407.9266259230001,408.734746609,408.7167177860001,408.7171906610001,408.734746609,408.734746609,408.734746609,,409.5724917050002,,,,,,,,,,,,,,,,,,,,,,,,,,,,,,left,1.0,0.8270334410001396,,,,,sub-147,1,random_dot,74.78676423852926,
right,right,11.0,1.0,5.0,right,1.0,0.5430807180000556,,speed,space,5.191509314000086,,,,,,0.0,1.0,1.0,1.0,5.0,1.0,11.0,1.0,409.5820828860001,,,,,,,,,409.572987665,410.3765619610001,411.179357127,411.168262722,411.1687308380001,411.179357127,411.179357127,411.179357127,,411.734397707,,,,,,,,,,,,,,,,,,,,,,,,,,,,,,right,1.0,0.5430807180000556,,,,,sub-147,1,random_dot,74.78676423852926,
right,right,12.0,0.0,6.0,right,1.0,1.098834355000008,,speed,space,5.191509314000086,,,,,,0.0,1.0,1.0,1.0,6.0,0.0,12.0,1.0,411.74380459100007,,,,,,,,,411.734918889,412.52652576000014,413.324046918,413.3106429210002,413.3116246910001,413.324046918,413.324046918,413.324046918,,414.431135329,,,,,,,,,,,,,,,,,,,,,,,,,,,,,,right,1.0,1.098834355000008,,,,,sub-147,1,random_dot,74.78676423852926,
left,left,13.0,1.0,6.0,left,1.0,0.6489486129999023,,speed,space,5.191509314000086,,,,,,0.0,1.0,1.0,1.0,6.0,1.0,13.0,0.0,414.4410268700001,,,,,,,,,414.43181859000015,414.78457058,415.578695486,415.5682303260001,415.5686946000001,415.578695486,415.578695486,415.578695486,,416.25104113400016,,,,,,,,,,,,,,,,,,,,,,,,,,,,,,left,1.0,0.6489486129999023,,,,,sub-147,1,random_dot,74.78676423852926,
right,right,14.0,0.0,7.0,right,1.0,0.8287001139999575,,speed,space,5.191509314000086,,,,,,0.0,1.0,1.0,1.0,7.0,0.0,14.0,1.0,416.2679367180001,,,,,,,,,416.25156483600017,417.043070356,417.851164405,417.8362147140001,417.836685711,417.851164405,417.851164405,417.851164405,,418.6889143180001,,,,,,,,,,,,,,,,,,,,,,,,,,,,,,right,1.0,0.8287001139999575,,,,,sub-147,1,random_dot,74.78676423852926,
left,left,15.0,1.0,7.0,left,1.0,0.9610192539998934,,speed,space,5.191509314000086,,,,,,0.0,1.0,1.0,1.0,7.0,1.0,15.0,0.0,418.6984741890001,,,,,,,,,418.689406186,419.886362039,420.69068881,420.6772060110002,420.6782464800001,420.69068881,420.69068881,420.69068881,,421.6550472670001,,,,,,,,,,,,,,,,,,,,,,,,,,,,,,left,1.0,0.9610192539998934,,,,,sub-147,1,random_dot,74.78676423852926,
left,left,16.0,0.0,8.0,right,0.0,0.9614314139998896,,speed,space,5.191509314000086,,,,,,0.0,1.0,1.0,1.0,8.0,0.0,16.0,0.0,421.6680549760001,,,,,,,,,421.655397643,422.859654979,423.657351327,423.643938465,423.6451568990001,423.657351327,423.657351327,423.657351327,,424.626954546,,,,,,,,,,,,,,,,,,,,,,,,,,,,,,right,0.0,0.9614314139998896,,,,,sub-147,1,random_dot,74.78676423852926,
right,right,17.0,1.0,8.0,right,1.0,0.7074266560000524,,speed,space,5.191509314000086,,,,,,0.0,1.0,1.0,1.0,8.0,1.0,17.0,1.0,424.64940082600015,,,,,,,,,424.627260453,425.42291160700006,426.22410326700015,426.210581395,426.21160279700007,426.22410326700015,426.22410326700015,426.22410326700015,,426.93459618600014,,,,,,,,,,,,,,,,,,,,,,,,,,,,,,right,1.0,0.7074266560000524,,,,,sub-147,1,random_dot,74.78676423852926,
right,right,18.0,0.0,9.0,right,1.0,0.7816455339998356,,speed,space,5.191509314000086,,,,,,0.0,1.0,1.0,1.0,9.0,0.0,18.0,1.0,426.943030656,,,,,,,,,426.934995675,428.1304223080001,428.951017265,428.93322698400016,428.9336942550001,428.951017265,428.951017265,428.951017265,,429.73878873500007,,,,,,,,,,,,,,,,,,,,,,,,,,,,,,right,1.0,0.7816455339998356,,,,,sub-147,1,random_dot,74.78676423852926,
left,left,19.0,1.0,9.0,right,0.0,2.9661600730000828,,speed,space,5.191509314000086,,,,,,0.0,1.0,1.0,1.0,9.0,1.0,19.0,0.0,429.75098781300017,,,,,,,,,429.73908766700015,430.94300966800006,431.740457507,431.7271308930001,431.7281634420001,431.740457507,431.740457507,431.740457507,,434.718171491,,,,,,,,,,,,,,,,,,,,,,,,,,,,,,right,0.0,2.9661600730000828,,,,,sub-147,1,random_dot,74.78676423852926,
right,right,20.0,0.0,10.0,right,1.0,3.2536695079998026,,speed,space,5.191509314000086,,,,,,0.0,1.0,1.0,1.0,10.0,0.0,20.0,1.0,434.7279457440002,,,,,,,,,434.71880542100007,435.06983859700017,435.8843036630001,435.8663477360001,435.8668179680001,435.8843036630001,435.8843036630001,435.8843036630001,,439.1521253000001,,,,,,,,,,,,,,,,,,,,,,,,,,,,,,right,1.0,3.2536695079998026,,,,,sub-147,1,random_dot,74.78676423852926,
left,left,21.0,1.0,10.0,left,1.0,0.8685040240000035,,speed,space,5.191509314000086,,,,,,0.0,1.0,1.0,1.0,10.0,1.0,21.0,0.0,439.1623799900001,,,,,,,,,439.1526531710001,439.94611607,440.7675856610001,440.7496485050001,440.750123778,440.7675856610001,440.7675856610001,440.7675856610001,,441.6427642840001,,,,,,,,,,,,,,,,,,,,,,,,,,,,,,left,1.0,0.8685040240000035,,,,,sub-147,1,random_dot,74.78676423852926,
right,right,22.0,0.0,11.0,right,1.0,3.4799658509998608,,speed,space,5.191509314000086,,,,,,0.0,1.0,1.0,1.0,11.0,0.0,22.0,1.0,441.6521978620001,,,,,,,,,441.643072719,441.990615274,442.7903677080001,442.77686570800006,442.777844014,442.7903677080001,442.7903677080001,442.7903677080001,,446.2793828030001,,,,,,,,,,,,,,,,,,,,,,,,,,,,,,right,1.0,3.4799658509998608,,,,,sub-147,1,random_dot,74.78676423852926,
left,left,23.0,1.0,11.0,left,1.0,0.9502740019997872,,speed,space,5.191509314000086,,,,,,0.0,1.0,1.0,1.0,11.0,1.0,23.0,0.0,446.2893706080001,,,,,,,,,446.27985148900007,447.47997698100016,448.3006994080001,448.28280995600016,448.283284571,448.3006994080001,448.3006994080001,448.3006994080001,,449.26250464200007,,,,,,,,,,,,,,,,,,,,,,,,,,,,,,left,1.0,0.9502740019997872,,,,,sub-147,1,random_dot,74.78676423852926,
left,left,24.0,0.0,12.0,right,0.0,1.1840997670001343,,speed,space,5.191509314000086,,,,,,0.0,1.0,1.0,1.0,12.0,0.0,24.0,0.0,449.2727144180001,,,,,,,,,449.262825798,450.459545446,451.25692708300016,451.24343048700007,451.2444613490002,451.25692708300016,451.25692708300016,451.25692708300016,,452.4501832600001,,,,,,,,,,,,,,,,,,,,,,,,,,,,,,right,0.0,1.1840997670001343,,,,,sub-147,1,random_dot,74.78676423852926,
right,right,25.0,1.0,12.0,right,1.0,3.112282028999971,,speed,space,5.191509314000086,,,,,,0.0,1.0,1.0,1.0,12.0,1.0,25.0,1.0,452.459688635,,,,,,,,,452.450653808,452.552412649,453.361468823,453.35106473300016,453.3515264270002,453.361468823,453.361468823,453.361468823,,456.478598186,,,,,,,,,,,,,,,,,,,,,,,,,,,,,,right,1.0,3.112282028999971,,,,,sub-147,1,random_dot,74.78676423852926,
right,right,26.0,0.0,13.0,left,0.0,2.4704228549999243,,speed,space,5.191509314000086,,,,,,0.0,1.0,1.0,1.0,13.0,0.0,26.0,1.0,456.488994475,,,,,,,,,456.478992416,457.2760163770001,458.07354215400005,458.06000645200015,458.0610023190002,458.07354215400005,458.07354215400005,458.07354215400005,,460.551549905,,,,,,,,,,,,,,,,,,,,,,,,,,,,,,left,0.0,2.4704228549999243,,,,,sub-147,1,random_dot,74.78676423852926,
left,left,27.0,1.0,13.0,right,0.0,1.578073687999904,,speed,space,5.191509314000086,,,,,,0.0,1.0,1.0,1.0,13.0,1.0,27.0,0.0,460.56031525900016,,,,,,,,,460.55184154200015,460.65097773800017,461.4453488020001,461.4345792020001,461.43505991000006,461.4453488020001,461.4453488020001,461.4453488020001,,463.029149602,,,,,,,,,,,,,,,,,,,,,,,,,,,,,,right,0.0,1.578073687999904,,,,,sub-147,1,random_dot,74.78676423852926,
left,left,28.0,0.0,14.0,left,1.0,1.7078198990000146,,speed,space,5.191509314000086,,,,,,0.0,1.0,1.0,1.0,14.0,0.0,28.0,0.0,463.039152392,,,,,,,,,463.029528558,464.2259970110001,465.02890207200016,465.0175233690002,465.0179836030002,465.02890207200016,465.02890207200016,465.02890207200016,,466.7514197130001,,,,,,,,,,,,,,,,,,,,,,,,,,,,,,left,1.0,1.7078198990000146,,,,,sub-147,1,random_dot,74.78676423852926,
right,right,29.0,1.0,14.0,right,1.0,3.1919963820000703,,speed,space,5.191509314000086,,,,,,0.0,1.0,1.0,1.0,14.0,1.0,29.0,1.0,466.7607011560001,,,,,,,,,466.7517155300002,467.095504272,467.894613727,467.88416344000007,467.8846180360001,467.894613727,467.894613727,467.894613727,,471.08808413300017,,,,,,,,,,,,,,,,,,,,,,,,,,,,,,right,1.0,3.1919963820000703,,,,,sub-147,1,random_dot,74.78676423852926,
left,left,30.0,0.0,15.0,left,1.0,2.685638847000064,,speed,space,5.191509314000086,,,,,,0.0,1.0,1.0,1.0,15.0,0.0,30.0,0.0,471.1004619370001,,,,,,,,,471.08846077400017,471.439691258,472.2405184280001,472.2276141770001,472.22870674800015,472.2405184280001,472.2405184280001,472.2405184280001,,474.937914955,,,,,,,,,,,,,,,,,,,,,,,,,,,,,,left,1.0,2.685638847000064,,,,,sub-147,1,random_dot,74.78676423852926,
right,right,31.0,1.0,15.0,right,1.0,4.220210688999941,,speed,space,5.191509314000086,,,,,,0.0,1.0,1.0,1.0,15.0,1.0,31.0,1.0,474.9475713680001,,,,,,,,,474.93837586300015,475.7337745510001,476.53180940200014,476.5207014150001,476.5215580700001,476.53180940200014,476.53180940200014,476.53180940200014,,480.76344969700017,,,,,,,,,,,,,,,,,,,,,,,,,,,,,,right,1.0,4.220210688999941,,,,,sub-147,1,random_dot,74.78676423852926,
right,right,32.0,0.0,16.0,left,0.0,3.271155962999956,,speed,space,5.191509314000086,,,,,,0.0,1.0,1.0,1.0,16.0,0.0,32.0,1.0,480.77354023400017,,,,,,,,,480.76417475000017,481.11254547600015,481.91687360800006,481.8991349350001,481.899614507,481.91687360800006,481.91687360800006,481.91687360800006,,485.19686456600016,,,,,,,,,,,,,,,,,,,,,,,,,,,,,,left,0.0,3.271155962999956,,,,,sub-147,1,random_dot,74.78676423852926,
left,left,33.0,1.0,16.0,left,1.0,4.278656646000172,,speed,space,5.191509314000086,,,,,,0.0,1.0,1.0,1.0,16.0,1.0,33.0,0.0,485.2068293950001,,,,,,,,,485.1976175150001,485.99537912000005,486.80283727000005,486.790410561,486.7910521870001,486.80283727000005,486.80283727000005,486.80283727000005,,491.091353542,,,,,,,,,,,,,,,,,,,,,,,,,,,,,,left,1.0,4.278656646000172,,,,,sub-147,1,random_dot,74.78676423852926,
right,right,34.0,0.0,17.0,right,1.0,2.443816832000038,,speed,space,5.191509314000086,,,,,,0.0,1.0,1.0,1.0,17.0,0.0,34.0,1.0,491.10028876700017,,,,,,,,,491.09164962800014,491.900308643,492.716810097,492.6988988180001,492.69936634300007,492.716810097,492.716810097,492.716810097,,495.167423162,,,,,,,,,,,,,,,,,,,,,,,,,,,,,,right,1.0,2.443816832000038,,,,,sub-147,1,random_dot,74.78676423852926,
left,left,35.0,1.0,17.0,left,1.0,4.771961870000041,,speed,space,5.191509314000086,,,,,,0.0,1.0,1.0,1.0,17.0,1.0,35.0,0.0,495.176932719,,,,,,,,,495.168104635,495.96683334500017,496.7609792200001,496.7504721800001,496.750934203,496.7609792200001,496.7609792200001,496.7609792200001,,501.5346754080001,,,,,,,,,,,,,,,,,,,,,,,,,,,,,,left,1.0,4.771961870000041,,,,,sub-147,1,random_dot,74.78676423852926,
right,right,36.0,0.0,18.0,right,1.0,3.2754564500000924,,speed,space,5.191509314000086,,,,,,0.0,1.0,1.0,1.0,18.0,0.0,36.0,1.0,501.5427360580002,,,,,,,,,501.53500491800014,501.8792184260001,502.683421836,502.665460958,502.665931749,502.683421836,502.683421836,502.683421836,,505.9675524200002,,,,,,,,,,,,,,,,,,,,,,,,,,,,,,right,1.0,3.2754564500000924,,,,,sub-147,1,random_dot,74.78676423852926,
left,left,37.0,1.0,18.0,left,1.0,4.637193030999924,,speed,space,5.191509314000086,,,,,,0.0,1.0,1.0,1.0,18.0,1.0,37.0,0.0,505.9763346300001,,,,,,,,,505.9678465690001,507.168434037,507.9778400320001,507.967007407,507.967496426,507.9778400320001,507.9778400320001,507.9778400320001,,512.6207779920001,,,,,,,,,,,,,,,,,,,,,,,,,,,,,,left,1.0,4.637193030999924,,,,,sub-147,1,random_dot,74.78676423852926,
right,right,38.0,0.0,19.0,right,1.0,1.1199652149998656,,speed,space,5.191509314000086,,,,,,0.0,1.0,1.0,1.0,19.0,0.0,38.0,1.0,512.6331370120001,,,,,,,,,512.6210990020002,512.972766954,513.7833280490001,513.765494662,513.7659883600002,513.7833280490001,513.7833280490001,513.7833280490001,,514.9087272240001,,,,,,,,,,,,,,,,,,,,,,,,,,,,,,right,1.0,1.1199652149998656,,,,,sub-147,1,random_dot,74.78676423852926,
left,left,39.0,1.0,19.0,right,0.0,5.371948426000017,,speed,space,5.191509314000086,,,,,,0.0,1.0,1.0,1.0,19.0,1.0,39.0,0.0,514.918337368,,,,,,,,,514.9092066130002,516.114955606,516.9106645290001,516.900217952,516.9006812300001,516.9106645290001,516.9106645290001,516.9106645290001,521.9016379920001,522.2904700050001,,,,,,,,,,,,,,,,,,,,,,,,,,,,,,right,0.0,5.371948426000017,,,,,sub-147,1,random_dot,74.78676423852926,
right,right,40.0,0.0,20.0,right,1.0,1.3002012989998093,,speed,space,5.191509314000086,,,,,,0.0,1.0,1.0,1.0,20.0,0.0,40.0,1.0,522.3026606810001,,,,,,,,,522.290804947,523.0998077230001,523.9164375960002,523.8984943840001,523.8989689700002,523.9164375960002,523.9164375960002,523.9164375960002,,525.2310095780001,,,,,,,,,,,,,,,,,,,,,,,,,,,,,,right,1.0,1.3002012989998093,,,,,sub-147,1,random_dot,74.78676423852926,
left,left,41.0,1.0,20.0,left,1.0,1.123317760999953,,speed,space,5.191509314000086,,,,,,0.0,1.0,1.0,1.0,20.0,1.0,41.0,0.0,525.241468554,,,,,,,,,525.2319317240001,525.575153153,526.3771562090001,526.366671644,526.3671344520001,526.3771562090001,526.3771562090001,526.3771562090001,,527.5033118370002,,,,,,,,,,,,,,,,,,,,,,,,,,,,,,left,1.0,1.123317760999953,,,,,sub-147,1,random_dot,74.78676423852926,
left,left,42.0,0.0,21.0,left,1.0,1.1703023400000347,,speed,space,5.191509314000086,,,,,,0.0,1.0,1.0,1.0,21.0,0.0,42.0,0.0,527.5161647360001,,,,,,,,,527.5036740110002,528.7148415830002,529.5103780490001,529.499855735,529.500315347,529.5103780490001,529.5103780490001,529.5103780490001,,530.687170074,,,,,,,,,,,,,,,,,,,,,,,,,,,,,,left,1.0,1.1703023400000347,,,,,sub-147,1,random_dot,74.78676423852926,
right,right,43.0,1.0,21.0,right,1.0,2.7524226140001247,,speed,space,5.191509314000086,,,,,,0.0,1.0,1.0,1.0,21.0,1.0,43.0,1.0,530.699703623,,,,,,,,,530.6874687030001,531.4846374370002,532.299663319,532.2817204790001,532.2821866210002,532.299663319,532.299663319,532.299663319,,535.0665866480001,,,,,,,,,,,,,,,,,,,,,,,,,,,,,,right,1.0,2.7524226140001247,,,,,sub-147,1,random_dot,74.78676423852926,
left,left,44.0,0.0,22.0,left,1.0,2.465645704000053,,speed,space,5.191509314000086,,,,,,0.0,1.0,1.0,1.0,22.0,0.0,44.0,0.0,535.0759995660001,,,,,,,,,535.067146417,535.858227318,536.660382085,536.6498284210002,536.650292241,536.660382085,536.660382085,536.660382085,,539.1369752980002,,,,,,,,,,,,,,,,,,,,,,,,,,,,,,left,1.0,2.465645704000053,,,,,sub-147,1,random_dot,74.78676423852926,
right,right,45.0,1.0,22.0,right,1.0,1.026116860000002,,speed,space,5.191509314000086,,,,,,0.0,1.0,1.0,1.0,22.0,1.0,45.0,1.0,539.1494843810001,,,,,,,,,539.1372770330001,539.491547565,540.2936643610001,540.2831418330002,540.2836010790002,540.2936643610001,540.2936643610001,540.2936643610001,,541.3330524380001,,,,,,,,,,,,,,,,,,,,,,,,,,,,,,right,1.0,1.026116860000002,,,,,sub-147,1,random_dot,74.78676423852926,
left,left,46.0,0.0,23.0,left,1.0,0.8979153779998796,,speed,space,5.191509314000086,,,,,,0.0,1.0,1.0,1.0,23.0,0.0,46.0,0.0,541.342360329,,,,,,,,,541.3335302830001,541.6748486170002,542.4828684500001,542.464926464,542.4653988110001,542.4828684500001,542.4828684500001,542.4828684500001,,543.3869847140002,,,,,,,,,,,,,,,,,,,,,,,,,,,,,,left,1.0,0.8979153779998796,,,,,sub-147,1,random_dot,74.78676423852926,
right,right,47.0,1.0,23.0,right,1.0,3.1402869789999386,,speed,space,5.191509314000086,,,,,,0.0,1.0,1.0,1.0,23.0,1.0,47.0,1.0,543.3994068910001,,,,,,,,,543.387282748,544.1978736580002,544.9997868350001,544.9816056340001,544.982074192,544.9997868350001,544.9997868350001,544.9997868350001,,548.144180017,,,,,,,,,,,,,,,,,,,,,,,,,,,,,,right,1.0,3.1402869789999386,,,,,sub-147,1,random_dot,74.78676423852926,
left,left,48.0,0.0,24.0,left,1.0,4.425206391999836,,speed,space,5.191509314000086,,,,,,0.0,1.0,1.0,1.0,24.0,0.0,48.0,0.0,548.1546605890001,,,,,,,,,548.144664161,549.3495072610001,550.1493573530001,550.1343628550001,550.134829311,550.1493573530001,550.1493573530001,550.1493573530001,,554.5791254860001,,,,,,,,,,,,,,,,,,,,,,,,,,,,,,left,1.0,4.425206391999836,,,,,sub-147,1,random_dot,74.78676423852926,
right,right,49.0,1.0,24.0,right,1.0,0.9396688219999304,,speed,space,5.191509314000086,,,,,,0.0,1.0,1.0,1.0,24.0,1.0,49.0,1.0,554.589457278,,,,,,,,,554.580027793,554.92201512,555.732628359,555.714763404,555.7152322650002,555.732628359,555.732628359,555.732628359,,556.6835202050001,,,,,,,,,,,,,,,,,,,,,,,,,,,,,,right,1.0,0.9396688219999304,,,,,sub-147,1,random_dot,74.78676423852926,
left,left,50.0,0.0,25.0,right,0.0,2.6150930630001312,,speed,space,5.191509314000086,,,,,,0.0,1.0,1.0,1.0,25.0,0.0,50.0,0.0,556.6922562090001,,,,,,,,,556.6838143250002,557.882642108,558.6934267220001,558.6829782670002,558.6834424610001,558.6934267220001,558.6934267220001,558.6934267220001,,561.311479594,,,,,,,,,,,,,,,,,,,,,,,,,,,,,,right,0.0,2.6150930630001312,,,,,sub-147,1,random_dot,74.78676423852926,
right,right,51.0,1.0,25.0,left,0.0,1.5057814720000806,,speed,space,5.191509314000086,,,,,,0.0,1.0,1.0,1.0,25.0,1.0,51.0,1.0,561.320800986,,,,,,,,,561.311843707,561.6551554290002,562.4544978920001,562.441962481,562.4430261960001,562.4544978920001,562.4544978920001,562.4544978920001,,563.970159986,,,,,,,,,,,,,,,,,,,,,,,,,,,,,,left,0.0,1.5057814720000806,,,,,sub-147,1,random_dot,74.78676423852926,
left,left,52.0,0.0,26.0,left,1.0,0.8581946540000445,,speed,space,5.191509314000086,,,,,,0.0,1.0,1.0,1.0,26.0,0.0,52.0,0.0,563.979829888,,,,,,,,,563.970711639,564.76780332,565.5720447220001,565.558593939,565.559608366,565.5720447220001,565.5720447220001,565.5720447220001,,566.4398110540001,,,,,,,,,,,,,,,,,,,,,,,,,,,,,,left,1.0,0.8581946540000445,,,,,sub-147,1,random_dot,74.78676423852926,
right,right,53.0,1.0,26.0,right,1.0,2.3210877700000765,,speed,space,5.191509314000086,,,,,,0.0,1.0,1.0,1.0,26.0,1.0,53.0,1.0,566.4514557050002,,,,,,,,,566.4401057350001,566.7910084300001,567.5887109180001,567.5752569850001,567.5762346070001,567.5887109180001,567.5887109180001,567.5887109180001,,569.9154652,,,,,,,,,,,,,,,,,,,,,,,,,,,,,,right,1.0,2.3210877700000765,,,,,sub-147,1,random_dot,74.78676423852926,
right,right,54.0,0.0,27.0,right,1.0,2.195662420999952,,speed,space,5.191509314000086,,,,,,0.0,1.0,1.0,1.0,27.0,0.0,54.0,1.0,569.925200551,,,,,,,,,569.916083155,570.7158489020001,571.5099334890001,571.4994325,571.4998935230001,571.5099334890001,571.5099334890001,571.5099334890001,,573.7184535050001,,,,,,,,,,,,,,,,,,,,,,,,,,,,,,right,1.0,2.195662420999952,,,,,sub-147,1,random_dot,74.78676423852926,
left,left,55.0,1.0,27.0,right,0.0,4.122974210999928,,speed,space,5.191509314000086,,,,,,0.0,1.0,1.0,1.0,27.0,1.0,55.0,0.0,573.727868083,,,,,,,,,573.7189374880002,574.067739886,574.8718922750002,574.8585407540002,574.8594885120001,574.8718922750002,574.8718922750002,574.8718922750002,,579.0038595200001,,,,,,,,,,,,,,,,,,,,,,,,,,,,,,right,0.0,4.122974210999928,,,,,sub-147,1,random_dot,74.78676423852926,
left,left,56.0,0.0,28.0,left,1.0,0.9240394020000622,,speed,space,5.191509314000086,,,,,,0.0,1.0,1.0,1.0,28.0,0.0,56.0,0.0,579.013438121,,,,,,,,,579.004346099,579.354553889,580.1658335250002,580.147712422,580.1481848140002,580.1658335250002,580.1658335250002,580.1658335250002,,581.103406856,,,,,,,,,,,,,,,,,,,,,,,,,,,,,,left,1.0,0.9240394020000622,,,,,sub-147,1,random_dot,74.78676423852926,
right,right,57.0,1.0,28.0,left,0.0,2.060662171000104,,speed,space,5.191509314000086,,,,,,0.0,1.0,1.0,1.0,28.0,1.0,57.0,1.0,581.1156633990001,,,,,,,,,581.1037819340002,581.4575810240001,582.255176932,582.2417311230001,582.2427579290002,582.255176932,582.255176932,582.255176932,,584.324515664,,,,,,,,,,,,,,,,,,,,,,,,,,,,,,left,0.0,2.060662171000104,,,,,sub-147,1,random_dot,74.78676423852926,
right,right,58.0,0.0,29.0,right,1.0,4.129007349999938,,speed,space,5.191509314000086,,,,,,0.0,1.0,1.0,1.0,29.0,0.0,58.0,1.0,584.3340263160001,,,,,,,,,584.324829379,584.4243157820001,585.2285966260001,585.215838244,585.2165042940001,585.2285966260001,585.2285966260001,585.2285966260001,,589.3704929340001,,,,,,,,,,,,,,,,,,,,,,,,,,,,,,right,1.0,4.129007349999938,,,,,sub-147,1,random_dot,74.78676423852926,
left,left,59.0,1.0,29.0,left,1.0,2.438043466999943,,speed,space,5.191509314000086,,,,,,0.0,1.0,1.0,1.0,29.0,1.0,59.0,0.0,589.379943633,,,,,,,,,589.371004672,589.7173916910001,590.5322188940002,590.51428988,590.5147614510001,590.5322188940002,590.5322188940002,590.5322188940002,,592.982466315,,,,,,,,,,,,,,,,,,,,,,,,,,,,,,left,1.0,2.438043466999943,,,,,sub-147,1,random_dot,74.78676423852926,
,,1.0,1.0,0.0,,,,,speed,space,5.191509314000086,,,,,,0.0,1.0,1.0,1.0,,,,,,,,,,,,,,,,,,,,,,,,,,,,,,,,,,,,,,,,,,,,,,,,,,,,,,,,,,,,sub-147,1,random_dot,74.78676423852926,
,,,,,,,,,,,,,,,,,,,,,,,,,,,,,,,,,,,,,,,,,,,,,,,,,,,,,,,,,,,,,,,,,,,,,,,,,,,,,592.9868214800001,592.997009145,597.9834561520001,sub-147,1,random_dot,74.78676423852926,
