direction,corrAns,thisN,thisTrialN,thisRepN,respDots.keys,respDots.corr,respDots.rt,respDots.duration,randomInstr,respRandomInstr.keys,respRandomInstr.rt,respRandomInstr.duration,practice_trials.thisRepN,practice_trials.thisTrialN,practice_trials.thisN,practice_trials.thisIndex,instr_trials.thisRepN,instr_trials.thisTrialN,instr_trials.thisN,instr_trials.thisIndex,test_trials.thisRepN,test_trials.thisTrialN,test_trials.thisN,test_trials.thisIndex,thisRow.t,notes,general_instruction.started,textGeneralInstr.started,respGeneralInstr.started,general_instruction.stopped,respGeneralInstr.keys,respGeneralInstr.rt,respGeneralInstr.duration,ITI.started,fixcross.started,fixcross.stopped,ITI.stopped,dots.started,backgroundDots.started,stimulusDots.started,respDots.started,dots.stopped,practice_trials.respDots.keys,practice_trials.respDots.corr,practice_trials.respDots.rt,practice_trials.respDots.duration,feedback.started,textFeedback.started,feedback.stopped,textFeedback.stopped,info.started,textInfo.started,keyRespInfo.started,info.stopped,keyRespInfo.keys,keyRespInfo.rt,keyRespInfo.duration,test_instruction.started,textTestInstr.started,respTestInstr.started,test_instruction.stopped,respTestInstr.keys,respTestInstr.rt,respTestInstr.duration,random_instruction.started,textRandomInstr.started,respRandomInstr.started,random_instruction.stopped,instr_trials.respRandomInstr.keys,instr_trials.respRandomInstr.rt,instr_trials.respRandomInstr.duration,test_trials.respDots.keys,test_trials.respDots.corr,test_trials.respDots.rt,test_trials.respDots.duration,goodbye.started,textGoodbye.started,goodbye.stopped,participant,session,expName,frameRate,Unnamed: 86
,,,,,,,,,,,,,,,,,,,,,,,,,,,0.0123575909983628,0.0378767709989915,0.0378767709989915,184.2230567939987,space,184.0128011479992,,,,,,,,,,,,,,,,,,,,,,,,,,,,,,,,,,,,,,,,,,,,,,,sub-042,1,random_dot,60.39233651904524,
left,left,0.0,0.0,0.0,left,1.0,1.3611469389998092,,,,,,0.0,0.0,0.0,0.0,,,,,,,,,184.249227667,,,,,,,,,184.23196445099893,184.5849479159988,185.391718294999,185.36879731699992,185.3692926019994,185.391718294999,185.391718294999,185.391718294999,186.7683504529996,left,1.0,1.3611469389998092,,186.77340215799995,186.800639395,187.2850072099991,,,,,,,,,,,,,,,,,,,,,,,,,,,,,,sub-042,1,random_dot,60.39233651904524,
right,right,1.0,1.0,0.0,right,1.0,0.7939402200008772,,,,,,0.0,1.0,1.0,1.0,,,,,,,,,187.30157140099985,,,,,,,,,187.2854424919988,187.36808570599896,188.16780390499844,188.15156320999995,188.151951975,188.16780390499844,188.16780390499844,188.16780390499844,188.96916657099973,right,1.0,0.7939402200008772,,188.96929151199947,188.9848103349996,189.4687873229996,189.4849793590001,,,,,,,,,,,,,,,,,,,,,,,,,,,,,sub-042,1,random_dot,60.39233651904524,
right,right,2.0,0.0,1.0,right,1.0,1.290149169999495,,,,,,1.0,0.0,2.0,1.0,,,,,,,,,189.4849793590001,,,,,,,,,189.4691848949988,190.6850893759984,191.4847133529984,191.4678895439993,191.4681632129996,191.4847133529984,191.4847133529984,191.4847133529984,192.78552377099916,right,1.0,1.290149169999495,,192.7856187569996,192.8009736569984,193.28447234199848,193.30120997599988,,,,,,,,,,,,,,,,,,,,,,,,,,,,,sub-042,1,random_dot,60.39233651904524,
left,left,3.0,1.0,1.0,left,1.0,0.6388812140012305,,,,,,1.0,1.0,3.0,0.0,,,,,,,,,193.30120997599988,,,,,,,,,193.28471611999885,193.3853332199997,194.18421042099908,194.16835893200005,194.1687142519986,194.18421042099908,194.18421042099908,194.18421042099908,194.8359308069994,left,1.0,0.6388812140012305,,194.83604370099965,194.85079846400004,195.33556546,195.351045935,,,,,,,,,,,,,,,,,,,,,,,,,,,,,sub-042,1,random_dot,60.39233651904524,
right,right,4.0,0.0,2.0,right,1.0,0.6106420800006163,,,,,,2.0,0.0,4.0,1.0,,,,,,,,,195.351045935,,,,,,,,,195.3359134479997,195.70170716199937,196.5020314029989,196.4854939519992,196.4859445309994,196.5020314029989,196.5020314029989,196.5020314029989,197.11932238199915,right,1.0,0.6106420800006163,,197.1194082339989,197.13513553899972,197.61792898599924,197.6342210769999,,,,,,,,,,,,,,,,,,,,,,,,,,,,,sub-042,1,random_dot,60.39233651904524,
left,left,5.0,1.0,2.0,left,1.0,0.6914785659992049,,,,,,2.0,1.0,5.0,0.0,,,,,,,,,197.6342210769999,,,,,,,,,197.61817178099955,198.43488078299924,199.2353520839988,199.2188352209996,199.2192889049984,199.2353520839988,199.2353520839988,199.2353520839988,199.93578523399992,left,1.0,0.6914785659992049,,199.935916507,199.95134027699896,200.43512340399863,200.4516112729998,,,,,,,,,,,,,,,,,,,,,,,,,,,,,sub-042,1,random_dot,60.39233651904524,
left,left,6.0,0.0,3.0,left,1.0,1.135460281000633,,,,,,3.0,0.0,6.0,0.0,,,,,,,,,200.4516112729998,,,,,,,,,200.43552206299864,201.25160750599932,202.0508203219997,202.0343929089995,202.03467702299892,202.0508203219997,202.0508203219997,202.0508203219997,203.2024310429988,left,1.0,1.135460281000633,,203.202539848,203.21754705799867,203.70154774099865,203.71835658799864,,,,,,,,,,,,,,,,,,,,,,,,,,,,,sub-042,1,random_dot,60.39233651904524,
right,right,7.0,1.0,3.0,right,1.0,0.5745551460004208,,,,,,3.0,1.0,7.0,1.0,,,,,,,,,203.71835658799864,,,,,,,,,203.70185100399976,204.9014943789989,205.7019035509984,205.68508067599944,205.6855330429989,205.7019035509984,205.7019035509984,205.7019035509984,206.28546108499904,right,1.0,0.5745551460004208,,206.28554664900005,206.3012490479996,206.78518563299983,206.80128827399855,,,,,,,,,,,,,,,,,,,,,,,,,,,,,sub-042,1,random_dot,60.39233651904524,
left,left,8.0,0.0,4.0,left,1.0,0.6735551479996502,,,,,,4.0,0.0,8.0,0.0,,,,,,,,,206.80128827399855,,,,,,,,,206.78547352399983,207.1514980799984,207.9509647249997,207.9348011559996,207.93519324899896,207.9509647249997,207.9509647249997,207.9509647249997,208.6356526159998,left,1.0,0.6735551479996502,,208.6357734099984,208.65083547499853,209.1341687569984,209.1505232189993,,,,,,,,,,,,,,,,,,,,,,,,,,,,,sub-042,1,random_dot,60.39233651904524,
right,right,9.0,1.0,4.0,right,1.0,0.639088351999817,,,,,,4.0,1.0,9.0,1.0,,,,,,,,,209.1505232189993,,,,,,,,,209.13441011399848,209.9515350269994,210.75122373799968,210.7347803699995,210.73522653100008,210.75122373799968,210.75122373799968,210.75122373799968,211.4018480819996,right,1.0,0.639088351999817,,211.40200510700012,211.4175642310001,211.9017631549996,211.91817056499892,,,,,,,,,,,,,,,,,,,,,,,,,,,,,sub-042,1,random_dot,60.39233651904524,
left,left,10.0,0.0,5.0,left,1.0,0.6165141399997083,,,,,,5.0,0.0,10.0,0.0,,,,,,,,,211.91817056499892,,,,,,,,,211.90217500699876,212.001509316,212.80147493000004,212.7850857149988,212.78554327299932,212.80147493000004,212.80147493000004,212.80147493000004,213.41913889899843,left,1.0,0.6165141399997083,,213.41925407499912,213.43450836599916,213.91857825999975,213.93482009599936,,,,,,,,,,,,,,,,,,,,,,,,,,,,,sub-042,1,random_dot,60.39233651904524,
right,right,11.0,1.0,5.0,right,1.0,0.5294633630001044,,,,,,5.0,1.0,11.0,1.0,,,,,,,,,213.93482009599936,,,,,,,,,213.91897949399936,215.11795566599903,215.91858993799903,215.90239707599903,215.90285218299869,215.91858993799903,215.91858993799903,215.91858993799903,216.45204199199907,right,1.0,0.5294633630001044,,216.45212950799944,216.46766109799864,216.95180169499872,216.96818007,,,,,,,,,,,,,,,,,,,,,,,,,,,,,sub-042,1,random_dot,60.39233651904524,
right,right,12.0,0.0,6.0,right,1.0,0.6696646600012173,,,,,,6.0,0.0,12.0,1.0,,,,,,,,,216.96818007,,,,,,,,,216.95223692199943,218.1514052899984,218.95131575399864,218.93454164099967,218.9348496919993,218.95131575399864,218.95131575399864,218.95131575399864,219.63583373599977,right,1.0,0.6696646600012173,,219.6359407309992,219.65119324199983,220.1353988719984,220.15155332199905,,,,,,,,,,,,,,,,,,,,,,,,,,,,,sub-042,1,random_dot,60.39233651904524,
left,left,13.0,1.0,6.0,left,1.0,0.5704413350013056,,,,,,6.0,1.0,13.0,0.0,,,,,,,,,220.15155332199905,,,,,,,,,220.13581367999905,220.2515135509984,221.05142365499887,221.03487090599992,221.0352231379984,221.05142365499887,221.05142365499887,221.05142365499887,221.63531062699985,left,1.0,0.5704413350013056,,221.635420224,221.651027943999,222.1342893479996,222.15061491599957,,,,,,,,,,,,,,,,,,,,,,,,,,,,,sub-042,1,random_dot,60.39233651904524,
left,left,14.0,0.0,7.0,left,1.0,0.5756507149999379,,,,,,7.0,0.0,14.0,0.0,,,,,,,,,222.15061491599957,,,,,,,,,222.1346480409993,222.2513915999989,223.05032812599893,223.03400166899883,223.0342710360001,223.05032812599893,223.05032812599893,223.05032812599893,223.6348164819992,left,1.0,0.5756507149999379,,223.63490636299863,223.65089626400004,224.1345983859992,224.1513753619984,,,,,,,,,,,,,,,,,,,,,,,,,,,,,sub-042,1,random_dot,60.39233651904524,
right,right,15.0,1.0,7.0,right,1.0,0.4652271109989669,,,,,,7.0,1.0,15.0,1.0,,,,,,,,,224.1513753619984,,,,,,,,,224.1348904289989,225.33464234999883,226.1343610119984,226.11772681799997,226.1180525639993,226.1343610119984,226.1343610119984,226.1343610119984,226.6020731619992,right,1.0,0.4652271109989669,,226.6022155350001,226.61685377899997,227.10169780999968,227.11775708999997,,,,,,,,,,,,,,,,,,,,,,,,,,,,,sub-042,1,random_dot,60.39233651904524,
right,right,16.0,0.0,8.0,right,1.0,1.1526352680011769,,,,,,8.0,0.0,16.0,1.0,,,,,,,,,227.11775708999997,,,,,,,,,227.10196537699997,227.20150899100008,228.0003210399991,227.9842080219987,227.9846724169984,228.0003210399991,228.0003210399991,228.0003210399991,229.16790721699908,right,1.0,1.1526352680011769,,229.16799514899867,229.1833589499984,229.6678645510001,229.68399163899997,,,,,,,,,,,,,,,,,,,,,,,,,,,,,sub-042,1,random_dot,60.39233651904524,
left,left,17.0,1.0,8.0,left,1.0,0.5052865739999106,,,,,,8.0,1.0,17.0,0.0,,,,,,,,,229.68399163899997,,,,,,,,,229.6682794929984,230.46759603399917,231.2675115849997,231.2509337349984,231.2513069509987,231.2675115849997,231.2675115849997,231.2675115849997,231.78463484099848,left,1.0,0.5052865739999106,,231.78472132099887,231.8009605339994,232.28455685799963,232.30080172099952,,,,,,,,,,,,,,,,,,,,,,,,,,,,,sub-042,1,random_dot,60.39233651904524,
left,left,18.0,0.0,9.0,left,1.0,0.6573205509994295,,,,,,9.0,0.0,18.0,0.0,,,,,,,,,232.30080172099952,,,,,,,,,232.2849741709997,232.634201638999,233.43435813199903,233.4178736289996,233.4183401319988,233.43435813199903,233.43435813199903,233.43435813199903,234.10202834199845,left,1.0,0.6573205509994295,,234.10217925599864,234.11752126699864,234.601079606,234.617721573999,,,,,,,,,,,,,,,,,,,,,,,,,,,,,sub-042,1,random_dot,60.39233651904524,
right,right,19.0,1.0,9.0,right,1.0,0.601894342000378,,,,,,9.0,1.0,19.0,1.0,,,,,,,,,234.617721573999,,,,,,,,,234.6014412649984,234.96792255199944,235.76808980299936,235.75154756499975,235.75201637200007,235.76808980299936,235.76808980299936,235.76808980299936,236.3852055849984,right,1.0,0.601894342000378,,236.3852914989984,236.4008368199993,236.8848799389998,236.90089726399856,,,,,,,,,,,,,,,,,,,,,,,,,,,,,sub-042,1,random_dot,60.39233651904524,
,,,,,,,,,,,,,,,,,,,,,,,,,,,,,,,,,,,,,,,,,,,,,,,,,,,236.8850405059984,236.90089726399856,236.90089726399856,262.1018402479985,space,25.18746456699955,,,,,,,,,,,,,,,,,,,,,,,sub-042,1,random_dot,60.39233651904524,
,,,,,,,,,,,,,,,,,,,,,,,,,,,,,,,,,,,,,,,,,,,,,,,,,,,,,,,,,,262.10194123399924,262.11852509799974,262.11852509799974,263.3349748869987,space,1.1994306050000887,,,,,,,,,,,,,,,,sub-042,1,random_dot,60.39233651904524,
right,right,0.0,0.0,0.0,right,1.0,0.8475026369997067,,accuracy,space,1.0480252529996503,,,,,,0.0,0.0,0.0,0.0,0.0,0.0,0.0,1.0,264.4537601529992,,,,,,,,,264.44111763099863,264.7837656889988,265.5852530759985,265.568095183,265.56855727199945,265.5852530759985,265.5852530759985,265.5852530759985,266.4340540969988,,,,,,,,,,,,,,,,,,,,,,,263.3593725589999,263.3733764459994,263.3733764459994,264.4345211309992,space,1.0480252529996503,,right,1.0,0.8475026369997067,,,,,sub-042,1,random_dot,60.39233651904524,
left,left,1.0,1.0,0.0,left,1.0,0.8197448640003131,,accuracy,space,1.0480252529996503,,,,,,0.0,0.0,0.0,0.0,0.0,1.0,1.0,0.0,266.449982660999,,,,,,,,,266.43449269399935,267.2337873359993,268.0339930800001,268.0173229920001,268.0177729139996,268.0339930800001,268.0339930800001,268.0339930800001,268.8676334069987,,,,,,,,,,,,,,,,,,,,,,,,,,,,,,left,1.0,0.8197448640003131,,,,,sub-042,1,random_dot,60.39233651904524,
left,left,2.0,0.0,1.0,left,1.0,0.9542572549999022,,accuracy,space,1.0480252529996503,,,,,,0.0,0.0,0.0,0.0,1.0,0.0,2.0,0.0,268.8836344979991,,,,,,,,,268.8679306639988,269.23363174599945,270.0338588649993,270.01726393399986,270.01771708900014,270.0338588649993,270.0338588649993,270.0338588649993,271.0012907709988,,,,,,,,,,,,,,,,,,,,,,,,,,,,,,left,1.0,0.9542572549999022,,,,,sub-042,1,random_dot,60.39233651904524,
right,right,3.0,1.0,1.0,right,1.0,0.6872972920009488,,accuracy,space,1.0480252529996503,,,,,,0.0,0.0,0.0,0.0,1.0,1.0,3.0,1.0,271.0161993819984,,,,,,,,,271.001590721,271.11697710299995,271.9173574059987,271.90033222199963,271.9008527089991,271.9173574059987,271.9173574059987,271.9173574059987,272.61807827899975,,,,,,,,,,,,,,,,,,,,,,,,,,,,,,right,1.0,0.6872972920009488,,,,,sub-042,1,random_dot,60.39233651904524,
right,right,4.0,0.0,2.0,left,0.0,1.033009234999554,,accuracy,space,1.0480252529996503,,,,,,0.0,0.0,0.0,0.0,2.0,0.0,4.0,1.0,272.63349198299875,,,,,,,,,272.6183750479995,272.9829863099985,273.78362793499946,273.7672529489992,273.76770392899925,273.78362793499946,273.78362793499946,273.78362793499946,274.8180666449989,,,,,,,,,,,,,,,,,,,,,,,,,,,,,,left,0.0,1.033009234999554,,,,,sub-042,1,random_dot,60.39233651904524,
left,left,5.0,1.0,2.0,left,1.0,1.391164992000995,,accuracy,space,1.0480252529996503,,,,,,0.0,0.0,0.0,0.0,2.0,1.0,5.0,0.0,274.8336463129999,,,,,,,,,274.81843195999863,276.03379316299834,276.83400191500004,276.8177202429997,276.81817895099994,276.83400191500004,276.83400191500004,276.83400191500004,278.23452058600014,,,,,,,,,,,,,,,,,,,,,,,,,,,,,,left,1.0,1.391164992000995,,,,,sub-042,1,random_dot,60.39233651904524,
right,right,6.0,0.0,3.0,right,1.0,0.894187392999811,,accuracy,space,1.0480252529996503,,,,,,0.0,0.0,0.0,0.0,3.0,0.0,6.0,1.0,278.2502726679995,,,,,,,,,278.2348103299992,278.58403086699946,279.3831565089986,279.3666349289997,279.36691889099893,279.3831565089986,279.3831565089986,279.3831565089986,280.284411224,,,,,,,,,,,,,,,,,,,,,,,,,,,,,,right,1.0,0.894187392999811,,,,,sub-042,1,random_dot,60.39233651904524,
left,left,7.0,1.0,3.0,left,1.0,0.7099150319991168,,accuracy,space,1.0480252529996503,,,,,,0.0,0.0,0.0,0.0,3.0,1.0,7.0,0.0,280.30035404999944,,,,,,,,,280.2847085509984,280.6339075399992,281.4343713749986,281.4175570769985,281.4180914489989,281.4343713749986,281.4343713749986,281.4343713749986,282.151490581,,,,,,,,,,,,,,,,,,,,,,,,,,,,,,left,1.0,0.7099150319991168,,,,,sub-042,1,random_dot,60.39233651904524,
left,left,8.0,0.0,4.0,left,1.0,0.7649839879995852,,accuracy,space,1.0480252529996503,,,,,,0.0,0.0,0.0,0.0,4.0,0.0,8.0,0.0,282.16721661500014,,,,,,,,,282.1517907899997,282.51700543900006,283.3171298419984,283.3007183919999,283.30118658799984,283.3171298419984,283.3171298419984,283.3171298419984,284.0841092819992,,,,,,,,,,,,,,,,,,,,,,,,,,,,,,left,1.0,0.7649839879995852,,,,,sub-042,1,random_dot,60.39233651904524,
right,right,9.0,1.0,4.0,right,1.0,0.6570179580012336,,accuracy,space,1.0480252529996503,,,,,,0.0,0.0,0.0,0.0,4.0,1.0,9.0,1.0,284.1002158909996,,,,,,,,,284.08441729399965,284.43364230899897,285.23440175699943,285.2174672639994,285.21791985299933,285.23440175699943,285.23440175699943,285.23440175699943,285.90111413499835,,,,,,,,,,,,,,,,,,,,,,,,,,,,,,right,1.0,0.6570179580012336,,,,,sub-042,1,random_dot,60.39233651904524,
left,left,10.0,0.0,5.0,left,1.0,0.6630963150000753,,accuracy,space,1.0480252529996503,,,,,,0.0,0.0,0.0,0.0,5.0,0.0,10.0,0.0,285.9169498299998,,,,,,,,,285.9014652360001,286.26887555399844,287.0841749430001,287.0671398909999,287.0676098219992,287.0841749430001,287.0841749430001,287.0841749430001,287.7508280149996,,,,,,,,,,,,,,,,,,,,,,,,,,,,,,left,1.0,0.6630963150000753,,,,,sub-042,1,random_dot,60.39233651904524,
right,right,11.0,1.0,5.0,right,1.0,0.6749576790007268,,accuracy,space,1.0480252529996503,,,,,,0.0,0.0,0.0,0.0,5.0,1.0,11.0,1.0,287.7665717109994,,,,,,,,,287.75131300199973,287.85008357100014,288.65020283899867,288.63386206999894,288.6343139169985,288.65020283899867,288.65020283899867,288.65020283899867,289.3337857959996,,,,,,,,,,,,,,,,,,,,,,,,,,,,,,right,1.0,0.6749576790007268,,,,,sub-042,1,random_dot,60.39233651904524,
right,right,12.0,0.0,6.0,right,1.0,1.2229191760015965,,accuracy,space,1.0480252529996503,,,,,,0.0,0.0,0.0,0.0,6.0,0.0,12.0,1.0,289.349727290999,,,,,,,,,289.3340911719988,290.133500893,290.9333831269996,290.91700044499885,290.9174572020001,290.9333831269996,290.9333831269996,290.9333831269996,292.1675357139993,,,,,,,,,,,,,,,,,,,,,,,,,,,,,,right,1.0,1.2229191760015965,,,,,sub-042,1,random_dot,60.39233651904524,
left,left,13.0,1.0,6.0,left,1.0,0.7770803330004128,,accuracy,space,1.0480252529996503,,,,,,0.0,0.0,0.0,0.0,6.0,1.0,13.0,0.0,292.1838465719993,,,,,,,,,292.1679503589985,292.533410480999,293.33311530299943,293.3162334640001,293.3165138409986,293.33311530299943,293.33311530299943,293.33311530299943,294.1172126009988,,,,,,,,,,,,,,,,,,,,,,,,,,,,,,left,1.0,0.7770803330004128,,,,,sub-042,1,random_dot,60.39233651904524,
left,left,14.0,0.0,7.0,right,0.0,0.9189887630000158,,accuracy,space,1.0480252529996503,,,,,,0.0,0.0,0.0,0.0,7.0,0.0,14.0,0.0,294.1324894699992,,,,,,,,,294.11751323299904,294.2167284799998,295.0168776589999,295.000443506,295.0009350499986,295.0168776589999,295.0168776589999,295.0168776589999,295.9514632859991,,,,,,,,,,,,,,,,,,,,,,,,,,,,,,right,0.0,0.9189887630000158,,,,,sub-042,1,random_dot,60.39233651904524,
right,right,15.0,1.0,7.0,right,1.0,0.7521059410009912,,accuracy,space,1.0480252529996503,,,,,,0.0,0.0,0.0,0.0,7.0,1.0,15.0,1.0,295.966306979999,,,,,,,,,295.9519051039988,296.06676866899943,296.8667296939984,296.85031207499924,296.85078176999923,296.8667296939984,296.8667296939984,296.8667296939984,297.63443826,,,,,,,,,,,,,,,,,,,,,,,,,,,,,,right,1.0,0.7521059410009912,,,,,sub-042,1,random_dot,60.39233651904524,
left,left,16.0,0.0,8.0,left,1.0,2.5346854140007054,,accuracy,space,1.0480252529996503,,,,,,0.0,0.0,0.0,0.0,8.0,0.0,16.0,0.0,297.6499296359998,,,,,,,,,297.63479058399935,297.74984766499983,298.5500437649989,298.5335551499993,298.5340303949997,298.5500437649989,298.5500437649989,298.5500437649989,301.10109464999914,,,,,,,,,,,,,,,,,,,,,,,,,,,,,,left,1.0,2.5346854140007054,,,,,sub-042,1,random_dot,60.39233651904524,
right,right,17.0,1.0,8.0,right,1.0,0.671050519000346,,accuracy,space,1.0480252529996503,,,,,,0.0,0.0,0.0,0.0,8.0,1.0,17.0,1.0,301.11656474399933,,,,,,,,,301.101561477999,301.9161015739992,302.71672018999925,302.7001353479991,302.7005852429993,302.71672018999925,302.71672018999925,302.71672018999925,303.4004931519994,,,,,,,,,,,,,,,,,,,,,,,,,,,,,,right,1.0,0.671050519000346,,,,,sub-042,1,random_dot,60.39233651904524,
left,left,18.0,0.0,9.0,left,1.0,1.2549435169985372,,accuracy,space,1.0480252529996503,,,,,,0.0,0.0,0.0,0.0,9.0,0.0,18.0,0.0,303.41622269099935,,,,,,,,,303.4007922429992,304.2166648629991,305.01685613599875,305.0002132069985,305.0007722039991,305.01685613599875,305.01685613599875,305.01685613599875,306.283487839999,,,,,,,,,,,,,,,,,,,,,,,,,,,,,,left,1.0,1.2549435169985372,,,,,sub-042,1,random_dot,60.39233651904524,
right,right,19.0,1.0,9.0,right,1.0,0.6785161360003258,,accuracy,space,1.0480252529996503,,,,,,0.0,0.0,0.0,0.0,9.0,1.0,19.0,1.0,306.2993155589993,,,,,,,,,306.28379769299863,307.0831930289987,307.88318367600004,307.86705042299945,307.8675022769985,307.88318367600004,307.88318367600004,307.88318367600004,308.567330807,,,,,,,,,,,,,,,,,,,,,,,,,,,,,,right,1.0,0.6785161360003258,,,,,sub-042,1,random_dot,60.39233651904524,
left,left,20.0,0.0,10.0,left,1.0,0.8282914880001044,,accuracy,space,1.0480252529996503,,,,,,0.0,0.0,0.0,0.0,10.0,0.0,20.0,0.0,308.5826536989989,,,,,,,,,308.56779840799936,309.36657614199976,310.166367668,310.1501704069997,310.1506204019988,310.166367668,310.166367668,310.166367668,311.00004157999865,,,,,,,,,,,,,,,,,,,,,,,,,,,,,,left,1.0,0.8282914880001044,,,,,sub-042,1,random_dot,60.39233651904524,
right,right,21.0,1.0,10.0,right,1.0,0.7998798809985601,,accuracy,space,1.0480252529996503,,,,,,0.0,0.0,0.0,0.0,10.0,1.0,21.0,1.0,311.0163957589993,,,,,,,,,311.0003512889998,311.10019615799865,311.899197322,311.8828596929998,311.8832664819984,311.899197322,311.899197322,311.899197322,312.70067516199924,,,,,,,,,,,,,,,,,,,,,,,,,,,,,,right,1.0,0.7998798809985601,,,,,sub-042,1,random_dot,60.39233651904524,
right,right,22.0,0.0,11.0,right,1.0,1.3365734700000758,,accuracy,space,1.0480252529996503,,,,,,0.0,0.0,0.0,0.0,11.0,0.0,22.0,1.0,312.71677911699953,,,,,,,,,312.7011112269993,313.4998012830001,314.2993294379994,314.2830337179985,314.2833142339987,314.2993294379994,314.2993294379994,314.2993294379994,315.6502146949988,,,,,,,,,,,,,,,,,,,,,,,,,,,,,,right,1.0,1.3365734700000758,,,,,sub-042,1,random_dot,60.39233651904524,
left,left,23.0,1.0,11.0,left,1.0,3.100420064998616,,accuracy,space,1.0480252529996503,,,,,,0.0,0.0,0.0,0.0,11.0,1.0,23.0,0.0,315.6666097999987,,,,,,,,,315.65065707899885,316.849689278999,317.6497808799995,317.63335428199935,317.6338060829985,317.6497808799995,317.6497808799995,317.6497808799995,320.76761268299924,,,,,,,,,,,,,,,,,,,,,,,,,,,,,,left,1.0,3.100420064998616,,,,,sub-042,1,random_dot,60.39233651904524,
right,right,24.0,0.0,12.0,right,1.0,0.6285341980001249,,accuracy,space,1.0480252529996503,,,,,,0.0,0.0,0.0,0.0,12.0,0.0,24.0,1.0,320.7830296100001,,,,,,,,,320.7681498699985,320.882623346999,321.6821468809994,321.6658822270001,321.66615483699934,321.6821468809994,321.6821468809994,321.6821468809994,322.31776283399995,,,,,,,,,,,,,,,,,,,,,,,,,,,,,,right,1.0,0.6285341980001249,,,,,sub-042,1,random_dot,60.39233651904524,
left,left,25.0,1.0,12.0,left,1.0,0.7686654669996642,,accuracy,space,1.0480252529996503,,,,,,0.0,0.0,0.0,0.0,12.0,1.0,25.0,0.0,322.33280920200013,,,,,,,,,322.31810849700014,323.5330054979986,324.33275731699905,324.3167679580001,324.31704980299946,324.33275731699905,324.33275731699905,324.33275731699905,325.1175961499994,,,,,,,,,,,,,,,,,,,,,,,,,,,,,,left,1.0,0.7686654669996642,,,,,sub-042,1,random_dot,60.39233651904524,
left,left,26.0,0.0,13.0,left,1.0,1.072409852000419,,accuracy,space,1.0480252529996503,,,,,,0.0,0.0,0.0,0.0,13.0,0.0,26.0,0.0,325.1330078079991,,,,,,,,,325.1181289159995,325.48297340299905,326.2822733989997,326.2660640689992,326.26645088499936,326.2822733989997,326.2822733989997,326.2822733989997,327.3671738489993,,,,,,,,,,,,,,,,,,,,,,,,,,,,,,left,1.0,1.072409852000419,,,,,sub-042,1,random_dot,60.39233651904524,
right,right,27.0,1.0,13.0,right,1.0,0.6839888920003432,,accuracy,space,1.0480252529996503,,,,,,0.0,0.0,0.0,0.0,13.0,1.0,27.0,1.0,327.38274463999915,,,,,,,,,327.36747679399923,328.16616169699955,328.9663944039985,328.9498076279997,328.95025631499993,328.9663944039985,328.9663944039985,328.9663944039985,329.6675654489991,,,,,,,,,,,,,,,,,,,,,,,,,,,,,,right,1.0,0.6839888920003432,,,,,sub-042,1,random_dot,60.39233651904524,
right,right,28.0,0.0,14.0,left,0.0,2.0611890079999284,,accuracy,space,1.0480252529996503,,,,,,0.0,0.0,0.0,0.0,14.0,0.0,28.0,1.0,329.68292822699914,,,,,,,,,329.66807525699915,329.78278911599955,330.58211313899847,330.5658451349991,330.5661247989992,330.58211313899847,330.58211313899847,330.58211313899847,332.65066218899847,,,,,,,,,,,,,,,,,,,,,,,,,,,,,,left,0.0,2.0611890079999284,,,,,sub-042,1,random_dot,60.39233651904524,
left,left,29.0,1.0,14.0,right,0.0,1.3520452619995922,,accuracy,space,1.0480252529996503,,,,,,0.0,0.0,0.0,0.0,14.0,1.0,29.0,0.0,332.666097112,,,,,,,,,332.6509631190001,333.016184397,333.8162037739985,333.7998389919994,333.8002908319995,333.8162037739985,333.8162037739985,333.8162037739985,335.1840598159997,,,,,,,,,,,,,,,,,,,,,,,,,,,,,,right,0.0,1.3520452619995922,,,,,sub-042,1,random_dot,60.39233651904524,
left,left,30.0,0.0,15.0,left,1.0,1.132139338998968,,accuracy,space,1.0480252529996503,,,,,,0.0,0.0,0.0,0.0,15.0,0.0,30.0,0.0,335.19950213099946,,,,,,,,,335.1844173829995,335.29948697500004,336.099965247,336.08292741399964,336.0833865929999,336.099965247,336.099965247,336.099965247,337.2332960049989,,,,,,,,,,,,,,,,,,,,,,,,,,,,,,left,1.0,1.132139338998968,,,,,sub-042,1,random_dot,60.39233651904524,
right,right,31.0,1.0,15.0,right,1.0,0.6073439600004349,,accuracy,space,1.0480252529996503,,,,,,0.0,0.0,0.0,0.0,15.0,1.0,31.0,1.0,337.24883079999927,,,,,,,,,337.2337449159986,338.032832121,338.8328085919984,338.8164583849993,338.8169157879984,338.8328085919984,338.8328085919984,338.8328085919984,339.4497943639999,,,,,,,,,,,,,,,,,,,,,,,,,,,,,,right,1.0,0.6073439600004349,,,,,sub-042,1,random_dot,60.39233651904524,
left,left,32.0,0.0,16.0,left,1.0,1.0326321450011164,,accuracy,space,1.0480252529996503,,,,,,0.0,0.0,0.0,0.0,16.0,0.0,32.0,0.0,339.4652555499997,,,,,,,,,339.450202308999,340.24935093800013,341.0493450969989,341.0329532420001,341.03341175199967,341.0493450969989,341.0493450969989,341.0493450969989,342.08376357499947,,,,,,,,,,,,,,,,,,,,,,,,,,,,,,left,1.0,1.0326321450011164,,,,,sub-042,1,random_dot,60.39233651904524,
right,right,33.0,1.0,16.0,right,1.0,0.6737817399989581,,accuracy,space,1.0480252529996503,,,,,,0.0,0.0,0.0,0.0,16.0,1.0,33.0,1.0,342.09924190999845,,,,,,,,,342.08416095899884,342.4495312829986,343.2494325049993,343.23307772099906,343.2335284239998,343.2494325049993,343.2494325049993,343.2494325049993,343.9335633649989,,,,,,,,,,,,,,,,,,,,,,,,,,,,,,right,1.0,0.6737817399989581,,,,,sub-042,1,random_dot,60.39233651904524,
right,right,34.0,0.0,17.0,right,1.0,1.3073185949997423,,accuracy,space,1.0480252529996503,,,,,,0.0,0.0,0.0,0.0,17.0,0.0,34.0,1.0,343.9484526339984,,,,,,,,,343.9339740939995,344.03272375399865,344.83277117099897,344.8162849239998,344.81673482099905,344.83277117099897,344.83277117099897,344.83277117099897,346.14972944500005,,,,,,,,,,,,,,,,,,,,,,,,,,,,,,right,1.0,1.3073185949997423,,,,,sub-042,1,random_dot,60.39233651904524,
left,left,35.0,1.0,17.0,right,0.0,1.9664427980005712,,accuracy,space,1.0480252529996503,,,,,,0.0,0.0,0.0,0.0,17.0,1.0,35.0,0.0,346.1659578969993,,,,,,,,,346.15003584999977,346.4992707749989,347.2994307749996,347.2830070759992,347.28346094799963,347.2994307749996,347.2994307749996,347.2994307749996,349.26710905399887,,,,,,,,,,,,,,,,,,,,,,,,,,,,,,right,0.0,1.9664427980005712,,,,,sub-042,1,random_dot,60.39233651904524,
right,right,36.0,0.0,18.0,left,0.0,2.782724312000937,,accuracy,space,1.0480252529996503,,,,,,0.0,0.0,0.0,0.0,18.0,0.0,36.0,1.0,349.2824419789995,,,,,,,,,349.26751903999866,350.48227922099977,351.2828498759991,351.2663682949988,351.2668243319986,351.2828498759991,351.2828498759991,351.2828498759991,354.06718570999874,,,,,,,,,,,,,,,,,,,,,,,,,,,,,,left,0.0,2.782724312000937,,,,,sub-042,1,random_dot,60.39233651904524,
left,left,37.0,1.0,18.0,left,1.0,2.464841719000105,,accuracy,space,1.0480252529996503,,,,,,0.0,0.0,0.0,0.0,18.0,1.0,37.0,0.0,354.0822995159997,,,,,,,,,354.0675140009989,354.43242100799944,355.2326006049989,355.2160406519997,355.2163748969997,355.2326006049989,355.2326006049989,355.2326006049989,357.699804029,,,,,,,,,,,,,,,,,,,,,,,,,,,,,,left,1.0,2.464841719000105,,,,,sub-042,1,random_dot,60.39233651904524,
left,left,38.0,0.0,19.0,left,1.0,1.374948910999592,,accuracy,space,1.0480252529996503,,,,,,0.0,0.0,0.0,0.0,19.0,0.0,38.0,0.0,357.71557251899867,,,,,,,,,357.70030210599907,358.89951695799937,359.6991160669986,359.6828672020001,359.68332642599853,359.6991160669986,359.6991160669986,359.6991160669986,361.082695011999,,,,,,,,,,,,,,,,,,,,,,,,,,,,,,left,1.0,1.374948910999592,,,,,sub-042,1,random_dot,60.39233651904524,
right,right,39.0,1.0,19.0,right,1.0,0.6744370070009609,,accuracy,space,1.0480252529996503,,,,,,0.0,0.0,0.0,0.0,19.0,1.0,39.0,1.0,361.09918941199976,,,,,,,,,361.0829892359998,361.4324954799995,362.2316902029997,362.2152174719995,362.21549106899874,362.2316902029997,362.2316902029997,362.2316902029997,362.9167397609999,,,,,,,,,,,,,,,,,,,,,,,,,,,,,,right,1.0,0.6744370070009609,,,,,sub-042,1,random_dot,60.39233651904524,
left,left,40.0,0.0,20.0,right,0.0,2.955161935000433,,accuracy,space,1.0480252529996503,,,,,,0.0,0.0,0.0,0.0,20.0,0.0,40.0,0.0,362.9323052839991,,,,,,,,,362.91705895499945,363.28231749599945,364.0822273449994,364.0655403509991,364.06581517299855,364.0822273449994,364.0822273449994,364.0822273449994,367.0497372439986,,,,,,,,,,,,,,,,,,,,,,,,,,,,,,right,0.0,2.955161935000433,,,,,sub-042,1,random_dot,60.39233651904524,
right,right,41.0,1.0,20.0,right,1.0,0.8368119419992581,,accuracy,space,1.0480252529996503,,,,,,0.0,0.0,0.0,0.0,20.0,1.0,41.0,1.0,367.0656053169987,,,,,,,,,367.05004356099926,367.39902634899954,368.1982892899996,368.182611622,368.1829525919984,368.1982892899996,368.1982892899996,368.1982892899996,369.0492705969991,,,,,,,,,,,,,,,,,,,,,,,,,,,,,,right,1.0,0.8368119419992581,,,,,sub-042,1,random_dot,60.39233651904524,
left,left,42.0,0.0,21.0,left,1.0,0.8017587970007298,,accuracy,space,1.0480252529996503,,,,,,0.0,0.0,0.0,0.0,21.0,0.0,42.0,0.0,369.0652636689993,,,,,,,,,369.04957178899895,370.2490228269999,371.0489377859994,371.0327134660001,371.0331826009988,371.0489377859994,371.0489377859994,371.0489377859994,371.8657228519987,,,,,,,,,,,,,,,,,,,,,,,,,,,,,,left,1.0,0.8017587970007298,,,,,sub-042,1,random_dot,60.39233651904524,
right,right,43.0,1.0,21.0,right,1.0,0.787914432999969,,accuracy,space,1.0480252529996503,,,,,,0.0,0.0,0.0,0.0,21.0,1.0,43.0,1.0,371.8815026579996,,,,,,,,,371.8660164180001,372.6649293949995,373.4659092919992,373.449336018999,373.44979144199897,373.4659092919992,373.4659092919992,373.4659092919992,374.2668816879996,,,,,,,,,,,,,,,,,,,,,,,,,,,,,,right,1.0,0.787914432999969,,,,,sub-042,1,random_dot,60.39233651904524,
right,right,44.0,0.0,22.0,left,0.0,0.6496819019994291,,accuracy,space,1.0480252529996503,,,,,,0.0,0.0,0.0,0.0,22.0,0.0,44.0,1.0,374.2821210959992,,,,,,,,,374.267242893,375.0823528619985,375.8822145629984,375.8660745090001,375.86653058199954,375.8822145629984,375.8822145629984,375.8822145629984,376.5330361369997,,,,,,,,,,,,,,,,,,,,,,,,,,,,,,left,0.0,0.6496819019994291,,,,,sub-042,1,random_dot,60.39233651904524,
left,left,45.0,1.0,22.0,left,1.0,1.3950557200005278,,accuracy,space,1.0480252529996503,,,,,,0.0,0.0,0.0,0.0,22.0,1.0,45.0,0.0,376.548504073,,,,,,,,,376.5334569529987,376.6488352269989,377.44871088999935,377.4316495369985,377.43192466099936,377.44871088999935,377.44871088999935,377.44871088999935,378.8492287149984,,,,,,,,,,,,,,,,,,,,,,,,,,,,,,left,1.0,1.3950557200005278,,,,,sub-042,1,random_dot,60.39233651904524,
right,right,46.0,0.0,23.0,right,1.0,0.5997710230003577,,accuracy,space,1.0480252529996503,,,,,,0.0,0.0,0.0,0.0,23.0,0.0,46.0,1.0,378.86537698199936,,,,,,,,,378.8495188589986,379.6488463529986,380.448953571,380.4322340189992,380.432561566,380.448953571,380.448953571,380.448953571,381.0498097339987,,,,,,,,,,,,,,,,,,,,,,,,,,,,,,right,1.0,0.5997710230003577,,,,,sub-042,1,random_dot,60.39233651904524,
left,left,47.0,1.0,23.0,left,1.0,1.641047298000558,,accuracy,space,1.0480252529996503,,,,,,0.0,0.0,0.0,0.0,23.0,1.0,47.0,0.0,381.0651453139999,,,,,,,,,381.0502120379988,381.8656255829992,382.6654433629992,382.6491985089997,382.64965528299945,382.6654433629992,382.6654433629992,382.6654433629992,384.316590159,,,,,,,,,,,,,,,,,,,,,,,,,,,,,,left,1.0,1.641047298000558,,,,,sub-042,1,random_dot,60.39233651904524,
right,right,48.0,0.0,24.0,right,1.0,0.6694703180000943,,accuracy,space,1.0480252529996503,,,,,,0.0,0.0,0.0,0.0,24.0,0.0,48.0,1.0,384.3319476199995,,,,,,,,,384.3169484109985,384.43200039899966,385.2330073799985,385.2162060789997,385.2167085699985,385.2330073799985,385.2330073799985,385.2330073799985,385.9166925149984,,,,,,,,,,,,,,,,,,,,,,,,,,,,,,right,1.0,0.6694703180000943,,,,,sub-042,1,random_dot,60.39233651904524,
left,left,49.0,1.0,24.0,left,1.0,1.354912520999278,,accuracy,space,1.0480252529996503,,,,,,0.0,0.0,0.0,0.0,24.0,1.0,49.0,0.0,385.931820157999,,,,,,,,,385.9171457649991,386.2653520749991,387.0666573019989,387.0495001449999,387.0501575929993,387.0666573019989,387.0666573019989,387.0666573019989,388.4326216139998,,,,,,,,,,,,,,,,,,,,,,,,,,,,,,left,1.0,1.354912520999278,,,,,sub-042,1,random_dot,60.39233651904524,
right,right,50.0,0.0,25.0,right,1.0,0.6117361849992449,,accuracy,space,1.0480252529996503,,,,,,0.0,0.0,0.0,0.0,25.0,0.0,50.0,1.0,388.44853162099935,,,,,,,,,388.4329217909999,389.6325680769987,390.43176264700014,390.4155112219996,390.415785485,390.43176264700014,390.43176264700014,390.43176264700014,391.050324079999,,,,,,,,,,,,,,,,,,,,,,,,,,,,,,right,1.0,0.6117361849992449,,,,,sub-042,1,random_dot,60.39233651904524,
left,left,51.0,1.0,25.0,left,1.0,0.8296032710004511,,accuracy,space,1.0480252529996503,,,,,,0.0,0.0,0.0,0.0,25.0,1.0,51.0,0.0,391.0655591509985,,,,,,,,,391.0506190899996,392.2656176780001,393.0657878859984,393.0493438549984,393.04979749799895,393.0657878859984,393.0657878859984,393.0657878859984,393.8998106339986,,,,,,,,,,,,,,,,,,,,,,,,,,,,,,left,1.0,0.8296032710004511,,,,,sub-042,1,random_dot,60.39233651904524,
left,left,52.0,0.0,26.0,left,1.0,0.708865931001128,,accuracy,space,1.0480252529996503,,,,,,0.0,0.0,0.0,0.0,26.0,0.0,52.0,0.0,393.9155876529985,,,,,,,,,393.90010743699895,394.2489256569989,395.0486610449989,395.0319564040001,395.03223314599927,395.0486610449989,395.0486610449989,395.0486610449989,395.7661819320001,,,,,,,,,,,,,,,,,,,,,,,,,,,,,,left,1.0,0.708865931001128,,,,,sub-042,1,random_dot,60.39233651904524,
right,right,53.0,1.0,26.0,right,1.0,0.6723250799987,,accuracy,space,1.0480252529996503,,,,,,0.0,0.0,0.0,0.0,26.0,1.0,53.0,1.0,395.7813865190001,,,,,,,,,395.7665341869997,396.9656384279988,397.7660614569995,397.7494152049985,397.7498722679993,397.7660614569995,397.7660614569995,397.7660614569995,398.4496621219987,,,,,,,,,,,,,,,,,,,,,,,,,,,,,,right,1.0,0.6723250799987,,,,,sub-042,1,random_dot,60.39233651904524,
left,left,54.0,0.0,27.0,left,1.0,1.7284179340003902,,accuracy,space,1.0480252529996503,,,,,,0.0,0.0,0.0,0.0,27.0,0.0,54.0,0.0,398.46552860799966,,,,,,,,,398.45004494599925,398.8159642009996,399.6159051019986,399.60005839099904,399.600414053999,399.6159051019986,399.6159051019986,399.6159051019986,401.3496698919989,,,,,,,,,,,,,,,,,,,,,,,,,,,,,,left,1.0,1.7284179340003902,,,,,sub-042,1,random_dot,60.39233651904524,
right,right,55.0,1.0,27.0,right,1.0,0.6912801429989486,,accuracy,space,1.0480252529996503,,,,,,0.0,0.0,0.0,0.0,27.0,1.0,55.0,1.0,401.3656702389999,,,,,,,,,401.34995756199896,401.4489967569989,402.2488726989996,402.2325219409995,402.2329708399993,402.2488726989996,402.2488726989996,402.2488726989996,402.9492683429999,,,,,,,,,,,,,,,,,,,,,,,,,,,,,,right,1.0,0.6912801429989486,,,,,sub-042,1,random_dot,60.39233651904524,
left,left,56.0,0.0,28.0,left,1.0,0.7994951829987258,,accuracy,space,1.0480252529996503,,,,,,0.0,0.0,0.0,0.0,28.0,0.0,56.0,0.0,402.96539680099886,,,,,,,,,402.9495557329992,403.7650505919992,404.5655338589986,404.54906461099927,404.5495142169984,404.5655338589986,404.5655338589986,404.5655338589986,405.3667399599999,,,,,,,,,,,,,,,,,,,,,,,,,,,,,,left,1.0,0.7994951829987258,,,,,sub-042,1,random_dot,60.39233651904524,
right,right,57.0,1.0,28.0,right,1.0,0.6162106079991645,,accuracy,space,1.0480252529996503,,,,,,0.0,0.0,0.0,0.0,28.0,1.0,57.0,1.0,405.3819714249985,,,,,,,,,405.36705813499975,405.73223303399936,406.5321519359986,406.5157787219996,406.5162285399984,406.5321519359986,406.5321519359986,406.5321519359986,407.1501219769998,,,,,,,,,,,,,,,,,,,,,,,,,,,,,,right,1.0,0.6162106079991645,,,,,sub-042,1,random_dot,60.39233651904524,
left,left,58.0,0.0,29.0,left,1.0,1.1275051909997271,,accuracy,space,1.0480252529996503,,,,,,0.0,0.0,0.0,0.0,29.0,0.0,58.0,0.0,407.1653198289987,,,,,,,,,407.1504456779985,407.2655756259992,408.0654008099991,408.04905756599874,408.0495445739998,408.0654008099991,408.0654008099991,408.0654008099991,409.1995323399988,,,,,,,,,,,,,,,,,,,,,,,,,,,,,,left,1.0,1.1275051909997271,,,,,sub-042,1,random_dot,60.39233651904524,
right,right,59.0,1.0,29.0,right,1.0,0.5884659860003012,,accuracy,space,1.0480252529996503,,,,,,0.0,0.0,0.0,0.0,29.0,1.0,59.0,1.0,409.215167372,,,,,,,,,409.19982624099976,409.99810204499954,410.7985575509993,410.7819808719996,410.782438532,410.7985575509993,410.7985575509993,410.7985575509993,411.3991641889989,,,,,,,,,,,,,,,,,,,,,,,,,,,,,,right,1.0,0.5884659860003012,,,,,sub-042,1,random_dot,60.39233651904524,
,,0.0,0.0,0.0,,,,,accuracy,space,1.0480252529996503,,,,,,0.0,0.0,0.0,0.0,,,,,,,,,,,,,,,,,,,,,,,,,,,,,,,,,,,,,,,,,,,,,,,,,,,,,,,,,,,sub-042,1,random_dot,60.39233651904524,
right,right,0.0,0.0,0.0,right,1.0,1.0674618909997662,,speed,space,3.4832254979992285,,,,,,0.0,1.0,1.0,1.0,0.0,0.0,0.0,1.0,414.9337814539995,,,,,,,,,414.9201617009985,415.71540228899903,416.516038496,416.4991043479986,416.49970128199857,416.516038496,416.516038496,416.516038496,417.5995096079987,,,,,,,,,,,,,,,,,,,,,,,411.4119088799998,411.4232335709985,411.4232335709985,414.91556770999887,space,3.4832254979992285,,right,1.0,1.0674618909997662,,,,,sub-042,1,random_dot,60.39233651904524,
left,left,1.0,1.0,0.0,left,1.0,1.0417474759997276,,speed,space,3.4832254979992285,,,,,,0.0,1.0,1.0,1.0,0.0,1.0,1.0,0.0,417.6151094609995,,,,,,,,,417.5999642059997,418.8150305250001,419.6149555489992,419.59847471600006,419.59890551699937,419.6149555489992,419.6149555489992,419.6149555489992,420.6654795300001,,,,,,,,,,,,,,,,,,,,,,,,,,,,,,left,1.0,1.0417474759997276,,,,,sub-042,1,random_dot,60.39233651904524,
left,left,2.0,0.0,1.0,left,1.0,0.7583185140010755,,speed,space,3.4832254979992285,,,,,,0.0,1.0,1.0,1.0,1.0,0.0,2.0,0.0,420.6815009829989,,,,,,,,,420.6657748049984,421.4648815429992,422.2651599259989,422.24857405699913,422.24902486099927,422.2651599259989,422.2651599259989,422.2651599259989,423.0320194759988,,,,,,,,,,,,,,,,,,,,,,,,,,,,,,left,1.0,0.7583185140010755,,,,,sub-042,1,random_dot,60.39233651904524,
right,right,3.0,1.0,1.0,right,1.0,0.6110498170000938,,speed,space,3.4832254979992285,,,,,,0.0,1.0,1.0,1.0,1.0,1.0,3.0,1.0,423.0481182569984,,,,,,,,,423.0323276689997,423.83187722299954,424.6316921749985,424.61507317,424.6153989729992,424.6316921749985,424.6316921749985,424.6316921749985,425.24875961999896,,,,,,,,,,,,,,,,,,,,,,,,,,,,,,right,1.0,0.6110498170000938,,,,,sub-042,1,random_dot,60.39233651904524,
right,right,4.0,0.0,2.0,right,1.0,0.9553705479993368,,speed,space,3.4832254979992285,,,,,,0.0,1.0,1.0,1.0,2.0,0.0,4.0,1.0,425.2641978489992,,,,,,,,,425.24908484799926,425.5980444099987,426.3983208509999,426.3818744839991,426.3823213079995,426.3983208509999,426.3983208509999,426.3983208509999,427.3663214469998,,,,,,,,,,,,,,,,,,,,,,,,,,,,,,right,1.0,0.9553705479993368,,,,,sub-042,1,random_dot,60.39233651904524,
left,left,5.0,1.0,2.0,left,1.0,0.6242904350001481,,speed,space,3.4832254979992285,,,,,,0.0,1.0,1.0,1.0,2.0,1.0,5.0,0.0,427.3813847959991,,,,,,,,,427.3666965489992,427.7315704849989,428.5312287149991,428.5148735349994,428.5151561089988,428.5312287149991,428.5312287149991,428.5312287149991,429.1651005149997,,,,,,,,,,,,,,,,,,,,,,,,,,,,,,left,1.0,0.6242904350001481,,,,,sub-042,1,random_dot,60.39233651904524,
left,left,6.0,0.0,3.0,right,0.0,0.910584426999776,,speed,space,3.4832254979992285,,,,,,0.0,1.0,1.0,1.0,3.0,0.0,6.0,0.0,429.1799176889999,,,,,,,,,429.1653936089988,429.5148976649998,430.3147117219996,430.2985656299989,430.2989354269994,430.3147117219996,430.3147117219996,430.3147117219996,431.2327755309998,,,,,,,,,,,,,,,,,,,,,,,,,,,,,,right,0.0,0.910584426999776,,,,,sub-042,1,random_dot,60.39233651904524,
right,right,7.0,1.0,3.0,right,1.0,0.6202382550000038,,speed,space,3.4832254979992285,,,,,,0.0,1.0,1.0,1.0,3.0,1.0,7.0,1.0,431.2479989879994,,,,,,,,,431.2330677569989,432.44826603599904,433.24818869199953,433.23168473999976,433.2321405939984,433.24818869199953,433.24818869199953,433.24818869199953,433.88210992699896,,,,,,,,,,,,,,,,,,,,,,,,,,,,,,right,1.0,0.6202382550000038,,,,,sub-042,1,random_dot,60.39233651904524,
right,right,8.0,0.0,4.0,right,1.0,0.8069565040004818,,speed,space,3.4832254979992285,,,,,,0.0,1.0,1.0,1.0,4.0,0.0,8.0,1.0,433.8978572229989,,,,,,,,,433.8824880939992,433.9972106360001,434.797515930999,434.7809408369994,434.7812163259987,434.797515930999,434.797515930999,434.797515930999,435.6160602729997,,,,,,,,,,,,,,,,,,,,,,,,,,,,,,right,1.0,0.8069565040004818,,,,,sub-042,1,random_dot,60.39233651904524,
left,left,9.0,1.0,4.0,left,1.0,0.936117588000343,,speed,space,3.4832254979992285,,,,,,0.0,1.0,1.0,1.0,4.0,1.0,9.0,0.0,435.6314746889984,,,,,,,,,435.616353718,435.7311688589998,436.53198215799966,436.51523570300014,436.5156964399994,436.53198215799966,436.53198215799966,436.53198215799966,437.4822198069997,,,,,,,,,,,,,,,,,,,,,,,,,,,,,,left,1.0,0.936117588000343,,,,,sub-042,1,random_dot,60.39233651904524,
left,left,10.0,0.0,5.0,left,1.0,0.6875798559995019,,speed,space,3.4832254979992285,,,,,,0.0,1.0,1.0,1.0,5.0,0.0,10.0,0.0,437.4974134339991,,,,,,,,,437.48257004100014,437.58130086599886,438.3815047409989,438.365128853,438.3655821809989,438.3815047409989,438.3815047409989,438.3815047409989,439.0818720110001,,,,,,,,,,,,,,,,,,,,,,,,,,,,,,left,1.0,0.6875798559995019,,,,,sub-042,1,random_dot,60.39233651904524,
right,right,11.0,1.0,5.0,right,1.0,0.6511512919987581,,speed,space,3.4832254979992285,,,,,,0.0,1.0,1.0,1.0,5.0,1.0,11.0,1.0,439.0985772269996,,,,,,,,,439.0821637429999,439.8806627139984,440.6808561689995,440.6646322149991,440.66490756799976,440.6808561689995,440.6808561689995,440.6808561689995,441.34906782799953,,,,,,,,,,,,,,,,,,,,,,,,,,,,,,right,1.0,0.6511512919987581,,,,,sub-042,1,random_dot,60.39233651904524,
left,left,12.0,0.0,6.0,left,1.0,1.1957203699985255,,speed,space,3.4832254979992285,,,,,,0.0,1.0,1.0,1.0,6.0,0.0,12.0,0.0,441.36475329199857,,,,,,,,,441.34936773499976,441.4484961259986,442.24742969,442.231108218999,442.2313855309985,442.24742969,442.24742969,442.24742969,443.4491274609991,,,,,,,,,,,,,,,,,,,,,,,,,,,,,,left,1.0,1.1957203699985255,,,,,sub-042,1,random_dot,60.39233651904524,
right,right,13.0,1.0,6.0,right,1.0,0.9954654319990368,,speed,space,3.4832254979992285,,,,,,0.0,1.0,1.0,1.0,6.0,1.0,13.0,1.0,443.4645616049984,,,,,,,,,443.4494296389985,444.263783638,445.0645670260001,445.04837101999874,445.0488256659992,445.0645670260001,445.0645670260001,445.0645670260001,446.0657262789992,,,,,,,,,,,,,,,,,,,,,,,,,,,,,,right,1.0,0.9954654319990368,,,,,sub-042,1,random_dot,60.39233651904524,
right,right,14.0,0.0,7.0,right,1.0,1.3664818310007831,,speed,space,3.4832254979992285,,,,,,0.0,1.0,1.0,1.0,7.0,0.0,14.0,1.0,446.0813559149992,,,,,,,,,446.0660911340001,447.2813348559994,448.0813285339991,448.0648642879987,448.065309575999,448.0813285339991,448.0813285339991,448.0813285339991,449.4490880309986,,,,,,,,,,,,,,,,,,,,,,,,,,,,,,right,1.0,1.3664818310007831,,,,,sub-042,1,random_dot,60.39233651904524,
left,left,15.0,1.0,7.0,right,0.0,2.1952546119991894,,speed,space,3.4832254979992285,,,,,,0.0,1.0,1.0,1.0,7.0,1.0,15.0,0.0,449.46432456299954,,,,,,,,,449.4494959569984,450.6646377999987,451.4646368959984,451.4481777769997,451.4486331619992,451.4646368959984,451.4646368959984,451.4646368959984,453.6656300089999,,,,,,,,,,,,,,,,,,,,,,,,,,,,,,right,0.0,2.1952546119991894,,,,,sub-042,1,random_dot,60.39233651904524,
left,left,16.0,0.0,8.0,right,0.0,1.075283918000423,,speed,space,3.4832254979992285,,,,,,0.0,1.0,1.0,1.0,8.0,0.0,16.0,0.0,453.6811241479991,,,,,,,,,453.6659290349999,454.4812148799992,455.2811539469985,455.2666373299999,455.2669702200001,455.2811539469985,455.2811539469985,455.2811539469985,456.36505117699926,,,,,,,,,,,,,,,,,,,,,,,,,,,,,,right,0.0,1.075283918000423,,,,,sub-042,1,random_dot,60.39233651904524,
right,right,17.0,1.0,8.0,left,0.0,2.411714842000947,,speed,space,3.4832254979992285,,,,,,0.0,1.0,1.0,1.0,8.0,1.0,17.0,1.0,456.380855763,,,,,,,,,456.36535125499904,457.563718600999,458.3646257679993,458.3480577199989,458.34851008499936,458.3646257679993,458.3646257679993,458.3646257679993,460.7818099799988,,,,,,,,,,,,,,,,,,,,,,,,,,,,,,left,0.0,2.411714842000947,,,,,sub-042,1,random_dot,60.39233651904524,
right,right,18.0,0.0,9.0,left,0.0,0.976470610999968,,speed,space,3.4832254979992285,,,,,,0.0,1.0,1.0,1.0,9.0,0.0,18.0,1.0,460.7977743499996,,,,,,,,,460.7821037859994,461.1312106149999,461.9305788919992,461.9138299829992,461.9141263499987,461.9305788919992,461.9305788919992,461.9305788919992,462.9151187349999,,,,,,,,,,,,,,,,,,,,,,,,,,,,,,left,0.0,0.976470610999968,,,,,sub-042,1,random_dot,60.39233651904524,
left,left,19.0,1.0,9.0,left,1.0,0.7909560409989354,,speed,space,3.4832254979992285,,,,,,0.0,1.0,1.0,1.0,9.0,1.0,19.0,0.0,462.9310091819989,,,,,,,,,462.9154147549998,464.1146532639996,464.9143330079987,464.8981102519992,464.8985738379997,464.9143330079987,464.9143330079987,464.9143330079987,465.71545782700014,,,,,,,,,,,,,,,,,,,,,,,,,,,,,,left,1.0,0.7909560409989354,,,,,sub-042,1,random_dot,60.39233651904524,
right,right,20.0,0.0,10.0,right,1.0,1.3028275619999476,,speed,space,3.4832254979992285,,,,,,0.0,1.0,1.0,1.0,10.0,0.0,20.0,1.0,465.7308540269987,,,,,,,,,465.7157986629991,465.8310451699999,466.6312037349999,466.6142977129985,466.6147511669988,466.6312037349999,466.6312037349999,466.6312037349999,467.9493450999999,,,,,,,,,,,,,,,,,,,,,,,,,,,,,,right,1.0,1.3028275619999476,,,,,sub-042,1,random_dot,60.39233651904524,
left,left,21.0,1.0,10.0,right,0.0,0.7081417800000054,,speed,space,3.4832254979992285,,,,,,0.0,1.0,1.0,1.0,10.0,1.0,21.0,0.0,467.9653131529994,,,,,,,,,467.9501150369997,468.7638465049986,469.5639309309991,469.54767582800014,469.5479817809992,469.5639309309991,469.5639309309991,469.5639309309991,470.2824961179995,,,,,,,,,,,,,,,,,,,,,,,,,,,,,,right,0.0,0.7081417800000054,,,,,sub-042,1,random_dot,60.39233651904524,
right,right,22.0,0.0,11.0,right,1.0,1.1087642170004983,,speed,space,3.4832254979992285,,,,,,0.0,1.0,1.0,1.0,11.0,0.0,22.0,1.0,470.2977336240001,,,,,,,,,470.2830000689992,471.0984881789991,471.8979749819992,471.8815729099988,471.8820354700001,471.8979749819992,471.8979749819992,471.8979749819992,473.0153502959984,,,,,,,,,,,,,,,,,,,,,,,,,,,,,,right,1.0,1.1087642170004983,,,,,sub-042,1,random_dot,60.39233651904524,
left,left,23.0,1.0,11.0,left,1.0,2.061142533999373,,speed,space,3.4832254979992285,,,,,,0.0,1.0,1.0,1.0,11.0,1.0,23.0,0.0,473.0313517059985,,,,,,,,,473.01564163699913,473.1140149849998,473.91482459799954,473.89822565599934,473.8986715489991,473.91482459799954,473.91482459799954,473.91482459799954,475.982331751,,,,,,,,,,,,,,,,,,,,,,,,,,,,,,left,1.0,2.061142533999373,,,,,sub-042,1,random_dot,60.39233651904524,
right,right,24.0,0.0,12.0,left,0.0,0.9516673830003128,,speed,space,3.4832254979992285,,,,,,0.0,1.0,1.0,1.0,12.0,0.0,24.0,1.0,475.99774597399846,,,,,,,,,475.9826428689994,477.19787198799895,477.9979207429988,477.9815480739999,477.9819960409986,477.9979207429988,477.9979207429988,477.9979207429988,478.9656393229998,,,,,,,,,,,,,,,,,,,,,,,,,,,,,,left,0.0,0.9516673830003128,,,,,sub-042,1,random_dot,60.39233651904524,
left,left,25.0,1.0,12.0,left,1.0,1.250335458000336,,speed,space,3.4832254979992285,,,,,,0.0,1.0,1.0,1.0,12.0,1.0,25.0,0.0,478.9811415529985,,,,,,,,,478.9659457519992,480.1811691120001,480.9811383469987,480.96478755499993,480.9652401869989,480.9811383469987,480.9811383469987,480.9811383469987,482.248736997999,,,,,,,,,,,,,,,,,,,,,,,,,,,,,,left,1.0,1.250335458000336,,,,,sub-042,1,random_dot,60.39233651904524,
left,left,26.0,0.0,13.0,left,1.0,2.169750982999176,,speed,space,3.4832254979992285,,,,,,0.0,1.0,1.0,1.0,13.0,0.0,26.0,0.0,482.264201992999,,,,,,,,,482.2491302999988,483.4645074359996,484.26373904999855,484.2475325489995,484.247856906999,484.26373904999855,484.26373904999855,484.26373904999855,486.4479297130001,,,,,,,,,,,,,,,,,,,,,,,,,,,,,,left,1.0,2.169750982999176,,,,,sub-042,1,random_dot,60.39233651904524,
right,right,27.0,1.0,13.0,right,1.0,0.6039826100004575,,speed,space,3.4832254979992285,,,,,,0.0,1.0,1.0,1.0,13.0,1.0,27.0,1.0,486.4637838849994,,,,,,,,,486.4482288449999,487.2475860369996,488.0474323049984,488.0309908119998,488.0314417699992,488.0474323049984,488.0474323049984,488.0474323049984,488.66530544599846,,,,,,,,,,,,,,,,,,,,,,,,,,,,,,right,1.0,0.6039826100004575,,,,,sub-042,1,random_dot,60.39233651904524,
left,left,28.0,0.0,14.0,left,1.0,1.7379841520014452,,speed,space,3.4832254979992285,,,,,,0.0,1.0,1.0,1.0,14.0,0.0,28.0,0.0,488.6806559409997,,,,,,,,,488.6656444199998,488.7801779049987,489.58078809699873,489.56441477599947,489.5648697739998,489.58078809699873,489.58078809699873,489.58078809699873,491.3318192930001,,,,,,,,,,,,,,,,,,,,,,,,,,,,,,left,1.0,1.7379841520014452,,,,,sub-042,1,random_dot,60.39233651904524,
right,right,29.0,1.0,14.0,right,1.0,0.9942551130006904,,speed,space,3.4832254979992285,,,,,,0.0,1.0,1.0,1.0,14.0,1.0,29.0,1.0,491.3465444479989,,,,,,,,,491.33210963999954,491.4477288809994,492.248127375,492.23144669700014,492.2319653579998,492.248127375,492.248127375,492.248127375,493.24818521699854,,,,,,,,,,,,,,,,,,,,,,,,,,,,,,right,1.0,0.9942551130006904,,,,,sub-042,1,random_dot,60.39233651904524,
right,right,30.0,0.0,15.0,right,1.0,0.7068694930003403,,speed,space,3.4832254979992285,,,,,,0.0,1.0,1.0,1.0,15.0,0.0,30.0,1.0,493.2638073469989,,,,,,,,,493.24847751499874,494.4477198509994,495.2477353079994,495.2308831689989,495.2311561869992,495.2477353079994,495.2477353079994,495.2477353079994,495.9649444299994,,,,,,,,,,,,,,,,,,,,,,,,,,,,,,right,1.0,0.7068694930003403,,,,,sub-042,1,random_dot,60.39233651904524,
left,left,31.0,1.0,15.0,right,0.0,0.741109275000781,,speed,space,3.4832254979992285,,,,,,0.0,1.0,1.0,1.0,15.0,1.0,31.0,0.0,495.9800725329988,,,,,,,,,495.9654512299985,496.0641617069996,496.86427880500014,496.847694479,496.84819555099966,496.86427880500014,496.86427880500014,496.86427880500014,497.6146338039998,,,,,,,,,,,,,,,,,,,,,,,,,,,,,,right,0.0,0.741109275000781,,,,,sub-042,1,random_dot,60.39233651904524,
right,right,32.0,0.0,16.0,right,1.0,0.8267363449995173,,speed,space,3.4832254979992285,,,,,,0.0,1.0,1.0,1.0,16.0,0.0,32.0,1.0,497.6308121459988,,,,,,,,,497.6149205579986,498.81433357399874,499.6143334729986,499.5984342929987,499.59874532999856,499.6143334729986,499.6143334729986,499.6143334729986,500.4487477610001,,,,,,,,,,,,,,,,,,,,,,,,,,,,,,right,1.0,0.8267363449995173,,,,,sub-042,1,random_dot,60.39233651904524,
left,left,33.0,1.0,16.0,left,1.0,0.5491702020008233,,speed,space,3.4832254979992285,,,,,,0.0,1.0,1.0,1.0,16.0,1.0,33.0,0.0,500.4639506099993,,,,,,,,,500.4490700890001,501.2641186559995,502.0639045709995,502.0479211559996,502.0483890659998,502.0639045709995,502.0639045709995,502.0639045709995,502.6153566779994,,,,,,,,,,,,,,,,,,,,,,,,,,,,,,left,1.0,0.5491702020008233,,,,,sub-042,1,random_dot,60.39233651904524,
left,left,34.0,0.0,17.0,left,1.0,2.179122368001117,,speed,space,3.4832254979992285,,,,,,0.0,1.0,1.0,1.0,17.0,0.0,34.0,0.0,502.6308333119996,,,,,,,,,502.615717142,503.8306670980001,504.6304647329998,504.613615708,504.6138910209993,504.6304647329998,504.6304647329998,504.6304647329998,506.815008906,,,,,,,,,,,,,,,,,,,,,,,,,,,,,,left,1.0,2.179122368001117,,,,,sub-042,1,random_dot,60.39233651904524,
right,right,35.0,1.0,17.0,right,1.0,1.811961766999957,,speed,space,3.4832254979992285,,,,,,0.0,1.0,1.0,1.0,17.0,1.0,35.0,1.0,506.8304413419992,,,,,,,,,506.815440593,506.9298520469984,507.7301767259996,507.7138289919985,507.7140999979984,507.7301767259996,507.7301767259996,507.7301767259996,509.54830400799983,,,,,,,,,,,,,,,,,,,,,,,,,,,,,,right,1.0,1.811961766999957,,,,,sub-042,1,random_dot,60.39233651904524,
left,left,36.0,0.0,18.0,right,0.0,0.8576059169990913,,speed,space,3.4832254979992285,,,,,,0.0,1.0,1.0,1.0,18.0,0.0,36.0,0.0,509.5637999949995,,,,,,,,,509.5486059329997,510.3474410229992,511.147538235,511.1310896709984,511.1315380519991,511.147538235,511.147538235,511.147538235,512.014583918999,,,,,,,,,,,,,,,,,,,,,,,,,,,,,,right,0.0,0.8576059169990913,,,,,sub-042,1,random_dot,60.39233651904524,
right,right,37.0,1.0,18.0,right,1.0,1.203336290000152,,speed,space,3.4832254979992285,,,,,,0.0,1.0,1.0,1.0,18.0,1.0,37.0,1.0,512.0304970910001,,,,,,,,,512.0149579139998,512.3643150509997,513.1644726459999,513.1477375449995,513.1482137120001,513.1644726459999,513.1644726459999,513.1644726459999,514.3824650499992,,,,,,,,,,,,,,,,,,,,,,,,,,,,,,right,1.0,1.203336290000152,,,,,sub-042,1,random_dot,60.39233651904524,
right,right,38.0,0.0,19.0,left,0.0,1.655603680999775,,speed,space,3.4832254979992285,,,,,,0.0,1.0,1.0,1.0,19.0,0.0,38.0,1.0,514.3970688289992,,,,,,,,,514.382992933999,515.1972990429986,515.9973584660002,515.9806661029997,515.9810556599987,515.9973584660002,515.9973584660002,515.9973584660002,517.6648945759989,,,,,,,,,,,,,,,,,,,,,,,,,,,,,,left,0.0,1.655603680999775,,,,,sub-042,1,random_dot,60.39233651904524,
left,left,39.0,1.0,19.0,right,0.0,0.9325242949998938,,speed,space,3.4832254979992285,,,,,,0.0,1.0,1.0,1.0,19.0,1.0,39.0,0.0,517.6804911439995,,,,,,,,,517.6651886729996,518.0299933039987,518.8306743630001,518.8142344429998,518.81468193,518.8306743630001,518.8306743630001,518.8306743630001,519.7649625189988,,,,,,,,,,,,,,,,,,,,,,,,,,,,,,right,0.0,0.9325242949998938,,,,,sub-042,1,random_dot,60.39233651904524,
right,right,40.0,0.0,20.0,left,0.0,1.006224573999134,,speed,space,3.4832254979992285,,,,,,0.0,1.0,1.0,1.0,20.0,0.0,40.0,1.0,519.7803389109995,,,,,,,,,519.7652962669999,519.8806957369998,520.6806755799989,520.6643070800001,520.6648052499986,520.6806755799989,520.6806755799989,520.6806755799989,521.6975686429996,,,,,,,,,,,,,,,,,,,,,,,,,,,,,,left,0.0,1.006224573999134,,,,,sub-042,1,random_dot,60.39233651904524,
left,left,41.0,1.0,20.0,right,0.0,1.6953139859997464,,speed,space,3.4832254979992285,,,,,,0.0,1.0,1.0,1.0,20.0,1.0,41.0,0.0,521.713717007,,,,,,,,,521.6979581469986,521.7972271539984,522.596470597,522.5806085499989,522.5809914029996,522.596470597,522.596470597,522.596470597,524.297853136999,,,,,,,,,,,,,,,,,,,,,,,,,,,,,,right,0.0,1.6953139859997464,,,,,sub-042,1,random_dot,60.39233651904524,
left,left,42.0,0.0,21.0,left,1.0,0.9667059769999468,,speed,space,3.4832254979992285,,,,,,0.0,1.0,1.0,1.0,21.0,0.0,42.0,0.0,524.313680113999,,,,,,,,,524.2981508409994,524.6629162929985,525.4637833749985,525.4472498509986,525.4477201989994,525.4637833749985,525.4637833749985,525.4637833749985,526.4483751469998,,,,,,,,,,,,,,,,,,,,,,,,,,,,,,left,1.0,0.9667059769999468,,,,,sub-042,1,random_dot,60.39233651904524,
right,right,43.0,1.0,21.0,right,1.0,2.596949852999387,,speed,space,3.4832254979992285,,,,,,0.0,1.0,1.0,1.0,21.0,1.0,43.0,1.0,526.4639034559987,,,,,,,,,526.4488782609988,526.5632052499986,527.3635978409984,527.3472481699991,527.3477649429988,527.3635978409984,527.3635978409984,527.3635978409984,529.9659755369994,,,,,,,,,,,,,,,,,,,,,,,,,,,,,,right,1.0,2.596949852999387,,,,,sub-042,1,random_dot,60.39233651904524,
left,left,44.0,0.0,22.0,left,1.0,0.6680471910003689,,speed,space,3.4832254979992285,,,,,,0.0,1.0,1.0,1.0,22.0,0.0,44.0,0.0,529.9810715599997,,,,,,,,,529.9664626729991,531.1808450729986,531.9802324659995,531.9638286669997,531.9642785879987,531.9802324659995,531.9802324659995,531.9802324659995,532.6644176760001,,,,,,,,,,,,,,,,,,,,,,,,,,,,,,left,1.0,0.6680471910003689,,,,,sub-042,1,random_dot,60.39233651904524,
right,right,45.0,1.0,22.0,left,0.0,1.3006471400003647,,speed,space,3.4832254979992285,,,,,,0.0,1.0,1.0,1.0,22.0,1.0,45.0,1.0,532.6801289949999,,,,,,,,,532.6647723959995,533.8633603179987,534.6634995379991,534.6471789869993,534.6476337619988,534.6634995379991,534.6634995379991,534.6634995379991,535.9807971539994,,,,,,,,,,,,,,,,,,,,,,,,,,,,,,left,0.0,1.3006471400003647,,,,,sub-042,1,random_dot,60.39233651904524,
left,left,46.0,0.0,23.0,left,1.0,1.9222919890016783,,speed,space,3.4832254979992285,,,,,,0.0,1.0,1.0,1.0,23.0,0.0,46.0,0.0,535.9964656309985,,,,,,,,,535.981214944999,536.780110886999,537.5800139669991,537.5632128559992,537.5634976209985,537.5800139669991,537.5800139669991,537.5800139669991,539.5145446399983,,,,,,,,,,,,,,,,,,,,,,,,,,,,,,left,1.0,1.9222919890016783,,,,,sub-042,1,random_dot,60.39233651904524,
right,right,47.0,1.0,23.0,right,1.0,1.4666232379986468,,speed,space,3.4832254979992285,,,,,,0.0,1.0,1.0,1.0,23.0,1.0,47.0,1.0,539.529888052999,,,,,,,,,539.514846524,540.3295027719996,541.1299810319997,541.1139876699999,541.1144348919988,541.1299810319997,541.1299810319997,541.1299810319997,542.5978619569996,,,,,,,,,,,,,,,,,,,,,,,,,,,,,,right,1.0,1.4666232379986468,,,,,sub-042,1,random_dot,60.39233651904524,
right,right,48.0,0.0,24.0,right,1.0,1.0422252469998057,,speed,space,3.4832254979992285,,,,,,0.0,1.0,1.0,1.0,24.0,0.0,48.0,1.0,542.6130208319992,,,,,,,,,542.5983560899986,542.9632463229991,543.7642834159997,543.7469509029997,543.7473977299996,543.7642834159997,543.7642834159997,543.7642834159997,544.8136845009994,,,,,,,,,,,,,,,,,,,,,,,,,,,,,,right,1.0,1.0422252469998057,,,,,sub-042,1,random_dot,60.39233651904524,
left,left,49.0,1.0,24.0,right,0.0,1.1396677710017684,,speed,space,3.4832254979992285,,,,,,0.0,1.0,1.0,1.0,24.0,1.0,49.0,0.0,544.8293413039992,,,,,,,,,544.8140432159998,545.163375660999,545.9639957709987,545.9478334959986,545.9484457579983,545.9639957709987,545.9639957709987,545.9639957709987,547.1138609119989,,,,,,,,,,,,,,,,,,,,,,,,,,,,,,right,0.0,1.1396677710017684,,,,,sub-042,1,random_dot,60.39233651904524,
right,right,50.0,0.0,25.0,left,0.0,1.6475860489990737,,speed,space,3.4832254979992285,,,,,,0.0,1.0,1.0,1.0,25.0,0.0,50.0,1.0,547.129530536,,,,,,,,,547.1141555199993,547.4633172899994,548.263170242999,548.2469475519993,548.2474087279988,548.263170242999,548.263170242999,548.263170242999,549.9143234579988,,,,,,,,,,,,,,,,,,,,,,,,,,,,,,left,0.0,1.6475860489990737,,,,,sub-042,1,random_dot,60.39233651904524,
left,left,51.0,1.0,25.0,left,1.0,1.5337122100008855,,speed,space,3.4832254979992285,,,,,,0.0,1.0,1.0,1.0,25.0,1.0,51.0,0.0,549.9296334859991,,,,,,,,,549.9146943420001,550.7298859999992,551.5317184249998,551.5129131859994,551.5132690039991,551.5317184249998,551.5317184249998,551.5317184249998,553.0810741749992,,,,,,,,,,,,,,,,,,,,,,,,,,,,,,left,1.0,1.5337122100008855,,,,,sub-042,1,random_dot,60.39233651904524,
right,right,52.0,0.0,26.0,left,0.0,1.3296288740002635,,speed,space,3.4832254979992285,,,,,,0.0,1.0,1.0,1.0,26.0,0.0,52.0,1.0,553.0967957459998,,,,,,,,,553.0816120849995,553.896119215,554.6966527109998,554.6801637219996,554.680614162,554.6966527109998,554.6966527109998,554.6966527109998,556.0300570029995,,,,,,,,,,,,,,,,,,,,,,,,,,,,,,left,0.0,1.3296288740002635,,,,,sub-042,1,random_dot,60.39233651904524,
left,left,53.0,1.0,26.0,left,1.0,1.3972492650009372,,speed,space,3.4832254979992285,,,,,,0.0,1.0,1.0,1.0,26.0,1.0,53.0,0.0,556.0476718559985,,,,,,,,,556.030355891,556.3796174549989,557.1800162979998,557.1633239259991,557.1637846599988,557.1800162979998,557.1800162979998,557.1800162979998,558.5806438209984,,,,,,,,,,,,,,,,,,,,,,,,,,,,,,left,1.0,1.3972492650009372,,,,,sub-042,1,random_dot,60.39233651904524,
right,right,54.0,0.0,27.0,right,1.0,0.8878624720000516,,speed,space,3.4832254979992285,,,,,,0.0,1.0,1.0,1.0,27.0,0.0,54.0,1.0,558.5961671409987,,,,,,,,,558.580967857999,559.7968597349991,560.5964351160001,560.579756956,560.5801224299994,560.5964351160001,560.5964351160001,560.5964351160001,561.4970220539999,,,,,,,,,,,,,,,,,,,,,,,,,,,,,,right,1.0,0.8878624720000516,,,,,sub-042,1,random_dot,60.39233651904524,
left,left,55.0,1.0,27.0,right,0.0,0.8124372729998868,,speed,space,3.4832254979992285,,,,,,0.0,1.0,1.0,1.0,27.0,1.0,55.0,0.0,561.5132356959984,,,,,,,,,561.4974254559984,561.8467314299996,562.645908687,562.6305435949998,562.630827686,562.645908687,562.645908687,562.645908687,563.4641348529985,,,,,,,,,,,,,,,,,,,,,,,,,,,,,,right,0.0,0.8124372729998868,,,,,sub-042,1,random_dot,60.39233651904524,
left,left,56.0,0.0,28.0,right,0.0,1.4632832030001737,,speed,space,3.4832254979992285,,,,,,0.0,1.0,1.0,1.0,28.0,0.0,56.0,0.0,563.4794659319996,,,,,,,,,563.4644367689998,563.563012138,564.3622447489997,564.3457470279991,564.3460222889989,564.3622447489997,564.3622447489997,564.3622447489997,565.8308697899993,,,,,,,,,,,,,,,,,,,,,,,,,,,,,,right,0.0,1.4632832030001737,,,,,sub-042,1,random_dot,60.39233651904524,
right,right,57.0,1.0,28.0,left,0.0,1.0607733790002385,,speed,space,3.4832254979992285,,,,,,0.0,1.0,1.0,1.0,28.0,1.0,57.0,1.0,565.8465438869989,,,,,,,,,565.8312781159984,566.196302463999,566.9963466009995,566.9800354869985,566.9804817699987,566.9963466009995,566.9963466009995,566.9963466009995,568.0639280509986,,,,,,,,,,,,,,,,,,,,,,,,,,,,,,left,0.0,1.0607733790002385,,,,,sub-042,1,random_dot,60.39233651904524,
right,right,58.0,0.0,29.0,left,0.0,1.4394655659998534,,speed,space,3.4832254979992285,,,,,,0.0,1.0,1.0,1.0,29.0,0.0,58.0,1.0,568.0793151899998,,,,,,,,,568.0642325959998,569.2788132489986,570.0795580929989,570.0633022689999,570.0637815669998,570.0795580929989,570.0795580929989,570.0795580929989,571.5301872989985,,,,,,,,,,,,,,,,,,,,,,,,,,,,,,left,0.0,1.4394655659998534,,,,,sub-042,1,random_dot,60.39233651904524,
left,left,59.0,1.0,29.0,left,1.0,0.8670124180007406,,speed,space,3.4832254979992285,,,,,,0.0,1.0,1.0,1.0,29.0,1.0,59.0,0.0,571.545509317999,,,,,,,,,571.5304972609993,572.7296267389993,573.5298467469984,573.5127717119994,573.5131023049998,573.5298467469984,573.5298467469984,573.5298467469984,574.4143159989999,,,,,,,,,,,,,,,,,,,,,,,,,,,,,,left,1.0,0.8670124180007406,,,,,sub-042,1,random_dot,60.39233651904524,
,,1.0,1.0,0.0,,,,,speed,space,3.4832254979992285,,,,,,0.0,1.0,1.0,1.0,,,,,,,,,,,,,,,,,,,,,,,,,,,,,,,,,,,,,,,,,,,,,,,,,,,,,,,,,,,sub-042,1,random_dot,60.39233651904524,
,,,,,,,,,,,,,,,,,,,,,,,,,,,,,,,,,,,,,,,,,,,,,,,,,,,,,,,,,,,,,,,,,,,,,,,,,,,,574.4204615719991,574.4337797839999,579.4296663199984,sub-042,1,random_dot,60.39233651904524,
