direction,corrAns,randomInstr,practice_trials.thisRepN,practice_trials.thisTrialN,practice_trials.thisN,practice_trials.thisIndex,instr_trials.thisRepN,instr_trials.thisTrialN,instr_trials.thisN,instr_trials.thisIndex,test_trials.thisRepN,test_trials.thisTrialN,test_trials.thisN,test_trials.thisIndex,thisRow.t,notes,general_instruction.started,textGeneralInstr.started,respGeneralInstr.started,general_instruction.stopped,respGeneralInstr.keys,respGeneralInstr.rt,respGeneralInstr.duration,ITI.started,fixcross.started,fixcross.stopped,ITI.stopped,dots.started,backgroundDots.started,stimulusDots.started,respDots.started,dots.stopped,respDots.keys,respDots.corr,respDots.rt,respDots.duration,feedback.started,textFeedback.started,textFeedback.stopped,feedback.stopped,stimulusDots.stopped,info.started,textInfo.started,keyRespInfo.started,info.stopped,keyRespInfo.keys,keyRespInfo.rt,keyRespInfo.duration,test_instruction.started,textTestInstr.started,respTestInstr.started,test_instruction.stopped,respTestInstr.keys,respTestInstr.rt,respTestInstr.duration,random_instruction.started,textRandomInstr.started,respRandomInstr.started,random_instruction.stopped,respRandomInstr.keys,respRandomInstr.rt,respRandomInstr.duration,goodbye.started,textGoodbye.started,textGoodbye.stopped,goodbye.stopped,participant,session,expName,frameRate,Unnamed: 74
,,,,,,,,,,,,,,,,,0.0236066000070422,0.0392539999447763,0.0392539999447763,46.09013450006023,space,60.61300970008597,,,,,,,,,,,,,,,,,,,,,,,,,,,,,,,,,,,,,,,,,,,,,sub-193,1.0,random_dot,60.38800503992707,
left,left,,0.0,0.0,0.0,0.0,,,,,,,,,46.14122230000794,,,,,,,,,46.135470299981534,46.90467319986783,47.70437559997663,47.689033000031486,47.68907209997997,47.70437559997663,47.70437559997663,47.70437559997663,50.18973889993504,right,0.0,17.04871950019151,,50.19076559995301,50.20392789994367,50.70521409995854,50.68969639996067,,,,,,,,,,,,,,,,,,,,,,,,,,,sub-193,1.0,random_dot,60.38800503992707,
right,right,,0.0,1.0,1.0,1.0,,,,,,,,,50.70521409995854,,,,,,,,,50.690308100078255,51.88949620001949,52.70493909996003,52.68931679986417,52.6893569000531,52.70493909996003,52.70493909996003,52.70493909996003,54.6417682999745,left,0.0,16.510844300035387,,54.64257159992121,54.6541365000885,55.155608099885285,55.13914059987292,,,,,,,,,,,,,,,,,,,,,,,,,,,sub-193,1.0,random_dot,60.38800503992707,
left,left,,1.0,0.0,2.0,0.0,,,,,,,,,55.155608099885285,,,,,,,,,55.139746099943295,55.95530879986472,56.75487369997427,56.73948849993758,56.73952149995603,56.75487369997427,56.75487369997427,56.75487369997427,59.072881900006905,right,0.0,16.881468600127846,,59.073645500000566,59.08739020000212,59.5877900000196,59.57220850000158,,,,,,,,,,,,,,,,,,,,,,,,,,,sub-193,1.0,random_dot,60.38800503992707,
right,right,,1.0,1.0,3.0,1.0,,,,,,,,,59.5877900000196,,,,,,,,,59.57285870006308,59.68887159996666,60.50473709986545,60.488942000083625,60.48897340008989,60.50473709986545,60.50473709986545,60.50473709986545,61.85647560004145,right,1.0,15.924155600136146,,61.85733529995196,61.8718477000948,62.371183699928224,62.35715659987181,,,,,,,,,,,,,,,,,,,,,,,,,,,sub-193,1.0,random_dot,60.38800503992707,
left,left,,2.0,0.0,4.0,0.0,,,,,,,,,62.371183699928224,,,,,,,,,62.35782360006124,62.47120289993472,63.27116649993695,63.254830999998376,63.25486409990117,63.27116649993695,63.27116649993695,63.27116649993695,64.54120759991929,right,0.0,15.843928600195795,,64.54229749995284,64.55436130007729,65.05461400002241,65.03850020002574,,,,,,,,,,,,,,,,,,,,,,,,,,,sub-193,1.0,random_dot,60.38800503992707,
right,right,,2.0,1.0,5.0,1.0,,,,,,,,,65.05461400002241,,,,,,,,,65.039155599894,65.85558600001968,66.67094189999625,66.65555640007369,66.65558829996735,66.67094189999625,66.67094189999625,66.67094189999625,69.92470890004188,left,0.0,17.826657900121063,,69.92533769994043,69.93659719987772,70.43731119995937,70.42169920005836,,,,,,,,,,,,,,,,,,,,,,,,,,,sub-193,1.0,random_dot,60.38800503992707,
right,right,,3.0,0.0,6.0,1.0,,,,,,,,,70.43731119995937,,,,,,,,,70.42230809992179,70.53689999994822,71.33670109999366,71.32211169996299,71.32214950001799,71.33670109999366,71.33670109999366,71.33670109999366,75.48896900005639,right,1.0,18.721045900136232,,75.48957139998674,75.50351310009137,76.00332039990462,75.98816840001382,,,,,,,,,,,,,,,,,,,,,,,,,,,sub-193,1.0,random_dot,60.38800503992707,
left,left,,3.0,1.0,7.0,0.0,,,,,,,,,76.00332039990462,,,,,,,,,75.98879930004478,77.20465440000407,78.01983390003443,78.00447240006179,78.00450609996915,78.01983390003443,78.01983390003443,78.01983390003443,81.70423020003363,left,1.0,18.25177270011045,,81.70495459996164,81.71915349992923,82.22063090000302,82.20547139993869,,,,,,,,,,,,,,,,,,,,,,,,,,,sub-193,1.0,random_dot,60.38800503992707,
right,right,,4.0,0.0,8.0,1.0,,,,,,,,,82.22063090000302,,,,,,,,,82.20625240006484,83.01947090006433,83.8203421998769,83.8033670000732,83.8034037000034,83.8203421998769,83.8203421998769,83.8203421998769,87.33854090003297,right,1.0,18.08675130014308,,87.33931119996123,87.44986549997702,,87.85270649986342,,,,,,,,,,,,,,,,,,,,,,,,,,,sub-193,1.0,random_dot,60.38800503992707,
left,left,,4.0,1.0,9.0,0.0,,,,,,,,,87.86934640002437,,,,,,,,,87.85336409998126,87.95261280005798,88.75212890002877,88.73677140008658,88.73680759989657,88.75212890002877,88.75212890002877,88.75212890002877,92.3733822000213,right,0.0,18.195313700009137,,92.37408229988068,92.38517859997228,92.88644989999013,92.87010559998453,,,,,,,,,,,,,,,,,,,,,,,,,,,sub-193,1.0,random_dot,60.38800503992707,
right,right,,5.0,0.0,10.0,1.0,,,,,,,,,92.88644989999013,,,,,,,,,92.87078409991229,93.23684359993786,94.03568989993072,94.02174200001171,94.021799699869,94.03568989993072,94.03568989993072,94.03568989993072,99.38757529994471,right,1.0,19.92161020007916,,99.38836019998416,99.40215500001796,99.90334269986488,99.8872018000111,99.03592869988644,,,,,,,,,,,,,,,,,,,,,,,,,,sub-193,1.0,random_dot,60.38800503992707,
left,left,,5.0,1.0,11.0,0.0,,,,,,,,,99.90334269986488,,,,,,,,,99.88781460002065,100.00324560003357,100.804330999963,100.78709460003302,100.78717090003192,100.804330999963,100.804330999963,100.804330999963,102.53856200003064,left,1.0,16.307055100100115,,102.53929340001196,102.55249390006064,103.05266699986532,103.03724529989996,,,,,,,,,,,,,,,,,,,,,,,,,,,sub-193,1.0,random_dot,60.38800503992707,
left,left,,6.0,0.0,12.0,0.0,,,,,,,,,103.05266699986532,,,,,,,,,103.0380813998636,104.25388329988346,105.06864889990538,105.05333200003952,105.05337359989062,105.06864889990538,105.06864889990538,105.06864889990538,106.38810650003144,right,0.0,15.888259700033814,,106.38878869987091,106.40229979995638,106.90196559997275,106.88714120001532,,,,,,,,,,,,,,,,,,,,,,,,,,,sub-193,1.0,random_dot,60.38800503992707,
right,right,,6.0,1.0,13.0,1.0,,,,,,,,,106.90196559997275,,,,,,,,,106.88802459998988,107.25213839998467,108.05249210004696,108.03646910004318,108.03650610009208,108.05249210004696,108.05249210004696,108.05249210004696,109.53726139990611,left,0.0,16.052049699937925,,109.53787979995832,109.5525446999818,110.05249899998309,110.03692759992556,,,,,,,,,,,,,,,,,,,,,,,,,,,sub-193,1.0,random_dot,60.38800503992707,
left,left,,7.0,0.0,14.0,0.0,,,,,,,,,110.05249899998309,,,,,,,,,110.0378646000754,110.85257430002092,111.6522955999244,111.63659860007463,111.63663510000332,111.6522955999244,111.6522955999244,111.6522955999244,114.50372739997692,right,0.0,17.42259140009992,,114.50456220004708,114.51856209989636,115.01915930001996,115.00283439992928,,,,,,,,,,,,,,,,,,,,,,,,,,,sub-193,1.0,random_dot,60.38800503992707,
right,right,,7.0,1.0,15.0,1.0,,,,,,,,,115.01915930001996,,,,,,,,,115.00372770009562,115.81971880001949,116.63587150000969,116.61996429995634,116.62000290001744,116.63587150000969,116.63587150000969,116.63587150000969,119.769940600032,left,0.0,17.708681900054216,,119.7709874000866,119.7843176999595,120.2844710999634,120.26893909997308,,,,,,,,,,,,,,,,,,,,,,,,,,,sub-193,1.0,random_dot,60.38800503992707,
right,right,,8.0,0.0,16.0,1.0,,,,,,,,,120.2844710999634,,,,,,,,,120.26952979993077,121.4850556999445,122.28464780002832,122.2697785999626,122.26981010008603,122.28464780002832,122.28464780002832,122.28464780002832,124.45395260001531,right,1.0,16.741080400068313,,124.455024600029,124.46781739988364,124.96855339989996,124.95337829994968,,,,,,,,,,,,,,,,,,,,,,,,,,,sub-193,1.0,random_dot,60.38800503992707,
left,left,,8.0,1.0,17.0,0.0,,,,,,,,,124.96855339989996,,,,,,,,,124.95408269995824,125.76796089997517,126.56792999990284,126.55338719999418,126.55342480004764,126.56792999990284,126.56792999990284,126.56792999990284,129.61947829998098,right,0.0,17.624386500101537,,129.6205327999778,129.63371090008877,130.1348099000752,130.1187149998732,,,,,,,,,,,,,,,,,,,,,,,,,,,sub-193,1.0,random_dot,60.38800503992707,
left,left,,9.0,0.0,18.0,0.0,,,,,,,,,130.1348099000752,,,,,,,,,130.11944600008428,130.4858293000143,131.30071470001712,131.28535480005667,131.28539109998383,131.30071470001712,131.30071470001712,131.30071470001712,135.0696970000863,right,0.0,18.338720500003543,,135.07037390000187,135.0844067998696,135.58409089990892,135.56857550004497,,,,,,,,,,,,,,,,,,,,,,,,,,,sub-193,1.0,random_dot,60.38800503992707,
right,right,,9.0,1.0,19.0,1.0,,,,,,,,,135.58409089990892,,,,,,,,,135.56924119987525,135.68552529998124,136.50078250002116,136.48597369994968,136.4860080999788,136.50078250002116,136.50078250002116,136.50078250002116,137.93897980009206,right,1.0,16.006462200079113,,137.9399727000855,137.950652099913,138.45121470000595,138.43576960009523,,,,,,,,,,,,,,,,,,,,,,,,,,,sub-193,1.0,random_dot,60.38800503992707,
,,,,,,,,,,,,,,,,,,,,,,,,,,,,,,,,,,,,,,,,,,138.43589870003052,138.45121470000595,138.45121470000595,162.28613770008087,space,38.404808700084686,,,,,,,,,,,,,,,,,,,,sub-193,1.0,random_dot,60.38800503992707,
,,,,,,,,,,,,,,,,,,,,,,,,,,,,,,,,,,,,,,,,,,,,,,,,,162.2862024998758,162.29980570008047,162.29980570008047,168.5180907000322,space,20.77803930011578,,,,,,,,,,,,,sub-193,1.0,random_dot,60.38800503992707,
right,right,accuracy,,,,,0.0,0.0,0.0,0.0,0.0,0.0,0.0,1.0,194.45314139989205,,,,,,,,,194.4479867999908,194.7985725000035,195.59806669992395,195.58284180006007,195.58288070000708,195.59806669992395,195.59806669992395,195.59806669992395,199.1179140000604,left,0.0,18.09379170020111,,,,,,,,,,,,,,,,,,,,,168.5255058999173,168.55702339997515,168.55702339997515,194.4337571999058,space,40.44189000013285,,,,,,sub-193,1.0,random_dot,60.38800503992707,
left,left,accuracy,,,,,0.0,0.0,0.0,0.0,0.0,1.0,1.0,0.0,199.1312539000064,,,,,,,,,199.11992070009,199.93136779987253,200.7313635000028,200.7162516999524,200.7162931000348,200.7313635000028,200.7313635000028,200.7313635000028,202.86614209995605,right,0.0,16.701773500069976,,,,,,,,,,,,,,,,,,,,,,,,,,,,,,,,sub-193,1.0,random_dot,60.38800503992707,
right,right,accuracy,,,,,0.0,0.0,0.0,0.0,1.0,0.0,2.0,1.0,202.8812229000032,,,,,,,,,202.86756819998843,202.9811706000473,203.78091279999356,203.76593880006112,203.76597730000503,203.78091279999356,203.78091279999356,203.78091279999356,207.1832029998768,left,0.0,17.964975600130856,,,,,,,,,,,,,,,,,,,,,,,,,,,,,,,,sub-193,1.0,random_dot,60.38800503992707,
left,left,accuracy,,,,,0.0,0.0,0.0,0.0,1.0,1.0,3.0,0.0,207.19757469999604,,,,,,,,,207.18453869991936,207.548002100084,208.34762599994428,208.33159249997695,208.3316261,208.34762599994428,208.34762599994428,208.34762599994428,212.4660511000548,right,0.0,18.68608770007268,,,,,,,,,,,,,,,,,,,,,,,,,,,,,,,,sub-193,1.0,random_dot,60.38800503992707,
left,left,accuracy,,,,,0.0,0.0,0.0,0.0,2.0,0.0,4.0,0.0,212.48167119990103,,,,,,,,,212.4676800998859,213.28121079993437,214.08096519997343,214.0656906000804,214.0657299000304,214.08096519997343,214.08096519997343,214.08096519997343,216.14912449987605,left,1.0,16.62841930007562,,,,,,,,,,,,,,,,,,,,,,,,,,,,,,,,sub-193,1.0,random_dot,60.38800503992707,
right,right,accuracy,,,,,0.0,0.0,0.0,0.0,2.0,1.0,5.0,1.0,216.16389549989253,,,,,,,,,216.1506447000429,216.9643409999553,217.76367789995857,217.749400800094,217.74944050004703,217.76367789995857,217.76367789995857,217.76367789995857,221.1830964998808,right,1.0,17.97986300010234,,,,,,,,,,,,,,,,,,,,,,,,,,,,,,,,sub-193,1.0,random_dot,60.38800503992707,
right,right,accuracy,,,,,0.0,0.0,0.0,0.0,3.0,0.0,6.0,1.0,221.19708359986544,,,,,,,,,221.1844756999053,221.54695450002328,222.3471343999263,222.3309154000599,222.33097289991565,222.3471343999263,222.3471343999263,222.3471343999263,225.46534710004929,right,1.0,17.687494199955836,,,,,,,,,,,,,,,,,,,,,,,,,,,,,,,,sub-193,1.0,random_dot,60.38800503992707,
left,left,accuracy,,,,,0.0,0.0,0.0,0.0,3.0,1.0,7.0,0.0,225.48019349994135,,,,,,,,,225.4672493999824,226.6803937999066,227.48026839992963,227.4651870999951,227.46521839988415,227.48026839992963,227.48026839992963,227.48026839992963,232.78167699999176,right,0.0,19.86749430000782,,,,,,232.4799420998897,,,,,,,,,,,,,,,,,,,,,,,,,,sub-193,1.0,random_dot,60.38800503992707,
right,right,accuracy,,,,,0.0,0.0,0.0,0.0,4.0,0.0,8.0,1.0,232.79669119999744,,,,,,,,,232.78294839989397,232.8962747999467,233.696750999894,233.68088530004025,233.6809155999217,233.696750999894,233.696750999894,233.696750999894,236.34841269999745,right,1.0,17.21650780015625,,,,,,,,,,,,,,,,,,,,,,,,,,,,,,,,sub-193,1.0,random_dot,60.38800503992707,
left,left,accuracy,,,,,0.0,0.0,0.0,0.0,4.0,1.0,9.0,0.0,236.36294590006585,,,,,,,,,236.3500663000159,236.4631085000001,237.2631600999739,237.2479184998665,237.247951899888,237.2631600999739,237.2631600999739,237.2631600999739,241.21536580007523,left,1.0,18.52222799998708,,,,,,,,,,,,,,,,,,,,,,,,,,,,,,,,sub-193,1.0,random_dot,60.38800503992707,
left,left,accuracy,,,,,0.0,0.0,0.0,0.0,5.0,0.0,10.0,0.0,241.22961109993048,,,,,,,,,241.21684619993903,241.32963849999945,242.1294978999067,242.1137932999991,242.11382319987752,242.1294978999067,242.1294978999067,242.1294978999067,246.4991351000499,left,1.0,18.94093430018984,,,,,,,,,,,,,,,,,,,,,,,,,,,,,,,,sub-193,1.0,random_dot,60.38800503992707,
right,right,accuracy,,,,,0.0,0.0,0.0,0.0,5.0,1.0,11.0,1.0,246.51275980006903,,,,,,,,,246.50056229997423,246.61276519997045,247.41231580008755,247.39708760008216,247.39712639991197,247.41231580008755,247.41231580008755,247.41231580008755,248.58128160005435,right,1.0,15.74033490009606,,,,,,,,,,,,,,,,,,,,,,,,,,,,,,,,sub-193,1.0,random_dot,60.38800503992707,
right,right,accuracy,,,,,0.0,0.0,0.0,0.0,6.0,0.0,12.0,1.0,248.5957658998668,,,,,,,,,248.58272710000165,249.79600590001792,250.595583899878,250.58000810001977,250.58003519987687,250.595583899878,250.595583899878,250.595583899878,254.79718949995004,left,0.0,18.76642070012167,,,,,,,,,,,,,,,,,,,,,,,,,,,,,,,,sub-193,1.0,random_dot,60.38800503992707,
left,left,accuracy,,,,,0.0,0.0,0.0,0.0,6.0,1.0,13.0,0.0,254.81218659994192,,,,,,,,,254.7985266998876,256.0142576000653,256.8283999999985,256.8130745999515,256.81310679996386,256.8283999999985,256.8283999999985,256.8283999999985,261.1468845999334,right,0.0,18.88559229997918,,,,,,,,,,,,,,,,,,,,,,,,,,,,,,,,sub-193,1.0,random_dot,60.38800503992707,
left,left,accuracy,,,,,0.0,0.0,0.0,0.0,7.0,0.0,14.0,0.0,261.16198059986345,,,,,,,,,261.14840429998003,262.36344280000776,263.1630029999651,263.1476614999119,263.1477034999989,263.1630029999651,263.1630029999651,263.1630029999651,265.8801819998771,right,0.0,17.2819165000692,,,,,,,,,,,,,,,,,,,,,,,,,,,,,,,,sub-193,1.0,random_dot,60.38800503992707,
right,right,accuracy,,,,,0.0,0.0,0.0,0.0,7.0,1.0,15.0,1.0,265.8954809000716,,,,,,,,,265.8817990999669,266.69523139996454,267.4948901999742,267.48002439993434,267.4800607999787,267.4948901999742,267.4948901999742,267.4948901999742,272.7968409000896,right,1.0,19.864636600017548,,,,,,272.4946870000568,,,,,,,,,,,,,,,,,,,,,,,,,,sub-193,1.0,random_dot,60.38800503992707,
left,left,accuracy,,,,,0.0,0.0,0.0,0.0,8.0,0.0,16.0,0.0,272.81163259991445,,,,,,,,,272.79852809989825,272.912389599951,273.72809770004824,273.71417280007154,273.7142151000444,273.72809770004824,273.72809770004824,273.72809770004824,278.31456759991124,right,0.0,19.161073900060728,,,,,,,,,,,,,,,,,,,,,,,,,,,,,,,,sub-193,1.0,random_dot,60.38800503992707,
right,right,accuracy,,,,,0.0,0.0,0.0,0.0,8.0,1.0,17.0,1.0,278.3279198000673,,,,,,,,,278.31635460001417,278.4277689000592,279.2282267999836,279.21300360001624,279.2130328000057,279.2282267999836,279.2282267999836,279.2282267999836,283.7475831999909,left,0.0,19.09316199994646,,,,,,,,,,,,,,,,,,,,,,,,,,,,,,,,sub-193,1.0,random_dot,60.38800503992707,
right,right,accuracy,,,,,0.0,0.0,0.0,0.0,9.0,0.0,18.0,1.0,283.76087439991534,,,,,,,,,283.74928630003706,283.8606426999904,284.6608197998721,284.6454066999722,284.6454421998933,284.6608197998721,284.6608197998721,284.6608197998721,289.496291999938,right,1.0,19.406553599983454,,,,,,,,,,,,,,,,,,,,,,,,,,,,,,,,sub-193,1.0,random_dot,60.38800503992707,
left,left,accuracy,,,,,0.0,0.0,0.0,0.0,9.0,1.0,19.0,0.0,289.51045989990234,,,,,,,,,289.4978133998811,290.710580999963,291.5103935999796,291.495128700044,291.4951583999209,291.5103935999796,291.5103935999796,291.5103935999796,295.27894750004634,left,1.0,18.330550900194797,,,,,,,,,,,,,,,,,,,,,,,,,,,,,,,,sub-193,1.0,random_dot,60.38800503992707,
right,right,accuracy,,,,,0.0,0.0,0.0,0.0,10.0,0.0,20.0,1.0,295.2939311999362,,,,,,,,,295.2802730000112,296.49375859997235,297.29351200000383,297.278313399991,297.27834509988315,297.29351200000383,297.29351200000383,297.29351200000383,301.1788057000376,left,0.0,18.45332460012287,,,,,,,,,,,,,,,,,,,,,,,,,,,,,,,,sub-193,1.0,random_dot,60.38800503992707,
left,left,accuracy,,,,,0.0,0.0,0.0,0.0,10.0,1.0,21.0,0.0,301.1935703998897,,,,,,,,,301.18012650008313,301.54407180007547,302.3438391999807,302.32913569989614,302.32917089993134,302.3438391999807,302.3438391999807,302.3438391999807,305.4445297999773,right,0.0,17.667336700018495,,,,,,,,,,,,,,,,,,,,,,,,,,,,,,,,sub-193,1.0,random_dot,60.38800503992707,
right,right,accuracy,,,,,0.0,0.0,0.0,0.0,11.0,0.0,22.0,1.0,305.45982980006374,,,,,,,,,305.446061699884,305.5605707000941,306.36010909988545,306.3449150000233,306.34494489990175,306.36010909988545,306.36010909988545,306.36010909988545,309.1445526999887,right,1.0,17.34788200003095,,,,,,,,,,,,,,,,,,,,,,,,,,,,,,,,sub-193,1.0,random_dot,60.38800503992707,
left,left,accuracy,,,,,0.0,0.0,0.0,0.0,11.0,1.0,23.0,0.0,309.1595308999531,,,,,,,,,309.1461469999049,309.9600158999674,310.759815099882,310.7447732000146,310.7448128000833,310.759815099882,310.759815099882,310.759815099882,316.2112239000853,left,1.0,20.01651890017092,,,,,,315.7593010000419,,,,,,,,,,,,,,,,,,,,,,,,,,sub-193,1.0,random_dot,60.38800503992707,
right,right,accuracy,,,,,0.0,0.0,0.0,0.0,12.0,0.0,24.0,1.0,316.2258949999232,,,,,,,,,316.21279240003787,317.02676609996706,317.825765500078,317.8105051999446,317.8105413999874,317.825765500078,317.825765500078,317.825765500078,321.39417009986937,right,1.0,18.12899270025082,,,,,,,,,,,,,,,,,,,,,,,,,,,,,,,,sub-193,1.0,random_dot,60.38800503992707,
left,left,accuracy,,,,,0.0,0.0,0.0,0.0,12.0,1.0,25.0,0.0,321.4089108998887,,,,,,,,,321.39567180001177,321.7591315000318,322.55897290003486,322.54343429999426,322.54352229996584,322.55897290003486,322.55897290003486,322.55897290003486,327.4774140000809,right,0.0,19.490001500118524,,,,,,,,,,,,,,,,,,,,,,,,,,,,,,,,sub-193,1.0,random_dot,60.38800503992707,
left,left,accuracy,,,,,0.0,0.0,0.0,0.0,13.0,0.0,26.0,0.0,327.4921061000787,,,,,,,,,327.47863820008934,327.5928245000541,328.3918872999493,328.37674159999005,328.3767794999294,328.3918872999493,328.3918872999493,328.3918872999493,332.4929402999114,left,1.0,18.67332090018317,,,,,,,,,,,,,,,,,,,,,,,,,,,,,,,,sub-193,1.0,random_dot,60.38800503992707,
right,right,accuracy,,,,,0.0,0.0,0.0,0.0,13.0,1.0,27.0,1.0,332.5087649000343,,,,,,,,,332.4941070000641,333.3090009998996,334.10831260005943,334.09300519991666,334.0930403000675,334.10831260005943,334.10831260005943,334.10831260005943,339.21151789999567,left,0.0,19.67519249999896,,,,,,339.1082780000288,,,,,,,,,,,,,,,,,,,,,,,,,,sub-193,1.0,random_dot,60.38800503992707,
right,right,accuracy,,,,,0.0,0.0,0.0,0.0,14.0,0.0,28.0,1.0,339.22504749987274,,,,,,,,,339.2131711000111,339.5753112998791,340.37485729996115,340.36006930004805,340.36011009989306,340.37485729996115,340.37485729996115,340.37485729996115,343.3598056000192,right,1.0,17.54942600009963,,,,,,,,,,,,,,,,,,,,,,,,,,,,,,,,sub-193,1.0,random_dot,60.38800503992707,
left,left,accuracy,,,,,0.0,0.0,0.0,0.0,14.0,1.0,29.0,0.0,343.3750342000276,,,,,,,,,343.3613473000005,343.4745316999033,344.27499149995856,344.2598530999385,344.2598830999341,344.27499149995856,344.27499149995856,344.27499149995856,345.8936159000732,left,1.0,16.189103400101885,,,,,,,,,,,,,,,,,,,,,,,,,,,,,,,,sub-193,1.0,random_dot,60.38800503992707,
right,right,accuracy,,,,,0.0,0.0,0.0,0.0,15.0,0.0,30.0,1.0,345.9079772999976,,,,,,,,,345.8950418999884,347.1080028999131,347.9078593000304,347.8926671000663,347.8927503998857,347.9078593000304,347.9078593000304,347.9078593000304,350.6593619999476,left,0.0,17.31695910007693,,,,,,,,,,,,,,,,,,,,,,,,,,,,,,,,sub-193,1.0,random_dot,60.38800503992707,
left,left,accuracy,,,,,0.0,0.0,0.0,0.0,15.0,1.0,31.0,0.0,350.6747842999175,,,,,,,,,350.660841899924,351.02450509998016,351.8242625000421,351.8087714998983,351.8088034999091,351.8242625000421,351.8242625000421,351.8242625000421,354.6424132999964,left,1.0,17.381933600176126,,,,,,,,,,,,,,,,,,,,,,,,,,,,,,,,sub-193,1.0,random_dot,60.38800503992707,
right,right,accuracy,,,,,0.0,0.0,0.0,0.0,16.0,0.0,32.0,1.0,354.6576123998966,,,,,,,,,354.6439928000327,355.4577556999866,356.25738289998844,356.24213659996167,356.24217209988274,356.25738289998844,356.25738289998844,356.25738289998844,359.7939079999924,right,1.0,18.101148100104183,,,,,,,,,,,,,,,,,,,,,,,,,,,,,,,,sub-193,1.0,random_dot,60.38800503992707,
left,left,accuracy,,,,,0.0,0.0,0.0,0.0,16.0,1.0,33.0,0.0,359.8081845000852,,,,,,,,,359.79547880007885,360.15863560000435,360.95808620005846,360.9432576999534,360.94328989996575,360.95808620005846,360.95808620005846,360.95808620005846,366.2614784999751,right,0.0,19.87657170020975,,,,,,365.9579100999981,,,,,,,,,,,,,,,,,,,,,,,,,,sub-193,1.0,random_dot,60.38800503992707,
left,left,accuracy,,,,,0.0,0.0,0.0,0.0,17.0,0.0,34.0,0.0,366.2746955999173,,,,,,,,,366.263005600078,366.37496849987656,367.1751697000582,367.1595179999713,367.159565199865,367.1751697000582,367.1751697000582,367.1751697000582,369.7105670000892,right,0.0,17.10403690021485,,,,,,,,,,,,,,,,,,,,,,,,,,,,,,,,sub-193,1.0,random_dot,60.38800503992707,
right,right,accuracy,,,,,0.0,0.0,0.0,0.0,17.0,1.0,35.0,1.0,369.72453389992006,,,,,,,,,369.7119827999268,370.9243473000825,371.7246238000225,371.70925429998897,371.70928329997696,371.7246238000225,371.7246238000225,371.7246238000225,375.2754025000613,right,1.0,18.111737800063565,,,,,,,,,,,,,,,,,,,,,,,,,,,,,,,,sub-193,1.0,random_dot,60.38800503992707,
left,left,accuracy,,,,,0.0,0.0,0.0,0.0,18.0,0.0,36.0,0.0,375.29014439997263,,,,,,,,,375.2766537000425,376.0900669998955,376.8902626000345,376.8761459998786,376.8761857000645,376.8902626000345,376.8902626000345,376.8902626000345,379.3237145000603,left,1.0,17.001479300204664,,,,,,,,,,,,,,,,,,,,,,,,,,,,,,,,sub-193,1.0,random_dot,60.38800503992707,
right,right,accuracy,,,,,0.0,0.0,0.0,0.0,18.0,1.0,37.0,1.0,379.3394357000943,,,,,,,,,379.3251018999144,379.6744055999443,380.4902222000528,380.4743900999893,380.4744305000641,380.4902222000528,380.4902222000528,380.4902222000528,383.5252666999586,left,0.0,17.606322400039062,,,,,,,,,,,,,,,,,,,,,,,,,,,,,,,,sub-193,1.0,random_dot,60.38800503992707,
left,left,accuracy,,,,,0.0,0.0,0.0,0.0,19.0,0.0,38.0,0.0,383.5393763999455,,,,,,,,,383.52666469989344,384.3398001000751,385.1393361999653,385.1244409999345,385.1244776998647,385.1393361999653,385.1393361999653,385.1393361999653,390.7077079999726,left,1.0,20.131904900074005,,,,,,390.1393065000884,,,,,,,,,,,,,,,,,,,,,,,,,,sub-193,1.0,random_dot,60.38800503992707,
right,right,accuracy,,,,,0.0,0.0,0.0,0.0,19.0,1.0,39.0,1.0,390.7225549998693,,,,,,,,,390.709128000075,391.0735116000287,391.8725511999801,391.8572702999227,391.8573093998712,391.8725511999801,391.8725511999801,391.8725511999801,394.757764399983,right,1.0,17.446256200084463,,,,,,,,,,,,,,,,,,,,,,,,,,,,,,,,sub-193,1.0,random_dot,60.38800503992707,
right,right,accuracy,,,,,0.0,0.0,0.0,0.0,20.0,0.0,40.0,1.0,394.7722426999826,,,,,,,,,394.7592509000097,395.9730956000276,396.7723725000397,396.7568103999365,396.7568659000098,396.7723725000397,396.7723725000397,396.7723725000397,400.1412086999044,right,1.0,17.93574159988202,,,,,,,,,,,,,,,,,,,,,,,,,,,,,,,,sub-193,1.0,random_dot,60.38800503992707,
left,left,accuracy,,,,,0.0,0.0,0.0,0.0,20.0,1.0,41.0,0.0,400.1554471999407,,,,,,,,,400.1427952998784,400.2551416999195,401.0560164998751,401.04075110005215,401.0407878998667,401.0560164998751,401.0560164998751,401.0560164998751,406.25790269998834,left,1.0,19.765009300084785,,,,,,406.0556324000936,,,,,,,,,,,,,,,,,,,,,,,,,,sub-193,1.0,random_dot,60.38800503992707,
right,right,accuracy,,,,,0.0,0.0,0.0,0.0,21.0,0.0,42.0,1.0,406.27180820005015,,,,,,,,,406.2594743000809,406.6222755000927,407.4219116999302,407.40666690003127,407.406708399998,407.4219116999302,407.4219116999302,407.4219116999302,410.0738385000732,right,1.0,17.222501500044018,,,,,,,,,,,,,,,,,,,,,,,,,,,,,,,,sub-193,1.0,random_dot,60.38800503992707,
left,left,accuracy,,,,,0.0,0.0,0.0,0.0,21.0,1.0,43.0,0.0,410.0882649000269,,,,,,,,,410.0754426999483,410.1886750999838,410.9884553998709,410.9735322000925,410.973567500012,410.9884553998709,410.9884553998709,410.9884553998709,413.9748863000423,left,1.0,17.55980240018107,,,,,,,,,,,,,,,,,,,,,,,,,,,,,,,,sub-193,1.0,random_dot,60.38800503992707,
left,left,accuracy,,,,,0.0,0.0,0.0,0.0,22.0,0.0,44.0,0.0,413.9881637999788,,,,,,,,,413.9766466000583,415.1882881000638,415.9880582999904,415.9736458999105,415.9736792000476,415.9880582999904,415.9880582999904,415.9880582999904,417.77327329991385,left,1.0,16.35163740022108,,,,,,,,,,,,,,,,,,,,,,,,,,,,,,,,sub-193,1.0,random_dot,60.38800503992707,
right,right,accuracy,,,,,0.0,0.0,0.0,0.0,22.0,1.0,45.0,1.0,417.7880883999169,,,,,,,,,417.7748155000154,418.9888162999414,419.7876720998902,419.773133700015,419.7731703000609,419.7876720998902,419.7876720998902,419.7876720998902,422.9396156000439,left,0.0,17.723205500049517,,,,,,,,,,,,,,,,,,,,,,,,,,,,,,,,sub-193,1.0,random_dot,60.38800503992707,
left,left,accuracy,,,,,0.0,0.0,0.0,0.0,23.0,0.0,46.0,0.0,422.9545042999089,,,,,,,,,422.9411297000479,424.1557799000293,424.971651900094,424.9559853998944,424.9560163998976,424.971651900094,424.971651900094,424.971651900094,427.3899586999323,right,0.0,16.989371000090614,,,,,,,,,,,,,,,,,,,,,,,,,,,,,,,,sub-193,1.0,random_dot,60.38800503992707,
right,right,accuracy,,,,,0.0,0.0,0.0,0.0,23.0,1.0,47.0,1.0,427.4044250999577,,,,,,,,,427.39146879990585,427.7542902000714,428.5537256000098,428.5388992999215,428.5389350999613,428.5537256000098,428.5537256000098,428.5537256000098,430.7395764999092,right,1.0,16.754142000107095,,,,,,,,,,,,,,,,,,,,,,,,,,,,,,,,sub-193,1.0,random_dot,60.38800503992707,
left,left,accuracy,,,,,0.0,0.0,0.0,0.0,24.0,0.0,48.0,0.0,430.7541129000019,,,,,,,,,430.7410226999782,431.9547558000777,432.7530376000796,432.7387850999367,432.7388186000753,432.7530376000796,432.7530376000796,432.7530376000796,435.7890566000715,left,1.0,17.60413260012865,,,,,,,,,,,,,,,,,,,,,,,,,,,,,,,,sub-193,1.0,random_dot,60.38800503992707,
right,right,accuracy,,,,,0.0,0.0,0.0,0.0,24.0,1.0,49.0,1.0,435.8038969999179,,,,,,,,,435.7902625999413,435.9043467000593,436.70396830001846,436.6890658000484,436.6891065000091,436.70396830001846,436.70396830001846,436.70396830001846,439.2047258000821,right,1.0,17.06793970009312,,,,,,,,,,,,,,,,,,,,,,,,,,,,,,,,sub-193,1.0,random_dot,60.38800503992707,
right,right,accuracy,,,,,0.0,0.0,0.0,0.0,25.0,0.0,50.0,1.0,439.2207959999796,,,,,,,,,439.2061779000797,439.3225903999992,440.13694319990464,440.12221010006033,440.1222433999647,440.13694319990464,440.13694319990464,440.13694319990464,442.7060833999421,right,1.0,17.14016990014352,,,,,,,,,,,,,,,,,,,,,,,,,,,,,,,,sub-193,1.0,random_dot,60.38800503992707,
left,left,accuracy,,,,,0.0,0.0,0.0,0.0,25.0,1.0,51.0,0.0,442.72002099989913,,,,,,,,,442.7076900999528,443.0710265000816,443.87027959991246,443.8551211000886,443.8551582000218,443.87027959991246,443.87027959991246,443.87027959991246,446.60755109996535,left,1.0,17.31132400012575,,,,,,,,,,,,,,,,,,,,,,,,,,,,,,,,sub-193,1.0,random_dot,60.38800503992707,
left,left,accuracy,,,,,0.0,0.0,0.0,0.0,26.0,0.0,52.0,0.0,446.6199455999304,,,,,,,,,446.6089482998941,447.420210900018,448.21980890003033,448.2048027999699,448.20483410009183,448.21980890003033,448.21980890003033,448.21980890003033,450.7056901999749,left,1.0,17.048807800048962,,,,,,,,,,,,,,,,,,,,,,,,,,,,,,,,sub-193,1.0,random_dot,60.38800503992707,
right,right,accuracy,,,,,0.0,0.0,0.0,0.0,26.0,1.0,53.0,1.0,450.7208773999009,,,,,,,,,450.707247100072,451.0704592000693,451.8697605000343,451.85455889999866,451.8545890999958,451.8697605000343,451.8697605000343,451.8697605000343,454.0715624000877,right,1.0,16.763656599912792,,,,,,,,,,,,,,,,,,,,,,,,,,,,,,,,sub-193,1.0,random_dot,60.38800503992707,
right,right,accuracy,,,,,0.0,0.0,0.0,0.0,27.0,0.0,54.0,1.0,454.0867292999756,,,,,,,,,454.07348100002855,454.1877371999435,455.0030133998953,454.9877863998991,454.98782829986885,455.0030133998953,455.0030133998953,455.0030133998953,458.0554581999313,right,1.0,17.62170850019902,,,,,,,,,,,,,,,,,,,,,,,,,,,,,,,,sub-193,1.0,random_dot,60.38800503992707,
left,left,accuracy,,,,,0.0,0.0,0.0,0.0,27.0,1.0,55.0,0.0,458.069854100002,,,,,,,,,458.0567073998973,458.8698368000332,459.67044460005127,459.6545329999644,459.6545672998764,459.67044460005127,459.67044460005127,459.67044460005127,462.82094320002943,right,0.0,17.714026199886575,,,,,,,,,,,,,,,,,,,,,,,,,,,,,,,,sub-193,1.0,random_dot,60.38800503992707,
right,right,accuracy,,,,,0.0,0.0,0.0,0.0,28.0,0.0,56.0,1.0,462.83593629999086,,,,,,,,,462.8222695000004,462.93676399998367,463.75266989995725,463.7374819999095,463.737576100044,463.75266989995725,463.75266989995725,463.75266989995725,465.437740100082,left,0.0,16.249566900078207,,,,,,,,,,,,,,,,,,,,,,,,,,,,,,,,sub-193,1.0,random_dot,60.38800503992707,
left,left,accuracy,,,,,0.0,0.0,0.0,0.0,28.0,1.0,57.0,0.0,465.4529343000613,,,,,,,,,465.43946860008873,465.55239189998247,466.3524380000308,466.3366761000361,466.33671330008656,466.3524380000308,466.3524380000308,466.3524380000308,467.8375559998676,right,0.0,16.04587550018914,,,,,,,,,,,,,,,,,,,,,,,,,,,,,,,,sub-193,1.0,random_dot,60.38800503992707,
right,right,accuracy,,,,,0.0,0.0,0.0,0.0,29.0,0.0,58.0,1.0,467.8521795999259,,,,,,,,,467.8392334000673,468.2032121999655,469.0022630000021,468.9870144999586,468.9870509000029,469.0022630000021,469.0022630000021,469.0022630000021,472.6041508999188,right,1.0,18.17304370016791,,,,,,,,,,,,,,,,,,,,,,,,,,,,,,,,sub-193,1.0,random_dot,60.38800503992707,
left,left,accuracy,,,,,0.0,0.0,0.0,0.0,29.0,1.0,59.0,0.0,472.61930870008655,,,,,,,,,472.60555349988863,473.4187938000541,474.2188259998802,474.2046071998775,474.2046465999447,474.2188259998802,474.2188259998802,474.2188259998802,476.47219170001335,left,1.0,16.824737900169566,,,,,,,,,,,,,,,,,,,,,,,,,,,,,,,,sub-193,1.0,random_dot,60.38800503992707,
,,accuracy,,,,,0.0,0.0,0.0,0.0,,,,,,,,,,,,,,,,,,,,,,,,,,,,,,,,,,,,,,,,,,,,,,,,,,,,,,,,,sub-193,1.0,random_dot,60.38800503992707,
left,left,speed,,,,,0.0,1.0,1.0,1.0,0.0,0.0,0.0,0.0,496.4415821998846,,,,,,,,,496.436404600041,497.6350817000493,498.45061679999344,498.435349599924,498.43539020000026,498.45061679999344,498.45061679999344,498.45061679999344,499.3863419999834,left,1.0,15.505237500183284,,,,,,,,,,,,,,,,,,,,,476.473466000054,476.4913099000696,476.4913099000696,496.4217620999552,space,34.50437960005365,,,,,,sub-193,1.0,random_dot,60.38800503992707,
right,right,speed,,,,,0.0,1.0,1.0,1.0,0.0,1.0,1.0,1.0,499.4007411000785,,,,,,,,,499.3884507000912,500.6013283000793,501.4012945999857,501.3863353000488,501.3863750998862,501.4012945999857,501.4012945999857,501.4012945999857,502.7525418000296,left,0.0,15.917732400121167,,,,,,,,,,,,,,,,,,,,,,,,,,,,,,,,sub-193,1.0,random_dot,60.38800503992707,
left,left,speed,,,,,0.0,1.0,1.0,1.0,1.0,0.0,2.0,0.0,502.7674899999984,,,,,,,,,502.7540478999727,503.11757940007374,503.9169801999815,503.9018933000043,503.9019309999421,503.9169801999815,503.9169801999815,503.9169801999815,505.4691494998988,right,0.0,16.115068200044334,,,,,,,,,,,,,,,,,,,,,,,,,,,,,,,,sub-193,1.0,random_dot,60.38800503992707,
right,right,speed,,,,,0.0,1.0,1.0,1.0,1.0,1.0,3.0,1.0,505.485870399978,,,,,,,,,505.4706981999334,506.6850489999633,507.5002389999572,507.4895114998799,507.489541299874,507.5002389999572,507.5002389999572,507.5002389999572,509.60117889987305,left,0.0,16.66823840001598,,,,,,,,,,,,,,,,,,,,,,,,,,,,,,,,sub-193,1.0,random_dot,60.38800503992707,
left,left,speed,,,,,0.0,1.0,1.0,1.0,2.0,0.0,4.0,0.0,509.61685719992965,,,,,,,,,509.6025630999357,510.4005088999402,511.20079250005074,511.1849322998896,511.1849674000405,511.20079250005074,511.20079250005074,511.20079250005074,512.3700784000102,right,0.0,15.74235270009376,,,,,,,,,,,,,,,,,,,,,,,,,,,,,,,,sub-193,1.0,random_dot,60.38800503992707,
right,right,speed,,,,,0.0,1.0,1.0,1.0,2.0,1.0,5.0,1.0,512.3831827000249,,,,,,,,,512.3721546998713,512.4838624999393,513.2833634000272,513.2682805999648,513.2683174998965,513.2833634000272,513.2833634000272,513.2833634000272,514.902459200006,left,0.0,16.178909700131044,,,,,,,,,,,,,,,,,,,,,,,,,,,,,,,,sub-193,1.0,random_dot,60.38800503992707,
left,left,speed,,,,,0.0,1.0,1.0,1.0,3.0,0.0,6.0,0.0,514.9169894000515,,,,,,,,,514.9037651000544,515.2677561000455,516.0834204999264,516.0680913999677,516.0681286000181,516.0834204999264,516.0834204999264,516.0834204999264,518.2356775999069,left,1.0,16.722099700011313,,,,,,,,,,,,,,,,,,,,,,,,,,,,,,,,sub-193,1.0,random_dot,60.38800503992707,
right,right,speed,,,,,0.0,1.0,1.0,1.0,3.0,1.0,7.0,1.0,518.2506391999777,,,,,,,,,518.2372258999385,519.4500655999873,520.2497968999669,520.2343659000471,520.2344017999712,520.2497968999669,520.2497968999669,520.2497968999669,522.7691903000232,right,1.0,17.090663000009954,,,,,,,,,,,,,,,,,,,,,,,,,,,,,,,,sub-193,1.0,random_dot,60.38800503992707,
left,left,speed,,,,,0.0,1.0,1.0,1.0,4.0,0.0,8.0,0.0,522.7828494999558,,,,,,,,,522.7715694999788,523.5832930998877,524.3830468999222,524.3683412000537,524.3683718000539,524.3830468999222,524.3830468999222,524.3830468999222,525.8692347998731,left,1.0,16.05924590001814,,,,,,,,,,,,,,,,,,,,,,,,,,,,,,,,sub-193,1.0,random_dot,60.38800503992707,
right,right,speed,,,,,0.0,1.0,1.0,1.0,4.0,1.0,9.0,1.0,525.8829008000903,,,,,,,,,525.8705943999812,526.2329086998943,527.0327526000328,527.0175057000015,527.0175423000474,527.0327526000328,527.0327526000328,527.0327526000328,529.385743800085,left,0.0,16.91625400003977,,,,,,,,,,,,,,,,,,,,,,,,,,,,,,,,sub-193,1.0,random_dot,60.38800503992707,
right,right,speed,,,,,0.0,1.0,1.0,1.0,5.0,0.0,10.0,1.0,529.4001531999093,,,,,,,,,529.3874345000368,530.5996687998995,531.3995004999451,531.3843213999644,531.3843594000209,531.3995004999451,531.3995004999451,531.3995004999451,533.0843968999106,right,1.0,16.245708600152284,,,,,,,,,,,,,,,,,,,,,,,,,,,,,,,,sub-193,1.0,random_dot,60.38800503992707,
left,left,speed,,,,,0.0,1.0,1.0,1.0,5.0,1.0,11.0,0.0,533.099262899952,,,,,,,,,533.0859753999393,533.4493032000028,534.2490838998929,534.2339782000054,534.2340202999767,534.2490838998929,534.2490838998929,534.2490838998929,536.4864912000485,left,1.0,16.811217800248414,,,,,,,,,,,,,,,,,,,,,,,,,,,,,,,,sub-193,1.0,random_dot,60.38800503992707,
left,left,speed,,,,,0.0,1.0,1.0,1.0,6.0,0.0,12.0,0.0,536.4989044000395,,,,,,,,,536.488691000035,536.8495898998808,537.6492019998841,537.6341331999283,537.6341770999134,537.6492019998841,537.6492019998841,537.6492019998841,539.3350078999065,right,0.0,16.257173900026828,,,,,,,,,,,,,,,,,,,,,,,,,,,,,,,,sub-193,1.0,random_dot,60.38800503992707,
right,right,speed,,,,,0.0,1.0,1.0,1.0,6.0,1.0,13.0,1.0,539.3496030999813,,,,,,,,,539.3363957998808,540.5495154000819,541.3488650000654,541.3336982999463,541.3337367000058,541.3488650000654,541.3488650000654,541.3488650000654,542.8345536000561,right,1.0,16.045909099979326,,,,,,,,,,,,,,,,,,,,,,,,,,,,,,,,sub-193,1.0,random_dot,60.38800503992707,
left,left,speed,,,,,0.0,1.0,1.0,1.0,7.0,0.0,14.0,0.0,542.8489461999852,,,,,,,,,542.8359546000138,544.0487722998951,544.8486756999046,544.8340495999437,544.8340886000078,544.8486756999046,544.8486756999046,544.8486756999046,547.1514147999696,right,0.0,16.875590700190514,,,,,,,,,,,,,,,,,,,,,,,,,,,,,,,,sub-193,1.0,random_dot,60.38800503992707,
right,right,speed,,,,,0.0,1.0,1.0,1.0,7.0,1.0,15.0,1.0,547.1654485999607,,,,,,,,,547.1529466998763,547.965355399996,548.7655144000892,548.7501006000675,548.7501370999962,548.7655144000892,548.7655144000892,548.7655144000892,551.7839210999664,right,1.0,17.579276100033894,,,,,,,,,,,,,,,,,,,,,,,,,,,,,,,,sub-193,1.0,random_dot,60.38800503992707,
right,right,speed,,,,,0.0,1.0,1.0,1.0,8.0,0.0,16.0,1.0,551.7985759000294,,,,,,,,,551.7855559000745,552.1484471000731,552.9483962999657,552.9331368999556,552.9331672999542,552.9483962999657,552.9483962999657,552.9483962999657,554.5503086999524,left,0.0,16.168708899989724,,,,,,,,,,,,,,,,,,,,,,,,,,,,,,,,sub-193,1.0,random_dot,60.38800503992707,
left,left,speed,,,,,0.0,1.0,1.0,1.0,8.0,1.0,17.0,0.0,554.5654533000197,,,,,,,,,554.5520551998634,554.6649090999272,555.464877899969,555.4494769999292,555.449518899899,555.464877899969,555.464877899969,555.464877899969,557.6011093000416,right,0.0,16.707934099948034,,,,,,,,,,,,,,,,,,,,,,,,,,,,,,,,sub-193,1.0,random_dot,60.38800503992707,
right,right,speed,,,,,0.0,1.0,1.0,1.0,9.0,0.0,18.0,1.0,557.6149895999115,,,,,,,,,557.6024923999794,558.4148669999558,559.2145521000493,559.1991620999761,559.1991957998835,559.2145521000493,559.2145521000493,559.2145521000493,561.2175268998835,right,1.0,16.573185799876228,,,,,,,,,,,,,,,,,,,,,,,,,,,,,,,,sub-193,1.0,random_dot,60.38800503992707,
left,left,speed,,,,,0.0,1.0,1.0,1.0,9.0,1.0,19.0,0.0,561.2313357000239,,,,,,,,,561.2203665000852,562.0314964998979,562.8314779000357,562.8163757000584,562.8164135999978,562.8314779000357,562.8314779000357,562.8314779000357,563.9175003999844,left,1.0,15.65667140018195,,,,,,,,,,,,,,,,,,,,,,,,,,,,,,,,sub-193,1.0,random_dot,60.38800503992707,
right,right,speed,,,,,0.0,1.0,1.0,1.0,10.0,0.0,20.0,1.0,563.9316896998789,,,,,,,,,563.9192365999334,564.7318545999005,565.5312683000229,565.5156803000718,565.5157117000781,565.5312683000229,565.5312683000229,565.5312683000229,567.8495946999174,left,0.0,16.884440900059417,,,,,,,,,,,,,,,,,,,,,,,,,,,,,,,,sub-193,1.0,random_dot,60.38800503992707,
left,left,speed,,,,,0.0,1.0,1.0,1.0,10.0,1.0,21.0,0.0,567.8643386999611,,,,,,,,,567.8511727000587,567.9647729999851,568.7642699000426,568.7490669998806,568.7491444000043,568.7642699000426,568.7642699000426,568.7642699000426,569.8846928998828,left,1.0,15.693183399969712,,,,,,,,,,,,,,,,,,,,,,,,,,,,,,,,sub-193,1.0,random_dot,60.38800503992707,
left,left,speed,,,,,0.0,1.0,1.0,1.0,11.0,0.0,22.0,0.0,569.8977274000645,,,,,,,,,569.8864527000114,570.2481535000261,571.0473921999801,571.032185100019,571.0322245000862,571.0473921999801,571.0473921999801,571.0473921999801,571.9841080999468,right,0.0,15.510995200136676,,,,,,,,,,,,,,,,,,,,,,,,,,,,,,,,sub-193,1.0,random_dot,60.38800503992707,
right,right,speed,,,,,0.0,1.0,1.0,1.0,11.0,1.0,23.0,1.0,571.99741489999,,,,,,,,,571.9855758999474,572.7986874000635,573.6142450000625,573.5986045999452,573.5986404998694,573.6142450000625,573.6142450000625,573.6142450000625,575.2320481000934,left,0.0,16.185845899861306,,,,,,,,,,,,,,,,,,,,,,,,,,,,,,,,sub-193,1.0,random_dot,60.38800503992707,
right,right,speed,,,,,0.0,1.0,1.0,1.0,12.0,0.0,24.0,1.0,575.2468435999472,,,,,,,,,575.2334908999037,576.4476111999247,577.2472496000119,577.2318833000027,577.231911999872,577.2472496000119,577.2472496000119,577.2472496000119,579.2488980998751,right,1.0,16.569932600250468,,,,,,,,,,,,,,,,,,,,,,,,,,,,,,,,sub-193,1.0,random_dot,60.38800503992707,
left,left,speed,,,,,0.0,1.0,1.0,1.0,12.0,1.0,25.0,0.0,579.2638490998652,,,,,,,,,579.250554600032,579.6146760999691,580.4305728999898,580.4152057000902,580.4152393999975,580.4305728999898,580.4305728999898,580.4305728999898,581.5824736000504,left,1.0,15.718549800105391,,,,,,,,,,,,,,,,,,,,,,,,,,,,,,,,sub-193,1.0,random_dot,60.38800503992707,
right,right,speed,,,,,0.0,1.0,1.0,1.0,13.0,0.0,26.0,1.0,581.5972418999299,,,,,,,,,581.5840000000317,581.9471426999662,582.7478594998829,582.7322833000217,582.7323185999412,582.7478594998829,582.7478594998829,582.7478594998829,583.8155042999424,left,0.0,15.631992200156674,,,,,,,,,,,,,,,,,,,,,,,,,,,,,,,,sub-193,1.0,random_dot,60.38800503992707,
left,left,speed,,,,,0.0,1.0,1.0,1.0,13.0,1.0,27.0,0.0,583.8302996000275,,,,,,,,,583.8171665999107,585.0302718000021,585.830209699925,585.8149721000809,585.81500339997,585.830209699925,585.830209699925,585.830209699925,588.831877599936,right,0.0,17.562476200051606,,,,,,,,,,,,,,,,,,,,,,,,,,,,,,,,sub-193,1.0,random_dot,60.38800503992707,
left,left,speed,,,,,0.0,1.0,1.0,1.0,14.0,0.0,28.0,0.0,588.8468617000617,,,,,,,,,588.8334685999434,588.9475714000873,589.7464765999466,589.7318851000164,589.7319187000394,589.7464765999466,589.7464765999466,589.7464765999466,591.6332568998914,right,0.0,16.459942900110036,,,,,,,,,,,,,,,,,,,,,,,,,,,,,,,,sub-193,1.0,random_dot,60.38800503992707,
right,right,speed,,,,,0.0,1.0,1.0,1.0,14.0,1.0,29.0,1.0,591.6466035000049,,,,,,,,,591.6346026998945,591.9968033998739,592.7967936000787,592.7815948999487,592.7816353999078,592.7967936000787,592.7967936000787,592.7967936000787,596.2647392000072,right,1.0,18.03315290017053,,,,,,,,,,,,,,,,,,,,,,,,,,,,,,,,sub-193,1.0,random_dot,60.38800503992707,
right,right,speed,,,,,0.0,1.0,1.0,1.0,15.0,0.0,30.0,1.0,596.2803871999495,,,,,,,,,596.2660938000772,596.6294672999065,597.429431800032,597.4141525998712,597.4141865998972,597.429431800032,597.429431800032,597.429431800032,599.4479098999873,left,0.0,16.58286810014397,,,,,,,,,,,,,,,,,,,,,,,,,,,,,,,,sub-193,1.0,random_dot,60.38800503992707,
left,left,speed,,,,,0.0,1.0,1.0,1.0,15.0,1.0,31.0,0.0,599.4628421000671,,,,,,,,,599.4498469999526,600.6630665999837,601.4630398999434,601.448018199997,601.4480520000216,601.4630398999434,601.4630398999434,601.4630398999434,603.6984550999478,left,1.0,16.80524060013704,,,,,,,,,,,,,,,,,,,,,,,,,,,,,,,,sub-193,1.0,random_dot,60.38800503992707,
left,left,speed,,,,,0.0,1.0,1.0,1.0,16.0,0.0,32.0,0.0,603.7127680999693,,,,,,,,,603.7001282998826,604.5126724999864,605.3124625000637,605.2971344999969,605.2971870999318,605.3124625000637,605.3124625000637,605.3124625000637,607.6148274999578,left,1.0,16.870793200097978,,,,,,,,,,,,,,,,,,,,,,,,,,,,,,,,sub-193,1.0,random_dot,60.38800503992707,
right,right,speed,,,,,0.0,1.0,1.0,1.0,16.0,1.0,33.0,1.0,607.6292783999816,,,,,,,,,607.6164525998756,608.8297621000092,609.6455590000842,609.6303306999616,609.6303648999892,609.6455590000842,609.6455590000842,609.6455590000842,611.7977090999484,right,1.0,16.71729029994458,,,,,,,,,,,,,,,,,,,,,,,,,,,,,,,,sub-193,1.0,random_dot,60.38800503992707,
left,left,speed,,,,,0.0,1.0,1.0,1.0,17.0,0.0,34.0,0.0,611.8123590000905,,,,,,,,,611.7990649000276,612.6125119000208,613.4124709998723,613.3970802999102,613.3971190999728,613.4124709998723,613.4124709998723,613.4124709998723,614.9816346999723,left,1.0,16.142965500010177,,,,,,,,,,,,,,,,,,,,,,,,,,,,,,,,sub-193,1.0,random_dot,60.38800503992707,
right,right,speed,,,,,0.0,1.0,1.0,1.0,17.0,1.0,35.0,1.0,614.9955072000157,,,,,,,,,614.9831896000542,615.7957780999132,616.5955850998871,616.580189500004,616.5802267999388,616.5955850998871,616.5955850998871,616.5955850998871,618.4975862998981,right,1.0,16.466647000052035,,,,,,,,,,,,,,,,,,,,,,,,,,,,,,,,sub-193,1.0,random_dot,60.38800503992707,
left,left,speed,,,,,0.0,1.0,1.0,1.0,18.0,0.0,36.0,0.0,618.511911700014,,,,,,,,,618.4992823000066,618.611906999955,619.4118917000014,619.3963164000306,619.3963510999456,619.4118917000014,619.4118917000014,619.4118917000014,620.8808514000848,right,0.0,16.030571200186387,,,,,,,,,,,,,,,,,,,,,,,,,,,,,,,,sub-193,1.0,random_dot,60.38800503992707,
right,right,speed,,,,,0.0,1.0,1.0,1.0,18.0,1.0,37.0,1.0,620.8952979000751,,,,,,,,,620.8823716000188,621.2455770999659,622.0457776999101,622.0302035000641,622.0302558999974,622.0457776999101,622.0457776999101,622.0457776999101,623.3143807998858,right,1.0,15.830600700108334,,,,,,,,,,,,,,,,,,,,,,,,,,,,,,,,sub-193,1.0,random_dot,60.38800503992707,
right,right,speed,,,,,0.0,1.0,1.0,1.0,19.0,0.0,38.0,1.0,623.3283901000395,,,,,,,,,623.3160240999423,624.1281034999993,624.9283306999132,624.9130005999468,624.9130291999318,624.9283306999132,624.9283306999132,624.9283306999132,626.4636659999378,right,1.0,16.104906799970195,,,,,,,,,,,,,,,,,,,,,,,,,,,,,,,,sub-193,1.0,random_dot,60.38800503992707,
left,left,speed,,,,,0.0,1.0,1.0,1.0,19.0,1.0,39.0,0.0,626.4783777999692,,,,,,,,,626.4652770999819,626.8286677000578,627.6283698999323,627.6127394000068,627.6127710000146,627.6283698999323,627.6283698999323,627.6283698999323,629.313333200058,right,0.0,16.24459020025097,,,,,,,,,,,,,,,,,,,,,,,,,,,,,,,,sub-193,1.0,random_dot,60.38800503992707,
left,left,speed,,,,,0.0,1.0,1.0,1.0,20.0,0.0,40.0,0.0,629.3284515000414,,,,,,,,,629.3148960999679,629.4281657999381,630.2284718998708,630.2130314998794,630.2130664999131,630.2284718998708,630.2284718998708,630.2284718998708,631.7130167998839,left,1.0,16.05028670001775,,,,,,,,,,,,,,,,,,,,,,,,,,,,,,,,sub-193,1.0,random_dot,60.38800503992707,
right,right,speed,,,,,0.0,1.0,1.0,1.0,20.0,1.0,41.0,1.0,631.7290250000078,,,,,,,,,631.7146085000131,632.5274372000713,633.3279983999673,633.3124211998656,633.312452299986,633.3279983999673,633.3279983999673,633.3279983999673,634.3802356000524,right,1.0,15.621423600008711,,,,,,,,,,,,,,,,,,,,,,,,,,,,,,,,sub-193,1.0,random_dot,60.38800503992707,
left,left,speed,,,,,0.0,1.0,1.0,1.0,21.0,0.0,42.0,0.0,634.3945373999886,,,,,,,,,634.3820312998723,634.4945257999934,635.2944662000518,635.2789072000887,635.2789393998682,635.2944662000518,635.2944662000518,635.2944662000518,636.1468036000151,left,1.0,15.42634250014089,,,,,,,,,,,,,,,,,,,,,,,,,,,,,,,,sub-193,1.0,random_dot,60.38800503992707,
right,right,speed,,,,,0.0,1.0,1.0,1.0,21.0,1.0,43.0,1.0,636.1613986999728,,,,,,,,,636.14833180001,636.9613192998804,637.7610237998888,637.745607299963,637.7456465000287,637.7610237998888,637.7610237998888,637.7610237998888,638.4473341000266,right,1.0,15.25712600001134,,,,,,,,,,,,,,,,,,,,,,,,,,,,,,,,sub-193,1.0,random_dot,60.38800503992707,
left,left,speed,,,,,0.0,1.0,1.0,1.0,22.0,0.0,44.0,0.0,638.4611275999341,,,,,,,,,638.4489088000264,638.8114235000685,639.6110250998754,639.5954225999303,639.5954608998727,639.6110250998754,639.6110250998754,639.6110250998754,640.5965547000524,left,1.0,15.552683599991724,,,,,,,,,,,,,,,,,,,,,,,,,,,,,,,,sub-193,1.0,random_dot,60.38800503992707,
right,right,speed,,,,,0.0,1.0,1.0,1.0,22.0,1.0,45.0,1.0,640.6115963000339,,,,,,,,,640.598132400075,641.8109649000689,642.6107620000839,642.5953686998691,642.5954088999424,642.6107620000839,642.6107620000839,642.6107620000839,643.5462448999751,right,1.0,15.496499799890444,,,,,,,,,,,,,,,,,,,,,,,,,,,,,,,,sub-193,1.0,random_dot,60.38800503992707,
right,right,speed,,,,,0.0,1.0,1.0,1.0,23.0,0.0,46.0,1.0,643.5608357999008,,,,,,,,,643.5475945998915,644.7611960999202,645.5610851999372,645.5456435999367,645.5456821999978,645.5610851999372,645.5610851999372,645.5610851999372,646.1473189999815,right,1.0,15.159170700004324,,,,,,,,,,,,,,,,,,,,,,,,,,,,,,,,sub-193,1.0,random_dot,60.38800503992707,
left,left,speed,,,,,0.0,1.0,1.0,1.0,23.0,1.0,47.0,0.0,646.1605563999619,,,,,,,,,646.1487489999272,646.5105560999364,647.3107042999472,647.295202099951,647.2952362000942,647.3107042999472,647.3107042999472,647.3107042999472,647.8126908999402,left,1.0,15.066494300030172,,,,,,,,,,,,,,,,,,,,,,,,,,,,,,,,sub-193,1.0,random_dot,60.38800503992707,
left,left,speed,,,,,0.0,1.0,1.0,1.0,24.0,0.0,48.0,0.0,647.8273088000715,,,,,,,,,647.8143436999526,648.1775926998816,648.9774553999305,648.9622367999982,648.9622748999391,648.9774553999305,648.9774553999305,648.9774553999305,649.9629774000496,right,0.0,15.556031600106508,,,,,,,,,,,,,,,,,,,,,,,,,,,,,,,,sub-193,1.0,random_dot,60.38800503992707,
right,right,speed,,,,,0.0,1.0,1.0,1.0,24.0,1.0,49.0,1.0,649.9771010000259,,,,,,,,,649.9645020999014,650.0771735999733,650.8771565000061,650.8617175999098,650.8617505999282,650.8771565000061,650.8771565000061,650.8771565000061,651.8626768998802,right,1.0,15.546304100193083,,,,,,,,,,,,,,,,,,,,,,,,,,,,,,,,sub-193,1.0,random_dot,60.38800503992707,
left,left,speed,,,,,0.0,1.0,1.0,1.0,25.0,0.0,50.0,0.0,651.8771446000319,,,,,,,,,651.8639918998815,653.0772062998731,653.8772156999912,653.8616879000328,653.8617215000559,653.8772156999912,653.8772156999912,653.8772156999912,655.129074000055,right,0.0,15.81942420010455,,,,,,,,,,,,,,,,,,,,,,,,,,,,,,,,sub-193,1.0,random_dot,60.38800503992707,
right,right,speed,,,,,0.0,1.0,1.0,1.0,25.0,1.0,51.0,1.0,655.143547100015,,,,,,,,,655.1306596999057,655.4939375999384,656.2938190000132,656.2785841999575,656.2786210998893,656.2938190000132,656.2938190000132,656.2938190000132,657.7459269999526,right,1.0,16.024549100082368,,,,,,,,,,,,,,,,,,,,,,,,,,,,,,,,sub-193,1.0,random_dot,60.38800503992707,
left,left,speed,,,,,0.0,1.0,1.0,1.0,26.0,0.0,52.0,0.0,657.7596726000775,,,,,,,,,657.7473365999758,658.5604175000917,659.3601446999237,659.3445750998799,659.3446132999379,659.3601446999237,659.3601446999237,659.3601446999237,661.6471084000077,right,0.0,16.858623400097713,,,,,,,,,,,,,,,,,,,,,,,,,,,,,,,,sub-193,1.0,random_dot,60.38800503992707,
right,right,speed,,,,,0.0,1.0,1.0,1.0,26.0,1.0,53.0,1.0,661.6599737000652,,,,,,,,,661.64854929992,661.7597733000293,662.5599420000799,662.5447684000246,662.5448014000431,662.5599420000799,662.5599420000799,662.5599420000799,664.1791157000698,left,0.0,16.190110200084746,,,,,,,,,,,,,,,,,,,,,,,,,,,,,,,,sub-193,1.0,random_dot,60.38800503992707,
right,right,speed,,,,,0.0,1.0,1.0,1.0,27.0,0.0,54.0,1.0,664.1930998000316,,,,,,,,,664.1808430000674,665.3941357999574,666.2098995000124,666.1940729999915,666.1941024998669,666.2098995000124,666.2098995000124,666.2098995000124,667.9281106998678,right,1.0,16.286682200152427,,,,,,,,,,,,,,,,,,,,,,,,,,,,,,,,sub-193,1.0,random_dot,60.38800503992707,
left,left,speed,,,,,0.0,1.0,1.0,1.0,27.0,1.0,55.0,0.0,667.9432284000795,,,,,,,,,667.929816500051,668.7432613999117,669.5430340999737,669.5279232000466,669.5279701999389,669.5430340999737,669.5430340999737,669.5430340999737,670.678260799963,left,1.0,15.705013900063932,,,,,,,,,,,,,,,,,,,,,,,,,,,,,,,,sub-193,1.0,random_dot,60.38800503992707,
left,left,speed,,,,,0.0,1.0,1.0,1.0,28.0,0.0,56.0,0.0,670.6928868000396,,,,,,,,,670.6810115000699,671.0433743998874,671.8427254999988,671.8274143000599,671.827451699879,671.8427254999988,671.8427254999988,671.8427254999988,673.2107476999518,left,1.0,15.93578110006638,,,,,,,,,,,,,,,,,,,,,,,,,,,,,,,,sub-193,1.0,random_dot,60.38800503992707,
right,right,speed,,,,,0.0,1.0,1.0,1.0,28.0,1.0,57.0,1.0,673.2263253000565,,,,,,,,,673.2124361998867,673.5762116999831,674.376441600034,674.3605776999611,674.3606135000009,674.376441600034,674.376441600034,674.376441600034,676.4129383000545,left,0.0,16.60805770009756,,,,,,,,,,,,,,,,,,,,,,,,,,,,,,,,sub-193,1.0,random_dot,60.38800503992707,
right,right,speed,,,,,0.0,1.0,1.0,1.0,29.0,0.0,58.0,1.0,676.4259824000765,,,,,,,,,676.4145350998733,677.2261880000588,678.026630599983,678.0104692000896,678.0105049000122,678.026630599983,678.026630599983,678.026630599983,680.4279348999262,left,0.0,16.968917900230736,,,,,,,,,,,,,,,,,,,,,,,,,,,,,,,,sub-193,1.0,random_dot,60.38800503992707,
left,left,speed,,,,,0.0,1.0,1.0,1.0,29.0,1.0,59.0,0.0,680.4439922999591,,,,,,,,,680.4295026999898,680.542220100062,681.3422771000769,681.3269464999903,681.3269805000164,681.3422771000769,681.3422771000769,681.3422771000769,683.1606977998745,left,1.0,16.382855100091547,,,,,,,,,,,,,,,,,,,,,,,,,,,,,,,,sub-193,1.0,random_dot,60.38800503992707,
,,speed,,,,,0.0,1.0,1.0,1.0,,,,,,,,,,,,,,,,,,,,,,,,,,,,,,,,,,,,,,,,,,,,,,,,,,,,,,,,,sub-193,1.0,random_dot,60.38800503992707,
,,,,,,,,,,,,,,,,,,,,,,,,,,,,,,,,,,,,,,,,,,,,,,,,,,,,,,,,,,,,,,,683.1619293999393,683.175770400092,688.1756309000775,688.1610379000194,sub-193,,,,
