direction,corrAns,thisN,thisTrialN,thisRepN,respDots.keys,respDots.corr,respDots.rt,respDots.duration,randomInstr,respRandomInstr.keys,respRandomInstr.rt,respRandomInstr.duration,practice_trials.thisRepN,practice_trials.thisTrialN,practice_trials.thisN,practice_trials.thisIndex,instr_trials.thisRepN,instr_trials.thisTrialN,instr_trials.thisN,instr_trials.thisIndex,test_trials.thisRepN,test_trials.thisTrialN,test_trials.thisN,test_trials.thisIndex,thisRow.t,notes,general_instruction.started,textGeneralInstr.started,respGeneralInstr.started,general_instruction.stopped,respGeneralInstr.keys,respGeneralInstr.rt,respGeneralInstr.duration,ITI.started,fixcross.started,fixcross.stopped,ITI.stopped,dots.started,backgroundDots.started,stimulusDots.started,respDots.started,stimulusDots.stopped,dots.stopped,practice_trials.respDots.keys,practice_trials.respDots.corr,practice_trials.respDots.rt,practice_trials.respDots.duration,feedback.started,textFeedback.started,feedback.stopped,textFeedback.stopped,info.started,textInfo.started,keyRespInfo.started,info.stopped,keyRespInfo.keys,keyRespInfo.rt,keyRespInfo.duration,test_instruction.started,textTestInstr.started,respTestInstr.started,test_instruction.stopped,respTestInstr.keys,respTestInstr.rt,respTestInstr.duration,random_instruction.started,textRandomInstr.started,respRandomInstr.started,random_instruction.stopped,instr_trials.respRandomInstr.keys,instr_trials.respRandomInstr.rt,instr_trials.respRandomInstr.duration,test_trials.respDots.keys,test_trials.respDots.corr,test_trials.respDots.rt,test_trials.respDots.duration,goodbye.started,textGoodbye.started,goodbye.stopped,participant,session,expName,frameRate,Unnamed: 87
,,,,,,,,,,,,,,,,,,,,,,,,,,,0.0133223269995141,0.0352055139992444,0.0352055139992444,27.55841143699945,space,27.3578415789998,,,,,,,,,,,,,,,,,,,,,,,,,,,,,,,,,,,,,,,,,,,,,,,,sub-075,1,random_dot,59.344875892188085,
left,left,0.0,0.0,0.0,left,1.0,20.853820126000755,,,,,,0.0,0.0,0.0,0.0,,,,,,,,,27.58854305899968,,,,,,,,,27.57519300999957,28.758866357999977,29.56975837199934,29.54264201099977,29.543127567999363,29.56975837199934,29.56975837199934,29.56975837199934,34.54124318199956,50.42617241799962,left,1.0,20.853820126000755,,50.43177997699968,50.458876756999416,50.94194558899926,,,,,,,,,,,,,,,,,,,,,,,,,,,,,,sub-075,1,random_dot,59.344875892188085,
right,right,1.0,1.0,0.0,left,0.0,1.7825478960003238,,,,,,0.0,1.0,1.0,1.0,,,,,,,,,50.95836031199997,,,,,,,,,50.94238322599995,51.02471532099935,51.82507768399955,51.80916227599937,51.809444093999446,51.82507768399955,51.82507768399955,51.82507768399955,,53.609535175999554,left,0.0,1.7825478960003238,,53.6150279249996,53.62799282399919,54.125246094999966,,,,,,,,,,,,,,,,,,,,,,,,,,,,,,sub-075,1,random_dot,59.344875892188085,
right,right,2.0,0.0,1.0,right,1.0,1.680452100000366,,,,,,1.0,0.0,2.0,1.0,,,,,,,,,54.14203219199953,,,,,,,,,54.12568148099945,54.92530327499935,55.72508547999951,55.70871937499942,55.7091830699992,55.72508547999951,55.72508547999951,55.72508547999951,,57.40962115399998,right,1.0,1.680452100000366,,57.412236571,57.426144140999895,57.92528581799979,,,,,,,,,,,,,,,,,,,,,,,,,,,,,,sub-075,1,random_dot,59.344875892188085,
left,left,3.0,1.0,1.0,left,1.0,3.131182749999425,,,,,,1.0,1.0,3.0,0.0,,,,,,,,,57.941507535999335,,,,,,,,,57.925713491999886,58.02523024499988,58.82518686200001,58.80884238499948,58.80939781899997,58.82518686200001,58.82518686200001,58.82518686200001,,61.95943629099929,left,1.0,3.131182749999425,,61.95953199699943,61.97483544099941,62.4586362809996,62.47501106999971,,,,,,,,,,,,,,,,,,,,,,,,,,,,,sub-075,1,random_dot,59.344875892188085,
right,right,4.0,0.0,2.0,right,1.0,1.340566654000213,,,,,,2.0,0.0,4.0,1.0,,,,,,,,,62.47501106999971,,,,,,,,,62.4590354059992,62.82495086099971,63.62508597599936,63.60815408899998,63.60861708399989,63.62508597599936,63.62508597599936,63.62508597599936,,64.97563966999951,right,1.0,1.340566654000213,,64.97574013399935,64.99106760399991,65.47537551799996,65.49167085099998,,,,,,,,,,,,,,,,,,,,,,,,,,,,,sub-075,1,random_dot,59.344875892188085,
left,left,5.0,1.0,2.0,right,0.0,2.531527031000224,,,,,,2.0,1.0,5.0,0.0,,,,,,,,,65.49167085099998,,,,,,,,,65.47578127699944,66.67480049099959,67.47495533899928,67.45814789299948,67.4584794679995,67.47495533899928,67.47495533899928,67.47495533899928,,70.00887117799994,right,0.0,2.531527031000224,,70.01196200999948,70.02529763899929,70.50809591099915,70.52431660000002,,,,,,,,,,,,,,,,,,,,,,,,,,,,,sub-075,1,random_dot,59.344875892188085,
left,left,6.0,0.0,3.0,left,1.0,2.8274399120000453,,,,,,3.0,0.0,6.0,0.0,,,,,,,,,70.52431660000002,,,,,,,,,70.50834198899975,71.70936302799964,72.50978131899956,72.49280136099969,72.49327104499935,72.50978131899956,72.50978131899956,72.50978131899956,,75.34294870199938,left,1.0,2.8274399120000453,,75.34561522599961,75.35889219099954,75.84190502199999,75.85849931399935,,,,,,,,,,,,,,,,,,,,,,,,,,,,,sub-075,1,random_dot,59.344875892188085,
right,right,7.0,1.0,3.0,right,1.0,2.1453495329997168,,,,,,3.0,1.0,7.0,1.0,,,,,,,,,75.85849931399935,,,,,,,,,75.84231088099932,77.05839479299993,77.8582881809998,77.84211283999957,77.8425761619992,77.8582881809998,77.8582881809998,77.8582881809998,,80.00944094899933,right,1.0,2.1453495329997168,,80.00954890699995,80.024812441,80.50865759499993,80.52495884099972,,,,,,,,,,,,,,,,,,,,,,,,,,,,,sub-075,1,random_dot,59.344875892188085,
right,right,8.0,0.0,4.0,right,1.0,0.851453938999839,,,,,,4.0,0.0,8.0,1.0,,,,,,,,,80.52495884099972,,,,,,,,,80.50907835599992,81.72501260299941,82.52514101299948,82.50854012299988,82.50899137399938,82.52514101299948,82.52514101299948,82.52514101299948,,83.3921561419993,right,1.0,0.851453938999839,,83.39224961399941,83.40808881999965,83.89186579499983,83.90823086099954,,,,,,,,,,,,,,,,,,,,,,,,,,,,,sub-075,1,random_dot,59.344875892188085,
left,left,9.0,1.0,4.0,left,1.0,1.0488722000000053,,,,,,4.0,1.0,9.0,0.0,,,,,,,,,83.90823086099954,,,,,,,,,83.89228514999922,84.24177780699938,85.04164480599957,85.02529768499971,85.02575421999973,85.04164480599957,85.04164480599957,85.04164480599957,,86.09243019899986,left,1.0,1.0488722000000053,,86.0925222349997,86.10806144099934,86.59197964599934,86.6081145499993,,,,,,,,,,,,,,,,,,,,,,,,,,,,,sub-075,1,random_dot,59.344875892188085,
left,left,10.0,0.0,5.0,left,1.0,0.9077844989997176,,,,,,5.0,0.0,10.0,0.0,,,,,,,,,86.6081145499993,,,,,,,,,86.5924186509992,86.94162735699956,87.74109001599936,87.7248041569992,87.72509048199936,87.74109001599936,87.74109001599936,87.74109001599936,,88.65880350099997,left,1.0,0.9077844989997176,,88.65888948699921,88.67474172199945,89.15866207999989,89.17474767099975,,,,,,,,,,,,,,,,,,,,,,,,,,,,,sub-075,1,random_dot,59.344875892188085,
right,right,11.0,1.0,5.0,right,1.0,0.6761484770004245,,,,,,5.0,1.0,11.0,1.0,,,,,,,,,89.17474767099975,,,,,,,,,89.15906127699964,89.95772237799974,90.75830314299948,90.74158100599924,90.74203450699952,90.75830314299948,90.75830314299948,90.75830314299948,,91.44233541199992,right,1.0,0.6761484770004245,,91.4424910079997,91.45806515999992,91.94202517199938,91.95784840999931,,,,,,,,,,,,,,,,,,,,,,,,,,,,,sub-075,1,random_dot,59.344875892188085,
right,right,12.0,0.0,6.0,right,1.0,0.7690275180002573,,,,,,6.0,0.0,12.0,1.0,,,,,,,,,91.95784840999931,,,,,,,,,91.94242423299966,93.1416711969996,93.94140133199926,93.9251982199994,93.92564932299956,93.94140133199926,93.94140133199926,93.94140133199926,,94.7252523929992,right,1.0,0.7690275180002573,,94.72534445699966,94.74116713399962,95.2251342719992,95.24136143299984,,,,,,,,,,,,,,,,,,,,,,,,,,,,,sub-075,1,random_dot,59.344875892188085,
left,left,13.0,1.0,6.0,left,1.0,0.7366086539996104,,,,,,6.0,1.0,13.0,0.0,,,,,,,,,95.24136143299984,,,,,,,,,95.22542311300003,96.42483124699991,97.22472835199916,97.20835414399971,97.208815899,97.22472835199916,97.22472835199916,97.22472835199916,,97.97478133799996,left,1.0,0.7366086539996104,,97.97486977399969,97.9918598939994,98.47493502199995,,,,,,,,,,,,,,,,,,,,,,,,,,,,,,sub-075,1,random_dot,59.344875892188085,
left,left,14.0,0.0,7.0,left,1.0,2.296800119000181,,,,,,7.0,0.0,14.0,0.0,,,,,,,,,98.49144746399998,,,,,,,,,98.47536833899994,98.5747445319994,99.37469736499952,99.35810483499972,99.3585443489992,99.37469736499952,99.37469736499952,99.37469736499952,,101.67586249099986,left,1.0,2.296800119000181,,101.67599331999918,101.69083328899978,102.17431084999951,102.1910339799997,,,,,,,,,,,,,,,,,,,,,,,,,,,,,sub-075,1,random_dot,59.344875892188085,
right,right,15.0,1.0,7.0,right,1.0,0.8391669129996444,,,,,,7.0,1.0,15.0,1.0,,,,,,,,,102.1910339799997,,,,,,,,,102.17455050699937,102.54141163199984,103.34133428899986,103.32463031899988,103.32508434699956,103.34133428899986,103.34133428899986,103.34133428899986,,104.19243097699928,right,1.0,0.8391669129996444,,104.19254435099992,104.2078338909996,104.69159412599949,104.7081067119998,,,,,,,,,,,,,,,,,,,,,,,,,,,,,sub-075,1,random_dot,59.344875892188085,
right,right,16.0,0.0,8.0,right,1.0,0.5637289659998714,,,,,,8.0,0.0,16.0,1.0,,,,,,,,,104.7081067119998,,,,,,,,,104.6921309139998,105.9080309229994,106.70769790199938,106.69155993699952,106.69189912000002,106.70769790199938,106.70769790199938,106.70769790199938,,107.27582672599964,right,1.0,0.5637289659998714,,107.27595576699969,107.29101009199984,107.77489748399968,107.7913917299993,,,,,,,,,,,,,,,,,,,,,,,,,,,,,sub-075,1,random_dot,59.344875892188085,
left,left,17.0,1.0,8.0,left,1.0,0.7626843079997343,,,,,,8.0,1.0,17.0,0.0,,,,,,,,,107.7913917299993,,,,,,,,,107.77532789899942,108.14130952300002,108.94150706499931,108.92487690799952,108.92532571899936,108.94150706499931,108.94150706499931,108.94150706499931,,109.71058057199934,left,1.0,0.7626843079997343,,109.71074130599936,109.72615545699956,110.22468051099986,,,,,,,,,,,,,,,,,,,,,,,,,,,,,,sub-075,1,random_dot,59.344875892188085,
left,left,18.0,0.0,9.0,right,0.0,0.951301405999402,,,,,,9.0,0.0,18.0,0.0,,,,,,,,,110.24141757399956,,,,,,,,,110.22509923500002,110.32464489299946,111.12450497399914,111.10852000399971,111.108973548,111.12450497399914,111.12450497399914,111.12450497399914,,112.09179991599922,right,0.0,0.951301405999402,,112.0946671769998,112.1087286539996,112.59187787799964,112.60847193399968,,,,,,,,,,,,,,,,,,,,,,,,,,,,,sub-075,1,random_dot,59.344875892188085,
right,right,19.0,1.0,9.0,right,1.0,1.7542985639993276,,,,,,9.0,1.0,19.0,1.0,,,,,,,,,112.60847193399968,,,,,,,,,112.59240573199986,112.9416117259998,113.74160894399938,113.725141291,113.7255980989994,113.74160894399938,113.74160894399938,113.74160894399938,,115.50948842599972,right,1.0,1.7542985639993276,,115.51172121999934,115.52560179899956,116.0086015679999,116.0249626119994,,,,,,,,,,,,,,,,,,,,,,,,,,,,,sub-075,1,random_dot,59.344875892188085,
,,,,,,,,,,,,,,,,,,,,,,,,,,,,,,,,,,,,,,,,,,,,,,,,,,,,116.00876859099937,116.0249626119994,116.0249626119994,120.15941027899952,space,4.121155529000134,,,,,,,,,,,,,,,,,,,,,,,sub-075,1,random_dot,59.344875892188085,
,,,,,,,,,,,,,,,,,,,,,,,,,,,,,,,,,,,,,,,,,,,,,,,,,,,,,,,,,,,120.15949081999952,120.17588003499986,120.17588003499986,123.29244692799966,space,3.109736925999641,,,,,,,,,,,,,,,,sub-075,1,random_dot,59.344875892188085,
left,left,0.0,0.0,0.0,left,1.0,1.916648141999758,,speed,space,2.642068269000447,,,,,,0.0,0.0,0.0,1.0,0.0,0.0,0.0,0.0,125.9948938589996,,,,,,,,,125.98212979999973,127.19124194799952,127.991598865,127.97506338499988,127.97553038399928,127.991598865,127.991598865,127.991598865,,129.92511370800003,,,,,,,,,,,,,,,,,,,,,,,123.31216096599928,123.32665833699956,123.32665833699956,125.97549950099985,space,2.642068269000447,,left,1.0,1.916648141999758,,,,,sub-075,1,random_dot,59.344875892188085,
right,right,1.0,1.0,0.0,right,1.0,0.899633908999931,,speed,space,2.642068269000447,,,,,,0.0,0.0,0.0,1.0,0.0,1.0,1.0,1.0,129.940844793,,,,,,,,,129.92554076799934,130.7244038639992,131.52404160899914,131.5070215399992,131.50733687199954,131.52404160899914,131.52404160899914,131.52404160899914,,132.42544743299914,,,,,,,,,,,,,,,,,,,,,,,,,,,,,,right,1.0,0.899633908999931,,,,,sub-075,1,random_dot,59.344875892188085,
left,left,2.0,0.0,1.0,left,1.0,0.8176980629996251,,speed,space,2.642068269000447,,,,,,0.0,0.0,0.0,1.0,1.0,0.0,2.0,0.0,132.44100180499936,,,,,,,,,132.42578850599966,133.6242794309992,134.42434209699968,134.40799224700004,134.40844799999925,134.42434209699968,134.42434209699968,134.42434209699968,,135.25889143299992,,,,,,,,,,,,,,,,,,,,,,,,,,,,,,left,1.0,0.8176980629996251,,,,,sub-075,1,random_dot,59.344875892188085,
right,right,3.0,1.0,1.0,right,1.0,0.7160646539996378,,speed,space,2.642068269000447,,,,,,0.0,0.0,0.0,1.0,1.0,1.0,3.0,1.0,135.2745229989996,,,,,,,,,135.25928549999935,136.0741757099995,136.8749332969992,136.8580919599999,136.85859259299923,136.8749332969992,136.8749332969992,136.8749332969992,,137.59220735999952,,,,,,,,,,,,,,,,,,,,,,,,,,,,,,right,1.0,0.7160646539996378,,,,,sub-075,1,random_dot,59.344875892188085,
right,right,4.0,0.0,2.0,right,1.0,0.9839100589997544,,speed,space,2.642068269000447,,,,,,0.0,0.0,0.0,1.0,2.0,0.0,4.0,1.0,137.606787574,,,,,,,,,137.59265031999985,137.707452828,138.50710929899924,138.49073642599978,138.49107347799963,138.50710929899924,138.50710929899924,138.50710929899924,,139.49238873299964,,,,,,,,,,,,,,,,,,,,,,,,,,,,,,right,1.0,0.9839100589997544,,,,,sub-075,1,random_dot,59.344875892188085,
left,left,5.0,1.0,2.0,left,1.0,0.6850224150002759,,speed,space,2.642068269000447,,,,,,0.0,0.0,0.0,1.0,2.0,1.0,5.0,0.0,139.50749963399994,,,,,,,,,139.49278210599914,140.3078387129999,141.10786892399938,141.09147179999945,141.0919286569997,141.10786892399938,141.10786892399938,141.10786892399938,,141.8083793679998,,,,,,,,,,,,,,,,,,,,,,,,,,,,,,left,1.0,0.6850224150002759,,,,,sub-075,1,random_dot,59.344875892188085,
left,left,6.0,0.0,3.0,left,1.0,0.7058809279997149,,speed,space,2.642068269000447,,,,,,0.0,0.0,0.0,1.0,3.0,0.0,6.0,0.0,141.824119979,,,,,,,,,141.80872421099957,142.15739627199946,142.957324469,142.94030117499915,142.94057426899963,142.957324469,142.957324469,142.957324469,,143.6757818369997,,,,,,,,,,,,,,,,,,,,,,,,,,,,,,left,1.0,0.7058809279997149,,,,,sub-075,1,random_dot,59.344875892188085,
right,right,7.0,1.0,3.0,left,0.0,0.7358807850005178,,speed,space,2.642068269000447,,,,,,0.0,0.0,0.0,1.0,3.0,1.0,7.0,1.0,143.69105032199968,,,,,,,,,143.67630689399994,143.79087480399994,144.59090528999968,144.57453306599928,144.5751217449997,144.59090528999968,144.59090528999968,144.59090528999968,,145.34217782199994,,,,,,,,,,,,,,,,,,,,,,,,,,,,,,left,0.0,0.7358807850005178,,,,,sub-075,1,random_dot,59.344875892188085,
left,left,8.0,0.0,4.0,left,1.0,2.9365624880001637,,speed,space,2.642068269000447,,,,,,0.0,0.0,0.0,1.0,4.0,0.0,8.0,0.0,145.35719784699995,,,,,,,,,145.34255280599973,145.7075123279992,146.50760730899947,146.49110472099983,146.49155814299957,146.50760730899947,146.50760730899947,146.50760730899947,,149.45808704899991,,,,,,,,,,,,,,,,,,,,,,,,,,,,,,left,1.0,2.9365624880001637,,,,,sub-075,1,random_dot,59.344875892188085,
right,right,9.0,1.0,4.0,right,1.0,0.9506907710001542,,speed,space,2.642068269000447,,,,,,0.0,0.0,0.0,1.0,4.0,1.0,9.0,1.0,149.47404295199976,,,,,,,,,149.4584498919994,149.80704988399975,150.60691222999958,150.59101989099963,150.5914916949996,150.60691222999958,150.60691222999958,150.60691222999958,,151.5744066949992,,,,,,,,,,,,,,,,,,,,,,,,,,,,,,right,1.0,0.9506907710001542,,,,,sub-075,1,random_dot,59.344875892188085,
right,right,10.0,0.0,5.0,right,1.0,0.7859754259998226,,speed,space,2.642068269000447,,,,,,0.0,0.0,0.0,1.0,5.0,0.0,10.0,1.0,151.58968905099937,,,,,,,,,151.57474709500002,151.94003570599943,152.7406429269995,152.7236137689997,152.7239454419996,152.7406429269995,152.7406429269995,152.7406429269995,,153.54129074499997,,,,,,,,,,,,,,,,,,,,,,,,,,,,,,right,1.0,0.7859754259998226,,,,,sub-075,1,random_dot,59.344875892188085,
left,left,11.0,1.0,5.0,left,1.0,1.4565076519993454,,speed,space,2.642068269000447,,,,,,0.0,0.0,0.0,1.0,5.0,1.0,11.0,0.0,153.5568494199997,,,,,,,,,153.5415817439998,153.9065458519999,154.70721732699985,154.6912074899992,154.6916940129995,154.70721732699985,154.70721732699985,154.70721732699985,,156.17440834799982,,,,,,,,,,,,,,,,,,,,,,,,,,,,,,left,1.0,1.4565076519993454,,,,,sub-075,1,random_dot,59.344875892188085,
left,left,12.0,0.0,6.0,right,0.0,2.9837951029994656,,speed,space,2.642068269000447,,,,,,0.0,0.0,0.0,1.0,6.0,0.0,12.0,0.0,156.18981208699915,,,,,,,,,156.17471940399992,156.52422282599946,157.32400904799945,157.30764832599925,157.30810307899992,157.32400904799945,157.32400904799945,157.32400904799945,,160.3254151609999,,,,,,,,,,,,,,,,,,,,,,,,,,,,,,right,0.0,2.9837951029994656,,,,,sub-075,1,random_dot,59.344875892188085,
right,right,13.0,1.0,6.0,right,1.0,0.7642918569999892,,speed,space,2.642068269000447,,,,,,0.0,0.0,0.0,1.0,6.0,1.0,13.0,1.0,160.34090764199937,,,,,,,,,160.32593246499982,160.6901121009996,161.4905005519995,161.474331722,161.47478974099977,161.4905005519995,161.4905005519995,161.4905005519995,,162.25861542999974,,,,,,,,,,,,,,,,,,,,,,,,,,,,,,right,1.0,0.7642918569999892,,,,,sub-075,1,random_dot,59.344875892188085,
right,right,14.0,0.0,7.0,left,0.0,1.723581846000343,,speed,space,2.642068269000447,,,,,,0.0,0.0,0.0,1.0,7.0,0.0,14.0,1.0,162.2738425769994,,,,,,,,,162.25892950599973,162.3737526089999,163.17423373699967,163.1575994779996,163.1580522209997,163.17423373699967,163.17423373699967,163.17423373699967,,164.90817186200002,,,,,,,,,,,,,,,,,,,,,,,,,,,,,,left,0.0,1.723581846000343,,,,,sub-075,1,random_dot,59.344875892188085,
left,left,15.0,1.0,7.0,left,1.0,1.0904209009995611,,speed,space,2.642068269000447,,,,,,0.0,0.0,0.0,1.0,7.0,1.0,15.0,0.0,164.92375990599976,,,,,,,,,164.9084956679999,166.10707182999977,166.9072068509995,166.89057087199944,166.8910786869992,166.9072068509995,166.9072068509995,166.9072068509995,,168.0077765619999,,,,,,,,,,,,,,,,,,,,,,,,,,,,,,left,1.0,1.0904209009995611,,,,,sub-075,1,random_dot,59.344875892188085,
right,right,16.0,0.0,8.0,left,0.0,1.2773589369999172,,speed,space,2.642068269000447,,,,,,0.0,0.0,0.0,1.0,8.0,0.0,16.0,1.0,168.0230842989995,,,,,,,,,168.00807896699916,168.10691478399983,168.90713441599928,168.890845549,168.89131243599968,168.90713441599928,168.90713441599928,168.90713441599928,,170.1915166409999,,,,,,,,,,,,,,,,,,,,,,,,,,,,,,left,0.0,1.2773589369999172,,,,,sub-075,1,random_dot,59.344875892188085,
left,left,17.0,1.0,8.0,right,0.0,1.4743375200005175,,speed,space,2.642068269000447,,,,,,0.0,0.0,0.0,1.0,8.0,1.0,17.0,0.0,170.20692698099992,,,,,,,,,170.1918268169993,170.3070089039993,171.10716925199995,171.0908979779997,171.09136169799967,171.10716925199995,171.10716925199995,171.10716925199995,,172.59140819200002,,,,,,,,,,,,,,,,,,,,,,,,,,,,,,right,0.0,1.4743375200005175,,,,,sub-075,1,random_dot,59.344875892188085,
left,left,18.0,0.0,9.0,right,0.0,2.330337432000306,,speed,space,2.642068269000447,,,,,,0.0,0.0,0.0,1.0,9.0,0.0,18.0,0.0,172.60694342599982,,,,,,,,,172.59171333199993,173.80640836299972,174.60706603499966,174.5907894309994,174.59124820299985,174.60706603499966,174.60706603499966,174.60706603499966,,176.94159696099996,,,,,,,,,,,,,,,,,,,,,,,,,,,,,,right,0.0,2.330337432000306,,,,,sub-075,1,random_dot,59.344875892188085,
right,right,19.0,1.0,9.0,left,0.0,0.8975329000004422,,speed,space,2.642068269000447,,,,,,0.0,0.0,0.0,1.0,9.0,1.0,19.0,1.0,176.95687667099992,,,,,,,,,176.9418981939998,178.15722799499963,178.9570893809996,178.9405951789995,178.9410644349991,178.9570893809996,178.9570893809996,178.9570893809996,,179.85833849199935,,,,,,,,,,,,,,,,,,,,,,,,,,,,,,left,0.0,0.8975329000004422,,,,,sub-075,1,random_dot,59.344875892188085,
right,right,20.0,0.0,10.0,right,1.0,1.1020826250005484,,speed,space,2.642068269000447,,,,,,0.0,0.0,0.0,1.0,10.0,0.0,20.0,1.0,179.87346848299967,,,,,,,,,179.858842052,180.22373347599927,181.0235581929992,181.00745482299956,181.0078026989995,181.0235581929992,181.0235581929992,181.0235581929992,,182.1415072159998,,,,,,,,,,,,,,,,,,,,,,,,,,,,,,right,1.0,1.1020826250005484,,,,,sub-075,1,random_dot,59.344875892188085,
left,left,21.0,1.0,10.0,left,1.0,1.054472624000482,,speed,space,2.642068269000447,,,,,,0.0,0.0,0.0,1.0,10.0,1.0,21.0,0.0,182.15692699600004,,,,,,,,,182.14202329,183.35704816499947,184.1570643819996,184.14074387599976,184.1412376799999,184.1570643819996,184.1570643819996,184.1570643819996,,185.2252504909993,,,,,,,,,,,,,,,,,,,,,,,,,,,,,,left,1.0,1.054472624000482,,,,,sub-075,1,random_dot,59.344875892188085,
left,left,22.0,0.0,11.0,left,1.0,0.9234714639997036,,speed,space,2.642068269000447,,,,,,0.0,0.0,0.0,1.0,11.0,0.0,22.0,0.0,185.24046108999937,,,,,,,,,185.22576527699948,186.04016814699932,186.84021859599943,186.8239437529992,186.82439950599928,186.84021859599943,186.84021859599943,186.84021859599943,,187.773945424,,,,,,,,,,,,,,,,,,,,,,,,,,,,,,left,1.0,0.9234714639997036,,,,,sub-075,1,random_dot,59.344875892188085,
right,right,23.0,1.0,11.0,right,1.0,0.8459191339998142,,speed,space,2.642068269000447,,,,,,0.0,0.0,0.0,1.0,11.0,1.0,23.0,1.0,187.7902506269993,,,,,,,,,187.77423653699952,187.8726528549996,188.6735056609996,188.6571121499992,188.65756573599992,188.6735056609996,188.6735056609996,188.6735056609996,,189.5244661929992,,,,,,,,,,,,,,,,,,,,,,,,,,,,,,right,1.0,0.8459191339998142,,,,,sub-075,1,random_dot,59.344875892188085,
right,right,24.0,0.0,12.0,right,1.0,1.081478719999723,,speed,space,2.642068269000447,,,,,,0.0,0.0,0.0,1.0,12.0,0.0,24.0,1.0,189.54012553999928,,,,,,,,,189.5247608339996,189.6235064459997,190.42369926399988,190.40724594399944,190.407701825,190.42369926399988,190.42369926399988,190.42369926399988,,191.5073040549996,,,,,,,,,,,,,,,,,,,,,,,,,,,,,,right,1.0,1.081478719999723,,,,,sub-075,1,random_dot,59.344875892188085,
left,left,25.0,1.0,12.0,left,1.0,1.8533566489995792,,speed,space,2.642068269000447,,,,,,0.0,0.0,0.0,1.0,12.0,1.0,25.0,0.0,191.52287440299915,,,,,,,,,191.5077974199994,192.30697434299964,193.10681451899927,193.09028568299985,193.09076172999997,193.10681451899927,193.10681451899927,193.10681451899927,,194.9737629409992,,,,,,,,,,,,,,,,,,,,,,,,,,,,,,left,1.0,1.8533566489995792,,,,,sub-075,1,random_dot,59.344875892188085,
right,right,26.0,0.0,13.0,right,1.0,2.042272921000404,,speed,space,2.642068269000447,,,,,,0.0,0.0,0.0,1.0,13.0,0.0,26.0,1.0,194.9897825119997,,,,,,,,,194.9740740899997,195.0735196839996,195.8742011509994,195.8572456559996,195.85782562399984,195.8742011509994,195.8742011509994,195.8742011509994,,197.92446392199963,,,,,,,,,,,,,,,,,,,,,,,,,,,,,,right,1.0,2.042272921000404,,,,,sub-075,1,random_dot,59.344875892188085,
left,left,27.0,1.0,13.0,left,1.0,0.9201094999998533,,speed,space,2.642068269000447,,,,,,0.0,0.0,0.0,1.0,13.0,1.0,27.0,0.0,197.93978802199945,,,,,,,,,197.92475876999924,198.2898730479992,199.08993775999988,199.0736571289999,199.07410793999952,199.08993775999988,199.08993775999988,199.08993775999988,,200.02481914299915,,,,,,,,,,,,,,,,,,,,,,,,,,,,,,left,1.0,0.9201094999998533,,,,,sub-075,1,random_dot,59.344875892188085,
left,left,28.0,0.0,14.0,left,1.0,0.778963056000066,,speed,space,2.642068269000447,,,,,,0.0,0.0,0.0,1.0,14.0,0.0,28.0,0.0,200.03987952399984,,,,,,,,,200.0251597819997,201.2399140949992,202.0401547429992,202.0230306199992,202.02331156499983,202.0401547429992,202.0401547429992,202.0401547429992,,202.8244080079994,,,,,,,,,,,,,,,,,,,,,,,,,,,,,,left,1.0,0.778963056000066,,,,,sub-075,1,random_dot,59.344875892188085,
right,right,29.0,1.0,14.0,left,0.0,1.6407692000002498,,speed,space,2.642068269000447,,,,,,0.0,0.0,0.0,1.0,14.0,1.0,29.0,1.0,202.83969131999947,,,,,,,,,202.82471757299936,203.17366990899973,203.9743633459993,203.9574143889995,203.95789226899976,203.9743633459993,203.9743633459993,203.9743633459993,,205.6241870309996,,,,,,,,,,,,,,,,,,,,,,,,,,,,,,left,0.0,1.6407692000002498,,,,,sub-075,1,random_dot,59.344875892188085,
right,right,30.0,0.0,15.0,right,1.0,1.320004670000344,,speed,space,2.642068269000447,,,,,,0.0,0.0,0.0,1.0,15.0,0.0,30.0,1.0,205.64016849199925,,,,,,,,,205.62449012599973,205.72384657199927,206.5238016379999,206.50713809599984,206.5075857439997,206.5238016379999,206.5238016379999,206.5238016379999,,207.85788388899985,,,,,,,,,,,,,,,,,,,,,,,,,,,,,,right,1.0,1.320004670000344,,,,,sub-075,1,random_dot,59.344875892188085,
left,left,31.0,1.0,15.0,left,1.0,0.9640047700004288,,speed,space,2.642068269000447,,,,,,0.0,0.0,0.0,1.0,15.0,1.0,31.0,0.0,207.8732581679997,,,,,,,,,207.85820533199967,208.2069276979992,209.00680412399925,208.9905026059996,208.990957428,209.00680412399925,209.00680412399925,209.00680412399925,,209.97485554299965,,,,,,,,,,,,,,,,,,,,,,,,,,,,,,left,1.0,0.9640047700004288,,,,,sub-075,1,random_dot,59.344875892188085,
right,right,32.0,0.0,16.0,right,1.0,1.273428829000295,,speed,space,2.642068269000447,,,,,,0.0,0.0,0.0,1.0,16.0,0.0,32.0,1.0,209.99017415199975,,,,,,,,,209.97518492699965,210.0902885939995,210.8904606449996,210.8741849629996,210.8746381869996,210.8904606449996,210.8904606449996,210.8904606449996,,212.1746311099996,,,,,,,,,,,,,,,,,,,,,,,,,,,,,,right,1.0,1.273428829000295,,,,,sub-075,1,random_dot,59.344875892188085,
left,left,33.0,1.0,16.0,left,1.0,1.4448866130005626,,speed,space,2.642068269000447,,,,,,0.0,0.0,0.0,1.0,16.0,1.0,33.0,0.0,212.18994950699928,,,,,,,,,212.1749775799999,213.39005049099976,214.1899482139997,214.1739263579993,214.17425780599933,214.1899482139997,214.1899482139997,214.1899482139997,,215.64113696000004,,,,,,,,,,,,,,,,,,,,,,,,,,,,,,left,1.0,1.4448866130005626,,,,,sub-075,1,random_dot,59.344875892188085,
left,left,34.0,0.0,17.0,right,0.0,1.844864284000323,,speed,space,2.642068269000447,,,,,,0.0,0.0,0.0,1.0,17.0,0.0,34.0,0.0,215.65696033199947,,,,,,,,,215.6414352339998,216.4573610309999,217.2569096239995,217.24045773699984,217.2409177419995,217.2569096239995,217.2569096239995,217.2569096239995,,219.10739949599972,,,,,,,,,,,,,,,,,,,,,,,,,,,,,,right,0.0,1.844864284000323,,,,,sub-075,1,random_dot,59.344875892188085,
right,right,35.0,1.0,17.0,right,1.0,1.1093069219996323,,speed,space,2.642068269000447,,,,,,0.0,0.0,0.0,1.0,17.0,1.0,35.0,1.0,219.12273617699972,,,,,,,,,219.10785379799927,219.4567577059997,220.2562582439996,220.23964707599956,220.24002589299928,220.2562582439996,220.2562582439996,220.2562582439996,,221.3745003609993,,,,,,,,,,,,,,,,,,,,,,,,,,,,,,right,1.0,1.1093069219996323,,,,,sub-075,1,random_dot,59.344875892188085,
left,left,36.0,0.0,18.0,left,1.0,0.730366365000009,,speed,space,2.642068269000447,,,,,,0.0,0.0,0.0,1.0,18.0,0.0,36.0,0.0,221.389953551,,,,,,,,,221.37494077499923,222.1901125209997,222.99011869199967,222.9736731619996,222.97412442699988,222.99011869199967,222.99011869199967,222.99011869199967,,223.7242090359996,,,,,,,,,,,,,,,,,,,,,,,,,,,,,,left,1.0,0.730366365000009,,,,,sub-075,1,random_dot,59.344875892188085,
right,right,37.0,1.0,18.0,left,0.0,2.1127501299997675,,speed,space,2.642068269000447,,,,,,0.0,0.0,0.0,1.0,18.0,1.0,37.0,1.0,223.73989639999945,,,,,,,,,223.724555195,224.93967089999933,225.73967248199915,225.7230338289992,225.72336129699943,225.73967248199915,225.73967248199915,225.73967248199915,,227.857366362,,,,,,,,,,,,,,,,,,,,,,,,,,,,,,left,0.0,2.1127501299997675,,,,,sub-075,1,random_dot,59.344875892188085,
left,left,38.0,0.0,19.0,left,1.0,1.515828395000426,,speed,space,2.642068269000447,,,,,,0.0,0.0,0.0,1.0,19.0,0.0,38.0,0.0,227.8722061559993,,,,,,,,,227.8577632449997,228.6730952729995,229.47303949399972,229.4566717259995,229.45712371399983,229.47303949399972,229.47303949399972,229.47303949399972,,230.9908461679997,,,,,,,,,,,,,,,,,,,,,,,,,,,,,,left,1.0,1.515828395000426,,,,,sub-075,1,random_dot,59.344875892188085,
right,right,39.0,1.0,19.0,right,1.0,0.9295293750001292,,speed,space,2.642068269000447,,,,,,0.0,0.0,0.0,1.0,19.0,1.0,39.0,1.0,231.0062985729992,,,,,,,,,230.9911662429995,231.35571136,232.1561238459999,232.1397130589994,232.1402673919993,232.1561238459999,232.1561238459999,232.1561238459999,,233.0906481939992,,,,,,,,,,,,,,,,,,,,,,,,,,,,,,right,1.0,0.9295293750001292,,,,,sub-075,1,random_dot,59.344875892188085,
left,left,40.0,0.0,20.0,right,0.0,0.8133614969992777,,speed,space,2.642068269000447,,,,,,0.0,0.0,0.0,1.0,20.0,0.0,40.0,0.0,233.10692464099972,,,,,,,,,233.09093762499924,234.3063849049995,235.10629600299944,235.08994625299965,235.09043407699937,235.10629600299944,235.10629600299944,235.10629600299944,,235.9237936869995,,,,,,,,,,,,,,,,,,,,,,,,,,,,,,right,0.0,0.8133614969992777,,,,,sub-075,1,random_dot,59.344875892188085,
right,right,41.0,1.0,20.0,right,1.0,2.0630217970001468,,speed,space,2.642068269000447,,,,,,0.0,0.0,0.0,1.0,20.0,1.0,41.0,1.0,235.9396202759999,,,,,,,,,235.92421995899983,236.72287406099983,237.52280570099992,237.50681143599925,237.507260503,237.52280570099992,237.52280570099992,237.52280570099992,,239.59072217999983,,,,,,,,,,,,,,,,,,,,,,,,,,,,,,right,1.0,2.0630217970001468,,,,,sub-075,1,random_dot,59.344875892188085,
right,right,42.0,0.0,21.0,right,1.0,1.4207152799999676,,speed,space,2.642068269000447,,,,,,0.0,0.0,0.0,1.0,21.0,0.0,42.0,1.0,239.606036575,,,,,,,,,239.59102966999944,240.8061581309994,241.6064294099997,241.5899092769996,241.5904034369996,241.6064294099997,241.6064294099997,241.6064294099997,,243.0406579699993,,,,,,,,,,,,,,,,,,,,,,,,,,,,,,right,1.0,1.4207152799999676,,,,,sub-075,1,random_dot,59.344875892188085,
left,left,43.0,1.0,21.0,left,1.0,0.9011950020003496,,speed,space,2.642068269000447,,,,,,0.0,0.0,0.0,1.0,21.0,1.0,43.0,0.0,243.0559892249994,,,,,,,,,243.0410654539992,243.4063511729992,244.2061729929992,244.1897854219997,244.19023973000003,244.2061729929992,244.2061729929992,244.2061729929992,,245.1242274779997,,,,,,,,,,,,,,,,,,,,,,,,,,,,,,left,1.0,0.9011950020003496,,,,,sub-075,1,random_dot,59.344875892188085,
right,right,44.0,0.0,22.0,left,0.0,2.088020303999656,,speed,space,2.642068269000447,,,,,,0.0,0.0,0.0,1.0,22.0,0.0,44.0,1.0,245.139070962,,,,,,,,,245.1245866399995,245.48881706199973,246.28993049199929,246.2734475119996,246.2739014949993,246.28993049199929,246.28993049199929,246.28993049199929,,248.38993970199957,,,,,,,,,,,,,,,,,,,,,,,,,,,,,,left,0.0,2.088020303999656,,,,,sub-075,1,random_dot,59.344875892188085,
left,left,45.0,1.0,22.0,right,0.0,0.7587684469999658,,speed,space,2.642068269000447,,,,,,0.0,0.0,0.0,1.0,22.0,1.0,45.0,0.0,248.40575064199948,,,,,,,,,248.3902517029992,249.189320642,249.98993390399937,249.9732733589999,249.97372810599973,249.98993390399937,249.98993390399937,249.98993390399937,,250.75693769399916,,,,,,,,,,,,,,,,,,,,,,,,,,,,,,right,0.0,0.7587684469999658,,,,,sub-075,1,random_dot,59.344875892188085,
left,left,46.0,0.0,23.0,left,1.0,1.202875676000076,,speed,space,2.642068269000447,,,,,,0.0,0.0,0.0,1.0,23.0,0.0,46.0,0.0,250.77273135299947,,,,,,,,,250.75726474699968,251.12206381899975,251.9227045609996,251.9063891979995,251.90684585500003,251.9227045609996,251.9227045609996,251.9227045609996,,253.14040721699985,,,,,,,,,,,,,,,,,,,,,,,,,,,,,,left,1.0,1.202875676000076,,,,,sub-075,1,random_dot,59.344875892188085,
right,right,47.0,1.0,23.0,left,0.0,1.2618982750000214,,speed,space,2.642068269000447,,,,,,0.0,0.0,0.0,1.0,23.0,1.0,47.0,1.0,253.1556336119993,,,,,,,,,253.14083754900005,253.93964359799972,254.7397748149997,254.7233180079993,254.723849168,254.7397748149997,254.7397748149997,254.7397748149997,,256.0073187669996,,,,,,,,,,,,,,,,,,,,,,,,,,,,,,left,0.0,1.2618982750000214,,,,,sub-075,1,random_dot,59.344875892188085,
right,right,48.0,0.0,24.0,right,1.0,1.0033458929992776,,speed,space,2.642068269000447,,,,,,0.0,0.0,0.0,1.0,24.0,0.0,48.0,1.0,256.0228944369992,,,,,,,,,256.00761163099924,257.2228476649998,258.0231202669993,258.0066944779992,258.00715429699994,258.0231202669993,258.0231202669993,258.0231202669993,,259.039991314,,,,,,,,,,,,,,,,,,,,,,,,,,,,,,right,1.0,1.0033458929992776,,,,,sub-075,1,random_dot,59.344875892188085,
left,left,49.0,1.0,24.0,right,0.0,3.594650232999811,,speed,space,2.642068269000447,,,,,,0.0,0.0,0.0,1.0,24.0,1.0,49.0,0.0,259.0558161499994,,,,,,,,,259.04030252399934,259.83920690299965,260.6395926519999,260.62322967099954,260.6236850339992,260.6395926519999,260.6395926519999,260.6395926519999,,264.24081359699994,,,,,,,,,,,,,,,,,,,,,,,,,,,,,,right,0.0,3.594650232999811,,,,,sub-075,1,random_dot,59.344875892188085,
left,left,50.0,0.0,25.0,left,1.0,1.2570817739997435,,speed,space,2.642068269000447,,,,,,0.0,0.0,0.0,1.0,25.0,0.0,50.0,0.0,264.25597105499946,,,,,,,,,264.24112254099964,265.4556596619996,266.2565108559993,266.2399669479992,266.2405685699996,266.2565108559993,266.2565108559993,266.2565108559993,,267.52284981699995,,,,,,,,,,,,,,,,,,,,,,,,,,,,,,left,1.0,1.2570817739997435,,,,,sub-075,1,random_dot,59.344875892188085,
right,right,51.0,1.0,25.0,left,0.0,1.2582212639999852,,speed,space,2.642068269000447,,,,,,0.0,0.0,0.0,1.0,25.0,1.0,51.0,1.0,267.53903711599924,,,,,,,,,267.5231383119999,268.322155031,269.1223290359994,269.10593213299944,269.1062799279998,269.1223290359994,269.1223290359994,269.1223290359994,,270.3897578979995,,,,,,,,,,,,,,,,,,,,,,,,,,,,,,left,0.0,1.2582212639999852,,,,,sub-075,1,random_dot,59.344875892188085,
right,right,52.0,0.0,26.0,right,1.0,1.1149606649996713,,speed,space,2.642068269000447,,,,,,0.0,0.0,0.0,1.0,26.0,0.0,52.0,1.0,270.40548219299944,,,,,,,,,270.39005029500004,271.58899742999984,272.38908601799994,272.3722942859995,272.3725764409992,272.38908601799994,272.38908601799994,272.38908601799994,,273.50646232799954,,,,,,,,,,,,,,,,,,,,,,,,,,,,,,right,1.0,1.1149606649996713,,,,,sub-075,1,random_dot,59.344875892188085,
left,left,53.0,1.0,26.0,right,0.0,1.012525600999652,,speed,space,2.642068269000447,,,,,,0.0,0.0,0.0,1.0,26.0,1.0,53.0,0.0,273.52218810499926,,,,,,,,,273.5069390869994,273.8717882029996,274.6725828839999,274.6560581879994,274.6565148059999,274.6725828839999,274.6725828839999,274.6725828839999,,275.6898967979996,,,,,,,,,,,,,,,,,,,,,,,,,,,,,,right,0.0,1.012525600999652,,,,,sub-075,1,random_dot,59.344875892188085,
right,right,54.0,0.0,27.0,left,0.0,2.699692314999993,,speed,space,2.642068269000447,,,,,,0.0,0.0,0.0,1.0,27.0,0.0,54.0,1.0,275.7054332759999,,,,,,,,,275.6903213309997,276.0554954949994,276.85564278699985,276.8392937189992,276.8397486069998,276.85564278699985,276.85564278699985,276.85564278699985,,279.55656480999914,,,,,,,,,,,,,,,,,,,,,,,,,,,,,,left,0.0,2.699692314999993,,,,,sub-075,1,random_dot,59.344875892188085,
left,left,55.0,1.0,27.0,left,1.0,2.113045956999485,,speed,space,2.642068269000447,,,,,,0.0,0.0,0.0,1.0,27.0,1.0,55.0,0.0,279.5715315949992,,,,,,,,,279.55713727199964,279.9223050719993,280.72220648499933,280.7061004469997,280.7065583069998,280.72220648499933,280.72220648499933,280.72220648499933,,282.8400722299993,,,,,,,,,,,,,,,,,,,,,,,,,,,,,,left,1.0,2.113045956999485,,,,,sub-075,1,random_dot,59.344875892188085,
left,left,56.0,0.0,28.0,left,1.0,2.480647999000212,,speed,space,2.642068269000447,,,,,,0.0,0.0,0.0,1.0,28.0,0.0,56.0,0.0,282.8549870329998,,,,,,,,,282.8405114849993,283.63896886099974,284.4389607789999,284.42176968699914,284.42204438499994,284.4389607789999,284.4389607789999,284.4389607789999,,286.9229912139999,,,,,,,,,,,,,,,,,,,,,,,,,,,,,,left,1.0,2.480647999000212,,,,,sub-075,1,random_dot,59.344875892188085,
right,right,57.0,1.0,28.0,right,1.0,1.0182042430005822,,speed,space,2.642068269000447,,,,,,0.0,0.0,0.0,1.0,28.0,1.0,57.0,1.0,286.9386443229996,,,,,,,,,286.9234456519998,287.7226534799993,288.53893149399937,288.52217563699924,288.522627288,288.53893149399937,288.53893149399937,288.53893149399937,,289.5733111869995,,,,,,,,,,,,,,,,,,,,,,,,,,,,,,right,1.0,1.0182042430005822,,,,,sub-075,1,random_dot,59.344875892188085,
right,right,58.0,0.0,29.0,right,1.0,1.1338996009999391,,speed,space,2.642068269000447,,,,,,0.0,0.0,0.0,1.0,29.0,0.0,58.0,1.0,289.588821325,,,,,,,,,289.57381230099963,289.9389526749992,290.73914359099945,290.7225598169998,290.7230171649999,290.73914359099945,290.73914359099945,290.73914359099945,,291.8894882069999,,,,,,,,,,,,,,,,,,,,,,,,,,,,,,right,1.0,1.1338996009999391,,,,,sub-075,1,random_dot,59.344875892188085,
left,left,59.0,1.0,29.0,right,0.0,1.125178655000127,,speed,space,2.642068269000447,,,,,,0.0,0.0,0.0,1.0,29.0,1.0,59.0,0.0,291.90561445000003,,,,,,,,,291.88989496499926,291.98892705099934,292.7889132249993,292.7726372059997,292.7730953439996,292.7889132249993,292.7889132249993,292.7889132249993,,293.9230066599994,,,,,,,,,,,,,,,,,,,,,,,,,,,,,,right,0.0,1.125178655000127,,,,,sub-075,1,random_dot,59.344875892188085,
,,0.0,0.0,0.0,,,,,speed,space,2.642068269000447,,,,,,0.0,0.0,0.0,1.0,,,,,,,,,,,,,,,,,,,,,,,,,,,,,,,,,,,,,,,,,,,,,,,,,,,,,,,,,,,,sub-075,1,random_dot,59.344875892188085,
right,right,0.0,0.0,0.0,right,1.0,1.1487340809999296,,accuracy,space,204.9214332170004,,,,,,0.0,1.0,1.0,0.0,0.0,0.0,0.0,1.0,498.92308768899966,,,,,,,,,498.9115245189996,500.11892484999953,500.9189579929998,500.9025869319994,500.9030524089994,500.9189579929998,500.9189579929998,500.9189579929998,,502.0696991299992,,,,,,,,,,,,,,,,,,,,,,,293.95569368499946,293.96638533999976,293.96638533999976,498.9040286689997,space,204.9214332170004,,right,1.0,1.1487340809999296,,,,,sub-075,1,random_dot,59.344875892188085,
left,left,1.0,1.0,0.0,left,1.0,1.3218029629997543,,accuracy,space,204.9214332170004,,,,,,0.0,1.0,1.0,0.0,0.0,1.0,1.0,0.0,502.08607078599925,,,,,,,,,502.0700170659993,502.8694758249994,503.6692694389994,503.6527833099999,503.65324236299966,503.6692694389994,503.6692694389994,503.6692694389994,,505.0028048439999,,,,,,,,,,,,,,,,,,,,,,,,,,,,,,left,1.0,1.3218029629997543,,,,,sub-075,1,random_dot,59.344875892188085,
left,left,2.0,0.0,1.0,left,1.0,0.9822590320000018,,accuracy,space,204.9214332170004,,,,,,0.0,1.0,1.0,0.0,1.0,0.0,2.0,0.0,505.0188044459992,,,,,,,,,505.0031051819997,505.80223668799954,506.60263097699954,506.585964381,506.5864234189994,506.60263097699954,506.60263097699954,506.60263097699954,,507.58674639699984,,,,,,,,,,,,,,,,,,,,,,,,,,,,,,left,1.0,0.9822590320000018,,,,,sub-075,1,random_dot,59.344875892188085,
right,right,3.0,1.0,1.0,right,1.0,0.8301771890000964,,accuracy,space,204.9214332170004,,,,,,0.0,1.0,1.0,0.0,1.0,1.0,3.0,1.0,507.6022974389998,,,,,,,,,507.5870713479999,508.802425549,509.6026249439992,509.5858163979992,509.58614456599935,509.6026249439992,509.6026249439992,509.6026249439992,,510.43765362999966,,,,,,,,,,,,,,,,,,,,,,,,,,,,,,right,1.0,0.8301771890000964,,,,,sub-075,1,random_dot,59.344875892188085,
left,left,4.0,0.0,2.0,left,1.0,0.911772880999706,,accuracy,space,204.9214332170004,,,,,,0.0,1.0,1.0,0.0,2.0,0.0,4.0,0.0,510.452378815,,,,,,,,,510.43815877,511.6529786439996,512.4528137269999,512.4364159999996,512.436902636,512.4528137269999,512.4528137269999,512.4528137269999,,513.370981563,,,,,,,,,,,,,,,,,,,,,,,,,,,,,,left,1.0,0.911772880999706,,,,,sub-075,1,random_dot,59.344875892188085,
right,right,5.0,1.0,2.0,right,1.0,0.8743232719998559,,accuracy,space,204.9214332170004,,,,,,0.0,1.0,1.0,0.0,2.0,1.0,5.0,1.0,513.3861150799994,,,,,,,,,513.371271426,513.4862006779995,514.2860084739996,514.2698106579992,514.2702768599993,514.2860084739996,514.2860084739996,514.2860084739996,,515.1698263469998,,,,,,,,,,,,,,,,,,,,,,,,,,,,,,right,1.0,0.8743232719998559,,,,,sub-075,1,random_dot,59.344875892188085,
left,left,6.0,0.0,3.0,left,1.0,0.8084075420001682,,accuracy,space,204.9214332170004,,,,,,0.0,1.0,1.0,0.0,3.0,0.0,6.0,0.0,515.1853840269996,,,,,,,,,515.1701174629998,515.9694040929999,516.7699096939996,516.7527513249997,516.7532253029995,516.7699096939996,516.7699096939996,516.7699096939996,,517.5867036549998,,,,,,,,,,,,,,,,,,,,,,,,,,,,,,left,1.0,0.8084075420001682,,,,,sub-075,1,random_dot,59.344875892188085,
right,right,7.0,1.0,3.0,right,1.0,0.920104091000212,,accuracy,space,204.9214332170004,,,,,,0.0,1.0,1.0,0.0,3.0,1.0,7.0,1.0,517.6027874329993,,,,,,,,,517.5869947949996,517.9363718279992,518.736204459,518.7193750259994,518.719829224,518.736204459,518.736204459,518.736204459,,519.6690855919996,,,,,,,,,,,,,,,,,,,,,,,,,,,,,,right,1.0,0.920104091000212,,,,,sub-075,1,random_dot,59.344875892188085,
left,left,8.0,0.0,4.0,left,1.0,0.915289204000146,,accuracy,space,204.9214332170004,,,,,,0.0,1.0,1.0,0.0,4.0,0.0,8.0,0.0,519.6857392439997,,,,,,,,,519.669387166,520.0194718889998,520.8197703359992,520.8031049609999,520.8035637269995,520.8197703359992,520.8197703359992,520.8197703359992,,521.738524937,,,,,,,,,,,,,,,,,,,,,,,,,,,,,,left,1.0,0.915289204000146,,,,,sub-075,1,random_dot,59.344875892188085,
right,right,9.0,1.0,4.0,right,1.0,0.9964754160000666,,accuracy,space,204.9214332170004,,,,,,0.0,1.0,1.0,0.0,4.0,1.0,9.0,1.0,521.7547808969994,,,,,,,,,521.7389691919998,521.8521791409994,522.6528058649992,522.6364307869999,522.6369007809999,522.6528058649992,522.6528058649992,522.6528058649992,,523.6535724639998,,,,,,,,,,,,,,,,,,,,,,,,,,,,,,right,1.0,0.9964754160000666,,,,,sub-075,1,random_dot,59.344875892188085,
right,right,10.0,0.0,5.0,right,1.0,0.9061698819996308,,accuracy,space,204.9214332170004,,,,,,0.0,1.0,1.0,0.0,5.0,0.0,10.0,1.0,523.6685838049998,,,,,,,,,523.6539809309998,524.4690730369994,525.2690694559997,525.2526256639994,525.2530974759993,525.2690694559997,525.2690694559997,525.2690694559997,,526.186406453,,,,,,,,,,,,,,,,,,,,,,,,,,,,,,right,1.0,0.9061698819996308,,,,,sub-075,1,random_dot,59.344875892188085,
left,left,11.0,1.0,5.0,left,1.0,0.9510635299993736,,accuracy,space,204.9214332170004,,,,,,0.0,1.0,1.0,0.0,5.0,1.0,11.0,0.0,526.2018406829993,,,,,,,,,526.1868511879993,526.3016917689993,527.102842927,527.0867642149997,527.0873918499992,527.102842927,527.102842927,527.102842927,,528.0694141499998,,,,,,,,,,,,,,,,,,,,,,,,,,,,,,left,1.0,0.9510635299993736,,,,,sub-075,1,random_dot,59.344875892188085,
left,left,12.0,0.0,6.0,left,1.0,1.947028728999612,,accuracy,space,204.9214332170004,,,,,,0.0,1.0,1.0,0.0,6.0,0.0,12.0,0.0,528.0857100049998,,,,,,,,,528.0697066299999,528.8689057289994,529.6690455529997,529.6526009229992,529.6530656079995,529.6690455529997,529.6690455529997,529.6690455529997,,531.6194238639991,,,,,,,,,,,,,,,,,,,,,,,,,,,,,,left,1.0,1.947028728999612,,,,,sub-075,1,random_dot,59.344875892188085,
right,right,13.0,1.0,6.0,right,1.0,0.9385219969999524,,accuracy,space,204.9214332170004,,,,,,0.0,1.0,1.0,0.0,6.0,1.0,13.0,1.0,531.6353329679996,,,,,,,,,531.6198608319992,532.834792445,533.6355953949997,533.6193247019992,533.6197793949996,533.6355953949997,533.6355953949997,533.6355953949997,,534.5863134489991,,,,,,,,,,,,,,,,,,,,,,,,,,,,,,right,1.0,0.9385219969999524,,,,,sub-075,1,random_dot,59.344875892188085,
right,right,14.0,0.0,7.0,left,0.0,1.211498400999517,,accuracy,space,204.9214332170004,,,,,,0.0,1.0,1.0,0.0,7.0,0.0,14.0,1.0,534.6021449209993,,,,,,,,,534.5866058749998,535.3853142089993,536.185418993,536.1692663819995,536.1697551589996,536.185418993,536.185418993,536.185418993,,537.4030868039999,,,,,,,,,,,,,,,,,,,,,,,,,,,,,,left,0.0,1.211498400999517,,,,,sub-075,1,random_dot,59.344875892188085,
left,left,15.0,1.0,7.0,left,1.0,0.8464257389996419,,accuracy,space,204.9214332170004,,,,,,0.0,1.0,1.0,0.0,7.0,1.0,15.0,0.0,537.4188662139995,,,,,,,,,537.4033843959996,537.5023316139996,538.3024350179994,538.2864010599997,538.2868622039996,538.3024350179994,538.3024350179994,538.3024350179994,,539.1527499369995,,,,,,,,,,,,,,,,,,,,,,,,,,,,,,left,1.0,0.8464257389996419,,,,,sub-075,1,random_dot,59.344875892188085,
left,left,16.0,0.0,8.0,left,1.0,0.7727175230002103,,accuracy,space,204.9214332170004,,,,,,0.0,1.0,1.0,0.0,8.0,0.0,16.0,0.0,539.1683477799997,,,,,,,,,539.1530462049996,540.3519996329997,541.1520998789993,541.1357264489998,541.1361819109998,541.1520998789993,541.1520998789993,541.1520998789993,,541.9361532659996,,,,,,,,,,,,,,,,,,,,,,,,,,,,,,left,1.0,0.7727175230002103,,,,,sub-075,1,random_dot,59.344875892188085,
right,right,17.0,1.0,8.0,right,1.0,0.6590096659992923,,accuracy,space,204.9214332170004,,,,,,0.0,1.0,1.0,0.0,8.0,1.0,17.0,1.0,541.9520596639995,,,,,,,,,541.9365100699997,542.7353650229998,543.5356883649993,543.5189773009997,543.5194472839994,543.5356883649993,543.5356883649993,543.5356883649993,,544.2027388349998,,,,,,,,,,,,,,,,,,,,,,,,,,,,,,right,1.0,0.6590096659992923,,,,,sub-075,1,random_dot,59.344875892188085,
left,left,18.0,0.0,9.0,left,1.0,1.2899496520003595,,accuracy,space,204.9214332170004,,,,,,0.0,1.0,1.0,0.0,9.0,0.0,18.0,0.0,544.2183752909996,,,,,,,,,544.2030314869999,544.3027956099995,545.1025019409999,545.0859998489996,545.0864515469993,545.1025019409999,545.1025019409999,545.1025019409999,,546.4030962999996,,,,,,,,,,,,,,,,,,,,,,,,,,,,,,left,1.0,1.2899496520003595,,,,,sub-075,1,random_dot,59.344875892188085,
right,right,19.0,1.0,9.0,right,1.0,0.7360773219998009,,accuracy,space,204.9214332170004,,,,,,0.0,1.0,1.0,0.0,9.0,1.0,19.0,1.0,546.4185233899998,,,,,,,,,546.4033888109998,546.7525582799999,547.5523037409994,547.535780915,547.5362374909992,547.5523037409994,547.5523037409994,547.5523037409994,,548.3028064219998,,,,,,,,,,,,,,,,,,,,,,,,,,,,,,right,1.0,0.7360773219998009,,,,,sub-075,1,random_dot,59.344875892188085,
left,left,20.0,0.0,10.0,left,1.0,0.7948033379998378,,accuracy,space,204.9214332170004,,,,,,0.0,1.0,1.0,0.0,10.0,0.0,20.0,0.0,548.317765025,,,,,,,,,548.3032363839993,548.4013717439993,549.2019155669996,549.185733413,549.1862027939997,549.2019155669996,549.2019155669996,549.2019155669996,,550.0023292139995,,,,,,,,,,,,,,,,,,,,,,,,,,,,,,left,1.0,0.7948033379998378,,,,,sub-075,1,random_dot,59.344875892188085,
right,right,21.0,1.0,10.0,right,1.0,0.7462305810004182,,accuracy,space,204.9214332170004,,,,,,0.0,1.0,1.0,0.0,10.0,1.0,21.0,1.0,550.0181775149995,,,,,,,,,550.0026248779996,550.3519338009992,551.1522144419996,551.1362239339996,551.1366165559994,551.1522144419996,551.1522144419996,551.1522144419996,,551.9031431419999,,,,,,,,,,,,,,,,,,,,,,,,,,,,,,right,1.0,0.7462305810004182,,,,,sub-075,1,random_dot,59.344875892188085,
left,left,22.0,0.0,11.0,left,1.0,0.7114077460000772,,accuracy,space,204.9214332170004,,,,,,0.0,1.0,1.0,0.0,11.0,0.0,22.0,0.0,551.9186409709991,,,,,,,,,551.9034403529995,552.0021950389992,552.8020938219997,552.7854714789992,552.7857608169998,552.8020938219997,552.8020938219997,552.8020938219997,,553.5194877279991,,,,,,,,,,,,,,,,,,,,,,,,,,,,,,left,1.0,0.7114077460000772,,,,,sub-075,1,random_dot,59.344875892188085,
right,right,23.0,1.0,11.0,right,1.0,0.75664113700077,,accuracy,space,204.9214332170004,,,,,,0.0,1.0,1.0,0.0,11.0,1.0,23.0,1.0,553.53506844,,,,,,,,,553.5197835009994,554.3183861139996,555.1191621169992,555.1026431779992,555.1031266559994,555.1191621169992,555.1191621169992,555.1191621169992,,555.8859702759992,,,,,,,,,,,,,,,,,,,,,,,,,,,,,,right,1.0,0.75664113700077,,,,,sub-075,1,random_dot,59.344875892188085,
right,right,24.0,0.0,12.0,right,1.0,0.9256655870003668,,accuracy,space,204.9214332170004,,,,,,0.0,1.0,1.0,0.0,12.0,0.0,24.0,1.0,555.9014533569998,,,,,,,,,555.8862775579992,556.2352531809993,557.0345103089994,557.0179327939995,557.0182009309992,557.0345103089994,557.0345103089994,557.0345103089994,,557.9689000429998,,,,,,,,,,,,,,,,,,,,,,,,,,,,,,right,1.0,0.9256655870003668,,,,,sub-075,1,random_dot,59.344875892188085,
left,left,25.0,1.0,12.0,left,1.0,0.679014365000512,,accuracy,space,204.9214332170004,,,,,,0.0,1.0,1.0,0.0,12.0,1.0,25.0,0.0,557.9847645479995,,,,,,,,,557.9692012489995,558.7851530119997,559.5852688599998,559.5688117239997,559.5692674019992,559.5852688599998,559.5852688599998,559.5852688599998,,560.2693917429997,,,,,,,,,,,,,,,,,,,,,,,,,,,,,,left,1.0,0.679014365000512,,,,,sub-075,1,random_dot,59.344875892188085,
right,right,26.0,0.0,13.0,right,1.0,0.6230444539996824,,accuracy,space,204.9214332170004,,,,,,0.0,1.0,1.0,0.0,13.0,0.0,26.0,1.0,560.2846008789993,,,,,,,,,560.269710947,561.484462937,562.2853025999993,562.2685469419994,562.2689996629997,562.2853025999993,562.2853025999993,562.2853025999993,,562.920143712,,,,,,,,,,,,,,,,,,,,,,,,,,,,,,right,1.0,0.6230444539996824,,,,,sub-075,1,random_dot,59.344875892188085,
left,left,27.0,1.0,13.0,left,1.0,0.7398736880004435,,accuracy,space,204.9214332170004,,,,,,0.0,1.0,1.0,0.0,13.0,1.0,27.0,0.0,562.9354170689994,,,,,,,,,562.9206460359992,563.2850097819992,564.0854196249993,564.068691683,564.0691455419992,564.0854196249993,564.0854196249993,564.0854196249993,,564.8356800699994,,,,,,,,,,,,,,,,,,,,,,,,,,,,,,left,1.0,0.7398736880004435,,,,,sub-075,1,random_dot,59.344875892188085,
right,right,28.0,0.0,14.0,right,1.0,0.5780131439996694,,accuracy,space,204.9214332170004,,,,,,0.0,1.0,1.0,0.0,14.0,0.0,28.0,1.0,564.8516540769997,,,,,,,,,564.8359713749996,566.0347111249994,566.8351108539991,566.8186870149993,566.8191359039993,566.8351108539991,566.8351108539991,566.8351108539991,,567.4194727159993,,,,,,,,,,,,,,,,,,,,,,,,,,,,,,right,1.0,0.5780131439996694,,,,,sub-075,1,random_dot,59.344875892188085,
left,left,29.0,1.0,14.0,left,1.0,0.7266463040004965,,accuracy,space,204.9214332170004,,,,,,0.0,1.0,1.0,0.0,14.0,1.0,29.0,0.0,567.4351806109999,,,,,,,,,567.4197712929999,568.2343628359995,569.0352942489999,569.0188360999991,569.0193413379993,569.0352942489999,569.0352942489999,569.0352942489999,,569.7692168439999,,,,,,,,,,,,,,,,,,,,,,,,,,,,,,left,1.0,0.7266463040004965,,,,,sub-075,1,random_dot,59.344875892188085,
right,right,30.0,0.0,15.0,right,1.0,0.6540395539996098,,accuracy,space,204.9214332170004,,,,,,0.0,1.0,1.0,0.0,15.0,0.0,30.0,1.0,569.7850084769998,,,,,,,,,569.7695162189993,570.9846545379996,571.7847619299991,571.7679327649994,571.768211095,571.7847619299991,571.7847619299991,571.7847619299991,,572.4528002419993,,,,,,,,,,,,,,,,,,,,,,,,,,,,,,right,1.0,0.6540395539996098,,,,,sub-075,1,random_dot,59.344875892188085,
left,left,31.0,1.0,15.0,left,1.0,0.716239244999997,,accuracy,space,204.9214332170004,,,,,,0.0,1.0,1.0,0.0,15.0,1.0,31.0,0.0,572.4676256349994,,,,,,,,,572.453152565,573.6684069429994,574.4685697609993,574.4520778449996,574.4525693289997,574.4685697609993,574.4685697609993,574.4685697609993,,575.1861306739993,,,,,,,,,,,,,,,,,,,,,,,,,,,,,,left,1.0,0.716239244999997,,,,,sub-075,1,random_dot,59.344875892188085,
left,left,32.0,0.0,16.0,left,1.0,0.5797239230005289,,accuracy,space,204.9214332170004,,,,,,0.0,1.0,1.0,0.0,16.0,0.0,32.0,0.0,575.2015443509999,,,,,,,,,575.1865371179993,575.5354088759996,576.3358351509996,576.319073183,576.3195526809995,576.3358351509996,576.3358351509996,576.3358351509996,,576.91893566,,,,,,,,,,,,,,,,,,,,,,,,,,,,,,left,1.0,0.5797239230005289,,,,,sub-075,1,random_dot,59.344875892188085,
right,right,33.0,1.0,16.0,right,1.0,0.6442796250003084,,accuracy,space,204.9214332170004,,,,,,0.0,1.0,1.0,0.0,16.0,1.0,33.0,1.0,576.9343452179992,,,,,,,,,576.9193724779998,578.1183543249999,578.9183573979999,578.9019403659995,578.9023945709996,578.9183573979999,578.9183573979999,578.9183573979999,,579.5697154899999,,,,,,,,,,,,,,,,,,,,,,,,,,,,,,right,1.0,0.6442796250003084,,,,,sub-075,1,random_dot,59.344875892188085,
left,left,34.0,0.0,17.0,left,1.0,0.7505937070000073,,accuracy,space,204.9214332170004,,,,,,0.0,1.0,1.0,0.0,17.0,0.0,34.0,0.0,579.5845928239996,,,,,,,,,579.5700159279995,580.3843943479997,581.1849043189995,581.1685295919997,581.1689621739997,581.1849043189995,581.1849043189995,581.1849043189995,,581.9521050979993,,,,,,,,,,,,,,,,,,,,,,,,,,,,,,left,1.0,0.7505937070000073,,,,,sub-075,1,random_dot,59.344875892188085,
right,right,35.0,1.0,17.0,right,1.0,0.6116966959998535,,accuracy,space,204.9214332170004,,,,,,0.0,1.0,1.0,0.0,17.0,1.0,35.0,1.0,581.9676776979995,,,,,,,,,581.9525003339995,582.7532376289992,583.5677626339993,583.551387949,583.5516694939997,583.5677626339993,583.5677626339993,583.5677626339993,,584.1872069469991,,,,,,,,,,,,,,,,,,,,,,,,,,,,,,right,1.0,0.6116966959998535,,,,,sub-075,1,random_dot,59.344875892188085,
left,left,36.0,0.0,18.0,left,1.0,1.025039201999789,,accuracy,space,204.9214332170004,,,,,,0.0,1.0,1.0,0.0,18.0,0.0,36.0,0.0,584.2015593289998,,,,,,,,,584.1875119679999,585.4014438619997,586.201629956,586.1846523989998,586.1849306199992,586.201629956,586.201629956,586.201629956,,587.2356677129992,,,,,,,,,,,,,,,,,,,,,,,,,,,,,,left,1.0,1.025039201999789,,,,,sub-075,1,random_dot,59.344875892188085,
right,right,37.0,1.0,18.0,right,1.0,0.6372533819994715,,accuracy,space,204.9214332170004,,,,,,0.0,1.0,1.0,0.0,18.0,1.0,37.0,1.0,587.2517169309995,,,,,,,,,587.2359605059992,588.4351996809992,589.2342393979998,589.218272047,589.218545402,589.2342393979998,589.2342393979998,589.2342393979998,,589.8873050209995,,,,,,,,,,,,,,,,,,,,,,,,,,,,,,right,1.0,0.6372533819994715,,,,,sub-075,1,random_dot,59.344875892188085,
left,left,38.0,0.0,19.0,left,1.0,0.6947624779995749,,accuracy,space,204.9214332170004,,,,,,0.0,1.0,1.0,0.0,19.0,0.0,38.0,0.0,589.9025616039999,,,,,,,,,589.8877745659993,591.1020484349992,591.9017701859993,591.8849056469999,591.8852470429993,591.9017701859993,591.9017701859993,591.9017701859993,,592.6025846929997,,,,,,,,,,,,,,,,,,,,,,,,,,,,,,left,1.0,0.6947624779995749,,,,,sub-075,1,random_dot,59.344875892188085,
right,right,39.0,1.0,19.0,right,1.0,0.5991794669998853,,accuracy,space,204.9214332170004,,,,,,0.0,1.0,1.0,0.0,19.0,1.0,39.0,1.0,592.6177866239996,,,,,,,,,592.6030070799998,592.9516389259998,593.7520016789995,593.7354581129994,593.7359135119996,593.7520016789995,593.7520016789995,593.7520016789995,,594.3690215309998,,,,,,,,,,,,,,,,,,,,,,,,,,,,,,right,1.0,0.5991794669998853,,,,,sub-075,1,random_dot,59.344875892188085,
right,right,40.0,0.0,20.0,right,1.0,1.657383208000283,,accuracy,space,204.9214332170004,,,,,,0.0,1.0,1.0,0.0,20.0,0.0,40.0,1.0,594.3842438189995,,,,,,,,,594.369504112,595.5684926109998,596.3694537629999,596.351907368,596.352358178,596.3694537629999,596.3694537629999,596.3694537629999,,598.0353953219992,,,,,,,,,,,,,,,,,,,,,,,,,,,,,,right,1.0,1.657383208000283,,,,,sub-075,1,random_dot,59.344875892188085,
left,left,41.0,1.0,20.0,left,1.0,0.8096902229999614,,accuracy,space,204.9214332170004,,,,,,0.0,1.0,1.0,0.0,20.0,1.0,41.0,0.0,598.0514126279995,,,,,,,,,598.0356882059996,598.8345994239999,599.6346741889993,599.6183226869998,599.6187739549996,599.6346741889993,599.6346741889993,599.6346741889993,,600.4523247989991,,,,,,,,,,,,,,,,,,,,,,,,,,,,,,left,1.0,0.8096902229999614,,,,,sub-075,1,random_dot,59.344875892188085,
right,right,42.0,0.0,21.0,right,1.0,0.7202775040004781,,accuracy,space,204.9214332170004,,,,,,0.0,1.0,1.0,0.0,21.0,0.0,42.0,1.0,600.4671754029996,,,,,,,,,600.4527240079997,600.5679269879993,601.3659554869992,601.3507789609994,601.3511689799998,601.3659554869992,601.3659554869992,601.3659554869992,,602.1016278409998,,,,,,,,,,,,,,,,,,,,,,,,,,,,,,right,1.0,0.7202775040004781,,,,,sub-075,1,random_dot,59.344875892188085,
left,left,43.0,1.0,21.0,left,1.0,0.6520084580006369,,accuracy,space,204.9214332170004,,,,,,0.0,1.0,1.0,0.0,21.0,1.0,43.0,0.0,602.1177309689992,,,,,,,,,602.1020037319995,602.9008789309992,603.7016364379997,603.6840441069999,603.6843299689999,603.7016364379997,603.7016364379997,603.7016364379997,,604.3688889819996,,,,,,,,,,,,,,,,,,,,,,,,,,,,,,left,1.0,0.6520084580006369,,,,,sub-075,1,random_dot,59.344875892188085,
left,left,44.0,0.0,22.0,left,1.0,2.0559427280004456,,accuracy,space,204.9214332170004,,,,,,0.0,1.0,1.0,0.0,22.0,0.0,44.0,0.0,604.383815792,,,,,,,,,604.3693602149997,604.7345731169999,605.5346634889993,605.5182557329999,605.5187134759999,605.5346634889993,605.5346634889993,605.5346634889993,,607.6021543729994,,,,,,,,,,,,,,,,,,,,,,,,,,,,,,left,1.0,2.0559427280004456,,,,,sub-075,1,random_dot,59.344875892188085,
right,right,45.0,1.0,22.0,right,1.0,0.654611448999276,,accuracy,space,204.9214332170004,,,,,,0.0,1.0,1.0,0.0,22.0,1.0,45.0,1.0,607.6174675409993,,,,,,,,,607.6024601359995,607.966790298,608.7676123389992,608.751274231,608.7517437259994,608.7676123389992,608.7676123389992,608.7676123389992,,609.4346569859999,,,,,,,,,,,,,,,,,,,,,,,,,,,,,,right,1.0,0.654611448999276,,,,,sub-075,1,random_dot,59.344875892188085,
right,right,46.0,0.0,23.0,left,0.0,1.742278030000307,,accuracy,space,204.9214332170004,,,,,,0.0,1.0,1.0,0.0,23.0,0.0,46.0,1.0,609.4503952969999,,,,,,,,,609.4349606209998,609.5342438909993,610.3338452859998,610.317193547,610.3175858689992,610.3338452859998,610.3338452859998,610.3338452859998,,612.0848177789994,,,,,,,,,,,,,,,,,,,,,,,,,,,,,,left,0.0,1.742278030000307,,,,,sub-075,1,random_dot,59.344875892188085,
left,left,47.0,1.0,23.0,left,1.0,0.7792766259999553,,accuracy,space,204.9214332170004,,,,,,0.0,1.0,1.0,0.0,23.0,1.0,47.0,0.0,612.1005435889992,,,,,,,,,612.0851459649994,612.2007297599994,613.0009265259996,612.9845566929998,612.9850125629991,613.0009265259996,613.0009265259996,613.0009265259996,,613.7854996729993,,,,,,,,,,,,,,,,,,,,,,,,,,,,,,left,1.0,0.7792766259999553,,,,,sub-075,1,random_dot,59.344875892188085,
left,left,48.0,0.0,24.0,right,0.0,1.0336988699991707,,accuracy,space,204.9214332170004,,,,,,0.0,1.0,1.0,0.0,24.0,0.0,48.0,0.0,613.8009719319998,,,,,,,,,613.7858009869997,614.600076535,615.4012903069997,615.3840311829999,615.3843637319997,615.4012903069997,615.4012903069997,615.4012903069997,,616.4519805559994,,,,,,,,,,,,,,,,,,,,,,,,,,,,,,right,0.0,1.0336988699991707,,,,,sub-075,1,random_dot,59.344875892188085,
right,right,49.0,1.0,24.0,right,1.0,0.6110069959995599,,accuracy,space,204.9214332170004,,,,,,0.0,1.0,1.0,0.0,24.0,1.0,49.0,1.0,616.4675033169997,,,,,,,,,616.4523191589997,616.5511129959996,617.3510094539997,617.3347423259993,617.3351921049998,617.3510094539997,617.3510094539997,617.3510094539997,,617.9689166709995,,,,,,,,,,,,,,,,,,,,,,,,,,,,,,right,1.0,0.6110069959995599,,,,,sub-075,1,random_dot,59.344875892188085,
left,left,50.0,0.0,25.0,left,1.0,1.524008316000618,,accuracy,space,204.9214332170004,,,,,,0.0,1.0,1.0,0.0,25.0,0.0,50.0,0.0,617.984225014,,,,,,,,,617.9692158099997,618.0843599619993,618.8841627799993,618.8686979049999,618.8691213979992,618.8841627799993,618.8841627799993,618.8841627799993,,620.4182599559999,,,,,,,,,,,,,,,,,,,,,,,,,,,,,,left,1.0,1.524008316000618,,,,,sub-075,1,random_dot,59.344875892188085,
right,right,51.0,1.0,25.0,right,1.0,0.959317085999828,,accuracy,space,204.9214332170004,,,,,,0.0,1.0,1.0,0.0,25.0,1.0,51.0,1.0,620.4336175529997,,,,,,,,,620.4185491169992,621.6344388409998,622.4345248559994,622.4179577369996,622.4184104839997,622.4345248559994,622.4345248559994,622.4345248559994,,623.4021675929998,,,,,,,,,,,,,,,,,,,,,,,,,,,,,,right,1.0,0.959317085999828,,,,,sub-075,1,random_dot,59.344875892188085,
right,right,52.0,0.0,26.0,right,1.0,0.5952130510004281,,accuracy,space,204.9214332170004,,,,,,0.0,1.0,1.0,0.0,26.0,0.0,52.0,1.0,623.4167947799997,,,,,,,,,623.4024929049992,624.6012949219994,625.4016257739995,625.3848924669992,625.3853404059992,625.4016257739995,625.4016257739995,625.4016257739995,,626.0024837459996,,,,,,,,,,,,,,,,,,,,,,,,,,,,,,right,1.0,0.5952130510004281,,,,,sub-075,1,random_dot,59.344875892188085,
left,left,53.0,1.0,26.0,right,0.0,1.5276188110001383,,accuracy,space,204.9214332170004,,,,,,0.0,1.0,1.0,0.0,26.0,1.0,53.0,0.0,626.0178116549996,,,,,,,,,626.0028340209992,626.1179168249992,626.9181833779994,626.9015240979998,626.9019796899993,626.9181833779994,626.9181833779994,626.9181833779994,,628.4524438499993,,,,,,,,,,,,,,,,,,,,,,,,,,,,,,right,0.0,1.5276188110001383,,,,,sub-075,1,random_dot,59.344875892188085,
left,left,54.0,0.0,27.0,left,1.0,0.8343897700005982,,accuracy,space,204.9214332170004,,,,,,0.0,1.0,1.0,0.0,27.0,0.0,54.0,0.0,628.4679181539996,,,,,,,,,628.4527463269997,628.8173964719999,629.619212433,629.6017573619993,629.6022370769997,629.619212433,629.619212433,629.619212433,,630.4683416789994,,,,,,,,,,,,,,,,,,,,,,,,,,,,,,left,1.0,0.8343897700005982,,,,,sub-075,1,random_dot,59.344875892188085,
right,right,55.0,1.0,27.0,right,1.0,0.6818908670002202,,accuracy,space,204.9214332170004,,,,,,0.0,1.0,1.0,0.0,27.0,1.0,55.0,1.0,630.4841465699992,,,,,,,,,630.4686320199999,630.8175607659996,631.6175271029997,631.601381599,631.6018349289998,631.6175271029997,631.6175271029997,631.6175271029997,,632.3013938259992,,,,,,,,,,,,,,,,,,,,,,,,,,,,,,right,1.0,0.6818908670002202,,,,,sub-075,1,random_dot,59.344875892188085,
right,right,56.0,0.0,28.0,right,1.0,0.9207999710006334,,accuracy,space,204.9214332170004,,,,,,0.0,1.0,1.0,0.0,28.0,0.0,56.0,1.0,632.3169266099994,,,,,,,,,632.3018680199993,632.4168348359999,633.2177227259999,633.2012422709995,633.2016977049998,633.2177227259999,633.2177227259999,633.2177227259999,,634.1526582489996,,,,,,,,,,,,,,,,,,,,,,,,,,,,,,right,1.0,0.9207999710006334,,,,,sub-075,1,random_dot,59.344875892188085,
left,left,57.0,1.0,28.0,left,1.0,0.9682566159999624,,accuracy,space,204.9214332170004,,,,,,0.0,1.0,1.0,0.0,28.0,1.0,57.0,0.0,634.1674337049999,,,,,,,,,634.1531520529998,634.516902888,635.3181742759998,635.3017308499993,635.3021985299993,635.3181742759998,635.3181742759998,635.3181742759998,,636.3017841159999,,,,,,,,,,,,,,,,,,,,,,,,,,,,,,left,1.0,0.9682566159999624,,,,,sub-075,1,random_dot,59.344875892188085,
right,right,58.0,0.0,29.0,right,1.0,0.6865788999994038,,accuracy,space,204.9214332170004,,,,,,0.0,1.0,1.0,0.0,29.0,0.0,58.0,1.0,636.3174581509993,,,,,,,,,636.3021367879992,637.1008372369997,637.9007890779994,637.8845915539996,637.885051061,637.9007890779994,637.9007890779994,637.9007890779994,,638.6019213959999,,,,,,,,,,,,,,,,,,,,,,,,,,,,,,right,1.0,0.6865788999994038,,,,,sub-075,1,random_dot,59.344875892188085,
left,left,59.0,1.0,29.0,left,1.0,1.0491777850002109,,accuracy,space,204.9214332170004,,,,,,0.0,1.0,1.0,0.0,29.0,1.0,59.0,0.0,638.6172711169993,,,,,,,,,638.6022338009998,639.8178158549999,640.6175630769994,640.6010221909992,640.6014746459996,640.6175630769994,640.6175630769994,640.6175630769994,,641.6684832599994,,,,,,,,,,,,,,,,,,,,,,,,,,,,,,left,1.0,1.0491777850002109,,,,,sub-075,1,random_dot,59.344875892188085,
,,1.0,1.0,0.0,,,,,accuracy,space,204.9214332170004,,,,,,0.0,1.0,1.0,0.0,,,,,,,,,,,,,,,,,,,,,,,,,,,,,,,,,,,,,,,,,,,,,,,,,,,,,,,,,,,,sub-075,1,random_dot,59.344875892188085,
,,,,,,,,,,,,,,,,,,,,,,,,,,,,,,,,,,,,,,,,,,,,,,,,,,,,,,,,,,,,,,,,,,,,,,,,,,,,,641.67417699,641.6876850279996,646.684134348,sub-075,1,random_dot,59.344875892188085,
