wordCTK,colorCTK,corrAnsCTK,congruentCTK,thisN,thisTrialN,thisRepN,keyResp_CTK.keys,keyResp_CTK.corr,keyResp_CTK.rt,keyResp_CTK.duration,wordPractice,colorPractice,corrAnsPractice,congruentPractice,respPractice.keys,respPractice.corr,respPractice.rt,respPractice.duration,word,color,corrAns,congruent,keyResp_test_run.keys,keyResp_test_run.corr,keyResp_test_run.rt,keyResp_test_run.duration,trials_CTK.thisRepN,trials_CTK.thisTrialN,trials_CTK.thisN,trials_CTK.thisIndex,trials_practice.thisRepN,trials_practice.thisTrialN,trials_practice.thisN,trials_practice.thisIndex,trials_test.thisRepN,trials_test.thisTrialN,trials_test.thisN,trials_test.thisIndex,thisRow.t,notes,instruction.started,instr_text.started,instr_image.started,instr_resp.started,instruction.stopped,instr_resp.keys,instr_resp.rt,instr_resp.duration,instr_color_to_key.started,instr_ctk.started,resp_ctk.started,instr_color_to_key.stopped,resp_ctk.keys,resp_ctk.rt,resp_ctk.duration,ITI.started,fixcross.started,fixcross.stopped,ITI.stopped,color_to_key_run.started,stimulus_CTK.started,keyResp_CTK.started,color_to_key_run.stopped,trials_CTK.keyResp_CTK.keys,trials_CTK.keyResp_CTK.corr,trials_CTK.keyResp_CTK.rt,trials_CTK.keyResp_CTK.duration,instr_practice.started,instr_practice_text.started,instr_practice_resp.started,instr_practice.stopped,instr_practice_resp.keys,instr_practice_resp.rt,instr_practice_resp.duration,practice_run.started,stimulus_practice.started,respPractice.started,practice_run.stopped,trials_practice.respPractice.keys,trials_practice.respPractice.corr,trials_practice.respPractice.rt,trials_practice.respPractice.duration,feedback.started,textFeedback.started,textFeedback.stopped,feedback.stopped,instr_test.started,instr_test_text.started,instr_test_resp.started,instr_test.stopped,instr_test_resp.keys,instr_test_resp.rt,instr_test_resp.duration,test_run.started,stimulus_test_run.started,keyResp_test_run.started,test_run.stopped,trials_test.keyResp_test_run.keys,trials_test.keyResp_test_run.corr,trials_test.keyResp_test_run.rt,trials_test.keyResp_test_run.duration,goodbye.started,textGoodbye.started,textGoodbye.stopped,goodbye.stopped,participant,session,expName,frameRate,Unnamed: 113
,,,,,,,,,,,,,,,,,,,,,,,,,,,,,,,,,,,,,,,,,0.0060652000829577,0.0432923999615013,0.0432923999615013,0.0432923999615013,40.18668589997105,space,40.13115049991757,,,,,,,,,,,,,,,,,,,,,,,,,,,,,,,,,,,,,,,,,,,,,,,,,,,,,,,,,,,sub-163,1,stroop_test,119.93657761332636,
,,,,,,,,,,,,,,,,,,,,,,,,,,,,,,,,,,,,,,,,,,,,,,,,,40.18673299998045,40.19130209996365,40.19130209996365,45.65045480011031,space,5.458230700111017,,,,,,,,,,,,,,,,,,,,,,,,,,,,,,,,,,,,,,,,,,,,,,,,,,,,sub-163,1,stroop_test,119.93657761332636,
test,red,r,1.0,0.0,0.0,0.0,r,1.0,1.3141876000445336,,,,,,,,,,,,,,,,,,0.0,0.0,0.0,0.0,,,,,,,,,45.66042220010422,,,,,,,,,,,,,,,,,45.657233900157735,45.74903429998085,46.54221640015021,46.53282800014131,46.53812430007383,46.54221640015021,46.54221640015021,47.85786220012233,r,1.0,1.3141876000445336,,,,,,,,,,,,,,,,,,,,,,,,,,,,,,,,,,,,,,,,sub-163,1,stroop_test,119.93657761332636,
test,blue,b,1.0,1.0,1.0,0.0,b,1.0,0.8863209998235106,,,,,,,,,,,,,,,,,,0.0,1.0,1.0,2.0,,,,,,,,,47.86544040008448,,,,,,,,,,,,,,,,,47.858079500030726,47.948819500161335,48.74032600014471,48.73265910008922,48.73302170005627,48.74032600014471,48.74032600014471,49.63283000001684,b,1.0,0.8863209998235106,,,,,,,,,,,,,,,,,,,,,,,,,,,,,,,,,,,,,,,,sub-163,1,stroop_test,119.93657761332636,
test,yellow,g,1.0,2.0,2.0,0.0,g,1.0,0.9372598000336438,,,,,,,,,,,,,,,,,,0.0,2.0,2.0,1.0,,,,,,,,,49.64028000016697,,,,,,,,,,,,,,,,,49.63300779997371,49.73185820016079,50.52326410007663,50.51552759995684,50.51589950011112,50.52326410007663,50.52326410007663,51.46585000003688,g,1.0,0.9372598000336438,,,,,,,,,,,,,,,,,,,,,,,,,,,,,,,,,,,,,,,,sub-163,1,stroop_test,119.93657761332636,
test,red,r,1.0,3.0,0.0,1.0,r,1.0,0.6817997999023646,,,,,,,,,,,,,,,,,,1.0,0.0,3.0,0.0,,,,,,,,,51.473114600172266,,,,,,,,,,,,,,,,,51.46606740006246,52.26467159995809,53.05653559998609,53.04825450014323,53.04857820016332,53.05653559998609,53.05653559998609,53.74044300010428,r,1.0,0.6817997999023646,,,,,,,,,,,,,,,,,,,,,,,,,,,,,,,,,,,,,,,,sub-163,1,stroop_test,119.93657761332636,
test,blue,b,1.0,4.0,1.0,1.0,b,1.0,1.0626763000618666,,,,,,,,,,,,,,,,,,1.0,1.0,4.0,2.0,,,,,,,,,53.74786160001531,,,,,,,,,,,,,,,,,53.740659500006586,54.08964959997684,54.88095160014928,54.87309210002422,54.87343870010227,54.88095160014928,54.88095160014928,55.94832500000484,b,1.0,1.0626763000618666,,,,,,,,,,,,,,,,,,,,,,,,,,,,,,,,,,,,,,,,sub-163,1,stroop_test,119.93657761332636,
test,yellow,g,1.0,5.0,2.0,1.0,g,1.0,0.689085700083524,,,,,,,,,,,,,,,,,,1.0,2.0,5.0,1.0,,,,,,,,,55.955767000094056,,,,,,,,,,,,,,,,,55.94855249999091,57.14729240001179,57.93886730005033,57.93099370016717,57.93135440000333,57.93886730005033,57.93886730005033,58.63120330008678,g,1.0,0.689085700083524,,,,,,,,,,,,,,,,,,,,,,,,,,,,,,,,,,,,,,,,sub-163,1,stroop_test,119.93657761332636,
test,blue,b,1.0,6.0,0.0,2.0,b,1.0,0.5648437000345439,,,,,,,,,,,,,,,,,,2.0,0.0,6.0,2.0,,,,,,,,,58.63861550018191,,,,,,,,,,,,,,,,,58.63141979998909,58.72228920017369,59.51357539999299,59.50583890010603,59.506171700078994,59.51357539999299,59.51357539999299,60.08126480015926,b,1.0,0.5648437000345439,,,,,,,,,,,,,,,,,,,,,,,,,,,,,,,,,,,,,,,,sub-163,1,stroop_test,119.93657761332636,
test,yellow,g,1.0,7.0,1.0,2.0,g,1.0,0.6563843998592347,,,,,,,,,,,,,,,,,,2.0,1.0,7.0,1.0,,,,,,,,,60.08860560017638,,,,,,,,,,,,,,,,,60.0814970000647,60.18025340000168,60.97179580014199,60.9638958000578,60.96425239997916,60.97179580014199,60.97179580014199,61.63079790002666,g,1.0,0.6563843998592347,,,,,,,,,,,,,,,,,,,,,,,,,,,,,,,,,,,,,,,,sub-163,1,stroop_test,119.93657761332636,
test,red,r,1.0,8.0,2.0,2.0,r,1.0,0.4083847999572754,,,,,,,,,,,,,,,,,,2.0,2.0,8.0,0.0,,,,,,,,,61.63813430001028,,,,,,,,,,,,,,,,,61.6310193000827,62.82994040008634,63.62141120014712,63.61329880007543,63.61358530004509,63.62141120014712,63.62141120014712,64.03064480004832,r,1.0,0.4083847999572754,,,,,,,,,,,,,,,,,,,,,,,,,,,,,,,,,,,,,,,,sub-163,1,stroop_test,119.93657761332636,
test,yellow,g,1.0,9.0,0.0,3.0,g,1.0,0.7959366999566555,,,,,,,,,,,,,,,,,,3.0,0.0,9.0,1.0,,,,,,,,,64.0379474000074,,,,,,,,,,,,,,,,,64.03083520010114,64.82942840014584,65.62072490015998,65.61286260001361,65.61316270008683,65.62072490015998,65.62072490015998,66.42164449999109,g,1.0,0.7959366999566555,,,,,,,,,,,,,,,,,,,,,,,,,,,,,,,,,,,,,,,,sub-163,1,stroop_test,119.93657761332636,
test,red,r,1.0,10.0,1.0,3.0,r,1.0,1.1378619999159127,,,,,,,,,,,,,,,,,,3.0,1.0,10.0,0.0,,,,,,,,,66.42930860002525,,,,,,,,,,,,,,,,,66.42183020012453,67.61223560012877,68.40381070016883,68.39609610009938,68.39647020003758,68.40381070016883,68.40381070016883,69.54632950015366,r,1.0,1.1378619999159127,,,,,,,,,,,,,,,,,,,,,,,,,,,,,,,,,,,,,,,,sub-163,1,stroop_test,119.93657761332636,
test,blue,b,1.0,11.0,2.0,3.0,b,1.0,0.6761339001823217,,,,,,,,,,,,,,,,,,3.0,2.0,11.0,2.0,,,,,,,,,69.55361589998938,,,,,,,,,,,,,,,,,69.54656550008804,69.64529870008118,70.43704490014352,70.42940929997712,70.42969879996963,70.43704490014352,70.43704490014352,71.12080370006151,b,1.0,0.6761339001823217,,,,,,,,,,,,,,,,,,,,,,,,,,,,,,,,,,,,,,,,sub-163,1,stroop_test,119.93657761332636,
,,,,,,,,,,,,,,,,,,,,,,,,,,,,,,,,,,,,,,,,,,,,,,,,,,,,,,,,,,,,,,,,,,,,71.1208983999677,71.12861510016955,71.12861510016955,75.8371960001532,space,4.702918999828398,,,,,,,,,,,,,,,,,,,,,,,,,,,,,,,,,sub-163,1,stroop_test,119.93657761332636,
,,,,0.0,0.0,0.0,,,,,blau,yellow,g,0.0,g,1.0,0.8234035999048501,,,,,,,,,,,,,,0.0,0.0,0.0,7.0,,,,,75.84777760016732,,,,,,,,,,,,,,,,,75.84457610012032,76.18604760011658,76.98008300014772,76.96962460014038,,,,,,,,,,,,,,,,76.97586090001278,76.98008300014772,76.98008300014772,77.81165380007587,g,1.0,0.8234035999048501,,77.82023410010152,77.82420799997635,78.81893830001354,78.81107480009086,,,,,,,,,,,,,,,,,,,,sub-163,1,stroop_test,119.93657761332636,
,,,,1.0,1.0,0.0,,,,,gelb,blue,b,0.0,b,1.0,0.8785884000826627,,,,,,,,,,,,,,0.0,1.0,1.0,9.0,,,,,78.81893830001354,,,,,,,,,,,,,,,,,78.81129060010426,78.91044150013477,79.70211600000039,79.69419139996171,,,,,,,,,,,,,,,,79.69639070006087,79.70211600000039,79.70211600000039,80.58620729995891,b,1.0,0.8785884000826627,,80.58656830014661,80.59374459995888,81.58507609996013,81.57739480002783,,,,,,,,,,,,,,,,,,,,sub-163,1,stroop_test,119.93657761332636,
,,,,2.0,2.0,0.0,,,,,blau,blue,b,1.0,b,1.0,0.5199875000398606,,,,,,,,,,,,,,0.0,2.0,2.0,6.0,,,,,81.58507609996013,,,,,,,,,,,,,,,,,81.57761689997278,82.38479270017706,83.17662080004811,83.16869170009159,,,,,,,,,,,,,,,,83.17078449996188,83.17662080004811,83.17662080004811,83.702348300023,b,1.0,0.5199875000398606,,83.7027424001135,83.70969739998691,84.70137999998406,84.69352950016037,,,,,,,,,,,,,,,,,,,,sub-163,1,stroop_test,119.93657761332636,
,,,,3.0,3.0,0.0,,,,,rot,red,r,1.0,r,1.0,0.5674815999809653,,,,,,,,,,,,,,0.0,3.0,3.0,0.0,,,,,84.70137999998406,,,,,,,,,,,,,,,,,84.69376730010845,85.05109139997512,85.84264170005918,85.8349632001482,,,,,,,,,,,,,,,,85.83831840008497,85.84264170005918,85.84264170005918,86.41833630017936,r,1.0,0.5674815999809653,,86.41870549996383,86.42597440001555,87.41735909995623,87.40959449997172,,,,,,,,,,,,,,,,,,,,sub-163,1,stroop_test,119.93657761332636,
,,,,4.0,4.0,0.0,,,,,gelb,red,r,0.0,r,1.0,0.5655585001222789,,,,,,,,,,,,,,0.0,4.0,4.0,8.0,,,,,87.41735909995623,,,,,,,,,,,,,,,,,87.40981240011752,87.5172309000045,88.3089930000715,88.30120480014011,,,,,,,,,,,,,,,,88.30356859997846,88.3089930000715,88.3089930000715,88.87656550016254,r,1.0,0.5655585001222789,,88.87695430009626,88.8840477000922,89.87540110014379,89.86777040013112,,,,,,,,,,,,,,,,,,,,sub-163,1,stroop_test,119.93657761332636,
,,,,5.0,5.0,0.0,,,,,rot,red,r,1.0,r,1.0,0.49491549981758,,,,,,,,,,,,,,0.0,5.0,5.0,1.0,,,,,89.87540110014379,,,,,,,,,,,,,,,,,89.86799690010957,91.07529329997487,91.86667520017365,91.85875090002082,,,,,,,,,,,,,,,,91.86071890010498,91.86667520017365,91.86667520017365,92.36806540004908,r,1.0,0.49491549981758,,92.36871260008776,92.37508610007352,93.36637370008977,93.35880349995568,,,,,,,,,,,,,,,,,,,,sub-163,1,stroop_test,119.93657761332636,
,,,,6.0,6.0,0.0,,,,,gelb,yellow,g,1.0,g,1.0,0.5409454999025911,,,,,,,,,,,,,,0.0,6.0,6.0,10.0,,,,,93.36637370008977,,,,,,,,,,,,,,,,,93.35902810003608,93.4665137999691,94.25821180013008,94.25034500006586,,,,,,,,,,,,,,,,94.25207430007868,94.25821180013008,94.25821180013008,94.80045070010236,g,1.0,0.5409454999025911,,94.80075290007515,94.8079423001036,95.79932490014473,95.7917090000119,,,,,,,,,,,,,,,,,,,,sub-163,1,stroop_test,119.93657761332636,
,,,,7.0,7.0,0.0,,,,,blau,blue,b,1.0,b,1.0,0.8227323000319302,,,,,,,,,,,,,,0.0,7.0,7.0,5.0,,,,,95.79932490014473,,,,,,,,,,,,,,,,,95.79194170003755,96.99929070007056,97.7907647001557,97.78297540009952,,,,,,,,,,,,,,,,97.78496590000576,97.7907647001557,97.7907647001557,98.61655710008928,b,1.0,0.8227323000319302,,98.61691370001064,98.62390130013227,99.6155604000669,99.607551000081,,,,,,,,,,,,,,,,,,,,sub-163,1,stroop_test,119.93657761332636,
,,,,8.0,8.0,0.0,,,,,rot,yellow,g,0.0,g,1.0,1.2137629999779165,,,,,,,,,,,,,,0.0,8.0,8.0,3.0,,,,,99.6155604000669,,,,,,,,,,,,,,,,,99.60775840003043,99.71554200001992,100.50709079997614,100.49931470002048,,,,,,,,,,,,,,,,100.50164180016144,100.50709079997614,100.50709079997614,101.7243103000801,g,1.0,1.2137629999779165,,101.72466870001516,101.7319772001356,102.7233846001327,102.71565579995512,,,,,,,,,,,,,,,,,,,,sub-163,1,stroop_test,119.93657761332636,
,,,,9.0,9.0,0.0,,,,,blau,red,r,0.0,r,1.0,1.421292999992147,,,,,,,,,,,,,,0.0,9.0,9.0,4.0,,,,,102.7233846001327,,,,,,,,,,,,,,,,,102.71586890006438,103.52317670010962,104.314648500178,104.30704250000416,,,,,,,,,,,,,,,,104.3090378001798,104.314648500178,104.314648500178,105.74043510016054,r,1.0,1.421292999992147,,105.740779499989,105.7477990000043,106.73942630016244,106.73155510006472,,,,,,,,,,,,,,,,,,,,sub-163,1,stroop_test,119.93657761332636,
,,,,10.0,10.0,0.0,,,,,gelb,yellow,g,1.0,g,1.0,0.5963187001179904,,,,,,,,,,,,,,0.0,10.0,10.0,11.0,,,,,106.73942630016244,,,,,,,,,,,,,,,,,106.73176610004155,107.53923960006796,108.33081610011868,108.3229316000361,,,,,,,,,,,,,,,,108.3254291000776,108.33081610011868,108.33081610011868,108.93168970011176,g,1.0,0.5963187001179904,,108.93207080010323,108.9390498001594,109.93035500007682,109.92268680012783,,,,,,,,,,,,,,,,,,,,sub-163,1,stroop_test,119.93657761332636,
,,,,11.0,11.0,0.0,,,,,rot,blue,b,0.0,b,1.0,1.038098300108686,,,,,,,,,,,,,,0.0,11.0,11.0,2.0,,,,,109.93035500007682,,,,,,,,,,,,,,,,,109.92290240013972,110.28025469998828,111.07204250013456,111.06418890017083,,,,,,,,,,,,,,,,111.06662810011768,111.07204250013456,111.07204250013456,112.11434860015288,b,1.0,1.038098300108686,,112.1146991001442,112.12171790003777,113.11306040012278,113.10561840003356,,,,,,,,,,,,,,,,,,,,sub-163,1,stroop_test,119.93657761332636,
,,,,12.0,0.0,1.0,,,,,rot,red,r,1.0,r,1.0,0.5468898999970406,,,,,,,,,,,,,,1.0,0.0,12.0,0.0,,,,,113.11306040012278,,,,,,,,,,,,,,,,,113.10582739999518,113.91312010004184,114.7047959000338,114.69687020010316,,,,,,,,,,,,,,,,114.6971479000058,114.7047959000338,114.7047959000338,115.25528210005724,r,1.0,0.5468898999970406,,115.25559650012292,115.26300709997304,116.25450400006956,116.24651170009749,,,,,,,,,,,,,,,,,,,,sub-163,1,stroop_test,119.93657761332636,
,,,,13.0,1.0,1.0,,,,,gelb,red,r,0.0,r,1.0,1.0471818998921665,,,,,,,,,,,,,,1.0,1.0,13.0,8.0,,,,,116.25450400006956,,,,,,,,,,,,,,,,,116.24670680006966,116.34620829997584,117.13781179999933,117.12981680012308,,,,,,,,,,,,,,,,117.1322908999864,117.13781179999933,117.13781179999933,118.18830860010348,r,1.0,1.0471818998921665,,118.18870040006004,118.19599650008604,119.18739620014094,119.17943749995902,,,,,,,,,,,,,,,,,,,,sub-163,1,stroop_test,119.93657761332636,
,,,,14.0,2.0,1.0,,,,,gelb,yellow,g,1.0,g,1.0,0.5480287000536919,,,,,,,,,,,,,,1.0,2.0,14.0,11.0,,,,,119.18739620014094,,,,,,,,,,,,,,,,,119.17964500002564,119.53747870004736,120.3287355999928,120.32107740011998,,,,,,,,,,,,,,,,120.32144550001247,120.3287355999928,120.3287355999928,120.87959040002896,g,1.0,0.5480287000536919,,120.87997740018182,120.88703980017452,121.87873690016568,121.87069750018418,,,,,,,,,,,,,,,,,,,,sub-163,1,stroop_test,119.93657761332636,
,,,,15.0,3.0,1.0,,,,,gelb,blue,b,0.0,b,1.0,0.7677978000137955,,,,,,,,,,,,,,1.0,3.0,15.0,9.0,,,,,121.87873690016568,,,,,,,,,,,,,,,,,121.8708578001242,122.22867680015042,123.02014579996468,123.012276600115,,,,,,,,,,,,,,,,123.0125943000894,123.02014579996468,123.02014579996468,123.79567550006324,b,1.0,0.7677978000137955,,123.79602000000888,123.80339350015856,124.79487940017134,124.78701309999452,,,,,,,,,,,,,,,,,,,,sub-163,1,stroop_test,119.93657761332636,
,,,,16.0,4.0,1.0,,,,,blau,blue,b,1.0,b,1.0,0.4784953999333083,,,,,,,,,,,,,,1.0,4.0,16.0,5.0,,,,,124.79487940017134,,,,,,,,,,,,,,,,,124.78722180007026,125.59448230010456,126.38626980013214,126.37835300015286,,,,,,,,,,,,,,,,126.38052380015142,126.38626980013214,126.38626980013214,126.87061690003613,b,1.0,0.4784953999333083,,126.87102870014496,126.8777513001114,127.86913220002316,127.8614539001137,,,,,,,,,,,,,,,,,,,,sub-163,1,stroop_test,119.93657761332636,
,,,,17.0,5.0,1.0,,,,,blau,red,r,0.0,r,1.0,0.9155505001544952,,,,,,,,,,,,,,1.0,5.0,17.0,4.0,,,,,127.86913220002316,,,,,,,,,,,,,,,,,127.86166200018488,128.21924430015497,129.01090180012395,129.0028284001164,,,,,,,,,,,,,,,,129.00318170012906,129.01090180012395,129.01090180012395,129.9280515999999,r,1.0,0.9155505001544952,,129.9284296000842,129.9357172001619,130.9271836001426,130.9194438001141,,,,,,,,,,,,,,,,,,,,sub-163,1,stroop_test,119.93657761332636,
,,,,18.0,6.0,1.0,,,,,rot,yellow,g,0.0,g,1.0,0.7023688000626862,,,,,,,,,,,,,,1.0,6.0,18.0,3.0,,,,,130.9271836001426,,,,,,,,,,,,,,,,,130.91966720018536,131.72711910004728,132.51840230007656,132.51088010007516,,,,,,,,,,,,,,,,132.51331730000675,132.51840230007656,132.51840230007656,133.22749930014834,g,1.0,0.7023688000626862,,133.2278859000653,133.2352050000336,134.22660900000483,134.21888700011186,,,,,,,,,,,,,,,,,,,,sub-163,1,stroop_test,119.93657761332636,
,,,,19.0,7.0,1.0,,,,,blau,yellow,g,0.0,g,1.0,0.7742113000713289,,,,,,,,,,,,,,1.0,7.0,19.0,7.0,,,,,134.22660900000483,,,,,,,,,,,,,,,,,134.2191186000127,134.3265339001082,135.11807249998674,135.11038630013354,,,,,,,,,,,,,,,,135.11237090011127,135.11807249998674,135.11807249998674,135.89361759996973,g,1.0,0.7742113000713289,,135.89395910012536,135.90143060008995,136.89288510009646,136.88496290007606,,,,,,,,,,,,,,,,,,,,sub-163,1,stroop_test,119.93657761332636,
,,,,20.0,8.0,1.0,,,,,blau,blue,b,1.0,b,1.0,0.5501652001403272,,,,,,,,,,,,,,1.0,8.0,20.0,6.0,,,,,136.89288510009646,,,,,,,,,,,,,,,,,136.8851713000331,138.09276630007662,138.88431040011346,138.87625090009533,,,,,,,,,,,,,,,,138.87660890002735,138.88431040011346,138.88431040011346,139.43543489999138,b,1.0,0.5501652001403272,,139.4358276000712,139.44257579999976,140.4338362000417,140.42615690012462,,,,,,,,,,,,,,,,,,,,sub-163,1,stroop_test,119.93657761332636,
,,,,21.0,9.0,1.0,,,,,rot,red,r,1.0,g,0.0,0.5849816999398172,,,,,,,,,,,,,,1.0,9.0,21.0,1.0,,,,,140.4338362000417,,,,,,,,,,,,,,,,,140.42638780013658,140.53388480003923,141.325183799956,141.3175117999781,,,,,,,,,,,,,,,,141.3195186001249,141.325183799956,141.325183799956,141.9178244001232,g,0.0,0.5849816999398172,,141.92100480012596,141.9254561001435,142.91679430007937,142.9092127000913,,,,,,,,,,,,,,,,,,,,sub-163,1,stroop_test,119.93657761332636,
,,,,22.0,10.0,1.0,,,,,gelb,yellow,g,1.0,g,1.0,0.5573482001200318,,,,,,,,,,,,,,1.0,10.0,22.0,10.0,,,,,142.91679430007937,,,,,,,,,,,,,,,,,142.90944120008498,143.0084549000021,143.80008559999987,143.79221930005588,,,,,,,,,,,,,,,,143.79411660018377,143.80008559999987,143.80008559999987,144.35898610018194,g,1.0,0.5573482001200318,,144.36162020009942,144.3665216001682,145.35810770001262,145.35057440004312,,,,,,,,,,,,,,,,,,,,sub-163,1,stroop_test,119.93657761332636,
,,,,23.0,11.0,1.0,,,,,rot,blue,b,0.0,r,0.0,0.9709052999969572,,,,,,,,,,,,,,1.0,11.0,23.0,2.0,,,,,145.35810770001262,,,,,,,,,,,,,,,,,145.35073760012165,145.45805080002174,146.24971820018254,146.24170090002008,,,,,,,,,,,,,,,,146.24348100018688,146.24971820018254,146.24971820018254,147.22528440016322,r,0.0,0.9709052999969572,,147.2279444001615,147.2329472999554,148.22434530011378,148.2166331000626,,,,,,,,,,,,,,,,,,,,sub-163,1,stroop_test,119.93657761332636,
,,,,,,,,,,,,,,,,,,,,,,,,,,,,,,,,,,,,,,,,,,,,,,,,,,,,,,,,,,,,,,,,,,,,,,,,,,,,,,,,,,,,,,,148.21673440001905,148.22434530011378,148.22434530011378,150.51669099996798,space,2.285663200076669,,,,,,,,,,,,,,sub-163,1,stroop_test,119.93657761332636,
,,,,0.0,0.0,0.0,,,,,,,,,,,,,rot,red,r,1.0,r,1.0,0.6344516999088228,,,,,,,,,,0.0,0.0,0.0,0.0,150.5283673000522,,,,,,,,,,,,,,,,,150.52501350012608,150.61570150009356,151.40707190008834,151.39923009998165,,,,,,,,,,,,,,,,,,,,,,,,,,,,,,,,,,,151.40151640004478,151.40707190008834,151.40707190008834,152.04965550010093,r,1.0,0.6344516999088228,,,,,,sub-163,1,stroop_test,119.93657761332636,
,,,,1.0,1.0,0.0,,,,,,,,,,,,,gelb,blue,b,0.0,b,1.0,1.4594751000404358,,,,,,,,,,0.0,1.0,1.0,9.0,152.05694809998386,,,,,,,,,,,,,,,,,152.04991429997608,152.39861040003598,153.19024370005354,153.18240449996665,,,,,,,,,,,,,,,,,,,,,,,,,,,,,,,,,,,153.1847940001171,153.19024370005354,153.19024370005354,154.65750790014863,b,1.0,1.4594751000404358,,,,,,sub-163,1,stroop_test,119.93657761332636,
,,,,2.0,2.0,0.0,,,,,,,,,,,,,blau,blue,b,1.0,b,1.0,0.734322699951008,,,,,,,,,,0.0,2.0,2.0,6.0,154.66494100005366,,,,,,,,,,,,,,,,,154.65779430000111,155.45629800017923,156.24810059997253,156.2400243000593,,,,,,,,,,,,,,,,,,,,,,,,,,,,,,,,,,,156.24166970001534,156.24810059997253,156.24810059997253,156.99041800014675,b,1.0,0.734322699951008,,,,,,sub-163,1,stroop_test,119.93657761332636,
,,,,3.0,3.0,0.0,,,,,,,,,,,,,rot,blue,b,0.0,r,0.0,0.8703048001043499,,,,,,,,,,0.0,3.0,3.0,2.0,156.99776619998738,,,,,,,,,,,,,,,,,156.99064570013434,157.78106079995632,158.57256900006905,158.56486769998446,,,,,,,,,,,,,,,,,,,,,,,,,,,,,,,,,,,158.56730610015802,158.57256900006905,158.57256900006905,159.44849830004387,r,0.0,0.8703048001043499,,,,,,sub-163,1,stroop_test,119.93657761332636,
,,,,4.0,4.0,0.0,,,,,,,,,,,,,blau,yellow,g,0.0,g,1.0,1.3032060000114143,,,,,,,,,,0.0,4.0,4.0,7.0,159.45584800001234,,,,,,,,,,,,,,,,,159.448770100018,160.64740580017678,161.4390025001485,161.4309827000834,,,,,,,,,,,,,,,,,,,,,,,,,,,,,,,,,,,161.4330841000192,161.4390025001485,161.4390025001485,162.74788479995914,g,1.0,1.3032060000114143,,,,,,sub-163,1,stroop_test,119.93657761332636,
,,,,5.0,5.0,0.0,,,,,,,,,,,,,blau,red,r,0.0,r,1.0,0.7785420999862254,,,,,,,,,,0.0,5.0,5.0,4.0,162.755088099977,,,,,,,,,,,,,,,,,162.74814250017516,163.94669210002758,164.73826660006307,164.73055330011994,,,,,,,,,,,,,,,,,,,,,,,,,,,,,,,,,,,164.7309169000946,164.73826660006307,164.73826660006307,165.5225478000939,r,1.0,0.7785420999862254,,,,,,sub-163,1,stroop_test,119.93657761332636,
,,,,6.0,6.0,0.0,,,,,,,,,,,,,rot,yellow,g,0.0,g,1.0,0.7154113999567926,,,,,,,,,,0.0,6.0,6.0,3.0,165.52973580011167,,,,,,,,,,,,,,,,,165.52281480003148,165.62158940010704,166.41322860005312,166.4051041000057,,,,,,,,,,,,,,,,,,,,,,,,,,,,,,,,,,,166.40720050013624,166.41322860005312,166.41322860005312,167.13043899997135,g,1.0,0.7154113999567926,,,,,,sub-163,1,stroop_test,119.93657761332636,
,,,,7.0,7.0,0.0,,,,,,,,,,,,,rot,red,r,1.0,r,1.0,0.605702199973166,,,,,,,,,,0.0,7.0,7.0,1.0,167.13804360013455,,,,,,,,,,,,,,,,,167.13066880009137,167.47130450000986,168.26280100014992,168.25544740003534,,,,,,,,,,,,,,,,,,,,,,,,,,,,,,,,,,,168.2557883001864,168.26280100014992,168.26280100014992,168.87181110004894,r,1.0,0.605702199973166,,,,,,sub-163,1,stroop_test,119.93657761332636,
,,,,8.0,8.0,0.0,,,,,,,,,,,,,blau,blue,b,1.0,b,1.0,0.6518957000225782,,,,,,,,,,0.0,8.0,8.0,5.0,168.87944320007227,,,,,,,,,,,,,,,,,168.87204749998637,168.96259560016915,169.754336199956,169.74630190012977,,,,,,,,,,,,,,,,,,,,,,,,,,,,,,,,,,,169.7483328001108,169.754336199956,169.754336199956,170.41324490006082,b,1.0,0.6518957000225782,,,,,,sub-163,1,stroop_test,119.93657761332636,
,,,,9.0,9.0,0.0,,,,,,,,,,,,,gelb,red,r,0.0,r,1.0,0.5533230998553336,,,,,,,,,,0.0,9.0,9.0,8.0,170.42076670005918,,,,,,,,,,,,,,,,,170.41351730003953,171.6040195999667,172.39551900001243,172.38753590011038,,,,,,,,,,,,,,,,,,,,,,,,,,,,,,,,,,,172.38989320001565,172.39551900001243,172.39551900001243,172.9546197000891,r,1.0,0.5533230998553336,,,,,,sub-163,1,stroop_test,119.93657761332636,
,,,,10.0,10.0,0.0,,,,,,,,,,,,,gelb,yellow,g,1.0,g,1.0,0.7254003998823464,,,,,,,,,,0.0,10.0,10.0,10.0,172.96183599997312,,,,,,,,,,,,,,,,,172.95489020016976,174.1533839001786,174.94513050001115,174.93729680008255,,,,,,,,,,,,,,,,,,,,,,,,,,,,,,,,,,,174.93763340008445,174.94513050001115,174.94513050001115,175.67906700004824,g,1.0,0.7254003998823464,,,,,,sub-163,1,stroop_test,119.93657761332636,
,,,,11.0,11.0,0.0,,,,,,,,,,,,,gelb,yellow,g,1.0,g,1.0,0.5918531999923289,,,,,,,,,,0.0,11.0,11.0,11.0,175.68646010011437,,,,,,,,,,,,,,,,,175.6792764000129,175.7783298001159,176.56967460014857,176.5620258001145,,,,,,,,,,,,,,,,,,,,,,,,,,,,,,,,,,,176.56233870005235,176.56967460014857,176.56967460014857,177.1623472000938,g,1.0,0.5918531999923289,,,,,,sub-163,1,stroop_test,119.93657761332636,
,,,,12.0,0.0,1.0,,,,,,,,,,,,,gelb,red,r,0.0,r,1.0,0.4902254999615252,,,,,,,,,,1.0,0.0,12.0,8.0,177.1697874001693,,,,,,,,,,,,,,,,,177.16256069997326,177.26117400010116,178.05296010011807,178.04493960016407,,,,,,,,,,,,,,,,,,,,,,,,,,,,,,,,,,,178.0452908000443,178.05296010011807,178.05296010011807,178.54570440016687,r,1.0,0.4902254999615252,,,,,,sub-163,1,stroop_test,119.93657761332636,
,,,,13.0,1.0,1.0,,,,,,,,,,,,,gelb,blue,b,0.0,b,1.0,0.5761454999446869,,,,,,,,,,1.0,1.0,13.0,9.0,178.55280219996348,,,,,,,,,,,,,,,,,178.54589170007966,178.64440130000003,179.4358887001872,179.4281523001846,,,,,,,,,,,,,,,,,,,,,,,,,,,,,,,,,,,179.42848050012253,179.4358887001872,179.4358887001872,180.019959700061,b,1.0,0.5761454999446869,,,,,,sub-163,1,stroop_test,119.93657761332636,
,,,,14.0,2.0,1.0,,,,,,,,,,,,,blau,blue,b,1.0,b,1.0,0.7728767998050898,,,,,,,,,,1.0,2.0,14.0,6.0,180.0273086000234,,,,,,,,,,,,,,,,,180.02020200015977,181.210617700126,182.00229870015755,181.99433970008977,,,,,,,,,,,,,,,,,,,,,,,,,,,,,,,,,,,181.99656680016776,182.00229870015755,182.00229870015755,182.7780796000734,b,1.0,0.7728767998050898,,,,,,sub-163,1,stroop_test,119.93657761332636,
,,,,15.0,3.0,1.0,,,,,,,,,,,,,blau,yellow,g,0.0,g,1.0,0.9289369001053274,,,,,,,,,,1.0,3.0,15.0,7.0,182.78543339995667,,,,,,,,,,,,,,,,,182.7782931001857,183.1270701000467,183.9187090001069,183.91073570004664,,,,,,,,,,,,,,,,,,,,,,,,,,,,,,,,,,,183.91124480008148,183.9187090001069,183.9187090001069,184.85234790015969,g,1.0,0.9289369001053274,,,,,,sub-163,1,stroop_test,119.93657761332636,
,,,,16.0,4.0,1.0,,,,,,,,,,,,,rot,blue,b,0.0,b,1.0,0.983760599978268,,,,,,,,,,1.0,4.0,16.0,2.0,184.8602332000155,,,,,,,,,,,,,,,,,184.85255640000105,184.9434021001216,185.7346634999849,185.72710290015675,,,,,,,,,,,,,,,,,,,,,,,,,,,,,,,,,,,185.7295264999848,185.7346634999849,185.7346634999849,186.7193108999636,b,1.0,0.983760599978268,,,,,,sub-163,1,stroop_test,119.93657761332636,
,,,,17.0,5.0,1.0,,,,,,,,,,,,,rot,red,r,1.0,r,1.0,0.5202317999210209,,,,,,,,,,1.0,5.0,17.0,1.0,186.72654930013232,,,,,,,,,,,,,,,,,186.71953800017943,187.51800160016865,188.3094089999795,188.30152760003693,,,,,,,,,,,,,,,,,,,,,,,,,,,,,,,,,,,188.30201059998944,188.3094089999795,188.3094089999795,188.83528390014544,r,1.0,0.5202317999210209,,,,,,sub-163,1,stroop_test,119.93657761332636,
,,,,18.0,6.0,1.0,,,,,,,,,,,,,gelb,yellow,g,1.0,g,1.0,0.6920163000468165,,,,,,,,,,1.0,6.0,18.0,11.0,188.84283119998872,,,,,,,,,,,,,,,,,188.83549620001577,189.63416550005783,190.4257980000693,190.41788269998503,,,,,,,,,,,,,,,,,,,,,,,,,,,,,,,,,,,190.420630000066,190.4257980000693,190.4257980000693,191.12659570015967,g,1.0,0.6920163000468165,,,,,,sub-163,1,stroop_test,119.93657761332636,
,,,,19.0,7.0,1.0,,,,,,,,,,,,,rot,yellow,g,0.0,g,1.0,0.6410473000723869,,,,,,,,,,1.0,7.0,19.0,3.0,191.13402270013464,,,,,,,,,,,,,,,,,191.12682440015487,191.2257962001022,192.01731370016927,192.00927920010872,,,,,,,,,,,,,,,,,,,,,,,,,,,,,,,,,,,192.01118310005404,192.01731370016927,192.01731370016927,192.65978570003065,g,1.0,0.6410473000723869,,,,,,sub-163,1,stroop_test,119.93657761332636,
,,,,20.0,8.0,1.0,,,,,,,,,,,,,rot,red,r,1.0,r,1.0,0.5306105001363903,,,,,,,,,,1.0,8.0,20.0,0.0,192.66702990001068,,,,,,,,,,,,,,,,,192.6600437001325,193.85854320018552,194.6502773000393,194.6424112999812,,,,,,,,,,,,,,,,,,,,,,,,,,,,,,,,,,,194.64274720009416,194.6502773000393,194.6502773000393,195.1841969001107,r,1.0,0.5306105001363903,,,,,,sub-163,1,stroop_test,119.93657761332636,
,,,,21.0,9.0,1.0,,,,,,,,,,,,,blau,blue,b,1.0,b,1.0,0.6246365001425147,,,,,,,,,,1.0,9.0,21.0,5.0,195.19183330005035,,,,,,,,,,,,,,,,,195.18444099999036,196.38318979996257,197.17493400000967,197.16699369996783,,,,,,,,,,,,,,,,,,,,,,,,,,,,,,,,,,,197.16916309995577,197.17493400000967,197.17493400000967,197.8005807001609,b,1.0,0.6246365001425147,,,,,,sub-163,1,stroop_test,119.93657761332636,
,,,,22.0,10.0,1.0,,,,,,,,,,,,,gelb,yellow,g,1.0,g,1.0,1.0068818000145257,,,,,,,,,,1.0,10.0,22.0,10.0,197.8080295000691,,,,,,,,,,,,,,,,,197.8008366001304,198.14978350000456,198.94113730010577,198.9334160001017,,,,,,,,,,,,,,,,,,,,,,,,,,,,,,,,,,,198.93580810003917,198.94113730010577,198.94113730010577,199.95032189995985,g,1.0,1.0068818000145257,,,,,,sub-163,1,stroop_test,119.93657761332636,
,,,,23.0,11.0,1.0,,,,,,,,,,,,,blau,red,r,0.0,r,1.0,1.2573027000762522,,,,,,,,,,1.0,11.0,23.0,4.0,199.9576336001046,,,,,,,,,,,,,,,,,199.9505458001513,200.0411123000085,200.83258419996127,200.82466260017827,,,,,,,,,,,,,,,,,,,,,,,,,,,,,,,,,,,200.82677399995737,200.83258419996127,200.83258419996127,202.09142720000816,r,1.0,1.2573027000762522,,,,,,sub-163,1,stroop_test,119.93657761332636,
,,,,24.0,0.0,2.0,,,,,,,,,,,,,rot,yellow,g,0.0,g,1.0,1.5209513001609594,,,,,,,,,,2.0,0.0,24.0,3.0,202.0987991001457,,,,,,,,,,,,,,,,,202.09169460018165,202.182333300123,202.97401630016972,202.9661201001145,,,,,,,,,,,,,,,,,,,,,,,,,,,,,,,,,,,202.96854500006884,202.97401630016972,202.97401630016972,204.49959400016812,g,1.0,1.5209513001609594,,,,,,sub-163,1,stroop_test,119.93657761332636,
,,,,25.0,1.0,2.0,,,,,,,,,,,,,blau,blue,b,1.0,b,1.0,0.7043965000193566,,,,,,,,,,2.0,1.0,25.0,6.0,204.50701229996048,,,,,,,,,,,,,,,,,204.49980880017392,204.84866799996237,205.640209000092,205.63231980009004,,,,,,,,,,,,,,,,,,,,,,,,,,,,,,,,,,,205.6346071001608,205.640209000092,205.640209000092,206.34925239998847,b,1.0,0.7043965000193566,,,,,,sub-163,1,stroop_test,119.93657761332636,
,,,,26.0,2.0,2.0,,,,,,,,,,,,,gelb,yellow,g,1.0,g,1.0,1.0730292999651283,,,,,,,,,,2.0,2.0,26.0,10.0,206.3567040001508,,,,,,,,,,,,,,,,,206.34947450016625,206.44823030009863,207.23977600014769,207.23205750016496,,,,,,,,,,,,,,,,,,,,,,,,,,,,,,,,,,,207.2346408001613,207.23977600014769,207.23977600014769,208.31539560016245,g,1.0,1.0730292999651283,,,,,,sub-163,1,stroop_test,119.93657761332636,
,,,,27.0,3.0,2.0,,,,,,,,,,,,,gelb,yellow,g,1.0,g,1.0,0.4699891998898238,,,,,,,,,,2.0,3.0,27.0,11.0,208.32289519999176,,,,,,,,,,,,,,,,,208.3155975001864,209.11434240010567,209.90609330008735,209.89806820009835,,,,,,,,,,,,,,,,,,,,,,,,,,,,,,,,,,,209.8983452001121,209.90609330008735,209.90609330008735,210.38206710014487,g,1.0,0.4699891998898238,,,,,,sub-163,1,stroop_test,119.93657761332636,
,,,,28.0,4.0,2.0,,,,,,,,,,,,,rot,blue,b,0.0,b,1.0,0.5777245999779552,,,,,,,,,,2.0,4.0,28.0,2.0,210.3893466000445,,,,,,,,,,,,,,,,,210.3823455001693,211.1808299999684,211.9724489001092,211.96444980008528,,,,,,,,,,,,,,,,,,,,,,,,,,,,,,,,,,,211.96668269997463,211.9724489001092,211.9724489001092,212.5566456001252,b,1.0,0.5777245999779552,,,,,,sub-163,1,stroop_test,119.93657761332636,
,,,,29.0,5.0,2.0,,,,,,,,,,,,,gelb,blue,b,0.0,b,1.0,0.6273164998274297,,,,,,,,,,2.0,5.0,29.0,9.0,212.5637044000905,,,,,,,,,,,,,,,,,212.556891300017,212.9055039000232,213.697263300186,213.6893758000806,,,,,,,,,,,,,,,,,,,,,,,,,,,,,,,,,,,213.69157900009304,213.697263300186,213.697263300186,214.3312060001772,b,1.0,0.6273164998274297,,,,,,sub-163,1,stroop_test,119.93657761332636,
,,,,30.0,6.0,2.0,,,,,,,,,,,,,rot,red,r,1.0,r,1.0,0.5207964000292122,,,,,,,,,,2.0,6.0,30.0,1.0,214.33860300015655,,,,,,,,,,,,,,,,,214.3314188001677,215.1302430999931,215.9217334999703,215.9137081000954,,,,,,,,,,,,,,,,,,,,,,,,,,,,,,,,,,,215.9161855999846,215.9217334999703,215.9217334999703,216.4474933000747,r,1.0,0.5207964000292122,,,,,,sub-163,1,stroop_test,119.93657761332636,
,,,,31.0,7.0,2.0,,,,,,,,,,,,,blau,yellow,g,0.0,g,1.0,0.9814643999561669,,,,,,,,,,2.0,7.0,31.0,7.0,216.45497280010025,,,,,,,,,,,,,,,,,216.4476950999815,217.23812360013835,218.0299388000276,218.0217989999801,,,,,,,,,,,,,,,,,,,,,,,,,,,,,,,,,,,218.0233758999966,218.0299388000276,218.0299388000276,219.0135801001452,g,1.0,0.9814643999561669,,,,,,sub-163,1,stroop_test,119.93657761332636,
,,,,32.0,8.0,2.0,,,,,,,,,,,,,gelb,red,r,0.0,r,1.0,0.5575959000270814,,,,,,,,,,2.0,8.0,32.0,8.0,219.02124440018088,,,,,,,,,,,,,,,,,219.01382340001877,219.35445360001177,220.14610960008577,220.1382657000795,,,,,,,,,,,,,,,,,,,,,,,,,,,,,,,,,,,220.14102280000225,220.14610960008577,220.14610960008577,220.70513400016355,r,1.0,0.5575959000270814,,,,,,sub-163,1,stroop_test,119.93657761332636,
,,,,33.0,9.0,2.0,,,,,,,,,,,,,rot,red,r,1.0,r,1.0,0.5594759001396596,,,,,,,,,,2.0,9.0,33.0,0.0,220.7124793000985,,,,,,,,,,,,,,,,,220.70538930012845,221.50403890013692,222.2956714001484,222.28769679996185,,,,,,,,,,,,,,,,,,,,,,,,,,,,,,,,,,,222.2896832001861,222.2956714001484,222.2956714001484,222.86300410004333,r,1.0,0.5594759001396596,,,,,,sub-163,1,stroop_test,119.93657761332636,
,,,,34.0,10.0,2.0,,,,,,,,,,,,,blau,blue,b,1.0,b,1.0,0.6640778000000864,,,,,,,,,,2.0,10.0,34.0,5.0,222.87056020018645,,,,,,,,,,,,,,,,,222.86324510001575,222.9538585001137,223.74547370010987,223.73752150009383,,,,,,,,,,,,,,,,,,,,,,,,,,,,,,,,,,,223.7393255000934,223.74547370010987,223.74547370010987,224.4128249001224,b,1.0,0.6640778000000864,,,,,,sub-163,1,stroop_test,119.93657761332636,
,,,,35.0,11.0,2.0,,,,,,,,,,,,,blau,red,r,0.0,r,1.0,0.9751056998502464,,,,,,,,,,2.0,11.0,35.0,4.0,224.42043219995685,,,,,,,,,,,,,,,,,224.4130508999806,224.75366190006025,225.54497110005468,225.53739539999515,,,,,,,,,,,,,,,,,,,,,,,,,,,,,,,,,,,225.5377615999896,225.54497110005468,225.54497110005468,226.5211664000526,r,1.0,0.9751056998502464,,,,,,sub-163,1,stroop_test,119.93657761332636,
,,,,36.0,0.0,3.0,,,,,,,,,,,,,gelb,red,r,0.0,r,1.0,1.332117700017989,,,,,,,,,,3.0,0.0,36.0,8.0,226.5281989001669,,,,,,,,,,,,,,,,,226.52143439999784,227.71993719995956,228.511530000018,228.5035131999757,,,,,,,,,,,,,,,,,,,,,,,,,,,,,,,,,,,228.50608130008916,228.511530000018,228.511530000018,229.84534650016576,r,1.0,1.332117700017989,,,,,,sub-163,1,stroop_test,119.93657761332636,
,,,,37.0,1.0,3.0,,,,,,,,,,,,,blau,blue,b,1.0,b,1.0,0.5517466000746936,,,,,,,,,,3.0,1.0,37.0,6.0,229.85287329996936,,,,,,,,,,,,,,,,,229.84559620008804,230.1945495000109,230.9859127001837,230.97819410008375,,,,,,,,,,,,,,,,,,,,,,,,,,,,,,,,,,,230.98015630012375,230.9859127001837,230.9859127001837,231.5452110001352,b,1.0,0.5517466000746936,,,,,,sub-163,1,stroop_test,119.93657761332636,
,,,,38.0,2.0,3.0,,,,,,,,,,,,,blau,yellow,g,0.0,g,1.0,1.2704856998752805,,,,,,,,,,3.0,2.0,38.0,7.0,231.55241240002212,,,,,,,,,,,,,,,,,231.54545260011216,232.7439201001544,233.5357056001667,233.52776640001684,,,,,,,,,,,,,,,,,,,,,,,,,,,,,,,,,,,233.52810350013897,233.5357056001667,233.5357056001667,234.81112610013224,g,1.0,1.2704856998752805,,,,,,sub-163,1,stroop_test,119.93657761332636,
,,,,39.0,3.0,3.0,,,,,,,,,,,,,rot,yellow,g,0.0,r,0.0,0.8742354998830706,,,,,,,,,,3.0,3.0,39.0,3.0,234.81882419995964,,,,,,,,,,,,,,,,,234.81135970004837,236.01023730007,236.80176219996065,236.79375030007213,,,,,,,,,,,,,,,,,,,,,,,,,,,,,,,,,,,236.7962091001682,236.80176219996065,236.80176219996065,237.67730710003525,r,0.0,0.8742354998830706,,,,,,sub-163,1,stroop_test,119.93657761332636,
,,,,40.0,4.0,3.0,,,,,,,,,,,,,gelb,blue,b,0.0,b,1.0,1.2492052998859435,,,,,,,,,,3.0,4.0,40.0,9.0,237.6850183999632,,,,,,,,,,,,,,,,,237.6775365001522,238.01819720002825,238.8097185001243,238.802221900085,,,,,,,,,,,,,,,,,,,,,,,,,,,,,,,,,,,238.8042637000326,238.8097185001243,238.8097185001243,240.0603026000317,b,1.0,1.2492052998859435,,,,,,sub-163,1,stroop_test,119.93657761332636,
,,,,41.0,5.0,3.0,,,,,,,,,,,,,rot,blue,b,0.0,b,1.0,1.2273655000608414,,,,,,,,,,3.0,5.0,41.0,2.0,240.06786870001812,,,,,,,,,,,,,,,,,240.06054420000876,240.40109469997697,241.1925772000104,241.1846276000142,,,,,,,,,,,,,,,,,,,,,,,,,,,,,,,,,,,241.186558800051,241.1925772000104,241.1925772000104,242.4265539001208,b,1.0,1.2273655000608414,,,,,,sub-163,1,stroop_test,119.93657761332636,
,,,,42.0,6.0,3.0,,,,,,,,,,,,,rot,red,r,1.0,r,1.0,0.5570334000512958,,,,,,,,,,3.0,6.0,42.0,1.0,242.43423889996484,,,,,,,,,,,,,,,,,242.42680030013435,243.22562280017883,244.01711670006625,244.0093517000787,,,,,,,,,,,,,,,,,,,,,,,,,,,,,,,,,,,244.0096867000684,244.01711670006625,244.01711670006625,244.57635670015588,r,1.0,0.5570334000512958,,,,,,sub-163,1,stroop_test,119.93657761332636,
,,,,43.0,7.0,3.0,,,,,,,,,,,,,gelb,yellow,g,1.0,g,1.0,0.4908920000307262,,,,,,,,,,3.0,7.0,43.0,11.0,244.5837391000241,,,,,,,,,,,,,,,,,244.57656370010227,244.92535480018705,245.7172875001561,245.70891180005856,,,,,,,,,,,,,,,,,,,,,,,,,,,,,,,,,,,245.71108609996736,245.7172875001561,245.7172875001561,246.20945880003276,g,1.0,0.4908920000307262,,,,,,sub-163,1,stroop_test,119.93657761332636,
,,,,44.0,8.0,3.0,,,,,,,,,,,,,blau,red,r,0.0,r,1.0,0.949276000028476,,,,,,,,,,3.0,8.0,44.0,4.0,246.2168348999694,,,,,,,,,,,,,,,,,246.20967690018009,247.40837180009112,248.1999223001767,248.1923196001444,,,,,,,,,,,,,,,,,,,,,,,,,,,,,,,,,,,248.19386750017293,248.1999223001767,248.1999223001767,249.15062620001845,r,1.0,0.949276000028476,,,,,,sub-163,1,stroop_test,119.93657761332636,
,,,,45.0,9.0,3.0,,,,,,,,,,,,,rot,red,r,1.0,r,1.0,0.4858685999643057,,,,,,,,,,3.0,9.0,45.0,0.0,249.15809070016255,,,,,,,,,,,,,,,,,249.15086730010808,249.24123560008596,250.0330285001546,250.02494619996287,,,,,,,,,,,,,,,,,,,,,,,,,,,,,,,,,,,250.0267523000948,250.0330285001546,250.0330285001546,250.52545020007528,r,1.0,0.4858685999643057,,,,,,sub-163,1,stroop_test,119.93657761332636,
,,,,46.0,10.0,3.0,,,,,,,,,,,,,gelb,yellow,g,1.0,g,1.0,0.5789681000169367,,,,,,,,,,3.0,10.0,46.0,10.0,250.5327662001364,,,,,,,,,,,,,,,,,250.52570340014063,250.87433130014688,251.66608200012703,251.6581884000916,,,,,,,,,,,,,,,,,,,,,,,,,,,,,,,,,,,251.66068290011023,251.66608200012703,251.66608200012703,252.25000190013088,g,1.0,0.5789681000169367,,,,,,sub-163,1,stroop_test,119.93657761332636,
,,,,47.0,11.0,3.0,,,,,,,,,,,,,blau,blue,b,1.0,b,1.0,0.5909421998076141,,,,,,,,,,3.0,11.0,47.0,5.0,252.25734310015105,,,,,,,,,,,,,,,,,252.2502479001414,253.04901239997707,253.84077140013687,253.83285310002972,,,,,,,,,,,,,,,,,,,,,,,,,,,,,,,,,,,253.8353262001183,253.84077140013687,253.84077140013687,254.4331448001321,b,1.0,0.5909421998076141,,,,,,sub-163,1,stroop_test,119.93657761332636,
,,,,48.0,0.0,4.0,,,,,,,,,,,,,gelb,blue,b,0.0,b,1.0,0.5212810998782516,,,,,,,,,,4.0,0.0,48.0,9.0,254.440378600033,,,,,,,,,,,,,,,,,254.43341569998304,254.78208330017517,255.57379249995572,255.565941600129,,,,,,,,,,,,,,,,,,,,,,,,,,,,,,,,,,,255.56756780017167,255.57379249995572,255.57379249995572,256.09961130004376,b,1.0,0.5212810998782516,,,,,,sub-163,1,stroop_test,119.93657761332636,
,,,,49.0,1.0,4.0,,,,,,,,,,,,,blau,blue,b,1.0,b,1.0,0.4558981999289244,,,,,,,,,,4.0,1.0,49.0,5.0,256.10701020015404,,,,,,,,,,,,,,,,,256.09986099996604,257.2987886001356,258.0899875999894,258.08216930017807,,,,,,,,,,,,,,,,,,,,,,,,,,,,,,,,,,,258.0841645000037,258.0899875999894,258.0899875999894,258.54897140013054,b,1.0,0.4558981999289244,,,,,,sub-163,1,stroop_test,119.93657761332636,
,,,,50.0,2.0,4.0,,,,,,,,,,,,,gelb,yellow,g,1.0,g,1.0,0.5594172000419348,,,,,,,,,,4.0,2.0,50.0,11.0,258.5566287001129,,,,,,,,,,,,,,,,,258.5492134999949,258.8898528001737,259.68126720003784,259.6736060001422,,,,,,,,,,,,,,,,,,,,,,,,,,,,,,,,,,,259.67581530008465,259.68126720003784,259.68126720003784,260.2488935000729,g,1.0,0.5594172000419348,,,,,,sub-163,1,stroop_test,119.93657761332636,
,,,,51.0,3.0,4.0,,,,,,,,,,,,,rot,yellow,g,0.0,g,1.0,0.3575412000063807,,,,,,,,,,4.0,3.0,51.0,3.0,260.2560704001225,,,,,,,,,,,,,,,,,260.2491445001215,261.0478732001502,261.8392322000582,261.8314911001362,,,,,,,,,,,,,,,,,,,,,,,,,,,,,,,,,,,261.8337057000026,261.8392322000582,261.8392322000582,262.19838860002346,g,1.0,0.3575412000063807,,,,,,sub-163,1,stroop_test,119.93657761332636,
,,,,52.0,4.0,4.0,,,,,,,,,,,,,gelb,red,r,0.0,r,1.0,0.5169591000303626,,,,,,,,,,4.0,4.0,52.0,8.0,262.2060088000726,,,,,,,,,,,,,,,,,262.198628900107,262.9974650000222,263.7888954000082,263.7811420999933,,,,,,,,,,,,,,,,,,,,,,,,,,,,,,,,,,,263.78350260015577,263.7888954000082,263.7888954000082,264.3068060001824,r,1.0,0.5169591000303626,,,,,,sub-163,1,stroop_test,119.93657761332636,
,,,,53.0,5.0,4.0,,,,,,,,,,,,,blau,red,r,0.0,r,1.0,0.4024894998874515,,,,,,,,,,4.0,5.0,53.0,4.0,264.3138974001631,,,,,,,,,,,,,,,,,264.3070729000028,265.5053743000608,266.2969146000687,266.2889658000786,,,,,,,,,,,,,,,,,,,,,,,,,,,,,,,,,,,266.29096839996055,266.2969146000687,266.2969146000687,266.7059369001072,r,1.0,0.4024894998874515,,,,,,sub-163,1,stroop_test,119.93657761332636,
,,,,54.0,6.0,4.0,,,,,,,,,,,,,blau,blue,b,1.0,b,1.0,0.4710232000797987,,,,,,,,,,4.0,6.0,54.0,6.0,266.7133289000485,,,,,,,,,,,,,,,,,266.7061452001799,267.0468057000544,267.8385122001637,267.8303725000005,,,,,,,,,,,,,,,,,,,,,,,,,,,,,,,,,,,267.8306885000784,267.8385122001637,267.8385122001637,268.31435650005005,b,1.0,0.4710232000797987,,,,,,sub-163,1,stroop_test,119.93657761332636,
,,,,55.0,7.0,4.0,,,,,,,,,,,,,blau,yellow,g,0.0,g,1.0,1.1244283998385072,,,,,,,,,,4.0,7.0,55.0,7.0,268.3215743000619,,,,,,,,,,,,,,,,,268.31459710001945,269.5131451000925,270.3047802001238,270.2969776000828,,,,,,,,,,,,,,,,,,,,,,,,,,,,,,,,,,,270.2973279999569,270.3047802001238,270.3047802001238,271.43041520006955,g,1.0,1.1244283998385072,,,,,,sub-163,1,stroop_test,119.93657761332636,
,,,,56.0,8.0,4.0,,,,,,,,,,,,,rot,blue,b,0.0,b,1.0,0.6225135999266058,,,,,,,,,,4.0,8.0,56.0,2.0,271.4377367000561,,,,,,,,,,,,,,,,,271.43067910009995,271.7709794000257,272.5626589001622,272.5547623001039,,,,,,,,,,,,,,,,,,,,,,,,,,,,,,,,,,,272.556953500025,272.5626589001622,272.5626589001622,273.1882812001277,b,1.0,0.6225135999266058,,,,,,sub-163,1,stroop_test,119.93657761332636,
,,,,57.0,9.0,4.0,,,,,,,,,,,,,gelb,yellow,g,1.0,g,1.0,0.4429631000384688,,,,,,,,,,4.0,9.0,57.0,10.0,273.19587230007164,,,,,,,,,,,,,,,,,273.1885204999708,273.27921529999,274.0706893999595,274.06294980016537,,,,,,,,,,,,,,,,,,,,,,,,,,,,,,,,,,,274.0654114000499,274.0706893999595,274.0706893999595,274.5213739001192,g,1.0,0.4429631000384688,,,,,,sub-163,1,stroop_test,119.93657761332636,
,,,,58.0,10.0,4.0,,,,,,,,,,,,,rot,red,r,1.0,r,1.0,0.6574162000324577,,,,,,,,,,4.0,10.0,58.0,0.0,274.52900410001166,,,,,,,,,,,,,,,,,274.5216288000811,274.8621165000368,275.6537574001122,275.645963100018,,,,,,,,,,,,,,,,,,,,,,,,,,,,,,,,,,,275.64772510016337,275.6537574001122,275.6537574001122,276.3126940999646,r,1.0,0.6574162000324577,,,,,,sub-163,1,stroop_test,119.93657761332636,
,,,,59.0,11.0,4.0,,,,,,,,,,,,,rot,red,r,1.0,r,1.0,0.4642747999168932,,,,,,,,,,4.0,11.0,59.0,1.0,276.3202222001273,,,,,,,,,,,,,,,,,276.3129257000983,277.5117952001747,278.30316140013747,278.2954883000348,,,,,,,,,,,,,,,,,,,,,,,,,,,,,,,,,,,278.295862399973,278.30316140013747,278.30316140013747,278.7706363000907,r,1.0,0.4642747999168932,,,,,,sub-163,1,stroop_test,119.93657761332636,
,,,,60.0,0.0,5.0,,,,,,,,,,,,,rot,blue,b,0.0,b,1.0,2.0596620000433177,,,,,,,,,,5.0,0.0,60.0,2.0,278.7781263999641,,,,,,,,,,,,,,,,,278.7708654000889,278.8615678001661,279.6531176001299,279.6454156001564,,,,,,,,,,,,,,,,,,,,,,,,,,,,,,,,,,,279.64573840005323,279.6531176001299,279.6531176001299,281.72037100000307,b,1.0,2.0596620000433177,,,,,,sub-163,1,stroop_test,119.93657761332636,
,,,,61.0,1.0,5.0,,,,,,,,,,,,,gelb,red,r,0.0,r,1.0,0.7009588000364602,,,,,,,,,,5.0,1.0,61.0,8.0,281.72763530001976,,,,,,,,,,,,,,,,,281.7206119000912,282.91930570011027,283.7108770001214,283.70302610006183,,,,,,,,,,,,,,,,,,,,,,,,,,,,,,,,,,,283.70535080018453,283.7108770001214,283.7108770001214,284.4200252001174,r,1.0,0.7009588000364602,,,,,,sub-163,1,stroop_test,119.93657761332636,
,,,,62.0,2.0,5.0,,,,,,,,,,,,,blau,yellow,g,0.0,g,1.0,0.5598129001446068,,,,,,,,,,5.0,2.0,62.0,7.0,284.42741630016826,,,,,,,,,,,,,,,,,284.4203519001603,284.5190821001306,285.3106530001387,285.30259820003994,,,,,,,,,,,,,,,,,,,,,,,,,,,,,,,,,,,285.30505920015275,285.3106530001387,285.3106530001387,285.8781638999935,g,1.0,0.5598129001446068,,,,,,sub-163,1,stroop_test,119.93657761332636,
,,,,63.0,3.0,5.0,,,,,,,,,,,,,rot,yellow,g,0.0,g,1.0,0.4629235998727381,,,,,,,,,,5.0,3.0,63.0,3.0,285.8855367000215,,,,,,,,,,,,,,,,,285.8784207000863,287.07689570006914,287.8683550001588,287.8607440001797,,,,,,,,,,,,,,,,,,,,,,,,,,,,,,,,,,,287.8630874999799,287.8683550001588,287.8683550001588,288.3360224000644,g,1.0,0.4629235998727381,,,,,,sub-163,1,stroop_test,119.93657761332636,
,,,,64.0,4.0,5.0,,,,,,,,,,,,,blau,red,r,0.0,r,1.0,0.6679473998956382,,,,,,,,,,5.0,4.0,64.0,4.0,288.343214499997,,,,,,,,,,,,,,,,,288.3362790001556,289.53489070013165,290.3264193001669,290.31861199997365,,,,,,,,,,,,,,,,,,,,,,,,,,,,,,,,,,,290.32065600017086,290.3264193001669,290.3264193001669,291.0022293000948,r,1.0,0.6679473998956382,,,,,,sub-163,1,stroop_test,119.93657761332636,
,,,,65.0,5.0,5.0,,,,,,,,,,,,,rot,red,r,1.0,r,1.0,0.4761189001146704,,,,,,,,,,5.0,5.0,65.0,0.0,291.0097340999637,,,,,,,,,,,,,,,,,291.0024644001387,291.3511224000249,292.1427081001457,292.1350971001666,,,,,,,,,,,,,,,,,,,,,,,,,,,,,,,,,,,292.1372420999687,292.1427081001457,292.1427081001457,292.62681970000267,r,1.0,0.4761189001146704,,,,,,sub-163,1,stroop_test,119.93657761332636,
,,,,66.0,6.0,5.0,,,,,,,,,,,,,gelb,blue,b,0.0,g,0.0,0.8230024999938905,,,,,,,,,,5.0,6.0,66.0,9.0,292.63443620014004,,,,,,,,,,,,,,,,,292.62706530001014,292.96752639999613,293.75909700011835,293.75148730003275,,,,,,,,,,,,,,,,,,,,,,,,,,,,,,,,,,,293.7538124001585,293.75909700011835,293.75909700011835,294.5849256000947,g,0.0,0.8230024999938905,,,,,,sub-163,1,stroop_test,119.93657761332636,
,,,,67.0,7.0,5.0,,,,,,,,,,,,,blau,blue,b,1.0,b,1.0,0.6594752999953926,,,,,,,,,,5.0,7.0,67.0,5.0,294.5925170001574,,,,,,,,,,,,,,,,,294.5851321001537,295.3838168999646,296.175399400061,296.16776380012743,,,,,,,,,,,,,,,,,,,,,,,,,,,,,,,,,,,296.1698664999567,296.175399400061,296.175399400061,296.84277430013753,b,1.0,0.6594752999953926,,,,,,sub-163,1,stroop_test,119.93657761332636,
,,,,68.0,8.0,5.0,,,,,,,,,,,,,blau,blue,b,1.0,b,1.0,0.4013632000423968,,,,,,,,,,5.0,8.0,68.0,6.0,296.85034180013463,,,,,,,,,,,,,,,,,296.8430347000249,297.1835747000296,297.9750383000355,297.96738540008664,,,,,,,,,,,,,,,,,,,,,,,,,,,,,,,,,,,297.96772980014794,297.9750383000355,297.9750383000355,298.38421000004746,b,1.0,0.4013632000423968,,,,,,sub-163,1,stroop_test,119.93657761332636,
,,,,69.0,9.0,5.0,,,,,,,,,,,,,rot,red,r,1.0,r,1.0,0.4856682999525219,,,,,,,,,,5.0,9.0,69.0,1.0,298.3917293001432,,,,,,,,,,,,,,,,,298.38447220018134,298.72513190004975,299.516588000115,299.50861910008825,,,,,,,,,,,,,,,,,,,,,,,,,,,,,,,,,,,299.5115122999996,299.516588000115,299.516588000115,300.00888580014,r,1.0,0.4856682999525219,,,,,,sub-163,1,stroop_test,119.93657761332636,
,,,,70.0,10.0,5.0,,,,,,,,,,,,,gelb,yellow,g,1.0,g,1.0,0.3442013999447226,,,,,,,,,,5.0,10.0,70.0,11.0,300.0163909001276,,,,,,,,,,,,,,,,,300.0091134000104,300.7998616001569,301.59117710008286,301.5832720999606,,,,,,,,,,,,,,,,,,,,,,,,,,,,,,,,,,,301.58545440016314,301.59117710008286,301.59117710008286,301.9419545000419,g,1.0,0.3442013999447226,,,,,,sub-163,1,stroop_test,119.93657761332636,
,,,,71.0,11.0,5.0,,,,,,,,,,,,,gelb,yellow,g,1.0,g,1.0,0.4738888998981565,,,,,,,,,,5.0,11.0,71.0,10.0,301.94962900015526,,,,,,,,,,,,,,,,,301.942196500022,302.0413256001193,302.8329435000196,302.82489240006544,,,,,,,,,,,,,,,,,,,,,,,,,,,,,,,,,,,302.8251646000426,302.8329435000196,302.8329435000196,303.3083665999584,g,1.0,0.4738888998981565,,,,,,sub-163,1,stroop_test,119.93657761332636,
,,,,72.0,0.0,6.0,,,,,,,,,,,,,gelb,yellow,g,1.0,g,1.0,0.4845237999688834,,,,,,,,,,6.0,0.0,72.0,10.0,303.3159895001445,,,,,,,,,,,,,,,,,303.30861190008,304.09904500003904,304.8905440000817,304.8827887000516,,,,,,,,,,,,,,,,,,,,,,,,,,,,,,,,,,,304.8831374000292,304.8905440000817,304.8905440000817,305.3833230000455,g,1.0,0.4845237999688834,,,,,,sub-163,1,stroop_test,119.93657761332636,
,,,,73.0,1.0,6.0,,,,,,,,,,,,,rot,red,r,1.0,r,1.0,0.7427038999740034,,,,,,,,,,6.0,1.0,73.0,0.0,305.39072140003555,,,,,,,,,,,,,,,,,305.3835857000668,306.582072700141,307.3736070001032,307.365890200017,,,,,,,,,,,,,,,,,,,,,,,,,,,,,,,,,,,307.36809430015273,307.3736070001032,307.3736070001032,308.12451610015705,r,1.0,0.7427038999740034,,,,,,sub-163,1,stroop_test,119.93657761332636,
,,,,74.0,2.0,6.0,,,,,,,,,,,,,rot,yellow,g,0.0,g,1.0,1.2727917998563498,,,,,,,,,,6.0,2.0,74.0,3.0,308.13195320009254,,,,,,,,,,,,,,,,,308.1247433000244,308.22365249996074,309.0149642000906,309.00710889999755,,,,,,,,,,,,,,,,,,,,,,,,,,,,,,,,,,,309.00745070003904,309.0149642000906,309.0149642000906,310.2906874001492,g,1.0,1.2727917998563498,,,,,,sub-163,1,stroop_test,119.93657761332636,
,,,,75.0,3.0,6.0,,,,,,,,,,,,,blau,blue,b,1.0,b,1.0,0.7562551000155509,,,,,,,,,,6.0,3.0,75.0,6.0,310.2982289001812,,,,,,,,,,,,,,,,,310.2908979000058,311.0896968001034,311.88145740004256,311.87345140008256,,,,,,,,,,,,,,,,,,,,,,,,,,,,,,,,,,,311.8754670000635,311.88145740004256,311.88145740004256,312.64029220002703,b,1.0,0.7562551000155509,,,,,,sub-163,1,stroop_test,119.93657761332636,
,,,,76.0,4.0,6.0,,,,,,,,,,,,,rot,blue,b,0.0,b,1.0,0.5392267000861466,,,,,,,,,,6.0,4.0,76.0,2.0,312.64764880016446,,,,,,,,,,,,,,,,,312.6405513000209,313.4311230999883,314.2224358001258,314.2146140001714,,,,,,,,,,,,,,,,,,,,,,,,,,,,,,,,,,,314.21692720009014,314.2224358001258,314.2224358001258,314.76491779997014,b,1.0,0.5392267000861466,,,,,,sub-163,1,stroop_test,119.93657761332636,
,,,,77.0,5.0,6.0,,,,,,,,,,,,,blau,red,r,0.0,r,1.0,0.5761819998733699,,,,,,,,,,6.0,5.0,77.0,4.0,314.77236680011265,,,,,,,,,,,,,,,,,314.7651741001755,314.85574340005405,315.6472257999704,315.6396027000156,,,,,,,,,,,,,,,,,,,,,,,,,,,,,,,,,,,315.6416605999693,315.6472257999704,315.6472257999704,316.2313610001001,r,1.0,0.5761819998733699,,,,,,sub-163,1,stroop_test,119.93657761332636,
,,,,78.0,6.0,6.0,,,,,,,,,,,,,blau,blue,b,1.0,b,1.0,0.5881017001811415,,,,,,,,,,6.0,6.0,78.0,5.0,316.23895180015825,,,,,,,,,,,,,,,,,316.2316134001594,316.58045030012727,317.3721716001164,317.36436110013165,,,,,,,,,,,,,,,,,,,,,,,,,,,,,,,,,,,317.3646341999993,317.3721716001164,317.3721716001164,317.9646342000924,b,1.0,0.5881017001811415,,,,,,sub-163,1,stroop_test,119.93657761332636,
,,,,79.0,7.0,6.0,,,,,,,,,,,,,blau,yellow,g,0.0,g,1.0,0.572609500028193,,,,,,,,,,6.0,7.0,79.0,7.0,317.9720100001432,,,,,,,,,,,,,,,,,317.9648831000086,318.06370500009507,318.85529269999824,318.84737249999307,,,,,,,,,,,,,,,,,,,,,,,,,,,,,,,,,,,318.8477054999676,318.85529269999824,318.85529269999824,319.4311226999853,g,1.0,0.572609500028193,,,,,,sub-163,1,stroop_test,119.93657761332636,
,,,,80.0,8.0,6.0,,,,,,,,,,,,,rot,red,r,1.0,r,1.0,0.5444073998369277,,,,,,,,,,6.0,8.0,80.0,1.0,319.4382064000238,,,,,,,,,,,,,,,,,319.43136940011755,319.78005350008607,320.5715981000103,320.56372600002214,,,,,,,,,,,,,,,,,,,,,,,,,,,,,,,,,,,320.56600490002893,320.5715981000103,320.5715981000103,321.12216400005855,r,1.0,0.5444073998369277,,,,,,sub-163,1,stroop_test,119.93657761332636,
,,,,81.0,9.0,6.0,,,,,,,,,,,,,gelb,blue,b,0.0,b,1.0,0.6972747999243438,,,,,,,,,,6.0,9.0,81.0,9.0,321.12976719997823,,,,,,,,,,,,,,,,,321.12240460002795,321.4629758000374,322.25465440005064,322.2468270000536,,,,,,,,,,,,,,,,,,,,,,,,,,,,,,,,,,,322.2492645001039,322.25465440005064,322.25465440005064,322.9553459000308,b,1.0,0.6972747999243438,,,,,,sub-163,1,stroop_test,119.93657761332636,
,,,,82.0,10.0,6.0,,,,,,,,,,,,,gelb,red,r,0.0,r,1.0,0.9868769999593496,,,,,,,,,,6.0,10.0,82.0,8.0,322.9628526000306,,,,,,,,,,,,,,,,,322.9555946001783,324.154267200036,324.94591450016014,324.9380481999833,,,,,,,,,,,,,,,,,,,,,,,,,,,,,,,,,,,324.9383831000887,324.94591450016014,324.94591450016014,325.9383319001645,r,1.0,0.9868769999593496,,,,,,sub-163,1,stroop_test,119.93657761332636,
,,,,83.0,11.0,6.0,,,,,,,,,,,,,gelb,yellow,g,1.0,g,1.0,0.6284903001505882,,,,,,,,,,6.0,11.0,83.0,11.0,325.9457570000086,,,,,,,,,,,,,,,,,325.9385905000381,326.0373518001288,326.8289930000901,326.8211076001171,,,,,,,,,,,,,,,,,,,,,,,,,,,,,,,,,,,326.8214722999837,326.8289930000901,326.8289930000901,327.46302919997834,g,1.0,0.6284903001505882,,,,,,sub-163,1,stroop_test,119.93657761332636,
,,,,84.0,0.0,7.0,,,,,,,,,,,,,rot,yellow,g,0.0,g,1.0,0.5636893999762833,,,,,,,,,,7.0,0.0,84.0,3.0,327.4703993999865,,,,,,,,,,,,,,,,,327.4632632001303,327.56215859996155,328.3536515000742,328.3458007001318,,,,,,,,,,,,,,,,,,,,,,,,,,,,,,,,,,,328.3474916999694,328.3536515000742,328.3536515000742,328.92093669995666,g,1.0,0.5636893999762833,,,,,,sub-163,1,stroop_test,119.93657761332636,
,,,,85.0,1.0,7.0,,,,,,,,,,,,,gelb,yellow,g,1.0,g,1.0,0.4393007000908255,,,,,,,,,,7.0,1.0,85.0,10.0,328.92861400009133,,,,,,,,,,,,,,,,,328.9211599000264,329.26159340003505,330.053429499967,330.0455694999546,,,,,,,,,,,,,,,,,,,,,,,,,,,,,,,,,,,330.04793310002424,330.053429499967,330.053429499967,330.49589110002853,g,1.0,0.4393007000908255,,,,,,sub-163,1,stroop_test,119.93657761332636,
,,,,86.0,2.0,7.0,,,,,,,,,,,,,rot,red,r,1.0,r,1.0,0.479576600017026,,,,,,,,,,7.0,2.0,86.0,0.0,330.50311339995824,,,,,,,,,,,,,,,,,330.4961548000574,331.29472930007614,332.0864892001264,332.0785993000027,,,,,,,,,,,,,,,,,,,,,,,,,,,,,,,,,,,332.08080970006995,332.0864892001264,332.0864892001264,332.5705444000196,r,1.0,0.479576600017026,,,,,,sub-163,1,stroop_test,119.93657761332636,
,,,,87.0,3.0,7.0,,,,,,,,,,,,,gelb,yellow,g,1.0,g,1.0,1.2980276998132467,,,,,,,,,,7.0,3.0,87.0,11.0,332.5779797001742,,,,,,,,,,,,,,,,,332.5707962999586,333.7694632001221,334.56101349997334,334.5530016000848,,,,,,,,,,,,,,,,,,,,,,,,,,,,,,,,,,,334.5563291001599,334.56101349997334,334.56101349997334,335.861562800128,g,1.0,1.2980276998132467,,,,,,sub-163,1,stroop_test,119.93657761332636,
,,,,88.0,4.0,7.0,,,,,,,,,,,,,blau,yellow,g,0.0,g,1.0,0.659440599847585,,,,,,,,,,7.0,4.0,88.0,7.0,335.86907720007,,,,,,,,,,,,,,,,,335.8618252000306,336.2107669999823,337.0022940000053,336.9943848999683,,,,,,,,,,,,,,,,,,,,,,,,,,,,,,,,,,,336.99661989999004,337.0022940000053,337.0022940000053,337.66974789998494,g,1.0,0.659440599847585,,,,,,sub-163,1,stroop_test,119.93657761332636,
,,,,89.0,5.0,7.0,,,,,,,,,,,,,blau,blue,b,1.0,b,1.0,0.5429815000388771,,,,,,,,,,7.0,5.0,89.0,5.0,337.6770276001189,,,,,,,,,,,,,,,,,337.6700226999819,338.01874750014395,338.8101995000616,338.8024275000207,,,,,,,,,,,,,,,,,,,,,,,,,,,,,,,,,,,338.8027792000212,338.8101995000616,338.8101995000616,339.3608621000312,b,1.0,0.5429815000388771,,,,,,sub-163,1,stroop_test,119.93657761332636,
,,,,90.0,6.0,7.0,,,,,,,,,,,,,blau,blue,b,1.0,b,1.0,0.4076629998162389,,,,,,,,,,7.0,6.0,90.0,6.0,339.368359999964,,,,,,,,,,,,,,,,,339.36109570018016,340.5600219001062,341.3514215000905,341.343581299996,,,,,,,,,,,,,,,,,,,,,,,,,,,,,,,,,,,341.34384750016034,341.3514215000905,341.3514215000905,341.7606161001604,b,1.0,0.4076629998162389,,,,,,sub-163,1,stroop_test,119.93657761332636,
,,,,91.0,7.0,7.0,,,,,,,,,,,,,blau,red,r,0.0,r,1.0,0.8244378999806941,,,,,,,,,,7.0,7.0,91.0,4.0,341.7681999001652,,,,,,,,,,,,,,,,,341.7608784001786,342.1012987999711,342.893044100143,342.8851161999628,,,,,,,,,,,,,,,,,,,,,,,,,,,,,,,,,,,342.88544410001487,342.893044100143,342.893044100143,343.71895120013505,r,1.0,0.8244378999806941,,,,,,sub-163,1,stroop_test,119.93657761332636,
,,,,92.0,8.0,7.0,,,,,,,,,,,,,gelb,red,r,0.0,r,1.0,0.4762090998701751,,,,,,,,,,7.0,8.0,92.0,8.0,343.72590470011346,,,,,,,,,,,,,,,,,343.7192914001644,344.91760960011743,345.7092643000651,345.7011863000225,,,,,,,,,,,,,,,,,,,,,,,,,,,,,,,,,,,345.70331820007414,345.7092643000651,345.7092643000651,346.19310589996167,r,1.0,0.4762090998701751,,,,,,sub-163,1,stroop_test,119.93657761332636,
,,,,93.0,9.0,7.0,,,,,,,,,,,,,gelb,blue,b,0.0,b,1.0,1.9426925000734627,,,,,,,,,,7.0,9.0,93.0,9.0,346.2007600001525,,,,,,,,,,,,,,,,,346.19335249997675,346.53410569997504,347.3256616999861,347.3177535000723,,,,,,,,,,,,,,,,,,,,,,,,,,,,,,,,,,,347.31810190016404,347.3256616999861,347.3256616999861,349.27601100015454,b,1.0,1.9426925000734627,,,,,,sub-163,1,stroop_test,119.93657761332636,
,,,,94.0,10.0,7.0,,,,,,,,,,,,,rot,red,r,1.0,r,1.0,0.609021499985829,,,,,,,,,,7.0,10.0,94.0,1.0,349.2834465999622,,,,,,,,,,,,,,,,,349.2762742000632,349.36695120017976,350.15834640013054,350.15070460014977,,,,,,,,,,,,,,,,,,,,,,,,,,,,,,,,,,,350.1528775000479,350.15834640013054,350.15834640013054,350.77561170002446,r,1.0,0.609021499985829,,,,,,sub-163,1,stroop_test,119.93657761332636,
,,,,95.0,11.0,7.0,,,,,,,,,,,,,rot,blue,b,0.0,b,1.0,0.7381624998524785,,,,,,,,,,7.0,11.0,95.0,2.0,350.7832361999899,,,,,,,,,,,,,,,,,350.7758237000089,351.11660549999215,351.90830290014856,351.90035250014625,,,,,,,,,,,,,,,,,,,,,,,,,,,,,,,,,,,351.9007149999961,351.90830290014856,351.90830290014856,352.65065030008554,b,1.0,0.7381624998524785,,,,,,sub-163,1,stroop_test,119.93657761332636,
,,,,96.0,0.0,8.0,,,,,,,,,,,,,blau,yellow,g,0.0,g,1.0,1.184663699939847,,,,,,,,,,8.0,0.0,96.0,7.0,352.65792280016467,,,,,,,,,,,,,,,,,352.6509151000064,353.4496353000868,354.2410151001532,354.2334020000417,,,,,,,,,,,,,,,,,,,,,,,,,,,,,,,,,,,354.2355103001464,354.2410151001532,354.2410151001532,355.43333050003275,g,1.0,1.184663699939847,,,,,,sub-163,1,stroop_test,119.93657761332636,
,,,,97.0,1.0,8.0,,,,,,,,,,,,,gelb,yellow,g,1.0,g,1.0,0.5333576998673379,,,,,,,,,,8.0,1.0,97.0,11.0,355.4408826001454,,,,,,,,,,,,,,,,,355.4335376000963,355.7741543999873,356.56589620001614,356.55800479999743,,,,,,,,,,,,,,,,,,,,,,,,,,,,,,,,,,,356.56078710011207,356.56589620001614,356.56589620001614,357.1000612999778,g,1.0,0.5333576998673379,,,,,,sub-163,1,stroop_test,119.93657761332636,
,,,,98.0,2.0,8.0,,,,,,,,,,,,,rot,red,r,1.0,r,1.0,0.6367506999522448,,,,,,,,,,8.0,2.0,98.0,0.0,357.10744270007126,,,,,,,,,,,,,,,,,357.10025710007176,357.8988302999642,358.6904514001217,358.6825711999554,,,,,,,,,,,,,,,,,,,,,,,,,,,,,,,,,,,358.685024500126,358.6904514001217,358.6904514001217,359.33280970016494,r,1.0,0.6367506999522448,,,,,,sub-163,1,stroop_test,119.93657761332636,
,,,,99.0,3.0,8.0,,,,,,,,,,,,,rot,yellow,g,0.0,g,1.0,0.6337051000446081,,,,,,,,,,8.0,3.0,99.0,3.0,359.34016879997216,,,,,,,,,,,,,,,,,359.33304000017233,360.13191930018365,360.92334179999307,360.9156975001097,,,,,,,,,,,,,,,,,,,,,,,,,,,,,,,,,,,360.9160574001726,360.92334179999307,360.92334179999307,361.56572880013846,g,1.0,0.6337051000446081,,,,,,sub-163,1,stroop_test,119.93657761332636,
,,,,100.0,4.0,8.0,,,,,,,,,,,,,gelb,blue,b,0.0,b,1.0,0.6083410999272019,,,,,,,,,,8.0,4.0,100.0,9.0,361.57305050012656,,,,,,,,,,,,,,,,,361.5659904000349,361.914949900005,362.7065346001182,362.6986385001801,,,,,,,,,,,,,,,,,,,,,,,,,,,,,,,,,,,362.70112290000543,362.7065346001182,362.7065346001182,363.3158852001652,b,1.0,0.6083410999272019,,,,,,sub-163,1,stroop_test,119.93657761332636,
,,,,101.0,5.0,8.0,,,,,,,,,,,,,blau,blue,b,1.0,b,1.0,0.8605259999167174,,,,,,,,,,8.0,5.0,101.0,5.0,363.32300550001673,,,,,,,,,,,,,,,,,363.3161301000509,364.5145235999953,365.3061297000386,365.298152100062,,,,,,,,,,,,,,,,,,,,,,,,,,,,,,,,,,,365.3002786999568,365.3061297000386,365.3061297000386,366.17352860001847,b,1.0,0.8605259999167174,,,,,,sub-163,1,stroop_test,119.93657761332636,
,,,,102.0,6.0,8.0,,,,,,,,,,,,,gelb,red,r,0.0,r,1.0,0.9532500999048352,,,,,,,,,,8.0,6.0,102.0,8.0,366.1808707001619,,,,,,,,,,,,,,,,,366.1737766000442,366.26407150016166,367.05580560001545,367.047891400056,,,,,,,,,,,,,,,,,,,,,,,,,,,,,,,,,,,367.0501790000126,367.05580560001545,367.05580560001545,368.01466290000826,r,1.0,0.9532500999048352,,,,,,sub-163,1,stroop_test,119.93657761332636,
,,,,103.0,7.0,8.0,,,,,,,,,,,,,rot,blue,b,0.0,g,0.0,1.9070794000290332,,,,,,,,,,8.0,7.0,103.0,2.0,368.0220976001583,,,,,,,,,,,,,,,,,368.0148863000795,368.10560450004414,368.8972346000373,368.8893063000869,,,,,,,,,,,,,,,,,,,,,,,,,,,,,,,,,,,368.8916591000743,368.8972346000373,368.8972346000373,370.80573190003633,g,0.0,1.9070794000290332,,,,,,sub-163,1,stroop_test,119.93657761332636,
,,,,104.0,8.0,8.0,,,,,,,,,,,,,blau,red,r,0.0,r,1.0,3.0691760000772774,,,,,,,,,,8.0,8.0,104.0,4.0,370.81352369999513,,,,,,,,,,,,,,,,,370.8059583001304,371.9964527999982,372.78802080010064,372.7800622000359,,,,,,,,,,,,,,,,,,,,,,,,,,,,,,,,,,,372.7823247001506,372.78802080010064,372.78802080010064,375.8635589000769,r,1.0,3.0691760000772774,,,,,,sub-163,1,stroop_test,119.93657761332636,
,,,,105.0,9.0,8.0,,,,,,,,,,,,,rot,red,r,1.0,r,1.0,0.9055741999763997,,,,,,,,,,8.0,9.0,105.0,1.0,375.8708522999659,,,,,,,,,,,,,,,,,375.8638085001148,376.6624863001052,377.4542287001386,377.4461402001325,,,,,,,,,,,,,,,,,,,,,,,,,,,,,,,,,,,377.44850499997847,377.4542287001386,377.4542287001386,378.3631385001354,r,1.0,0.9055741999763997,,,,,,sub-163,1,stroop_test,119.93657761332636,
,,,,106.0,10.0,8.0,,,,,,,,,,,,,blau,blue,b,1.0,b,1.0,1.2092635999433696,,,,,,,,,,8.0,10.0,106.0,6.0,378.3702716999687,,,,,,,,,,,,,,,,,378.3635218001437,379.1621948999818,379.9537582001649,379.9458057000302,,,,,,,,,,,,,,,,,,,,,,,,,,,,,,,,,,,379.9478721001651,379.9537582001649,379.9537582001649,381.1709434001241,b,1.0,1.2092635999433696,,,,,,sub-163,1,stroop_test,119.93657761332636,
,,,,107.0,11.0,8.0,,,,,,,,,,,,,gelb,yellow,g,1.0,g,1.0,0.7743124000262469,,,,,,,,,,8.0,11.0,107.0,10.0,381.178152800072,,,,,,,,,,,,,,,,,381.1712031001225,382.3698579000775,383.1614716001786,383.1536723000463,,,,,,,,,,,,,,,,,,,,,,,,,,,,,,,,,,,383.1559580001049,383.1614716001786,383.1614716001786,383.9371623001061,g,1.0,0.7743124000262469,,,,,,sub-163,1,stroop_test,119.93657761332636,
,,,,108.0,0.0,9.0,,,,,,,,,,,,,rot,red,r,1.0,r,1.0,0.865215600002557,,,,,,,,,,9.0,0.0,108.0,0.0,383.9447940001264,,,,,,,,,,,,,,,,,383.937354200054,385.13612150005065,385.9278576001525,385.9198255999945,,,,,,,,,,,,,,,,,,,,,,,,,,,,,,,,,,,385.92163790017366,385.9278576001525,385.9278576001525,386.7950399001129,r,1.0,0.865215600002557,,,,,,sub-163,1,stroop_test,119.93657761332636,
,,,,109.0,1.0,9.0,,,,,,,,,,,,,blau,blue,b,1.0,b,1.0,0.6047071998473257,,,,,,,,,,9.0,1.0,109.0,5.0,386.8023659000173,,,,,,,,,,,,,,,,,386.7952821999788,387.1440630001016,387.9356514001265,387.9279106999748,,,,,,,,,,,,,,,,,,,,,,,,,,,,,,,,,,,387.9300159001723,387.9356514001265,387.9356514001265,388.5449343000073,b,1.0,0.6047071998473257,,,,,,sub-163,1,stroop_test,119.93657761332636,
,,,,110.0,2.0,9.0,,,,,,,,,,,,,rot,red,r,1.0,r,1.0,0.5516625999007374,,,,,,,,,,9.0,2.0,110.0,1.0,388.55217210017145,,,,,,,,,,,,,,,,,388.54518050001934,388.8939157000277,389.6851945000235,389.6776032999624,,,,,,,,,,,,,,,,,,,,,,,,,,,,,,,,,,,389.6802587001585,389.6851945000235,389.6851945000235,390.2445148001425,r,1.0,0.5516625999007374,,,,,,sub-163,1,stroop_test,119.93657761332636,
,,,,111.0,3.0,9.0,,,,,,,,,,,,,gelb,red,r,0.0,r,1.0,1.9834004999138413,,,,,,,,,,9.0,3.0,111.0,8.0,390.2517472000327,,,,,,,,,,,,,,,,,390.2447689000983,391.44343690015376,392.2350242000539,392.22718879999593,,,,,,,,,,,,,,,,,,,,,,,,,,,,,,,,,,,392.2295713000931,392.2350242000539,392.2350242000539,394.22723890002817,r,1.0,1.9834004999138413,,,,,,sub-163,1,stroop_test,119.93657761332636,
,,,,112.0,4.0,9.0,,,,,,,,,,,,,rot,yellow,g,0.0,g,1.0,0.8823740999214351,,,,,,,,,,9.0,4.0,112.0,3.0,394.23455779999495,,,,,,,,,,,,,,,,,394.2274935001042,395.0261914001312,395.8177245000843,395.8102004001848,,,,,,,,,,,,,,,,,,,,,,,,,,,,,,,,,,,395.8119057000149,395.8177245000843,395.8177245000843,396.7015241000336,g,1.0,0.8823740999214351,,,,,,sub-163,1,stroop_test,119.93657761332636,
,,,,113.0,5.0,9.0,,,,,,,,,,,,,rot,blue,b,0.0,b,1.0,0.5510932998731732,,,,,,,,,,9.0,5.0,113.0,2.0,396.7093189000152,,,,,,,,,,,,,,,,,396.7017709000502,397.4923262000084,398.2838981000241,398.27631910005584,,,,,,,,,,,,,,,,,,,,,,,,,,,,,,,,,,,398.2766534001567,398.2838981000241,398.2838981000241,398.8430659000296,b,1.0,0.5510932998731732,,,,,,sub-163,1,stroop_test,119.93657761332636,
,,,,114.0,6.0,9.0,,,,,,,,,,,,,gelb,yellow,g,1.0,g,1.0,0.4486815000418573,,,,,,,,,,9.0,6.0,114.0,10.0,398.8505955999717,,,,,,,,,,,,,,,,,398.8433070001192,400.0419752001762,400.8336930000223,400.82574560004286,,,,,,,,,,,,,,,,,,,,,,,,,,,,,,,,,,,400.82803660002537,400.8336930000223,400.8336930000223,401.28431889996864,g,1.0,0.4486815000418573,,,,,,sub-163,1,stroop_test,119.93657761332636,
,,,,115.0,7.0,9.0,,,,,,,,,,,,,gelb,yellow,g,1.0,g,1.0,0.4734228998422622,,,,,,,,,,9.0,7.0,115.0,11.0,401.2918222001754,,,,,,,,,,,,,,,,,401.2845272000413,401.3750291001052,402.166589200031,402.1589441001415,,,,,,,,,,,,,,,,,,,,,,,,,,,,,,,,,,,402.1593037999701,402.166589200031,402.166589200031,402.6424883001018,g,1.0,0.4734228998422622,,,,,,sub-163,1,stroop_test,119.93657761332636,
,,,,116.0,8.0,9.0,,,,,,,,,,,,,gelb,blue,b,0.0,b,1.0,1.132337999995798,,,,,,,,,,9.0,8.0,116.0,9.0,402.649925700156,,,,,,,,,,,,,,,,,402.6427515000105,402.9831895001698,403.7747049999889,403.7670579999685,,,,,,,,,,,,,,,,,,,,,,,,,,,,,,,,,,,403.76740390015766,403.7747049999889,403.7747049999889,404.9092316001188,b,1.0,1.132337999995798,,,,,,sub-163,1,stroop_test,119.93657761332636,
,,,,117.0,9.0,9.0,,,,,,,,,,,,,blau,blue,b,1.0,b,1.0,0.6239650999195874,,,,,,,,,,9.0,9.0,117.0,6.0,404.9164063001517,,,,,,,,,,,,,,,,,404.9094110000879,405.2578363001812,406.0495786000975,406.04156740009785,,,,,,,,,,,,,,,,,,,,,,,,,,,,,,,,,,,406.0430916000623,406.0495786000975,406.0495786000975,406.6749148999807,b,1.0,0.6239650999195874,,,,,,sub-163,1,stroop_test,119.93657761332636,
,,,,118.0,10.0,9.0,,,,,,,,,,,,,blau,yellow,g,0.0,g,1.0,1.0844217999838293,,,,,,,,,,9.0,10.0,118.0,7.0,406.6828383000102,,,,,,,,,,,,,,,,,406.6751304999925,406.7659039001446,407.55740809999406,407.5496913001407,,,,,,,,,,,,,,,,,,,,,,,,,,,,,,,,,,,407.5500449000392,407.55740809999406,407.55740809999406,408.65000040014274,g,1.0,1.0844217999838293,,,,,,sub-163,1,stroop_test,119.93657761332636,
,,,,119.0,11.0,9.0,,,,,,,,,,,,,blau,red,r,0.0,r,1.0,0.8231520000845194,,,,,,,,,,9.0,11.0,119.0,4.0,408.65736730000935,,,,,,,,,,,,,,,,,408.6502578000072,408.9989942000248,409.7904311001767,409.7827231001575,,,,,,,,,,,,,,,,,,,,,,,,,,,,,,,,,,,409.78305450011976,409.7904311001767,409.7904311001767,410.6162262000144,r,1.0,0.8231520000845194,,,,,,sub-163,1,stroop_test,119.93657761332636,
,,,,,,,,,,,,,,,,,,,,,,,,,,,,,,,,,,,,,,,,,,,,,,,,,,,,,,,,,,,,,,,,,,,,,,,,,,,,,,,,,,,,,,,,,,,,,,,,,,,,,,410.6163477001246,410.6238766000606,415.6143046000507,415.6069464001339,sub-163,1,stroop_test,119.93657761332636,
