direction,corrAns,randomInstr,practice_trials.thisRepN,practice_trials.thisTrialN,practice_trials.thisN,practice_trials.thisIndex,instr_trials.thisRepN,instr_trials.thisTrialN,instr_trials.thisN,instr_trials.thisIndex,test_trials.thisRepN,test_trials.thisTrialN,test_trials.thisN,test_trials.thisIndex,thisRow.t,notes,general_instruction.started,textGeneralInstr.started,respGeneralInstr.started,general_instruction.stopped,respGeneralInstr.keys,respGeneralInstr.rt,respGeneralInstr.duration,ITI.started,fixcross.started,fixcross.stopped,ITI.stopped,dots.started,backgroundDots.started,stimulusDots.started,respDots.started,dots.stopped,respDots.keys,respDots.corr,respDots.rt,respDots.duration,feedback.started,textFeedback.started,feedback.stopped,textFeedback.stopped,info.started,textInfo.started,keyRespInfo.started,info.stopped,keyRespInfo.keys,keyRespInfo.rt,keyRespInfo.duration,test_instruction.started,textTestInstr.started,respTestInstr.started,test_instruction.stopped,respTestInstr.keys,respTestInstr.rt,respTestInstr.duration,random_instruction.started,textRandomInstr.started,respRandomInstr.started,random_instruction.stopped,respRandomInstr.keys,respRandomInstr.rt,respRandomInstr.duration,goodbye.started,textGoodbye.started,goodbye.stopped,participant,session,expName,frameRate,Unnamed: 72
,,,,,,,,,,,,,,,,,0.0052533000125549,0.0105283000157214,0.0105283000157214,1.735410200024489,space,25.794431699963752,,,,,,,,,,,,,,,,,,,,,,,,,,,,,,,,,,,,,,,,,,,sub-104,3.0,random_dot,59.87654654429384,
right,right,,0.0,0.0,0.0,1.0,,,,,,,,,1.7605862999917008,,,,,,,,,1.7566129000042563,2.0984127999981865,2.909609799971804,2.882484400004614,2.8825498999794945,2.909609799971804,2.909609799971804,2.909609799971804,4.033017900015693,right,1.0,25.19084559992189,,4.035145599977113,4.058979400026146,4.546422699990217,,,,,,,,,,,,,,,,,,,,,,,,,,sub-104,3.0,random_dot,59.87654654429384,
left,left,,0.0,1.0,1.0,0.0,,,,,,,,,4.562961600022391,,,,,,,,,4.547607499989681,4.6459889999823645,5.446307700010948,5.430253099999391,5.430322900007013,5.446307700010948,5.446307700010948,5.446307700010948,6.247718399972655,left,1.0,24.881170699954964,,6.249225499981549,6.261307200009469,6.745945899980143,6.760853899992071,,,,,,,,,,,,,,,,,,,,,,,,,sub-104,3.0,random_dot,59.87654654429384,
right,right,,1.0,0.0,2.0,1.0,,,,,,,,,6.760853899992071,,,,,,,,,6.747152500029188,7.559913599980064,8.360414499999024,8.344359999988228,8.344420599984005,8.360414499999024,8.360414499999024,8.360414499999024,9.761638200026937,left,0.0,25.475551799987443,,9.76336129999254,9.784928500012027,10.274098000023514,,,,,,,,,,,,,,,,,,,,,,,,,,sub-104,3.0,random_dot,59.87654654429384,
left,left,,1.0,1.0,3.0,0.0,,,,,,,,,10.290596399980132,,,,,,,,,10.275097600009758,11.473395299981348,12.289988600008655,12.27380510000512,12.273866800009271,12.289988600008655,12.289988600008655,12.289988600008655,13.141778899997009,left,1.0,24.923453599971253,,13.143476299999747,13.158845000027211,13.65476479998324,,,,,,,,,,,,,,,,,,,,,,,,,,sub-104,3.0,random_dot,59.87654654429384,
left,left,,2.0,0.0,4.0,0.0,,,,,,,,,13.671003199997358,,,,,,,,,13.65594049997162,13.754331299976911,14.57061320001958,14.553812599973751,14.553846800001338,14.57061320001958,14.57061320001958,14.57061320001958,15.40578580001602,right,0.0,24.903026999963917,,15.407318099983968,15.421426600019911,15.919140000012703,,,,,,,,,,,,,,,,,,,,,,,,,,sub-104,3.0,random_dot,59.87654654429384,
right,right,,2.0,1.0,5.0,1.0,,,,,,,,,15.935544300009497,,,,,,,,,15.920363600016572,16.0189560999861,16.83551920001628,16.81959560001269,16.819671800010838,16.83551920001628,16.83551920001628,16.83551920001628,18.184719900018536,right,1.0,25.42651919997297,,18.18514439999126,18.199554199993145,18.68342830002075,18.699162399978377,,,,,,,,,,,,,,,,,,,,,,,,,sub-104,3.0,random_dot,59.87654654429384,
left,left,,3.0,0.0,6.0,0.0,,,,,,,,,18.699162399978377,,,,,,,,,18.68408289999934,19.048820300027728,19.84916199999861,19.83228939998662,19.8323218000005,19.84916199999861,19.84916199999861,19.84916199999861,20.8338549999753,left,1.0,25.06645129993558,,20.835181700007524,20.847339699976143,21.33074619999388,21.34647150000092,,,,,,,,,,,,,,,,,,,,,,,,,sub-104,3.0,random_dot,59.87654654429384,
right,right,,3.0,1.0,7.0,1.0,,,,,,,,,21.34647150000092,,,,,,,,,21.331355699978303,21.696193300012965,22.496708300022878,22.4804403000162,22.480480599973816,22.496708300022878,22.496708300022878,22.496708300022878,23.131601699977185,right,1.0,24.71433300001081,,23.13266439997824,23.145252600021195,23.629775699984748,23.645130100019745,,,,,,,,,,,,,,,,,,,,,,,,,sub-104,3.0,random_dot,59.87654654429384,
left,left,,4.0,0.0,8.0,0.0,,,,,,,,,23.645130100019745,,,,,,,,,23.6309299999848,24.84374719997868,25.64396770001622,25.62781500001438,25.627875300007872,25.64396770001622,25.64396770001622,25.64396770001622,26.34448770002928,left,1.0,24.778619299991988,,26.34541629999876,26.35870450001676,26.842986900010143,26.85860670002876,,,,,,,,,,,,,,,,,,,,,,,,,sub-104,3.0,random_dot,59.87654654429384,
right,right,,4.0,1.0,9.0,1.0,,,,,,,,,26.85860670002876,,,,,,,,,26.843871199991558,26.95879790000617,27.758916800026785,27.74280110001564,27.7428650999791,27.758916800026785,27.758916800026785,27.758916800026785,28.45902870001737,right,1.0,24.775739699951373,,28.459887099976186,28.47336740000173,28.957987900008447,28.97312849998707,,,,,,,,,,,,,,,,,,,,,,,,,sub-104,3.0,random_dot,59.87654654429384,
left,left,,5.0,0.0,10.0,0.0,,,,,,,,,28.97312849998707,,,,,,,,,28.95911960001104,29.772743800014723,30.589396200026385,30.573356200009584,30.573419000022117,30.589396200026385,30.589396200026385,30.589396200026385,31.241435899981298,left,1.0,24.73230299999705,,31.242859999998476,31.254747200000565,31.754063799977303,,,,,,,,,,,,,,,,,,,,,,,,,,sub-104,3.0,random_dot,59.87654654429384,
right,right,,5.0,1.0,11.0,1.0,,,,,,,,,31.770474800025116,,,,,,,,,31.75467350002145,31.85407689999556,32.65411599999061,32.638129199971445,32.63820180000039,32.65411599999061,32.65411599999061,32.65411599999061,33.42260049999459,right,1.0,24.84762979997322,,33.42402959999163,33.436048200004734,33.92014020000352,33.935484000016004,,,,,,,,,,,,,,,,,,,,,,,,,sub-104,3.0,random_dot,59.87654654429384,
right,right,,6.0,0.0,12.0,1.0,,,,,,,,,33.935484000016004,,,,,,,,,33.9213128000265,34.035253199981526,34.835487900010776,34.81953729997622,34.81959899998037,34.835487900010776,34.835487900010776,34.835487900010776,35.73710630001733,right,1.0,24.983729199972004,,35.73854059999576,35.7502043999848,36.23359120002715,36.24944109999342,,,,,,,,,,,,,,,,,,,,,,,,,sub-104,3.0,random_dot,59.87654654429384,
left,left,,6.0,1.0,13.0,0.0,,,,,,,,,36.24944109999342,,,,,,,,,36.23420349997468,36.59965930000181,37.416597999981605,37.40024839999387,37.400310299999546,37.416597999981605,37.416597999981605,37.416597999981605,38.068001899984665,left,1.0,24.730381799978204,,38.06951210001717,38.08151629997883,38.564837599988095,38.58066550001968,,,,,,,,,,,,,,,,,,,,,,,,,sub-104,3.0,random_dot,59.87654654429384,
right,right,,7.0,0.0,14.0,1.0,,,,,,,,,38.58066550001968,,,,,,,,,38.56546299997717,39.78025349997915,40.58025539998198,40.5640671000001,40.5641318000271,40.58025539998198,40.58025539998198,40.58025539998198,41.29851839999901,right,1.0,24.801085799990688,,41.29957500001183,41.31147979997331,41.79606750002131,41.81156970001757,,,,,,,,,,,,,,,,,,,,,,,,,sub-104,3.0,random_dot,59.87654654429384,
left,left,,7.0,1.0,15.0,0.0,,,,,,,,,41.81156970001757,,,,,,,,,41.79723249998642,42.16117580002174,42.96121879998827,42.94511349999812,42.945175600005314,42.96121879998827,42.96121879998827,42.96121879998827,43.61082090000855,left,1.0,24.72821449994808,,43.61122919997433,43.625671899993904,44.11058709997451,44.12578190001659,,,,,,,,,,,,,,,,,,,,,,,,,sub-104,3.0,random_dot,59.87654654429384,
right,right,,8.0,0.0,16.0,1.0,,,,,,,,,44.12578190001659,,,,,,,,,44.111715400009416,44.92478980001761,45.72520440001972,45.70902770000976,45.70908870000858,45.72520440001972,45.72520440001972,45.72520440001972,46.56076889997348,left,0.0,24.91405089996988,,46.56222369999159,46.576885699993,47.07349260000046,,,,,,,,,,,,,,,,,,,,,,,,,,sub-104,3.0,random_dot,59.87654654429384,
left,left,,8.0,1.0,17.0,0.0,,,,,,,,,47.08967070002109,,,,,,,,,47.07469600002514,47.17285259999335,47.97331390000181,47.95691359997727,47.95697619998828,47.97331390000181,47.97331390000181,47.97331390000181,48.54065169999376,right,0.0,24.65032809996046,,48.5415366999805,48.55473929998698,49.03937900002347,49.05465760000516,,,,,,,,,,,,,,,,,,,,,,,,,sub-104,3.0,random_dot,59.87654654429384,
left,left,,9.0,0.0,18.0,0.0,,,,,,,,,49.05465760000516,,,,,,,,,49.04053639998892,50.25351519999094,51.05364779999945,51.037521000020206,51.03758210001979,51.05364779999945,51.05364779999945,51.05364779999945,51.889533700014,left,1.0,24.9179720999673,,51.89118239999516,51.908020699978806,52.4010495999828,,,,,,,,,,,,,,,,,,,,,,,,,,sub-104,3.0,random_dot,59.87654654429384,
right,right,,9.0,1.0,19.0,1.0,,,,,,,,,52.41742999997223,,,,,,,,,52.40166360000149,52.75040209997678,53.55126390000805,53.53434130002279,53.534384300000966,53.55126390000805,53.55126390000805,53.55126390000805,54.25154279998969,right,1.0,24.768155900004786,,54.25240009999834,54.26606340002036,54.749651700025424,54.76565930002835,,,,,,,,,,,,,,,,,,,,,,,,,sub-104,3.0,random_dot,59.87654654429384,
,,,,,,,,,,,,,,,,,,,,,,,,,,,,,,,,,,,,,,,,,54.7497493000119,54.76565930002835,54.76565930002835,56.46725899999728,space,25.770443300018087,,,,,,,,,,,,,,,,,,,sub-104,3.0,random_dot,59.87654654429384,
,,,,,,,,,,,,,,,,,,,,,,,,,,,,,,,,,,,,,,,,,,,,,,,,56.46735950000584,56.481185299984645,56.481185299984645,60.54569800000172,space,28.14506339997752,,,,,,,,,,,,sub-104,3.0,random_dot,59.87654654429384,
left,left,speed,,,,,0.0,0.0,0.0,1.0,0.0,0.0,0.0,0.0,63.13368819997413,,,,,,,,,63.12898139999015,64.32349490001798,65.12375720002456,65.10759500000859,65.10766340000555,65.12375720002456,65.12375720002456,65.12375720002456,65.70892860001186,left,1.0,24.65914929995779,,,,,,,,,,,,,,,,,,,,60.551631000009365,60.57627239997964,60.57627239997964,63.11056379997172,space,26.60741259995848,,,,,sub-104,3.0,random_dot,59.87654654429384,
right,right,speed,,,,,0.0,0.0,0.0,1.0,0.0,1.0,1.0,1.0,65.72208969999338,,,,,,,,,65.71268479997525,65.82204940001247,66.62239019997651,66.60623149998719,66.60629349999363,66.62239019997651,66.62239019997651,66.62239019997651,67.1909702999983,right,1.0,24.636962499993388,,,,,,,,,,,,,,,,,,,,,,,,,,,,,,sub-104,3.0,random_dot,59.87654654429384,
right,right,speed,,,,,0.0,0.0,0.0,1.0,1.0,0.0,2.0,1.0,67.20421200001147,,,,,,,,,67.19397889997344,68.00339829997392,68.80385089997435,68.78783879999537,68.78790629998548,68.80385089997435,68.80385089997435,68.80385089997435,69.35545069997897,left,0.0,24.63220489997184,,,,,,,,,,,,,,,,,,,,,,,,,,,,,,sub-104,3.0,random_dot,59.87654654429384,
left,left,speed,,,,,0.0,0.0,0.0,1.0,1.0,1.0,3.0,0.0,69.36870669998461,,,,,,,,,69.35829760000343,69.46855639998103,70.26889419998042,70.2529028999852,70.25295870000264,70.26889419998042,70.26889419998042,70.26889419998042,70.8540966999717,left,1.0,24.65388439997332,,,,,,,,,,,,,,,,,,,,,,,,,,,,,,sub-104,3.0,random_dot,59.87654654429384,
right,right,speed,,,,,0.0,0.0,0.0,1.0,2.0,0.0,4.0,1.0,70.86756889999378,,,,,,,,,70.85691179998685,71.21710190002341,72.01721760001965,72.00128989998484,72.00135580002097,72.01721760001965,72.01721760001965,72.01721760001965,73.18516569997882,left,0.0,25.23717320000287,,,,,,,,,,,,,,,,,,,,,,,,,,,,,,sub-104,3.0,random_dot,59.87654654429384,
left,left,speed,,,,,0.0,0.0,0.0,1.0,2.0,1.0,5.0,0.0,73.19856320001418,,,,,,,,,73.18798809999134,73.54869710002095,74.36529729998438,74.34904150001239,74.34910350001883,74.36529729998438,74.36529729998438,74.36529729998438,75.1499389000237,right,0.0,24.863044600002468,,,,,,,,,,,,,,,,,,,,,,,,,,,,,,sub-104,3.0,random_dot,59.87654654429384,
left,left,speed,,,,,0.0,0.0,0.0,1.0,3.0,0.0,6.0,0.0,75.16330409998773,,,,,,,,,75.15276010002708,75.96279660001164,76.7630600000266,76.74699509999482,76.74706060002791,76.7630600000266,76.7630600000266,76.7630600000266,77.84645210002782,left,1.0,25.1544740999816,,,,,,,,,,,,,,,,,,,,,,,,,,,,,,sub-104,3.0,random_dot,59.87654654429384,
right,right,speed,,,,,0.0,0.0,0.0,1.0,3.0,1.0,7.0,1.0,77.86044339998625,,,,,,,,,77.84827670000959,79.05950249999296,79.8598591000191,79.8438522000215,79.84391489997506,79.8598591000191,79.8598591000191,79.8598591000191,80.46078279998619,right,1.0,24.66954390000319,,,,,,,,,,,,,,,,,,,,,,,,,,,,,,sub-104,3.0,random_dot,59.87654654429384,
right,right,speed,,,,,0.0,0.0,0.0,1.0,4.0,0.0,8.0,1.0,80.47484139999142,,,,,,,,,80.46269930002745,81.67422540002735,82.47447170002852,82.45834870002,82.45841419999488,82.47447170002852,82.47447170002852,82.47447170002852,83.17666629998712,right,1.0,24.781821699929424,,,,,,,,,,,,,,,,,,,,,,,,,,,,,,sub-104,3.0,random_dot,59.87654654429384,
left,left,speed,,,,,0.0,0.0,0.0,1.0,4.0,1.0,9.0,0.0,83.18939780001529,,,,,,,,,83.17988339997828,83.98893160000443,84.80556619999697,84.78943579999031,84.78949779999675,84.80556619999697,84.80556619999697,84.80556619999697,85.39074900001287,left,1.0,24.66256829997292,,,,,,,,,,,,,,,,,,,,,,,,,,,,,,sub-104,3.0,random_dot,59.87654654429384,
right,right,speed,,,,,0.0,0.0,0.0,1.0,5.0,0.0,10.0,1.0,85.4037343999953,,,,,,,,,85.39396349998424,86.20306329999585,87.00332369998796,86.98734089999925,86.98740330000874,87.00332369998796,87.00332369998796,87.00332369998796,87.68930770002771,right,1.0,24.764186699991114,,,,,,,,,,,,,,,,,,,,,,,,,,,,,,sub-104,3.0,random_dot,59.87654654429384,
left,left,speed,,,,,0.0,0.0,0.0,1.0,5.0,1.0,11.0,0.0,87.70156810001936,,,,,,,,,87.69249879999552,88.0515331000206,88.85185560001992,88.83557340002153,88.83564689999912,88.85185560001992,88.85185560001992,88.85185560001992,89.46702959999675,left,1.0,24.6035829000175,,,,,,,,,,,,,,,,,,,,,,,,,,,,,,sub-104,3.0,random_dot,59.87654654429384,
right,right,speed,,,,,0.0,0.0,0.0,1.0,6.0,0.0,12.0,1.0,89.47216190001927,,,,,,,,,89.46838709997246,90.28279399999884,91.08276660001138,91.06688190001296,91.06694629997946,91.08276660001138,91.08276660001138,91.08276660001138,91.75156880001305,right,1.0,24.735862899920903,,,,,,,,,,,,,,,,,,,,,,,,,,,,,,sub-104,3.0,random_dot,59.87654654429384,
left,left,speed,,,,,0.0,0.0,0.0,1.0,6.0,1.0,13.0,0.0,91.7647129999823,,,,,,,,,91.75488379999295,91.86441219999688,92.66485960001592,92.64864390000002,92.64870880002854,92.66485960001592,92.66485960001592,92.66485960001592,93.23282690002816,left,1.0,24.635315699968487,,,,,,,,,,,,,,,,,,,,,,,,,,,,,,sub-104,3.0,random_dot,59.87654654429384,
left,left,speed,,,,,0.0,0.0,0.0,1.0,7.0,0.0,14.0,0.0,93.24654399999416,,,,,,,,,93.23578240000644,93.34650709998095,94.16293430002406,94.14603010000428,94.14605809998466,94.16293430002406,94.16293430002406,94.16293430002406,94.93035280000186,left,1.0,24.83815829997184,,,,,,,,,,,,,,,,,,,,,,,,,,,,,,sub-104,3.0,random_dot,59.87654654429384,
right,right,speed,,,,,0.0,0.0,0.0,1.0,7.0,1.0,15.0,1.0,94.9445137999719,,,,,,,,,94.93202519998886,95.29402359999948,96.09488799999237,96.07860180002172,96.07866320002358,96.09488799999237,96.09488799999237,96.09488799999237,96.64658120000968,right,1.0,24.619554099976085,,,,,,,,,,,,,,,,,,,,,,,,,,,,,,sub-104,3.0,random_dot,59.87654654429384,
left,left,speed,,,,,0.0,0.0,0.0,1.0,8.0,0.0,16.0,0.0,96.6601142999716,,,,,,,,,96.64951179997296,97.45913919998566,98.25949969998328,98.24354569998104,98.2436068999814,98.25949969998328,98.25949969998328,98.25949969998328,98.8277082000277,left,1.0,24.63693689997308,,,,,,,,,,,,,,,,,,,,,,,,,,,,,,sub-104,3.0,random_dot,59.87654654429384,
right,right,speed,,,,,0.0,0.0,0.0,1.0,8.0,1.0,17.0,1.0,98.84134169999744,,,,,,,,,98.83063350000884,98.94115720002446,99.75782400002936,99.7412279000273,99.74127850000514,99.75782400002936,99.75782400002936,99.75782400002936,100.99163920001592,right,1.0,25.3162791999639,,,,,,,,,,,,,,,,,,,,,,,,,,,,,,sub-104,3.0,random_dot,59.87654654429384,
right,right,speed,,,,,0.0,0.0,0.0,1.0,9.0,0.0,18.0,1.0,101.00557979999576,,,,,,,,,100.99346490000607,102.205051500001,103.02162680000764,103.00551699998324,103.00557949999347,103.02162680000764,103.02162680000764,103.02162680000764,103.82370349997656,right,1.0,24.87769950000802,,,,,,,,,,,,,,,,,,,,,,,,,,,,,,sub-104,3.0,random_dot,59.87654654429384,
left,left,speed,,,,,0.0,0.0,0.0,1.0,9.0,1.0,19.0,0.0,103.83641520002855,,,,,,,,,103.82651919999626,104.18672960001275,104.9865615000017,104.97062789998016,104.97069029998966,104.9865615000017,104.9865615000017,104.9865615000017,105.62053249997552,left,1.0,24.701738899981137,,,,,,,,,,,,,,,,,,,,,,,,,,,,,,sub-104,3.0,random_dot,59.87654654429384,
left,left,speed,,,,,0.0,0.0,0.0,1.0,10.0,0.0,20.0,0.0,105.6345866000047,,,,,,,,,105.62275600002611,105.98455709998962,106.7849647999974,106.76867429999402,106.76873830001568,106.7849647999974,106.7849647999974,106.7849647999974,107.57010770001216,left,1.0,24.86238219996449,,,,,,,,,,,,,,,,,,,,,,,,,,,,,,sub-104,3.0,random_dot,59.87654654429384,
right,right,speed,,,,,0.0,0.0,0.0,1.0,10.0,1.0,21.0,1.0,107.58317080000415,,,,,,,,,107.57306179997975,108.3829380000243,109.19909710000502,109.18314729997655,109.1832107999944,109.19909710000502,109.19909710000502,109.19909710000502,109.7181913999957,right,1.0,24.596506499976385,,,,,,,,,,,,,,,,,,,,,,,,,,,,,,sub-104,3.0,random_dot,59.87654654429384,
right,right,speed,,,,,0.0,0.0,0.0,1.0,11.0,0.0,22.0,1.0,109.73107630002778,,,,,,,,,109.72153069998603,110.93023280001944,111.74679609999292,111.7307619000203,111.73085049999644,111.74679609999292,111.74679609999292,111.74679609999292,112.23218110000016,left,0.0,24.554181199986488,,,,,,,,,,,,,,,,,,,,,,,,,,,,,,sub-104,3.0,random_dot,59.87654654429384,
left,left,speed,,,,,0.0,0.0,0.0,1.0,11.0,1.0,23.0,0.0,112.24539940000976,,,,,,,,,112.23506919998908,112.34542620001594,113.14549999998415,113.12984210002467,113.129921499989,113.14549999998415,113.14549999998415,113.14549999998415,113.6473184999777,left,1.0,24.581176799954847,,,,,,,,,,,,,,,,,,,,,,,,,,,,,,sub-104,3.0,random_dot,59.87654654429384,
left,left,speed,,,,,0.0,0.0,0.0,1.0,12.0,0.0,24.0,0.0,113.6605670999852,,,,,,,,,113.65025639999658,114.85984809999354,115.67628259997582,115.6595296000014,115.65956240001832,115.67628259997582,115.67628259997582,115.67628259997582,116.46115759998791,left,1.0,24.858709099935368,,,,,,,,,,,,,,,,,,,,,,,,,,,,,,sub-104,3.0,random_dot,59.87654654429384,
right,right,speed,,,,,0.0,0.0,0.0,1.0,12.0,1.0,25.0,1.0,116.47462110000195,,,,,,,,,116.46410230000038,117.67413810000288,118.49051059997872,118.47432410001056,118.47438670002155,118.49051059997872,118.49051059997872,118.49051059997872,119.22584959998494,left,0.0,24.8123427000246,,,,,,,,,,,,,,,,,,,,,,,,,,,,,,sub-104,3.0,random_dot,59.87654654429384,
right,right,speed,,,,,0.0,0.0,0.0,1.0,13.0,0.0,26.0,1.0,119.23871110001346,,,,,,,,,119.2286833000253,119.33868599997368,120.13938549999148,120.12306080001872,120.12311589997262,120.13938549999148,120.13938549999148,120.13938549999148,120.77482019999296,right,1.0,24.706660399970133,,,,,,,,,,,,,,,,,,,,,,,,,,,,,,sub-104,3.0,random_dot,59.87654654429384,
left,left,speed,,,,,0.0,0.0,0.0,1.0,13.0,1.0,27.0,0.0,120.78742200002308,,,,,,,,,120.77806340000824,121.98626759997568,122.78640340000857,122.77031430002536,122.7703764999751,122.78640340000857,122.78640340000857,122.78640340000857,123.38761690002866,left,1.0,24.66881519998424,,,,,,,,,,,,,,,,,,,,,,,,,,,,,,sub-104,3.0,random_dot,59.87654654429384,
left,left,speed,,,,,0.0,0.0,0.0,1.0,14.0,0.0,28.0,0.0,123.40136309998344,,,,,,,,,123.38970220001649,123.50138059997698,124.30183700000634,124.28601460001664,124.28607690002536,124.30183700000634,124.30183700000634,124.30183700000634,124.7857019000221,left,1.0,24.55205900000874,,,,,,,,,,,,,,,,,,,,,,,,,,,,,,sub-104,3.0,random_dot,59.87654654429384,
right,right,speed,,,,,0.0,0.0,0.0,1.0,14.0,1.0,29.0,1.0,124.80003809998745,,,,,,,,,124.787354399974,124.90014089999022,125.7169102000189,125.69939020002494,125.69940689997748,125.7169102000189,125.7169102000189,125.7169102000189,126.30255139997462,right,1.0,24.664939099980984,,,,,,,,,,,,,,,,,,,,,,,,,,,,,,sub-104,3.0,random_dot,59.87654654429384,
right,right,speed,,,,,0.0,0.0,0.0,1.0,15.0,0.0,30.0,1.0,126.3157298999722,,,,,,,,,126.30581160000293,126.4158847000217,127.23200209997594,127.21535030001542,127.2153828999726,127.23200209997594,127.23200209997594,127.23200209997594,128.1836817000294,right,1.0,25.028622000012547,,,,,,,,,,,,,,,,,,,,,,,,,,,,,,sub-104,3.0,random_dot,59.87654654429384,
left,left,speed,,,,,0.0,0.0,0.0,1.0,15.0,1.0,31.0,0.0,128.19695840001805,,,,,,,,,128.1865461000125,128.99621190002654,129.79635630000848,129.78081470000325,129.78087040001992,129.79635630000848,129.79635630000848,129.79635630000848,130.2817470000009,left,1.0,24.55373079999117,,,,,,,,,,,,,,,,,,,,,,,,,,,,,,sub-104,3.0,random_dot,59.87654654429384,
left,left,speed,,,,,0.0,0.0,0.0,1.0,16.0,0.0,32.0,0.0,130.29511399997864,,,,,,,,,130.28466449998086,131.09474339999724,131.89461409999058,131.8790787999751,131.87913999997545,131.89461409999058,131.89461409999058,131.89461409999058,132.4637907000142,left,1.0,24.643240999954287,,,,,,,,,,,,,,,,,,,,,,,,,,,,,,sub-104,3.0,random_dot,59.87654654429384,
right,right,speed,,,,,0.0,0.0,0.0,1.0,16.0,1.0,33.0,1.0,132.47678020002786,,,,,,,,,132.46724670002004,132.57646339997882,133.3765076000127,133.36073319998104,133.36079559999052,133.3765076000127,133.3765076000127,133.3765076000127,134.06099179998273,right,1.0,24.764608199940994,,,,,,,,,,,,,,,,,,,,,,,,,,,,,,sub-104,3.0,random_dot,59.87654654429384,
right,right,speed,,,,,0.0,0.0,0.0,1.0,17.0,0.0,34.0,1.0,134.07513820001623,,,,,,,,,134.06316269998206,134.8742400999763,135.67446710000513,135.65821229998255,135.65826709999237,135.67446710000513,135.67446710000513,135.67446710000513,136.37658919999376,right,1.0,24.78431219997583,,,,,,,,,,,,,,,,,,,,,,,,,,,,,,sub-104,3.0,random_dot,59.87654654429384,
left,left,speed,,,,,0.0,0.0,0.0,1.0,17.0,1.0,35.0,0.0,136.38935090001905,,,,,,,,,136.3794964000117,137.5881516999798,138.38801070000045,138.3713390000048,138.37137509998863,138.38801070000045,138.38801070000045,138.38801070000045,138.89079309999943,left,1.0,24.577420399989933,,,,,,,,,,,,,,,,,,,,,,,,,,,,,,sub-104,3.0,random_dot,59.87654654429384,
right,right,speed,,,,,0.0,0.0,0.0,1.0,18.0,0.0,36.0,1.0,138.90370079997228,,,,,,,,,138.89428170002066,139.0036844999995,139.80387920001522,139.78773969999747,139.78780320001533,139.80387920001522,139.80387920001522,139.80387920001522,140.40471700002672,left,0.0,24.67704929993488,,,,,,,,,,,,,,,,,,,,,,,,,,,,,,sub-104,3.0,random_dot,59.87654654429384,
left,left,speed,,,,,0.0,0.0,0.0,1.0,18.0,1.0,37.0,0.0,140.4187346000108,,,,,,,,,140.40643720002845,140.76880660001189,141.5689802999841,141.55269370001042,141.55274800001644,141.5689802999841,141.5689802999841,141.5689802999841,142.15380289999302,left,1.0,24.6553829999757,,,,,,,,,,,,,,,,,,,,,,,,,,,,,,sub-104,3.0,random_dot,59.87654654429384,
left,left,speed,,,,,0.0,0.0,0.0,1.0,19.0,0.0,38.0,0.0,142.16730909998296,,,,,,,,,142.15665590000572,142.9667705000029,143.76684420002857,143.75061980000464,143.75067470001522,143.76684420002857,143.76684420002857,143.76684420002857,144.2687243000255,left,1.0,24.57143680000445,,,,,,,,,,,,,,,,,,,,,,,,,,,,,,sub-104,3.0,random_dot,59.87654654429384,
right,right,speed,,,,,0.0,0.0,0.0,1.0,19.0,1.0,39.0,1.0,144.2823690000223,,,,,,,,,144.271962800005,145.0813847000245,145.88186680001672,145.8656630999758,145.8657301000203,145.88186680001672,145.88186680001672,145.88186680001672,146.39939149998827,right,1.0,24.597819999966305,,,,,,,,,,,,,,,,,,,,,,,,,,,,,,sub-104,3.0,random_dot,59.87654654429384,
right,right,speed,,,,,0.0,0.0,0.0,1.0,20.0,0.0,40.0,1.0,146.41343800001778,,,,,,,,,146.40157550002914,147.2126861999859,148.01326959999278,147.9969024999882,147.9969795999932,148.01326959999278,148.01326959999278,148.01326959999278,148.41424920002464,left,0.0,24.48034569993615,,,,,,,,,,,,,,,,,,,,,,,,,,,,,,sub-104,3.0,random_dot,59.87654654429384,
left,left,speed,,,,,0.0,0.0,0.0,1.0,20.0,1.0,41.0,0.0,148.42770290002227,,,,,,,,,148.41634820000036,149.22732970002107,150.0274826000095,150.01144550001482,150.01150109997252,150.0274826000095,150.0274826000095,150.0274826000095,150.7115370000247,left,1.0,24.75301289994968,,,,,,,,,,,,,,,,,,,,,,,,,,,,,,sub-104,3.0,random_dot,59.87654654429384,
left,left,speed,,,,,0.0,0.0,0.0,1.0,21.0,0.0,42.0,0.0,150.72570589999668,,,,,,,,,150.7133240000112,150.8258474000031,151.62623599998187,151.61035390000325,151.61041570000816,151.62623599998187,151.62623599998187,151.62623599998187,152.31139749998692,left,1.0,24.75223409995669,,,,,,,,,,,,,,,,,,,,,,,,,,,,,,sub-104,3.0,random_dot,59.87654654429384,
right,right,speed,,,,,0.0,0.0,0.0,1.0,21.0,1.0,43.0,1.0,152.32453430001624,,,,,,,,,152.31456450000405,152.42442170000868,153.22462709998945,153.2084968999843,153.2085603000014,153.22462709998945,153.22462709998945,153.22462709998945,153.975494000013,right,1.0,24.82139879994793,,,,,,,,,,,,,,,,,,,,,,,,,,,,,,sub-104,3.0,random_dot,59.87654654429384,
left,left,speed,,,,,0.0,0.0,0.0,1.0,22.0,0.0,44.0,0.0,153.98932659998536,,,,,,,,,153.97762600000715,154.78906709997682,155.58952490001684,155.57335129997227,155.57341190002626,155.58952490001684,155.58952490001684,155.58952490001684,156.20794880000176,left,1.0,24.69583449995844,,,,,,,,,,,,,,,,,,,,,,,,,,,,,,sub-104,3.0,random_dot,59.87654654429384,
right,right,speed,,,,,0.0,0.0,0.0,1.0,22.0,1.0,45.0,1.0,156.22125379997306,,,,,,,,,156.2112904000096,157.4198077999754,158.219939099974,158.20395559997996,158.2040199000039,158.219939099974,158.219939099974,158.219939099974,158.75481650000438,right,1.0,24.61109799996484,,,,,,,,,,,,,,,,,,,,,,,,,,,,,,sub-104,3.0,random_dot,59.87654654429384,
left,left,speed,,,,,0.0,0.0,0.0,1.0,23.0,0.0,46.0,0.0,158.7682616999955,,,,,,,,,158.7569100999972,159.96751960000256,160.7675506999949,160.75145590002649,160.75152330001583,160.7675506999949,160.7675506999949,160.7675506999949,161.25317420001377,left,1.0,24.56600250001065,,,,,,,,,,,,,,,,,,,,,,,,,,,,,,sub-104,3.0,random_dot,59.87654654429384,
right,right,speed,,,,,0.0,0.0,0.0,1.0,23.0,1.0,47.0,1.0,161.2663048999966,,,,,,,,,161.25606829999015,161.36599299998488,162.16615880001336,162.1501521000173,162.15020570001798,162.16615880001336,162.16615880001336,162.16615880001336,162.7679767999798,right,1.0,24.681815599964462,,,,,,,,,,,,,,,,,,,,,,,,,,,,,,sub-104,3.0,random_dot,59.87654654429384,
right,right,speed,,,,,0.0,0.0,0.0,1.0,24.0,0.0,48.0,1.0,162.78148850001162,,,,,,,,,162.77080930001102,163.58062080002856,164.3808648000122,164.36451939999824,164.36457400000654,164.3808648000122,164.3808648000122,164.3808648000122,165.08264849998525,left,0.0,24.77326579997316,,,,,,,,,,,,,,,,,,,,,,,,,,,,,,sub-104,3.0,random_dot,59.87654654429384,
left,left,speed,,,,,0.0,0.0,0.0,1.0,24.0,1.0,49.0,0.0,165.09581949998392,,,,,,,,,165.085881099978,165.44550590001745,166.24577259999933,166.2298880000017,166.22995040001115,166.24577259999933,166.24577259999933,166.24577259999933,166.96425989997806,left,1.0,24.797817799961194,,,,,,,,,,,,,,,,,,,,,,,,,,,,,,sub-104,3.0,random_dot,59.87654654429384,
right,right,speed,,,,,0.0,0.0,0.0,1.0,25.0,0.0,50.0,1.0,166.9775789999985,,,,,,,,,166.9671371000004,167.07747700001346,167.8777860000264,167.86143970000558,167.86149470001692,167.8777860000264,167.8777860000264,167.8777860000264,168.4462152000051,right,1.0,24.63707439997233,,,,,,,,,,,,,,,,,,,,,,,,,,,,,,sub-104,3.0,random_dot,59.87654654429384,
left,left,speed,,,,,0.0,0.0,0.0,1.0,25.0,1.0,51.0,0.0,168.45981819997542,,,,,,,,,168.44913429999724,168.80922100000316,169.60928069998045,169.5935965999961,169.59365200001048,169.60928069998045,169.60928069998045,169.60928069998045,170.12801200000104,left,1.0,24.590155499987304,,,,,,,,,,,,,,,,,,,,,,,,,,,,,,sub-104,3.0,random_dot,59.87654654429384,
left,left,speed,,,,,0.0,0.0,0.0,1.0,26.0,0.0,52.0,0.0,170.14113770000404,,,,,,,,,170.13082889997168,170.49083369999423,171.29094969999278,171.27463830000488,171.27469320001546,171.29094969999278,171.29094969999278,171.29094969999278,172.04295079997974,left,1.0,24.83131549996324,,,,,,,,,,,,,,,,,,,,,,,,,,,,,,sub-104,3.0,random_dot,59.87654654429384,
right,right,speed,,,,,0.0,0.0,0.0,1.0,26.0,1.0,53.0,1.0,172.05600849998882,,,,,,,,,172.04577510000672,172.4059575999854,173.2065226000268,173.19017140002688,173.19023299997207,173.2065226000268,173.2065226000268,173.2065226000268,173.79162789997645,right,1.0,24.663660099962726,,,,,,,,,,,,,,,,,,,,,,,,,,,,,,sub-104,3.0,random_dot,59.87654654429384,
left,left,speed,,,,,0.0,0.0,0.0,1.0,27.0,0.0,54.0,0.0,173.80465150001692,,,,,,,,,173.79483149998123,174.60411489999387,175.40418160002446,175.388208999997,175.38826530001825,175.40418160002446,175.40418160002446,175.40418160002446,175.9382506000111,left,1.0,24.611886699975003,,,,,,,,,,,,,,,,,,,,,,,,,,,,,,sub-104,3.0,random_dot,59.87654654429384,
right,right,speed,,,,,0.0,0.0,0.0,1.0,27.0,1.0,55.0,1.0,175.9519394999952,,,,,,,,,175.9405429000035,176.0529248000239,176.8692114999867,176.85331580002094,176.85338069999125,176.8692114999867,176.8692114999867,176.8692114999867,177.5879341000109,right,1.0,24.801660899946,,,,,,,,,,,,,,,,,,,,,,,,,,,,,,sub-104,3.0,random_dot,59.87654654429384,
right,right,speed,,,,,0.0,0.0,0.0,1.0,28.0,0.0,56.0,1.0,177.60062679997645,,,,,,,,,177.59001540002646,178.40062700002454,179.21704209997552,179.2009508999763,179.20101259998046,179.21704209997552,179.21704209997552,179.21704209997552,180.4344734000042,left,0.0,25.29420929995831,,,,,,,,,,,,,,,,,,,,,,,,,,,,,,sub-104,3.0,random_dot,59.87654654429384,
left,left,speed,,,,,0.0,0.0,0.0,1.0,28.0,1.0,57.0,0.0,180.44779710000148,,,,,,,,,180.43616310000647,180.54819960001623,181.34844929998508,181.3322017000173,181.33226479997396,181.34844929998508,181.34844929998508,181.34844929998508,182.1164901999873,right,0.0,24.83990179997636,,,,,,,,,,,,,,,,,,,,,,,,,,,,,,sub-104,3.0,random_dot,59.87654654429384,
right,right,speed,,,,,0.0,0.0,0.0,1.0,29.0,0.0,58.0,1.0,182.13001650001388,,,,,,,,,182.11937079997733,183.3290004999726,184.1456497000181,184.1293799999985,184.1294348000083,184.1456497000181,184.1456497000181,184.1456497000181,184.7633683999884,right,1.0,24.698438399937004,,,,,,,,,,,,,,,,,,,,,,,,,,,,,,sub-104,3.0,random_dot,59.87654654429384,
left,left,speed,,,,,0.0,0.0,0.0,1.0,29.0,1.0,59.0,0.0,184.77762020000955,,,,,,,,,184.7653052000096,185.1275985999964,185.9273737000185,185.91154160001315,185.91160310001575,185.9273737000185,185.9273737000185,185.9273737000185,186.4459725000197,left,1.0,24.586580199946184,,,,,,,,,,,,,,,,,,,,,,,,,,,,,,sub-104,3.0,random_dot,59.87654654429384,
,,speed,,,,,0.0,0.0,0.0,1.0,,,,,,,,,,,,,,,,,,,,,,,,,,,,,,,,,,,,,,,,,,,,,,,,,,,,,,,sub-104,3.0,random_dot,59.87654654429384,
left,left,accuracy,,,,,0.0,1.0,1.0,0.0,0.0,0.0,0.0,0.0,188.9845173999784,,,,,,,,,188.979496999993,190.17274140001973,190.97270109999224,190.9567838999792,190.95685329998375,190.97270109999224,190.97270109999224,190.97270109999224,191.6070167000289,left,1.0,24.714663099963214,,,,,,,,,,,,,,,,,,,,186.44912449998083,186.4684393000207,186.4684393000207,188.95984089997364,space,26.57109569996828,,,,,sub-104,3.0,random_dot,59.87654654429384,
right,right,accuracy,,,,,0.0,1.0,1.0,0.0,0.0,1.0,1.0,1.0,191.62083650002023,,,,,,,,,191.6098373000277,191.7209919000161,192.52133090002465,192.50538109999616,192.5054428000003,192.52133090002465,192.52133090002465,192.52133090002465,193.1231182999909,right,1.0,24.681712899997365,,,,,,,,,,,,,,,,,,,,,,,,,,,,,,sub-104,3.0,random_dot,59.87654654429384,
left,left,accuracy,,,,,0.0,1.0,1.0,0.0,1.0,0.0,2.0,0.0,193.13668390002567,,,,,,,,,193.12607880000724,193.2361488000024,194.0366347000236,194.0203827000223,194.02043849998157,194.0366347000236,194.0366347000236,194.0366347000236,194.5876666000113,left,1.0,24.62942509993445,,,,,,,,,,,,,,,,,,,,,,,,,,,,,,sub-104,3.0,random_dot,59.87654654429384,
right,right,accuracy,,,,,0.0,1.0,1.0,0.0,1.0,1.0,3.0,1.0,194.60137240000768,,,,,,,,,194.5900298000197,194.9514012999716,195.75176200002895,195.7354479000205,195.7355149000068,195.75176200002895,195.75176200002895,195.75176200002895,196.3214875999838,right,1.0,24.65127400000347,,,,,,,,,,,,,,,,,,,,,,,,,,,,,,sub-104,3.0,random_dot,59.87654654429384,
right,right,accuracy,,,,,0.0,1.0,1.0,0.0,2.0,0.0,4.0,1.0,196.33325590001184,,,,,,,,,196.3244516000268,197.13228189997608,197.9328251000261,197.9166729000281,197.91672809998272,197.9328251000261,197.9328251000261,197.9328251000261,198.667878200009,left,0.0,24.812837399949785,,,,,,,,,,,,,,,,,,,,,,,,,,,,,,sub-104,3.0,random_dot,59.87654654429384,
left,left,accuracy,,,,,0.0,1.0,1.0,0.0,2.0,1.0,5.0,0.0,198.681605699996,,,,,,,,,198.67080399999395,198.78127759997733,199.581757500011,199.56507479998984,199.56513030000497,199.581757500011,199.581757500011,199.581757500011,200.3662997999927,left,1.0,24.863553699979093,,,,,,,,,,,,,,,,,,,,,,,,,,,,,,sub-104,3.0,random_dot,59.87654654429384,
left,left,accuracy,,,,,0.0,1.0,1.0,0.0,3.0,0.0,6.0,0.0,200.3796167999972,,,,,,,,,200.36903360002907,201.57862709998156,202.37937749997943,202.3626659999718,202.362728099979,202.37937749997943,202.37937749997943,202.37937749997943,203.28037880000196,right,0.0,24.978248499974143,,,,,,,,,,,,,,,,,,,,,,,,,,,,,,sub-104,3.0,random_dot,59.87654654429384,
right,right,accuracy,,,,,0.0,1.0,1.0,0.0,3.0,1.0,7.0,1.0,203.2936098999926,,,,,,,,,203.28319749998627,204.09301269997377,204.89319889998296,204.87698719999756,204.8770477999933,204.89319889998296,204.89319889998296,204.89319889998296,205.52769140002783,right,1.0,24.715580100019,,,,,,,,,,,,,,,,,,,,,,,,,,,,,,sub-104,3.0,random_dot,59.87654654429384,
right,right,accuracy,,,,,0.0,1.0,1.0,0.0,4.0,0.0,8.0,1.0,205.5415449999855,,,,,,,,,205.5298186999862,206.74065059999705,207.54050870001083,207.52492900000647,207.52499339997303,207.54050870001083,207.54050870001083,207.54050870001083,208.0250868999865,left,0.0,24.566719399997965,,,,,,,,,,,,,,,,,,,,,,,,,,,,,,sub-104,3.0,random_dot,59.87654654429384,
left,left,accuracy,,,,,0.0,1.0,1.0,0.0,4.0,1.0,9.0,0.0,208.03883360000327,,,,,,,,,208.02722709998488,208.8388363000122,209.65523249999387,209.6395442999783,209.6396320000058,209.65523249999387,209.65523249999387,209.65523249999387,210.23985359998187,left,1.0,24.65272339998046,,,,,,,,,,,,,,,,,,,,,,,,,,,,,,sub-104,3.0,random_dot,59.87654654429384,
right,right,accuracy,,,,,0.0,1.0,1.0,0.0,5.0,0.0,10.0,1.0,210.25352869997727,,,,,,,,,210.24196329998085,211.4526786999777,212.2526716000284,212.23668450000696,212.2367390000145,212.2526716000284,212.2526716000284,212.2526716000284,212.7879577000276,right,1.0,24.608004099980462,,,,,,,,,,,,,,,,,,,,,,,,,,,,,,sub-104,3.0,random_dot,59.87654654429384,
left,left,accuracy,,,,,0.0,1.0,1.0,0.0,5.0,1.0,11.0,0.0,212.80146829999285,,,,,,,,,212.79091699997664,212.90171559999,213.7181980999885,213.70217120001325,213.70228819997283,213.7181980999885,213.7181980999885,213.7181980999885,214.23579419997984,left,1.0,24.58573589997832,,,,,,,,,,,,,,,,,,,,,,,,,,,,,,sub-104,3.0,random_dot,59.87654654429384,
right,right,accuracy,,,,,0.0,1.0,1.0,0.0,6.0,0.0,12.0,1.0,214.2497163999942,,,,,,,,,214.2379748999956,214.34982210001908,215.15019329998177,215.13398849999064,215.1340507999994,215.15019329998177,215.15019329998177,215.15019329998177,216.1183758000261,right,1.0,25.046656499966048,,,,,,,,,,,,,,,,,,,,,,,,,,,,,,sub-104,3.0,random_dot,59.87654654429384,
left,left,accuracy,,,,,0.0,1.0,1.0,0.0,6.0,1.0,13.0,0.0,216.1314292000025,,,,,,,,,216.12126300000816,216.9311384999892,217.73165259999223,217.71497069997716,217.71503199997824,217.73165259999223,217.73165259999223,217.73165259999223,218.83217790001072,left,1.0,25.18086379993474,,,,,,,,,,,,,,,,,,,,,,,,,,,,,,sub-104,3.0,random_dot,59.87654654429384,
right,right,accuracy,,,,,0.0,1.0,1.0,0.0,7.0,0.0,14.0,1.0,218.84587760001887,,,,,,,,,218.83445510000456,220.04456110001772,220.84510380000572,220.8286404000246,220.82870289997663,220.84510380000572,220.84510380000572,220.84510380000572,221.5122899999842,right,1.0,24.74501029995736,,,,,,,,,,,,,,,,,,,,,,,,,,,,,,sub-104,3.0,random_dot,59.87654654429384,
left,left,accuracy,,,,,0.0,1.0,1.0,0.0,7.0,1.0,15.0,0.0,221.52677110000516,,,,,,,,,221.51441669999625,221.8765526000061,222.67636979999952,222.6607031999738,222.66076539998176,222.67636979999952,222.67636979999952,222.67636979999952,223.51107339997543,right,0.0,24.908852199965622,,,,,,,,,,,,,,,,,,,,,,,,,,,,,,sub-104,3.0,random_dot,59.87654654429384,
right,right,accuracy,,,,,0.0,1.0,1.0,0.0,8.0,0.0,16.0,1.0,223.52471470000452,,,,,,,,,223.5138905000058,223.8748589999741,224.6917405999848,224.67538029997377,224.67544429999543,224.6917405999848,224.6917405999848,224.6917405999848,225.3932353000273,right,1.0,24.777736000018194,,,,,,,,,,,,,,,,,,,,,,,,,,,,,,sub-104,3.0,random_dot,59.87654654429384,
left,left,accuracy,,,,,0.0,1.0,1.0,0.0,8.0,1.0,17.0,0.0,225.4067169000045,,,,,,,,,225.3964734000037,226.20586729998467,227.02258350001648,227.00624890002652,227.00631020002768,227.02258350001648,227.02258350001648,227.02258350001648,227.55806910002136,left,1.0,24.602124999975786,,,,,,,,,,,,,,,,,,,,,,,,,,,,,,sub-104,3.0,random_dot,59.87654654429384,
right,right,accuracy,,,,,0.0,1.0,1.0,0.0,9.0,0.0,18.0,1.0,227.57112009997945,,,,,,,,,227.5613422999741,227.67103109997697,228.4877971999813,228.47164639999392,228.4717225999921,228.4877971999813,228.4877971999813,228.4877971999813,229.3219123000163,right,1.0,24.9135250999243,,,,,,,,,,,,,,,,,,,,,,,,,,,,,,sub-104,3.0,random_dot,59.87654654429384,
left,left,accuracy,,,,,0.0,1.0,1.0,0.0,9.0,1.0,19.0,0.0,229.3362208000035,,,,,,,,,229.32403140002864,229.4358426000108,230.2363043000223,230.22035870002583,230.22042119997784,230.2363043000223,230.2363043000223,230.2363043000223,231.3374514000025,left,1.0,25.1748787999386,,,,,,,,,,,,,,,,,,,,,,,,,,,,,,sub-104,3.0,random_dot,59.87654654429384,
right,right,accuracy,,,,,0.0,1.0,1.0,0.0,10.0,0.0,20.0,1.0,231.35052360000557,,,,,,,,,231.34027129999595,231.4506468999898,232.2506091999821,232.2343261999777,232.2344063000055,232.2506091999821,232.2506091999821,232.2506091999821,232.83602609997612,right,1.0,24.663972799957264,,,,,,,,,,,,,,,,,,,,,,,,,,,,,,sub-104,3.0,random_dot,59.87654654429384,
left,left,accuracy,,,,,0.0,1.0,1.0,0.0,10.0,1.0,21.0,0.0,232.84935289999703,,,,,,,,,232.83895509998547,233.64833280001767,234.4486910999985,234.43254309997428,234.43259909999324,234.4486910999985,234.4486910999985,234.4486910999985,235.550196599972,left,1.0,25.174244299996644,,,,,,,,,,,,,,,,,,,,,,,,,,,,,,sub-104,3.0,random_dot,59.87654654429384,
left,left,accuracy,,,,,0.0,1.0,1.0,0.0,11.0,0.0,22.0,0.0,235.56348770001205,,,,,,,,,235.55323050002332,235.6635753000155,236.4802076999913,236.4639421000029,236.4639985000249,236.4802076999913,236.4802076999913,236.4802076999913,237.68180840002609,left,1.0,25.27629830001388,,,,,,,,,,,,,,,,,,,,,,,,,,,,,,sub-104,3.0,random_dot,59.87654654429384,
right,right,accuracy,,,,,0.0,1.0,1.0,0.0,11.0,1.0,23.0,1.0,237.69497040001443,,,,,,,,,237.684677799989,238.044352900004,238.8449381000246,238.8285617000074,238.82862240000395,238.8449381000246,238.8449381000246,238.8449381000246,239.36284590000287,right,1.0,24.59261009999318,,,,,,,,,,,,,,,,,,,,,,,,,,,,,,sub-104,3.0,random_dot,59.87654654429384,
right,right,accuracy,,,,,0.0,1.0,1.0,0.0,12.0,0.0,24.0,1.0,239.37642939999927,,,,,,,,,239.3649811000214,239.72637009999016,240.5433275999967,240.52594800002407,240.52597840002272,240.5433275999967,240.5433275999967,240.5433275999967,241.14467700000387,right,1.0,24.67244379996555,,,,,,,,,,,,,,,,,,,,,,,,,,,,,,sub-104,3.0,random_dot,59.87654654429384,
left,left,accuracy,,,,,0.0,1.0,1.0,0.0,12.0,1.0,25.0,0.0,241.1582339999732,,,,,,,,,241.14753319998272,241.50763130001724,242.30785809998636,242.29161969997224,242.29167519998737,242.30785809998636,242.30785809998636,242.30785809998636,243.0261650999892,left,1.0,24.78976949997013,,,,,,,,,,,,,,,,,,,,,,,,,,,,,,sub-104,3.0,random_dot,59.87654654429384,
right,right,accuracy,,,,,0.0,1.0,1.0,0.0,13.0,0.0,26.0,1.0,243.0395798999816,,,,,,,,,243.0291472999961,243.13986320002005,243.93991800001825,243.924297199992,243.92436050000836,243.93991800001825,243.93991800001825,243.93991800001825,244.55852550000415,left,0.0,24.68815459997859,,,,,,,,,,,,,,,,,,,,,,,,,,,,,,sub-104,3.0,random_dot,59.87654654429384,
left,left,accuracy,,,,,0.0,1.0,1.0,0.0,13.0,1.0,27.0,0.0,244.57194460002935,,,,,,,,,244.56131900002947,245.37096530001145,246.17138399998657,246.1554586000275,246.15552129998105,246.17138399998657,246.17138399998657,246.17138399998657,246.73899149999488,left,1.0,24.644836999941617,,,,,,,,,,,,,,,,,,,,,,,,,,,,,,sub-104,3.0,random_dot,59.87654654429384,
left,left,accuracy,,,,,0.0,1.0,1.0,0.0,14.0,0.0,28.0,0.0,246.7530135000125,,,,,,,,,246.74120029999176,247.10251210001297,247.90275830001335,247.88637790002397,247.88643329998013,247.90275830001335,247.90275830001335,247.90275830001335,248.42130470002303,right,0.0,24.58561879995977,,,,,,,,,,,,,,,,,,,,,,,,,,,,,,sub-104,3.0,random_dot,59.87654654429384,
right,right,accuracy,,,,,0.0,1.0,1.0,0.0,14.0,1.0,29.0,1.0,248.4347988999798,,,,,,,,,248.42426290002183,248.5344841000042,249.33473350002896,249.3186612999998,249.318723400007,249.33473350002896,249.33473350002896,249.33473350002896,249.98596439999528,right,1.0,24.731897999998186,,,,,,,,,,,,,,,,,,,,,,,,,,,,,,sub-104,3.0,random_dot,59.87654654429384,
left,left,accuracy,,,,,0.0,1.0,1.0,0.0,15.0,0.0,30.0,0.0,249.99955589999445,,,,,,,,,249.9880847000168,251.1987145000021,251.9989665999892,251.9828888999764,251.9829506999813,251.9989665999892,251.9989665999892,251.9989665999892,252.6507297999924,left,1.0,24.734329300001264,,,,,,,,,,,,,,,,,,,,,,,,,,,,,,sub-104,3.0,random_dot,59.87654654429384,
right,right,accuracy,,,,,0.0,1.0,1.0,0.0,15.0,1.0,31.0,1.0,252.6637850999832,,,,,,,,,252.6529970000265,253.86322050000308,254.6798232999863,254.66361709998452,254.66367300000277,254.6798232999863,254.6798232999863,254.6798232999863,255.3986507999944,right,1.0,24.79538619995583,,,,,,,,,,,,,,,,,,,,,,,,,,,,,,sub-104,3.0,random_dot,59.87654654429384,
right,right,accuracy,,,,,0.0,1.0,1.0,0.0,16.0,0.0,32.0,1.0,255.4113768999814,,,,,,,,,255.40173069998852,256.2106879000203,257.027156999975,257.0104292000178,257.0104623999796,257.027156999975,257.027156999975,257.027156999975,257.91159019997576,left,0.0,24.95382469997276,,,,,,,,,,,,,,,,,,,,,,,,,,,,,,sub-104,3.0,random_dot,59.87654654429384,
left,left,accuracy,,,,,0.0,1.0,1.0,0.0,16.0,1.0,33.0,0.0,257.92541969998274,,,,,,,,,257.913292000012,258.27554469997995,259.075821299979,259.0597816000227,259.0598431000253,259.075821299979,259.075821299979,259.075821299979,259.9933060000185,left,1.0,24.98897579999175,,,,,,,,,,,,,,,,,,,,,,,,,,,,,,sub-104,3.0,random_dot,59.87654654429384,
right,right,accuracy,,,,,0.0,1.0,1.0,0.0,17.0,0.0,34.0,1.0,260.00691719999304,,,,,,,,,259.99544730002526,261.20622699998785,262.00617130001774,261.99086239998,261.99092940002447,262.00617130001774,262.00617130001774,262.00617130001774,262.69078000000445,right,1.0,24.757941399991974,,,,,,,,,,,,,,,,,,,,,,,,,,,,,,sub-104,3.0,random_dot,59.87654654429384,
left,left,accuracy,,,,,0.0,1.0,1.0,0.0,17.0,1.0,35.0,0.0,262.7047020000173,,,,,,,,,262.6929260999896,263.05443750001723,263.8544548000209,263.8385022999719,263.8385575999855,263.8544548000209,263.8544548000209,263.8544548000209,264.48958739999216,left,1.0,24.71284910000395,,,,,,,,,,,,,,,,,,,,,,,,,,,,,,sub-104,3.0,random_dot,59.87654654429384,
left,left,accuracy,,,,,0.0,1.0,1.0,0.0,18.0,0.0,36.0,0.0,264.5031427000067,,,,,,,,,264.4925744999782,264.85273829998914,265.6530558000086,265.63714990002336,265.6372130999807,265.6530558000086,265.6530558000086,265.6530558000086,266.6382832999807,right,0.0,25.066882999963127,,,,,,,,,,,,,,,,,,,,,,,,,,,,,,sub-104,3.0,random_dot,59.87654654429384,
right,right,accuracy,,,,,0.0,1.0,1.0,0.0,18.0,1.0,37.0,1.0,266.65091780002695,,,,,,,,,266.6411462000105,266.7509822000284,267.55099399999017,267.5351939999964,267.5352494000108,267.55099399999017,267.55099399999017,267.55099399999017,268.15281609998783,left,0.0,24.677339599933475,,,,,,,,,,,,,,,,,,,,,,,,,,,,,,sub-104,3.0,random_dot,59.87654654429384,
right,right,accuracy,,,,,0.0,1.0,1.0,0.0,19.0,0.0,38.0,1.0,268.16629650001414,,,,,,,,,268.15568069997244,268.965575499984,269.7655261000036,269.7494595000171,269.7495137000224,269.7655261000036,269.7655261000036,269.7655261000036,270.7009231999982,left,0.0,25.006831499980763,,,,,,,,,,,,,,,,,,,,,,,,,,,,,,sub-104,3.0,random_dot,59.87654654429384,
left,left,accuracy,,,,,0.0,1.0,1.0,0.0,19.0,1.0,39.0,0.0,270.71372930001235,,,,,,,,,270.703718099976,271.0640064000036,271.88033319998067,271.86421179998433,271.86429090000456,271.88033319998067,271.88033319998067,271.88033319998067,272.61531010002363,right,0.0,24.80399829999078,,,,,,,,,,,,,,,,,,,,,,,,,,,,,,sub-104,3.0,random_dot,59.87654654429384,
left,left,accuracy,,,,,0.0,1.0,1.0,0.0,20.0,0.0,40.0,0.0,272.6285487000132,,,,,,,,,272.61834210000234,273.82764049997786,274.6282016999903,274.6115350999753,274.6115925000049,274.6282016999903,274.6282016999903,274.6282016999903,275.2965666999808,left,1.0,24.74471259996062,,,,,,,,,,,,,,,,,,,,,,,,,,,,,,sub-104,3.0,random_dot,59.87654654429384,
right,right,accuracy,,,,,0.0,1.0,1.0,0.0,20.0,1.0,41.0,1.0,275.30936229997315,,,,,,,,,275.2993951999815,276.50866230000975,277.32537460001186,277.30921330000274,277.30926579999505,277.32537460001186,277.32537460001186,277.32537460001186,277.96031769999536,right,1.0,24.70980429998599,,,,,,,,,,,,,,,,,,,,,,,,,,,,,,sub-104,3.0,random_dot,59.87654654429384,
left,left,accuracy,,,,,0.0,1.0,1.0,0.0,21.0,0.0,42.0,0.0,277.9737277000095,,,,,,,,,277.9631341000204,278.32351590000326,279.1237240000046,279.1076581000234,279.1077199000283,279.1237240000046,279.1237240000046,279.1237240000046,279.8421477000229,left,1.0,24.785609299957287,,,,,,,,,,,,,,,,,,,,,,,,,,,,,,sub-104,3.0,random_dot,59.87654654429384,
right,right,accuracy,,,,,0.0,1.0,1.0,0.0,21.0,1.0,43.0,1.0,279.8552440999774,,,,,,,,,279.8456665999838,280.65463519998593,281.4549955999828,281.43866490002256,281.4387489000219,281.4549955999828,281.4549955999828,281.4549955999828,282.78932370000985,right,1.0,25.406597599969245,,,,,,,,,,,,,,,,,,,,,,,,,,,,,,sub-104,3.0,random_dot,59.87654654429384,
right,right,accuracy,,,,,0.0,1.0,1.0,0.0,22.0,0.0,44.0,1.0,282.8029128999915,,,,,,,,,282.7922376000206,282.90226080000866,283.70264879998285,283.6867761000176,283.68683700001566,283.70264879998285,283.70264879998285,283.70264879998285,284.58825740002794,right,1.0,24.967642899951898,,,,,,,,,,,,,,,,,,,,,,,,,,,,,,sub-104,3.0,random_dot,59.87654654429384,
left,left,accuracy,,,,,0.0,1.0,1.0,0.0,22.0,1.0,45.0,0.0,284.60081929998705,,,,,,,,,284.59147699997993,284.9504934999859,285.7510025000083,285.7347778999829,285.7348422000068,285.7510025000083,285.7510025000083,285.7510025000083,286.336157999991,left,1.0,24.655162399983965,,,,,,,,,,,,,,,,,,,,,,,,,,,,,,sub-104,3.0,random_dot,59.87654654429384,
right,right,accuracy,,,,,0.0,1.0,1.0,0.0,23.0,0.0,46.0,1.0,286.34921810001833,,,,,,,,,286.3393876000191,286.6990539000253,287.4991384000168,287.48270090000005,287.48274020000827,287.4991384000168,287.4991384000168,287.4991384000168,288.1178320000181,right,1.0,24.69868349994067,,,,,,,,,,,,,,,,,,,,,,,,,,,,,,sub-104,3.0,random_dot,59.87654654429384,
left,left,accuracy,,,,,0.0,1.0,1.0,0.0,23.0,1.0,47.0,0.0,288.1312925000093,,,,,,,,,288.12068849999923,288.48048309999285,289.2806617000024,289.2644333000062,289.26448730000993,289.2806617000024,289.2806617000024,289.2806617000024,290.1328531000181,left,1.0,24.92504810000537,,,,,,,,,,,,,,,,,,,,,,,,,,,,,,sub-104,3.0,random_dot,59.87654654429384,
left,left,accuracy,,,,,0.0,1.0,1.0,0.0,24.0,0.0,48.0,0.0,290.14596940000774,,,,,,,,,290.13581210002303,290.49528869998176,291.2956686000107,291.27960130001884,291.2796688000089,291.2956686000107,291.2956686000107,291.2956686000107,292.015085800027,left,1.0,24.789039900002532,,,,,,,,,,,,,,,,,,,,,,,,,,,,,,sub-104,3.0,random_dot,59.87654654429384,
right,right,accuracy,,,,,0.0,1.0,1.0,0.0,24.0,1.0,49.0,1.0,292.02734470000723,,,,,,,,,292.018345199991,292.82711319997907,293.6433176000137,293.6273490000167,293.6274135999847,293.6433176000137,293.6433176000137,293.6433176000137,294.17947989999084,right,1.0,24.61056699999608,,,,,,,,,,,,,,,,,,,,,,,,,,,,,,sub-104,3.0,random_dot,59.87654654429384,
right,right,accuracy,,,,,0.0,1.0,1.0,0.0,25.0,0.0,50.0,1.0,294.1922888000263,,,,,,,,,294.1826470000087,295.3907348000212,296.1913960999809,296.17535909998696,296.17541839997284,296.1913960999809,296.1913960999809,296.1913960999809,296.80985309998505,right,1.0,24.68772379995789,,,,,,,,,,,,,,,,,,,,,,,,,,,,,,sub-104,3.0,random_dot,59.87654654429384,
left,left,accuracy,,,,,0.0,1.0,1.0,0.0,25.0,1.0,51.0,0.0,296.8228361000074,,,,,,,,,296.8130181999877,297.6219985000207,298.42228190001333,298.4058912000037,298.4059465000173,298.42228190001333,298.42228190001333,298.42228190001333,299.0574101000093,left,1.0,24.715280100004748,,,,,,,,,,,,,,,,,,,,,,,,,,,,,,sub-104,3.0,random_dot,59.87654654429384,
right,right,accuracy,,,,,0.0,1.0,1.0,0.0,26.0,0.0,52.0,1.0,299.07058429997414,,,,,,,,,299.06022410001606,300.2696159000043,301.0697946000146,301.05351639998844,301.05357039999217,301.0697946000146,301.0697946000146,301.0697946000146,301.62248249998083,right,1.0,24.63424569997005,,,,,,,,,,,,,,,,,,,,,,,,,,,,,,sub-104,3.0,random_dot,59.87654654429384,
left,left,accuracy,,,,,0.0,1.0,1.0,0.0,26.0,1.0,53.0,0.0,301.6352003000211,,,,,,,,,301.6254296000116,301.9845327999792,302.78501410002355,302.76846290001413,302.7685184000293,302.78501410002355,302.78501410002355,302.78501410002355,303.336972900026,left,1.0,24.622876299952623,,,,,,,,,,,,,,,,,,,,,,,,,,,,,,sub-104,3.0,random_dot,59.87654654429384,
right,right,accuracy,,,,,0.0,1.0,1.0,0.0,27.0,0.0,54.0,1.0,303.350081600016,,,,,,,,,303.339792600018,304.54867899999954,305.3490250000032,305.3328439000179,305.3329010999878,305.3490250000032,305.3490250000032,305.3490250000032,305.9680064999848,left,0.0,24.693611899972893,,,,,,,,,,,,,,,,,,,,,,,,,,,,,,sub-104,3.0,random_dot,59.87654654429384,
left,left,accuracy,,,,,0.0,1.0,1.0,0.0,27.0,1.0,55.0,0.0,305.98059330001706,,,,,,,,,305.9708312000148,307.17985219997354,307.9799939999939,307.9637080000248,307.963761800027,307.9799939999939,307.9799939999939,307.9799939999939,308.69811280001886,left,1.0,24.793073099979665,,,,,,,,,,,,,,,,,,,,,,,,,,,,,,sub-104,3.0,random_dot,59.87654654429384,
left,left,accuracy,,,,,0.0,1.0,1.0,0.0,28.0,0.0,56.0,0.0,308.71150580001995,,,,,,,,,308.70098780002445,308.8118454000214,309.62845570000354,309.6126479000086,309.6127137999865,309.62845570000354,309.62845570000354,309.62845570000354,310.3136287999805,left,1.0,24.76457349996781,,,,,,,,,,,,,,,,,,,,,,,,,,,,,,sub-104,3.0,random_dot,59.87654654429384,
right,right,accuracy,,,,,0.0,1.0,1.0,0.0,28.0,1.0,57.0,1.0,310.32693759998074,,,,,,,,,310.3164238000172,311.5253127000178,312.3258638000116,312.31015839998145,312.3102197999833,312.3258638000116,312.3258638000116,312.3258638000116,313.01016679999884,right,1.0,24.75803389993962,,,,,,,,,,,,,,,,,,,,,,,,,,,,,,sub-104,3.0,random_dot,59.87654654429384,
right,right,accuracy,,,,,0.0,1.0,1.0,0.0,29.0,0.0,58.0,1.0,313.02396050002426,,,,,,,,,313.0123137999908,313.3742558999802,314.1908124000184,314.1748056000215,314.1748859999934,314.1908124000184,314.1908124000184,314.1908124000184,314.7918730999809,left,0.0,24.672279299993534,,,,,,,,,,,,,,,,,,,,,,,,,,,,,,sub-104,3.0,random_dot,59.87654654429384,
left,left,accuracy,,,,,0.0,1.0,1.0,0.0,29.0,1.0,59.0,0.0,314.8056595000089,,,,,,,,,314.79396320000524,315.1555138999829,315.9559935000143,315.93973779998487,315.9397919999901,315.9559935000143,315.9559935000143,315.9559935000143,316.556663699972,left,1.0,24.67634349997388,,,,,,,,,,,,,,,,,,,,,,,,,,,,,,sub-104,3.0,random_dot,59.87654654429384,
,,accuracy,,,,,0.0,1.0,1.0,0.0,,,,,,,,,,,,,,,,,,,,,,,,,,,,,,,,,,,,,,,,,,,,,,,,,,,,,,,sub-104,3.0,random_dot,59.87654654429384,
,,,,,,,,,,,,,,,,,,,,,,,,,,,,,,,,,,,,,,,,,,,,,,,,,,,,,,,,,,,,,,316.55830959999,316.5706640999997,321.56669120001607,sub-104,,,,
