wordCTK,colorCTK,corrAnsCTK,congruentCTK,thisN,thisTrialN,thisRepN,keyResp_CTK.keys,keyResp_CTK.corr,keyResp_CTK.rt,keyResp_CTK.duration,wordPractice,colorPractice,corrAnsPractice,congruentPractice,respPractice.keys,respPractice.corr,respPractice.rt,respPractice.duration,word,color,corrAns,congruent,keyResp_test_run.keys,keyResp_test_run.corr,keyResp_test_run.rt,keyResp_test_run.duration,trials_CTK.thisRepN,trials_CTK.thisTrialN,trials_CTK.thisN,trials_CTK.thisIndex,trials_practice.thisRepN,trials_practice.thisTrialN,trials_practice.thisN,trials_practice.thisIndex,trials_test.thisRepN,trials_test.thisTrialN,trials_test.thisN,trials_test.thisIndex,thisRow.t,notes,instruction.started,instr_text.started,instr_image.started,instr_resp.started,instruction.stopped,instr_resp.keys,instr_resp.rt,instr_resp.duration,instr_color_to_key.started,instr_ctk.started,resp_ctk.started,instr_color_to_key.stopped,resp_ctk.keys,resp_ctk.rt,resp_ctk.duration,ITI.started,fixcross.started,fixcross.stopped,ITI.stopped,color_to_key_run.started,stimulus_CTK.started,keyResp_CTK.started,color_to_key_run.stopped,trials_CTK.keyResp_CTK.keys,trials_CTK.keyResp_CTK.corr,trials_CTK.keyResp_CTK.rt,trials_CTK.keyResp_CTK.duration,instr_practice.started,instr_practice_text.started,instr_practice_resp.started,instr_practice.stopped,instr_practice_resp.keys,instr_practice_resp.rt,instr_practice_resp.duration,practice_run.started,stimulus_practice.started,respPractice.started,practice_run.stopped,trials_practice.respPractice.keys,trials_practice.respPractice.corr,trials_practice.respPractice.rt,trials_practice.respPractice.duration,feedback.started,textFeedback.started,feedback.stopped,textFeedback.stopped,instr_test.started,instr_test_text.started,instr_test_resp.started,instr_test.stopped,instr_test_resp.keys,instr_test_resp.rt,instr_test_resp.duration,test_run.started,stimulus_test_run.started,keyResp_test_run.started,test_run.stopped,trials_test.keyResp_test_run.keys,trials_test.keyResp_test_run.corr,trials_test.keyResp_test_run.rt,trials_test.keyResp_test_run.duration,goodbye.started,textGoodbye.started,textGoodbye.stopped,goodbye.stopped,participant,session,expName,frameRate,Unnamed: 113
,,,,,,,,,,,,,,,,,,,,,,,,,,,,,,,,,,,,,,,,,0.0128148510048049,0.0428940280035021,0.0428940280035021,0.0428940280035021,0.7491095080040395,space,0.6755828989989823,,,,,,,,,,,,,,,,,,,,,,,,,,,,,,,,,,,,,,,,,,,,,,,,,,,,,,,,,,,sub-188,1,stroop_test,89.45345788647869,
,,,,,,,,,,,,,,,,,,,,,,,,,,,,,,,,,,,,,,,,,,,,,,,,,0.7491688820009585,0.7689376550042653,0.7689376550042653,1.2635714300049583,space,0.48566240099899,,,,,,,,,,,,,,,,,,,,,,,,,,,,,,,,,,,,,,,,,,,,,,,,,,,,sub-188,1,stroop_test,89.45345788647869,
test,blue,b,1.0,0.0,0.0,0.0,b,1.0,0.5781240669966792,,,,,,,,,,,,,,,,,,0.0,0.0,0.0,2.0,,,,,,,,,1.288790696999058,,,,,,,,,,,,,,,,,1.2756369490016368,2.060425257004681,2.856931132002501,2.844418439002766,2.849577685003169,2.856931132002501,2.856931132002501,3.437793369004794,b,1.0,0.5781240669966792,,,,,,,,,,,,,,,,,,,,,,,,,,,,,,,,,,,,,,,,sub-188,1,stroop_test,89.45345788647869,
test,red,r,1.0,1.0,1.0,0.0,r,1.0,0.4565221849989029,,,,,,,,,,,,,,,,,,0.0,1.0,1.0,0.0,,,,,,,,,3.4484121190034784,,,,,,,,,,,,,,,,,3.438178213000356,4.63328538100177,5.427231129004213,5.417810623002879,5.418345725003746,5.427231129004213,5.427231129004213,5.886498669999128,r,1.0,0.4565221849989029,,,,,,,,,,,,,,,,,,,,,,,,,,,,,,,,,,,,,,,,sub-188,1,stroop_test,89.45345788647869,
test,yellow,g,1.0,2.0,2.0,0.0,g,1.0,0.4888441970033454,,,,,,,,,,,,,,,,,,0.0,2.0,2.0,1.0,,,,,,,,,5.898155348004366,,,,,,,,,,,,,,,,,5.886830303999886,5.984053229003621,6.777113864001876,6.768328673002543,6.768969466000272,6.777113864001876,6.777113864001876,7.269280658998468,g,1.0,0.4888441970033454,,,,,,,,,,,,,,,,,,,,,,,,,,,,,,,,,,,,,,,,sub-188,1,stroop_test,89.45345788647869,
test,yellow,g,1.0,3.0,0.0,1.0,b,0.0,0.2375454359935247,,,,,,,,,,,,,,,,,,1.0,0.0,3.0,1.0,,,,,,,,,7.292951695999363,,,,,,,,,,,,,,,,,7.269597425998654,8.067633158003446,8.864074933000666,8.852600172998791,8.85376123500464,8.864074933000666,8.864074933000666,9.104995767003857,b,0.0,0.2375454359935247,,,,,,,,,,,,,,,,,,,,,,,,,,,,,,,,,,,,,,,,sub-188,1,stroop_test,89.45345788647869,
test,blue,b,1.0,4.0,1.0,1.0,b,1.0,0.5671109620016068,,,,,,,,,,,,,,,,,,1.0,1.0,4.0,2.0,,,,,,,,,9.115118027999417,,,,,,,,,,,,,,,,,9.105362966001849,9.450782209001773,10.244427570003609,10.234824441002274,10.235350879003818,10.244427570003609,10.244427570003609,10.819513626003754,b,1.0,0.5671109620016068,,,,,,,,,,,,,,,,,,,,,,,,,,,,,,,,,,,,,,,,sub-188,1,stroop_test,89.45345788647869,
test,red,r,1.0,5.0,2.0,1.0,r,1.0,0.5388042439954006,,,,,,,,,,,,,,,,,,1.0,2.0,5.0,0.0,,,,,,,,,10.842624329998216,,,,,,,,,,,,,,,,,10.819822754005145,10.917298068998209,11.717010409003706,11.71022575200186,11.710560864004949,11.717010409003706,11.717010409003706,12.260831528998096,r,1.0,0.5388042439954006,,,,,,,,,,,,,,,,,,,,,,,,,,,,,,,,,,,,,,,,sub-188,1,stroop_test,89.45345788647869,
test,yellow,g,1.0,6.0,0.0,2.0,g,1.0,0.7277072060023784,,,,,,,,,,,,,,,,,,2.0,0.0,6.0,1.0,,,,,,,,,12.269782666000538,,,,,,,,,,,,,,,,,12.2610776549991,13.45943945000181,14.251197427998704,14.243745284002216,14.24426456799847,14.251197427998704,14.251197427998704,14.986078194000584,g,1.0,0.7277072060023784,,,,,,,,,,,,,,,,,,,,,,,,,,,,,,,,,,,,,,,,sub-188,1,stroop_test,89.45345788647869,
test,blue,b,1.0,7.0,1.0,2.0,b,1.0,0.5225115749999532,,,,,,,,,,,,,,,,,,2.0,1.0,7.0,2.0,,,,,,,,,15.010082895001688,,,,,,,,,,,,,,,,,14.986379326001044,15.33276706700417,16.126842243000283,16.117387502999918,16.118027340999106,16.126842243000283,16.126842243000283,16.651473618003365,b,1.0,0.5225115749999532,,,,,,,,,,,,,,,,,,,,,,,,,,,,,,,,,,,,,,,,sub-188,1,stroop_test,89.45345788647869,
test,red,r,1.0,8.0,2.0,2.0,r,1.0,0.3414642659990932,,,,,,,,,,,,,,,,,,2.0,2.0,8.0,0.0,,,,,,,,,16.65913014599937,,,,,,,,,,,,,,,,,16.65174277099868,16.99955012099963,17.793351052998332,17.783958123000048,17.784595409000758,17.793351052998332,17.793351052998332,18.14510525300284,r,1.0,0.3414642659990932,,,,,,,,,,,,,,,,,,,,,,,,,,,,,,,,,,,,,,,,sub-188,1,stroop_test,89.45345788647869,
test,blue,b,1.0,9.0,0.0,3.0,b,1.0,0.5810543490006239,,,,,,,,,,,,,,,,,,3.0,0.0,9.0,2.0,,,,,,,,,18.1544522769982,,,,,,,,,,,,,,,,,18.145453816003283,19.343558200002008,20.135815059999004,20.127519091001886,20.12812376399961,20.135815059999004,20.135815059999004,20.720660806000524,b,1.0,0.5810543490006239,,,,,,,,,,,,,,,,,,,,,,,,,,,,,,,,,,,,,,,,sub-188,1,stroop_test,89.45345788647869,
test,yellow,g,1.0,10.0,1.0,3.0,r,0.0,0.5270562150035403,,,,,,,,,,,,,,,,,,3.0,1.0,10.0,1.0,,,,,,,,,20.73187637200317,,,,,,,,,,,,,,,,,20.720967002002,20.81757370300329,21.614674873002517,21.602740027003165,21.60355320799863,21.614674873002517,21.614674873002517,22.145699051005067,r,0.0,0.5270562150035403,,,,,,,,,,,,,,,,,,,,,,,,,,,,,,,,,,,,,,,,sub-188,1,stroop_test,89.45345788647869,
test,red,r,1.0,11.0,2.0,3.0,r,1.0,0.326957687997492,,,,,,,,,,,,,,,,,,3.0,2.0,11.0,0.0,,,,,,,,,22.155105898003967,,,,,,,,,,,,,,,,,22.14606596600061,22.24352026799897,23.03555508900172,23.02748933000112,23.02809118699952,23.03555508900172,23.03555508900172,23.370656947998214,r,1.0,0.326957687997492,,,,,,,,,,,,,,,,,,,,,,,,,,,,,,,,,,,,,,,,sub-188,1,stroop_test,89.45345788647869,
,,,,,,,,,,,,,,,,,,,,,,,,,,,,,,,,,,,,,,,,,,,,,,,,,,,,,,,,,,,,,,,,,,,,23.370827768005256,23.38283022800169,23.38283022800169,24.27939383299963,space,0.8756316930011963,,,,,,,,,,,,,,,,,,,,,,,,,,,,,,,,,sub-188,1,stroop_test,89.45345788647869,
,,,,0.0,0.0,0.0,,,,,rot,yellow,g,0.0,g,1.0,0.8772989400022198,,,,,,,,,,,,,,0.0,0.0,0.0,3.0,,,,,24.30177810099849,,,,,,,,,,,,,,,,,24.29119204000017,25.07706542500091,25.873560325002472,25.860888964998598,,,,,,,,,,,,,,,,25.86586086200259,25.873560325002472,25.873560325002472,26.75339449100284,g,1.0,0.8772989400022198,,26.758748977001236,26.770292073000743,27.759981562005123,,,,,,,,,,,,,,,,,,,,,sub-188,1,stroop_test,89.45345788647869,
,,,,1.0,1.0,0.0,,,,,blau,red,r,0.0,r,1.0,0.4126004630015814,,,,,,,,,,,,,,0.0,1.0,1.0,4.0,,,,,27.76671748800436,,,,,,,,,,,,,,,,,27.760406095003415,28.950557784999543,29.74809889199969,29.734070329999668,,,,,,,,,,,,,,,,29.73970792900218,29.74809889199969,29.74809889199969,30.169820196999357,r,1.0,0.4126004630015814,,30.17038388299989,30.180983981998,31.167677312005253,31.17652688900125,,,,,,,,,,,,,,,,,,,,sub-188,1,stroop_test,89.45345788647869,
,,,,2.0,2.0,0.0,,,,,rot,red,r,1.0,r,1.0,0.585775849998754,,,,,,,,,,,,,,0.0,2.0,2.0,1.0,,,,,31.17652688900125,,,,,,,,,,,,,,,,,31.16811427700304,32.366763764002826,33.16334009000275,33.150646212998254,,,,,,,,,,,,,,,,33.153915248003614,33.16334009000275,33.16334009000275,33.752904437002144,r,1.0,0.585775849998754,,33.75338418400497,33.76421082900197,34.751504662002844,34.76012929600256,,,,,,,,,,,,,,,,,,,,sub-188,1,stroop_test,89.45345788647869,
,,,,3.0,3.0,0.0,,,,,gelb,blue,b,0.0,b,1.0,0.8110263030030183,,,,,,,,,,,,,,0.0,3.0,3.0,9.0,,,,,34.76012929600256,,,,,,,,,,,,,,,,,34.75203811300162,35.549455772998044,36.34657812200021,36.3339156660004,,,,,,,,,,,,,,,,36.33777727100096,36.34657812200021,36.34657812200021,37.16138582300482,b,1.0,0.8110263030030183,,37.1618577420013,37.171028493998165,38.16069066600176,38.167503841003054,,,,,,,,,,,,,,,,,,,,sub-188,1,stroop_test,89.45345788647869,
,,,,4.0,4.0,0.0,,,,,blau,blue,b,1.0,b,1.0,0.4945476039938512,,,,,,,,,,,,,,0.0,4.0,4.0,6.0,,,,,38.167503841003054,,,,,,,,,,,,,,,,,38.16108851299941,38.25994004600216,39.05569673699938,39.04407128300227,,,,,,,,,,,,,,,,39.04796173800423,39.05569673699938,39.05569673699938,39.55290042100387,b,1.0,0.4945476039938512,,39.55345970800408,39.56447482500516,40.55181162300141,40.56034605899913,,,,,,,,,,,,,,,,,,,,sub-188,1,stroop_test,89.45345788647869,
,,,,5.0,5.0,0.0,,,,,gelb,red,r,0.0,r,1.0,0.7755092849984067,,,,,,,,,,,,,,0.0,5.0,5.0,8.0,,,,,40.56034605899913,,,,,,,,,,,,,,,,,40.55233829600184,40.90061473600508,41.69746585100074,41.6844874160015,,,,,,,,,,,,,,,,41.68755606000195,41.69746585100074,41.69746585100074,42.47864141000173,r,1.0,0.7755092849984067,,42.479213179998624,42.48845975899894,43.47698540599959,43.48348331400484,,,,,,,,,,,,,,,,,,,,sub-188,1,stroop_test,89.45345788647869,
,,,,6.0,6.0,0.0,,,,,blau,blue,b,1.0,b,1.0,0.5673483490027138,,,,,,,,,,,,,,0.0,6.0,6.0,5.0,,,,,43.48348331400484,,,,,,,,,,,,,,,,,43.47739279000234,43.576320626998495,44.37077254799806,44.36039484199864,,,,,,,,,,,,,,,,44.36343090100127,44.37077254799806,44.37077254799806,44.94447040300293,b,1.0,0.5673483490027138,,44.94494852200296,44.95476369000244,45.94367142500414,45.95004814599815,,,,,,,,,,,,,,,,,,,,sub-188,1,stroop_test,89.45345788647869,
,,,,7.0,7.0,0.0,,,,,gelb,yellow,g,1.0,g,1.0,0.548290247003024,,,,,,,,,,,,,,0.0,7.0,7.0,10.0,,,,,45.95004814599815,,,,,,,,,,,,,,,,,45.944084547001694,47.14283974400314,47.93674258800456,47.92672401800519,,,,,,,,,,,,,,,,47.92972374700184,47.93674258800456,47.93674258800456,48.49432655399869,g,1.0,0.548290247003024,,48.494796612001664,48.5038339390012,49.49381299800007,49.50058587300009,,,,,,,,,,,,,,,,,,,,sub-188,1,stroop_test,89.45345788647869,
,,,,8.0,8.0,0.0,,,,,rot,red,r,1.0,r,1.0,0.3852417829984915,,,,,,,,,,,,,,0.0,8.0,8.0,0.0,,,,,49.50058587300009,,,,,,,,,,,,,,,,,49.49421438100399,49.84290277200489,50.63732235600037,50.62698896499933,,,,,,,,,,,,,,,,50.62994259699917,50.63732235600037,50.63732235600037,51.02762341200287,r,1.0,0.3852417829984915,,51.02803742999822,51.03661776000081,52.02701124200394,52.033643170005234,,,,,,,,,,,,,,,,,,,,sub-188,1,stroop_test,89.45345788647869,
,,,,9.0,9.0,0.0,,,,,gelb,yellow,g,1.0,g,1.0,0.9212237530009588,,,,,,,,,,,,,,0.0,9.0,9.0,11.0,,,,,52.033643170005234,,,,,,,,,,,,,,,,,52.02741359599895,53.22622102800233,54.02073519999976,54.01010111399955,,,,,,,,,,,,,,,,54.01273888200376,54.02073519999976,54.02073519999976,54.944745100001455,g,1.0,0.9212237530009588,,54.94528842800355,54.95554247400287,55.943958536001446,55.95065714700468,,,,,,,,,,,,,,,,,,,,sub-188,1,stroop_test,89.45345788647869,
,,,,10.0,10.0,0.0,,,,,rot,blue,b,0.0,b,1.0,0.7227120509996894,,,,,,,,,,,,,,0.0,10.0,10.0,2.0,,,,,55.95065714700468,,,,,,,,,,,,,,,,,55.94450906500424,56.04269848200056,56.838300476003496,56.82698787299887,,,,,,,,,,,,,,,,56.830678844999056,56.838300476003496,56.838300476003496,57.56923652499973,b,1.0,0.7227120509996894,,57.56978977400286,57.57998721500189,58.56792588999815,58.576350249000825,,,,,,,,,,,,,,,,,,,,sub-188,1,stroop_test,89.45345788647869,
,,,,11.0,11.0,0.0,,,,,blau,yellow,g,0.0,g,1.0,0.7581677380003384,,,,,,,,,,,,,,0.0,11.0,11.0,7.0,,,,,58.576350249000825,,,,,,,,,,,,,,,,,58.56834913000057,58.66616610300116,59.47569785499945,59.45009318800294,,,,,,,,,,,,,,,,59.452989759003685,59.47569785499945,59.47569785499945,60.24429296400194,g,1.0,0.7581677380003384,,60.24485320300301,60.25414971000282,61.24354397700517,61.25011037000513,,,,,,,,,,,,,,,,,,,,sub-188,1,stroop_test,89.45345788647869,
,,,,12.0,0.0,1.0,,,,,blau,blue,b,1.0,b,1.0,0.5569188879962894,,,,,,,,,,,,,,1.0,0.0,12.0,6.0,,,,,61.25011037000513,,,,,,,,,,,,,,,,,61.24398088399903,62.44280406599864,63.234614917004365,63.22688277900306,,,,,,,,,,,,,,,,63.22736778599938,63.234614917004365,63.234614917004365,63.79470680899976,b,1.0,0.5569188879962894,,63.79518025500147,63.80443787100376,64.79346047400031,64.80006747299922,,,,,,,,,,,,,,,,,,,,sub-188,1,stroop_test,89.45345788647869,
,,,,13.0,1.0,1.0,,,,,gelb,yellow,g,1.0,g,1.0,0.5626109670047299,,,,,,,,,,,,,,1.0,1.0,13.0,11.0,,,,,64.80006747299922,,,,,,,,,,,,,,,,,64.79386214999977,65.14260844400269,65.93731685799867,65.92683128000499,,,,,,,,,,,,,,,,65.92996406400198,65.93731685799867,65.93731685799867,66.50241770400316,g,1.0,0.5626109670047299,,66.50288159699994,66.51408797399927,67.50087356100266,67.50961669700337,,,,,,,,,,,,,,,,,,,,sub-188,1,stroop_test,89.45345788647869,
,,,,14.0,2.0,1.0,,,,,gelb,red,r,0.0,r,1.0,0.3432091780050541,,,,,,,,,,,,,,1.0,2.0,14.0,8.0,,,,,67.50961669700337,,,,,,,,,,,,,,,,,67.50130091600295,68.29978670299897,69.09402714000316,69.0841364700027,,,,,,,,,,,,,,,,69.08474541299802,69.09402714000316,69.09402714000316,69.44532602000254,r,1.0,0.3432091780050541,,69.44580078100262,69.4574354360011,70.44366512200213,70.45051489500474,,,,,,,,,,,,,,,,,,,,sub-188,1,stroop_test,89.45345788647869,
,,,,15.0,3.0,1.0,,,,,blau,blue,b,1.0,b,1.0,0.5032594720032648,,,,,,,,,,,,,,1.0,3.0,15.0,5.0,,,,,70.45051489500474,,,,,,,,,,,,,,,,,70.44406672700279,70.79292883300513,71.5887682850007,71.57715622999967,,,,,,,,,,,,,,,,71.58093751300476,71.5887682850007,71.5887682850007,72.09477121500095,b,1.0,0.5032594720032648,,72.09530561300198,72.10500123800011,73.09360782400472,73.10030091600493,,,,,,,,,,,,,,,,,,,,sub-188,1,stroop_test,89.45345788647869,
,,,,16.0,4.0,1.0,,,,,rot,red,r,1.0,r,1.0,0.557441431999905,,,,,,,,,,,,,,1.0,4.0,16.0,0.0,,,,,73.10030091600493,,,,,,,,,,,,,,,,,73.09401554700162,73.19278387499799,73.98754010599805,73.97675836800045,,,,,,,,,,,,,,,,73.97985125500418,73.98754010599805,73.98754010599805,74.55448468599934,r,1.0,0.557441431999905,,74.55546491000132,74.56827776400314,75.55959030699887,,,,,,,,,,,,,,,,,,,,,sub-188,1,stroop_test,89.45345788647869,
,,,,17.0,5.0,1.0,,,,,blau,yellow,g,0.0,g,1.0,0.6976948820010875,,,,,,,,,,,,,,1.0,5.0,17.0,7.0,,,,,75.56642752400512,,,,,,,,,,,,,,,,,75.56000544500421,75.64989970299939,76.44704544699925,76.43412941099814,,,,,,,,,,,,,,,,76.43879108600231,76.44704544699925,76.44704544699925,77.15239886600466,g,1.0,0.6976948820010875,,77.15287488800095,77.16330959100014,78.15079128200159,78.15935948499828,,,,,,,,,,,,,,,,,,,,sub-188,1,stroop_test,89.45345788647869,
,,,,18.0,6.0,1.0,,,,,gelb,yellow,g,1.0,g,1.0,0.59448825900472,,,,,,,,,,,,,,1.0,6.0,18.0,10.0,,,,,78.15935948499828,,,,,,,,,,,,,,,,,78.15120939299959,78.95002419999946,79.7480124010035,79.73480976900464,,,,,,,,,,,,,,,,79.73883936899801,79.7480124010035,79.7480124010035,80.3448823209983,g,1.0,0.59448825900472,,80.3453664109984,80.35575901500124,81.34337307899841,81.35016816999996,,,,,,,,,,,,,,,,,,,,sub-188,1,stroop_test,89.45345788647869,
,,,,19.0,7.0,1.0,,,,,gelb,blue,b,0.0,b,1.0,0.5500759880014812,,,,,,,,,,,,,,1.0,7.0,19.0,9.0,,,,,81.35016816999996,,,,,,,,,,,,,,,,,81.34380264900392,82.54262942100468,83.33531260900054,83.32683074200031,,,,,,,,,,,,,,,,83.32742524200148,83.33531260900054,83.33531260900054,83.89502774900029,b,1.0,0.5500759880014812,,83.89557518900256,83.90477993799868,84.89348843100015,84.90032432800217,,,,,,,,,,,,,,,,,,,,sub-188,1,stroop_test,89.45345788647869,
,,,,20.0,8.0,1.0,,,,,rot,blue,b,0.0,b,1.0,0.7303981309960363,,,,,,,,,,,,,,1.0,8.0,20.0,2.0,,,,,84.90032432800217,,,,,,,,,,,,,,,,,84.89389348500117,85.69267175999994,86.48728328400466,86.47667598500266,,,,,,,,,,,,,,,,86.47971632600093,86.48728328400466,86.48728328400466,87.2278489829987,b,1.0,0.7303981309960363,,87.22832968000148,87.2384519269981,88.226749595,88.23364228400169,,,,,,,,,,,,,,,,,,,,sub-188,1,stroop_test,89.45345788647869,
,,,,21.0,9.0,1.0,,,,,rot,red,r,1.0,r,1.0,0.3547066519968211,,,,,,,,,,,,,,1.0,9.0,21.0,1.0,,,,,88.23364228400169,,,,,,,,,,,,,,,,,88.22716632200172,89.02586394800164,89.81933764200221,89.81022058799863,,,,,,,,,,,,,,,,89.81097577100445,89.81933764200221,89.81933764200221,90.17793912100024,r,1.0,0.3547066519968211,,90.17841047399996,90.18794908300332,91.1768427900024,91.18386401300086,,,,,,,,,,,,,,,,,,,,sub-188,1,stroop_test,89.45345788647869,
,,,,22.0,10.0,1.0,,,,,rot,yellow,g,0.0,g,1.0,0.8219973599989316,,,,,,,,,,,,,,1.0,10.0,22.0,3.0,,,,,91.18386401300086,,,,,,,,,,,,,,,,,91.1773250250044,91.5268161060012,92.31917568200151,92.3104276419981,,,,,,,,,,,,,,,,92.31117114899826,92.31917568200151,92.31917568200151,93.14513622900267,g,1.0,0.8219973599989316,,93.1457382160006,93.1553822470014,94.14309901300294,94.14961108400166,,,,,,,,,,,,,,,,,,,,sub-188,1,stroop_test,89.45345788647869,
,,,,23.0,11.0,1.0,,,,,blau,red,r,0.0,r,1.0,0.648432567002601,,,,,,,,,,,,,,1.0,11.0,23.0,4.0,,,,,94.14961108400166,,,,,,,,,,,,,,,,,94.1434349340052,94.24249597699963,95.03721830699942,95.02646408600413,,,,,,,,,,,,,,,,95.02950599400356,95.03721830699942,95.03721830699942,95.69546254400484,r,1.0,0.648432567002601,,95.69596755100063,95.70512829300424,96.69350359200324,96.7024493600038,,,,,,,,,,,,,,,,,,,,sub-188,1,stroop_test,89.45345788647869,
,,,,,,,,,,,,,,,,,,,,,,,,,,,,,,,,,,,,,,,,,,,,,,,,,,,,,,,,,,,,,,,,,,,,,,,,,,,,,,,,,,,,,,,96.69367787200464,96.7024493600038,96.7024493600038,97.87772972200035,space,1.167929110000841,,,,,,,,,,,,,,sub-188,1,stroop_test,89.45345788647869,
,,,,0.0,0.0,0.0,,,,,,,,,,,,,blau,blue,b,1.0,b,1.0,0.5298645800066879,,,,,,,,,,0.0,0.0,0.0,6.0,97.8980792930015,,,,,,,,,,,,,,,,,97.88945271199918,98.22582028499892,99.02022396599932,99.0099664139998,,,,,,,,,,,,,,,,,,,,,,,,,,,,,,,,,,,99.01241867600038,99.02022396599932,99.02022396599932,99.55268399500346,b,1.0,0.5298645800066879,,,,,,sub-188,1,stroop_test,89.45345788647869,
,,,,1.0,1.0,0.0,,,,,,,,,,,,,blau,yellow,g,0.0,g,1.0,0.6445462859992404,,,,,,,,,,0.0,1.0,1.0,7.0,99.56278600099904,,,,,,,,,,,,,,,,,99.5531026000026,99.89897960200324,100.69274533999852,100.68310388100508,,,,,,,,,,,,,,,,,,,,,,,,,,,,,,,,,,,100.68371288400522,100.69274533999852,100.69274533999852,101.34393116600404,g,1.0,0.6445462859992404,,,,,,sub-188,1,stroop_test,89.45345788647869,
,,,,2.0,2.0,0.0,,,,,,,,,,,,,rot,blue,b,0.0,b,1.0,0.6284599399950821,,,,,,,,,,0.0,2.0,2.0,2.0,101.3530198150038,,,,,,,,,,,,,,,,,101.34432952600037,101.44249403900176,102.23776450600415,102.22672142500232,,,,,,,,,,,,,,,,,,,,,,,,,,,,,,,,,,,102.2299568130038,102.23776450600415,102.23776450600415,102.86936557300214,b,1.0,0.6284599399950821,,,,,,sub-188,1,stroop_test,89.45345788647869,
,,,,3.0,3.0,0.0,,,,,,,,,,,,,gelb,yellow,g,1.0,g,1.0,0.4902255490014795,,,,,,,,,,0.0,3.0,3.0,10.0,102.88021315300284,,,,,,,,,,,,,,,,,102.86971070200524,103.66545790900273,104.46220778000134,104.44953196599818,,,,,,,,,,,,,,,,,,,,,,,,,,,,,,,,,,,104.45273531500423,104.46220778000134,104.46220778000134,104.9610694380026,g,1.0,0.4902255490014795,,,,,,sub-188,1,stroop_test,89.45345788647869,
,,,,4.0,4.0,0.0,,,,,,,,,,,,,blau,blue,b,1.0,b,1.0,0.5337434410030255,,,,,,,,,,0.0,4.0,4.0,5.0,104.96912565000092,,,,,,,,,,,,,,,,,104.9614311300029,105.05877493700244,105.8539690760008,105.84285276000446,,,,,,,,,,,,,,,,,,,,,,,,,,,,,,,,,,,105.84651925800426,105.8539690760008,105.8539690760008,106.39363178700296,b,1.0,0.5337434410030255,,,,,,sub-188,1,stroop_test,89.45345788647869,
,,,,5.0,5.0,0.0,,,,,,,,,,,,,rot,red,r,1.0,r,1.0,0.40945727199869,,,,,,,,,,0.0,5.0,5.0,1.0,106.40292361400498,,,,,,,,,,,,,,,,,106.39397132200249,107.19188697700156,107.9861019960008,107.97594216700236,,,,,,,,,,,,,,,,,,,,,,,,,,,,,,,,,,,107.97894532400096,107.9861019960008,107.9861019960008,108.4009708750018,r,1.0,0.40945727199869,,,,,,sub-188,1,stroop_test,89.45345788647869,
,,,,6.0,6.0,0.0,,,,,,,,,,,,,gelb,red,r,0.0,r,1.0,0.7062790130003123,,,,,,,,,,0.0,6.0,6.0,8.0,108.40990517400496,,,,,,,,,,,,,,,,,108.40132328899928,109.19830328700482,109.99550930500118,109.98290524700133,,,,,,,,,,,,,,,,,,,,,,,,,,,,,,,,,,,109.9861501320047,109.99550930500118,109.99550930500118,110.710555190999,r,1.0,0.7062790130003123,,,,,,sub-188,1,stroop_test,89.45345788647869,
,,,,7.0,7.0,0.0,,,,,,,,,,,,,blau,red,r,0.0,r,1.0,0.5069908130026306,,,,,,,,,,0.0,7.0,7.0,4.0,110.72000662500068,,,,,,,,,,,,,,,,,110.71095082999818,111.50870588700492,112.30354971600173,112.29269204199954,,,,,,,,,,,,,,,,,,,,,,,,,,,,,,,,,,,112.29611149200356,112.30354971600173,112.30354971600173,112.81952627900318,r,1.0,0.5069908130026306,,,,,,sub-188,1,stroop_test,89.45345788647869,
,,,,8.0,8.0,0.0,,,,,,,,,,,,,gelb,blue,b,0.0,b,1.0,0.377626795998367,,,,,,,,,,0.0,8.0,8.0,9.0,112.83016109700112,,,,,,,,,,,,,,,,,112.82001138500344,114.0155394040048,114.81287684600102,114.7996274879988,,,,,,,,,,,,,,,,,,,,,,,,,,,,,,,,,,,114.80302988400216,114.81287684600102,114.81287684600102,115.19426071500492,b,1.0,0.377626795998367,,,,,,sub-188,1,stroop_test,89.45345788647869,
,,,,9.0,9.0,0.0,,,,,,,,,,,,,rot,red,r,1.0,r,1.0,0.445857769002032,,,,,,,,,,0.0,9.0,9.0,0.0,115.2028049740038,,,,,,,,,,,,,,,,,115.19460557900312,116.39196811500004,117.18627982700129,117.17588317500486,,,,,,,,,,,,,,,,,,,,,,,,,,,,,,,,,,,117.1789066019992,117.18627982700129,117.18627982700129,117.63496569100244,r,1.0,0.445857769002032,,,,,,sub-188,1,stroop_test,89.45345788647869,
,,,,10.0,10.0,0.0,,,,,,,,,,,,,rot,yellow,g,0.0,g,1.0,0.6032095580012538,,,,,,,,,,0.0,10.0,10.0,3.0,117.64653572300448,,,,,,,,,,,,,,,,,117.63548851000088,117.73198223300278,118.52471748099924,118.51628791099938,,,,,,,,,,,,,,,,,,,,,,,,,,,,,,,,,,,118.51691910700174,118.52471748099924,118.52471748099924,119.13652079600432,g,1.0,0.6032095580012538,,,,,,sub-188,1,stroop_test,89.45345788647869,
,,,,11.0,11.0,0.0,,,,,,,,,,,,,gelb,yellow,g,1.0,g,1.0,0.438459299999522,,,,,,,,,,0.0,11.0,11.0,11.0,119.14798605200484,,,,,,,,,,,,,,,,,119.1370731490024,119.48245414600387,120.27953384799912,120.26654419700208,,,,,,,,,,,,,,,,,,,,,,,,,,,,,,,,,,,120.26961850000224,120.27953384799912,120.27953384799912,120.72624650799844,g,1.0,0.438459299999522,,,,,,sub-188,1,stroop_test,89.45345788647869,
,,,,12.0,0.0,1.0,,,,,,,,,,,,,rot,red,r,1.0,r,1.0,0.5552153059979901,,,,,,,,,,1.0,0.0,12.0,0.0,120.73536753100052,,,,,,,,,,,,,,,,,120.72659051300434,121.5250799580026,122.31941982800345,122.3091354460048,,,,,,,,,,,,,,,,,,,,,,,,,,,,,,,,,,,122.3120798470045,122.31941982800345,122.31941982800345,122.87683914900116,r,1.0,0.5552153059979901,,,,,,sub-188,1,stroop_test,89.45345788647869,
,,,,13.0,1.0,1.0,,,,,,,,,,,,,gelb,blue,b,0.0,b,1.0,0.5172614730036003,,,,,,,,,,1.0,1.0,13.0,9.0,122.88529956500132,,,,,,,,,,,,,,,,,122.87719030299922,123.67507724199822,124.46894682900164,124.45900383700064,,,,,,,,,,,,,,,,,,,,,,,,,,,,,,,,,,,124.46187075800115,124.46894682900164,124.46894682900164,124.99329524100176,b,1.0,0.5172614730036003,,,,,,sub-188,1,stroop_test,89.45345788647869,
,,,,14.0,2.0,1.0,,,,,,,,,,,,,blau,yellow,g,0.0,g,1.0,0.7037781109975185,,,,,,,,,,1.0,2.0,14.0,7.0,125.00226226999804,,,,,,,,,,,,,,,,,124.9936341510038,125.09174211900245,125.88650950600277,125.87599475400202,,,,,,,,,,,,,,,,,,,,,,,,,,,,,,,,,,,125.87905603300167,125.88650950600277,125.88650950600277,126.59428029300034,g,1.0,0.7037781109975185,,,,,,sub-188,1,stroop_test,89.45345788647869,
,,,,15.0,3.0,1.0,,,,,,,,,,,,,blau,blue,b,1.0,b,1.0,0.5893812149952282,,,,,,,,,,1.0,3.0,15.0,6.0,126.60291429200151,,,,,,,,,,,,,,,,,126.59462085700216,127.39193268500094,128.1838018769995,128.1758730540023,,,,,,,,,,,,,,,,,,,,,,,,,,,,,,,,,,,128.17647169100383,128.1838018769995,128.1838018769995,128.7769373120027,b,1.0,0.5893812149952282,,,,,,sub-188,1,stroop_test,89.45345788647869,
,,,,16.0,4.0,1.0,,,,,,,,,,,,,blau,red,r,0.0,r,1.0,0.4925288939994061,,,,,,,,,,1.0,4.0,16.0,4.0,128.78553593499964,,,,,,,,,,,,,,,,,128.777287951998,129.12508621300367,129.9169800410018,129.90890612100338,,,,,,,,,,,,,,,,,,,,,,,,,,,,,,,,,,,129.90940690199932,129.9169800410018,129.9169800410018,130.41775185300503,r,1.0,0.4925288939994061,,,,,,sub-188,1,stroop_test,89.45345788647869,
,,,,17.0,5.0,1.0,,,,,,,,,,,,,rot,red,r,1.0,r,1.0,0.464160087001801,,,,,,,,,,1.0,5.0,17.0,1.0,130.42914002500038,,,,,,,,,,,,,,,,,130.41815536500508,131.21456440000475,132.01173808800377,131.99912735100224,,,,,,,,,,,,,,,,,,,,,,,,,,,,,,,,,,,132.00230698900123,132.01173808800377,132.01173808800377,132.48429784399923,r,1.0,0.464160087001801,,,,,,sub-188,1,stroop_test,89.45345788647869,
,,,,18.0,6.0,1.0,,,,,,,,,,,,,gelb,red,r,0.0,r,1.0,0.6243023769930005,,,,,,,,,,1.0,6.0,18.0,8.0,132.49491697700432,,,,,,,,,,,,,,,,,132.48469888300315,132.58141913000145,133.3757254550001,133.36545313100214,,,,,,,,,,,,,,,,,,,,,,,,,,,,,,,,,,,133.3682654639997,133.3757254550001,133.3757254550001,134.00929431600525,r,1.0,0.6243023769930005,,,,,,sub-188,1,stroop_test,89.45345788647869,
,,,,19.0,7.0,1.0,,,,,,,,,,,,,gelb,yellow,g,1.0,r,0.0,0.410067307006102,,,,,,,,,,1.0,7.0,19.0,11.0,134.01926451400504,,,,,,,,,,,,,,,,,134.00961390600423,134.79873560000124,135.59989389800467,135.5923305739998,,,,,,,,,,,,,,,,,,,,,,,,,,,,,,,,,,,135.59292816500238,135.59989389800467,135.59989389800467,136.017017269005,r,0.0,0.410067307006102,,,,,,sub-188,1,stroop_test,89.45345788647869,
,,,,20.0,8.0,1.0,,,,,,,,,,,,,rot,blue,b,0.0,b,1.0,0.6117572799994377,,,,,,,,,,1.0,8.0,20.0,2.0,136.02569616700202,,,,,,,,,,,,,,,,,136.01731849500356,137.21519996200368,138.0118620639987,137.99876804800442,,,,,,,,,,,,,,,,,,,,,,,,,,,,,,,,,,,138.00232711600256,138.0118620639987,138.0118620639987,138.62693299200328,b,1.0,0.6117572799994377,,,,,,sub-188,1,stroop_test,89.45345788647869,
,,,,21.0,9.0,1.0,,,,,,,,,,,,,rot,yellow,g,0.0,g,1.0,0.6869970609986922,,,,,,,,,,1.0,9.0,21.0,3.0,138.63540388700494,,,,,,,,,,,,,,,,,138.6273461870005,138.97472905400355,139.76731814600498,139.75914512500458,,,,,,,,,,,,,,,,,,,,,,,,,,,,,,,,,,,139.7597626229981,139.76731814600498,139.76731814600498,140.45939510400058,g,1.0,0.6869970609986922,,,,,,sub-188,1,stroop_test,89.45345788647869,
,,,,22.0,10.0,1.0,,,,,,,,,,,,,gelb,yellow,g,1.0,g,1.0,0.6349580199967022,,,,,,,,,,1.0,10.0,22.0,10.0,140.4673785440027,,,,,,,,,,,,,,,,,140.45973752900318,141.65799239800253,142.4524959019982,142.44210601800296,,,,,,,,,,,,,,,,,,,,,,,,,,,,,,,,,,,142.4452419779991,142.4524959019982,142.4524959019982,143.09282152900414,g,1.0,0.6349580199967022,,,,,,sub-188,1,stroop_test,89.45345788647869,
,,,,23.0,11.0,1.0,,,,,,,,,,,,,blau,blue,b,1.0,b,1.0,0.3964908019988797,,,,,,,,,,1.0,11.0,23.0,5.0,143.10121432800224,,,,,,,,,,,,,,,,,143.0931663730007,143.89131249300408,144.68558018600015,144.6755100340015,,,,,,,,,,,,,,,,,,,,,,,,,,,,,,,,,,,144.6785896510046,144.68558018600015,144.68558018600015,145.0934312190002,b,1.0,0.3964908019988797,,,,,,sub-188,1,stroop_test,89.45345788647869,
,,,,24.0,0.0,2.0,,,,,,,,,,,,,rot,red,r,1.0,r,1.0,0.5609869659965625,,,,,,,,,,2.0,0.0,24.0,1.0,145.09996525000315,,,,,,,,,,,,,,,,,145.09381722300168,145.19114752000314,145.98565431799943,145.97562081499927,,,,,,,,,,,,,,,,,,,,,,,,,,,,,,,,,,,145.97850492300495,145.98565431799943,145.98565431799943,146.550627108998,r,1.0,0.5609869659965625,,,,,,sub-188,1,stroop_test,89.45345788647869,
,,,,25.0,1.0,2.0,,,,,,,,,,,,,gelb,yellow,g,1.0,g,1.0,0.3917684370026109,,,,,,,,,,2.0,1.0,25.0,10.0,146.57491960100015,,,,,,,,,,,,,,,,,146.55099152099865,147.74841296199884,148.54541166800482,148.5327214870049,,,,,,,,,,,,,,,,,,,,,,,,,,,,,,,,,,,148.53667469200445,148.54541166800482,148.54541166800482,148.9426253040001,g,1.0,0.3917684370026109,,,,,,sub-188,1,stroop_test,89.45345788647869,
,,,,26.0,2.0,2.0,,,,,,,,,,,,,blau,red,r,0.0,r,1.0,0.6975013270057389,,,,,,,,,,2.0,2.0,26.0,4.0,148.95115746800002,,,,,,,,,,,,,,,,,148.94297605100292,149.04122546400322,149.83498788800352,149.8251180599982,,,,,,,,,,,,,,,,,,,,,,,,,,,,,,,,,,,149.8280659860029,149.83498788800352,149.83498788800352,150.5428311190044,r,1.0,0.6975013270057389,,,,,,sub-188,1,stroop_test,89.45345788647869,
,,,,27.0,3.0,2.0,,,,,,,,,,,,,gelb,yellow,g,1.0,g,1.0,0.5806476610014215,,,,,,,,,,2.0,3.0,27.0,11.0,150.5511520389991,,,,,,,,,,,,,,,,,150.54317280900432,150.64128826800152,151.43537403600203,151.42530321700178,,,,,,,,,,,,,,,,,,,,,,,,,,,,,,,,,,,151.42836519900447,151.43537403600203,151.43537403600203,152.02597765400424,g,1.0,0.5806476610014215,,,,,,sub-188,1,stroop_test,89.45345788647869,
,,,,28.0,4.0,2.0,,,,,,,,,,,,,blau,yellow,g,0.0,g,1.0,0.5836024300006102,,,,,,,,,,2.0,4.0,28.0,7.0,152.0347084360037,,,,,,,,,,,,,,,,,152.0263234380036,152.8243690579984,153.6185653240027,153.60856170100303,,,,,,,,,,,,,,,,,,,,,,,,,,,,,,,,,,,153.6115518680017,153.6185653240027,153.6185653240027,154.2093898259991,g,1.0,0.5836024300006102,,,,,,sub-188,1,stroop_test,89.45345788647869,
,,,,29.0,5.0,2.0,,,,,,,,,,,,,rot,yellow,g,0.0,r,0.0,0.4801836109982105,,,,,,,,,,2.0,5.0,29.0,3.0,154.21826752700144,,,,,,,,,,,,,,,,,154.2097382120046,155.0079020310004,155.8020452280034,155.7919652010023,,,,,,,,,,,,,,,,,,,,,,,,,,,,,,,,,,,155.79508219499985,155.8020452280034,155.8020452280034,156.29220980800164,r,0.0,0.4801836109982105,,,,,,sub-188,1,stroop_test,89.45345788647869,
,,,,30.0,6.0,2.0,,,,,,,,,,,,,gelb,blue,b,0.0,b,1.0,0.6329085120014497,,,,,,,,,,2.0,6.0,30.0,9.0,156.2999972510006,,,,,,,,,,,,,,,,,156.2925558499992,156.64117581100436,157.43500752800173,157.4251082769988,,,,,,,,,,,,,,,,,,,,,,,,,,,,,,,,,,,157.42807222400006,157.43500752800173,157.43500752800173,158.07794445000036,b,1.0,0.6329085120014497,,,,,,sub-188,1,stroop_test,89.45345788647869,
,,,,31.0,7.0,2.0,,,,,,,,,,,,,rot,red,r,1.0,r,1.0,0.7190878420005902,,,,,,,,,,2.0,7.0,31.0,0.0,158.09122266700433,,,,,,,,,,,,,,,,,158.07833657700394,158.174507472002,158.96832611699938,158.958361185003,,,,,,,,,,,,,,,,,,,,,,,,,,,,,,,,,,,158.96119952200388,158.96832611699938,158.96832611699938,159.69269150499895,r,1.0,0.7190878420005902,,,,,,sub-188,1,stroop_test,89.45345788647869,
,,,,32.0,8.0,2.0,,,,,,,,,,,,,blau,blue,b,1.0,g,0.0,0.4236415760024101,,,,,,,,,,2.0,8.0,32.0,5.0,159.70129641800304,,,,,,,,,,,,,,,,,159.69299642700207,160.49137296900153,161.28581842999847,161.27526783000212,,,,,,,,,,,,,,,,,,,,,,,,,,,,,,,,,,,161.27876136099803,161.28581842999847,161.28581842999847,161.71707631000027,g,0.0,0.4236415760024101,,,,,,sub-188,1,stroop_test,89.45345788647869,
,,,,33.0,9.0,2.0,,,,,,,,,,,,,blau,blue,b,1.0,b,1.0,0.3581425310039776,,,,,,,,,,2.0,9.0,33.0,6.0,161.74134939099895,,,,,,,,,,,,,,,,,161.71742128999904,162.51533028900303,163.30873064500338,163.29887392000091,,,,,,,,,,,,,,,,,,,,,,,,,,,,,,,,,,,163.299501098998,163.30873064500338,163.30873064500338,163.67666444100178,b,1.0,0.3581425310039776,,,,,,sub-188,1,stroop_test,89.45345788647869,
,,,,34.0,10.0,2.0,,,,,,,,,,,,,gelb,red,r,0.0,r,1.0,0.6553432639993844,,,,,,,,,,2.0,10.0,34.0,8.0,163.6865629410022,,,,,,,,,,,,,,,,,163.67715899400355,164.87472064600297,165.66890178900212,165.65866945499874,,,,,,,,,,,,,,,,,,,,,,,,,,,,,,,,,,,165.66159779800364,165.66890178900212,165.66890178900212,166.3263556720049,r,1.0,0.6553432639993844,,,,,,sub-188,1,stroop_test,89.45345788647869,
,,,,35.0,11.0,2.0,,,,,,,,,,,,,rot,blue,b,0.0,b,1.0,0.7853674930011039,,,,,,,,,,2.0,11.0,35.0,2.0,166.33498129500367,,,,,,,,,,,,,,,,,166.32671377299994,166.4245706049987,167.21861137900123,167.20877002100315,,,,,,,,,,,,,,,,,,,,,,,,,,,,,,,,,,,167.2115228670009,167.21861137900123,167.21861137900123,168.00971949700033,b,1.0,0.7853674930011039,,,,,,sub-188,1,stroop_test,89.45345788647869,
,,,,36.0,0.0,3.0,,,,,,,,,,,,,gelb,blue,b,0.0,b,1.0,0.9446382360038116,,,,,,,,,,3.0,0.0,36.0,9.0,168.0183565460029,,,,,,,,,,,,,,,,,168.01006959900403,169.20801342499908,170.00785151700256,169.99612007199903,,,,,,,,,,,,,,,,,,,,,,,,,,,,,,,,,,,169.9990294320014,170.00785151700256,170.00785151700256,170.95952665500226,b,1.0,0.9446382360038116,,,,,,sub-188,1,stroop_test,89.45345788647869,
,,,,37.0,1.0,3.0,,,,,,,,,,,,,blau,blue,b,1.0,b,1.0,0.6508713599978364,,,,,,,,,,3.0,1.0,37.0,5.0,170.96879168500163,,,,,,,,,,,,,,,,,170.95992073700472,171.0580097830025,171.85240047000116,171.84199918800005,,,,,,,,,,,,,,,,,,,,,,,,,,,,,,,,,,,171.84502997700474,171.85240047000116,171.85240047000116,172.50949925299938,b,1.0,0.6508713599978364,,,,,,sub-188,1,stroop_test,89.45345788647869,
,,,,38.0,2.0,3.0,,,,,,,,,,,,,rot,red,r,1.0,r,1.0,0.6383424770028796,,,,,,,,,,3.0,2.0,38.0,1.0,172.51815659600106,,,,,,,,,,,,,,,,,172.50983553900005,172.60773131300084,173.40126325200254,173.39155626499996,,,,,,,,,,,,,,,,,,,,,,,,,,,,,,,,,,,173.39435881400277,173.40126325200254,173.40126325200254,174.04312310800017,r,1.0,0.6383424770028796,,,,,,sub-188,1,stroop_test,89.45345788647869,
,,,,39.0,3.0,3.0,,,,,,,,,,,,,blau,yellow,g,0.0,g,1.0,0.3518436290032696,,,,,,,,,,3.0,3.0,39.0,7.0,174.05214504900505,,,,,,,,,,,,,,,,,174.043521779,174.39123496300454,175.1856887649992,175.1752877100007,,,,,,,,,,,,,,,,,,,,,,,,,,,,,,,,,,,175.17833002399857,175.1856887649992,175.1856887649992,175.5437258070015,g,1.0,0.3518436290032696,,,,,,sub-188,1,stroop_test,89.45345788647869,
,,,,40.0,4.0,3.0,,,,,,,,,,,,,rot,blue,b,0.0,b,1.0,0.5432720819953829,,,,,,,,,,3.0,4.0,40.0,2.0,175.5528729860016,,,,,,,,,,,,,,,,,175.54413654900418,175.64146734600217,176.43677140200452,176.42565206900326,,,,,,,,,,,,,,,,,,,,,,,,,,,,,,,,,,,176.4290220030016,176.43677140200452,176.43677140200452,176.98452727500262,b,1.0,0.5432720819953829,,,,,,sub-188,1,stroop_test,89.45345788647869,
,,,,41.0,5.0,3.0,,,,,,,,,,,,,blau,blue,b,1.0,b,1.0,0.4971933080014423,,,,,,,,,,3.0,5.0,41.0,6.0,176.99569259900454,,,,,,,,,,,,,,,,,176.98486903600133,177.7821119670043,178.5788879610045,178.56626099999994,,,,,,,,,,,,,,,,,,,,,,,,,,,,,,,,,,,178.57002404200466,178.5788879610045,178.5788879610045,179.08529970100062,b,1.0,0.4971933080014423,,,,,,sub-188,1,stroop_test,89.45345788647869,
,,,,42.0,6.0,3.0,,,,,,,,,,,,,rot,red,r,1.0,r,1.0,0.4939607429987518,,,,,,,,,,3.0,6.0,42.0,0.0,179.09651339599804,,,,,,,,,,,,,,,,,179.0857951569997,180.2817122339984,181.079190698998,181.06639557100425,,,,,,,,,,,,,,,,,,,,,,,,,,,,,,,,,,,181.0694119539985,181.079190698998,181.079190698998,181.57705390600316,r,1.0,0.4939607429987518,,,,,,sub-188,1,stroop_test,89.45345788647869,
,,,,43.0,7.0,3.0,,,,,,,,,,,,,gelb,yellow,g,1.0,g,1.0,0.4927356240004883,,,,,,,,,,3.0,7.0,43.0,10.0,181.5851825569989,,,,,,,,,,,,,,,,,181.57739433499955,182.7743925920004,183.5699968090048,183.5585647210028,,,,,,,,,,,,,,,,,,,,,,,,,,,,,,,,,,,183.5620809760003,183.5699968090048,183.5699968090048,184.0672611820046,g,1.0,0.4927356240004883,,,,,,sub-188,1,stroop_test,89.45345788647869,
,,,,44.0,8.0,3.0,,,,,,,,,,,,,blau,red,r,0.0,r,1.0,0.9560117880027974,,,,,,,,,,3.0,8.0,44.0,4.0,184.07805564199955,,,,,,,,,,,,,,,,,184.06760910300363,184.41450561799863,185.21138985900325,185.198919000999,,,,,,,,,,,,,,,,,,,,,,,,,,,,,,,,,,,185.20250345100067,185.21138985900325,185.21138985900325,186.18033353500505,r,1.0,0.9560117880027974,,,,,,sub-188,1,stroop_test,89.45345788647869,
,,,,45.0,9.0,3.0,,,,,,,,,,,,,gelb,yellow,g,1.0,g,1.0,0.9676077909971356,,,,,,,,,,3.0,9.0,45.0,11.0,186.18995816800447,,,,,,,,,,,,,,,,,186.1808143890012,186.52461015099837,187.319592124004,187.30879712000024,,,,,,,,,,,,,,,,,,,,,,,,,,,,,,,,,,,187.3118904820003,187.319592124004,187.319592124004,188.29281648799952,g,1.0,0.9676077909971356,,,,,,sub-188,1,stroop_test,89.45345788647869,
,,,,46.0,10.0,3.0,,,,,,,,,,,,,gelb,red,r,0.0,r,1.0,0.4453432770023937,,,,,,,,,,3.0,10.0,46.0,8.0,188.30213778700272,,,,,,,,,,,,,,,,,188.29315548999875,189.491354910002,190.2839793009989,190.27550844899812,,,,,,,,,,,,,,,,,,,,,,,,,,,,,,,,,,,190.2761157170025,190.2839793009989,190.2839793009989,190.73424746800447,r,1.0,0.4453432770023937,,,,,,sub-188,1,stroop_test,89.45345788647869,
,,,,47.0,11.0,3.0,,,,,,,,,,,,,rot,yellow,g,0.0,g,1.0,0.8323991860015667,,,,,,,,,,3.0,11.0,47.0,3.0,190.7452667910038,,,,,,,,,,,,,,,,,190.73458330499847,191.5315852870044,192.3287280010045,192.31561956099904,,,,,,,,,,,,,,,,,,,,,,,,,,,,,,,,,,,192.31877416700445,192.3287280010045,192.3287280010045,193.1677572519984,g,1.0,0.8323991860015667,,,,,,sub-188,1,stroop_test,89.45345788647869,
,,,,48.0,0.0,4.0,,,,,,,,,,,,,rot,red,r,1.0,r,1.0,0.4915481349962647,,,,,,,,,,4.0,0.0,48.0,0.0,193.1787969970028,,,,,,,,,,,,,,,,,193.16816583200125,193.26473094800167,194.05904582900257,194.04925481999817,,,,,,,,,,,,,,,,,,,,,,,,,,,,,,,,,,,194.04988195699843,194.05904582900257,194.05904582900257,194.5595522750009,r,1.0,0.4915481349962647,,,,,,sub-188,1,stroop_test,89.45345788647869,
,,,,49.0,1.0,4.0,,,,,,,,,,,,,blau,blue,b,1.0,b,1.0,0.5596605530008674,,,,,,,,,,4.0,1.0,49.0,5.0,194.56863095099837,,,,,,,,,,,,,,,,,194.55990032300176,195.35787407200405,196.15315127200304,196.14182374200027,,,,,,,,,,,,,,,,,,,,,,,,,,,,,,,,,,,196.14560394600267,196.15315127200304,196.15315127200304,196.71732680100104,b,1.0,0.5596605530008674,,,,,,sub-188,1,stroop_test,89.45345788647869,
,,,,50.0,2.0,4.0,,,,,,,,,,,,,blau,yellow,g,0.0,g,1.0,0.6139966429982451,,,,,,,,,,4.0,2.0,50.0,7.0,196.72840615000317,,,,,,,,,,,,,,,,,196.71766860500065,196.81480746099987,197.6086416360049,197.59955211399935,,,,,,,,,,,,,,,,,,,,,,,,,,,,,,,,,,,197.6001789459988,197.6086416360049,197.6086416360049,198.2263525610033,g,1.0,0.6139966429982451,,,,,,sub-188,1,stroop_test,89.45345788647869,
,,,,51.0,3.0,4.0,,,,,,,,,,,,,gelb,red,r,0.0,r,1.0,0.4613124809984583,,,,,,,,,,4.0,3.0,51.0,8.0,198.2358248599994,,,,,,,,,,,,,,,,,198.22669155499895,198.5742822489992,199.3699598200037,199.35829165900213,,,,,,,,,,,,,,,,,,,,,,,,,,,,,,,,,,,199.36189446999924,199.3699598200037,199.3699598200037,199.8343924600049,r,1.0,0.4613124809984583,,,,,,sub-188,1,stroop_test,89.45345788647869,
,,,,52.0,4.0,4.0,,,,,,,,,,,,,rot,yellow,g,0.0,g,1.0,1.1458046909974655,,,,,,,,,,4.0,4.0,52.0,3.0,199.8447707450032,,,,,,,,,,,,,,,,,199.834742431005,199.93222174100083,200.73451195300004,200.7245559639996,,,,,,,,,,,,,,,,,,,,,,,,,,,,,,,,,,,200.727576451005,200.73451195300004,200.73451195300004,201.8832285160024,g,1.0,1.1458046909974655,,,,,,sub-188,1,stroop_test,89.45345788647869,
,,,,53.0,5.0,4.0,,,,,,,,,,,,,gelb,yellow,g,1.0,g,1.0,0.6286430799955269,,,,,,,,,,4.0,5.0,53.0,11.0,201.90673551899815,,,,,,,,,,,,,,,,,201.88366086300084,202.6806183640001,203.4902748720051,203.46476901599817,,,,,,,,,,,,,,,,,,,,,,,,,,,,,,,,,,,203.4675975680002,203.4902748720051,203.4902748720051,204.12713566700404,g,1.0,0.6286430799955269,,,,,,sub-188,1,stroop_test,89.45345788647869,
,,,,54.0,6.0,4.0,,,,,,,,,,,,,rot,blue,b,0.0,b,1.0,0.3670851130009396,,,,,,,,,,4.0,6.0,54.0,2.0,204.1365508410017,,,,,,,,,,,,,,,,,204.1274752419995,204.92446790200484,205.7190019490008,205.7084458600002,,,,,,,,,,,,,,,,,,,,,,,,,,,,,,,,,,,205.71143317899987,205.7190019490008,205.7190019490008,206.09311580000207,b,1.0,0.3670851130009396,,,,,,sub-188,1,stroop_test,89.45345788647869,
,,,,55.0,7.0,4.0,,,,,,,,,,,,,blau,blue,b,1.0,b,1.0,0.5384253580050427,,,,,,,,,,4.0,7.0,55.0,6.0,206.10229694600275,,,,,,,,,,,,,,,,,206.09353619800092,206.191563968001,206.985514729,206.9749791170034,,,,,,,,,,,,,,,,,,,,,,,,,,,,,,,,,,,206.97795083600067,206.985514729,206.985514729,207.52624641400325,b,1.0,0.5384253580050427,,,,,,sub-188,1,stroop_test,89.45345788647869,
,,,,56.0,8.0,4.0,,,,,,,,,,,,,rot,red,r,1.0,r,1.0,0.4355400780041236,,,,,,,,,,4.0,8.0,56.0,1.0,207.5351262769982,,,,,,,,,,,,,,,,,207.5265966720035,208.32453685400105,209.12046866400487,209.10875193700485,,,,,,,,,,,,,,,,,,,,,,,,,,,,,,,,,,,209.11253735200444,209.12046866400487,209.12046866400487,209.5598150389997,r,1.0,0.4355400780041236,,,,,,sub-188,1,stroop_test,89.45345788647869,
,,,,57.0,9.0,4.0,,,,,,,,,,,,,gelb,blue,b,0.0,b,1.0,0.7122470660033287,,,,,,,,,,4.0,9.0,57.0,9.0,209.56863204199908,,,,,,,,,,,,,,,,,209.56015063499945,210.35752614599917,211.1543606760024,211.1420399359995,,,,,,,,,,,,,,,,,,,,,,,,,,,,,,,,,,,211.14639255200015,211.1543606760024,211.1543606760024,211.87998416199844,b,1.0,0.7122470660033287,,,,,,sub-188,1,stroop_test,89.45345788647869,
,,,,58.0,10.0,4.0,,,,,,,,,,,,,gelb,yellow,g,1.0,g,1.0,0.8218473189990618,,,,,,,,,,4.0,10.0,58.0,10.0,211.8909464259996,,,,,,,,,,,,,,,,,211.88037926100515,211.9743026170036,212.7670722690018,212.7583426870042,,,,,,,,,,,,,,,,,,,,,,,,,,,,,,,,,,,212.75908706400517,212.7670722690018,212.7670722690018,213.594328596002,g,1.0,0.8218473189990618,,,,,,sub-188,1,stroop_test,89.45345788647869,
,,,,59.0,11.0,4.0,,,,,,,,,,,,,blau,red,r,0.0,r,1.0,0.5847106619985425,,,,,,,,,,4.0,11.0,59.0,4.0,213.6070944910025,,,,,,,,,,,,,,,,,213.59471702200244,214.39083456400112,215.18586782700004,215.1750310760035,,,,,,,,,,,,,,,,,,,,,,,,,,,,,,,,,,,215.1782363930033,215.18586782700004,215.18586782700004,215.77629966899983,r,1.0,0.5847106619985425,,,,,,sub-188,1,stroop_test,89.45345788647869,
,,,,60.0,0.0,5.0,,,,,,,,,,,,,rot,blue,b,0.0,b,1.0,0.749190754002484,,,,,,,,,,5.0,0.0,60.0,2.0,215.78527300800488,,,,,,,,,,,,,,,,,215.77664783200453,216.12446478000493,216.91878453700335,216.90827939600425,,,,,,,,,,,,,,,,,,,,,,,,,,,,,,,,,,,216.91117184500035,216.91878453700335,216.91878453700335,217.6768283630008,b,1.0,0.749190754002484,,,,,,sub-188,1,stroop_test,89.45345788647869,
,,,,61.0,1.0,5.0,,,,,,,,,,,,,blau,blue,b,1.0,b,1.0,0.4416453449957771,,,,,,,,,,5.0,1.0,61.0,6.0,217.68513365200488,,,,,,,,,,,,,,,,,217.6771632300006,218.4744716970017,219.27064993300155,219.2583887350047,,,,,,,,,,,,,,,,,,,,,,,,,,,,,,,,,,,219.26237992299863,219.27064993300155,219.27064993300155,219.71885655900405,b,1.0,0.4416453449957771,,,,,,sub-188,1,stroop_test,89.45345788647869,
,,,,62.0,2.0,5.0,,,,,,,,,,,,,gelb,blue,b,0.0,b,1.0,0.5108175829955144,,,,,,,,,,5.0,2.0,62.0,9.0,219.72883511499825,,,,,,,,,,,,,,,,,219.7192005340039,220.91450838500168,221.7117931210014,221.69891468300196,,,,,,,,,,,,,,,,,,,,,,,,,,,,,,,,,,,221.70203533000316,221.7117931210014,221.7117931210014,222.2260967080001,b,1.0,0.5108175829955144,,,,,,sub-188,1,stroop_test,89.45345788647869,
,,,,63.0,3.0,5.0,,,,,,,,,,,,,gelb,red,r,0.0,r,1.0,0.6475803379944409,,,,,,,,,,5.0,3.0,63.0,8.0,222.2351341110043,,,,,,,,,,,,,,,,,222.2264297810034,222.57422956899973,223.36637319500005,223.35813489800057,,,,,,,,,,,,,,,,,,,,,,,,,,,,,,,,,,,223.35882035300165,223.36637319500005,223.36637319500005,224.01657421800337,r,1.0,0.6475803379944409,,,,,,sub-188,1,stroop_test,89.45345788647869,
,,,,64.0,4.0,5.0,,,,,,,,,,,,,rot,red,r,1.0,r,1.0,0.7108271539982525,,,,,,,,,,5.0,4.0,64.0,1.0,224.03994367599807,,,,,,,,,,,,,,,,,224.0168964530021,224.81561871599845,225.61831171400263,225.6078650510026,,,,,,,,,,,,,,,,,,,,,,,,,,,,,,,,,,,225.6109072370018,225.61831171400263,225.61831171400263,226.33331338200517,r,1.0,0.7108271539982525,,,,,,sub-188,1,stroop_test,89.45345788647869,
,,,,65.0,5.0,5.0,,,,,,,,,,,,,blau,red,r,0.0,r,1.0,0.6304638619985781,,,,,,,,,,5.0,5.0,65.0,4.0,226.356733669003,,,,,,,,,,,,,,,,,226.33365242199943,227.53132470400303,228.3293744059993,228.3161326469999,,,,,,,,,,,,,,,,,,,,,,,,,,,,,,,,,,,228.3203567340024,228.3293744059993,228.3293744059993,228.96797755100124,r,1.0,0.6304638619985781,,,,,,sub-188,1,stroop_test,89.45345788647869,
,,,,66.0,6.0,5.0,,,,,,,,,,,,,blau,yellow,g,0.0,g,1.0,0.79907379100041,,,,,,,,,,5.0,6.0,66.0,7.0,228.97797600200283,,,,,,,,,,,,,,,,,228.9683690710008,229.06451451199973,229.8575488300048,229.8487645589994,,,,,,,,,,,,,,,,,,,,,,,,,,,,,,,,,,,229.84938245100057,229.8575488300048,229.8575488300048,230.66019980800047,g,1.0,0.79907379100041,,,,,,sub-188,1,stroop_test,89.45345788647869,
,,,,67.0,7.0,5.0,,,,,,,,,,,,,gelb,yellow,g,1.0,g,1.0,0.6796427459994447,,,,,,,,,,5.0,7.0,67.0,10.0,230.66948923300515,,,,,,,,,,,,,,,,,230.6605946970012,231.85716189099912,232.6516562120014,232.6412804930005,,,,,,,,,,,,,,,,,,,,,,,,,,,,,,,,,,,232.64427800499837,232.6516562120014,232.6516562120014,233.33418813300523,g,1.0,0.6796427459994447,,,,,,sub-188,1,stroop_test,89.45345788647869,
,,,,68.0,8.0,5.0,,,,,,,,,,,,,blau,blue,b,1.0,b,1.0,0.9338380110057188,,,,,,,,,,5.0,8.0,68.0,5.0,233.34508992100015,,,,,,,,,,,,,,,,,233.33459734699863,233.4316903880026,234.2277484150036,234.21532862000456,,,,,,,,,,,,,,,,,,,,,,,,,,,,,,,,,,,234.21878846300388,234.2277484150036,234.2277484150036,235.16771673600303,b,1.0,0.9338380110057188,,,,,,sub-188,1,stroop_test,89.45345788647869,
,,,,69.0,9.0,5.0,,,,,,,,,,,,,gelb,yellow,g,1.0,r,0.0,0.5661043309955858,,,,,,,,,,5.0,9.0,69.0,11.0,235.17829631000492,,,,,,,,,,,,,,,,,235.16810916700345,235.96443489399823,236.7609200670049,236.7486878089985,,,,,,,,,,,,,,,,,,,,,,,,,,,,,,,,,,,236.7518214810043,236.7609200670049,236.7609200670049,237.33692075499857,r,0.0,0.5661043309955858,,,,,,sub-188,1,stroop_test,89.45345788647869,
,,,,70.0,10.0,5.0,,,,,,,,,,,,,rot,red,r,1.0,r,1.0,0.6559574310012977,,,,,,,,,,5.0,10.0,70.0,0.0,237.3479305389992,,,,,,,,,,,,,,,,,237.3373237670021,237.68119837400445,238.47751960900496,238.4656081360008,,,,,,,,,,,,,,,,,,,,,,,,,,,,,,,,,,,238.46867164500145,238.47751960900496,238.47751960900496,239.14275781500328,r,1.0,0.6559574310012977,,,,,,sub-188,1,stroop_test,89.45345788647869,
,,,,71.0,11.0,5.0,,,,,,,,,,,,,rot,yellow,g,0.0,g,1.0,0.5768537960029789,,,,,,,,,,5.0,11.0,71.0,3.0,239.1511623059996,,,,,,,,,,,,,,,,,239.1431408659992,239.49052559499975,240.28329392200249,240.27480070100137,,,,,,,,,,,,,,,,,,,,,,,,,,,,,,,,,,,240.27540212400345,240.28329392200249,240.28329392200249,240.86638664099883,g,1.0,0.5768537960029789,,,,,,sub-188,1,stroop_test,89.45345788647869,
,,,,72.0,0.0,6.0,,,,,,,,,,,,,gelb,blue,b,0.0,b,1.0,0.5591160999974818,,,,,,,,,,6.0,0.0,72.0,9.0,240.88958526900387,,,,,,,,,,,,,,,,,240.8667242599986,241.21448459000385,242.0132565960012,241.9991449610025,,,,,,,,,,,,,,,,,,,,,,,,,,,,,,,,,,,242.00355872300133,242.0132565960012,242.0132565960012,242.5763578879996,b,1.0,0.5591160999974818,,,,,,sub-188,1,stroop_test,89.45345788647869,
,,,,73.0,1.0,6.0,,,,,,,,,,,,,rot,blue,b,0.0,b,1.0,0.394029048999073,,,,,,,,,,6.0,1.0,73.0,2.0,242.58499258600204,,,,,,,,,,,,,,,,,242.57675273100176,243.37408250500448,244.16995383400356,244.1580560500006,,,,,,,,,,,,,,,,,,,,,,,,,,,,,,,,,,,244.16170855300152,244.16995383400356,244.16995383400356,244.5669023110022,b,1.0,0.394029048999073,,,,,,sub-188,1,stroop_test,89.45345788647869,
,,,,74.0,2.0,6.0,,,,,,,,,,,,,rot,red,r,1.0,r,1.0,0.7954055330046685,,,,,,,,,,6.0,2.0,74.0,1.0,244.5784695629991,,,,,,,,,,,,,,,,,244.56723701400188,244.9141033909982,245.71012640299887,245.6991668750052,,,,,,,,,,,,,,,,,,,,,,,,,,,,,,,,,,,245.6999474800032,245.71012640299887,245.71012640299887,246.509119553004,r,1.0,0.7954055330046685,,,,,,sub-188,1,stroop_test,89.45345788647869,
,,,,75.0,3.0,6.0,,,,,,,,,,,,,gelb,red,r,0.0,r,1.0,0.5518073920029565,,,,,,,,,,6.0,3.0,75.0,8.0,246.5186859759997,,,,,,,,,,,,,,,,,246.5094583570026,246.8569164720029,247.6511836740028,247.6408623270036,,,,,,,,,,,,,,,,,,,,,,,,,,,,,,,,,,,247.64385276100077,247.6511836740028,247.6511836740028,248.20965424200404,r,1.0,0.5518073920029565,,,,,,sub-188,1,stroop_test,89.45345788647869,
,,,,76.0,4.0,6.0,,,,,,,,,,,,,blau,yellow,g,0.0,g,1.0,0.7103410109994002,,,,,,,,,,6.0,4.0,76.0,7.0,248.2195872420052,,,,,,,,,,,,,,,,,248.2100132580017,248.3071480900035,249.10204242400505,249.09105932500097,,,,,,,,,,,,,,,,,,,,,,,,,,,,,,,,,,,249.09430457200503,249.10204242400505,249.10204242400505,249.8167225750003,g,1.0,0.7103410109994002,,,,,,sub-188,1,stroop_test,89.45345788647869,
,,,,77.0,5.0,6.0,,,,,,,,,,,,,blau,blue,b,1.0,b,1.0,0.6002562430003309,,,,,,,,,,6.0,5.0,77.0,5.0,249.82797694200417,,,,,,,,,,,,,,,,,249.8170646360013,250.61414428499847,251.4230031469997,251.39901821799867,,,,,,,,,,,,,,,,,,,,,,,,,,,,,,,,,,,251.3998063090039,251.4230031469997,251.4230031469997,252.0431026459992,b,1.0,0.6002562430003309,,,,,,sub-188,1,stroop_test,89.45345788647869,
,,,,78.0,6.0,6.0,,,,,,,,,,,,,rot,yellow,g,0.0,r,0.0,0.5341924800013658,,,,,,,,,,6.0,6.0,78.0,3.0,252.0589814890045,,,,,,,,,,,,,,,,,252.04349062500117,253.2406911740036,254.0346777279992,254.02435312799932,,,,,,,,,,,,,,,,,,,,,,,,,,,,,,,,,,,254.02721967300025,254.0346777279992,254.0346777279992,254.57584918400244,r,0.0,0.5341924800013658,,,,,,sub-188,1,stroop_test,89.45345788647869,
,,,,79.0,7.0,6.0,,,,,,,,,,,,,gelb,yellow,g,1.0,g,1.0,0.4914992410049308,,,,,,,,,,6.0,7.0,79.0,11.0,254.58418711899867,,,,,,,,,,,,,,,,,254.57618556800296,254.67379045200505,255.4686556500019,255.45768310400308,,,,,,,,,,,,,,,,,,,,,,,,,,,,,,,,,,,255.46089088400183,255.4686556500019,255.4686556500019,255.96684984199965,g,1.0,0.4914992410049308,,,,,,sub-188,1,stroop_test,89.45345788647869,
,,,,80.0,8.0,6.0,,,,,,,,,,,,,rot,red,r,1.0,r,1.0,1.2305498709974927,,,,,,,,,,6.0,8.0,80.0,0.0,255.9778956900045,,,,,,,,,,,,,,,,,255.96720305100465,257.16404907499964,257.9611223160028,257.94814845200017,,,,,,,,,,,,,,,,,,,,,,,,,,,,,,,,,,,257.95119825500296,257.9611223160028,257.9611223160028,259.20036614800483,r,1.0,1.2305498709974927,,,,,,sub-188,1,stroop_test,89.45345788647869,
,,,,81.0,9.0,6.0,,,,,,,,,,,,,blau,blue,b,1.0,b,1.0,0.4739893330042832,,,,,,,,,,6.0,9.0,81.0,6.0,259.21130360200186,,,,,,,,,,,,,,,,,259.200766422,260.3974150130016,261.19496356700256,261.1811639779989,,,,,,,,,,,,,,,,,,,,,,,,,,,,,,,,,,,261.1862736910043,261.19496356700256,261.19496356700256,261.67486252700473,b,1.0,0.4739893330042832,,,,,,sub-188,1,stroop_test,89.45345788647869,
,,,,82.0,10.0,6.0,,,,,,,,,,,,,blau,red,r,0.0,r,1.0,0.8788421019999078,,,,,,,,,,6.0,10.0,82.0,4.0,261.6840459540035,,,,,,,,,,,,,,,,,261.6751984080038,261.77326880700275,262.56535948200326,262.557338548002,,,,,,,,,,,,,,,,,,,,,,,,,,,,,,,,,,,262.5579552519994,262.56535948200326,262.56535948200326,263.4502468499996,r,1.0,0.8788421019999078,,,,,,sub-188,1,stroop_test,89.45345788647869,
,,,,83.0,11.0,6.0,,,,,,,,,,,,,gelb,yellow,g,1.0,g,1.0,0.5593478010050603,,,,,,,,,,6.0,11.0,83.0,10.0,263.46041293899907,,,,,,,,,,,,,,,,,263.4506428980021,263.54663321800035,264.34393428399926,264.3312604130042,,,,,,,,,,,,,,,,,,,,,,,,,,,,,,,,,,,264.3343350139985,264.34393428399926,264.34393428399926,264.9089381580052,g,1.0,0.5593478010050603,,,,,,sub-188,1,stroop_test,89.45345788647869,
,,,,84.0,0.0,7.0,,,,,,,,,,,,,rot,yellow,g,0.0,g,1.0,0.7374113270052476,,,,,,,,,,7.0,0.0,84.0,3.0,264.9179922629992,,,,,,,,,,,,,,,,,264.9092727210009,266.1070182750045,266.9017844379996,266.8910684420043,,,,,,,,,,,,,,,,,,,,,,,,,,,,,,,,,,,266.89417445300205,266.9017844379996,266.9017844379996,267.64248479100206,g,1.0,0.7374113270052476,,,,,,sub-188,1,stroop_test,89.45345788647869,
,,,,85.0,1.0,7.0,,,,,,,,,,,,,rot,red,r,1.0,r,1.0,0.6153077880007913,,,,,,,,,,7.0,1.0,85.0,0.0,267.6513522910027,,,,,,,,,,,,,,,,,267.6428900450046,267.740239124003,268.5321576970018,268.5240257289988,,,,,,,,,,,,,,,,,,,,,,,,,,,,,,,,,,,268.5246421240008,268.5321576970018,268.5321576970018,269.1507325929997,r,1.0,0.6153077880007913,,,,,,sub-188,1,stroop_test,89.45345788647869,
,,,,86.0,2.0,7.0,,,,,,,,,,,,,gelb,blue,b,0.0,b,1.0,0.5704241290004575,,,,,,,,,,7.0,2.0,86.0,9.0,269.1609290550041,,,,,,,,,,,,,,,,,269.15112482399854,270.3470728559987,271.1438857540052,271.13235513800464,,,,,,,,,,,,,,,,,,,,,,,,,,,,,,,,,,,271.1354484190015,271.1438857540052,271.1438857540052,271.7186322400012,b,1.0,0.5704241290004575,,,,,,sub-188,1,stroop_test,89.45345788647869,
,,,,87.0,3.0,7.0,,,,,,,,,,,,,rot,red,r,1.0,r,1.0,0.6374899160000496,,,,,,,,,,7.0,3.0,87.0,1.0,271.729228025004,,,,,,,,,,,,,,,,,271.71898366000096,272.9142698959986,273.7103120210013,273.69833617000404,,,,,,,,,,,,,,,,,,,,,,,,,,,,,,,,,,,273.7014145830035,273.7103120210013,273.7103120210013,274.35889307600155,r,1.0,0.6374899160000496,,,,,,sub-188,1,stroop_test,89.45345788647869,
,,,,88.0,4.0,7.0,,,,,,,,,,,,,gelb,yellow,g,1.0,g,1.0,0.5325215749980998,,,,,,,,,,7.0,4.0,88.0,10.0,274.3682952570016,,,,,,,,,,,,,,,,,274.3593682840001,275.15631679400394,275.9510238840012,275.94070796400047,,,,,,,,,,,,,,,,,,,,,,,,,,,,,,,,,,,275.9437530089999,275.9510238840012,275.9510238840012,276.491987995003,g,1.0,0.5325215749980998,,,,,,sub-188,1,stroop_test,89.45345788647869,
,,,,89.0,5.0,7.0,,,,,,,,,,,,,blau,yellow,g,0.0,g,1.0,0.9534028070047498,,,,,,,,,,7.0,5.0,89.0,7.0,276.5008009170051,,,,,,,,,,,,,,,,,276.4923842260032,277.28976553399843,278.0862363240012,278.0742032640046,,,,,,,,,,,,,,,,,,,,,,,,,,,,,,,,,,,278.0782767780038,278.0862363240012,278.0862363240012,279.04818981000426,g,1.0,0.9534028070047498,,,,,,sub-188,1,stroop_test,89.45345788647869,
,,,,90.0,6.0,7.0,,,,,,,,,,,,,rot,blue,b,0.0,b,1.0,0.8323575840040576,,,,,,,,,,7.0,6.0,90.0,2.0,279.0592371349994,,,,,,,,,,,,,,,,,279.0485748229985,280.2407439419985,281.0339217770015,281.0238300420024,,,,,,,,,,,,,,,,,,,,,,,,,,,,,,,,,,,281.02645213100186,281.0339217770015,281.0339217770015,281.87548114499805,b,1.0,0.8323575840040576,,,,,,sub-188,1,stroop_test,89.45345788647869,
,,,,91.0,7.0,7.0,,,,,,,,,,,,,blau,blue,b,1.0,b,1.0,0.5121281829997315,,,,,,,,,,7.0,7.0,91.0,6.0,281.8840334790002,,,,,,,,,,,,,,,,,281.8758966860041,281.9736549930021,282.7678973150032,282.75739394000266,,,,,,,,,,,,,,,,,,,,,,,,,,,,,,,,,,,282.76040454900067,282.7678973150032,282.7678973150032,283.2827113120002,b,1.0,0.5121281829997315,,,,,,sub-188,1,stroop_test,89.45345788647869,
,,,,92.0,8.0,7.0,,,,,,,,,,,,,gelb,red,r,0.0,r,1.0,0.6954865590014379,,,,,,,,,,7.0,8.0,92.0,8.0,283.29381211500004,,,,,,,,,,,,,,,,,283.2831185910036,284.08116681499814,284.8769477850001,284.8649143250004,,,,,,,,,,,,,,,,,,,,,,,,,,,,,,,,,,,284.86813906200405,284.8769477850001,284.8769477850001,285.5748877369988,r,1.0,0.6954865590014379,,,,,,sub-188,1,stroop_test,89.45345788647869,
,,,,93.0,9.0,7.0,,,,,,,,,,,,,blau,red,r,0.0,r,1.0,0.6230719099985436,,,,,,,,,,7.0,9.0,93.0,4.0,285.5839481430012,,,,,,,,,,,,,,,,,285.57525652700133,286.7730279419993,287.5675039230045,287.5570292640041,,,,,,,,,,,,,,,,,,,,,,,,,,,,,,,,,,,287.56005295499926,287.5675039230045,287.5675039230045,288.19314348100306,r,1.0,0.6230719099985436,,,,,,sub-188,1,stroop_test,89.45345788647869,
,,,,94.0,10.0,7.0,,,,,,,,,,,,,blau,blue,b,1.0,b,1.0,0.540571680998255,,,,,,,,,,7.0,10.0,94.0,5.0,288.205387273003,,,,,,,,,,,,,,,,,288.1935919899988,288.54015295099816,289.33175163000124,289.32382106599835,,,,,,,,,,,,,,,,,,,,,,,,,,,,,,,,,,,289.32431345700024,289.33175163000124,289.33175163000124,289.87612349400297,b,1.0,0.540571680998255,,,,,,sub-188,1,stroop_test,89.45345788647869,
,,,,95.0,11.0,7.0,,,,,,,,,,,,,gelb,yellow,g,1.0,g,1.0,0.7315424770058598,,,,,,,,,,7.0,11.0,95.0,11.0,289.8864830310049,,,,,,,,,,,,,,,,,289.876460462001,290.6728092330013,291.46684039200045,291.4565523269994,,,,,,,,,,,,,,,,,,,,,,,,,,,,,,,,,,,291.4595504110039,291.46684039200045,291.46684039200045,292.20772306599974,g,1.0,0.7315424770058598,,,,,,sub-188,1,stroop_test,89.45345788647869,
,,,,96.0,0.0,8.0,,,,,,,,,,,,,rot,red,r,1.0,r,1.0,0.5212204970011953,,,,,,,,,,8.0,0.0,96.0,0.0,292.2170209640026,,,,,,,,,,,,,,,,,292.20806028399966,292.55628846699983,293.3509230280033,293.3404447639987,,,,,,,,,,,,,,,,,,,,,,,,,,,,,,,,,,,293.3434493090026,293.3509230280033,293.3509230280033,293.87471992200153,r,1.0,0.5212204970011953,,,,,,sub-188,1,stroop_test,89.45345788647869,
,,,,97.0,1.0,8.0,,,,,,,,,,,,,gelb,blue,b,0.0,b,1.0,0.4899629330029711,,,,,,,,,,8.0,1.0,97.0,9.0,293.88346644800185,,,,,,,,,,,,,,,,,293.875071430004,294.67266566000035,295.467604999998,295.45672828300303,,,,,,,,,,,,,,,,,,,,,,,,,,,,,,,,,,,295.460342847,295.467604999998,295.467604999998,295.9661542870017,b,1.0,0.4899629330029711,,,,,,sub-188,1,stroop_test,89.45345788647869,
,,,,98.0,2.0,8.0,,,,,,,,,,,,,rot,red,r,1.0,r,1.0,0.5242083120028838,,,,,,,,,,8.0,2.0,98.0,1.0,295.97748161799973,,,,,,,,,,,,,,,,,295.9665480859985,297.1628596740047,297.96040468600404,297.9475010380047,,,,,,,,,,,,,,,,,,,,,,,,,,,,,,,,,,,297.9515023499989,297.96040468600404,297.96040468600404,298.49250015000143,r,1.0,0.5242083120028838,,,,,,sub-188,1,stroop_test,89.45345788647869,
,,,,99.0,3.0,8.0,,,,,,,,,,,,,rot,yellow,g,0.0,g,1.0,0.8055379439974786,,,,,,,,,,8.0,3.0,99.0,3.0,298.501003246005,,,,,,,,,,,,,,,,,298.4928925130007,298.58978124400164,299.38249785700464,299.3742738380024,,,,,,,,,,,,,,,,,,,,,,,,,,,,,,,,,,,299.3748860160049,299.38249785700464,299.38249785700464,300.1917214780042,g,1.0,0.8055379439974786,,,,,,sub-188,1,stroop_test,89.45345788647869,
,,,,100.0,4.0,8.0,,,,,,,,,,,,,blau,blue,b,1.0,b,1.0,0.5394299140025396,,,,,,,,,,8.0,4.0,100.0,5.0,300.2006000440015,,,,,,,,,,,,,,,,,300.192116076003,300.2906294190034,301.08542005200434,301.07434329600073,,,,,,,,,,,,,,,,,,,,,,,,,,,,,,,,,,,301.07744884600106,301.08542005200434,301.08542005200434,301.6325730719982,b,1.0,0.5394299140025396,,,,,,sub-188,1,stroop_test,89.45345788647869,
,,,,101.0,5.0,8.0,,,,,,,,,,,,,gelb,yellow,g,1.0,g,1.0,0.4381616789978579,,,,,,,,,,8.0,5.0,101.0,10.0,301.6438531660024,,,,,,,,,,,,,,,,,301.632971431005,301.7298916159998,302.5265808020049,302.5145881060016,,,,,,,,,,,,,,,,,,,,,,,,,,,,,,,,,,,302.5178509510006,302.5265808020049,302.5265808020049,302.97490138599824,g,1.0,0.4381616789978579,,,,,,sub-188,1,stroop_test,89.45345788647869,
,,,,102.0,6.0,8.0,,,,,,,,,,,,,gelb,red,r,0.0,r,1.0,0.2921268049976788,,,,,,,,,,8.0,6.0,102.0,8.0,302.984167417002,,,,,,,,,,,,,,,,,302.97537409100187,303.0730905119999,303.86531582700263,303.8572411740024,,,,,,,,,,,,,,,,,,,,,,,,,,,,,,,,,,,303.8578945240006,303.86531582700263,303.86531582700263,304.1600776339983,r,1.0,0.2921268049976788,,,,,,sub-188,1,stroop_test,89.45345788647869,
,,,,103.0,7.0,8.0,,,,,,,,,,,,,blau,red,r,0.0,r,1.0,0.8210402469994733,,,,,,,,,,8.0,7.0,103.0,4.0,304.172235707003,,,,,,,,,,,,,,,,,304.1604271210017,305.35653348900087,306.15117486400413,306.1403962390032,,,,,,,,,,,,,,,,,,,,,,,,,,,,,,,,,,,306.1435880080025,306.15117486400413,306.15117486400413,306.97601425500034,r,1.0,0.8210402469994733,,,,,,sub-188,1,stroop_test,89.45345788647869,
,,,,104.0,8.0,8.0,,,,,,,,,,,,,rot,blue,b,0.0,b,1.0,0.7373082419944694,,,,,,,,,,8.0,8.0,104.0,2.0,306.9864899750028,,,,,,,,,,,,,,,,,306.9763550720017,307.77326949399867,308.567107269002,308.5569054720036,,,,,,,,,,,,,,,,,,,,,,,,,,,,,,,,,,,308.5596696290013,308.567107269002,308.567107269002,309.3081990270002,b,1.0,0.7373082419944694,,,,,,sub-188,1,stroop_test,89.45345788647869,
,,,,105.0,9.0,8.0,,,,,,,,,,,,,gelb,yellow,g,1.0,g,1.0,0.634729169003549,,,,,,,,,,8.0,9.0,105.0,11.0,309.31721784800175,,,,,,,,,,,,,,,,,309.3085304210035,310.5062312770024,311.29894209100166,311.28957428400463,,,,,,,,,,,,,,,,,,,,,,,,,,,,,,,,,,,311.2918705740012,311.29894209100166,311.29894209100166,311.9422011650022,g,1.0,0.634729169003549,,,,,,sub-188,1,stroop_test,89.45345788647869,
,,,,106.0,10.0,8.0,,,,,,,,,,,,,blau,blue,b,1.0,b,1.0,0.6263613020055345,,,,,,,,,,8.0,10.0,106.0,6.0,311.9517019760024,,,,,,,,,,,,,,,,,311.9425437750033,312.0396539600042,312.8343273900027,312.82362075600395,,,,,,,,,,,,,,,,,,,,,,,,,,,,,,,,,,,312.8265667090018,312.8343273900027,312.8343273900027,313.4699539240028,b,1.0,0.6263613020055345,,,,,,sub-188,1,stroop_test,89.45345788647869,
,,,,107.0,11.0,8.0,,,,,,,,,,,,,blau,yellow,g,0.0,g,1.0,0.6198794459996861,,,,,,,,,,8.0,11.0,107.0,7.0,313.4825464690002,,,,,,,,,,,,,,,,,313.4704000280035,314.2640089659981,315.05651124100405,315.0476967680006,,,,,,,,,,,,,,,,,,,,,,,,,,,,,,,,,,,315.0483584120011,315.05651124100405,315.05651124100405,315.6825705270021,g,1.0,0.6198794459996861,,,,,,sub-188,1,stroop_test,89.45345788647869,
,,,,108.0,0.0,9.0,,,,,,,,,,,,,blau,red,r,0.0,r,1.0,0.5390705089957919,,,,,,,,,,9.0,0.0,108.0,4.0,315.69322709900007,,,,,,,,,,,,,,,,,315.68291553200106,315.779904644005,316.5734577030016,316.5643131550023,,,,,,,,,,,,,,,,,,,,,,,,,,,,,,,,,,,316.56499403699854,316.5734577030016,316.5734577030016,317.1148449780012,r,1.0,0.5390705089957919,,,,,,sub-188,1,stroop_test,89.45345788647869,
,,,,109.0,1.0,9.0,,,,,,,,,,,,,rot,yellow,g,0.0,g,1.0,0.7655353660011315,,,,,,,,,,9.0,1.0,109.0,3.0,317.12392428900057,,,,,,,,,,,,,,,,,317.1151732260041,317.91321269100445,318.7106276109989,318.6981502080016,,,,,,,,,,,,,,,,,,,,,,,,,,,,,,,,,,,318.7017834240032,318.7106276109989,318.7106276109989,319.48190114799945,g,1.0,0.7655353660011315,,,,,,sub-188,1,stroop_test,89.45345788647869,
,,,,110.0,2.0,9.0,,,,,,,,,,,,,rot,red,r,1.0,r,1.0,0.7078004240029259,,,,,,,,,,9.0,2.0,110.0,1.0,319.4926217559987,,,,,,,,,,,,,,,,,319.4822386320011,319.57955202900484,320.37311307100026,320.36382263799896,,,,,,,,,,,,,,,,,,,,,,,,,,,,,,,,,,,320.3644697740019,320.37311307100026,320.37311307100026,321.0917855619992,r,1.0,0.7078004240029259,,,,,,sub-188,1,stroop_test,89.45345788647869,
,,,,111.0,3.0,9.0,,,,,,,,,,,,,gelb,red,r,0.0,r,1.0,0.5253157449988066,,,,,,,,,,9.0,3.0,111.0,8.0,321.1008769320033,,,,,,,,,,,,,,,,,321.0922646830004,322.28913016200386,323.08374438600003,323.073366867,,,,,,,,,,,,,,,,,,,,,,,,,,,,,,,,,,,323.0763861980013,323.08374438600003,323.08374438600003,323.6159889280025,r,1.0,0.5253157449988066,,,,,,sub-188,1,stroop_test,89.45345788647869,
,,,,112.0,4.0,9.0,,,,,,,,,,,,,blau,blue,b,1.0,b,1.0,0.3696635119995335,,,,,,,,,,9.0,4.0,112.0,6.0,323.6270903030017,,,,,,,,,,,,,,,,,323.61636385600286,323.71367273000214,324.5105654170038,324.4978057390035,,,,,,,,,,,,,,,,,,,,,,,,,,,,,,,,,,,324.50176684500184,324.5105654170038,324.5105654170038,324.88274300000194,b,1.0,0.3696635119995335,,,,,,sub-188,1,stroop_test,89.45345788647869,
,,,,113.0,5.0,9.0,,,,,,,,,,,,,gelb,yellow,g,1.0,g,1.0,0.6783028029967682,,,,,,,,,,9.0,5.0,113.0,10.0,324.89386530900083,,,,,,,,,,,,,,,,,324.88309138800105,324.9796841380012,325.77647071200045,325.7646496599991,,,,,,,,,,,,,,,,,,,,,,,,,,,,,,,,,,,325.76775885299867,325.77647071200045,325.77647071200045,326.45798251900123,g,1.0,0.6783028029967682,,,,,,sub-188,1,stroop_test,89.45345788647869,
,,,,114.0,6.0,9.0,,,,,,,,,,,,,gelb,blue,b,0.0,b,1.0,0.786177909001708,,,,,,,,,,9.0,6.0,114.0,9.0,326.46703707800043,,,,,,,,,,,,,,,,,326.45832253400295,327.2561442310034,328.0490114060012,328.0404142120024,,,,,,,,,,,,,,,,,,,,,,,,,,,,,,,,,,,328.04103017599846,328.0490114060012,328.0490114060012,328.85942872099986,b,1.0,0.786177909001708,,,,,,sub-188,1,stroop_test,89.45345788647869,
,,,,115.0,7.0,9.0,,,,,,,,,,,,,blau,yellow,g,0.0,r,0.0,0.6825901970005361,,,,,,,,,,9.0,7.0,115.0,7.0,328.8741326669988,,,,,,,,,,,,,,,,,328.86003429400444,328.9572135339986,329.77363279199926,329.745716534002,,,,,,,,,,,,,,,,,,,,,,,,,,,,,,,,,,,329.7493268949984,329.77363279199926,329.77363279199926,330.4634962230048,r,0.0,0.6825901970005361,,,,,,sub-188,1,stroop_test,89.45345788647869,
,,,,116.0,8.0,9.0,,,,,,,,,,,,,blau,blue,b,1.0,b,1.0,0.5709607829994638,,,,,,,,,,9.0,8.0,116.0,5.0,330.47396354599914,,,,,,,,,,,,,,,,,330.4638832929995,330.57456669000385,331.38988312400033,331.3730328390011,,,,,,,,,,,,,,,,,,,,,,,,,,,,,,,,,,,331.37364814700413,331.38988312400033,331.38988312400033,331.9640704780031,b,1.0,0.5709607829994638,,,,,,sub-188,1,stroop_test,89.45345788647869,
,,,,117.0,9.0,9.0,,,,,,,,,,,,,rot,red,r,1.0,r,1.0,0.4571284310004557,,,,,,,,,,9.0,9.0,117.0,0.0,331.97442658000364,,,,,,,,,,,,,,,,,331.9644590969983,333.156160257,333.9517740420051,333.94060792500386,,,,,,,,,,,,,,,,,,,,,,,,,,,,,,,,,,,333.94367893099843,333.9517740420051,333.9517740420051,334.4155738030022,r,1.0,0.4571284310004557,,,,,,sub-188,1,stroop_test,89.45345788647869,
,,,,118.0,10.0,9.0,,,,,,,,,,,,,gelb,yellow,g,1.0,g,1.0,0.8327891280059703,,,,,,,,,,9.0,10.0,118.0,11.0,334.42637799800286,,,,,,,,,,,,,,,,,334.4159128820029,335.6129867140044,336.4096332150002,336.39702523400047,,,,,,,,,,,,,,,,,,,,,,,,,,,,,,,,,,,336.4005359319999,336.4096332150002,336.4096332150002,337.2509896690026,g,1.0,0.8327891280059703,,,,,,sub-188,1,stroop_test,89.45345788647869,
,,,,119.0,11.0,9.0,,,,,,,,,,,,,rot,blue,b,0.0,b,1.0,0.3382732859972748,,,,,,,,,,9.0,11.0,119.0,2.0,337.26154877500085,,,,,,,,,,,,,,,,,337.2513348870052,338.44675032899977,339.24426062600105,339.2312247630034,,,,,,,,,,,,,,,,,,,,,,,,,,,,,,,,,,,339.23466077000194,339.24426062600105,339.24426062600105,339.5912442370027,b,1.0,0.3382732859972748,,,,,,sub-188,1,stroop_test,89.45345788647869,
,,,,,,,,,,,,,,,,,,,,,,,,,,,,,,,,,,,,,,,,,,,,,,,,,,,,,,,,,,,,,,,,,,,,,,,,,,,,,,,,,,,,,,,,,,,,,,,,,,,,,,339.5914181180051,339.60299687099905,344.59530222500325,344.5896793210049,sub-188,1,stroop_test,89.45345788647869,
