direction,corrAns,thisN,thisTrialN,thisRepN,respDots.keys,respDots.corr,respDots.rt,respDots.duration,randomInstr,respRandomInstr.keys,respRandomInstr.rt,respRandomInstr.duration,practice_trials.thisRepN,practice_trials.thisTrialN,practice_trials.thisN,practice_trials.thisIndex,instr_trials.thisRepN,instr_trials.thisTrialN,instr_trials.thisN,instr_trials.thisIndex,test_trials.thisRepN,test_trials.thisTrialN,test_trials.thisN,test_trials.thisIndex,thisRow.t,notes,general_instruction.started,textGeneralInstr.started,respGeneralInstr.started,general_instruction.stopped,respGeneralInstr.keys,respGeneralInstr.rt,respGeneralInstr.duration,ITI.started,fixcross.started,fixcross.stopped,ITI.stopped,dots.started,backgroundDots.started,stimulusDots.started,respDots.started,stimulusDots.stopped,dots.stopped,practice_trials.respDots.keys,practice_trials.respDots.corr,practice_trials.respDots.rt,practice_trials.respDots.duration,feedback.started,textFeedback.started,feedback.stopped,textFeedback.stopped,info.started,textInfo.started,keyRespInfo.started,info.stopped,keyRespInfo.keys,keyRespInfo.rt,keyRespInfo.duration,test_instruction.started,textTestInstr.started,respTestInstr.started,test_instruction.stopped,respTestInstr.keys,respTestInstr.rt,respTestInstr.duration,random_instruction.started,textRandomInstr.started,respRandomInstr.started,random_instruction.stopped,instr_trials.respRandomInstr.keys,instr_trials.respRandomInstr.rt,instr_trials.respRandomInstr.duration,test_trials.respDots.keys,test_trials.respDots.corr,test_trials.respDots.rt,test_trials.respDots.duration,goodbye.started,textGoodbye.started,goodbye.stopped,participant,session,expName,frameRate,Unnamed: 87
,,,,,,,,,,,,,,,,,,,,,,,,,,,0.0140179589798208,0.0261343749880325,0.0261343749880325,11.372213499998908,space,11.335452833009183,,,,,,,,,,,,,,,,,,,,,,,,,,,,,,,,,,,,,,,,,,,,,,,,sub-194,1,random_dot,,
right,right,0.0,0.0,0.0,right,1.0,19.25011224998161,,,,,,0.0,0.0,0.0,1.0,,,,,,,,,11.427737499994691,,,,,,,,,11.4074727089901,12.173820749972949,12.980050374986604,12.959111749980366,12.959640916989883,12.980050374986604,12.980050374986604,12.980050374986604,17.952921374992002,32.23822679198929,right,1.0,19.25011224998161,,32.24745641698246,32.2593450419954,32.74212391697802,,,,,,,,,,,,,,,,,,,,,,,,,,,,,,sub-194,1,random_dot,,
left,left,1.0,1.0,0.0,right,0.0,7.1982770419854205,,,,,,0.0,1.0,1.0,0.0,,,,,,,,,32.75334816699615,,,,,,,,,32.74260712499381,32.836636874999385,33.6285154169891,33.62069625000004,33.62122454197379,33.6285154169891,33.6285154169891,33.6285154169891,38.61972908399184,40.85570837499108,right,0.0,7.1982770419854205,,40.859816666983534,40.86950145897572,41.35433712499798,41.35986487497576,,,,,,,,,,,,,,,,,,,,,,,,,,,,,sub-194,1,random_dot,,
right,right,2.0,0.0,1.0,left,0.0,5.609517125005368,,,,,,1.0,0.0,2.0,1.0,,,,,,,,,41.35986487497576,,,,,,,,,41.35473795898724,41.45337108397507,42.24543154198909,42.23725524998736,42.237803041993175,42.24543154198909,42.24543154198909,42.24543154198909,47.2367917499796,47.86137074997532,left,0.0,5.609517125005368,,47.861485041998094,47.8698095419968,48.35405679198448,48.359637874993496,,,,,,,,,,,,,,,,,,,,,,,,,,,,,sub-194,1,random_dot,,
left,left,3.0,1.0,1.0,left,1.0,2.171352291974472,,,,,,1.0,1.0,3.0,0.0,,,,,,,,,48.359637874993496,,,,,,,,,48.35445849999087,49.56017720900127,50.35284774997854,50.34444683397305,50.34494654199807,50.35284774997854,50.35284774997854,50.35284774997854,,52.528175708983326,left,1.0,2.171352291974472,,52.53157866699621,52.5413766669808,53.026125208998565,53.03672345899395,,,,,,,,,,,,,,,,,,,,,,,,,,,,,sub-194,1,random_dot,,
right,right,4.0,0.0,2.0,left,0.0,1.5910582079959568,,,,,,2.0,0.0,4.0,1.0,,,,,,,,,53.03672345899395,,,,,,,,,53.02651841699844,54.2274444589857,55.01961158399354,55.01115874998504,55.01164354197681,55.01961158399354,55.01961158399354,55.01961158399354,,56.63742449998972,left,0.0,1.5910582079959568,,56.64055962499697,56.65349820899428,57.137478583987104,57.143018999981,,,,,,,,,,,,,,,,,,,,,,,,,,,,,sub-194,1,random_dot,,
left,left,5.0,1.0,2.0,left,1.0,3.118280374997994,,,,,,2.0,1.0,5.0,0.0,,,,,,,,,57.143018999981,,,,,,,,,57.13787145898095,57.47700225000153,58.27897345897509,58.27086429198971,58.27134149998892,58.27897345897509,58.27897345897509,58.27897345897509,,61.40501845898689,left,1.0,3.118280374997994,,61.40825304199825,61.41743945897906,61.90455062498222,61.91018674999941,,,,,,,,,,,,,,,,,,,,,,,,,,,,,sub-194,1,random_dot,,
left,left,6.0,0.0,3.0,right,0.0,4.141214375005802,,,,,,3.0,0.0,6.0,0.0,,,,,,,,,61.91018674999941,,,,,,,,,61.90499083398026,62.7036952089984,63.4958992920001,63.48750774998916,63.48807058398961,63.4958992920001,63.4958992920001,63.4958992920001,,67.64804629198625,right,0.0,4.141214375005802,,67.65120912497514,67.65694587497273,68.14336433398421,68.15339558399864,,,,,,,,,,,,,,,,,,,,,,,,,,,,,sub-194,1,random_dot,,
right,right,7.0,1.0,3.0,left,0.0,1.0256262910261285,,,,,,3.0,1.0,7.0,1.0,,,,,,,,,68.15339558399864,,,,,,,,,68.14386766697862,68.9434856250009,69.74585858397768,69.73777562499163,69.73824374997639,69.74585858397768,69.74585858397768,69.74585858397768,,70.77851020899834,left,0.0,1.0256262910261285,,70.77863145899028,70.78723862499464,71.27071820897982,71.27655270899413,,,,,,,,,,,,,,,,,,,,,,,,,,,,,sub-194,1,random_dot,,
right,right,8.0,0.0,4.0,left,0.0,0.7214887079899199,,,,,,4.0,0.0,8.0,1.0,,,,,,,,,71.27655270899413,,,,,,,,,71.27111791700008,72.47677170898532,73.26895870899898,73.26086974999635,73.26135620899731,73.26895870899898,73.26895870899898,73.26895870899898,,73.99532470898703,left,0.0,0.7214887079899199,,73.99543862498831,74.0201128749759,74.50410187497619,,,,,,,,,,,,,,,,,,,,,,,,,,,,,,sub-194,1,random_dot,,
left,left,9.0,1.0,4.0,left,1.0,0.6340372920094524,,,,,,4.0,1.0,9.0,0.0,,,,,,,,,74.51070191699546,,,,,,,,,74.50458737497684,74.84373766698991,75.63642183397315,75.6272348339844,75.62772787499125,75.63642183397315,75.63642183397315,75.63642183397315,,76.28253099997528,left,1.0,0.6340372920094524,,76.28569704198162,76.29121412499808,76.77741095898091,76.78680674999487,,,,,,,,,,,,,,,,,,,,,,,,,,,,,sub-194,1,random_dot,,
left,left,10.0,0.0,5.0,left,1.0,0.6678795409970917,,,,,,5.0,0.0,10.0,0.0,,,,,,,,,76.78680674999487,,,,,,,,,76.77781870900071,77.57705120899482,78.37857141697896,78.3709600000002,78.3714286669856,78.37857141697896,78.37857141697896,78.37857141697896,,79.0548954589758,left,1.0,0.6678795409970917,,79.05501024998375,79.06364345899783,79.55439220898552,79.56028870897717,,,,,,,,,,,,,,,,,,,,,,,,,,,,,sub-194,1,random_dot,,
right,right,11.0,1.0,5.0,right,1.0,0.6338775000185706,,,,,,5.0,1.0,11.0,1.0,,,,,,,,,79.56028870897717,,,,,,,,,79.55483166698832,80.35378679199493,81.14630729198689,81.13766820897581,81.13814695898327,81.14630729198689,81.14630729198689,81.14630729198689,,81.78864999997313,right,1.0,0.6338775000185706,,81.78882866699132,81.798374416976,82.28794820897747,82.29383099998813,,,,,,,,,,,,,,,,,,,,,,,,,,,,,sub-194,1,random_dot,,
right,right,12.0,0.0,6.0,right,1.0,1.5073245000094175,,,,,,6.0,0.0,12.0,1.0,,,,,,,,,82.29383099998813,,,,,,,,,82.28842908400111,82.3871929999732,83.17946212500101,83.17129658398335,83.17178308399161,83.17946212500101,83.17946212500101,83.17946212500101,,84.68904374999693,right,1.0,1.5073245000094175,,84.68917195897666,84.69767475000117,85.18780558399158,85.19316362499376,,,,,,,,,,,,,,,,,,,,,,,,,,,,,sub-194,1,random_dot,,
left,left,13.0,1.0,6.0,left,1.0,0.6031888329889625,,,,,,6.0,1.0,13.0,0.0,,,,,,,,,85.19316362499376,,,,,,,,,85.18820258398773,85.98718349999399,86.7791174169979,86.77124412497506,86.77170824998757,86.7791174169979,86.7791174169979,86.7791174169979,,87.38830704198335,left,1.0,0.6031888329889625,,87.38842895897687,87.39706808398478,87.88758433397743,87.8932932499738,,,,,,,,,,,,,,,,,,,,,,,,,,,,,sub-194,1,random_dot,,
right,right,14.0,0.0,7.0,left,0.0,0.6082142499799374,,,,,,7.0,0.0,14.0,1.0,,,,,,,,,87.8932932499738,,,,,,,,,87.88799158399343,88.23742258397397,89.029311374994,89.02127199998358,89.02173087498522,89.029311374994,89.029311374994,89.029311374994,,89.6483223749965,left,0.0,0.6082142499799374,,89.65158820897341,89.65737154197996,90.14314258398372,90.153804208996,,,,,,,,,,,,,,,,,,,,,,,,,,,,,sub-194,1,random_dot,,
left,left,15.0,1.0,7.0,left,1.0,0.369351250003092,,,,,,7.0,1.0,15.0,0.0,,,,,,,,,90.153804208996,,,,,,,,,90.14355191698996,91.34389112499775,92.14634770900012,92.13804266697844,92.13851870899089,92.14634770900012,92.14634770900012,92.14634770900012,,92.52179849997628,left,1.0,0.369351250003092,,92.5253961669805,92.53440912498628,93.02119387499988,93.02663962499356,,,,,,,,,,,,,,,,,,,,,,,,,,,,,sub-194,1,random_dot,,
left,left,16.0,0.0,8.0,right,0.0,0.5576169999840204,,,,,,8.0,0.0,16.0,0.0,,,,,,,,,93.02663962499356,,,,,,,,,93.02158816700104,93.12054420899948,93.91334333398844,93.90467249997891,93.90521704198908,93.91334333398844,93.91334333398844,93.91334333398844,,94.48214791697684,right,0.0,0.5576169999840204,,94.48528399999486,94.49098237499128,94.9764957089792,94.98744283398264,,,,,,,,,,,,,,,,,,,,,,,,,,,,,sub-194,1,random_dot,,
right,right,17.0,1.0,8.0,right,1.0,0.4849880840047262,,,,,,8.0,1.0,17.0,1.0,,,,,,,,,94.98744283398264,,,,,,,,,94.97689091699432,95.7765173339867,96.56996587497996,96.55985366698587,96.56032512499952,96.56996587497996,96.56996587497996,96.56996587497996,,97.06569520899212,right,1.0,0.4849880840047262,,97.06882291697548,97.0745681669796,97.5598844169872,97.57062795897946,,,,,,,,,,,,,,,,,,,,,,,,,,,,,sub-194,1,random_dot,,
right,right,18.0,0.0,9.0,left,0.0,0.605257209012052,,,,,,9.0,0.0,18.0,1.0,,,,,,,,,97.57062795897946,,,,,,,,,97.56027108398848,98.76091516698943,99.56276862497909,99.55470283399336,99.555161708995,99.56276862497909,99.56276862497909,99.56276862497909,,100.17188629199518,left,0.0,0.605257209012052,,100.17539416698855,100.184310541983,100.67124529197464,100.67697049997514,,,,,,,,,,,,,,,,,,,,,,,,,,,,,sub-194,1,random_dot,,
left,left,19.0,1.0,9.0,right,0.0,0.9645746659953148,,,,,,9.0,1.0,19.0,0.0,,,,,,,,,100.67697049997514,,,,,,,,,100.67165445897264,101.47080908398492,102.26203658399754,102.2544735839765,102.25495324999793,102.26203658399754,102.26203658399754,102.26203658399754,,103.22925908397885,right,0.0,0.9645746659953148,,103.22938029197394,103.25362749997294,103.73738374997627,,,,,,,,,,,,,,,,,,,,,,,,,,,,,,sub-194,1,random_dot,,
,,,,,,,,,,,,,,,,,,,,,,,,,,,,,,,,,,,,,,,,,,,,,,,,,,,,103.7375559999782,103.74475049998728,103.74475049998728,111.3283317499736,space,7.579060375021072,,,,,,,,,,,,,,,,,,,,,,,sub-194,1,random_dot,,
,,,,,,,,,,,,,,,,,,,,,,,,,,,,,,,,,,,,,,,,,,,,,,,,,,,,,,,,,,,111.328427542001,111.3423912919825,111.3423912919825,116.93940920897876,space,5.588069707999239,,,,,,,,,,,,,,,,sub-194,1,random_dot,,
left,left,0.0,0.0,0.0,left,1.0,6.114507209014846,,accuracy,space,9.88414691700018,,,,,,0.0,0.0,0.0,0.0,0.0,0.0,0.0,0.0,126.87929566699312,,,,,,,,,126.87042279198069,127.6604909999878,128.4630396249995,128.45481320898398,128.4553368749912,128.4630396249995,128.4630396249995,128.4630396249995,133.45427187497262,134.58022870897548,,,,,,,,,,,,,,,,,,,,,,,116.9626949169906,116.97278033397744,116.97278033397744,126.86198670897284,space,9.88414691700018,,left,1.0,6.114507209014846,,,,,sub-194,1,random_dot,,
right,right,1.0,1.0,0.0,right,1.0,11.375920958991628,,accuracy,space,9.88414691700018,,,,,,0.0,0.0,0.0,0.0,0.0,1.0,1.0,1.0,134.5890867499984,,,,,,,,,134.58069662499474,135.37709845899371,136.1703337089857,136.16014262498356,136.16062337497715,136.1703337089857,136.1703337089857,136.1703337089857,141.15413174999412,147.55656645898125,,,,,,,,,,,,,,,,,,,,,,,,,,,,,,right,1.0,11.375920958991628,,,,,sub-194,1,random_dot,,
right,right,2.0,0.0,1.0,left,0.0,1.710357041010866,,accuracy,space,9.88414691700018,,,,,,0.0,0.0,0.0,0.0,1.0,0.0,2.0,1.0,147.56526191698504,,,,,,,,,147.55706099999952,148.35411304197623,149.1462011669937,149.1384396669746,149.13891387498006,149.1462011669937,149.1462011669937,149.1462011669937,,150.86255516699748,,,,,,,,,,,,,,,,,,,,,,,,,,,,,,left,0.0,1.710357041010866,,,,,sub-194,1,random_dot,,
left,left,3.0,1.0,1.0,right,0.0,5.73432554199826,,accuracy,space,9.88414691700018,,,,,,0.0,0.0,0.0,0.0,1.0,1.0,3.0,0.0,150.8708168749872,,,,,,,,,150.8629634999961,151.21143962498172,152.0136462499795,152.00529000000097,152.00577299998258,152.0136462499795,152.0136462499795,152.0136462499795,157.00421741697937,157.75692858398543,,,,,,,,,,,,,,,,,,,,,,,,,,,,,,right,0.0,5.73432554199826,,,,,sub-194,1,random_dot,,
right,right,4.0,0.0,2.0,right,1.0,1.480365499999607,,accuracy,space,9.88414691700018,,,,,,0.0,0.0,0.0,0.0,2.0,0.0,4.0,1.0,157.7657935419993,,,,,,,,,157.75748658398516,157.85459104197798,158.64649408397963,158.63839429197833,158.6388672920002,158.64649408397963,158.64649408397963,158.64649408397963,,160.12966812498053,,,,,,,,,,,,,,,,,,,,,,,,,,,,,,right,1.0,1.480365499999607,,,,,sub-194,1,random_dot,,
left,left,5.0,1.0,2.0,left,1.0,2.92035170798772,,accuracy,space,9.88414691700018,,,,,,0.0,0.0,0.0,0.0,2.0,1.0,5.0,0.0,160.13776558398968,,,,,,,,,160.1300794169947,161.32781287498074,162.12986874999478,162.12173862499185,162.1222202089848,162.12986874999478,162.12986874999478,162.12986874999478,,165.05596037500072,,,,,,,,,,,,,,,,,,,,,,,,,,,,,,left,1.0,2.92035170798772,,,,,sub-194,1,random_dot,,
right,right,6.0,0.0,3.0,left,0.0,0.892792415979784,,accuracy,space,9.88414691700018,,,,,,0.0,0.0,0.0,0.0,3.0,0.0,6.0,1.0,165.06473612500122,,,,,,,,,165.05638075000024,165.85480854197522,166.6463474589982,166.6385526249942,166.63903370898333,166.6463474589982,166.6463474589982,166.6463474589982,,167.54609008398256,,,,,,,,,,,,,,,,,,,,,,,,,,,,,,left,0.0,0.892792415979784,,,,,sub-194,1,random_dot,,
left,left,7.0,1.0,3.0,right,0.0,0.8026647500228137,,accuracy,space,9.88414691700018,,,,,,0.0,0.0,0.0,0.0,3.0,1.0,7.0,0.0,167.55428779197973,,,,,,,,,167.54649641699507,168.74505170897464,169.54736604198115,169.53889516697382,169.53951791700092,169.54736604198115,169.54736604198115,169.54736604198115,,170.35587754199514,,,,,,,,,,,,,,,,,,,,,,,,,,,,,,right,0.0,0.8026647500228137,,,,,sub-194,1,random_dot,,
left,left,8.0,0.0,4.0,left,1.0,0.553354333009338,,accuracy,space,9.88414691700018,,,,,,0.0,0.0,0.0,0.0,4.0,0.0,8.0,0.0,170.3641576669761,,,,,,,,,170.35629058399354,170.4547864169872,171.2465822089871,171.2384751669888,171.23894762498094,171.2465822089871,171.2465822089871,171.2465822089871,,171.8059927919821,,,,,,,,,,,,,,,,,,,,,,,,,,,,,,left,1.0,0.553354333009338,,,,,sub-194,1,random_dot,,
right,right,9.0,1.0,4.0,right,1.0,0.790678375022253,,accuracy,space,9.88414691700018,,,,,,0.0,0.0,0.0,0.0,4.0,1.0,9.0,1.0,171.81459858399467,,,,,,,,,171.80641220899997,172.60469374997774,173.39735620899592,173.3887697919854,173.3894329169998,173.39735620899592,173.39735620899592,173.39735620899592,,174.19880283399834,,,,,,,,,,,,,,,,,,,,,,,,,,,,,,right,1.0,0.790678375022253,,,,,sub-194,1,random_dot,,
right,right,10.0,0.0,5.0,left,0.0,0.7407145000179298,,accuracy,space,9.88414691700018,,,,,,0.0,0.0,0.0,0.0,5.0,0.0,10.0,1.0,174.20437949997722,,,,,,,,,174.19922320899786,174.54464562499197,175.34759445898817,175.3388794999919,175.33943154200097,175.34759445898817,175.34759445898817,175.34759445898817,,176.09462383398204,,,,,,,,,,,,,,,,,,,,,,,,,,,,,,left,0.0,0.7407145000179298,,,,,sub-194,1,random_dot,,
left,left,11.0,1.0,5.0,right,0.0,0.6540113750088494,,accuracy,space,9.88414691700018,,,,,,0.0,0.0,0.0,0.0,5.0,1.0,11.0,0.0,176.1042056249862,,,,,,,,,176.09483112499584,176.4447654169926,177.23733574998914,177.2282201249909,177.22871916697477,177.23733574998914,177.23733574998914,177.23733574998914,,177.89633862499613,,,,,,,,,,,,,,,,,,,,,,,,,,,,,,right,0.0,0.6540113750088494,,,,,sub-194,1,random_dot,,
left,left,12.0,0.0,6.0,right,0.0,1.2335254589852411,,accuracy,space,9.88414691700018,,,,,,0.0,0.0,0.0,0.0,6.0,0.0,12.0,0.0,177.90502654199372,,,,,,,,,177.8967653339787,178.24489679199178,179.04736029199557,179.03888079198077,179.0394317919854,179.04736029199557,179.04736029199557,179.04736029199557,,180.28924595899295,,,,,,,,,,,,,,,,,,,,,,,,,,,,,,right,0.0,1.2335254589852411,,,,,sub-194,1,random_dot,,
right,right,13.0,1.0,6.0,left,0.0,5.513742125011049,,accuracy,space,9.88414691700018,,,,,,0.0,0.0,0.0,0.0,6.0,1.0,13.0,1.0,180.29807062499455,,,,,,,,,180.28968462499324,180.63805641699585,181.42986291699344,181.4218747499981,181.42234358398127,181.42986291699344,181.42986291699344,181.42986291699344,186.42116791699664,186.9463828750013,,,,,,,,,,,,,,,,,,,,,,,,,,,,,,left,0.0,5.513742125011049,,,,,sub-194,1,random_dot,,
left,left,14.0,0.0,7.0,right,0.0,6.142384749982739,,accuracy,space,9.88414691700018,,,,,,0.0,0.0,0.0,0.0,7.0,0.0,14.0,0.0,186.95464562499544,,,,,,,,,186.94682337497943,187.0375637919933,187.82960491697304,187.82203479198503,187.82251308398557,187.82960491697304,187.82960491697304,187.82960491697304,192.8212214999949,193.9837077499833,,,,,,,,,,,,,,,,,,,,,,,,,,,,,,right,0.0,6.142384749982739,,,,,sub-194,1,random_dot,,
right,right,15.0,1.0,7.0,right,1.0,1.6578775829984806,,accuracy,space,9.88414691700018,,,,,,0.0,0.0,0.0,0.0,7.0,1.0,15.0,1.0,193.98970720899524,,,,,,,,,193.98414316697745,194.77746595899225,195.57087770898943,195.56070762497257,195.5611621249991,195.57087770898943,195.57087770898943,195.57087770898943,,197.23992491699755,,,,,,,,,,,,,,,,,,,,,,,,,,,,,,right,1.0,1.6578775829984806,,,,,sub-194,1,random_dot,,
left,left,16.0,0.0,8.0,left,1.0,1.9189654170186257,,accuracy,space,9.88414691700018,,,,,,0.0,0.0,0.0,0.0,8.0,0.0,16.0,0.0,197.2455514589965,,,,,,,,,197.24034358398055,198.4382729169738,199.2302326669742,199.2221797919774,199.2226606249751,199.2302326669742,199.2302326669742,199.2302326669742,,201.15617249999195,,,,,,,,,,,,,,,,,,,,,,,,,,,,,,left,1.0,1.9189654170186257,,,,,sub-194,1,random_dot,,
right,right,17.0,1.0,8.0,left,0.0,1.1313870410085656,,accuracy,space,9.88414691700018,,,,,,0.0,0.0,0.0,0.0,8.0,1.0,17.0,1.0,201.16473562497413,,,,,,,,,201.15658579199223,201.50502720900116,202.29714362497907,202.28900366698508,202.28950320897275,202.29714362497907,202.29714362497907,202.29714362497907,,203.45565379198524,,,,,,,,,,,,,,,,,,,,,,,,,,,,,,left,0.0,1.1313870410085656,,,,,sub-194,1,random_dot,,
left,left,18.0,0.0,9.0,left,1.0,1.1508359579893297,,accuracy,space,9.88414691700018,,,,,,0.0,0.0,0.0,0.0,9.0,0.0,18.0,0.0,203.4716837919841,,,,,,,,,203.45606274998863,203.54396116698624,204.3376464589965,204.3275000839785,204.32796083399444,204.3376464589965,204.3376464589965,204.3376464589965,,205.4991432919924,,,,,,,,,,,,,,,,,,,,,,,,,,,,,,left,1.0,1.1508359579893297,,,,,sub-194,1,random_dot,,
right,right,19.0,1.0,9.0,left,0.0,1.5174573750118725,,accuracy,space,9.88414691700018,,,,,,0.0,0.0,0.0,0.0,9.0,1.0,19.0,1.0,205.50453758399817,,,,,,,,,205.49955754197435,206.6943707089813,207.4876311669941,207.47763516698612,207.4781793750008,207.4876311669941,207.4876311669941,207.4876311669941,,209.0158189999929,,,,,,,,,,,,,,,,,,,,,,,,,,,,,,left,0.0,1.5174573750118725,,,,,sub-194,1,random_dot,,
right,right,20.0,0.0,10.0,right,1.0,1.2970246250042692,,accuracy,space,9.88414691700018,,,,,,0.0,0.0,0.0,0.0,10.0,0.0,20.0,1.0,209.02123391698117,,,,,,,,,209.01623483398,209.1109679999936,209.90438908399665,209.89420704197252,209.8946973749844,209.90438908399665,209.90438908399665,209.90438908399665,,211.20615445898147,,,,,,,,,,,,,,,,,,,,,,,,,,,,,,right,1.0,1.2970246250042692,,,,,sub-194,1,random_dot,,
left,left,21.0,1.0,10.0,left,1.0,0.6428422500030138,,accuracy,space,9.88414691700018,,,,,,0.0,0.0,0.0,0.0,10.0,1.0,21.0,0.0,211.2148618339852,,,,,,,,,211.20657312497497,212.40500829200028,213.1972387089918,213.1889853339817,213.18946312498883,213.1972387089918,213.1972387089918,213.1972387089918,,213.84649624998565,,,,,,,,,,,,,,,,,,,,,,,,,,,,,,left,1.0,0.6428422500030138,,,,,sub-194,1,random_dot,,
left,left,22.0,0.0,11.0,right,0.0,0.5717436250124592,,accuracy,space,9.88414691700018,,,,,,0.0,0.0,0.0,0.0,11.0,0.0,22.0,0.0,213.855281917,,,,,,,,,213.8469067919941,214.64520849997643,215.43754045898092,215.4287320000003,215.4292086669884,215.43754045898092,215.43754045898092,215.43754045898092,,216.01394279199303,,,,,,,,,,,,,,,,,,,,,,,,,,,,,,right,0.0,0.5717436250124592,,,,,sub-194,1,random_dot,,
right,right,23.0,1.0,11.0,right,1.0,1.0829424999828916,,accuracy,space,9.88414691700018,,,,,,0.0,0.0,0.0,0.0,11.0,1.0,23.0,1.0,216.03808612498688,,,,,,,,,216.01434845899348,217.2116676250007,218.01390170899683,218.0058032089728,218.00629862499773,218.01390170899683,218.01390170899683,218.01390170899683,,219.10634258398204,,,,,,,,,,,,,,,,,,,,,,,,,,,,,,right,1.0,1.0829424999828916,,,,,sub-194,1,random_dot,,
left,left,24.0,0.0,12.0,left,1.0,1.994107542006532,,accuracy,space,9.88414691700018,,,,,,0.0,0.0,0.0,0.0,12.0,0.0,24.0,0.0,219.11508783398315,,,,,,,,,219.1067611670005,219.20510995897348,219.9972433749936,219.98908524998117,219.98956624997663,219.9972433749936,219.9972433749936,219.9972433749936,,221.9966062919993,,,,,,,,,,,,,,,,,,,,,,,,,,,,,,left,1.0,1.994107542006532,,,,,sub-194,1,random_dot,,
right,right,25.0,1.0,12.0,right,1.0,3.464827832998708,,accuracy,space,9.88414691700018,,,,,,0.0,0.0,0.0,0.0,12.0,1.0,25.0,1.0,222.0047209999757,,,,,,,,,221.997009624989,222.09838091698475,222.89711116699615,222.88905920897375,222.8895283339953,222.89711116699615,222.89711116699615,222.89711116699615,,226.364138334,,,,,,,,,,,,,,,,,,,,,,,,,,,,,,right,1.0,3.464827832998708,,,,,sub-194,1,random_dot,,
left,left,26.0,0.0,13.0,left,1.0,5.544785374979256,,accuracy,space,9.88414691700018,,,,,,0.0,0.0,0.0,0.0,13.0,0.0,26.0,0.0,226.3736004169914,,,,,,,,,226.36454887498985,226.7115167919837,227.50465687498215,227.4952538749785,227.4957609999983,227.50465687498215,227.50465687498215,227.50465687498215,232.48837449998248,233.05726008399503,,,,,,,,,,,,,,,,,,,,,,,,,,,,,,left,1.0,5.544785374979256,,,,,sub-194,1,random_dot,,
right,right,27.0,1.0,13.0,right,1.0,1.9404440420039464,,accuracy,space,9.88414691700018,,,,,,0.0,0.0,0.0,0.0,13.0,1.0,27.0,1.0,233.0662077499728,,,,,,,,,233.05781362499687,233.40531895897584,234.20534474999292,234.19312324997736,234.1934957089834,234.20534474999292,234.20534474999292,234.20534474999292,,236.1567578749964,,,,,,,,,,,,,,,,,,,,,,,,,,,,,,right,1.0,1.9404440420039464,,,,,sub-194,1,random_dot,,
left,left,28.0,0.0,14.0,right,0.0,5.541495459008729,,accuracy,space,9.88414691700018,,,,,,0.0,0.0,0.0,0.0,14.0,0.0,28.0,0.0,236.1625106249994,,,,,,,,,236.1571767089772,236.95521995899617,237.74745583397453,237.73927020898557,237.73973016699887,237.74745583397453,237.74745583397453,237.74745583397453,242.73831466698903,243.2919619999884,,,,,,,,,,,,,,,,,,,,,,,,,,,,,,right,0.0,5.541495459008729,,,,,sub-194,1,random_dot,,
right,right,29.0,1.0,14.0,left,0.0,4.167738333984744,,accuracy,space,9.88414691700018,,,,,,0.0,0.0,0.0,0.0,14.0,1.0,29.0,1.0,243.30104970899995,,,,,,,,,243.2925803749822,244.08876699997927,244.88072616700083,244.8727010419825,244.87316837499384,244.88072616700083,244.88072616700083,244.88072616700083,,249.0566189589736,,,,,,,,,,,,,,,,,,,,,,,,,,,,,,left,0.0,4.167738333984744,,,,,sub-194,1,random_dot,,
right,right,30.0,0.0,15.0,left,0.0,5.628200334002031,,accuracy,space,9.88414691700018,,,,,,0.0,0.0,0.0,0.0,15.0,0.0,30.0,1.0,249.0651730839745,,,,,,,,,249.0570418749994,249.40542154197465,250.19745824998245,250.1894209169841,250.1898952919873,250.19745824998245,250.19745824998245,250.19745824998245,255.18852120899828,255.83010249998188,,,,,,,,,,,,,,,,,,,,,,,,,,,,,,left,0.0,5.628200334002031,,,,,sub-194,1,random_dot,,
left,left,31.0,1.0,15.0,right,0.0,2.5105172919866163,,accuracy,space,9.88414691700018,,,,,,0.0,0.0,0.0,0.0,15.0,1.0,31.0,0.0,255.838898624992,,,,,,,,,255.83054216697928,256.6284155419853,257.43082312497427,257.42268216697266,257.4231598339975,257.43082312497427,257.43082312497427,257.43082312497427,,259.9470670839946,,,,,,,,,,,,,,,,,,,,,,,,,,,,,,right,0.0,2.5105172919866163,,,,,sub-194,1,random_dot,,
left,left,32.0,0.0,16.0,right,0.0,6.442840250005247,,accuracy,space,9.88414691700018,,,,,,0.0,0.0,0.0,0.0,16.0,0.0,32.0,0.0,259.9550722499844,,,,,,,,,259.947473541979,260.7457183339866,261.5381829169928,261.528967249993,261.5294450839865,261.5381829169928,261.5381829169928,261.5381829169928,266.5220312919992,267.9905502089823,,,,,,,,,,,,,,,,,,,,,,,,,,,,,,right,0.0,6.442840250005247,,,,,sub-194,1,random_dot,,
right,right,33.0,1.0,16.0,left,0.0,4.933196958998451,,accuracy,space,9.88414691700018,,,,,,0.0,0.0,0.0,0.0,16.0,1.0,33.0,1.0,267.9993010839971,,,,,,,,,267.9910050839826,268.78891891698004,269.5810437919863,269.5727183749841,269.57318962499266,269.5810437919863,269.5810437919863,269.5810437919863,,274.52340929198544,,,,,,,,,,,,,,,,,,,,,,,,,,,,,,left,0.0,4.933196958998451,,,,,sub-194,1,random_dot,,
left,left,34.0,0.0,17.0,left,1.0,1.4848584590072278,,accuracy,space,9.88414691700018,,,,,,0.0,0.0,0.0,0.0,17.0,0.0,34.0,0.0,274.5322981669742,,,,,,,,,274.5238742919755,274.6222451249778,275.4152250420011,275.4066559999774,275.4072199589864,275.4152250420011,275.4152250420011,275.4152250420011,,276.9070306249778,,,,,,,,,,,,,,,,,,,,,,,,,,,,,,left,1.0,1.4848584590072278,,,,,sub-194,1,random_dot,,
right,right,35.0,1.0,17.0,right,1.0,6.261815916979685,,accuracy,space,9.88414691700018,,,,,,0.0,0.0,0.0,0.0,17.0,1.0,35.0,1.0,276.9159012499731,,,,,,,,,276.9074574169936,278.10569929197663,278.8981284170004,278.889725999994,278.8902723339852,278.8981284170004,278.8981284170004,278.8981284170004,283.88870533398585,285.16413633397315,,,,,,,,,,,,,,,,,,,,,,,,,,,,,,right,1.0,6.261815916979685,,,,,sub-194,1,random_dot,,
left,left,36.0,0.0,18.0,right,0.0,1.5069569579791278,,accuracy,space,9.88414691700018,,,,,,0.0,0.0,0.0,0.0,18.0,0.0,36.0,0.0,285.1887317499786,,,,,,,,,285.1647036669892,286.3623195839755,287.1651499589789,287.1566011669929,287.1572134999733,287.1651499589789,287.1651499589789,287.1651499589789,,288.6745287089725,,,,,,,,,,,,,,,,,,,,,,,,,,,,,,right,0.0,1.5069569579791278,,,,,sub-194,1,random_dot,,
right,right,37.0,1.0,18.0,left,0.0,1.9912285410100596,,accuracy,space,9.88414691700018,,,,,,0.0,0.0,0.0,0.0,18.0,1.0,37.0,1.0,288.68294212498586,,,,,,,,,288.6749730839801,289.4726410000003,290.264977999992,290.2565917499888,290.2571292089997,290.264977999992,290.264977999992,290.264977999992,,292.2669835419801,,,,,,,,,,,,,,,,,,,,,,,,,,,,,,left,0.0,1.9912285410100596,,,,,sub-194,1,random_dot,,
left,left,38.0,0.0,19.0,left,1.0,2.2731119169911835,,accuracy,space,9.88414691700018,,,,,,0.0,0.0,0.0,0.0,19.0,0.0,38.0,0.0,292.28871479199734,,,,,,,,,292.2674189999816,293.062237791979,293.85522899997886,293.8459475839918,293.846437041997,293.85522899997886,293.85522899997886,293.85522899997886,,296.13076562498463,,,,,,,,,,,,,,,,,,,,,,,,,,,,,,left,1.0,2.2731119169911835,,,,,sub-194,1,random_dot,,
right,right,39.0,1.0,19.0,right,1.0,2.6071994169906247,,accuracy,space,9.88414691700018,,,,,,0.0,0.0,0.0,0.0,19.0,1.0,39.0,1.0,296.1394930839888,,,,,,,,,296.13116474999697,296.2292326669849,297.0321320419898,297.0233747089805,297.0240128339792,297.0321320419898,297.0321320419898,297.0321320419898,,299.6501684169925,,,,,,,,,,,,,,,,,,,,,,,,,,,,,,right,1.0,2.6071994169906247,,,,,sub-194,1,random_dot,,
left,left,40.0,0.0,20.0,right,0.0,4.080423291015904,,accuracy,space,9.88414691700018,,,,,,0.0,0.0,0.0,0.0,20.0,0.0,40.0,0.0,299.6561230419902,,,,,,,,,299.65058566699736,299.99544958397746,300.78861808398506,300.7788866669871,300.77938404199085,300.78861808398506,300.78861808398506,300.78861808398506,,304.8737242499774,,,,,,,,,,,,,,,,,,,,,,,,,,,,,,right,0.0,4.080423291015904,,,,,sub-194,1,random_dot,,
right,right,41.0,1.0,20.0,left,0.0,5.808347624988528,,accuracy,space,9.88414691700018,,,,,,0.0,0.0,0.0,0.0,20.0,1.0,41.0,1.0,304.8825033339963,,,,,,,,,304.8741655419872,304.9725780839799,305.7654464590014,305.7568383749749,305.7574603749963,305.7654464590014,305.7654464590014,305.7654464590014,310.7559096670011,311.58072037500096,,,,,,,,,,,,,,,,,,,,,,,,,,,,,,left,0.0,5.808347624988528,,,,,sub-194,1,random_dot,,
left,left,42.0,0.0,21.0,left,1.0,1.6164720419910736,,accuracy,space,9.88414691700018,,,,,,0.0,0.0,0.0,0.0,21.0,0.0,42.0,0.0,311.5895155420003,,,,,,,,,311.58115537499543,311.67951812499086,312.4818846669805,312.47322516699205,312.4737082089996,312.4818846669805,312.4818846669805,312.4818846669805,,314.10725416700006,,,,,,,,,,,,,,,,,,,,,,,,,,,,,,left,1.0,1.6164720419910736,,,,,sub-194,1,random_dot,,
right,right,43.0,1.0,21.0,right,1.0,1.19394233301864,,accuracy,space,9.88414691700018,,,,,,0.0,0.0,0.0,0.0,21.0,1.0,43.0,1.0,314.1160824589897,,,,,,,,,314.10769108397653,315.30597779198433,316.0984349999926,316.0902048749849,316.0907533339923,316.0984349999926,316.0984349999926,316.0984349999926,,317.2972839169961,,,,,,,,,,,,,,,,,,,,,,,,,,,,,,right,1.0,1.19394233301864,,,,,sub-194,1,random_dot,,
right,right,44.0,0.0,22.0,right,1.0,1.6741760000004433,,accuracy,space,9.88414691700018,,,,,,0.0,0.0,0.0,0.0,22.0,0.0,44.0,1.0,317.3056886669947,,,,,,,,,317.29769712497364,317.645802583982,318.44884083399666,318.4402408749738,318.440848208993,318.44884083399666,318.44884083399666,318.44884083399666,,320.13374470899,,,,,,,,,,,,,,,,,,,,,,,,,,,,,,right,1.0,1.6741760000004433,,,,,sub-194,1,random_dot,,
left,left,45.0,1.0,22.0,right,0.0,2.9026913339912426,,accuracy,space,9.88414691700018,,,,,,0.0,0.0,0.0,0.0,22.0,1.0,45.0,0.0,320.1393258339958,,,,,,,,,320.1341886250011,320.22914716697414,321.0315256670001,321.0233436249837,321.0238261249906,321.0315256670001,321.0315256670001,321.0315256670001,,323.94059087499045,,,,,,,,,,,,,,,,,,,,,,,,,,,,,,right,0.0,2.9026913339912426,,,,,sub-194,1,random_dot,,
left,left,46.0,0.0,23.0,right,0.0,2.394722625002032,,accuracy,space,9.88414691700018,,,,,,0.0,0.0,0.0,0.0,23.0,0.0,46.0,0.0,323.94948612499866,,,,,,,,,323.94100433398853,324.73937879200093,325.5315605419746,325.5232872919878,325.52375954197487,325.5315605419746,325.5315605419746,325.5315605419746,,327.93098408399965,,,,,,,,,,,,,,,,,,,,,,,,,,,,,,right,0.0,2.394722625002032,,,,,sub-194,1,random_dot,,
right,right,47.0,1.0,23.0,left,0.0,2.379043749999255,,accuracy,space,9.88414691700018,,,,,,0.0,0.0,0.0,0.0,23.0,1.0,47.0,1.0,327.9398054589983,,,,,,,,,327.9313909589837,329.1293609169952,329.9321963339753,329.923614208994,329.9241424999782,329.9321963339753,329.9321963339753,329.9321963339753,,332.31452116699074,,,,,,,,,,,,,,,,,,,,,,,,,,,,,,left,0.0,2.379043749999255,,,,,sub-194,1,random_dot,,
left,left,48.0,0.0,24.0,right,0.0,4.736986959003843,,accuracy,space,9.88414691700018,,,,,,0.0,0.0,0.0,0.0,24.0,0.0,48.0,0.0,332.3225241249893,,,,,,,,,332.31491924999864,332.6623565419868,333.4556500839826,333.44529354199767,333.4457002919808,333.4556500839826,333.4556500839826,333.4556500839826,,338.197749791987,,,,,,,,,,,,,,,,,,,,,,,,,,,,,,right,0.0,4.736986959003843,,,,,sub-194,1,random_dot,,
right,right,49.0,1.0,24.0,right,1.0,2.407042749982793,,accuracy,space,9.88414691700018,,,,,,0.0,0.0,0.0,0.0,24.0,1.0,49.0,1.0,338.20661037499667,,,,,,,,,338.19815354197635,338.2959767089924,339.0989765839768,339.0903924589802,339.0909520419955,339.0989765839768,339.0989765839768,339.0989765839768,,341.50824329198804,,,,,,,,,,,,,,,,,,,,,,,,,,,,,,right,1.0,2.407042749982793,,,,,sub-194,1,random_dot,,
left,left,50.0,0.0,25.0,left,1.0,1.7497787499742117,,accuracy,space,9.88414691700018,,,,,,0.0,0.0,0.0,0.0,25.0,0.0,50.0,0.0,341.5169459169847,,,,,,,,,341.5087052919844,341.60616654198384,342.3992660839868,342.3903475419793,342.3909664589737,342.3992660839868,342.3992660839868,342.3992660839868,,344.1574153749971,,,,,,,,,,,,,,,,,,,,,,,,,,,,,,left,1.0,1.7497787499742117,,,,,sub-194,1,random_dot,,
right,right,51.0,1.0,25.0,left,0.0,4.287623333017109,,accuracy,space,9.88414691700018,,,,,,0.0,0.0,0.0,0.0,25.0,1.0,51.0,1.0,344.1660934589745,,,,,,,,,344.15782545899856,344.50633445897256,345.29843395898934,345.29019783399417,345.29073491698364,345.29843395898934,345.29843395898934,345.29843395898934,,349.59074349998264,,,,,,,,,,,,,,,,,,,,,,,,,,,,,,left,0.0,4.287623333017109,,,,,sub-194,1,random_dot,,
right,right,52.0,0.0,26.0,left,0.0,1.5999447500216777,,accuracy,space,9.88414691700018,,,,,,0.0,0.0,0.0,0.0,26.0,0.0,52.0,1.0,349.599453666975,,,,,,,,,349.591169249994,350.38969399998314,351.1818501249945,351.1735983749968,351.174067541986,351.1818501249945,351.1818501249945,351.1818501249945,,352.7908627919969,,,,,,,,,,,,,,,,,,,,,,,,,,,,,,left,0.0,1.5999447500216777,,,,,sub-194,1,random_dot,,
left,left,53.0,1.0,26.0,left,1.0,1.6071527909953147,,accuracy,space,9.88414691700018,,,,,,0.0,0.0,0.0,0.0,26.0,1.0,53.0,0.0,352.7994834589772,,,,,,,,,352.7912724169728,352.87957820898737,353.6819056669774,353.673684208974,353.6741607919976,353.6819056669774,353.6819056669774,353.6819056669774,,355.291191833996,,,,,,,,,,,,,,,,,,,,,,,,,,,,,,left,1.0,1.6071527909953147,,,,,sub-194,1,random_dot,,
right,right,54.0,0.0,27.0,left,0.0,5.482671833015047,,accuracy,space,9.88414691700018,,,,,,0.0,0.0,0.0,0.0,27.0,0.0,54.0,1.0,355.2997908339894,,,,,,,,,355.29161162499804,356.0897809169837,356.8814468749915,356.87357974998304,356.8740494589729,356.8814468749915,356.8814468749915,356.8814468749915,361.87278749997495,362.3666657919821,,,,,,,,,,,,,,,,,,,,,,,,,,,,,,left,0.0,5.482671833015047,,,,,sub-194,1,random_dot,,
left,left,55.0,1.0,27.0,left,1.0,5.182557124993764,,accuracy,space,9.88414691700018,,,,,,0.0,0.0,0.0,0.0,27.0,1.0,55.0,0.0,362.377430374996,,,,,,,,,362.3671054589795,363.16298574997927,363.9549963749887,363.9466782499803,363.9471425839874,363.9549963749887,363.9549963749887,363.9549963749887,368.93976954199024,369.1414153339865,,,,,,,,,,,,,,,,,,,,,,,,,,,,,,left,1.0,5.182557124993764,,,,,sub-194,1,random_dot,,
right,right,56.0,0.0,28.0,right,1.0,3.836050166981295,,accuracy,space,9.88414691700018,,,,,,0.0,0.0,0.0,0.0,28.0,0.0,56.0,1.0,369.1500454589841,,,,,,,,,369.1418641669734,369.48984383398783,370.2822343339794,370.2737035839818,370.2741806669801,370.2822343339794,370.2822343339794,370.2822343339794,,374.1243687919923,,,,,,,,,,,,,,,,,,,,,,,,,,,,,,right,1.0,3.836050166981295,,,,,sub-194,1,random_dot,,
left,left,57.0,1.0,28.0,right,0.0,1.2986566250037868,,accuracy,space,9.88414691700018,,,,,,0.0,0.0,0.0,0.0,28.0,1.0,57.0,0.0,374.1329967089987,,,,,,,,,374.1247976250015,374.923171124974,375.7159681669728,375.7070205839991,375.7074939589948,375.7159681669728,375.7159681669728,375.7159681669728,,377.0244118749979,,,,,,,,,,,,,,,,,,,,,,,,,,,,,,right,0.0,1.2986566250037868,,,,,sub-194,1,random_dot,,
right,right,58.0,0.0,29.0,right,1.0,3.999233749986161,,accuracy,space,9.88414691700018,,,,,,0.0,0.0,0.0,0.0,29.0,0.0,58.0,1.0,377.0330729999987,,,,,,,,,377.0248399169941,378.22320558398496,379.0153189999983,379.0072239589936,379.00768145898473,379.0153189999983,379.0153189999983,379.0153189999983,,383.0244919999968,,,,,,,,,,,,,,,,,,,,,,,,,,,,,,right,1.0,3.999233749986161,,,,,sub-194,1,random_dot,,
left,left,59.0,1.0,29.0,right,0.0,3.980767207976896,,accuracy,space,9.88414691700018,,,,,,0.0,0.0,0.0,0.0,29.0,1.0,59.0,0.0,383.03310912498273,,,,,,,,,383.0249222089769,383.1232391249796,383.9154115419951,383.90720683397376,383.9077385419805,383.9154115419951,383.9154115419951,383.9154115419951,,387.89849370898446,,,,,,,,,,,,,,,,,,,,,,,,,,,,,,right,0.0,3.980767207976896,,,,,sub-194,1,random_dot,,
,,0.0,0.0,0.0,,,,,accuracy,space,9.88414691700018,,,,,,0.0,0.0,0.0,0.0,,,,,,,,,,,,,,,,,,,,,,,,,,,,,,,,,,,,,,,,,,,,,,,,,,,,,,,,,,,,sub-194,1,random_dot,,
left,left,0.0,0.0,0.0,right,0.0,0.692170708993217,,speed,space,8.385844000003999,,,,,,0.0,1.0,1.0,1.0,0.0,0.0,0.0,0.0,396.334778333985,,,,,,,,,396.3250888749899,396.4117152919935,397.2060285839834,397.1957289999991,397.1962461669754,397.2060285839834,397.2060285839834,397.2060285839834,,397.9075985419913,,,,,,,,,,,,,,,,,,,,,,,387.9166537919955,387.9248219589936,387.9248219589936,396.3150409999944,space,8.385844000003999,,right,0.0,0.692170708993217,,,,,sub-194,1,random_dot,,
right,right,1.0,1.0,0.0,right,1.0,0.6735116670024581,,speed,space,8.385844000003999,,,,,,0.0,1.0,1.0,1.0,0.0,1.0,1.0,1.0,397.91607791697606,,,,,,,,,397.9080055419763,398.2469813749776,399.0496739999799,399.040891208977,399.04148245899705,399.0496739999799,399.0496739999799,399.0496739999799,,399.7253720419831,,,,,,,,,,,,,,,,,,,,,,,,,,,,,,right,1.0,0.6735116670024581,,,,,sub-194,1,random_dot,,
left,left,2.0,0.0,1.0,right,0.0,0.6777747909945901,,speed,space,8.385844000003999,,,,,,0.0,1.0,1.0,1.0,1.0,0.0,2.0,0.0,399.7342659169808,,,,,,,,,399.7257739169872,400.07341762498254,400.8653453339939,400.8572980419849,400.8577744169743,400.8653453339939,400.8653453339939,400.8653453339939,,401.54820262498106,,,,,,,,,,,,,,,,,,,,,,,,,,,,,,right,0.0,0.6777747909945901,,,,,sub-194,1,random_dot,,
right,right,3.0,1.0,1.0,left,0.0,0.8145063749980181,,speed,space,8.385844000003999,,,,,,0.0,1.0,1.0,1.0,1.0,1.0,3.0,1.0,401.5559960839746,,,,,,,,,401.5486097919929,402.3471875419782,403.1488669999817,403.1408220839803,403.1412906249752,403.1488669999817,403.1488669999817,403.1488669999817,,403.96563999998034,,,,,,,,,,,,,,,,,,,,,,,,,,,,,,left,0.0,0.8145063749980181,,,,,sub-194,1,random_dot,,
right,right,4.0,0.0,2.0,right,1.0,0.5038632500218228,,speed,space,8.385844000003999,,,,,,0.0,1.0,1.0,1.0,2.0,0.0,4.0,1.0,403.9897169169853,,,,,,,,,403.9660487919755,404.7641184169916,405.5663987919979,405.5578000419773,405.5583514169848,405.5663987919979,405.5663987919979,405.5663987919979,,406.0748387919739,,,,,,,,,,,,,,,,,,,,,,,,,,,,,,right,1.0,0.5038632500218228,,,,,sub-194,1,random_dot,,
left,left,5.0,1.0,2.0,right,0.0,0.8536133329907898,,speed,space,8.385844000003999,,,,,,0.0,1.0,1.0,1.0,2.0,1.0,5.0,0.0,406.08336533399415,,,,,,,,,406.0752535839856,407.2734338339942,408.0664656669833,408.0577477499901,408.05836649998673,408.0664656669833,408.0664656669833,408.0664656669833,,408.9250515839958,,,,,,,,,,,,,,,,,,,,,,,,,,,,,,right,0.0,0.8536133329907898,,,,,sub-194,1,random_dot,,
right,right,6.0,0.0,3.0,right,1.0,0.5810404589865357,,speed,space,8.385844000003999,,,,,,0.0,1.0,1.0,1.0,3.0,0.0,6.0,1.0,408.9336445419758,,,,,,,,,408.9254642089945,410.1235272089834,410.9155527089897,410.9074300419889,410.907904333988,410.9155527089897,410.9155527089897,410.9155527089897,,411.49893529198016,,,,,,,,,,,,,,,,,,,,,,,,,,,,,,right,1.0,0.5810404589865357,,,,,sub-194,1,random_dot,,
left,left,7.0,1.0,3.0,left,1.0,0.6366975840064697,,speed,space,8.385844000003999,,,,,,0.0,1.0,1.0,1.0,3.0,1.0,7.0,0.0,411.5231644589803,,,,,,,,,411.499344833981,412.2967202499858,413.0895774169767,413.0812187499832,413.0816898749909,413.0895774169767,413.0895774169767,413.0895774169767,,413.7315667090006,,,,,,,,,,,,,,,,,,,,,,,,,,,,,,left,1.0,0.6366975840064697,,,,,sub-194,1,random_dot,,
right,right,8.0,0.0,4.0,right,1.0,0.5040445830090903,,speed,space,8.385844000003999,,,,,,0.0,1.0,1.0,1.0,4.0,0.0,8.0,1.0,413.7396912089898,,,,,,,,,413.7319475419936,414.9297428749851,415.72287599998526,415.7127003339992,415.7131922499975,415.72287599998526,415.72287599998526,415.72287599998526,,416.231694083981,,,,,,,,,,,,,,,,,,,,,,,,,,,,,,right,1.0,0.5040445830090903,,,,,sub-194,1,random_dot,,
left,left,9.0,1.0,4.0,left,1.0,1.4653552079980727,,speed,space,8.385844000003999,,,,,,0.0,1.0,1.0,1.0,4.0,1.0,9.0,0.0,416.2405139589973,,,,,,,,,416.23208679197705,416.3300699169922,417.1321329999773,417.1241837089765,417.12465983399306,417.1321329999773,417.1321329999773,417.1321329999773,,418.5998124589969,,,,,,,,,,,,,,,,,,,,,,,,,,,,,,left,1.0,1.4653552079980727,,,,,sub-194,1,random_dot,,
right,right,10.0,0.0,5.0,right,1.0,0.4867251249961555,,speed,space,8.385844000003999,,,,,,0.0,1.0,1.0,1.0,5.0,0.0,10.0,1.0,418.6086511249887,,,,,,,,,418.6002140839992,418.9471444999799,419.73950462497305,419.730926624994,419.7314747919736,419.73950462497305,419.73950462497305,419.73950462497305,,420.2316254169855,,,,,,,,,,,,,,,,,,,,,,,,,,,,,,right,1.0,0.4867251249961555,,,,,sub-194,1,random_dot,,
left,left,11.0,1.0,5.0,left,1.0,0.5187571670103353,,speed,space,8.385844000003999,,,,,,0.0,1.0,1.0,1.0,5.0,1.0,11.0,0.0,420.24003229200025,,,,,,,,,420.2320130419976,421.42964479199145,422.2229470419989,422.2127612089971,422.21324362498126,422.2229470419989,422.2229470419989,422.2229470419989,,422.7484763749817,,,,,,,,,,,,,,,,,,,,,,,,,,,,,,left,1.0,0.5187571670103353,,,,,sub-194,1,random_dot,,
left,left,12.0,0.0,6.0,right,0.0,1.0378587919985875,,speed,space,8.385844000003999,,,,,,0.0,1.0,1.0,1.0,6.0,0.0,12.0,0.0,422.7566318749741,,,,,,,,,422.7488845420012,423.94694820899167,424.7491085419897,424.74087899999,424.7413529999904,424.7491085419897,424.7491085419897,424.7491085419897,,425.7916998339933,,,,,,,,,,,,,,,,,,,,,,,,,,,,,,right,0.0,1.0378587919985875,,,,,sub-194,1,random_dot,,
right,right,13.0,1.0,6.0,left,0.0,1.4742438749817666,,speed,space,8.385844000003999,,,,,,0.0,1.0,1.0,1.0,6.0,1.0,13.0,1.0,425.8006026249786,,,,,,,,,425.7921219999844,425.8902783339727,426.682544041978,426.6744141669769,426.67489187498,426.682544041978,426.682544041978,426.682544041978,,428.169114874996,,,,,,,,,,,,,,,,,,,,,,,,,,,,,,left,0.0,1.4742438749817666,,,,,sub-194,1,random_dot,,
left,left,14.0,0.0,7.0,right,0.0,1.115389332990162,,speed,space,8.385844000003999,,,,,,0.0,1.0,1.0,1.0,7.0,0.0,14.0,0.0,428.1752045419999,,,,,,,,,428.1695475419983,429.3635044169787,430.1653302089835,430.1575133339793,430.157975124981,430.1653302089835,430.1653302089835,430.1653302089835,,431.28305883400026,,,,,,,,,,,,,,,,,,,,,,,,,,,,,,right,0.0,1.115389332990162,,,,,sub-194,1,random_dot,,
right,right,15.0,1.0,7.0,right,1.0,2.0954702500021085,,speed,space,8.385844000003999,,,,,,0.0,1.0,1.0,1.0,7.0,1.0,15.0,1.0,431.291581958998,,,,,,,,,431.28345524999895,432.4805407919921,433.28235283397953,433.2743957919884,433.2748587089882,433.28235283397953,433.28235283397953,433.28235283397953,,435.381869208999,,,,,,,,,,,,,,,,,,,,,,,,,,,,,,right,1.0,2.0954702500021085,,,,,sub-194,1,random_dot,,
left,left,16.0,0.0,8.0,left,1.0,0.8099199590214994,,speed,space,8.385844000003999,,,,,,0.0,1.0,1.0,1.0,8.0,0.0,16.0,0.0,435.3905525839946,,,,,,,,,435.3822607919865,435.7302163339919,436.52288574998965,436.51435612500063,436.5149134999956,436.52288574998965,436.52288574998965,436.52288574998965,,437.3415091669885,,,,,,,,,,,,,,,,,,,,,,,,,,,,,,left,1.0,0.8099199590214994,,,,,sub-194,1,random_dot,,
right,right,17.0,1.0,8.0,right,1.0,1.401267832989106,,speed,space,8.385844000003999,,,,,,0.0,1.0,1.0,1.0,8.0,1.0,17.0,1.0,437.3501924999873,,,,,,,,,437.3419141669874,438.1405345419771,438.9332817919785,438.9242163339805,438.9246960419987,438.9332817919785,438.9332817919785,438.9332817919785,,440.3416791249765,,,,,,,,,,,,,,,,,,,,,,,,,,,,,,right,1.0,1.401267832989106,,,,,sub-194,1,random_dot,,
left,left,18.0,0.0,9.0,right,0.0,1.1785081670095678,,speed,space,8.385844000003999,,,,,,0.0,1.0,1.0,1.0,9.0,0.0,18.0,0.0,440.3504222089832,,,,,,,,,440.3420856249868,440.6904382499925,441.48264812497655,441.47453675,441.4750041669759,441.48264812497655,441.48264812497655,441.48264812497655,,442.66529774997616,,,,,,,,,,,,,,,,,,,,,,,,,,,,,,right,0.0,1.1785081670095678,,,,,sub-194,1,random_dot,,
right,right,19.0,1.0,9.0,left,0.0,0.6124277500202879,,speed,space,8.385844000003999,,,,,,0.0,1.0,1.0,1.0,9.0,1.0,19.0,1.0,442.6740728339937,,,,,,,,,442.6657074999821,443.8635843339725,444.6566589169961,444.6482519999845,444.6487434169976,444.6566589169961,444.6566589169961,444.6566589169961,,445.27509833397926,,,,,,,,,,,,,,,,,,,,,,,,,,,,,,left,0.0,0.6124277500202879,,,,,sub-194,1,random_dot,,
right,right,20.0,0.0,10.0,right,1.0,1.1340718750143424,,speed,space,8.385844000003999,,,,,,0.0,1.0,1.0,1.0,10.0,0.0,20.0,1.0,445.28373916697456,,,,,,,,,445.2755059170013,446.0737057919905,446.8659675839881,446.857804542,446.8582755839743,446.8659675839881,446.8659675839881,446.8659675839881,,448.00844987499295,,,,,,,,,,,,,,,,,,,,,,,,,,,,,,right,1.0,1.1340718750143424,,,,,sub-194,1,random_dot,,
left,left,21.0,1.0,10.0,left,1.0,1.888517999992473,,speed,space,8.385844000003999,,,,,,0.0,1.0,1.0,1.0,10.0,1.0,21.0,0.0,448.0171314170002,,,,,,,,,448.00886899998295,448.8071463749802,449.59915016699233,449.5910436249978,449.5915154169779,449.59915016699233,449.59915016699233,449.59915016699233,,451.4918040419871,,,,,,,,,,,,,,,,,,,,,,,,,,,,,,left,1.0,1.888517999992473,,,,,sub-194,1,random_dot,,
right,right,22.0,0.0,11.0,left,0.0,0.882149582990678,,speed,space,8.385844000003999,,,,,,0.0,1.0,1.0,1.0,11.0,0.0,22.0,1.0,451.5004969169968,,,,,,,,,451.49221591698006,452.2905167919816,453.0836008749902,453.07484520899015,453.0754452089896,453.0836008749902,453.0836008749902,453.0836008749902,,453.9752394169918,,,,,,,,,,,,,,,,,,,,,,,,,,,,,,left,0.0,0.882149582990678,,,,,sub-194,1,random_dot,,
left,left,23.0,1.0,11.0,right,0.0,1.4498359590070322,,speed,space,8.385844000003999,,,,,,0.0,1.0,1.0,1.0,11.0,1.0,23.0,0.0,453.98395749999327,,,,,,,,,453.97564749998855,454.3238699169888,455.11552879199735,455.1077529169852,455.1082432089897,455.11552879199735,455.11552879199735,455.11552879199735,,456.57522299999255,,,,,,,,,,,,,,,,,,,,,,,,,,,,,,right,0.0,1.4498359590070322,,,,,sub-194,1,random_dot,,
right,right,24.0,0.0,12.0,right,1.0,0.9100471670099068,,speed,space,8.385844000003999,,,,,,0.0,1.0,1.0,1.0,12.0,0.0,24.0,1.0,456.5840845419734,,,,,,,,,456.5756342089735,456.67379095900105,457.4661894169985,457.4579039169767,457.4583849170013,457.4661894169985,457.4661894169985,457.4661894169985,,458.3826630839904,,,,,,,,,,,,,,,,,,,,,,,,,,,,,,right,1.0,0.9100471670099068,,,,,sub-194,1,random_dot,,
left,left,25.0,1.0,12.0,left,1.0,3.422282167011872,,speed,space,8.385844000003999,,,,,,0.0,1.0,1.0,1.0,12.0,1.0,25.0,0.0,458.406857791997,,,,,,,,,458.38305491697975,458.48086791698006,459.273502541997,459.26404154198826,459.2645310839871,459.273502541997,459.273502541997,459.273502541997,,462.6987023339898,,,,,,,,,,,,,,,,,,,,,,,,,,,,,,left,1.0,3.422282167011872,,,,,sub-194,1,random_dot,,
right,right,26.0,0.0,13.0,right,1.0,4.420901874982519,,speed,space,8.385844000003999,,,,,,0.0,1.0,1.0,1.0,13.0,0.0,26.0,1.0,462.70687995897606,,,,,,,,,462.69910637498833,463.0475014999975,463.8494656249823,463.8411801249895,463.84165237497655,463.8494656249823,463.8494656249823,463.8494656249823,,468.27526012499584,,,,,,,,,,,,,,,,,,,,,,,,,,,,,,right,1.0,4.420901874982519,,,,,sub-194,1,random_dot,,
left,left,27.0,1.0,13.0,right,0.0,0.8878866670129355,,speed,space,8.385844000003999,,,,,,0.0,1.0,1.0,1.0,13.0,1.0,27.0,0.0,468.2838344170013,,,,,,,,,468.2756696669967,469.0740949589817,469.86592804198153,469.8577807089896,469.8582517499744,469.86592804198153,469.86592804198153,469.86592804198153,,470.75847570897895,,,,,,,,,,,,,,,,,,,,,,,,,,,,,,right,0.0,0.8878866670129355,,,,,sub-194,1,random_dot,,
left,left,28.0,0.0,14.0,left,1.0,1.6084840419935065,,speed,space,8.385844000003999,,,,,,0.0,1.0,1.0,1.0,14.0,0.0,28.0,0.0,470.7670987919846,,,,,,,,,470.7588893749926,470.8573393339757,471.6493486669788,471.6412931249943,471.6417587919859,471.6493486669788,471.6493486669788,471.6493486669788,,473.26847137499135,,,,,,,,,,,,,,,,,,,,,,,,,,,,,,left,1.0,1.6084840419935065,,,,,sub-194,1,random_dot,,
right,right,29.0,1.0,14.0,left,0.0,0.8584831249900162,,speed,space,8.385844000003999,,,,,,0.0,1.0,1.0,1.0,14.0,1.0,29.0,1.0,473.2742193749873,,,,,,,,,473.2688770839886,474.06405320897466,474.8659657089738,474.8580071249744,474.8585335419921,474.8659657089738,474.8659657089738,474.8659657089738,,475.7351101669774,,,,,,,,,,,,,,,,,,,,,,,,,,,,,,left,0.0,0.8584831249900162,,,,,sub-194,1,random_dot,,
left,left,30.0,0.0,15.0,right,0.0,1.2698502079874745,,speed,space,8.385844000003999,,,,,,0.0,1.0,1.0,1.0,15.0,0.0,30.0,0.0,475.74090174998855,,,,,,,,,475.7355167089845,475.8308209169773,476.6323574169946,476.6245871669962,476.6250516249856,476.6323574169946,476.6323574169946,476.6323574169946,,477.9084967089875,,,,,,,,,,,,,,,,,,,,,,,,,,,,,,right,0.0,1.2698502079874745,,,,,sub-194,1,random_dot,,
right,right,31.0,1.0,15.0,right,1.0,0.9205549169855658,,speed,space,8.385844000003999,,,,,,0.0,1.0,1.0,1.0,15.0,1.0,31.0,1.0,477.9168769999815,,,,,,,,,477.90890041698,478.0075933339831,478.8006992499868,478.7916898339754,478.7922061669815,478.8006992499868,478.8006992499868,478.8006992499868,,479.72534708399326,,,,,,,,,,,,,,,,,,,,,,,,,,,,,,right,1.0,0.9205549169855658,,,,,sub-194,1,random_dot,,
right,right,32.0,0.0,16.0,right,1.0,1.0443607089982834,,speed,space,8.385844000003999,,,,,,0.0,1.0,1.0,1.0,16.0,0.0,32.0,1.0,479.7338010419917,,,,,,,,,479.7257418340014,480.0740976249799,480.8663502919953,480.85810433398,480.8586403339869,480.8663502919953,480.8663502919953,480.8663502919953,,481.9156288749946,,,,,,,,,,,,,,,,,,,,,,,,,,,,,,right,1.0,1.0443607089982834,,,,,sub-194,1,random_dot,,
left,left,33.0,1.0,16.0,right,0.0,0.7134194170066621,,speed,space,8.385844000003999,,,,,,0.0,1.0,1.0,1.0,16.0,1.0,33.0,0.0,481.9237814169901,,,,,,,,,481.9160375419888,482.01654216699535,482.8162676249922,482.8081391249725,482.8086128339928,482.8162676249922,482.8162676249922,482.8162676249922,,483.5323440419743,,,,,,,,,,,,,,,,,,,,,,,,,,,,,,right,0.0,0.7134194170066621,,,,,sub-194,1,random_dot,,
right,right,34.0,0.0,17.0,right,1.0,1.2760626249946654,,speed,space,8.385844000003999,,,,,,0.0,1.0,1.0,1.0,17.0,0.0,34.0,1.0,483.5403895419731,,,,,,,,,483.5327349999861,484.7310021249869,485.5236437919957,485.5143576669798,485.51481587497983,485.5236437919957,485.5236437919957,485.5236437919957,,486.8087817089981,,,,,,,,,,,,,,,,,,,,,,,,,,,,,,right,1.0,1.2760626249946654,,,,,sub-194,1,random_dot,,
left,left,35.0,1.0,17.0,left,1.0,1.0921455839998089,,speed,space,8.385844000003999,,,,,,0.0,1.0,1.0,1.0,17.0,1.0,35.0,0.0,486.8173512919748,,,,,,,,,486.8092087499972,487.6074817499903,488.3998572919809,488.3915507089987,488.3920477089996,488.3998572919809,488.3998572919809,488.3998572919809,,489.49919479197706,,,,,,,,,,,,,,,,,,,,,,,,,,,,,,left,1.0,1.0921455839998089,,,,,sub-194,1,random_dot,,
right,right,36.0,0.0,18.0,right,1.0,1.0075272920075804,,speed,space,8.385844000003999,,,,,,0.0,1.0,1.0,1.0,18.0,0.0,36.0,1.0,489.52379991699127,,,,,,,,,489.4996379169752,490.2971705839736,491.0999425839982,491.091793916974,491.0922645839746,491.0999425839982,491.0999425839982,491.0999425839982,,492.1182775419729,,,,,,,,,,,,,,,,,,,,,,,,,,,,,,right,1.0,1.0075272920075804,,,,,sub-194,1,random_dot,,
left,left,37.0,1.0,18.0,right,0.0,0.9420852919865864,,speed,space,8.385844000003999,,,,,,0.0,1.0,1.0,1.0,18.0,1.0,37.0,0.0,492.1237927499751,,,,,,,,,492.11868637497537,492.46398987498833,493.26655887498055,493.2583458749869,493.2588059169939,493.26655887498055,493.26655887498055,493.26655887498055,,494.21555274998536,,,,,,,,,,,,,,,,,,,,,,,,,,,,,,right,0.0,0.9420852919865864,,,,,sub-194,1,random_dot,,
left,left,38.0,0.0,19.0,right,0.0,1.3332338339823764,,speed,space,8.385844000003999,,,,,,0.0,1.0,1.0,1.0,19.0,0.0,38.0,0.0,494.2244023339881,,,,,,,,,494.2159463749849,495.0143137499981,495.81596566698863,495.8081010419992,495.80858570899,495.81596566698863,495.81596566698863,495.81596566698863,,497.1587276669743,,,,,,,,,,,,,,,,,,,,,,,,,,,,,,right,0.0,1.3332338339823764,,,,,sub-194,1,random_dot,,
right,right,39.0,1.0,19.0,right,1.0,2.499217749980744,,speed,space,8.385844000003999,,,,,,0.0,1.0,1.0,1.0,19.0,1.0,39.0,1.0,497.1673904169875,,,,,,,,,497.1591392089904,497.9575662089919,498.74982883399935,498.74160258399206,498.742073292,498.74982883399935,498.74982883399935,498.74982883399935,,501.2590558749798,,,,,,,,,,,,,,,,,,,,,,,,,,,,,,right,1.0,2.499217749980744,,,,,sub-194,1,random_dot,,
left,left,40.0,0.0,20.0,left,1.0,1.619136375025846,,speed,space,8.385844000003999,,,,,,0.0,1.0,1.0,1.0,20.0,0.0,40.0,0.0,501.2677612499974,,,,,,,,,501.2594672089908,501.6076064999797,502.3999775419943,502.3915789999882,502.3920578749967,502.3999775419943,502.3999775419943,502.3999775419943,,504.02543937499286,,,,,,,,,,,,,,,,,,,,,,,,,,,,,,left,1.0,1.619136375025846,,,,,sub-194,1,random_dot,,
right,right,41.0,1.0,20.0,left,0.0,0.961803999991389,,speed,space,8.385844000003999,,,,,,0.0,1.0,1.0,1.0,20.0,1.0,41.0,1.0,504.03401637499337,,,,,,,,,504.0258432089759,504.8244357919903,505.6163559999841,505.6084030839848,505.608863417001,505.6163559999841,505.6163559999841,505.6163559999841,,506.5826453339832,,,,,,,,,,,,,,,,,,,,,,,,,,,,,,left,0.0,0.961803999991389,,,,,sub-194,1,random_dot,,
right,right,42.0,0.0,21.0,right,1.0,0.9344921669980976,,speed,space,8.385844000003999,,,,,,0.0,1.0,1.0,1.0,21.0,0.0,42.0,1.0,506.591249249992,,,,,,,,,506.58304904197576,507.3811015839746,508.1736396669876,508.1653716249857,508.1658508339897,508.1736396669876,508.1736396669876,508.1736396669876,,509.1188949169882,,,,,,,,,,,,,,,,,,,,,,,,,,,,,,right,1.0,0.9344921669980976,,,,,sub-194,1,random_dot,,
left,left,43.0,1.0,21.0,right,0.0,1.2917041670007166,,speed,space,8.385844000003999,,,,,,0.0,1.0,1.0,1.0,21.0,1.0,43.0,0.0,509.1406544999918,,,,,,,,,509.1192993749864,509.21403754199855,510.0070519589936,509.99705945898313,509.9975217919855,510.0070519589936,510.0070519589936,510.0070519589936,,511.3093262919865,,,,,,,,,,,,,,,,,,,,,,,,,,,,,,right,0.0,1.2917041670007166,,,,,sub-194,1,random_dot,,
left,left,44.0,0.0,22.0,right,0.0,1.0272840000106953,,speed,space,8.385844000003999,,,,,,0.0,1.0,1.0,1.0,22.0,0.0,44.0,0.0,511.3150228749728,,,,,,,,,511.3097429169866,512.1077218339778,512.8995552919805,512.8916073750006,512.8921075839899,512.8995552919805,512.8995552919805,512.8995552919805,,513.9324816669978,,,,,,,,,,,,,,,,,,,,,,,,,,,,,,right,0.0,1.0272840000106953,,,,,sub-194,1,random_dot,,
right,right,45.0,1.0,22.0,right,1.0,1.8984625409939329,,speed,space,8.385844000003999,,,,,,0.0,1.0,1.0,1.0,22.0,1.0,45.0,1.0,513.9406787089829,,,,,,,,,513.9328800840012,514.7308744589973,515.5340962919872,515.525384833978,515.525954666984,515.5340962919872,515.5340962919872,515.5340962919872,,517.4423619589943,,,,,,,,,,,,,,,,,,,,,,,,,,,,,,right,1.0,1.8984625409939329,,,,,sub-194,1,random_dot,,
right,right,46.0,0.0,23.0,left,0.0,1.0556312090193387,,speed,space,8.385844000003999,,,,,,0.0,1.0,1.0,1.0,23.0,0.0,46.0,1.0,517.4510175839823,,,,,,,,,517.4427853339876,517.7910584169731,518.5831369999796,518.5750445839949,518.575505041983,518.5831369999796,518.5831369999796,518.5831369999796,,519.642347999994,,,,,,,,,,,,,,,,,,,,,,,,,,,,,,left,0.0,1.0556312090193387,,,,,sub-194,1,random_dot,,
left,left,47.0,1.0,23.0,left,1.0,0.8296941659937147,,speed,space,8.385844000003999,,,,,,0.0,1.0,1.0,1.0,23.0,1.0,47.0,0.0,519.650906416995,,,,,,,,,519.6427537499985,519.9912495839817,520.7827747089905,520.7749965839903,520.7754811669874,520.7827747089905,520.7827747089905,520.7827747089905,,521.6160372089944,,,,,,,,,,,,,,,,,,,,,,,,,,,,,,left,1.0,0.8296941659937147,,,,,sub-194,1,random_dot,,
left,left,48.0,0.0,24.0,left,1.0,0.7037216659809928,,speed,space,8.385844000003999,,,,,,0.0,1.0,1.0,1.0,24.0,0.0,48.0,0.0,521.6241865420016,,,,,,,,,521.6164283339749,522.4141498339886,523.216411249974,523.2082991669886,523.2087757919799,523.216411249974,523.216411249974,523.216411249974,,523.9258798749943,,,,,,,,,,,,,,,,,,,,,,,,,,,,,,left,1.0,0.7037216659809928,,,,,sub-194,1,random_dot,,
right,right,49.0,1.0,24.0,left,0.0,1.0829814590106253,,speed,space,8.385844000003999,,,,,,0.0,1.0,1.0,1.0,24.0,1.0,49.0,1.0,523.9344914999965,,,,,,,,,523.9262913749844,524.0245279999799,524.8167159589939,524.8083759169967,524.8088402499852,524.8167159589939,524.8167159589939,524.8167159589939,,525.909085124993,,,,,,,,,,,,,,,,,,,,,,,,,,,,,,left,0.0,1.0829814590106253,,,,,sub-194,1,random_dot,,
left,left,50.0,0.0,25.0,right,0.0,1.830901750014164,,speed,space,8.385844000003999,,,,,,0.0,1.0,1.0,1.0,25.0,0.0,50.0,0.0,525.9173997089965,,,,,,,,,525.9095173749956,526.2579849999747,527.0500318339909,527.041758916981,527.0422199999739,527.0500318339909,527.0500318339909,527.0500318339909,,528.8832659589825,,,,,,,,,,,,,,,,,,,,,,,,,,,,,,right,0.0,1.830901750014164,,,,,sub-194,1,random_dot,,
right,right,51.0,1.0,25.0,right,1.0,1.2682896659825929,,speed,space,8.385844000003999,,,,,,0.0,1.0,1.0,1.0,25.0,1.0,51.0,1.0,528.9075306669984,,,,,,,,,528.8836872919928,529.6810903750011,530.4731922089995,530.4644946669869,530.4650821669784,530.4731922089995,530.4731922089995,530.4731922089995,,531.7523229169892,,,,,,,,,,,,,,,,,,,,,,,,,,,,,,right,1.0,1.2682896659825929,,,,,sub-194,1,random_dot,,
left,left,52.0,0.0,26.0,right,0.0,1.830828708014451,,speed,space,8.385844000003999,,,,,,0.0,1.0,1.0,1.0,26.0,0.0,52.0,0.0,531.7580244999845,,,,,,,,,531.7527377090009,532.0978777919954,532.8999267499894,532.8917334169964,532.8922274169745,532.8999267499894,532.8999267499894,532.8999267499894,,534.7330688749789,,,,,,,,,,,,,,,,,,,,,,,,,,,,,,right,0.0,1.830828708014451,,,,,sub-194,1,random_dot,,
right,right,53.0,1.0,26.0,right,1.0,0.9075522909988648,,speed,space,8.385844000003999,,,,,,0.0,1.0,1.0,1.0,26.0,1.0,53.0,1.0,534.7414945419878,,,,,,,,,534.7334653339931,535.0809981669881,535.8738926249789,535.8643976669991,535.8649590419955,535.8738926249789,535.8738926249789,535.8738926249789,,536.78396624999,,,,,,,,,,,,,,,,,,,,,,,,,,,,,,right,1.0,0.9075522909988648,,,,,sub-194,1,random_dot,,
left,left,54.0,0.0,27.0,left,1.0,6.107227541011525,,speed,space,8.385844000003999,,,,,,0.0,1.0,1.0,1.0,27.0,0.0,54.0,0.0,536.7927622089919,,,,,,,,,536.7844181249966,537.131401458988,537.9240177499887,537.9147701670008,537.9152462089842,537.9240177499887,537.9240177499887,537.9240177499887,542.9077173749974,544.0430459169729,,,,,,,,,,,,,,,,,,,,,,,,,,,,,,left,1.0,6.107227541011525,,,,,sub-194,1,random_dot,,
right,right,55.0,1.0,27.0,right,1.0,2.261699833004968,,speed,space,8.385844000003999,,,,,,0.0,1.0,1.0,1.0,27.0,1.0,55.0,1.0,544.0515389169741,,,,,,,,,544.0434695419972,545.2412828749802,546.0328452499816,546.0250498749956,546.0255591249734,546.0328452499816,546.0328452499816,546.0328452499816,,548.2995657919964,,,,,,,,,,,,,,,,,,,,,,,,,,,,,,right,1.0,2.261699833004968,,,,,sub-194,1,random_dot,,
right,right,56.0,0.0,28.0,right,1.0,1.2806640840135517,,speed,space,8.385844000003999,,,,,,0.0,1.0,1.0,1.0,28.0,0.0,56.0,1.0,548.3077914589958,,,,,,,,,548.2999881249852,548.3984044999816,549.200034458976,549.1919335419952,549.1923824999831,549.200034458976,549.200034458976,549.200034458976,,550.4830646669725,,,,,,,,,,,,,,,,,,,,,,,,,,,,,,right,1.0,1.2806640840135517,,,,,sub-194,1,random_dot,,
left,left,57.0,1.0,28.0,left,1.0,1.1081857090175615,,speed,space,8.385844000003999,,,,,,0.0,1.0,1.0,1.0,28.0,1.0,57.0,0.0,550.4916011669848,,,,,,,,,550.4834623339993,550.8311691669805,551.6345004169852,551.6254472919973,551.6259129169921,551.6345004169852,551.6345004169852,551.6345004169852,,552.7488053749839,,,,,,,,,,,,,,,,,,,,,,,,,,,,,,left,1.0,1.1081857090175615,,,,,sub-194,1,random_dot,,
right,right,58.0,0.0,29.0,left,0.0,1.0909060000267343,,speed,space,8.385844000003999,,,,,,0.0,1.0,1.0,1.0,29.0,0.0,58.0,1.0,552.7572334999859,,,,,,,,,552.7492095839989,553.9484653749969,554.7502057919919,554.7419751669804,554.7424527089752,554.7502057919919,554.7502057919919,554.7502057919919,,555.8432440419856,,,,,,,,,,,,,,,,,,,,,,,,,,,,,,left,0.0,1.0909060000267343,,,,,sub-194,1,random_dot,,
left,left,59.0,1.0,29.0,left,1.0,1.4295670409919694,,speed,space,8.385844000003999,,,,,,0.0,1.0,1.0,1.0,29.0,1.0,59.0,0.0,555.8519015839847,,,,,,,,,555.8436480839737,555.9414133339887,556.7332929589902,556.7253465419926,556.7258277499932,556.7332929589902,556.7332929589902,556.7332929589902,,558.1665508339938,,,,,,,,,,,,,,,,,,,,,,,,,,,,,,left,1.0,1.4295670409919694,,,,,sub-194,1,random_dot,,
,,1.0,1.0,0.0,,,,,speed,space,8.385844000003999,,,,,,0.0,1.0,1.0,1.0,,,,,,,,,,,,,,,,,,,,,,,,,,,,,,,,,,,,,,,,,,,,,,,,,,,,,,,,,,,,sub-194,1,random_dot,,
,,,,,,,,,,,,,,,,,,,,,,,,,,,,,,,,,,,,,,,,,,,,,,,,,,,,,,,,,,,,,,,,,,,,,,,,,,,,,558.173103041976,558.1820467090001,563.1749037499831,sub-194,1,random_dot,,
