direction,corrAns,randomInstr,practice_trials.thisRepN,practice_trials.thisTrialN,practice_trials.thisN,practice_trials.thisIndex,instr_trials.thisRepN,instr_trials.thisTrialN,instr_trials.thisN,instr_trials.thisIndex,test_trials.thisRepN,test_trials.thisTrialN,test_trials.thisN,test_trials.thisIndex,thisRow.t,notes,general_instruction.started,textGeneralInstr.started,respGeneralInstr.started,general_instruction.stopped,respGeneralInstr.keys,respGeneralInstr.rt,respGeneralInstr.duration,ITI.started,fixcross.started,fixcross.stopped,ITI.stopped,dots.started,backgroundDots.started,stimulusDots.started,respDots.started,dots.stopped,respDots.keys,respDots.corr,respDots.rt,respDots.duration,feedback.started,textFeedback.started,feedback.stopped,stimulusDots.stopped,textFeedback.stopped,info.started,textInfo.started,keyRespInfo.started,info.stopped,keyRespInfo.keys,keyRespInfo.rt,keyRespInfo.duration,test_instruction.started,textTestInstr.started,respTestInstr.started,test_instruction.stopped,respTestInstr.keys,respTestInstr.rt,respTestInstr.duration,random_instruction.started,textRandomInstr.started,respRandomInstr.started,random_instruction.stopped,respRandomInstr.keys,respRandomInstr.rt,respRandomInstr.duration,goodbye.started,textGoodbye.started,textGoodbye.stopped,goodbye.stopped,participant,session,expName,frameRate,Unnamed: 74
,,,,,,,,,,,,,,,,,0.0171484998427331,0.0350161998067051,0.0350161998067051,22.599970999872312,space,44.06040500011295,,,,,,,,,,,,,,,,,,,,,,,,,,,,,,,,,,,,,,,,,,,,,sub-061,1.0,random_dot,59.89081902827439,
left,left,,0.0,0.0,0.0,0.0,,,,,,,,,22.6772833999712,,,,,,,,,22.66112199984491,22.95337349991314,23.75273589999415,23.7372347000055,23.737290099961683,23.75273589999415,23.75273589999415,23.75273589999415,28.553866899805143,left,1.0,26.28395160008222,,28.55616819998249,28.57403129991144,29.06964679993689,,,,,,,,,,,,,,,,,,,,,,,,,,,,sub-061,1.0,random_dot,59.89081902827439,
right,right,,0.0,1.0,1.0,1.0,,,,,,,,,29.08630259986967,,,,,,,,,29.070355899864808,29.417934599798173,30.219402799848467,30.20412569982,30.20416259998456,30.219402799848467,30.219402799848467,30.219402799848467,35.80271349987015,right,1.0,27.066924000158902,,35.80328569980338,35.817241199780256,36.30170159996487,35.21735959989019,36.31858829990961,,,,,,,,,,,,,,,,,,,,,,,,,,sub-061,1.0,random_dot,59.89081902827439,
right,right,,1.0,0.0,2.0,1.0,,,,,,,,,36.31858829990961,,,,,,,,,36.30214089993388,37.10230529983528,37.9181099999696,37.90173099981621,37.901751399971545,37.9181099999696,37.9181099999696,37.9181099999696,40.8704846999608,right,1.0,24.437760500237346,,40.87104899995029,40.886007599998266,41.38537589996122,,,,,,,,,,,,,,,,,,,,,,,,,,,,sub-061,1.0,random_dot,59.89081902827439,
left,left,,1.0,1.0,3.0,0.0,,,,,,,,,41.40176159981638,,,,,,,,,41.38596519990824,41.73619359987788,42.53595649986528,42.52065739990212,42.52069109980948,42.53595649986528,42.53595649986528,42.53595649986528,43.75415059993975,right,0.0,22.713111200137064,,43.754778099944815,43.77101879986003,44.26964999991469,,,,,,,,,,,,,,,,,,,,,,,,,,,,sub-061,1.0,random_dot,59.89081902827439,
left,left,,2.0,0.0,4.0,0.0,,,,,,,,,44.28645399981178,,,,,,,,,44.270329599967226,44.36917869979516,45.1850047998596,45.16911739995703,45.16914739995264,45.1850047998596,45.1850047998596,45.1850047998596,48.20184140000492,left,1.0,24.50807910016738,,48.20230040000752,48.21704839984886,48.70096629997715,,48.71676929993555,,,,,,,,,,,,,,,,,,,,,,,,,,sub-061,1.0,random_dot,59.89081902827439,
right,right,,2.0,1.0,5.0,1.0,,,,,,,,,48.71676929993555,,,,,,,,,48.7013355998788,48.81940789986402,49.63422989984974,49.61760599981062,49.61763509991579,49.63422989984974,49.63422989984974,49.63422989984974,52.63772140000947,right,1.0,24.492502000182867,,52.63847929984331,52.651622499804944,53.13768899999559,,53.15231789997779,,,,,,,,,,,,,,,,,,,,,,,,,,sub-061,1.0,random_dot,59.89081902827439,
left,left,,3.0,0.0,6.0,0.0,,,,,,,,,53.15231789997779,,,,,,,,,53.13834279985167,54.35221159993671,55.16730129998177,55.15059609990567,55.15061859996058,55.16730129998177,55.16730129998177,55.16730129998177,57.66752789984457,left,1.0,23.983910700073466,,57.66794670000672,57.683649899903685,58.16750719980337,,58.18333619995974,,,,,,,,,,,,,,,,,,,,,,,,,,sub-061,1.0,random_dot,59.89081902827439,
right,right,,3.0,1.0,7.0,1.0,,,,,,,,,58.18333619995974,,,,,,,,,58.16787809995003,58.533282599877566,59.335595899960026,59.3205431997776,59.32059259992093,59.335595899960026,59.335595899960026,59.335595899960026,62.26787330000661,right,1.0,24.423948800191283,,62.26836899993941,62.28316649980843,62.767273099860176,,62.78320319997147,,,,,,,,,,,,,,,,,,,,,,,,,,sub-061,1.0,random_dot,59.89081902827439,
right,right,,4.0,0.0,8.0,1.0,,,,,,,,,62.78320319997147,,,,,,,,,62.76782009983435,62.883161899866536,63.68396309996024,63.66932099987753,63.66935479990207,63.68396309996024,63.68396309996024,63.68396309996024,66.302379099885,left,0.0,24.11016150028445,,66.30288679990917,66.31647769990377,66.80337559990585,,66.81897299992852,,,,,,,,,,,,,,,,,,,,,,,,,,sub-061,1.0,random_dot,59.89081902827439,
left,left,,4.0,1.0,9.0,0.0,,,,,,,,,66.81897299992852,,,,,,,,,66.80420359992422,67.6167638998013,68.4192747999914,68.40382659994066,68.40388189977966,68.4192747999914,68.4192747999914,68.4192747999914,72.30195379978977,left,1.0,25.369548300048336,,72.30259340000339,72.31656149984337,72.80090379994363,,72.81700429995544,,,,,,,,,,,,,,,,,,,,,,,,,,sub-061,1.0,random_dot,59.89081902827439,
right,right,,5.0,0.0,10.0,1.0,,,,,,,,,72.81700429995544,,,,,,,,,72.80134759983048,74.016387199983,74.81711659999564,74.80129849980585,74.8013224999886,74.81711659999564,74.81711659999564,74.81711659999564,79.38466949993744,right,1.0,26.058550599962476,,79.38515269989148,79.4001587999519,79.88453879998997,,79.89981149998493,,,,,,,,,,,,,,,,,,,,,,,,,,sub-061,1.0,random_dot,59.89081902827439,
left,left,,5.0,1.0,11.0,0.0,,,,,,,,,79.89981149998493,,,,,,,,,79.88492139987648,81.08456829981878,81.90008129994385,81.88383899978362,81.88386269984767,81.90008129994385,81.90008129994385,81.90008129994385,84.48485099989921,left,1.0,24.06968260020949,,84.48535249987617,84.49997359979898,84.98407979984768,,85.00056799990125,,,,,,,,,,,,,,,,,,,,,,,,,,sub-061,1.0,random_dot,59.89081902827439,
left,left,,6.0,0.0,12.0,0.0,,,,,,,,,85.00056799990125,,,,,,,,,84.98444839986041,85.10060229990631,85.90054129995406,85.88444169983268,85.88446809980087,85.90054129995406,85.90054129995406,85.90054129995406,88.68512219982222,right,0.0,24.276719600195065,,88.6855775997974,88.69975219992921,89.18428759998642,,89.1999068998266,,,,,,,,,,,,,,,,,,,,,,,,,,sub-061,1.0,random_dot,59.89081902827439,
right,right,,6.0,1.0,13.0,1.0,,,,,,,,,89.1999068998266,,,,,,,,,89.18467969982885,89.54990779981017,90.3510464997962,90.3346678998787,90.33469699998386,90.3510464997962,90.3510464997962,90.3510464997962,92.50129379983991,right,1.0,23.63993340008892,,92.50173179991543,92.51735429977998,93.00092659983784,,93.01751029980367,,,,,,,,,,,,,,,,,,,,,,,,,,sub-061,1.0,random_dot,59.89081902827439,
right,right,,7.0,0.0,14.0,1.0,,,,,,,,,93.01751029980367,,,,,,,,,93.00143649987876,93.36603659996764,94.1666289998684,94.1510088997893,94.1510347998701,94.1666289998684,94.1666289998684,94.1666289998684,95.91959619987756,right,1.0,23.249964400194585,,95.92023849999532,95.93355689989404,96.41795189981347,,96.43421709979884,,,,,,,,,,,,,,,,,,,,,,,,,,sub-061,1.0,random_dot,59.89081902827439,
left,left,,7.0,1.0,15.0,0.0,,,,,,,,,96.43421709979884,,,,,,,,,96.41845209989695,96.7835381999612,97.58404399990104,97.56858309987,97.56861169985496,97.58404399990104,97.58404399990104,97.58404399990104,98.30073319980876,left,1.0,22.201857900014147,,98.30122779984958,98.31711829989216,98.80081469984724,,98.81650159996934,,,,,,,,,,,,,,,,,,,,,,,,,,sub-061,1.0,random_dot,59.89081902827439,
right,right,,8.0,0.0,16.0,1.0,,,,,,,,,98.81650159996934,,,,,,,,,98.80129689979368,99.61646960000508,100.41630449984224,100.40085430000909,100.4008756999392,100.41630449984224,100.41630449984224,100.41630449984224,102.06842919997872,right,1.0,23.133692000061277,,102.06900579994544,102.0835255999118,102.56876689987256,,102.5844735999126,,,,,,,,,,,,,,,,,,,,,,,,,,sub-061,1.0,random_dot,59.89081902827439,
left,left,,8.0,1.0,17.0,0.0,,,,,,,,,102.5844735999126,,,,,,,,,102.56948259985074,103.3824306000024,104.18496300000696,104.1697274998296,104.16977029992267,104.18496300000696,104.18496300000696,104.18496300000696,105.6029244000092,left,1.0,22.89958700002171,,105.60363099980168,105.61693169991486,106.10048169991931,,106.116912700003,,,,,,,,,,,,,,,,,,,,,,,,,,sub-061,1.0,random_dot,59.89081902827439,
left,left,,9.0,0.0,18.0,0.0,,,,,,,,,106.116912700003,,,,,,,,,106.10084899980576,106.21593359997496,107.01704129995778,107.00101549993268,107.00105879991315,107.01704129995778,107.01704129995778,107.01704129995778,108.83696359978056,right,0.0,23.31333180028014,,108.83777549979276,108.85105549986474,109.33585369982757,,109.35141619993374,,,,,,,,,,,,,,,,,,,,,,,,,,sub-061,1.0,random_dot,59.89081902827439,
right,right,,9.0,1.0,19.0,1.0,,,,,,,,,109.35141619993374,,,,,,,,,109.33650719979778,109.7012248998508,110.50030719977804,110.48595649981873,110.48598619992843,110.50030719977804,110.50030719977804,110.50030719977804,112.0347039999906,right,1.0,23.018708400195464,,112.03515629982576,112.0499475998804,112.5345683998894,,112.55132779991254,,,,,,,,,,,,,,,,,,,,,,,,,,sub-061,1.0,random_dot,59.89081902827439,
,,,,,,,,,,,,,,,,,,,,,,,,,,,,,,,,,,,,,,,,,,112.5346557998564,112.55132779991254,112.55132779991254,116.0383025999181,space,24.97413290012628,,,,,,,,,,,,,,,,,,,,sub-061,1.0,random_dot,59.89081902827439,
,,,,,,,,,,,,,,,,,,,,,,,,,,,,,,,,,,,,,,,,,,,,,,,,,116.03836089977996,116.04962740000336,116.04962740000336,123.47061919979753,space,28.912442500004545,,,,,,,,,,,,,sub-061,1.0,random_dot,59.89081902827439,
left,left,accuracy,,,,,0.0,0.0,0.0,0.0,0.0,0.0,0.0,0.0,126.41854579979554,,,,,,,,,126.41279969993047,127.21623279992492,128.01755009987392,128.0022324998863,128.0022761998698,128.01755009987392,128.01755009987392,128.01755009987392,131.15288539999165,right,0.0,24.625544200185686,,,,,,,,,,,,,,,,,,,,,123.49120809999296,123.52765479986556,123.52765479986556,126.4023990998976,space,24.36347260000184,,,,,,sub-061,1.0,random_dot,59.89081902827439,
right,right,accuracy,,,,,0.0,0.0,0.0,0.0,0.0,1.0,1.0,1.0,131.1717416997999,,,,,,,,,131.16659059980884,132.36723629990593,133.16724489978515,133.15199429984204,133.15202839998528,133.16724489978515,133.16724489978515,133.16724489978515,136.0680188999977,right,1.0,24.39278919994831,,,,,,,,,,,,,,,,,,,,,,,,,,,,,,,,sub-061,1.0,random_dot,59.89081902827439,
left,left,accuracy,,,,,0.0,0.0,0.0,0.0,1.0,0.0,2.0,0.0,136.08295939979143,,,,,,,,,136.0689460998401,136.86820489983074,137.68477779999375,137.66928129992448,137.66932369978167,137.68477779999375,137.68477779999375,137.68477779999375,141.95129769993946,left,1.0,25.74955389997922,,,,,,,,,,,,,,,,,,,,,,,,,,,,,,,,sub-061,1.0,random_dot,59.89081902827439,
right,right,accuracy,,,,,0.0,0.0,0.0,0.0,1.0,1.0,3.0,1.0,141.96671909978613,,,,,,,,,141.95228139986284,143.16677299980074,143.967341999989,143.95253959996626,143.95258069992997,143.967341999989,143.967341999989,143.967341999989,148.2349614999257,right,1.0,25.75533840013668,,,,,,,,,,,,,,,,,,,,,,,,,,,,,,,,sub-061,1.0,random_dot,59.89081902827439,
right,right,accuracy,,,,,0.0,0.0,0.0,0.0,2.0,0.0,4.0,1.0,148.25056959991343,,,,,,,,,148.23622739990242,149.0485713998787,149.85018959990705,149.83475939999337,149.83478859998286,149.85018959990705,149.85018959990705,149.85018959990705,154.71926259994507,right,1.0,26.36029490013607,,,,,,,,,,,,,,,,,,,,,,,,,,,,,,,,sub-061,1.0,random_dot,59.89081902827439,
left,left,accuracy,,,,,0.0,0.0,0.0,0.0,2.0,1.0,5.0,0.0,154.73381949984469,,,,,,,,,154.72052499977872,154.83360469993204,155.63372539984994,155.61781500000507,155.6178458998911,155.63372539984994,155.63372539984994,155.63372539984994,160.98821279988624,left,1.0,26.849997100187466,,,,,160.63377739978023,,,,,,,,,,,,,,,,,,,,,,,,,,,sub-061,1.0,random_dot,59.89081902827439,
right,right,accuracy,,,,,0.0,0.0,0.0,0.0,3.0,0.0,6.0,1.0,161.00037429993972,,,,,,,,,160.98962619993836,161.34983039996587,162.15011549997143,162.1349277999252,162.13499499997124,162.15011549997143,162.15011549997143,162.15011549997143,163.7683749999851,right,1.0,23.11474630003795,,,,,,,,,,,,,,,,,,,,,,,,,,,,,,,,sub-061,1.0,random_dot,59.89081902827439,
left,left,accuracy,,,,,0.0,0.0,0.0,0.0,3.0,1.0,7.0,0.0,163.78223429992795,,,,,,,,,163.76925499993376,164.1329562999308,164.93261949997395,164.91656469996087,164.91658959980123,164.93261949997395,164.93261949997395,164.93261949997395,166.90129889990203,left,1.0,23.451906400267035,,,,,,,,,,,,,,,,,,,,,,,,,,,,,,,,sub-061,1.0,random_dot,59.89081902827439,
right,right,accuracy,,,,,0.0,0.0,0.0,0.0,4.0,0.0,8.0,1.0,166.9160114999395,,,,,,,,,166.90219299984165,167.0170585999731,167.81680999998937,167.8017692998983,167.80180839984678,167.81680999998937,167.81680999998937,167.81680999998937,170.18334499979392,right,1.0,23.85618570027873,,,,,,,,,,,,,,,,,,,,,,,,,,,,,,,,sub-061,1.0,random_dot,59.89081902827439,
left,left,accuracy,,,,,0.0,0.0,0.0,0.0,4.0,1.0,9.0,0.0,170.19939469988458,,,,,,,,,170.18411029991694,170.53378719999455,171.33341709990054,171.31778969988227,171.31782879983075,171.33341709990054,171.33341709990054,171.33341709990054,173.36713579995558,left,1.0,23.51715560001321,,,,,,,,,,,,,,,,,,,,,,,,,,,,,,,,sub-061,1.0,random_dot,59.89081902827439,
left,left,accuracy,,,,,0.0,0.0,0.0,0.0,5.0,0.0,10.0,0.0,173.3833631998859,,,,,,,,,173.3680766997859,174.58220259984955,175.3984086997807,175.38184159994125,175.3818642999977,175.3984086997807,175.3984086997807,175.3984086997807,177.96768159978092,left,1.0,24.053942600032315,,,,,,,,,,,,,,,,,,,,,,,,,,,,,,,,sub-061,1.0,random_dot,59.89081902827439,
right,right,accuracy,,,,,0.0,0.0,0.0,0.0,5.0,1.0,11.0,1.0,177.98319599987008,,,,,,,,,177.9686477999203,178.78303919988684,179.5833788998425,179.5681241999846,179.56815969990566,179.5833788998425,179.5833788998425,179.5833788998425,181.984429899836,right,1.0,23.894081400241703,,,,,,,,,,,,,,,,,,,,,,,,,,,,,,,,sub-061,1.0,random_dot,59.89081902827439,
left,left,accuracy,,,,,0.0,0.0,0.0,0.0,6.0,0.0,12.0,0.0,181.99855299992487,,,,,,,,,181.98570599989037,182.79982479987663,183.59870989993212,183.58451999980025,183.58456379990093,183.59870989993212,183.59870989993212,183.59870989993212,187.3843365998473,left,1.0,25.27610979997553,,,,,,,,,,,,,,,,,,,,,,,,,,,,,,,,sub-061,1.0,random_dot,59.89081902827439,
right,right,accuracy,,,,,0.0,0.0,0.0,0.0,6.0,1.0,13.0,1.0,187.39998209988696,,,,,,,,,187.38552689994685,188.60020859981887,189.4166098998394,189.39995249989445,189.3999814998824,189.4166098998394,189.4166098998394,189.4166098998394,191.43305639992468,right,1.0,23.51155590009876,,,,,,,,,,,,,,,,,,,,,,,,,,,,,,,,sub-061,1.0,random_dot,59.89081902827439,
left,left,accuracy,,,,,0.0,0.0,0.0,0.0,7.0,0.0,14.0,0.0,191.44828179990876,,,,,,,,,191.433806899935,192.64755349978805,193.44888969999735,193.434078599792,193.4341134999413,193.44888969999735,193.44888969999735,193.44888969999735,194.99974919995293,left,1.0,23.03558690007776,,,,,,,,,,,,,,,,,,,,,,,,,,,,,,,,sub-061,1.0,random_dot,59.89081902827439,
right,right,accuracy,,,,,0.0,0.0,0.0,0.0,7.0,1.0,15.0,1.0,195.01530539989471,,,,,,,,,195.00059419986792,195.10003789979964,195.90013089985587,195.8845181998331,195.8845611999277,195.90013089985587,195.90013089985587,195.90013089985587,196.86836580000815,right,1.0,22.454657400259748,,,,,,,,,,,,,,,,,,,,,,,,,,,,,,,,sub-061,1.0,random_dot,59.89081902827439,
left,left,accuracy,,,,,0.0,0.0,0.0,0.0,8.0,0.0,16.0,0.0,196.8830628998112,,,,,,,,,196.86984009994197,197.68347849999557,198.4825895999093,198.46799229993485,198.4680262999609,198.4825895999093,198.4825895999093,198.4825895999093,199.0524455998093,left,1.0,22.062530199997127,,,,,,,,,,,,,,,,,,,,,,,,,,,,,,,,sub-061,1.0,random_dot,59.89081902827439,
right,right,accuracy,,,,,0.0,0.0,0.0,0.0,8.0,1.0,17.0,1.0,199.0660695999395,,,,,,,,,199.05367759987712,199.4155687999446,200.21581719978712,200.20077309990305,200.2008059998043,200.21581719978712,200.21581719978712,200.21581719978712,201.9356624998618,right,1.0,23.20955689996481,,,,,,,,,,,,,,,,,,,,,,,,,,,,,,,,sub-061,1.0,random_dot,59.89081902827439,
right,right,accuracy,,,,,0.0,0.0,0.0,0.0,9.0,0.0,18.0,1.0,201.9491704998072,,,,,,,,,201.9370372998528,202.0498945999425,202.8497023999225,202.83402949990705,202.8340742997825,202.8497023999225,202.8497023999225,202.8497023999225,204.76739719999023,right,1.0,23.40519200009294,,,,,,,,,,,,,,,,,,,,,,,,,,,,,,,,sub-061,1.0,random_dot,59.89081902827439,
left,left,accuracy,,,,,0.0,0.0,0.0,0.0,9.0,1.0,19.0,0.0,204.78264349978417,,,,,,,,,204.76837999979037,205.5828493000008,206.3992958997842,206.38433809997517,206.3843782998156,206.3992958997842,206.3992958997842,206.3992958997842,208.10019039991312,left,1.0,23.18373170006089,,,,,,,,,,,,,,,,,,,,,,,,,,,,,,,,sub-061,1.0,random_dot,59.89081902827439,
left,left,accuracy,,,,,0.0,0.0,0.0,0.0,10.0,0.0,20.0,0.0,208.1158873999957,,,,,,,,,208.1011168998666,209.3161832999904,210.11554829985835,210.10092219989747,210.10095949983224,210.11554829985835,210.11554829985835,210.11554829985835,213.89929329999725,left,1.0,25.275984999956563,,,,,,,,,,,,,,,,,,,,,,,,,,,,,,,,sub-061,1.0,random_dot,59.89081902827439,
right,right,accuracy,,,,,0.0,0.0,0.0,0.0,10.0,1.0,21.0,1.0,213.914050999796,,,,,,,,,213.8999971000012,214.26572349993512,215.06591679994017,215.0509076998569,215.05094229988757,215.06591679994017,215.06591679994017,215.06591679994017,217.0352741999086,right,1.0,23.459260700037703,,,,,,,,,,,,,,,,,,,,,,,,,,,,,,,,sub-061,1.0,random_dot,59.89081902827439,
left,left,accuracy,,,,,0.0,0.0,0.0,0.0,11.0,0.0,22.0,0.0,217.04954769997855,,,,,,,,,217.03672319999896,217.8498466999736,218.64971549995244,218.6335023997817,218.63354159984735,218.64971549995244,218.64971549995244,218.64971549995244,221.6507838999387,left,1.0,24.49232260021381,,,,,,,,,,,,,,,,,,,,,,,,,,,,,,,,sub-061,1.0,random_dot,59.89081902827439,
right,right,accuracy,,,,,0.0,0.0,0.0,0.0,11.0,1.0,23.0,1.0,221.66570079978555,,,,,,,,,221.65201119985431,222.86582499998624,223.66635189997032,223.65114749991332,223.65119050000797,223.66635189997032,223.66635189997032,223.66635189997032,226.04848150000907,right,1.0,23.8667689000722,,,,,,,,,,,,,,,,,,,,,,,,,,,,,,,,sub-061,1.0,random_dot,59.89081902827439,
left,left,accuracy,,,,,0.0,0.0,0.0,0.0,12.0,0.0,24.0,0.0,226.0638563998509,,,,,,,,,226.04926289990544,227.24938479997215,228.0478251997847,228.0338227998,228.03385809995237,228.0478251997847,228.0478251997847,228.0478251997847,230.46629169979133,right,0.0,23.90094770002179,,,,,,,,,,,,,,,,,,,,,,,,,,,,,,,,sub-061,1.0,random_dot,59.89081902827439,
right,right,accuracy,,,,,0.0,0.0,0.0,0.0,12.0,1.0,25.0,1.0,230.48273169994357,,,,,,,,,230.4673799998127,230.83262589992955,231.6326209998224,231.61764039983973,231.617680599913,231.6326209998224,231.6326209998224,231.6326209998224,233.6164060998708,right,1.0,23.47178789996542,,,,,,,,,,,,,,,,,,,,,,,,,,,,,,,,sub-061,1.0,random_dot,59.89081902827439,
left,left,accuracy,,,,,0.0,0.0,0.0,0.0,13.0,0.0,26.0,0.0,233.63172159995884,,,,,,,,,233.6174970997963,234.83246519998647,235.6319016998168,235.61695749987848,235.6169898998924,235.6319016998168,235.6319016998168,235.6319016998168,238.13447949988768,left,1.0,23.9969864001032,,,,,,,,,,,,,,,,,,,,,,,,,,,,,,,,sub-061,1.0,random_dot,59.89081902827439,
right,right,accuracy,,,,,0.0,0.0,0.0,0.0,13.0,1.0,27.0,1.0,238.1489383999724,,,,,,,,,238.13590199989267,238.24797189980745,239.04904859978703,239.03339729993604,239.03343009995297,239.04904859978703,239.04904859978703,239.04904859978703,240.75205129990357,right,1.0,23.19750690017827,,,,,,,,,,,,,,,,,,,,,,,,,,,,,,,,sub-061,1.0,random_dot,59.89081902827439,
left,left,accuracy,,,,,0.0,0.0,0.0,0.0,14.0,0.0,28.0,0.0,240.76402639993464,,,,,,,,,240.75315839983523,241.11577779985964,241.9319321999792,241.9163816999644,241.91641149995849,241.9319321999792,241.9319321999792,241.9319321999792,244.6667535000015,left,1.0,24.23200699989684,,,,,,,,,,,,,,,,,,,,,,,,,,,,,,,,sub-061,1.0,random_dot,59.89081902827439,
right,right,accuracy,,,,,0.0,0.0,0.0,0.0,14.0,1.0,29.0,1.0,244.68166989996095,,,,,,,,,244.6676985998638,245.0313368998468,245.83266839990392,245.817106399918,245.81715039978732,245.83266839990392,245.83266839990392,245.83266839990392,248.1835932999384,right,1.0,23.834600300062448,,,,,,,,,,,,,,,,,,,,,,,,,,,,,,,,sub-061,1.0,random_dot,59.89081902827439,
right,right,accuracy,,,,,0.0,0.0,0.0,0.0,15.0,0.0,30.0,1.0,248.1993141998537,,,,,,,,,248.1848978998605,248.54804769996557,249.34903369983655,249.3333406997845,249.3333736998029,249.34903369983655,249.34903369983655,249.34903369983655,252.2003907999024,right,1.0,24.34060390014201,,,,,,,,,,,,,,,,,,,,,,,,,,,,,,,,sub-061,1.0,random_dot,59.89081902827439,
left,left,accuracy,,,,,0.0,0.0,0.0,0.0,15.0,1.0,31.0,0.0,252.21531369979493,,,,,,,,,252.20175569993444,252.56358209997416,253.36573979980312,253.349433099851,253.34946589986797,253.36573979980312,253.36573979980312,253.36573979980312,255.74944559996948,left,1.0,23.871254099998623,,,,,,,,,,,,,,,,,,,,,,,,,,,,,,,,sub-061,1.0,random_dot,59.89081902827439,
left,left,accuracy,,,,,0.0,0.0,0.0,0.0,16.0,0.0,32.0,0.0,255.7646218999289,,,,,,,,,255.7504687998444,255.865211899858,256.66506389994174,256.649177899817,256.6492102998309,256.66506389994174,256.66506389994174,256.66506389994174,258.2488977999892,left,1.0,23.075382800307125,,,,,,,,,,,,,,,,,,,,,,,,,,,,,,,,sub-061,1.0,random_dot,59.89081902827439,
right,right,accuracy,,,,,0.0,0.0,0.0,0.0,16.0,1.0,33.0,1.0,258.2648316998966,,,,,,,,,258.25003759982064,259.046948999865,259.8481925998349,259.83295369986445,259.832982899854,259.8481925998349,259.8481925998349,259.8481925998349,262.3502334000077,right,1.0,23.99275720026344,,,,,,,,,,,,,,,,,,,,,,,,,,,,,,,,sub-061,1.0,random_dot,59.89081902827439,
right,right,accuracy,,,,,0.0,0.0,0.0,0.0,17.0,0.0,34.0,1.0,262.36531459982507,,,,,,,,,262.3514838998672,262.46460059983656,263.2646098998375,263.24906149995513,263.2490912999492,263.2646098998375,263.2646098998375,263.2646098998375,266.64959619985893,right,1.0,24.873719400027767,,,,,,,,,,,,,,,,,,,,,,,,,,,,,,,,sub-061,1.0,random_dot,59.89081902827439,
left,left,accuracy,,,,,0.0,0.0,0.0,0.0,17.0,1.0,35.0,0.0,266.6653599999845,,,,,,,,,266.6508055999875,267.8653364998754,268.6644745999947,268.6496392998379,268.6496718998533,268.6644745999947,268.6644745999947,268.6644745999947,272.8489669999108,left,1.0,25.66777570010163,,,,,,,,,,,,,,,,,,,,,,,,,,,,,,,,sub-061,1.0,random_dot,59.89081902827439,
right,right,accuracy,,,,,0.0,0.0,0.0,0.0,18.0,0.0,36.0,1.0,272.8649993999861,,,,,,,,,272.8501650998369,273.6478780999314,274.44877349981107,274.4322907999158,274.43232319992967,274.44877349981107,274.44877349981107,274.44877349981107,276.1828931998461,right,1.0,23.220841200090945,,,,,,,,,,,,,,,,,,,,,,,,,,,,,,,,sub-061,1.0,random_dot,59.89081902827439,
left,left,accuracy,,,,,0.0,0.0,0.0,0.0,18.0,1.0,37.0,0.0,276.1981801998336,,,,,,,,,276.1840039999224,277.3975784999784,278.2129412998911,278.196477699792,278.19649619981647,278.2129412998911,278.2129412998911,278.2129412998911,280.63365469989367,left,1.0,23.91468460019678,,,,,,,,,,,,,,,,,,,,,,,,,,,,,,,,sub-061,1.0,random_dot,59.89081902827439,
left,left,accuracy,,,,,0.0,0.0,0.0,0.0,19.0,0.0,38.0,0.0,280.6476143999025,,,,,,,,,280.6349729998037,280.9986272999085,281.7978174998425,281.7821317999624,281.78216289984994,281.7978174998425,281.7978174998425,281.7978174998425,286.6492571998388,left,1.0,26.338633500039577,,,,,,,,,,,,,,,,,,,,,,,,,,,,,,,,sub-061,1.0,random_dot,59.89081902827439,
right,right,accuracy,,,,,0.0,0.0,0.0,0.0,19.0,1.0,39.0,1.0,286.6640825998038,,,,,,,,,286.6503243998159,287.86465679993853,288.6641112999059,288.64942079992034,288.6494616998825,288.6641112999059,288.6641112999059,288.6641112999059,290.26657739980146,right,1.0,23.08720470010303,,,,,,,,,,,,,,,,,,,,,,,,,,,,,,,,sub-061,1.0,random_dot,59.89081902827439,
right,right,accuracy,,,,,0.0,0.0,0.0,0.0,20.0,0.0,40.0,1.0,290.28114069998264,,,,,,,,,290.2679777999874,291.48144599981606,292.2809152998961,292.2658647999633,292.2658976998646,292.2809152998961,292.2809152998961,292.2809152998961,294.5839662000071,right,1.0,23.79279510001652,,,,,,,,,,,,,,,,,,,,,,,,,,,,,,,,sub-061,1.0,random_dot,59.89081902827439,
left,left,accuracy,,,,,0.0,0.0,0.0,0.0,20.0,1.0,41.0,0.0,294.5974028999917,,,,,,,,,294.58534669992514,294.94826879980974,295.74824259988964,295.73284909990616,295.7328869998455,295.74824259988964,295.74824259988964,295.74824259988964,297.56593289994635,left,1.0,23.30586860026233,,,,,,,,,,,,,,,,,,,,,,,,,,,,,,,,sub-061,1.0,random_dot,59.89081902827439,
right,right,accuracy,,,,,0.0,0.0,0.0,0.0,21.0,0.0,42.0,1.0,297.5793303998653,,,,,,,,,297.5670902999118,298.781457999954,299.5807387998793,299.56511069997214,299.5651431998704,299.5807387998793,299.5807387998793,299.5807387998793,301.11549529992044,right,1.0,23.025805399985984,,,,,,,,,,,,,,,,,,,,,,,,,,,,,,,,sub-061,1.0,random_dot,59.89081902827439,
left,left,accuracy,,,,,0.0,0.0,0.0,0.0,21.0,1.0,43.0,0.0,301.13072989997454,,,,,,,,,301.11653149989434,301.4813297998626,302.2808253997937,302.2653240999207,302.26535989996046,302.2808253997937,302.2808253997937,302.2808253997937,304.99993129982613,left,1.0,24.20756349992007,,,,,,,,,,,,,,,,,,,,,,,,,,,,,,,,sub-061,1.0,random_dot,59.89081902827439,
left,left,accuracy,,,,,0.0,0.0,0.0,0.0,22.0,0.0,44.0,0.0,305.013431499945,,,,,,,,,305.00119419978,306.21275949990377,307.0141840998549,306.9992925999686,306.9993325998076,307.0141840998549,307.0141840998549,307.0141840998549,312.61620469996706,left,1.0,27.096688699908555,,,,,312.0139313999098,,,,,,,,,,,,,,,,,,,,,,,,,,,sub-061,1.0,random_dot,59.89081902827439,
right,right,accuracy,,,,,0.0,0.0,0.0,0.0,22.0,1.0,45.0,1.0,312.6308944998309,,,,,,,,,312.61762429983355,313.8302399998065,314.62982559995726,314.61349369981326,314.6135148999747,314.62982559995726,314.62982559995726,314.62982559995726,315.668095999863,right,1.0,22.527245099889114,,,,,,,,,,,,,,,,,,,,,,,,,,,,,,,,sub-061,1.0,random_dot,59.89081902827439,
left,left,accuracy,,,,,0.0,0.0,0.0,0.0,23.0,0.0,46.0,0.0,315.6808322998695,,,,,,,,,315.6694662999362,316.03027699980885,316.830526500009,316.81563719990663,316.8156822999008,316.830526500009,316.830526500009,316.830526500009,317.5159777000081,left,1.0,22.17557300021872,,,,,,,,,,,,,,,,,,,,,,,,,,,,,,,,sub-061,1.0,random_dot,59.89081902827439,
right,right,accuracy,,,,,0.0,0.0,0.0,0.0,23.0,1.0,47.0,1.0,317.5299904998392,,,,,,,,,317.51719039981253,317.6302141000051,318.4310971999075,318.4157600000035,318.4158026999794,318.4310971999075,318.4310971999075,318.4310971999075,320.3329727000091,right,1.0,23.396248700097203,,,,,,,,,,,,,,,,,,,,,,,,,,,,,,,,sub-061,1.0,random_dot,59.89081902827439,
right,right,accuracy,,,,,0.0,0.0,0.0,0.0,24.0,0.0,48.0,1.0,320.346954099834,,,,,,,,,320.33448949991725,320.6969894999638,321.49726229999214,321.4824745999649,321.48251379979774,321.49726229999214,321.49726229999214,321.49726229999214,322.66683579981327,right,1.0,22.660393400117755,,,,,,,,,,,,,,,,,,,,,,,,,,,,,,,,sub-061,1.0,random_dot,59.89081902827439,
left,left,accuracy,,,,,0.0,0.0,0.0,0.0,24.0,1.0,49.0,0.0,322.6804747998249,,,,,,,,,322.6682965999935,323.031175899785,323.8306099998299,323.81517249997705,323.8152027998585,323.8306099998299,323.8306099998299,323.8306099998299,324.83159849978983,left,1.0,22.487312200013548,,,,,,,,,,,,,,,,,,,,,,,,,,,,,,,,sub-061,1.0,random_dot,59.89081902827439,
right,right,accuracy,,,,,0.0,0.0,0.0,0.0,25.0,0.0,50.0,1.0,324.845906799892,,,,,,,,,324.8325905997772,325.19687469978817,325.9967308999039,325.98110499978065,325.9811407998204,325.9967308999039,325.9967308999039,325.9967308999039,326.8995421999134,right,1.0,22.395787000190467,,,,,,,,,,,,,,,,,,,,,,,,,,,,,,,,sub-061,1.0,random_dot,59.89081902827439,
left,left,accuracy,,,,,0.0,0.0,0.0,0.0,25.0,1.0,51.0,0.0,326.9138510997873,,,,,,,,,326.9008292998187,327.2638877998106,328.0634395999368,328.0484411998186,328.0484756999649,328.0634395999368,328.0634395999368,328.0634395999368,330.29848179989494,left,1.0,23.73012110008858,,,,,,,,,,,,,,,,,,,,,,,,,,,,,,,,sub-061,1.0,random_dot,59.89081902827439,
left,left,accuracy,,,,,0.0,0.0,0.0,0.0,26.0,0.0,52.0,0.0,330.3123133999761,,,,,,,,,330.2994866999797,330.4137511998415,331.2141422999557,331.1982238998171,331.1982539999299,331.2141422999557,331.2141422999557,331.2141422999557,335.83175819995813,left,1.0,26.111743700224903,,,,,,,,,,,,,,,,,,,,,,,,,,,,,,,,sub-061,1.0,random_dot,59.89081902827439,
right,right,accuracy,,,,,0.0,0.0,0.0,0.0,26.0,1.0,53.0,1.0,335.8466215999797,,,,,,,,,335.8330880999565,335.9472511999775,336.7635250999592,336.7474508997984,336.74748039990664,336.7635250999592,336.7635250999592,336.7635250999592,337.5473129998427,right,1.0,22.26694290013984,,,,,,,,,,,,,,,,,,,,,,,,,,,,,,,,sub-061,1.0,random_dot,59.89081902827439,
right,right,accuracy,,,,,0.0,0.0,0.0,0.0,27.0,0.0,54.0,1.0,337.5619689999148,,,,,,,,,337.5480933999643,337.66380799980834,338.46405239985324,338.44894019979984,338.44898290000856,338.46405239985324,338.46405239985324,338.46405239985324,340.1472073998302,right,1.0,23.17088200012222,,,,,,,,,,,,,,,,,,,,,,,,,,,,,,,,sub-061,1.0,random_dot,59.89081902827439,
left,left,accuracy,,,,,0.0,0.0,0.0,0.0,27.0,1.0,55.0,0.0,340.16186489979737,,,,,,,,,340.14829529984854,340.2634327998385,341.06239069998264,341.04818449984305,341.0482123999391,341.06239069998264,341.06239069998264,341.06239069998264,342.3149762998801,right,0.0,22.748587399953976,,,,,,,,,,,,,,,,,,,,,,,,,,,,,,,,sub-061,1.0,random_dot,59.89081902827439,
right,right,accuracy,,,,,0.0,0.0,0.0,0.0,28.0,0.0,56.0,1.0,342.32955819997005,,,,,,,,,342.3160420998465,342.4302289998159,343.23057769984007,343.21524569997564,343.2152891999576,343.23057769984007,343.23057769984007,343.23057769984007,344.36501169996336,right,1.0,22.620832900051028,,,,,,,,,,,,,,,,,,,,,,,,,,,,,,,,sub-061,1.0,random_dot,59.89081902827439,
left,left,accuracy,,,,,0.0,0.0,0.0,0.0,28.0,1.0,57.0,0.0,344.3796905998606,,,,,,,,,344.366102400003,345.1786861999426,345.9789748999756,345.9643336997833,345.9643625998869,345.9789748999756,345.9789748999756,345.9789748999756,348.3658135998994,left,1.0,23.881402000086386,,,,,,,,,,,,,,,,,,,,,,,,,,,,,,,,sub-061,1.0,random_dot,59.89081902827439,
right,right,accuracy,,,,,0.0,0.0,0.0,0.0,29.0,0.0,58.0,1.0,348.38001799979247,,,,,,,,,348.3670239998028,349.5805732998997,350.37943619978614,350.36493769986555,350.3649730999023,350.37943619978614,350.37943619978614,350.37943619978614,352.88262509997,right,1.0,23.999372500227764,,,,,,,,,,,,,,,,,,,,,,,,,,,,,,,,sub-061,1.0,random_dot,59.89081902827439,
left,left,accuracy,,,,,0.0,0.0,0.0,0.0,29.0,1.0,59.0,0.0,352.8960975999944,,,,,,,,,352.8841943999287,353.2468591998331,354.06152629991993,354.04735219990835,354.04737599985674,354.06152629991993,354.06152629991993,354.06152629991993,357.58223369996995,left,1.0,25.005663100164384,,,,,,,,,,,,,,,,,,,,,,,,,,,,,,,,sub-061,1.0,random_dot,59.89081902827439,
,,accuracy,,,,,0.0,0.0,0.0,0.0,,,,,,,,,,,,,,,,,,,,,,,,,,,,,,,,,,,,,,,,,,,,,,,,,,,,,,,,,sub-061,1.0,random_dot,59.89081902827439,
left,left,speed,,,,,0.0,1.0,1.0,1.0,0.0,0.0,0.0,0.0,359.7781918998808,,,,,,,,,359.7711163999047,359.8793658998329,360.6802217999939,360.66465689986944,360.6646957998164,360.6802217999939,360.6802217999939,360.6802217999939,361.3654212998226,left,1.0,22.18005500012077,,,,,,,,,,,,,,,,,,,,,357.5837068997789,357.61397239984944,357.61397239984944,359.763247899944,space,23.631852800026536,,,,,,sub-061,1.0,random_dot,59.89081902827439,
right,right,speed,,,,,0.0,1.0,1.0,1.0,0.0,1.0,1.0,1.0,361.3790200999938,,,,,,,,,361.36715829977766,362.5796146998182,363.37832679995336,363.3637864999473,363.3638166999445,363.37832679995336,363.37832679995336,363.37832679995336,363.8963375999592,right,1.0,22.005464000161737,,,,,,,,,,,,,,,,,,,,,,,,,,,,,,,,sub-061,1.0,random_dot,59.89081902827439,
right,right,speed,,,,,0.0,1.0,1.0,1.0,1.0,0.0,2.0,1.0,363.91098319995217,,,,,,,,,363.8971541998908,365.096470199991,365.8955563998316,365.8811808999162,365.88121829996817,365.8955563998316,365.8955563998316,365.8955563998316,367.21444849995896,right,1.0,22.80433880002238,,,,,,,,,,,,,,,,,,,,,,,,,,,,,,,,sub-061,1.0,random_dot,59.89081902827439,
left,left,speed,,,,,0.0,1.0,1.0,1.0,1.0,1.0,3.0,0.0,367.2297804998234,,,,,,,,,367.2155881999061,367.33035449986346,368.1465521999635,368.1309534998145,368.13099599978887,368.1465521999635,368.1465521999635,368.1465521999635,369.7657025000081,left,1.0,23.11329250014387,,,,,,,,,,,,,,,,,,,,,,,,,,,,,,,,sub-061,1.0,random_dot,59.89081902827439,
right,right,speed,,,,,0.0,1.0,1.0,1.0,2.0,0.0,4.0,1.0,369.7795510999858,,,,,,,,,369.7671949998476,370.130275500007,370.9300733997952,370.9144660998136,370.914506000001,370.9300733997952,370.9300733997952,370.9300733997952,372.4967505999375,right,1.0,23.05100390012376,,,,,,,,,,,,,,,,,,,,,,,,,,,,,,,,sub-061,1.0,random_dot,59.89081902827439,
left,left,speed,,,,,0.0,1.0,1.0,1.0,2.0,1.0,5.0,0.0,372.5125006998424,,,,,,,,,372.4976038997993,373.311314099934,374.1110457999166,374.0963755999692,374.0963953998871,374.1110457999166,374.1110457999166,374.1110457999166,375.1495555997826,left,1.0,22.519398900214583,,,,,,,,,,,,,,,,,,,,,,,,,,,,,,,,sub-061,1.0,random_dot,59.89081902827439,
right,right,speed,,,,,0.0,1.0,1.0,1.0,3.0,0.0,6.0,1.0,375.1635286000092,,,,,,,,,375.1510111999232,375.26315009989776,376.0623491997831,376.0467639998533,376.0467999998946,376.0623491997831,376.0623491997831,376.0623491997831,378.0485025998205,left,0.0,23.477523500099775,,,,,,,,,,,,,,,,,,,,,,,,,,,,,,,,sub-061,1.0,random_dot,59.89081902827439,
left,left,speed,,,,,0.0,1.0,1.0,1.0,3.0,1.0,7.0,0.0,378.06290809996426,,,,,,,,,378.049865799956,379.2630948999431,380.0619584999513,380.0464784998912,380.0464987999294,380.0619584999513,380.0619584999513,380.0619584999513,381.4631266999058,left,1.0,22.891482500126585,,,,,,,,,,,,,,,,,,,,,,,,,,,,,,,,sub-061,1.0,random_dot,59.89081902827439,
left,left,speed,,,,,0.0,1.0,1.0,1.0,4.0,0.0,8.0,0.0,381.47887089988217,,,,,,,,,381.4641821999103,382.2630903997924,383.06294069997966,383.0467767999508,383.04680839995854,383.06294069997966,383.06294069997966,383.06294069997966,384.0964910998009,left,1.0,22.522454200079665,,,,,,,,,,,,,,,,,,,,,,,,,,,,,,,,sub-061,1.0,random_dot,59.89081902827439,
right,right,speed,,,,,0.0,1.0,1.0,1.0,4.0,1.0,9.0,1.0,384.11043099989183,,,,,,,,,384.0974716998171,384.4607330998406,385.26078299991786,385.2454105999786,385.2454305998981,385.26078299991786,385.26078299991786,385.26078299991786,385.9619823999237,right,1.0,22.1979697002098,,,,,,,,,,,,,,,,,,,,,,,,,,,,,,,,sub-061,1.0,random_dot,59.89081902827439,
left,left,speed,,,,,0.0,1.0,1.0,1.0,5.0,0.0,10.0,0.0,385.9773510999512,,,,,,,,,385.9627512998413,386.7788310998585,387.5947874998674,387.5787066000048,387.5787331999745,387.5947874998674,387.5947874998674,387.5947874998674,388.8288755998947,right,0.0,22.716966800158843,,,,,,,,,,,,,,,,,,,,,,,,,,,,,,,,sub-061,1.0,random_dot,59.89081902827439,
right,right,speed,,,,,0.0,1.0,1.0,1.0,5.0,1.0,11.0,1.0,388.8445025999099,,,,,,,,,388.8296506998595,388.9300334998407,389.72890260000713,389.71433699992485,389.7143806999084,389.72890260000713,389.72890260000713,389.72890260000713,391.0322144997772,right,1.0,22.795392600120977,,,,,,,,,,,,,,,,,,,,,,,,,,,,,,,,sub-061,1.0,random_dot,59.89081902827439,
right,right,speed,,,,,0.0,1.0,1.0,1.0,6.0,0.0,12.0,1.0,391.04549920000136,,,,,,,,,391.03384429984726,391.39645289978944,392.2117524999194,392.1972099998966,392.1972430997994,392.2117524999194,392.2117524999194,392.2117524999194,393.4475626999047,left,0.0,22.732440100051463,,,,,,,,,,,,,,,,,,,,,,,,,,,,,,,,sub-061,1.0,random_dot,59.89081902827439,
left,left,speed,,,,,0.0,1.0,1.0,1.0,6.0,1.0,13.0,0.0,393.46074169990607,,,,,,,,,393.4483304999303,393.81218599993736,394.6113376999274,394.5965203999076,394.5965465998743,394.6113376999274,394.6113376999274,394.6113376999274,395.3137230998837,left,1.0,22.195956700248644,,,,,,,,,,,,,,,,,,,,,,,,,,,,,,,,sub-061,1.0,random_dot,59.89081902827439,
right,right,speed,,,,,0.0,1.0,1.0,1.0,7.0,0.0,14.0,1.0,395.3290482999291,,,,,,,,,395.3145164998714,395.4295278999489,396.2284236999694,396.2133979999926,396.2134227999486,396.2284236999694,396.2284236999694,396.2284236999694,397.19814459979534,right,1.0,22.4523116000928,,,,,,,,,,,,,,,,,,,,,,,,,,,,,,,,sub-061,1.0,random_dot,59.89081902827439,
left,left,speed,,,,,0.0,1.0,1.0,1.0,7.0,1.0,15.0,0.0,397.2128348997794,,,,,,,,,397.1995892999694,397.3126509999856,398.1127557998989,398.0973518998362,398.09738439996727,398.1127557998989,398.1127557998989,398.1127557998989,398.71524910000153,left,1.0,22.091494200285524,,,,,,,,,,,,,,,,,,,,,,,,,,,,,,,,sub-061,1.0,random_dot,59.89081902827439,
right,right,speed,,,,,0.0,1.0,1.0,1.0,8.0,0.0,16.0,1.0,398.729114699876,,,,,,,,,398.7166561000049,399.5285664999392,400.32927619991824,400.3137462998274,400.3137792998459,400.32927619991824,400.32927619991824,400.32927619991824,401.2118750999216,right,1.0,22.3684972000774,,,,,,,,,,,,,,,,,,,,,,,,,,,,,,,,sub-061,1.0,random_dot,59.89081902827439,
left,left,speed,,,,,0.0,1.0,1.0,1.0,8.0,1.0,17.0,0.0,401.22889469983056,,,,,,,,,401.2127301997971,402.4268253999762,403.2297775999177,403.2145253999624,403.2145607999992,403.2297775999177,403.2297775999177,403.2297775999177,405.7309514998924,left,1.0,23.9835363002494,,,,,,,,,,,,,,,,,,,,,,,,,,,,,,,,sub-061,1.0,random_dot,59.89081902827439,
right,right,speed,,,,,0.0,1.0,1.0,1.0,9.0,0.0,18.0,1.0,405.7459260998294,,,,,,,,,405.7322840997949,406.09365459997207,406.8951116998214,406.8802820998244,406.8803152998444,406.8951116998214,406.8951116998214,406.8951116998214,408.37897049984895,right,1.0,22.97082590009086,,,,,,,,,,,,,,,,,,,,,,,,,,,,,,,,sub-061,1.0,random_dot,59.89081902827439,
left,left,speed,,,,,0.0,1.0,1.0,1.0,9.0,1.0,19.0,0.0,408.3937434998807,,,,,,,,,408.379843799863,408.4959148999769,409.3107589997817,409.2946033999324,409.294623499969,409.3107589997817,409.3107589997817,409.3107589997817,411.2983186999336,left,1.0,23.482277400093157,,,,,,,,,,,,,,,,,,,,,,,,,,,,,,,,sub-061,1.0,random_dot,59.89081902827439,
right,right,speed,,,,,0.0,1.0,1.0,1.0,10.0,0.0,20.0,1.0,411.3122521999758,,,,,,,,,411.29957379982807,411.66234899987467,412.478937599808,412.4627912999131,412.4628245998174,412.478937599808,412.478937599808,412.478937599808,413.5644171999302,right,1.0,22.57804080005735,,,,,,,,,,,,,,,,,,,,,,,,,,,,,,,,sub-061,1.0,random_dot,59.89081902827439,
left,left,speed,,,,,0.0,1.0,1.0,1.0,10.0,1.0,21.0,0.0,413.58121299999766,,,,,,,,,413.5661824999843,414.3792292999569,415.1785611999221,415.1632930999622,415.1633277998772,415.1785611999221,415.1785611999221,415.1785611999221,416.2620723999571,left,1.0,22.56921030022204,,,,,,,,,,,,,,,,,,,,,,,,,,,,,,,,sub-061,1.0,random_dot,59.89081902827439,
right,right,speed,,,,,0.0,1.0,1.0,1.0,11.0,0.0,22.0,1.0,416.27865319978446,,,,,,,,,416.2629061997868,416.36232999991626,417.1624989998527,417.147538599791,417.14757809997536,417.1624989998527,417.1624989998527,417.1624989998527,417.7800997998565,left,0.0,22.10042420006357,,,,,,,,,,,,,,,,,,,,,,,,,,,,,,,,sub-061,1.0,random_dot,59.89081902827439,
left,left,speed,,,,,0.0,1.0,1.0,1.0,11.0,1.0,23.0,0.0,417.7962192997802,,,,,,,,,417.7811042999383,418.5954093998298,419.39557199995033,419.3797159998212,419.3797541998792,419.39557199995033,419.39557199995033,419.39557199995033,420.4967423998751,left,1.0,22.585207999916747,,,,,,,,,,,,,,,,,,,,,,,,,,,,,,,,sub-061,1.0,random_dot,59.89081902827439,
left,left,speed,,,,,0.0,1.0,1.0,1.0,12.0,0.0,24.0,0.0,420.5117571998853,,,,,,,,,420.4978708999697,421.3118811999448,422.1122318999842,422.0966794998385,422.0967247998342,422.1122318999842,422.1122318999842,422.1122318999842,422.97896689991467,left,1.0,22.3574064001441,,,,,,,,,,,,,,,,,,,,,,,,,,,,,,,,sub-061,1.0,random_dot,59.89081902827439,
right,right,speed,,,,,0.0,1.0,1.0,1.0,12.0,1.0,25.0,1.0,422.9952349998057,,,,,,,,,422.97987189982086,423.3288399998564,424.1451193999965,424.1298849999439,424.1299420997966,424.1451193999965,424.1451193999965,424.1451193999965,424.91401709988713,right,1.0,22.25803779996932,,,,,,,,,,,,,,,,,,,,,,,,,,,,,,,,sub-061,1.0,random_dot,59.89081902827439,
right,right,speed,,,,,0.0,1.0,1.0,1.0,13.0,0.0,26.0,1.0,424.9296433997806,,,,,,,,,424.91528659989126,425.27819739980623,426.07971729990095,426.0640587999951,426.0641168998554,426.07971729990095,426.07971729990095,426.07971729990095,426.7974458998069,right,1.0,22.20431850012392,,,,,,,,,,,,,,,,,,,,,,,,,,,,,,,,sub-061,1.0,random_dot,59.89081902827439,
left,left,speed,,,,,0.0,1.0,1.0,1.0,13.0,1.0,27.0,0.0,426.81274249986745,,,,,,,,,426.7988328000065,426.9120562998578,427.7119662999176,427.6967527999077,427.6967900998425,427.7119662999176,427.7119662999176,427.7119662999176,428.3979376999196,left,1.0,22.176925800042227,,,,,,,,,,,,,,,,,,,,,,,,,,,,,,,,sub-061,1.0,random_dot,59.89081902827439,
right,right,speed,,,,,0.0,1.0,1.0,1.0,14.0,0.0,28.0,1.0,428.411550699966,,,,,,,,,428.39913849998266,429.6145150999073,430.4286714999471,430.4135123000015,430.4135969998315,430.4286714999471,430.4286714999471,430.4286714999471,431.4626551999245,right,1.0,22.51939620007761,,,,,,,,,,,,,,,,,,,,,,,,,,,,,,,,sub-061,1.0,random_dot,59.89081902827439,
left,left,speed,,,,,0.0,1.0,1.0,1.0,14.0,1.0,29.0,0.0,431.47843889985234,,,,,,,,,431.4636180999223,432.2770227999426,433.07823759992607,433.0634340997785,433.06347759999335,433.07823759992607,433.07823759992607,433.07823759992607,435.3967040998396,left,1.0,23.80252719996497,,,,,,,,,,,,,,,,,,,,,,,,,,,,,,,,sub-061,1.0,random_dot,59.89081902827439,
right,right,speed,,,,,0.0,1.0,1.0,1.0,15.0,0.0,30.0,1.0,435.4121796998661,,,,,,,,,435.39813509979285,436.2115797998849,437.01208289992064,436.9966475998517,436.9966783998534,437.01208289992064,437.01208289992064,437.01208289992064,437.9976281998679,right,1.0,22.47879660013132,,,,,,,,,,,,,,,,,,,,,,,,,,,,,,,,sub-061,1.0,random_dot,59.89081902827439,
left,left,speed,,,,,0.0,1.0,1.0,1.0,15.0,1.0,31.0,0.0,438.0118245999329,,,,,,,,,437.9990284999367,438.3620367997792,439.1616637997795,439.1459095999599,439.1459422998596,439.1616637997795,439.1616637997795,439.1616637997795,440.3805048998911,left,1.0,22.70076430006884,,,,,,,,,,,,,,,,,,,,,,,,,,,,,,,,sub-061,1.0,random_dot,59.89081902827439,
left,left,speed,,,,,0.0,1.0,1.0,1.0,16.0,0.0,32.0,0.0,440.3952385999728,,,,,,,,,440.3817276000045,440.49551329994574,441.2954666998703,441.2796910998877,441.2797398997936,441.2954666998703,441.2954666998703,441.2954666998703,442.5965255999472,left,1.0,22.78624920011498,,,,,,,,,,,,,,,,,,,,,,,,,,,,,,,,sub-061,1.0,random_dot,59.89081902827439,
right,right,speed,,,,,0.0,1.0,1.0,1.0,16.0,1.0,33.0,1.0,442.6114303998184,,,,,,,,,442.597844599979,443.811441199854,444.611209299881,444.5964202999603,444.5964517998509,444.611209299881,444.611209299881,444.611209299881,445.61120629985817,right,1.0,22.485539300134405,,,,,,,,,,,,,,,,,,,,,,,,,,,,,,,,sub-061,1.0,random_dot,59.89081902827439,
left,left,speed,,,,,0.0,1.0,1.0,1.0,17.0,0.0,34.0,0.0,445.6278274999932,,,,,,,,,445.6120008998551,446.8115404997952,447.6110355998389,447.59582449984737,447.59586569992825,447.6110355998389,447.6110355998389,447.6110355998389,448.7638172998559,left,1.0,22.642996800132096,,,,,,,,,,,,,,,,,,,,,,,,,,,,,,,,sub-061,1.0,random_dot,59.89081902827439,
right,right,speed,,,,,0.0,1.0,1.0,1.0,17.0,1.0,35.0,1.0,448.7783462998923,,,,,,,,,448.7652362999506,448.8787760999985,449.69383859983645,449.6779952999205,449.6780151999556,449.69383859983645,449.69383859983645,449.69383859983645,450.6794284998905,right,1.0,22.477427000179887,,,,,,,,,,,,,,,,,,,,,,,,,,,,,,,,sub-061,1.0,random_dot,59.89081902827439,
left,left,speed,,,,,0.0,1.0,1.0,1.0,18.0,0.0,36.0,0.0,450.6938687998336,,,,,,,,,450.68042499991134,451.8946069998201,452.69478529994376,452.6798046999611,452.6798367998563,452.69478529994376,452.69478529994376,452.69478529994376,453.6471156999469,left,1.0,22.44086159998551,,,,,,,,,,,,,,,,,,,,,,,,,,,,,,,,sub-061,1.0,random_dot,59.89081902827439,
right,right,speed,,,,,0.0,1.0,1.0,1.0,18.0,1.0,37.0,1.0,453.6611442998983,,,,,,,,,453.64831339987,454.8619215998333,455.6612267999444,455.6458781999536,455.6459160998929,455.6612267999444,455.6612267999444,455.6612267999444,456.4633163998369,right,1.0,22.29285960015841,,,,,,,,,,,,,,,,,,,,,,,,,,,,,,,,sub-061,1.0,random_dot,59.89081902827439,
left,left,speed,,,,,0.0,1.0,1.0,1.0,19.0,0.0,38.0,0.0,456.4782203999348,,,,,,,,,456.4643393999431,457.6774243998807,458.4786236998625,458.4628405999392,458.4628802998923,458.4786236998625,458.4786236998625,458.4786236998625,459.580016199965,left,1.0,22.592223500134423,,,,,,,,,,,,,,,,,,,,,,,,,,,,,,,,sub-061,1.0,random_dot,59.89081902827439,
right,right,speed,,,,,0.0,1.0,1.0,1.0,19.0,1.0,39.0,1.0,459.5947751998901,,,,,,,,,459.58101559989154,460.7949206999037,461.595304499846,461.5794021999464,461.5794621999376,461.595304499846,461.595304499846,461.595304499846,462.5281451998744,right,1.0,22.41840140009299,,,,,,,,,,,,,,,,,,,,,,,,,,,,,,,,sub-061,1.0,random_dot,59.89081902827439,
left,left,speed,,,,,0.0,1.0,1.0,1.0,20.0,0.0,40.0,0.0,462.5436519999057,,,,,,,,,462.5289234998636,462.8783988999203,463.67820299998857,463.6623205000069,463.6623625999782,463.67820299998857,463.67820299998857,463.67820299998857,464.84529939992353,left,1.0,22.65100060007535,,,,,,,,,,,,,,,,,,,,,,,,,,,,,,,,sub-061,1.0,random_dot,59.89081902827439,
right,right,speed,,,,,0.0,1.0,1.0,1.0,20.0,1.0,41.0,1.0,464.8607609998435,,,,,,,,,464.8461075997912,465.6611214999575,466.4616174998228,466.4469746998511,466.44701399980113,466.4616174998228,466.4616174998228,466.4616174998228,467.72958939988166,right,1.0,22.7545368000865,,,,,,,,,,,,,,,,,,,,,,,,,,,,,,,,sub-061,1.0,random_dot,59.89081902827439,
right,right,speed,,,,,0.0,1.0,1.0,1.0,21.0,0.0,42.0,1.0,467.7440672998782,,,,,,,,,467.7306752000004,468.5443812999874,469.34475809987634,469.3291441998445,469.32917759986594,469.34475809987634,469.34475809987634,469.34475809987634,470.6638122999575,right,1.0,22.81034170021303,,,,,,,,,,,,,,,,,,,,,,,,,,,,,,,,sub-061,1.0,random_dot,59.89081902827439,
left,left,speed,,,,,0.0,1.0,1.0,1.0,21.0,1.0,43.0,0.0,470.6776550998911,,,,,,,,,470.6652503998485,471.8775325999595,472.67797689978033,472.6625713999383,472.66260589985177,472.67797689978033,472.67797689978033,472.67797689978033,473.5940749999136,left,1.0,22.405727500095963,,,,,,,,,,,,,,,,,,,,,,,,,,,,,,,,sub-061,1.0,random_dot,59.89081902827439,
left,left,speed,,,,,0.0,1.0,1.0,1.0,22.0,0.0,44.0,0.0,473.609555499861,,,,,,,,,473.5948538999073,474.39295719983056,475.1950801999774,475.1797138999682,475.1797489998862,475.1950801999774,475.1950801999774,475.1950801999774,476.2302006999962,left,1.0,22.52678740001284,,,,,,,,,,,,,,,,,,,,,,,,,,,,,,,,sub-061,1.0,random_dot,59.89081902827439,
right,right,speed,,,,,0.0,1.0,1.0,1.0,22.0,1.0,45.0,1.0,476.24500769982114,,,,,,,,,476.2321239998564,476.3449561998714,477.14439989998937,477.1292049998883,477.12924189982,477.14439989998937,477.14439989998937,477.14439989998937,479.0133153998759,right,1.0,23.364301200024784,,,,,,,,,,,,,,,,,,,,,,,,,,,,,,,,sub-061,1.0,random_dot,59.89081902827439,
right,right,speed,,,,,0.0,1.0,1.0,1.0,23.0,0.0,46.0,1.0,479.0278782998212,,,,,,,,,479.0148443998769,479.3778663999401,480.1775235999376,480.162152600009,480.16218809993006,480.1775235999376,480.1775235999376,480.1775235999376,481.1295016999357,right,1.0,22.44733120012097,,,,,,,,,,,,,,,,,,,,,,,,,,,,,,,,sub-061,1.0,random_dot,59.89081902827439,
left,left,speed,,,,,0.0,1.0,1.0,1.0,23.0,1.0,47.0,0.0,481.1443184998352,,,,,,,,,481.1305748999585,482.3445420998614,483.1441839998588,483.1292844999116,483.1293236999773,483.1441839998588,483.1441839998588,483.1441839998588,484.26228779996745,right,0.0,22.60727510019205,,,,,,,,,,,,,,,,,,,,,,,,,,,,,,,,sub-061,1.0,random_dot,59.89081902827439,
right,right,speed,,,,,0.0,1.0,1.0,1.0,24.0,0.0,48.0,1.0,484.2778562998865,,,,,,,,,484.2635393999517,485.4759004998487,486.2769216999877,486.26055639982224,486.2605854999274,486.2769216999877,486.2769216999877,486.2769216999877,487.079563499894,right,1.0,22.29055580007844,,,,,,,,,,,,,,,,,,,,,,,,,,,,,,,,sub-061,1.0,random_dot,59.89081902827439,
left,left,speed,,,,,0.0,1.0,1.0,1.0,24.0,1.0,49.0,0.0,487.09419969981536,,,,,,,,,487.08094279980287,487.1929198999424,487.9940067999996,487.9793677998241,487.9794097999111,487.9940067999996,487.9940067999996,487.9940067999996,489.0304507999681,left,1.0,22.53311900002882,,,,,,,,,,,,,,,,,,,,,,,,,,,,,,,,sub-061,1.0,random_dot,59.89081902827439,
left,left,speed,,,,,0.0,1.0,1.0,1.0,25.0,0.0,50.0,0.0,489.0438752998598,,,,,,,,,489.0316977999173,489.1448426998686,489.9612270998769,489.9457799999509,489.9458223998081,489.9612270998769,489.9612270998769,489.9612270998769,491.16253639990464,right,0.0,22.684007100062445,,,,,,,,,,,,,,,,,,,,,,,,,,,,,,,,sub-061,1.0,random_dot,59.89081902827439,
right,right,speed,,,,,0.0,1.0,1.0,1.0,25.0,1.0,51.0,1.0,491.1778378998861,,,,,,,,,491.1640245998278,491.9779581998009,492.7927298999857,492.7769050998613,492.7769454999361,492.7927298999857,492.7927298999857,492.7927298999857,493.54692269978113,right,1.0,22.24799899989739,,,,,,,,,,,,,,,,,,,,,,,,,,,,,,,,sub-061,1.0,random_dot,59.89081902827439,
left,left,speed,,,,,0.0,1.0,1.0,1.0,26.0,0.0,52.0,0.0,493.5600400997792,,,,,,,,,493.5480454999488,493.6604295999277,494.45961629995145,494.4447255998384,494.4447573998477,494.45961629995145,494.45961629995145,494.45961629995145,495.2465668998193,right,0.0,22.27752450015396,,,,,,,,,,,,,,,,,,,,,,,,,,,,,,,,sub-061,1.0,random_dot,59.89081902827439,
right,right,speed,,,,,0.0,1.0,1.0,1.0,26.0,1.0,53.0,1.0,495.2604939998128,,,,,,,,,495.2479749999475,496.06059069978073,496.85976649983786,496.84401729982346,496.8440407000016,496.85976649983786,496.85976649983786,496.85976649983786,497.61066819983535,right,1.0,22.247822900302708,,,,,,,,,,,,,,,,,,,,,,,,,,,,,,,,sub-061,1.0,random_dot,59.89081902827439,
right,right,speed,,,,,0.0,1.0,1.0,1.0,27.0,0.0,54.0,1.0,497.6265604998917,,,,,,,,,497.6115109999664,497.9605471999385,498.7590839997865,498.7445197999477,498.7445431998931,498.7590839997865,498.7590839997865,498.7590839997865,502.9292991999537,right,1.0,25.65810730028897,,,,,,,,,,,,,,,,,,,,,,,,,,,,,,,,sub-061,1.0,random_dot,59.89081902827439,
left,left,speed,,,,,0.0,1.0,1.0,1.0,27.0,1.0,55.0,0.0,502.9424270999152,,,,,,,,,502.9307078998536,503.0442663999274,503.8438118000049,503.82817219989374,503.82820759993047,503.8438118000049,503.8438118000049,503.8438118000049,504.5447586998344,left,1.0,22.197090599918734,,,,,,,,,,,,,,,,,,,,,,,,,,,,,,,,sub-061,1.0,random_dot,59.89081902827439,
left,left,speed,,,,,0.0,1.0,1.0,1.0,28.0,0.0,56.0,0.0,504.5602076000068,,,,,,,,,504.5458050998859,504.9105526998173,505.7106517998036,505.6951455997769,505.69518349994905,505.7106517998036,505.7106517998036,505.7106517998036,506.6299489999656,right,0.0,22.413952100090683,,,,,,,,,,,,,,,,,,,,,,,,,,,,,,,,sub-061,1.0,random_dot,59.89081902827439,
right,right,speed,,,,,0.0,1.0,1.0,1.0,28.0,1.0,57.0,1.0,506.6433826999273,,,,,,,,,506.63143999991007,507.84333169995807,508.6438317999709,508.6285529998131,508.6285902999807,508.6438317999709,508.6438317999709,508.6438317999709,509.3433069998864,right,1.0,22.19454140006565,,,,,,,,,,,,,,,,,,,,,,,,,,,,,,,,sub-061,1.0,random_dot,59.89081902827439,
right,right,speed,,,,,0.0,1.0,1.0,1.0,29.0,0.0,58.0,1.0,509.35863169981167,,,,,,,,,509.3441131999716,509.4443297998514,510.2432126998901,510.22823959984817,510.2282716999762,510.2432126998901,510.2432126998901,510.2432126998901,510.9795744998846,right,1.0,22.229156400077045,,,,,,,,,,,,,,,,,,,,,,,,,,,,,,,,sub-061,1.0,random_dot,59.89081902827439,
left,left,speed,,,,,0.0,1.0,1.0,1.0,29.0,1.0,59.0,0.0,510.9933674999047,,,,,,,,,510.980951000005,512.1931869999971,512.9945367998444,512.9785781998653,512.9786178998183,512.9945367998444,512.9945367998444,512.9945367998444,513.5439459998161,left,1.0,22.03242600010708,,,,,,,,,,,,,,,,,,,,,,,,,,,,,,,,sub-061,1.0,random_dot,59.89081902827439,
,,speed,,,,,0.0,1.0,1.0,1.0,,,,,,,,,,,,,,,,,,,,,,,,,,,,,,,,,,,,,,,,,,,,,,,,,,,,,,,,,sub-061,1.0,random_dot,59.89081902827439,
,,,,,,,,,,,,,,,,,,,,,,,,,,,,,,,,,,,,,,,,,,,,,,,,,,,,,,,,,,,,,,,513.5445734998211,513.5597513997927,518.559361099964,518.5450948998332,sub-061,,,,
