direction,corrAns,randomInstr,practice_trials.thisRepN,practice_trials.thisTrialN,practice_trials.thisN,practice_trials.thisIndex,instr_trials.thisRepN,instr_trials.thisTrialN,instr_trials.thisN,instr_trials.thisIndex,test_trials.thisRepN,test_trials.thisTrialN,test_trials.thisN,test_trials.thisIndex,thisRow.t,notes,general_instruction.started,textGeneralInstr.started,respGeneralInstr.started,general_instruction.stopped,respGeneralInstr.keys,respGeneralInstr.rt,respGeneralInstr.duration,ITI.started,fixcross.started,fixcross.stopped,ITI.stopped,dots.started,backgroundDots.started,stimulusDots.started,respDots.started,dots.stopped,respDots.keys,respDots.corr,respDots.rt,respDots.duration,feedback.started,textFeedback.started,textFeedback.stopped,feedback.stopped,info.started,textInfo.started,keyRespInfo.started,info.stopped,keyRespInfo.keys,keyRespInfo.rt,keyRespInfo.duration,test_instruction.started,textTestInstr.started,respTestInstr.started,test_instruction.stopped,respTestInstr.keys,respTestInstr.rt,respTestInstr.duration,random_instruction.started,textRandomInstr.started,respRandomInstr.started,random_instruction.stopped,respRandomInstr.keys,respRandomInstr.rt,respRandomInstr.duration,stimulusDots.stopped,goodbye.started,textGoodbye.started,textGoodbye.stopped,goodbye.stopped,participant,session,expName,frameRate,Unnamed: 74
,,,,,,,,,,,,,,,,,0.0081709999940358,0.0178482999908737,0.0178482999908737,33.50196649999998,space,48.77816039999016,,,,,,,,,,,,,,,,,,,,,,,,,,,,,,,,,,,,,,,,,,,,,sub-087,1.0,random_dot,59.65900108086464,
right,right,,0.0,0.0,0.0,1.0,,,,,,,,,33.52450559999852,,,,,,,,,33.516267300001346,34.31678079999983,35.117357700000866,35.101123200001894,35.10114729999623,35.117357700000866,35.117357700000866,35.117357700000866,36.88429859999451,right,1.0,17.05711120000342,,36.88502000000153,36.89969150000252,37.39986199999112,37.383652799995616,,,,,,,,,,,,,,,,,,,,,,,,,,,sub-087,1.0,random_dot,59.65900108086464,
left,left,,0.0,1.0,1.0,0.0,,,,,,,,,37.39986199999112,,,,,,,,,37.38407000000007,38.59915409999667,39.400986299995566,39.384783100002096,39.384806799993385,39.400986299995566,39.400986299995566,39.400986299995566,40.55370079999557,left,1.0,16.450203400003375,,40.55433089999133,40.56835909999791,41.068208600001526,41.05209189999732,,,,,,,,,,,,,,,,,,,,,,,,,,,sub-087,1.0,random_dot,59.65900108086464,
right,right,,1.0,0.0,2.0,1.0,,,,,,,,,41.068208600001526,,,,,,,,,41.05261319999408,41.41867159999674,42.21838939998997,42.202129099998274,42.20215430000098,42.21838939998997,42.21838939998997,42.21838939998997,43.28791759999877,right,1.0,16.36676580000494,,43.28860879999411,43.30157319999125,43.80155139999988,43.78582809999352,,,,,,,,,,,,,,,,,,,,,,,,,,,sub-087,1.0,random_dot,59.65900108086464,
left,left,,1.0,1.0,3.0,0.0,,,,,,,,,43.80155139999988,,,,,,,,,43.78643839999859,45.00165449999622,45.80259639999713,45.78578009999183,45.78581499999564,45.80259639999713,45.80259639999713,45.80259639999713,47.33694569999352,right,0.0,16.83310679999704,,47.33760939999775,47.3513307999965,47.85141370000201,47.835733499989146,,,,,,,,,,,,,,,,,,,,,,,,,,,sub-087,1.0,random_dot,59.65900108086464,
right,right,,2.0,0.0,4.0,1.0,,,,,,,,,47.85141370000201,,,,,,,,,47.83624969999073,49.05172399998992,49.852417599991895,49.83584119999432,49.83586989999458,49.852417599991895,49.852417599991895,49.852417599991895,51.253542699996615,right,1.0,16.69719149998855,,51.254091900002095,51.26798089999647,51.76852030000009,51.752309399991645,,,,,,,,,,,,,,,,,,,,,,,,,,,sub-087,1.0,random_dot,59.65900108086464,
left,left,,2.0,1.0,5.0,0.0,,,,,,,,,51.76852030000009,,,,,,,,,51.75273359999119,52.56829949999519,53.36938089999603,53.35231249999197,53.35233329999028,53.36938089999603,53.36938089999603,53.36938089999603,54.95300270000007,left,1.0,16.87639360000321,,54.95354399998905,54.96790449999389,55.46789610000269,55.45158249999804,,,,,,,,,,,,,,,,,,,,,,,,,,,sub-087,1.0,random_dot,59.65900108086464,
left,left,,3.0,0.0,6.0,0.0,,,,,,,,,55.46789610000269,,,,,,,,,55.4520579999953,55.56736479999381,56.36939419999544,56.35262799999328,56.35265239998989,56.36939419999544,56.36939419999544,56.36939419999544,57.70307550000143,left,1.0,16.62714350000897,,57.70374539999466,57.718096600001445,58.2176094000024,58.201345699999365,,,,,,,,,,,,,,,,,,,,,,,,,,,sub-087,1.0,random_dot,59.65900108086464,
right,right,,3.0,1.0,7.0,1.0,,,,,,,,,58.2176094000024,,,,,,,,,58.20177020000119,58.567610400001286,59.36925629999314,59.3526700999937,59.35268909999286,59.36925629999314,59.36925629999314,59.36925629999314,60.28765649998968,right,1.0,16.214993300003698,,60.28829219999898,60.30160530000285,60.80129619999207,60.78570619999664,,,,,,,,,,,,,,,,,,,,,,,,,,,sub-087,1.0,random_dot,59.65900108086464,
left,left,,4.0,0.0,8.0,0.0,,,,,,,,,60.80129619999207,,,,,,,,,60.7862199999945,61.60094499999832,62.4028144999902,62.385497499999474,62.3855223999999,62.4028144999902,62.4028144999902,62.4028144999902,63.209337399996,left,1.0,16.099643999987165,,63.20999079999456,63.2174062999984,63.71863399998984,63.702089200000046,,,,,,,,,,,,,,,,,,,,,,,,,,,sub-087,1.0,random_dot,59.65900108086464,
right,right,,4.0,1.0,9.0,1.0,,,,,,,,,63.71863399998984,,,,,,,,,63.70252839999739,63.817654999991646,64.61948629999824,64.60233889998926,64.60236019999138,64.61948629999824,64.61948629999824,64.61948629999824,65.57022009999491,right,1.0,16.237570999990567,,65.57074640000064,65.58468200000061,66.08452869999746,66.06863129998965,,,,,,,,,,,,,,,,,,,,,,,,,,,sub-087,1.0,random_dot,59.65900108086464,
left,left,,5.0,0.0,10.0,0.0,,,,,,,,,66.08452869999746,,,,,,,,,66.06910059999791,66.18465339999238,66.98603179999918,66.96890569999232,66.96893689999706,66.98603179999918,66.98603179999918,66.98603179999918,67.63602849999734,left,1.0,15.948350899998331,,67.63671369999065,67.65132559998892,68.15125699999044,68.13542559999041,,,,,,,,,,,,,,,,,,,,,,,,,,,sub-087,1.0,random_dot,59.65900108086464,
right,right,,5.0,1.0,11.0,1.0,,,,,,,,,68.15125699999044,,,,,,,,,68.13592790000257,68.9511402999924,69.7524917999981,69.73460039999918,69.7346225999936,69.7524917999981,69.7524917999981,69.7524917999981,70.56920569999784,right,1.0,16.102845799992792,,70.56972729999688,70.58389069999976,71.08438519999618,71.06930039999133,,,,,,,,,,,,,,,,,,,,,,,,,,,sub-087,1.0,random_dot,59.65900108086464,
left,left,,6.0,0.0,12.0,0.0,,,,,,,,,71.08438519999618,,,,,,,,,71.06972839999071,72.2838638999965,73.08495199999015,73.06771540000045,73.067736099998,73.08495199999015,73.08495199999015,73.08495199999015,75.65276430000085,left,1.0,17.859963299997617,,75.65342229999078,75.66730609998922,76.1680045999965,76.15192699999898,,,,,,,,,,,,,,,,,,,,,,,,,,,sub-087,1.0,random_dot,59.65900108086464,
right,right,,6.0,1.0,13.0,1.0,,,,,,,,,76.1680045999965,,,,,,,,,76.15236680000089,76.26764489999914,77.06826249998994,77.05143690000114,77.05146879999666,77.06826249998994,77.06826249998994,77.06826249998994,77.80270390000078,right,1.0,16.024924699988333,,77.80322590000287,77.81808779999847,78.31758499999705,78.30165509998915,,,,,,,,,,,,,,,,,,,,,,,,,,,sub-087,1.0,random_dot,59.65900108086464,
right,right,,7.0,0.0,14.0,1.0,,,,,,,,,78.31758499999705,,,,,,,,,78.30213589999767,79.51816459999827,80.31870350000099,80.30178059999889,80.30180339999788,80.31870350000099,80.31870350000099,80.31870350000099,81.08606549999968,left,0.0,16.056680200010305,,81.08658360000118,81.100120099989,81.60093139999663,81.58520069999213,,,,,,,,,,,,,,,,,,,,,,,,,,,sub-087,1.0,random_dot,59.65900108086464,
left,left,,7.0,1.0,15.0,0.0,,,,,,,,,81.60093139999663,,,,,,,,,81.58574129999033,82.8008686999965,83.6018364999909,83.58507649999228,83.58509579999372,83.6018364999909,83.6018364999909,83.6018364999909,84.50283620000118,left,1.0,16.18447880000167,,84.50335549999727,84.51745649999066,85.01750919999904,85.00183159999142,,,,,,,,,,,,,,,,,,,,,,,,,,,sub-087,1.0,random_dot,59.65900108086464,
left,left,,8.0,0.0,16.0,0.0,,,,,,,,,85.01750919999904,,,,,,,,,85.00232059998962,85.81778800000029,86.61815439999918,86.601250599997,86.60127269999066,86.61815439999918,86.61815439999918,86.61815439999918,87.60231829999248,left,1.0,16.276561300008325,,87.60290749999695,87.61796979999053,88.1168125999975,88.10125700000208,,,,,,,,,,,,,,,,,,,,,,,,,,,sub-087,1.0,random_dot,59.65900108086464,
right,right,,8.0,1.0,17.0,1.0,,,,,,,,,88.1168125999975,,,,,,,,,88.10166400000162,88.46773389998998,89.28011439999682,89.26970219999203,89.2697302000015,89.28011439999682,89.28011439999682,89.28011439999682,90.5908397000021,right,1.0,16.600340799996047,,90.59148529999948,90.60550330000116,91.10609059999116,91.0898182999954,,,,,,,,,,,,,,,,,,,,,,,,,,,sub-087,1.0,random_dot,59.65900108086464,
right,right,,9.0,0.0,18.0,1.0,,,,,,,,,91.10609059999116,,,,,,,,,91.09029159999044,91.20618719999038,92.00713430000178,91.98956909999832,91.98959369999648,92.00713430000178,92.00713430000178,92.00713430000178,95.44109919999028,right,1.0,18.725272600000608,,95.44169339998916,95.45557900000132,95.95559339999454,95.93985470000187,,,,,,,,,,,,,,,,,,,,,,,,,,,sub-087,1.0,random_dot,59.65900108086464,
left,left,,9.0,1.0,19.0,0.0,,,,,,,,,95.95559339999454,,,,,,,,,95.9402895999956,96.30520969998906,97.11014219999196,97.0901046999934,97.09012949999304,97.11014219999196,97.11014219999196,97.11014219999196,98.25761980000244,left,1.0,16.433933499996783,,98.2581283999898,98.27214899999672,98.7724229000014,98.75637999999162,,,,,,,,,,,,,,,,,,,,,,,,,,,sub-087,1.0,random_dot,59.65900108086464,
,,,,,,,,,,,,,,,,,,,,,,,,,,,,,,,,,,,,,,,,,98.75645679999434,98.7724229000014,98.7724229000014,102.17344149999552,space,18.687265200002003,,,,,,,,,,,,,,,,,,,,,sub-087,1.0,random_dot,59.65900108086464,
,,,,,,,,,,,,,,,,,,,,,,,,,,,,,,,,,,,,,,,,,,,,,,,,102.17347719999088,102.18896810000297,102.18896810000297,104.75687040000048,space,17.86279790000117,,,,,,,,,,,,,,sub-087,1.0,random_dot,59.65900108086464,
left,left,speed,,,,,0.0,0.0,0.0,1.0,0.0,0.0,0.0,0.0,108.32163489999948,,,,,,,,,108.31444829999236,109.1225368000014,109.92205939999258,109.90660229999048,109.90662419999715,109.92205939999258,109.92205939999258,109.92205939999258,110.40706050000152,left,1.0,15.769162399999914,,,,,,,,,,,,,,,,,,,,104.7612466999999,104.78266650000296,104.78266650000296,108.30710900000122,space,18.823880600000848,,,,,,,sub-087,1.0,random_dot,59.65900108086464,
right,right,speed,,,,,0.0,0.0,0.0,1.0,0.0,1.0,1.0,1.0,110.42163759999676,,,,,,,,,110.40837409999222,110.77253029998974,111.57304239999212,111.55675409999094,111.55677599999764,111.57304239999212,111.57304239999212,111.57304239999212,112.15753569999652,left,0.0,15.880345400000806,,,,,,,,,,,,,,,,,,,,,,,,,,,,,,,,sub-087,1.0,random_dot,59.65900108086464,
left,left,speed,,,,,0.0,0.0,0.0,1.0,1.0,0.0,2.0,0.0,112.17122940000264,,,,,,,,,112.1589273999998,112.97181969998928,113.77205179999874,113.75526809999428,113.7552927999932,113.77205179999874,113.77205179999874,113.77205179999874,114.3242620999954,left,1.0,15.85185370000545,,,,,,,,,,,,,,,,,,,,,,,,,,,,,,,,sub-087,1.0,random_dot,59.65900108086464,
right,right,speed,,,,,0.0,0.0,0.0,1.0,1.0,1.0,3.0,1.0,114.33841820000087,,,,,,,,,114.32526040000084,115.13798980000138,115.93947209999897,115.92283329999192,115.9228529999964,115.93947209999897,115.93947209999897,115.93947209999897,116.55708269999012,right,1.0,15.91308630000276,,,,,,,,,,,,,,,,,,,,,,,,,,,,,,,,sub-087,1.0,random_dot,59.65900108086464,
left,left,speed,,,,,0.0,0.0,0.0,1.0,2.0,0.0,4.0,0.0,116.57167269999628,,,,,,,,,116.5580931000004,117.37118099999498,118.17283549999412,118.15555709999173,118.15560159999586,118.17283549999412,118.17283549999412,118.17283549999412,118.67378169999574,left,1.0,15.784866999994849,,,,,,,,,,,,,,,,,,,,,,,,,,,,,,,,sub-087,1.0,random_dot,59.65900108086464,
right,right,speed,,,,,0.0,0.0,0.0,1.0,2.0,1.0,5.0,1.0,118.68852509999124,,,,,,,,,118.67506239999784,119.48778209999728,120.28989319999528,120.2723427000019,120.27236289999564,120.28989319999528,120.28989319999528,120.28989319999528,120.89030529999582,right,1.0,15.896677700002328,,,,,,,,,,,,,,,,,,,,,,,,,,,,,,,,sub-087,1.0,random_dot,59.65900108086464,
right,right,speed,,,,,0.0,0.0,0.0,1.0,3.0,0.0,6.0,1.0,120.90523059999396,,,,,,,,,120.89125790000251,122.10530070000095,122.90724190000036,122.88986519999162,122.8898870999983,122.90724190000036,122.90724190000036,122.90724190000036,123.62318989999768,left,0.0,16.008119899997837,,,,,,,,,,,,,,,,,,,,,,,,,,,,,,,,sub-087,1.0,random_dot,59.65900108086464,
left,left,speed,,,,,0.0,0.0,0.0,1.0,3.0,1.0,7.0,0.0,123.63827039999887,,,,,,,,,123.62422099999094,123.73835329999564,124.53892520000228,124.52266180000152,124.52268470000126,124.53892520000228,124.53892520000228,124.53892520000228,125.20706529999734,left,1.0,15.959679199993843,,,,,,,,,,,,,,,,,,,,,,,,,,,,,,,,sub-087,1.0,random_dot,59.65900108086464,
right,right,speed,,,,,0.0,0.0,0.0,1.0,4.0,0.0,8.0,1.0,125.22144129998924,,,,,,,,,125.2083133999986,126.42176679999102,127.22225359998993,127.20565619999252,127.205684799992,127.22225359998993,127.22225359998993,127.22225359998993,127.83984509999571,right,1.0,15.91402249998646,,,,,,,,,,,,,,,,,,,,,,,,,,,,,,,,sub-087,1.0,random_dot,59.65900108086464,
left,left,speed,,,,,0.0,0.0,0.0,1.0,4.0,1.0,9.0,0.0,127.85460869999952,,,,,,,,,127.84116669998912,128.20487269999285,129.00513939998928,128.98971090000123,128.98973059999116,129.00513939998928,129.00513939998928,129.00513939998928,129.54073130000324,left,1.0,15.83352109999396,,,,,,,,,,,,,,,,,,,,,,,,,,,,,,,,sub-087,1.0,random_dot,59.65900108086464,
left,left,speed,,,,,0.0,0.0,0.0,1.0,5.0,0.0,10.0,0.0,129.55479650000052,,,,,,,,,129.54171489999862,130.3555997999938,131.1555315000005,131.1395218999969,131.13954540000125,131.1555315000005,131.1555315000005,131.1555315000005,131.67382460000226,left,1.0,15.805589299998246,,,,,,,,,,,,,,,,,,,,,,,,,,,,,,,,sub-087,1.0,random_dot,59.65900108086464,
right,right,speed,,,,,0.0,0.0,0.0,1.0,5.0,1.0,11.0,1.0,131.68801440000243,,,,,,,,,131.67507939999632,132.88823509999202,133.6892011000018,133.67239649999829,133.672436199995,133.6892011000018,133.6892011000018,133.6892011000018,134.42285649999394,right,1.0,16.017726299993228,,,,,,,,,,,,,,,,,,,,,,,,,,,,,,,,sub-087,1.0,random_dot,59.65900108086464,
left,left,speed,,,,,0.0,0.0,0.0,1.0,6.0,0.0,12.0,0.0,134.43801559999702,,,,,,,,,134.42388960000244,134.7880470999953,135.58896870000171,135.57216349999362,135.5722151999944,135.58896870000171,135.58896870000171,135.58896870000171,136.53983889998926,left,1.0,16.23380129999714,,,,,,,,,,,,,,,,,,,,,,,,,,,,,,,,sub-087,1.0,random_dot,59.65900108086464,
right,right,speed,,,,,0.0,0.0,0.0,1.0,6.0,1.0,13.0,1.0,136.5545115999994,,,,,,,,,136.54080429999158,137.75462939999125,138.5548192999995,138.53807049999887,138.53809529999853,138.5548192999995,138.5548192999995,138.5548192999995,139.75657779999892,right,1.0,16.498069500012207,,,,,,,,,,,,,,,,,,,,,,,,,,,,,,,,sub-087,1.0,random_dot,59.65900108086464,
left,left,speed,,,,,0.0,0.0,0.0,1.0,7.0,0.0,14.0,0.0,139.77155279999715,,,,,,,,,139.75754669999878,140.57182029999967,141.37190879999253,141.3551354999945,141.3551635999902,141.37190879999253,141.37190879999253,141.37190879999253,142.60669909999706,left,1.0,16.520370099999127,,,,,,,,,,,,,,,,,,,,,,,,,,,,,,,,sub-087,1.0,random_dot,59.65900108086464,
right,right,speed,,,,,0.0,0.0,0.0,1.0,7.0,1.0,15.0,1.0,142.62129909999203,,,,,,,,,142.60763849999057,143.82170790000237,144.6265560000029,144.60623289999785,144.60626220000267,144.6265560000029,144.6265560000029,144.6265560000029,145.47374219998892,right,1.0,16.146036999998614,,,,,,,,,,,,,,,,,,,,,,,,,,,,,,,,sub-087,1.0,random_dot,59.65900108086464,
left,left,speed,,,,,0.0,0.0,0.0,1.0,8.0,0.0,16.0,0.0,145.4877276999905,,,,,,,,,145.47501369999372,146.28804189999937,147.10528849999537,147.08826209999097,147.0882816999947,147.10528849999537,147.10528849999537,147.10528849999537,147.62280409999948,left,1.0,15.80572299999767,,,,,,,,,,,,,,,,,,,,,,,,,,,,,,,,sub-087,1.0,random_dot,59.65900108086464,
right,right,speed,,,,,0.0,0.0,0.0,1.0,8.0,1.0,17.0,1.0,147.63770389999263,,,,,,,,,147.62383039999986,148.43694319999486,149.2392320999934,149.22147599999153,149.22150149999652,149.2392320999934,149.2392320999934,149.2392320999934,149.78952009999193,left,0.0,15.833941000004415,,,,,,,,,,,,,,,,,,,,,,,,,,,,,,,,sub-087,1.0,random_dot,59.65900108086464,
left,left,speed,,,,,0.0,0.0,0.0,1.0,9.0,0.0,18.0,0.0,149.80485999998928,,,,,,,,,149.79077989999496,151.00438369999756,151.80421529999876,151.78788439999337,151.78790719999233,151.80421529999876,151.80421529999876,151.80421529999876,152.4390587999951,left,1.0,15.919796799993492,,,,,,,,,,,,,,,,,,,,,,,,,,,,,,,,sub-087,1.0,random_dot,59.65900108086464,
right,right,speed,,,,,0.0,0.0,0.0,1.0,9.0,1.0,19.0,1.0,152.45372299999872,,,,,,,,,152.4405809000018,153.6537443999987,154.4542476999923,154.43787229999725,154.43789390000163,154.4542476999923,154.4542476999923,154.4542476999923,154.9554541999969,right,1.0,15.793164900009288,,,,,,,,,,,,,,,,,,,,,,,,,,,,,,,,sub-087,1.0,random_dot,59.65900108086464,
right,right,speed,,,,,0.0,0.0,0.0,1.0,10.0,0.0,20.0,1.0,154.9703576999891,,,,,,,,,154.95639900000242,156.17063599999528,156.97102019999875,156.95664899999974,156.95667810000305,156.97102019999875,156.97102019999875,156.97102019999875,157.53953319998982,right,1.0,15.85687489999691,,,,,,,,,,,,,,,,,,,,,,,,,,,,,,,,sub-087,1.0,random_dot,59.65900108086464,
left,left,speed,,,,,0.0,0.0,0.0,1.0,10.0,1.0,21.0,0.0,157.55405679999967,,,,,,,,,157.54047219999484,157.65352349999011,158.4551655999967,158.43828159999975,158.43830429999798,158.4551655999967,158.4551655999967,158.4551655999967,159.22221939999145,left,1.0,16.057813799998257,,,,,,,,,,,,,,,,,,,,,,,,,,,,,,,,sub-087,1.0,random_dot,59.65900108086464,
right,right,speed,,,,,0.0,0.0,0.0,1.0,11.0,0.0,22.0,1.0,159.2367460999958,,,,,,,,,159.2232240000012,160.4380960999988,161.23770220000006,161.22137780000048,161.2214002999972,161.23770220000006,161.23770220000006,161.23770220000006,161.8391808000015,right,1.0,15.886613199996646,,,,,,,,,,,,,,,,,,,,,,,,,,,,,,,,sub-087,1.0,random_dot,59.65900108086464,
left,left,speed,,,,,0.0,0.0,0.0,1.0,11.0,1.0,23.0,0.0,161.85425809999288,,,,,,,,,161.8404498000018,162.20411159998912,163.00526269999682,162.98756969999522,162.98759229999268,163.00526269999682,163.00526269999682,163.00526269999682,163.5060899999953,left,1.0,15.797141299990471,,,,,,,,,,,,,,,,,,,,,,,,,,,,,,,,sub-087,1.0,random_dot,59.65900108086464,
left,left,speed,,,,,0.0,0.0,0.0,1.0,12.0,0.0,24.0,0.0,163.5212859000021,,,,,,,,,163.50711859999865,163.6208392999979,164.4213582999946,164.4050000999996,164.40502169998945,164.4213582999946,164.4213582999946,164.4213582999946,165.89617449999787,right,0.0,16.76395930000581,,,,,,,,,,,,,,,,,,,,,,,,,,,,,,,,sub-087,1.0,random_dot,59.65900108086464,
right,right,speed,,,,,0.0,0.0,0.0,1.0,12.0,1.0,25.0,1.0,165.9113740999892,,,,,,,,,165.89722439998877,166.0158919999958,166.82940679999592,166.813030099991,166.81306079999194,166.82940679999592,166.82940679999592,166.82940679999592,167.9623927999928,right,1.0,16.419352099997923,,,,,,,,,,,,,,,,,,,,,,,,,,,,,,,,sub-087,1.0,random_dot,59.65900108086464,
left,left,speed,,,,,0.0,0.0,0.0,1.0,13.0,0.0,26.0,0.0,167.97737409999536,,,,,,,,,167.96407639999234,168.7779295999935,169.57810590000008,169.56134299999394,169.56136599999445,169.57810590000008,169.57810590000008,169.57810590000008,170.21282089999295,left,1.0,15.919996000011452,,,,,,,,,,,,,,,,,,,,,,,,,,,,,,,,sub-087,1.0,random_dot,59.65900108086464,
right,right,speed,,,,,0.0,0.0,0.0,1.0,13.0,1.0,27.0,1.0,170.22767739999108,,,,,,,,,170.2139243999991,170.57837960000325,171.37896750000073,171.3617089999898,171.3617274999997,171.37896750000073,171.37896750000073,171.37896750000073,172.48287429999618,right,1.0,16.386888699998963,,,,,,,,,,,,,,,,,,,,,,,,,,,,,,,,sub-087,1.0,random_dot,59.65900108086464,
right,right,speed,,,,,0.0,0.0,0.0,1.0,14.0,0.0,28.0,1.0,172.49423099998967,,,,,,,,,172.48408539999218,173.29515920000267,174.09499789999973,174.07865599999786,174.078683300002,174.09499789999973,174.09499789999973,174.09499789999973,184.12911899999017,left,0.0,25.3319416000013,,,,,,,,,,,,,,,,,,,,,,,,,,,179.09460019999824,,,,,sub-087,1.0,random_dot,59.65900108086464,
left,left,speed,,,,,0.0,0.0,0.0,1.0,14.0,1.0,29.0,0.0,184.14438469999004,,,,,,,,,184.1300766999921,184.24421219999203,185.045686700003,185.02835989999585,185.028378899995,185.045686700003,185.045686700003,185.045686700003,185.6461248999985,left,1.0,15.89230549999047,,,,,,,,,,,,,,,,,,,,,,,,,,,,,,,,sub-087,1.0,random_dot,59.65900108086464,
left,left,speed,,,,,0.0,0.0,0.0,1.0,15.0,0.0,30.0,0.0,185.66066129998944,,,,,,,,,185.6474023999908,185.7609836999909,186.56125109999263,186.5444037999987,186.5444290000014,186.56125109999263,186.56125109999263,186.56125109999263,187.44588859999203,right,0.0,16.17511260000174,,,,,,,,,,,,,,,,,,,,,,,,,,,,,,,,sub-087,1.0,random_dot,59.65900108086464,
right,right,speed,,,,,0.0,0.0,0.0,1.0,15.0,1.0,31.0,1.0,187.4608237999928,,,,,,,,,187.4469279999903,187.81102019999528,188.61293170000133,188.5956004999898,188.59562399999413,188.61293170000133,188.61293170000133,188.61293170000133,189.42897389999416,right,1.0,16.10794519999763,,,,,,,,,,,,,,,,,,,,,,,,,,,,,,,,sub-087,1.0,random_dot,59.65900108086464,
left,left,speed,,,,,0.0,0.0,0.0,1.0,16.0,0.0,32.0,0.0,189.4440442999912,,,,,,,,,189.4300039999944,190.62910619999457,191.44610109999485,191.42847230000189,191.4284914000018,191.44610109999485,191.44610109999485,191.44610109999485,192.0290096999961,left,1.0,15.88174369999615,,,,,,,,,,,,,,,,,,,,,,,,,,,,,,,,sub-087,1.0,random_dot,59.65900108086464,
right,right,speed,,,,,0.0,0.0,0.0,1.0,16.0,1.0,33.0,1.0,192.0438737999939,,,,,,,,,192.03056109999304,192.1439651999972,192.9446726000024,192.9289337999944,192.92895529999805,192.9446726000024,192.9446726000024,192.9446726000024,193.52885639999292,right,1.0,15.87820420000935,,,,,,,,,,,,,,,,,,,,,,,,,,,,,,,,sub-087,1.0,random_dot,59.65900108086464,
left,left,speed,,,,,0.0,0.0,0.0,1.0,17.0,0.0,34.0,0.0,193.5438451999944,,,,,,,,,193.52998099999968,193.6441623999999,194.44385139999213,194.4307112999959,194.4307390999893,194.44385139999213,194.44385139999213,194.44385139999213,195.1124216999888,left,1.0,15.95453329999873,,,,,,,,,,,,,,,,,,,,,,,,,,,,,,,,sub-087,1.0,random_dot,59.65900108086464,
right,right,speed,,,,,0.0,0.0,0.0,1.0,17.0,1.0,35.0,1.0,195.12712189999,,,,,,,,,195.11344590000223,195.22722679999424,196.0284118999989,196.0111868999957,196.0112067000009,196.0284118999989,196.0284118999989,196.0284118999989,196.57876699999903,right,1.0,15.849256700006665,,,,,,,,,,,,,,,,,,,,,,,,,,,,,,,,sub-087,1.0,random_dot,59.65900108086464,
right,right,speed,,,,,0.0,0.0,0.0,1.0,18.0,0.0,36.0,1.0,196.5938346999901,,,,,,,,,196.5798194999952,197.39410819999463,198.19455580000067,198.17771009998975,198.1777402000007,198.19455580000067,198.19455580000067,198.19455580000067,199.44577910000223,right,1.0,16.53898179999669,,,,,,,,,,,,,,,,,,,,,,,,,,,,,,,,sub-087,1.0,random_dot,59.65900108086464,
left,left,speed,,,,,0.0,0.0,0.0,1.0,18.0,1.0,37.0,0.0,199.4604058999976,,,,,,,,,199.44672300000093,200.6605299999937,201.461601499992,201.44490889999724,201.4449300999986,201.461601499992,201.461601499992,201.461601499992,202.16274359999807,left,1.0,15.995688700000755,,,,,,,,,,,,,,,,,,,,,,,,,,,,,,,,sub-087,1.0,random_dot,59.65900108086464,
right,right,speed,,,,,0.0,0.0,0.0,1.0,19.0,0.0,38.0,1.0,202.17754579999016,,,,,,,,,202.1637262000004,202.5273843000032,203.32781049999176,203.31189579999773,203.3119207999989,203.32781049999176,203.32781049999176,203.32781049999176,203.8458275000012,right,1.0,15.807700400007889,,,,,,,,,,,,,,,,,,,,,,,,,,,,,,,,sub-087,1.0,random_dot,59.65900108086464,
left,left,speed,,,,,0.0,0.0,0.0,1.0,19.0,1.0,39.0,0.0,203.86009679999552,,,,,,,,,203.84681669999557,204.21069939999143,205.01042939999024,204.9943705999904,204.9943903999956,205.01042939999024,205.01042939999024,205.01042939999024,205.62954549999267,left,1.0,15.905304500003696,,,,,,,,,,,,,,,,,,,,,,,,,,,,,,,,sub-087,1.0,random_dot,59.65900108086464,
right,right,speed,,,,,0.0,0.0,0.0,1.0,20.0,0.0,40.0,1.0,205.6435160999972,,,,,,,,,205.63057809999736,205.99367349999372,206.79443059999903,206.77753569999183,206.77755810000235,206.79443059999903,206.79443059999903,206.79443059999903,207.5121497999935,right,1.0,16.007635699992534,,,,,,,,,,,,,,,,,,,,,,,,,,,,,,,,sub-087,1.0,random_dot,59.65900108086464,
left,left,speed,,,,,0.0,0.0,0.0,1.0,20.0,1.0,41.0,0.0,207.5269624999928,,,,,,,,,207.5131493999943,208.72704250000243,209.52831880000303,209.51148709999688,209.51150609999604,209.52831880000303,209.52831880000303,209.52831880000303,210.24542870000005,left,1.0,16.007500699997763,,,,,,,,,,,,,,,,,,,,,,,,,,,,,,,,sub-087,1.0,random_dot,59.65900108086464,
left,left,speed,,,,,0.0,0.0,0.0,1.0,21.0,0.0,42.0,0.0,210.26056369999424,,,,,,,,,210.24640910000016,211.46068379998903,212.2617157999921,212.2443823999929,212.24440169999437,212.2617157999921,212.2617157999921,212.2617157999921,212.7295808999916,left,1.0,15.757073200002196,,,,,,,,,,,,,,,,,,,,,,,,,,,,,,,,sub-087,1.0,random_dot,59.65900108086464,
right,right,speed,,,,,0.0,0.0,0.0,1.0,21.0,1.0,43.0,1.0,212.7435299999925,,,,,,,,,212.7306177999999,213.94360269999012,214.74452719998956,214.7278815999889,214.72790199999872,214.74452719998956,214.74452719998956,214.74452719998956,215.24502619999112,right,1.0,15.78708490000281,,,,,,,,,,,,,,,,,,,,,,,,,,,,,,,,sub-087,1.0,random_dot,59.65900108086464,
right,right,speed,,,,,0.0,0.0,0.0,1.0,22.0,0.0,44.0,1.0,215.2601028999925,,,,,,,,,215.24596709999605,216.46049810000116,217.26071200000297,217.2440992999909,217.24414249999973,217.26071200000297,217.26071200000297,217.26071200000297,217.96195539999465,left,0.0,15.991026499992586,,,,,,,,,,,,,,,,,,,,,,,,,,,,,,,,sub-087,1.0,random_dot,59.65900108086464,
left,left,speed,,,,,0.0,0.0,0.0,1.0,22.0,1.0,45.0,0.0,217.9801479000016,,,,,,,,,217.96297599999525,218.3270117999928,219.127447699997,219.11099139999715,219.11101880000209,219.127447699997,219.127447699997,219.127447699997,220.2961007999984,left,1.0,16.45277219999116,,,,,,,,,,,,,,,,,,,,,,,,,,,,,,,,sub-087,1.0,random_dot,59.65900108086464,
right,right,speed,,,,,0.0,0.0,0.0,1.0,23.0,0.0,46.0,1.0,220.3099721999897,,,,,,,,,220.2971843999985,220.4101049000019,221.21107119999945,221.19420459998943,221.19422869999835,221.21107119999945,221.21107119999945,221.21107119999945,221.8622500999918,right,1.0,15.94539910000458,,,,,,,,,,,,,,,,,,,,,,,,,,,,,,,,sub-087,1.0,random_dot,59.65900108086464,
left,left,speed,,,,,0.0,0.0,0.0,1.0,23.0,1.0,47.0,0.0,221.87662640000053,,,,,,,,,221.8632135999942,221.97694339999,222.7775027000025,222.76084339999943,222.76086490000307,222.7775027000025,222.7775027000025,222.7775027000025,223.41185259999477,left,1.0,15.930606800000533,,,,,,,,,,,,,,,,,,,,,,,,,,,,,,,,sub-087,1.0,random_dot,59.65900108086464,
right,right,speed,,,,,0.0,0.0,0.0,1.0,24.0,0.0,48.0,1.0,223.42679149999455,,,,,,,,,223.41283109999492,223.77667039999503,224.5776779000007,224.56074889999584,224.56077319999167,224.5776779000007,224.5776779000007,224.5776779000007,225.1619570999901,right,1.0,15.88081049999164,,,,,,,,,,,,,,,,,,,,,,,,,,,,,,,,sub-087,1.0,random_dot,59.65900108086464,
left,left,speed,,,,,0.0,0.0,0.0,1.0,24.0,1.0,49.0,0.0,225.17648349999217,,,,,,,,,225.16292779998912,225.9768049999984,226.77765329999968,226.76079169999863,226.76081539998995,226.77765329999968,226.77765329999968,226.77765329999968,227.56197460000112,left,1.0,16.073497999997926,,,,,,,,,,,,,,,,,,,,,,,,,,,,,,,,sub-087,1.0,random_dot,59.65900108086464,
right,right,speed,,,,,0.0,0.0,0.0,1.0,25.0,0.0,50.0,1.0,227.57667689998925,,,,,,,,,227.5632040999917,227.67681749998883,228.478085499999,228.46064320000005,228.4606671999936,228.478085499999,228.478085499999,228.478085499999,229.9952140999958,right,1.0,16.80171519999567,,,,,,,,,,,,,,,,,,,,,,,,,,,,,,,,sub-087,1.0,random_dot,59.65900108086464,
left,left,speed,,,,,0.0,0.0,0.0,1.0,25.0,1.0,51.0,0.0,230.00961069999903,,,,,,,,,229.9961542999954,230.36013220000316,231.161288599993,231.14379689999623,231.14382599999956,231.161288599993,231.161288599993,231.161288599993,232.9113243000029,left,1.0,17.039843400008976,,,,,,,,,,,,,,,,,,,,,,,,,,,,,,,,sub-087,1.0,random_dot,59.65900108086464,
right,right,speed,,,,,0.0,0.0,0.0,1.0,26.0,0.0,52.0,1.0,232.926329199996,,,,,,,,,232.9123077999975,233.27570889999333,234.07718500000192,234.06042490000252,234.06044829999155,234.07718500000192,234.07718500000192,234.07718500000192,234.91081049999048,right,1.0,16.12569510001049,,,,,,,,,,,,,,,,,,,,,,,,,,,,,,,,sub-087,1.0,random_dot,59.65900108086464,
left,left,speed,,,,,0.0,0.0,0.0,1.0,26.0,1.0,53.0,0.0,234.92637600000307,,,,,,,,,234.91183209999872,235.27659389999465,236.07760489999785,236.0604232999904,236.06044669999392,236.07760489999785,236.07760489999785,236.07760489999785,237.06535279999665,left,1.0,16.28591979999328,,,,,,,,,,,,,,,,,,,,,,,,,,,,,,,,sub-087,1.0,random_dot,59.65900108086464,
left,left,speed,,,,,0.0,0.0,0.0,1.0,27.0,0.0,54.0,0.0,237.07614429999376,,,,,,,,,237.06637669999327,237.17663229999016,237.9779489999928,237.96074260000023,237.9607684999937,237.9779489999928,237.9779489999928,237.9779489999928,240.5116194000002,right,0.0,17.81757280000602,,,,,,,,,,,,,,,,,,,,,,,,,,,,,,,,sub-087,1.0,random_dot,59.65900108086464,
right,right,speed,,,,,0.0,0.0,0.0,1.0,27.0,1.0,55.0,1.0,240.5261046999949,,,,,,,,,240.51266919999037,240.8765008999908,241.67771449999415,241.6607160999993,241.66074419999492,241.67771449999415,241.67771449999415,241.67771449999415,242.47817889999715,right,1.0,16.09303989999171,,,,,,,,,,,,,,,,,,,,,,,,,,,,,,,,sub-087,1.0,random_dot,59.65900108086464,
right,right,speed,,,,,0.0,0.0,0.0,1.0,28.0,0.0,56.0,1.0,242.4927699999971,,,,,,,,,242.4794780999946,242.59328559999997,243.3938735999982,243.37736869999208,243.37738769999123,243.3938735999982,243.3938735999982,243.3938735999982,244.6280240999913,right,1.0,16.52591029999894,,,,,,,,,,,,,,,,,,,,,,,,,,,,,,,,sub-087,1.0,random_dot,59.65900108086464,
left,left,speed,,,,,0.0,0.0,0.0,1.0,28.0,1.0,57.0,0.0,244.6428348999907,,,,,,,,,244.629184999998,245.82553119999648,246.6265680999932,246.60971869999776,246.6097398999991,246.6265680999932,246.6265680999932,246.6265680999932,248.9448306999984,left,1.0,17.61094420000154,,,,,,,,,,,,,,,,,,,,,,,,,,,,,,,,sub-087,1.0,random_dot,59.65900108086464,
right,right,speed,,,,,0.0,0.0,0.0,1.0,29.0,0.0,58.0,1.0,248.95878669999365,,,,,,,,,248.9460798999935,249.76053239998876,250.57750410000156,250.56018279999265,250.5602065999992,250.57750410000156,250.57750410000156,250.57750410000156,252.47786759999872,right,1.0,17.192518500000006,,,,,,,,,,,,,,,,,,,,,,,,,,,,,,,,sub-087,1.0,random_dot,59.65900108086464,
left,left,speed,,,,,0.0,0.0,0.0,1.0,29.0,1.0,59.0,0.0,252.49248380000063,,,,,,,,,252.47885269999097,253.6927461000014,254.4932821999973,254.4762064999959,254.47622820000103,254.4932821999973,254.4932821999973,254.4932821999973,255.11123799999768,left,1.0,15.905397399998035,,,,,,,,,,,,,,,,,,,,,,,,,,,,,,,,sub-087,1.0,random_dot,59.65900108086464,
,,speed,,,,,0.0,0.0,0.0,1.0,,,,,,,,,,,,,,,,,,,,,,,,,,,,,,,,,,,,,,,,,,,,,,,,,,,,,,,,,sub-087,1.0,random_dot,59.65900108086464,
left,left,accuracy,,,,,0.0,1.0,1.0,0.0,0.0,0.0,0.0,0.0,258.2585596999997,,,,,,,,,258.2509921000019,259.0584528999898,259.8594386999903,259.8433163000009,259.8433387999976,259.8594386999903,259.8594386999903,259.8594386999903,260.84427180000057,right,0.0,16.27893359999871,,,,,,,,,,,,,,,,,,,,255.1122400000022,255.12885899998943,255.12885899998943,258.2431155999948,space,18.411094000010053,,,,,,,sub-087,1.0,random_dot,59.65900108086464,
right,right,accuracy,,,,,0.0,1.0,1.0,0.0,0.0,1.0,1.0,1.0,260.85925729999144,,,,,,,,,260.84557649999624,260.95954539999366,261.76059589999204,261.7435770000011,261.7436030999961,261.76059589999204,261.76059589999204,261.76059589999204,263.09453960000246,right,1.0,16.61953729999368,,,,,,,,,,,,,,,,,,,,,,,,,,,,,,,,sub-087,1.0,random_dot,59.65900108086464,
right,right,accuracy,,,,,0.0,1.0,1.0,0.0,1.0,0.0,2.0,1.0,263.1090078999987,,,,,,,,,263.095808699989,264.3095450999972,265.11118120000174,265.0938879000023,265.0939078999945,265.11118120000174,265.11118120000174,265.11118120000174,271.6441580999963,left,0.0,21.82768550000037,,,,,,,,,,,,,,,,,,,,,,,,,,,270.0931786000001,,,,,sub-087,1.0,random_dot,59.65900108086464,
left,left,accuracy,,,,,0.0,1.0,1.0,0.0,1.0,1.0,3.0,0.0,271.65918799999054,,,,,,,,,271.6455382999993,272.4596363000019,273.25943759999063,273.2428239000001,273.2428452000022,273.25943759999063,273.25943759999063,273.25943759999063,274.29453929999727,left,1.0,16.323962700000266,,,,,,,,,,,,,,,,,,,,,,,,,,,,,,,,sub-087,1.0,random_dot,59.65900108086464,
right,right,accuracy,,,,,0.0,1.0,1.0,0.0,2.0,0.0,4.0,1.0,274.3088351999904,,,,,,,,,274.295575199998,275.5091430000029,276.3093610999931,276.2923105999944,276.2923440000013,276.3093610999931,276.3093610999931,276.3093610999931,280.6114590999932,right,1.0,19.59369870000228,,,,,,,,,,,,,,,,,,,,,,,,,,,,,,,,sub-087,1.0,random_dot,59.65900108086464,
left,left,accuracy,,,,,0.0,1.0,1.0,0.0,2.0,1.0,5.0,0.0,280.6256730000023,,,,,,,,,280.61261959999683,281.8302893999935,282.6427476999961,282.62611019999895,282.62613520000014,282.6427476999961,282.6427476999961,282.6427476999961,285.8319727999915,left,1.0,18.487092800001847,,,,,,,,,,,,,,,,,,,,,,,,,,,,,,,,sub-087,1.0,random_dot,59.65900108086464,
right,right,accuracy,,,,,0.0,1.0,1.0,0.0,3.0,0.0,6.0,1.0,285.8471184999944,,,,,,,,,285.8329165999894,287.0467192999932,287.8487655999925,287.83151689999795,287.8315417999984,287.8487655999925,287.8487655999925,287.8487655999925,288.5990931999986,right,1.0,16.038658899997245,,,,,,,,,,,,,,,,,,,,,,,,,,,,,,,,sub-087,1.0,random_dot,59.65900108086464,
left,left,accuracy,,,,,0.0,1.0,1.0,0.0,3.0,1.0,7.0,0.0,288.61352230000193,,,,,,,,,288.6000531000027,288.9638141000032,289.7649365999969,289.7481281999935,289.7481523000024,289.7649365999969,289.7649365999969,289.7649365999969,291.4331827999995,left,1.0,16.957577399996808,,,,,,,,,,,,,,,,,,,,,,,,,,,,,,,,sub-087,1.0,random_dot,59.65900108086464,
left,left,accuracy,,,,,0.0,1.0,1.0,0.0,4.0,0.0,8.0,0.0,291.4470971999981,,,,,,,,,291.434442999991,292.24752720000106,293.0641731999931,293.0483238000015,293.0483443999983,293.0641731999931,293.0641731999931,293.0641731999931,295.1828153999959,left,1.0,17.407961600009003,,,,,,,,,,,,,,,,,,,,,,,,,,,,,,,,sub-087,1.0,random_dot,59.65900108086464,
right,right,accuracy,,,,,0.0,1.0,1.0,0.0,4.0,1.0,9.0,1.0,295.1969265999942,,,,,,,,,295.18375739999465,295.2971174999984,296.09780540000065,296.0812245999987,296.0812448999932,296.09780540000065,296.09780540000065,296.09780540000065,296.89908069999365,right,1.0,16.089483000003383,,,,,,,,,,,,,,,,,,,,,,,,,,,,,,,,sub-087,1.0,random_dot,59.65900108086464,
right,right,accuracy,,,,,0.0,1.0,1.0,0.0,5.0,0.0,10.0,1.0,296.9139456999983,,,,,,,,,296.9000753,298.1137657999934,298.9141832000023,298.89862079999875,298.8986416999978,298.9141832000023,298.9141832000023,298.9141832000023,299.5489811000007,right,1.0,15.926364300001296,,,,,,,,,,,,,,,,,,,,,,,,,,,,,,,,sub-087,1.0,random_dot,59.65900108086464,
left,left,accuracy,,,,,0.0,1.0,1.0,0.0,5.0,1.0,11.0,0.0,299.5638532000012,,,,,,,,,299.5499106999923,299.9135260999901,300.71443839999847,300.6974912000005,300.6975243999914,300.71443839999847,300.71443839999847,300.71443839999847,301.88249999999243,left,1.0,16.452631799998926,,,,,,,,,,,,,,,,,,,,,,,,,,,,,,,,sub-087,1.0,random_dot,59.65900108086464,
left,left,accuracy,,,,,0.0,1.0,1.0,0.0,6.0,0.0,12.0,0.0,301.8969036999915,,,,,,,,,301.8834293999971,302.6967544999934,303.49759259998973,303.48059289999946,303.4806132999948,303.49759259998973,303.49759259998973,303.49759259998973,305.85984520000056,left,1.0,17.64877479999268,,,,,,,,,,,,,,,,,,,,,,,,,,,,,,,,sub-087,1.0,random_dot,59.65900108086464,
right,right,accuracy,,,,,0.0,1.0,1.0,0.0,6.0,1.0,13.0,1.0,305.86890419998963,,,,,,,,,305.8608281999914,306.6702202000015,307.4709609999991,307.45381619999534,307.4538362000021,307.4709609999991,307.4709609999991,307.4709609999991,310.23804529999325,left,0.0,18.058408800003235,,,,,,,,,,,,,,,,,,,,,,,,,,,,,,,,sub-087,1.0,random_dot,59.65900108086464,
right,right,accuracy,,,,,0.0,1.0,1.0,0.0,7.0,0.0,14.0,1.0,310.2525741999998,,,,,,,,,310.2390921999904,311.05331750000187,311.8536471999978,311.837185899989,311.83720979999634,311.8536471999978,311.8536471999978,311.8536471999978,312.5552325999888,right,1.0,15.99036039999919,,,,,,,,,,,,,,,,,,,,,,,,,,,,,,,,sub-087,1.0,random_dot,59.65900108086464,
left,left,accuracy,,,,,0.0,1.0,1.0,0.0,7.0,1.0,15.0,0.0,312.5696791999944,,,,,,,,,312.55622009999934,313.3698804000014,314.16990519998944,314.1534400999953,314.1534607999929,314.16990519998944,314.16990519998944,314.16990519998944,317.1208609000023,left,1.0,18.24047299999802,,,,,,,,,,,,,,,,,,,,,,,,,,,,,,,,sub-087,1.0,random_dot,59.65900108086464,
left,left,accuracy,,,,,0.0,1.0,1.0,0.0,8.0,0.0,16.0,0.0,317.135804599995,,,,,,,,,317.12200160000066,317.93623910000315,318.73694740000064,318.7196956999978,318.7197207999998,318.73694740000064,318.73694740000064,318.73694740000064,319.4557507999998,right,0.0,16.016878099995665,,,,,,,,,,,,,,,,,,,,,,,,,,,,,,,,sub-087,1.0,random_dot,59.65900108086464,
right,right,accuracy,,,,,0.0,1.0,1.0,0.0,8.0,1.0,17.0,1.0,319.4693045000022,,,,,,,,,319.4567442999978,319.5695895999961,320.37136449999525,320.35349579999456,320.3535201999912,320.37136449999525,320.37136449999525,320.37136449999525,322.303594099998,right,1.0,17.22576489999483,,,,,,,,,,,,,,,,,,,,,,,,,,,,,,,,sub-087,1.0,random_dot,59.65900108086464,
left,left,accuracy,,,,,0.0,1.0,1.0,0.0,9.0,0.0,18.0,0.0,322.318993199995,,,,,,,,,322.30465439999534,323.52029459999176,324.3210287999973,324.30342869999004,324.303453200002,324.3210287999973,324.3210287999973,324.3210287999973,326.32034939998994,left,1.0,17.292077500009327,,,,,,,,,,,,,,,,,,,,,,,,,,,,,,,,sub-087,1.0,random_dot,59.65900108086464,
right,right,accuracy,,,,,0.0,1.0,1.0,0.0,9.0,1.0,19.0,1.0,326.33505959999457,,,,,,,,,326.3217663999967,326.4353933999955,327.2367741999915,327.2199710999994,327.2199957999983,327.2367741999915,327.2367741999915,327.2367741999915,328.1044952999946,right,1.0,16.151789199997438,,,,,,,,,,,,,,,,,,,,,,,,,,,,,,,,sub-087,1.0,random_dot,59.65900108086464,
left,left,accuracy,,,,,0.0,1.0,1.0,0.0,10.0,0.0,20.0,0.0,328.1190637999971,,,,,,,,,328.1055352999974,329.3192285999976,330.1198153000005,330.1034168999904,330.1034412000008,330.1198153000005,330.1198153000005,330.1198153000005,333.85447819999536,right,0.0,19.02240190000157,,,,,,,,,,,,,,,,,,,,,,,,,,,,,,,,sub-087,1.0,random_dot,59.65900108086464,
right,right,accuracy,,,,,0.0,1.0,1.0,0.0,10.0,1.0,21.0,1.0,333.86928199999966,,,,,,,,,333.85551829999895,334.21900989999995,335.0198562000005,335.0029821999924,335.00300419999985,335.0198562000005,335.0198562000005,335.0198562000005,336.3201843999996,right,1.0,16.59669429999485,,,,,,,,,,,,,,,,,,,,,,,,,,,,,,,,sub-087,1.0,random_dot,59.65900108086464,
right,right,accuracy,,,,,0.0,1.0,1.0,0.0,11.0,0.0,22.0,1.0,336.33519529999467,,,,,,,,,336.3211564999947,336.43593759999203,337.2364368999988,337.21964329999173,337.2196658999892,337.2364368999988,337.2364368999988,337.2364368999988,341.474867500001,right,1.0,19.532604599997285,,,,,,,,,,,,,,,,,,,,,,,,,,,,,,,,sub-087,1.0,random_dot,59.65900108086464,
left,left,accuracy,,,,,0.0,1.0,1.0,0.0,11.0,1.0,23.0,0.0,341.4892375999916,,,,,,,,,341.4759093999892,342.689160599999,343.4904322999937,343.4734674999927,343.4734918999893,343.4904322999937,343.4904322999937,343.4904322999937,344.55768060000264,left,1.0,16.35757749999175,,,,,,,,,,,,,,,,,,,,,,,,,,,,,,,,sub-087,1.0,random_dot,59.65900108086464,
left,left,accuracy,,,,,0.0,1.0,1.0,0.0,12.0,0.0,24.0,0.0,344.5727501999936,,,,,,,,,344.55866609999794,344.67301769999904,345.4734735999955,345.4569405999937,345.45696569999564,345.4734735999955,345.4734735999955,345.4734735999955,350.79018889999134,left,1.0,20.601506099992548,,,,,,,,,,,,,,,,,,,,,,,,,,,350.4569141999964,,,,,sub-087,1.0,random_dot,59.65900108086464,
right,right,accuracy,,,,,0.0,1.0,1.0,0.0,12.0,1.0,25.0,1.0,350.80563750000147,,,,,,,,,350.79146839999885,351.1560770999931,351.95727259998966,351.9402002999996,351.94022499999846,351.95727259998966,351.95727259998966,351.95727259998966,353.425545399994,right,1.0,16.7666642999975,,,,,,,,,,,,,,,,,,,,,,,,,,,,,,,,sub-087,1.0,random_dot,59.65900108086464,
right,right,accuracy,,,,,0.0,1.0,1.0,0.0,13.0,0.0,26.0,1.0,353.4396865000017,,,,,,,,,353.426518399996,354.2398245999939,355.03999379999004,355.02402129999246,355.0240443999937,355.03999379999004,355.03999379999004,355.03999379999004,357.6408775000018,right,1.0,17.88445880000654,,,,,,,,,,,,,,,,,,,,,,,,,,,,,,,,sub-087,1.0,random_dot,59.65900108086464,
left,left,accuracy,,,,,0.0,1.0,1.0,0.0,13.0,1.0,27.0,0.0,357.6556933999964,,,,,,,,,357.64219699999376,358.4561332000012,359.256529899998,359.24007939999865,359.2401036999945,359.256529899998,359.256529899998,359.256529899998,363.2453892999911,left,1.0,19.28359230000933,,,,,,,,,,,,,,,,,,,,,,,,,,,,,,,,sub-087,1.0,random_dot,59.65900108086464,
left,left,accuracy,,,,,0.0,1.0,1.0,0.0,14.0,0.0,28.0,0.0,363.2605998999934,,,,,,,,,363.246350299989,364.0605152999924,364.87662969999656,364.85992350000015,364.859942199997,364.87662969999656,364.87662969999656,364.87662969999656,367.07917240000097,left,1.0,17.50176499999361,,,,,,,,,,,,,,,,,,,,,,,,,,,,,,,,sub-087,1.0,random_dot,59.65900108086464,
right,right,accuracy,,,,,0.0,1.0,1.0,0.0,14.0,1.0,29.0,1.0,367.0950307000021,,,,,,,,,367.0800930999976,368.2934872999904,369.0944010999956,369.0774546999892,369.0774775999889,369.0944010999956,369.0944010999956,369.0944010999956,374.9114256999892,right,1.0,21.10135929999524,,,,,,,,,,,,,,,,,,,,,,,,,,,374.0769191,,,,,sub-087,1.0,random_dot,59.65900108086464,
left,left,accuracy,,,,,0.0,1.0,1.0,0.0,15.0,0.0,30.0,0.0,374.9260421999934,,,,,,,,,374.9124947999953,376.1263152999891,376.9280782999994,376.9105734999903,376.9105976999999,376.9280782999994,376.9280782999994,376.9280782999994,380.1279990999901,left,1.0,18.498488900004304,,,,,,,,,,,,,,,,,,,,,,,,,,,,,,,,sub-087,1.0,random_dot,59.65900108086464,
right,right,accuracy,,,,,0.0,1.0,1.0,0.0,15.0,1.0,31.0,1.0,380.1429147000017,,,,,,,,,380.12969560000056,380.49313309999707,381.2992865999986,381.2773285000003,381.2773489999963,381.2992865999986,381.2992865999986,381.2992865999986,386.32768649999343,left,0.0,20.31922559998929,,,,,,,,,,,,,,,,,,,,,,,,,,,386.2766495999968,,,,,sub-087,1.0,random_dot,59.65900108086464,
right,right,accuracy,,,,,0.0,1.0,1.0,0.0,16.0,0.0,32.0,1.0,386.34274300000106,,,,,,,,,386.3287018999981,387.1429011,387.9438855999906,387.9270213999989,387.9270491999923,387.9438855999906,387.9438855999906,387.9438855999906,389.0443735000008,right,1.0,16.393255899994983,,,,,,,,,,,,,,,,,,,,,,,,,,,,,,,,sub-087,1.0,random_dot,59.65900108086464,
left,left,accuracy,,,,,0.0,1.0,1.0,0.0,16.0,1.0,33.0,0.0,389.0592973000021,,,,,,,,,389.045312599992,390.2595749999891,391.0604603999964,391.0430168000021,391.04303739999887,391.0604603999964,391.0604603999964,391.0604603999964,393.9946176999947,left,1.0,18.21900850000384,,,,,,,,,,,,,,,,,,,,,,,,,,,,,,,,sub-087,1.0,random_dot,59.65900108086464,
left,left,accuracy,,,,,0.0,1.0,1.0,0.0,17.0,0.0,34.0,0.0,394.0090104999981,,,,,,,,,393.9958689999912,394.1094256999932,394.9100987999991,394.8933226999943,394.8933471999917,394.9100987999991,394.9100987999991,394.9100987999991,398.926976799994,right,0.0,19.31269419999444,,,,,,,,,,,,,,,,,,,,,,,,,,,,,,,,sub-087,1.0,random_dot,59.65900108086464,
right,right,accuracy,,,,,0.0,1.0,1.0,0.0,17.0,1.0,35.0,1.0,398.9417378999933,,,,,,,,,398.9282297000027,400.1426693999965,400.9438255999994,400.9261705999961,400.9261986999918,400.9438255999994,400.9438255999994,400.9438255999994,402.5616537000024,right,1.0,16.909182899995358,,,,,,,,,,,,,,,,,,,,,,,,,,,,,,,,sub-087,1.0,random_dot,59.65900108086464,
right,right,accuracy,,,,,0.0,1.0,1.0,0.0,18.0,0.0,36.0,1.0,402.5765260999906,,,,,,,,,402.5630575999967,403.3763304000022,404.1777943999914,404.1610329999967,404.1610564000002,404.1777943999914,404.1777943999914,404.1777943999914,408.1782584999892,right,1.0,19.288475999986986,,,,,,,,,,,,,,,,,,,,,,,,,,,,,,,,sub-087,1.0,random_dot,59.65900108086464,
left,left,accuracy,,,,,0.0,1.0,1.0,0.0,18.0,1.0,37.0,0.0,408.1930861000001,,,,,,,,,408.1792948999937,408.543081900003,409.3436501999968,409.3276345999912,409.3276587,409.3436501999968,409.3436501999968,409.3436501999968,410.7781776999909,left,1.0,16.72938439999416,,,,,,,,,,,,,,,,,,,,,,,,,,,,,,,,sub-087,1.0,random_dot,59.65900108086464,
right,right,accuracy,,,,,0.0,1.0,1.0,0.0,19.0,0.0,38.0,1.0,410.79289569999673,,,,,,,,,410.77941740000097,411.1432201999996,411.9435254999989,411.92648870000266,411.9265102999925,411.9435254999989,411.9435254999989,411.9435254999989,414.5274128000019,left,0.0,17.87800359999528,,,,,,,,,,,,,,,,,,,,,,,,,,,,,,,,sub-087,1.0,random_dot,59.65900108086464,
left,left,accuracy,,,,,0.0,1.0,1.0,0.0,19.0,1.0,39.0,0.0,414.5428009000025,,,,,,,,,414.5284023999993,415.7429188999959,416.54343209999206,416.5270840000012,416.5271035999904,416.54343209999206,416.54343209999206,416.54343209999206,418.2946602000011,right,0.0,17.039717200008454,,,,,,,,,,,,,,,,,,,,,,,,,,,,,,,,sub-087,1.0,random_dot,59.65900108086464,
right,right,accuracy,,,,,0.0,1.0,1.0,0.0,20.0,0.0,40.0,1.0,418.3090633999964,,,,,,,,,418.2956392999913,419.5094790000003,420.31034359999467,420.2934372000018,420.2934568999917,420.31034359999467,420.31034359999467,420.31034359999467,422.4948097000015,right,1.0,17.47335309999471,,,,,,,,,,,,,,,,,,,,,,,,,,,,,,,,sub-087,1.0,random_dot,59.65900108086464,
left,left,accuracy,,,,,0.0,1.0,1.0,0.0,20.0,1.0,41.0,0.0,422.510220199998,,,,,,,,,422.4957638999913,422.8592592999921,423.66082710000046,423.6440581999923,423.64408179999737,423.66082710000046,423.66082710000046,423.66082710000046,425.911540999994,left,1.0,17.546260600007372,,,,,,,,,,,,,,,,,,,,,,,,,,,,,,,,sub-087,1.0,random_dot,59.65900108086464,
right,right,accuracy,,,,,0.0,1.0,1.0,0.0,21.0,0.0,42.0,1.0,425.9261346999992,,,,,,,,,425.9125872000004,426.0261896000011,426.8265955999959,426.81023039999127,426.8102502999973,426.8265955999959,426.8265955999959,426.8265955999959,430.2135693000018,right,1.0,18.68073079999885,,,,,,,,,,,,,,,,,,,,,,,,,,,,,,,,sub-087,1.0,random_dot,59.65900108086464,
left,left,accuracy,,,,,0.0,1.0,1.0,0.0,21.0,1.0,43.0,0.0,430.2268585999991,,,,,,,,,430.2149654999957,431.4266786999942,432.2274488999974,432.2104507999902,432.2104745999968,432.2274488999974,432.2274488999974,432.2274488999974,433.42818439999246,left,1.0,16.49554599999101,,,,,,,,,,,,,,,,,,,,,,,,,,,,,,,,sub-087,1.0,random_dot,59.65900108086464,
right,right,accuracy,,,,,0.0,1.0,1.0,0.0,22.0,0.0,44.0,1.0,433.4430728000007,,,,,,,,,433.4291545000015,433.7929680999951,434.5933281999896,434.5813589000026,434.5813835000008,434.5933281999896,434.5933281999896,434.5933281999896,435.8109295999893,right,1.0,16.509116000001086,,,,,,,,,,,,,,,,,,,,,,,,,,,,,,,,sub-087,1.0,random_dot,59.65900108086464,
left,left,accuracy,,,,,0.0,1.0,1.0,0.0,22.0,1.0,45.0,0.0,435.8259251999989,,,,,,,,,435.81189040000027,437.0262091999903,437.82661740000185,437.8103460999992,437.8103673000005,437.82661740000185,437.82661740000185,437.82661740000185,439.11042119999183,left,1.0,16.57645560000674,,,,,,,,,,,,,,,,,,,,,,,,,,,,,,,,sub-087,1.0,random_dot,59.65900108086464,
right,right,accuracy,,,,,0.0,1.0,1.0,0.0,23.0,0.0,46.0,1.0,439.1254082999949,,,,,,,,,439.11135439999634,439.92598289999296,440.7280267000024,440.7102260999964,440.7102501999907,440.7280267000024,440.7280267000024,440.7280267000024,442.01103539999167,right,1.0,16.572213399995235,,,,,,,,,,,,,,,,,,,,,,,,,,,,,,,,sub-087,1.0,random_dot,59.65900108086464,
left,left,accuracy,,,,,0.0,1.0,1.0,0.0,23.0,1.0,47.0,0.0,442.02590539999073,,,,,,,,,442.01231029999326,442.82572660000005,443.6261107000028,443.6100017999997,443.6100296999939,443.6261107000028,443.6261107000028,443.6261107000028,444.9947281999921,left,1.0,16.66689409999526,,,,,,,,,,,,,,,,,,,,,,,,,,,,,,,,sub-087,1.0,random_dot,59.65900108086464,
left,left,accuracy,,,,,0.0,1.0,1.0,0.0,24.0,0.0,48.0,0.0,445.008983599997,,,,,,,,,444.9956879999954,445.1100431999948,445.911053399992,445.8935551000032,445.893581700002,445.911053399992,445.911053399992,445.911053399992,448.26185429999896,right,0.0,17.65022399999725,,,,,,,,,,,,,,,,,,,,,,,,,,,,,,,,sub-087,1.0,random_dot,59.65900108086464,
right,right,accuracy,,,,,0.0,1.0,1.0,0.0,24.0,1.0,49.0,1.0,448.2760707999987,,,,,,,,,448.2628917999973,449.4757088999904,450.27720260000206,450.2597284999938,450.25974889998906,450.27720260000206,450.27720260000206,450.27720260000206,451.51102700000047,right,1.0,16.532029399997555,,,,,,,,,,,,,,,,,,,,,,,,,,,,,,,,sub-087,1.0,random_dot,59.65900108086464,
right,right,accuracy,,,,,0.0,1.0,1.0,0.0,25.0,0.0,50.0,1.0,451.5257369000028,,,,,,,,,451.5129725000006,452.3259163999901,453.1263736999972,453.1097201999946,453.109741399996,453.1263736999972,453.1263736999972,453.1263736999972,454.4277920000022,right,1.0,16.589421799988486,,,,,,,,,,,,,,,,,,,,,,,,,,,,,,,,sub-087,1.0,random_dot,59.65900108086464,
left,left,accuracy,,,,,0.0,1.0,1.0,0.0,25.0,1.0,51.0,0.0,454.44218759999785,,,,,,,,,454.4290926999965,454.5483172999957,455.3601703000022,455.3425380999979,455.342571000001,455.3601703000022,455.3601703000022,455.3601703000022,456.3939739999914,left,1.0,16.325957900000503,,,,,,,,,,,,,,,,,,,,,,,,,,,,,,,,sub-087,1.0,random_dot,59.65900108086464,
left,left,accuracy,,,,,0.0,1.0,1.0,0.0,26.0,0.0,52.0,0.0,456.4088592999906,,,,,,,,,456.3952376999951,457.6083726999932,458.41042899999593,458.39330759999575,458.39333110000007,458.41042899999593,458.41042899999593,458.41042899999593,459.2943438999937,left,1.0,16.169294999999693,,,,,,,,,,,,,,,,,,,,,,,,,,,,,,,,sub-087,1.0,random_dot,59.65900108086464,
right,right,accuracy,,,,,0.0,1.0,1.0,0.0,26.0,1.0,53.0,1.0,459.3089801000024,,,,,,,,,459.29533199999423,460.5088773000025,461.3132697999972,461.29566689999774,461.2956998000009,461.3132697999972,461.3132697999972,461.3132697999972,462.4466967999906,right,1.0,16.420788600007654,,,,,,,,,,,,,,,,,,,,,,,,,,,,,,,,sub-087,1.0,random_dot,59.65900108086464,
right,right,accuracy,,,,,0.0,1.0,1.0,0.0,27.0,0.0,54.0,1.0,462.4620065999916,,,,,,,,,462.4479585999943,462.8121058999968,463.6131823999895,463.5963566999999,463.59638019998965,463.6131823999895,463.6131823999895,463.6131823999895,464.7671739999933,right,1.0,16.453457200012053,,,,,,,,,,,,,,,,,,,,,,,,,,,,,,,,sub-087,1.0,random_dot,59.65900108086464,
left,left,accuracy,,,,,0.0,1.0,1.0,0.0,27.0,1.0,55.0,0.0,464.7776204999973,,,,,,,,,464.7681683999981,465.1290485999925,465.9292143999919,465.9123812999897,465.9124072999985,465.9292143999919,465.9292143999919,465.9292143999919,466.59609479999926,left,1.0,15.951511299994309,,,,,,,,,,,,,,,,,,,,,,,,,,,,,,,,sub-087,1.0,random_dot,59.65900108086464,
right,right,accuracy,,,,,0.0,1.0,1.0,0.0,28.0,0.0,56.0,1.0,466.6117957999959,,,,,,,,,466.5973696000001,467.4122808999964,468.2125827999989,468.1957365999988,468.1957582000032,468.2125827999989,468.2125827999989,468.2125827999989,469.2628753000026,right,1.0,16.345588799988036,,,,,,,,,,,,,,,,,,,,,,,,,,,,,,,,sub-087,1.0,random_dot,59.65900108086464,
left,left,accuracy,,,,,0.0,1.0,1.0,0.0,28.0,1.0,57.0,0.0,469.2781421999971,,,,,,,,,469.2638621999941,469.3784594999888,470.1789186999959,470.16216569999233,470.162196899997,470.1789186999959,470.1789186999959,470.1789186999959,470.8640522999922,left,1.0,15.968892800010508,,,,,,,,,,,,,,,,,,,,,,,,,,,,,,,,sub-087,1.0,random_dot,59.65900108086464,
left,left,accuracy,,,,,0.0,1.0,1.0,0.0,29.0,0.0,58.0,0.0,470.878773199991,,,,,,,,,470.8650156999938,470.9786612000025,471.77916609999374,471.7624178999977,471.7624472999887,471.77916609999374,471.77916609999374,471.77916609999374,473.2301526999945,left,1.0,16.738727600008133,,,,,,,,,,,,,,,,,,,,,,,,,,,,,,,,sub-087,1.0,random_dot,59.65900108086464,
right,right,accuracy,,,,,0.0,1.0,1.0,0.0,29.0,1.0,59.0,1.0,473.2454712999897,,,,,,,,,473.2311909999989,474.04514319999726,474.8450661999959,474.8285232999915,474.8285450999974,474.8450661999959,474.8450661999959,474.8450661999959,476.1469427999982,right,1.0,16.595309800002724,,,,,,,,,,,,,,,,,,,,,,,,,,,,,,,,sub-087,1.0,random_dot,59.65900108086464,
,,accuracy,,,,,0.0,1.0,1.0,0.0,,,,,,,,,,,,,,,,,,,,,,,,,,,,,,,,,,,,,,,,,,,,,,,,,,,,,,,,,sub-087,1.0,random_dot,59.65900108086464,
,,,,,,,,,,,,,,,,,,,,,,,,,,,,,,,,,,,,,,,,,,,,,,,,,,,,,,,,,,,,,,,476.1477205999981,476.16227739999886,481.1617399999959,481.1458503999893,sub-087,,,,
