direction,corrAns,randomInstr,practice_trials.thisRepN,practice_trials.thisTrialN,practice_trials.thisN,practice_trials.thisIndex,instr_trials.thisRepN,instr_trials.thisTrialN,instr_trials.thisN,instr_trials.thisIndex,test_trials.thisRepN,test_trials.thisTrialN,test_trials.thisN,test_trials.thisIndex,thisRow.t,notes,general_instruction.started,textGeneralInstr.started,respGeneralInstr.started,general_instruction.stopped,respGeneralInstr.keys,respGeneralInstr.rt,respGeneralInstr.duration,ITI.started,fixcross.started,fixcross.stopped,ITI.stopped,dots.started,backgroundDots.started,stimulusDots.started,respDots.started,stimulusDots.stopped,dots.stopped,respDots.keys,respDots.corr,respDots.rt,respDots.duration,feedback.started,textFeedback.started,textFeedback.stopped,feedback.stopped,info.started,textInfo.started,keyRespInfo.started,info.stopped,keyRespInfo.keys,keyRespInfo.rt,keyRespInfo.duration,test_instruction.started,textTestInstr.started,respTestInstr.started,test_instruction.stopped,respTestInstr.keys,respTestInstr.rt,respTestInstr.duration,random_instruction.started,textRandomInstr.started,respRandomInstr.started,random_instruction.stopped,respRandomInstr.keys,respRandomInstr.rt,respRandomInstr.duration,goodbye.started,textGoodbye.started,textGoodbye.stopped,goodbye.stopped,participant,session,expName,frameRate,Unnamed: 74
,,,,,,,,,,,,,,,,,0.013527100207284,0.0161671000532805,0.0161671000532805,13.299179300200194,space,25.262496799929067,,,,,,,,,,,,,,,,,,,,,,,,,,,,,,,,,,,,,,,,,,,,,sub-191,1.0,random_dot,60.01568812251773,
right,right,,0.0,0.0,0.0,1.0,,,,,,,,,13.314858000027016,,,,,,,,,13.30757060018368,13.664816800039262,14.465530400164424,14.449143100064248,14.449167900020257,14.465530400164424,14.465530400164424,14.465530400164424,19.464687900152057,20.815531100146472,left,0.0,18.33052519988269,,20.816208800068125,20.83098670002073,21.330990300048143,21.314947200007737,,,,,,,,,,,,,,,,,,,,,,,,,,sub-191,1.0,random_dot,60.01568812251773,
left,left,,0.0,1.0,1.0,0.0,,,,,,,,,21.330990300048143,,,,,,,,,21.315251000225544,21.43106110021472,22.231299800099805,22.215157099999487,22.215187900001183,22.231299800099805,22.231299800099805,22.231299800099805,,25.332310100086037,left,1.0,15.085443199845033,,25.33263450022787,25.34771880018525,25.84739940008149,25.83157250005752,,,,,,,,,,,,,,,,,,,,,,,,,,sub-191,1.0,random_dot,60.01568812251773,
right,right,,1.0,0.0,2.0,1.0,,,,,,,,,25.84739940008149,,,,,,,,,25.831896300194785,25.947427700040866,26.747868800070137,26.73160960013047,26.73163280007429,26.747868800070137,26.747868800070137,26.747868800070137,,27.58235220005736,right,1.0,12.807523699942976,,27.58274220000021,27.597603800008077,28.09725510003045,28.0811351002194,,,,,,,,,,,,,,,,,,,,,,,,,,sub-191,1.0,random_dot,60.01568812251773,
left,left,,1.0,1.0,3.0,0.0,,,,,,,,,28.09725510003045,,,,,,,,,28.081378100207075,29.29734480008483,30.09777530003339,30.081277300138023,30.081300200195983,30.09777530003339,30.09777530003339,30.09777530003339,,30.965025200042877,left,1.0,12.839348799781874,,30.965301200049,30.98049420001917,31.48042990011163,31.46426110016182,,,,,,,,,,,,,,,,,,,,,,,,,,sub-191,1.0,random_dot,60.01568812251773,
left,left,,2.0,0.0,4.0,0.0,,,,,,,,,31.48042990011163,,,,,,,,,31.464507300173864,31.58049010019749,32.380856400122866,32.36456760019064,32.36459890007973,32.380856400122866,32.380856400122866,32.380856400122866,,33.08156030019745,right,0.0,12.675788799766451,,33.08183820010163,33.097172300098464,33.59710420016199,33.58128290018067,,,,,,,,,,,,,,,,,,,,,,,,,,sub-191,1.0,random_dot,60.01568812251773,
right,right,,2.0,1.0,5.0,1.0,,,,,,,,,33.59710420016199,,,,,,,,,33.581578200217336,34.39703230001032,35.19737310009077,35.18130510021001,35.181320500094444,35.19737310009077,35.19737310009077,35.19737310009077,,36.89819260011427,right,1.0,13.68450289987959,,36.89849849999882,36.91357130021788,37.41351030021906,37.39776630001143,,,,,,,,,,,,,,,,,,,,,,,,,,sub-191,1.0,random_dot,60.01568812251773,
right,right,,3.0,0.0,6.0,1.0,,,,,,,,,37.41351030021906,,,,,,,,,37.398085799999535,37.763661600183696,38.56391950021498,38.54776920005679,38.54778350004926,38.56391950021498,38.56391950021498,38.56391950021498,,39.9983918000944,left,0.0,13.420254399767146,,39.99866450019181,40.0135115000885,40.513442600145936,40.497547400183976,,,,,,,,,,,,,,,,,,,,,,,,,,sub-191,1.0,random_dot,60.01568812251773,
left,left,,3.0,1.0,7.0,0.0,,,,,,,,,40.513442600145936,,,,,,,,,40.49808350019157,41.71341390023008,42.51371490000747,42.497412000084296,42.49742980021984,42.51371490000747,42.51371490000747,42.51371490000747,,44.34784510009922,left,1.0,13.818120799958706,,44.34851640020497,44.36327220010571,44.863271000096574,44.84780920017511,,,,,,,,,,,,,,,,,,,,,,,,,,sub-191,1.0,random_dot,60.01568812251773,
right,right,,4.0,0.0,8.0,1.0,,,,,,,,,44.863271000096574,,,,,,,,,44.84837800008245,45.21331820008345,46.01353690004908,45.99688270012848,45.996895500225946,46.01353690004908,46.01353690004908,46.01353690004908,,46.98112820019014,right,1.0,12.949056099867448,,46.98159990017302,46.996449400205165,47.49635660019703,47.48015370010398,,,,,,,,,,,,,,,,,,,,,,,,,,sub-191,1.0,random_dot,60.01568812251773,
left,left,,4.0,1.0,9.0,0.0,,,,,,,,,47.49635660019703,,,,,,,,,47.48040620004758,47.5964157001581,48.39691530005075,48.38045400008559,48.380472100107,48.39691530005075,48.39691530005075,48.39691530005075,,49.41434010001831,left,1.0,12.996186699718235,,49.41491880011745,49.429741400061175,49.92961090011522,49.91390990000218,,,,,,,,,,,,,,,,,,,,,,,,,,sub-191,1.0,random_dot,60.01568812251773,
right,right,,5.0,0.0,10.0,1.0,,,,,,,,,49.92961090011522,,,,,,,,,49.91431130003184,51.129625800065696,51.92998780007474,51.91364290006459,51.91365960007533,51.92998780007474,51.92998780007474,51.92998780007474,,52.69738570018672,right,1.0,12.751160399988294,,52.69785220013,52.71289770002477,53.2131781000644,53.1970592001453,,,,,,,,,,,,,,,,,,,,,,,,,,sub-191,1.0,random_dot,60.01568812251773,
left,left,,5.0,1.0,11.0,0.0,,,,,,,,,53.2131781000644,,,,,,,,,53.19740970013663,53.562745000002906,54.36335180001333,54.34700670000166,54.34702210011892,54.36335180001333,54.36335180001333,54.36335180001333,,55.78083560010418,left,1.0,13.39907389995642,,55.78114640014246,55.79598150006496,56.296012200182304,56.279849000042304,,,,,,,,,,,,,,,,,,,,,,,,,,sub-191,1.0,random_dot,60.01568812251773,
right,right,,6.0,0.0,12.0,1.0,,,,,,,,,56.296012200182304,,,,,,,,,56.28017440019176,57.09614020003937,57.89666600013152,57.88086650008336,57.88090330013074,57.89666600013152,57.89666600013152,57.89666600013152,,58.8824695001822,right,1.0,12.967469799797982,,58.88322540000081,58.896084300009534,59.3960756000597,59.38031330006197,,,,,,,,,,,,,,,,,,,,,,,,,,sub-191,1.0,random_dot,60.01568812251773,
left,left,,6.0,1.0,13.0,0.0,,,,,,,,,59.3960756000597,,,,,,,,,59.38087760005146,60.196144400164485,60.996361900120974,60.97987260017544,60.97990410006605,60.996361900120974,60.996361900120974,60.996361900120974,,61.94771510013379,left,1.0,12.928106899838896,,61.94850250007585,61.962533300044015,62.46249580010772,62.44646710017696,,,,,,,,,,,,,,,,,,,,,,,,,,sub-191,1.0,random_dot,60.01568812251773,
left,left,,7.0,0.0,14.0,0.0,,,,,,,,,62.46249580010772,,,,,,,,,62.44709120015614,62.56268330011517,63.36277010012418,63.34724970022216,63.347280100220814,63.36277010012418,63.36277010012418,63.36277010012418,,64.53131210012361,right,0.0,13.150983699830247,,64.53204040019773,64.54601280018687,65.04583300021477,65.03037340007722,,,,,,,,,,,,,,,,,,,,,,,,,,sub-191,1.0,random_dot,60.01568812251773,
right,right,,7.0,1.0,15.0,1.0,,,,,,,,,65.04583300021477,,,,,,,,,65.03113700007088,65.14598650019616,65.94622490019538,65.93010500003584,65.93014200008474,65.94622490019538,65.94622490019538,65.94622490019538,,67.54718940006569,right,1.0,13.575060199713334,,67.54786280007102,67.56223010015674,68.06239250022918,68.04679310019128,,,,,,,,,,,,,,,,,,,,,,,,,,sub-191,1.0,random_dot,60.01568812251773,
left,left,,8.0,0.0,16.0,0.0,,,,,,,,,68.06239250022918,,,,,,,,,68.04747180012055,69.26228020014241,70.06258090003394,70.04678470012732,70.04681310011074,70.06258090003394,70.06258090003394,70.06258090003394,,73.4804145002272,left,1.0,15.395835699746383,,73.48127900017425,73.49536160007119,73.99538080021739,73.9797413002234,,,,,,,,,,,,,,,,,,,,,,,,,,sub-191,1.0,random_dot,60.01568812251773,
right,right,,8.0,1.0,17.0,1.0,,,,,,,,,73.99538080021739,,,,,,,,,73.98039590008557,74.09538310021162,74.89582520001568,74.87962570018135,74.8796605002135,74.89582520001568,74.89582520001568,74.89582520001568,,75.88037760020234,right,1.0,12.96649009990506,,75.88121960009448,75.89520650007762,76.39518980006687,76.379657600075,,,,,,,,,,,,,,,,,,,,,,,,,,sub-191,1.0,random_dot,60.01568812251773,
left,left,,9.0,0.0,18.0,0.0,,,,,,,,,76.39518980006687,,,,,,,,,76.38030910002999,76.49526210012846,77.2956427000463,77.27975810016505,77.27979970001616,77.2956427000463,77.2956427000463,77.2956427000463,,78.1803072001785,left,1.0,12.858059599762782,,78.1815392000135,78.195126300212,78.69519720016979,78.67940770019777,,,,,,,,,,,,,,,,,,,,,,,,,,sub-191,1.0,random_dot,60.01568812251773,
right,right,,9.0,1.0,19.0,1.0,,,,,,,,,78.69519720016979,,,,,,,,,78.67998910020106,79.89518910017796,80.69552200008184,80.67923310003243,80.67926990007982,80.69552200008184,80.69552200008184,80.69552200008184,,81.64754100004211,right,1.0,12.93636789987795,,81.64829020015895,81.66185700008646,82.16161320009269,82.14622550015338,,,,,,,,,,,,,,,,,,,,,,,,,,sub-191,1.0,random_dot,60.01568812251773,
,,,,,,,,,,,,,,,,,,,,,,,,,,,,,,,,,,,,,,,,,,82.14633840019815,82.16161320009269,82.16161320009269,85.1315127001144,space,14.954128799960015,,,,,,,,,,,,,,,,,,,,sub-191,1.0,random_dot,60.01568812251773,
,,,,,,,,,,,,,,,,,,,,,,,,,,,,,,,,,,,,,,,,,,,,,,,,,85.13158840010874,85.14504760014825,85.14504760014825,90.21263720002024,space,17.04359019990079,,,,,,,,,,,,,sub-191,1.0,random_dot,60.01568812251773,
right,right,speed,,,,,0.0,0.0,0.0,1.0,0.0,0.0,0.0,1.0,92.8293180000037,,,,,,,,,92.82576180016622,93.17791290022431,93.97829360002652,93.96213250001892,93.96216720016672,93.97829360002652,93.97829360002652,93.97829360002652,,94.5301551001612,right,1.0,12.53360789990984,,,,,,,,,,,,,,,,,,,,90.220075200079,90.24325160006993,90.24325160006993,92.81373330019414,space,14.55506939976476,,,,,,sub-191,1.0,random_dot,60.01568812251773,
left,left,speed,,,,,0.0,0.0,0.0,1.0,0.0,1.0,1.0,0.0,94.54429720016196,,,,,,,,,94.53204160020688,94.8943432001397,95.69463680009358,95.678662000224,95.67869390011764,95.69463680009358,95.69463680009358,95.69463680009358,,96.24600150017068,left,1.0,12.528408999787644,,,,,,,,,,,,,,,,,,,,,,,,,,,,,,,sub-191,1.0,random_dot,60.01568812251773,
right,right,speed,,,,,0.0,0.0,0.0,1.0,1.0,0.0,2.0,1.0,96.26089250016958,,,,,,,,,96.24736240017228,96.61093600001186,97.41122290003112,97.39540030015633,97.39543260005304,97.41122290003112,97.41122290003112,97.41122290003112,,98.26266590016894,right,1.0,12.831726100062951,,,,,,,,,,,,,,,,,,,,,,,,,,,,,,,sub-191,1.0,random_dot,60.01568812251773,
left,left,speed,,,,,0.0,0.0,0.0,1.0,1.0,1.0,3.0,0.0,98.27760420017876,,,,,,,,,98.2641317001544,98.6276980000548,99.42783260019496,99.4117451000493,99.41176990000532,99.42783260019496,99.42783260019496,99.42783260019496,,100.02940390002914,left,1.0,12.581612299894914,,,,,,,,,,,,,,,,,,,,,,,,,,,,,,,sub-191,1.0,random_dot,60.01568812251773,
left,left,speed,,,,,0.0,0.0,0.0,1.0,2.0,0.0,4.0,0.0,100.04404340009204,,,,,,,,,100.03085190011188,100.84408000018448,101.64466340001673,101.628703400027,101.62874130019918,101.64466340001673,101.64466340001673,101.64466340001673,,102.9122359000612,left,1.0,13.253428899915887,,,,,,,,,,,,,,,,,,,,,,,,,,,,,,,sub-191,1.0,random_dot,60.01568812251773,
right,right,speed,,,,,0.0,0.0,0.0,1.0,2.0,1.0,5.0,1.0,102.92746850010008,,,,,,,,,102.91287520015612,103.02729009999894,103.82761280005798,103.81112420000136,103.81115650013088,103.82761280005798,103.82761280005798,103.82761280005798,,104.6789044002071,right,1.0,12.82899079984054,,,,,,,,,,,,,,,,,,,,,,,,,,,,,,,sub-191,1.0,random_dot,60.01568812251773,
left,left,speed,,,,,0.0,0.0,0.0,1.0,3.0,0.0,6.0,0.0,104.69385050004348,,,,,,,,,104.68033790006302,105.4938905001618,106.29415210010484,106.27777460007928,106.27780400007032,106.29415210010484,106.29415210010484,106.29415210010484,,107.36280440003613,left,1.0,13.050275899935514,,,,,,,,,,,,,,,,,,,,,,,,,,,,,,,sub-191,1.0,random_dot,60.01568812251773,
right,right,speed,,,,,0.0,0.0,0.0,1.0,3.0,1.0,7.0,1.0,107.3772194001358,,,,,,,,,107.36422810005024,107.47714250022544,108.27739070006646,108.26145390002056,108.26148420013487,108.27739070006646,108.27739070006646,108.27739070006646,,109.12981770001352,right,1.0,12.8354271997232,,,,,,,,,,,,,,,,,,,,,,,,,,,,,,,sub-191,1.0,random_dot,60.01568812251773,
left,left,speed,,,,,0.0,0.0,0.0,1.0,4.0,0.0,8.0,0.0,109.14365920005366,,,,,,,,,109.1314134001732,109.49366780021228,110.29412260022946,110.27821590006351,110.27825370011853,110.29412260022946,110.29412260022946,110.29412260022946,,111.6456482000649,left,1.0,13.335137899732215,,,,,,,,,,,,,,,,,,,,,,,,,,,,,,,sub-191,1.0,random_dot,60.01568812251773,
right,right,speed,,,,,0.0,0.0,0.0,1.0,4.0,1.0,9.0,1.0,111.66020300006494,,,,,,,,,111.64714760007335,112.01017850008792,112.81051880004816,112.79430460021833,112.7943336002063,112.81051880004816,112.81051880004816,112.81051880004816,,114.11301290011032,right,1.0,13.287697199732063,,,,,,,,,,,,,,,,,,,,,,,,,,,,,,,sub-191,1.0,random_dot,60.01568812251773,
left,left,speed,,,,,0.0,0.0,0.0,1.0,5.0,0.0,10.0,0.0,114.12675480009057,,,,,,,,,114.11444950010628,114.2267555000726,115.02719210018404,115.01121190004052,115.01125070010312,115.02719210018404,115.02719210018404,115.02719210018404,,116.22838110011072,left,1.0,13.18075879989192,,,,,,,,,,,,,,,,,,,,,,,,,,,,,,,sub-191,1.0,random_dot,60.01568812251773,
right,right,speed,,,,,0.0,0.0,0.0,1.0,5.0,1.0,11.0,1.0,116.243358500069,,,,,,,,,116.22978010005318,117.04323590011336,117.84365320019424,117.82756040012464,117.8275892001111,117.84365320019424,117.84365320019424,117.84365320019424,,119.94581950013526,right,1.0,14.08758379984647,,,,,,,,,,,,,,,,,,,,,,,,,,,,,,,sub-191,1.0,random_dot,60.01568812251773,
right,right,speed,,,,,0.0,0.0,0.0,1.0,6.0,0.0,12.0,1.0,119.9600454000756,,,,,,,,,119.94733790005556,120.06001900020055,120.86035420000552,120.84423770010471,120.84427640005016,120.86035420000552,120.86035420000552,120.86035420000552,,122.51254240004346,left,0.0,13.637178699718788,,,,,,,,,,,,,,,,,,,,,,,,,,,,,,,sub-191,1.0,random_dot,60.01568812251773,
left,left,speed,,,,,0.0,0.0,0.0,1.0,6.0,1.0,13.0,0.0,122.52643470000476,,,,,,,,,122.51400500000454,123.726441900013,124.52685720007868,124.51072350004688,124.51076140021904,124.52685720007868,124.52685720007868,124.52685720007868,,125.56114960019475,right,0.0,13.010436999844387,,,,,,,,,,,,,,,,,,,,,,,,,,,,,,,sub-191,1.0,random_dot,60.01568812251773,
right,right,speed,,,,,0.0,0.0,0.0,1.0,7.0,0.0,14.0,1.0,125.5762016000226,,,,,,,,,125.56255920021796,126.37618900020608,127.17689650016835,127.16058560018428,127.16062360000797,127.17689650016835,127.17689650016835,127.17689650016835,,128.91182750021107,right,1.0,13.715632000006735,,,,,,,,,,,,,,,,,,,,,,,,,,,,,,,sub-191,1.0,random_dot,60.01568812251773,
left,left,speed,,,,,0.0,0.0,0.0,1.0,7.0,1.0,15.0,0.0,128.9260566001758,,,,,,,,,128.91322410013527,129.72604890004732,130.52650900022127,130.5103229000233,130.51035720016807,130.52650900022127,130.52650900022127,130.52650900022127,,131.72878070012666,left,1.0,13.186496699927376,,,,,,,,,,,,,,,,,,,,,,,,,,,,,,,sub-191,1.0,random_dot,60.01568812251773,
right,right,speed,,,,,0.0,0.0,0.0,1.0,8.0,0.0,16.0,1.0,131.7425922001712,,,,,,,,,131.73098930018023,131.84258680022322,132.6431277000811,132.6272445002105,132.62727480009198,132.6431277000811,132.6431277000811,132.6431277000811,,133.51109560020268,right,1.0,12.838278099894524,,,,,,,,,,,,,,,,,,,,,,,,,,,,,,,sub-191,1.0,random_dot,60.01568812251773,
left,left,speed,,,,,0.0,0.0,0.0,1.0,8.0,1.0,17.0,0.0,133.52578560006805,,,,,,,,,133.51246180012822,134.72593910014257,135.5262939000968,135.5101124001667,135.51016550022177,135.5262939000968,135.5262939000968,135.5262939000968,,136.4109441000037,left,1.0,12.85489759990014,,,,,,,,,,,,,,,,,,,,,,,,,,,,,,,sub-191,1.0,random_dot,60.01568812251773,
right,right,speed,,,,,0.0,0.0,0.0,1.0,9.0,0.0,18.0,1.0,136.42607060004957,,,,,,,,,136.412706800038,137.62592720007524,138.42613430018537,138.4099338001106,138.4099612000864,138.42613430018537,138.42613430018537,138.42613430018537,,139.31189650017768,right,1.0,12.869384999852628,,,,,,,,,,,,,,,,,,,,,,,,,,,,,,,sub-191,1.0,random_dot,60.01568812251773,
left,left,speed,,,,,0.0,0.0,0.0,1.0,9.0,1.0,19.0,0.0,139.32558320020323,,,,,,,,,139.31343840016052,140.52568120020442,141.3260475001298,141.30948470020667,141.30951060005464,141.3260475001298,141.3260475001298,141.3260475001298,,142.4770552001428,left,1.0,13.124818199779838,,,,,,,,,,,,,,,,,,,,,,,,,,,,,,,sub-191,1.0,random_dot,60.01568812251773,
right,right,speed,,,,,0.0,0.0,0.0,1.0,10.0,0.0,20.0,1.0,142.49224900011905,,,,,,,,,142.47844340000302,143.292326600058,144.09261870011687,144.07644200022332,144.07647700002417,144.09261870011687,144.09261870011687,144.09261870011687,,144.9771871000994,right,1.0,12.864761299686506,,,,,,,,,,,,,,,,,,,,,,,,,,,,,,,sub-191,1.0,random_dot,60.01568812251773,
left,left,speed,,,,,0.0,0.0,0.0,1.0,10.0,1.0,21.0,0.0,144.99196950020269,,,,,,,,,144.97864520014264,145.3420985001139,146.1425585001707,146.1264880001545,146.1265159000177,146.1425585001707,146.1425585001707,146.1425585001707,,147.19295880012214,left,1.0,13.021389599889517,,,,,,,,,,,,,,,,,,,,,,,,,,,,,,,sub-191,1.0,random_dot,60.01568812251773,
left,left,speed,,,,,0.0,0.0,0.0,1.0,11.0,0.0,22.0,0.0,147.20874330005608,,,,,,,,,147.19347000005655,147.30863380013034,148.10892340005375,148.09264930011705,148.0926805001218,148.10892340005375,148.10892340005375,148.10892340005375,,150.72669790009968,left,1.0,14.58844339987263,,,,,,,,,,,,,,,,,,,,,,,,,,,,,,,sub-191,1.0,random_dot,60.01568812251773,
right,right,speed,,,,,0.0,0.0,0.0,1.0,11.0,1.0,23.0,1.0,150.74171160021797,,,,,,,,,150.7280802000314,151.54183120001107,152.34209530008957,152.32579370005988,152.32582410005853,152.34209530008957,152.34209530008957,152.34209530008957,,154.66033990005965,right,1.0,14.290988799883053,,,,,,,,,,,,,,,,,,,,,,,,,,,,,,,sub-191,1.0,random_dot,60.01568812251773,
right,right,speed,,,,,0.0,0.0,0.0,1.0,12.0,0.0,24.0,1.0,154.67507280013524,,,,,,,,,154.66184740001336,154.77490300009958,155.57526440010406,155.55897270003334,155.55900140013546,155.57526440010406,155.57526440010406,155.57526440010406,,157.56019129999913,right,1.0,13.963641199748963,,,,,,,,,,,,,,,,,,,,,,,,,,,,,,,sub-191,1.0,random_dot,60.01568812251773,
left,left,speed,,,,,0.0,0.0,0.0,1.0,12.0,1.0,25.0,0.0,157.57478110003285,,,,,,,,,157.5616525001824,158.77478230022825,159.57513530016877,159.55882550007664,159.55885300016962,159.57513530016877,159.57513530016877,159.57513530016877,,160.80964710004628,left,1.0,13.215209999820216,,,,,,,,,,,,,,,,,,,,,,,,,,,,,,,sub-191,1.0,random_dot,60.01568812251773,
right,right,speed,,,,,0.0,0.0,0.0,1.0,13.0,0.0,26.0,1.0,160.82462000008672,,,,,,,,,160.81100350013003,161.62457190011628,162.4248884001281,162.4090678000357,162.40910030016676,162.4248884001281,162.4248884001281,162.4248884001281,,163.50972290011123,right,1.0,13.061105999629945,,,,,,,,,,,,,,,,,,,,,,,,,,,,,,,sub-191,1.0,random_dot,60.01568812251773,
left,left,speed,,,,,0.0,0.0,0.0,1.0,13.0,1.0,27.0,0.0,163.52440480003133,,,,,,,,,163.51127580017783,164.32440520008095,165.1248205001466,165.1085412001703,165.10857150005177,165.1248205001466,165.1248205001466,165.1248205001466,,166.32599400007166,left,1.0,13.178057899931446,,,,,,,,,,,,,,,,,,,,,,,,,,,,,,,sub-191,1.0,random_dot,60.01568812251773,
left,left,speed,,,,,0.0,0.0,0.0,1.0,14.0,0.0,28.0,0.0,166.3409900001716,,,,,,,,,166.32751900004223,167.14094580011442,167.94154880009592,167.9257068000734,167.92574230022728,167.94154880009592,167.94154880009592,167.94154880009592,,169.87579450011253,left,1.0,13.910836099879816,,,,,,,,,,,,,,,,,,,,,,,,,,,,,,,sub-191,1.0,random_dot,60.01568812251773,
right,right,speed,,,,,0.0,0.0,0.0,1.0,14.0,1.0,29.0,1.0,169.89079280011356,,,,,,,,,169.87719620019195,171.0908758000005,171.89116490003653,171.87513170018792,171.87516350019723,171.89116490003653,171.89116490003653,171.89116490003653,,172.75911270012148,right,1.0,12.838736799778417,,,,,,,,,,,,,,,,,,,,,,,,,,,,,,,sub-191,1.0,random_dot,60.01568812251773,
left,left,speed,,,,,0.0,0.0,0.0,1.0,15.0,0.0,30.0,0.0,172.77409670013003,,,,,,,,,172.7606179001741,173.97397640021518,174.77436940022744,174.75801830017008,174.75804570014589,174.77436940022744,174.77436940022744,174.77436940022744,,175.92558270017616,left,1.0,13.133260200032964,,,,,,,,,,,,,,,,,,,,,,,,,,,,,,,sub-191,1.0,random_dot,60.01568812251773,
right,right,speed,,,,,0.0,0.0,0.0,1.0,15.0,1.0,31.0,1.0,175.94069690001197,,,,,,,,,175.92692800005898,177.14050000021234,177.94107160018757,177.92476520012133,177.92479489999823,177.94107160018757,177.94107160018757,177.94107160018757,,178.95892570004798,right,1.0,13.002479099901391,,,,,,,,,,,,,,,,,,,,,,,,,,,,,,,sub-191,1.0,random_dot,60.01568812251773,
left,left,speed,,,,,0.0,0.0,0.0,1.0,16.0,0.0,32.0,0.0,178.97376330010593,,,,,,,,,178.96033590007573,179.07392860017717,179.87415290018544,179.85839160019532,179.85842390009202,179.87415290018544,179.87415290018544,179.87415290018544,,180.5255653001368,left,1.0,12.627700899727644,,,,,,,,,,,,,,,,,,,,,,,,,,,,,,,sub-191,1.0,random_dot,60.01568812251773,
right,right,speed,,,,,0.0,0.0,0.0,1.0,16.0,1.0,33.0,1.0,180.54035300016403,,,,,,,,,180.52702610008416,181.3403366000857,182.14074180019088,182.12454670015725,182.12457710015588,182.14074180019088,182.14074180019088,182.14074180019088,,183.29198470013216,right,1.0,13.125700499862432,,,,,,,,,,,,,,,,,,,,,,,,,,,,,,,sub-191,1.0,random_dot,60.01568812251773,
right,right,speed,,,,,0.0,0.0,0.0,1.0,17.0,0.0,34.0,1.0,183.30693390010856,,,,,,,,,183.29379600007087,183.4070176000241,184.2073920001276,184.19109200011007,184.19112380011936,184.2073920001276,184.2073920001276,184.2073920001276,,185.42610670020804,left,0.0,13.192925699986516,,,,,,,,,,,,,,,,,,,,,,,,,,,,,,,sub-191,1.0,random_dot,60.01568812251773,
left,left,speed,,,,,0.0,0.0,0.0,1.0,17.0,1.0,35.0,0.0,185.44010690017603,,,,,,,,,185.427811200032,186.64018040010703,187.44058180018328,187.4247621002141,187.424799800152,187.44058180018328,187.44058180018328,187.44058180018328,,188.7426980000455,left,1.0,13.286508299643174,,,,,,,,,,,,,,,,,,,,,,,,,,,,,,,sub-191,1.0,random_dot,60.01568812251773,
right,right,speed,,,,,0.0,0.0,0.0,1.0,18.0,0.0,36.0,1.0,188.756991900038,,,,,,,,,188.74426160007715,189.1067483001389,189.90704010007903,189.89084460004236,189.8908786000684,189.90704010007903,189.90704010007903,189.90704010007903,,190.8584879001137,right,1.0,12.930282099870965,,,,,,,,,,,,,,,,,,,,,,,,,,,,,,,sub-191,1.0,random_dot,60.01568812251773,
left,left,speed,,,,,0.0,0.0,0.0,1.0,18.0,1.0,37.0,0.0,190.87318100011908,,,,,,,,,190.85991190001369,190.97329800017175,191.77379240002483,191.75784370000477,191.7578799000476,191.77379240002483,191.77379240002483,191.77379240002483,,193.20827670022845,left,1.0,13.413145900005476,,,,,,,,,,,,,,,,,,,,,,,,,,,,,,,sub-191,1.0,random_dot,60.01568812251773,
right,right,speed,,,,,0.0,0.0,0.0,1.0,19.0,0.0,38.0,1.0,193.2230956000276,,,,,,,,,193.20966140017845,194.42314530001025,195.22353980015032,195.20745670003816,195.20749990013428,195.22353980015032,195.22353980015032,195.22353980015032,,197.0079695000313,right,1.0,13.762364499736575,,,,,,,,,,,,,,,,,,,,,,,,,,,,,,,sub-191,1.0,random_dot,60.01568812251773,
left,left,speed,,,,,0.0,0.0,0.0,1.0,19.0,1.0,39.0,0.0,197.02319070021625,,,,,,,,,197.00932800001465,197.3730131001212,198.17337480001152,198.1571732000448,198.1572079001926,198.17337480001152,198.17337480001152,198.17337480001152,,201.0912576999981,left,1.0,14.892932999879122,,,,,,,,,,,,,,,,,,,,,,,,,,,,,,,sub-191,1.0,random_dot,60.01568812251773,
right,right,speed,,,,,0.0,0.0,0.0,1.0,20.0,0.0,40.0,1.0,201.1060781001579,,,,,,,,,201.0926417000592,201.4561633002013,202.25675050006248,202.24040000000969,202.2404375001788,202.25675050006248,202.25675050006248,202.25675050006248,,204.12522630020976,right,1.0,13.84305449970998,,,,,,,,,,,,,,,,,,,,,,,,,,,,,,,sub-191,1.0,random_dot,60.01568812251773,
left,left,speed,,,,,0.0,0.0,0.0,1.0,20.0,1.0,41.0,0.0,204.13920560013503,,,,,,,,,204.1264839000069,204.48924380005337,205.2897983000148,205.2736450000666,205.273676100187,205.2897983000148,205.2897983000148,205.2897983000148,,207.0410775002092,left,1.0,13.7246118998155,,,,,,,,,,,,,,,,,,,,,,,,,,,,,,,sub-191,1.0,random_dot,60.01568812251773,
left,left,speed,,,,,0.0,0.0,0.0,1.0,21.0,0.0,42.0,0.0,207.05580040020868,,,,,,,,,207.0425240001641,208.25597500009465,209.05614220001732,209.03975170012563,209.03977910010144,209.05614220001732,209.05614220001732,209.05614220001732,,210.4241681999993,left,1.0,13.348277599783614,,,,,,,,,,,,,,,,,,,,,,,,,,,,,,,sub-191,1.0,random_dot,60.01568812251773,
right,right,speed,,,,,0.0,0.0,0.0,1.0,21.0,1.0,43.0,1.0,210.43902700021863,,,,,,,,,210.4255477001425,211.23892850009724,212.03949780017135,212.0229726000689,212.0230019001756,212.03949780017135,212.03949780017135,212.03949780017135,,212.8415961000137,right,1.0,12.779466099804267,,,,,,,,,,,,,,,,,,,,,,,,,,,,,,,sub-191,1.0,random_dot,60.01568812251773,
left,left,speed,,,,,0.0,0.0,0.0,1.0,22.0,0.0,44.0,0.0,212.8554947001394,,,,,,,,,212.84306420013309,213.2054588000756,214.0058421001304,213.99023110000417,213.99026180012152,214.0058421001304,214.0058421001304,214.0058421001304,,214.8072306001559,left,1.0,12.783732999814674,,,,,,,,,,,,,,,,,,,,,,,,,,,,,,,sub-191,1.0,random_dot,60.01568812251773,
right,right,speed,,,,,0.0,0.0,0.0,1.0,22.0,1.0,45.0,1.0,214.82208569999784,,,,,,,,,214.80868810019456,215.6221380000934,216.42241360014305,216.40660560014655,216.4066412001848,216.42241360014305,216.42241360014305,216.42241360014305,,217.32362600020133,right,1.0,12.876681399997324,,,,,,,,,,,,,,,,,,,,,,,,,,,,,,,sub-191,1.0,random_dot,60.01568812251773,
left,left,speed,,,,,0.0,0.0,0.0,1.0,23.0,0.0,46.0,0.0,217.3386759001296,,,,,,,,,217.32571330014616,218.5385852002073,219.33889590017495,219.3227846000809,219.3228367001284,219.33889590017495,219.33889590017495,219.33889590017495,,221.14008600008677,left,1.0,13.78093729983084,,,,,,,,,,,,,,,,,,,,,,,,,,,,,,,sub-191,1.0,random_dot,60.01568812251773,
right,right,speed,,,,,0.0,0.0,0.0,1.0,23.0,1.0,47.0,1.0,221.1553580001928,,,,,,,,,221.14139470015647,221.5051250001416,222.3057740000077,222.28902690019456,222.28904020017944,222.3057740000077,222.3057740000077,222.3057740000077,,223.407068700064,right,1.0,13.077346100006253,,,,,,,,,,,,,,,,,,,,,,,,,,,,,,,sub-191,1.0,random_dot,60.01568812251773,
left,left,speed,,,,,0.0,0.0,0.0,1.0,24.0,0.0,48.0,0.0,223.4217921001837,,,,,,,,,223.40852280007675,223.52179810008963,224.32206730009057,224.3065647000913,224.30660350015387,224.32206730009057,224.32206730009057,224.32206730009057,,225.2567430001218,left,1.0,12.911247699754313,,,,,,,,,,,,,,,,,,,,,,,,,,,,,,,sub-191,1.0,random_dot,60.01568812251773,
right,right,speed,,,,,0.0,0.0,0.0,1.0,24.0,1.0,49.0,1.0,225.27163740014657,,,,,,,,,225.25825330009684,225.37207090016452,226.1719579000492,226.1556064002216,226.15563360019587,226.1719579000492,226.1719579000492,226.1719579000492,,227.6238178000785,right,1.0,13.43540609977208,,,,,,,,,,,,,,,,,,,,,,,,,,,,,,,sub-191,1.0,random_dot,60.01568812251773,
right,right,speed,,,,,0.0,0.0,0.0,1.0,25.0,0.0,50.0,1.0,227.63820730010048,,,,,,,,,227.62528320006092,228.8381720001344,229.63851650012657,229.62241520010863,229.62244710000232,229.63851650012657,229.63851650012657,229.63851650012657,,231.14046300016344,right,1.0,13.48675199993886,,,,,,,,,,,,,,,,,,,,,,,,,,,,,,,sub-191,1.0,random_dot,60.01568812251773,
left,left,speed,,,,,0.0,0.0,0.0,1.0,25.0,1.0,51.0,0.0,231.15475500002503,,,,,,,,,231.14205000014044,231.254663300002,232.0550935000647,232.0390654001385,232.03910020017065,232.0550935000647,232.0550935000647,232.0550935000647,,233.1569647002034,left,1.0,13.082808999810368,,,,,,,,,,,,,,,,,,,,,,,,,,,,,,,sub-191,1.0,random_dot,60.01568812251773,
right,right,speed,,,,,0.0,0.0,0.0,1.0,26.0,0.0,52.0,1.0,233.171274300199,,,,,,,,,233.15845730016008,233.27130270004272,234.07156290020797,234.0553284001071,234.0553584001027,234.07156290020797,234.07156290020797,234.07156290020797,,235.38956830021925,right,1.0,13.297086999751627,,,,,,,,,,,,,,,,,,,,,,,,,,,,,,,sub-191,1.0,random_dot,60.01568812251773,
left,left,speed,,,,,0.0,0.0,0.0,1.0,26.0,1.0,53.0,0.0,235.4044594001025,,,,,,,,,235.3910023001954,235.50445200013928,236.3048728001304,236.28878910001367,236.2888161002193,236.3048728001304,236.3048728001304,236.3048728001304,,237.68998810020275,left,1.0,13.369037699885666,,,,,,,,,,,,,,,,,,,,,,,,,,,,,,,sub-191,1.0,random_dot,60.01568812251773,
right,right,speed,,,,,0.0,0.0,0.0,1.0,27.0,0.0,54.0,1.0,237.7043004001025,,,,,,,,,237.69159890012816,238.5044455002062,239.3049366001505,239.2885190001689,239.28855760023,239.3049366001505,239.3049366001505,239.3049366001505,,241.657381300116,right,1.0,14.337185999844223,,,,,,,,,,,,,,,,,,,,,,,,,,,,,,,sub-191,1.0,random_dot,60.01568812251773,
left,left,speed,,,,,0.0,0.0,0.0,1.0,27.0,1.0,55.0,0.0,241.67102210014127,,,,,,,,,241.6588136001956,242.47105300007388,243.27123100007884,243.25526110013016,243.25528770009987,243.27123100007884,243.27123100007884,243.27123100007884,,244.72229550010525,left,1.0,13.424329599831252,,,,,,,,,,,,,,,,,,,,,,,,,,,,,,,sub-191,1.0,random_dot,60.01568812251773,
right,right,speed,,,,,0.0,0.0,0.0,1.0,28.0,0.0,56.0,1.0,244.73740270012055,,,,,,,,,244.72379040019587,245.9375013001263,246.7377095001284,246.72160450019877,246.72163780010305,246.7377095001284,246.7377095001284,246.7377095001284,,247.70563850016333,right,1.0,12.94492549984716,,,,,,,,,,,,,,,,,,,,,,,,,,,,,,,sub-191,1.0,random_dot,60.01568812251773,
left,left,speed,,,,,0.0,0.0,0.0,1.0,28.0,1.0,57.0,0.0,247.7205570000224,,,,,,,,,247.70706220017743,248.52073500002732,249.3210805000272,249.30499450000931,249.30503180017692,249.3210805000272,249.3210805000272,249.3210805000272,,250.52369930013083,left,1.0,13.188009799923748,,,,,,,,,,,,,,,,,,,,,,,,,,,,,,,sub-191,1.0,random_dot,60.01568812251773,
right,right,speed,,,,,0.0,0.0,0.0,1.0,29.0,0.0,58.0,1.0,250.53707410022616,,,,,,,,,250.52528930013068,250.6372567000799,251.437648500083,251.4213926000521,251.421428100206,251.437648500083,251.437648500083,251.437648500083,,253.57211050018668,right,1.0,14.106370199704545,,,,,,,,,,,,,,,,,,,,,,,,,,,,,,,sub-191,1.0,random_dot,60.01568812251773,
left,left,speed,,,,,0.0,0.0,0.0,1.0,29.0,1.0,59.0,0.0,253.58705690014176,,,,,,,,,253.57356790010817,254.78696080017835,255.58725590002723,255.5712745001074,255.57130960002544,255.58725590002723,255.58725590002723,255.58725590002723,,256.28943110001273,left,1.0,12.686260699993,,,,,,,,,,,,,,,,,,,,,,,,,,,,,,,sub-191,1.0,random_dot,60.01568812251773,
,,speed,,,,,0.0,0.0,0.0,1.0,,,,,,,,,,,,,,,,,,,,,,,,,,,,,,,,,,,,,,,,,,,,,,,,,,,,,,,,,sub-191,1.0,random_dot,60.01568812251773,
right,right,accuracy,,,,,0.0,1.0,1.0,0.0,0.0,0.0,0.0,1.0,259.5875427001156,,,,,,,,,259.58365590008907,260.3868220001459,261.1870838000905,261.1710804000031,261.17112200008705,261.1870838000905,261.1870838000905,261.1870838000905,,263.9555809001904,right,1.0,14.753580399788916,,,,,,,,,,,,,,,,,,,,256.290749900043,256.304988700198,256.304988700198,259.57237650011666,space,15.25118219992146,,,,,,sub-191,1.0,random_dot,60.01568812251773,
left,left,accuracy,,,,,0.0,1.0,1.0,0.0,0.0,1.0,1.0,0.0,263.9699293000158,,,,,,,,,263.9574306001887,264.76997310016304,265.57035350007936,265.5542027000338,265.554242500104,265.57035350007936,265.57035350007936,265.57035350007936,,267.12132130004466,left,1.0,13.523752099834384,,,,,,,,,,,,,,,,,,,,,,,,,,,,,,,sub-191,1.0,random_dot,60.01568812251773,
left,left,accuracy,,,,,0.0,1.0,1.0,0.0,1.0,0.0,2.0,0.0,267.1363114002161,,,,,,,,,267.1227461001836,268.3363812000025,269.1367090002168,269.1205869000405,269.1206222001929,269.1367090002168,269.1367090002168,269.1367090002168,,272.32142080017366,left,1.0,15.16877119988203,,,,,,,,,,,,,,,,,,,,,,,,,,,,,,,sub-191,1.0,random_dot,60.01568812251773,
right,right,accuracy,,,,,0.0,1.0,1.0,0.0,1.0,1.0,3.0,1.0,272.3361645000987,,,,,,,,,272.3228825000115,273.5363120001275,274.3364392002113,274.3207027001772,274.3207349001896,274.3364392002113,274.3364392002113,274.3364392002113,,275.2211722000502,right,1.0,12.867183099966496,,,,,,,,,,,,,,,,,,,,,,,,,,,,,,,sub-191,1.0,random_dot,60.01568812251773,
left,left,accuracy,,,,,0.0,1.0,1.0,0.0,2.0,0.0,4.0,0.0,275.2359950002283,,,,,,,,,275.22277310001664,275.3361442000605,276.13655080017634,276.1209270001855,276.1209647001233,276.13655080017634,276.13655080017634,276.13655080017634,,277.387759400066,left,1.0,13.235236400039868,,,,,,,,,,,,,,,,,,,,,,,,,,,,,,,sub-191,1.0,random_dot,60.01568812251773,
right,right,accuracy,,,,,0.0,1.0,1.0,0.0,2.0,1.0,5.0,1.0,277.4026599000208,,,,,,,,,277.3891307001468,278.60291300015524,279.402887100121,279.3865646000486,279.3865794001613,279.402887100121,279.402887100121,279.402887100121,,280.82075430010445,right,1.0,13.391948299948126,,,,,,,,,,,,,,,,,,,,,,,,,,,,,,,sub-191,1.0,random_dot,60.01568812251773,
right,right,accuracy,,,,,0.0,1.0,1.0,0.0,3.0,0.0,6.0,1.0,280.83564790012315,,,,,,,,,280.822182700038,281.18589350022376,281.9860224002041,281.96995560009964,281.9699869002216,281.9860224002041,281.9860224002041,281.9860224002041,,285.2209792002104,right,1.0,15.20599569985643,,,,,,,,,,,,,,,,,,,,,,,,,,,,,,,sub-191,1.0,random_dot,60.01568812251773,
left,left,accuracy,,,,,0.0,1.0,1.0,0.0,3.0,1.0,7.0,0.0,285.2355447001755,,,,,,,,,285.2225570001174,285.58560520014726,286.3859778000042,286.370015400229,286.3700522000436,286.3859778000042,286.3859778000042,286.3859778000042,,287.2048365001101,left,1.0,12.80466749984771,,,,,,,,,,,,,,,,,,,,,,,,,,,,,,,sub-191,1.0,random_dot,60.01568812251773,
right,right,accuracy,,,,,0.0,1.0,1.0,0.0,4.0,0.0,8.0,1.0,287.2187828000169,,,,,,,,,287.20622240006924,288.4186824001372,289.21934910002165,289.20289880014025,289.2029276001267,289.21934910002165,289.21934910002165,289.21934910002165,,291.62176060001366,right,1.0,14.387755699688569,,,,,,,,,,,,,,,,,,,,,,,,,,,,,,,sub-191,1.0,random_dot,60.01568812251773,
left,left,accuracy,,,,,0.0,1.0,1.0,0.0,4.0,1.0,9.0,0.0,291.63526850007474,,,,,,,,,291.62325120018795,292.8352066001389,293.63554570009,293.6191841000691,293.6192125000525,293.63554570009,293.63554570009,293.63554570009,,296.1200348001439,left,1.0,14.466998499818146,,,,,,,,,,,,,,,,,,,,,,,,,,,,,,,sub-191,1.0,random_dot,60.01568812251773,
left,left,accuracy,,,,,0.0,1.0,1.0,0.0,5.0,0.0,10.0,0.0,296.1350507000461,,,,,,,,,296.1214480001945,296.48515730001964,297.2854544001166,297.2695160000585,297.26955340011045,297.2854544001166,297.2854544001166,297.2854544001166,,299.17077610013075,left,1.0,13.858333199983464,,,,,,,,,,,,,,,,,,,,,,,,,,,,,,,sub-191,1.0,random_dot,60.01568812251773,
right,right,accuracy,,,,,0.0,1.0,1.0,0.0,5.0,1.0,11.0,1.0,299.1849803000223,,,,,,,,,299.1723896001931,299.2848679001909,300.0853353000712,300.06955170002766,300.0695878001861,300.0853353000712,300.0853353000712,300.0853353000712,,301.5037881000899,right,1.0,13.390309899812564,,,,,,,,,,,,,,,,,,,,,,,,,,,,,,,sub-191,1.0,random_dot,60.01568812251773,
right,right,accuracy,,,,,0.0,1.0,1.0,0.0,6.0,0.0,12.0,1.0,301.51806490006857,,,,,,,,,301.5051217,301.6184587001335,302.4187082001008,302.4023886001669,302.4024191000499,302.4187082001008,302.4187082001008,302.4187082001008,,305.4195892000571,left,0.0,14.981507499702277,,,,,,,,,,,,,,,,,,,,,,,,,,,,,,,sub-191,1.0,random_dot,60.01568812251773,
left,left,accuracy,,,,,0.0,1.0,1.0,0.0,6.0,1.0,13.0,0.0,305.4347326999996,,,,,,,,,305.42095590010285,306.2346796002239,307.0348919001408,307.0190651000012,307.0190933002159,307.0348919001408,307.0348919001408,307.0348919001408,,309.0702561000362,left,1.0,14.020004499936476,,,,,,,,,,,,,,,,,,,,,,,,,,,,,,,sub-191,1.0,random_dot,60.01568812251773,
left,left,accuracy,,,,,0.0,1.0,1.0,0.0,7.0,0.0,14.0,0.0,309.0844899001532,,,,,,,,,309.071611400228,310.28450440010056,311.0847005001269,311.0686041000299,311.06863610004075,311.0847005001269,311.0847005001269,311.0847005001269,,313.3362794001587,left,1.0,14.234133399790151,,,,,,,,,,,,,,,,,,,,,,,,,,,,,,,sub-191,1.0,random_dot,60.01568812251773,
right,right,accuracy,,,,,0.0,1.0,1.0,0.0,7.0,1.0,15.0,1.0,313.35079250019044,,,,,,,,,313.3378581001889,313.450856000185,314.25121250003576,314.2352141002193,314.23525200015865,314.25121250003576,314.25121250003576,314.25121250003576,,315.36977810016833,right,1.0,13.09206399973482,,,,,,,,,,,,,,,,,,,,,,,,,,,,,,,sub-191,1.0,random_dot,60.01568812251773,
right,right,accuracy,,,,,0.0,1.0,1.0,0.0,8.0,0.0,16.0,1.0,315.38415000005625,,,,,,,,,315.3714376001153,316.58461330016144,317.3846115001943,317.3685283001978,317.3685674001463,317.3846115001943,317.3846115001943,317.3846115001943,,320.16907680011354,right,1.0,14.76255099964328,,,,,,,,,,,,,,,,,,,,,,,,,,,,,,,sub-191,1.0,random_dot,60.01568812251773,
left,left,accuracy,,,,,0.0,1.0,1.0,0.0,8.0,1.0,17.0,0.0,320.18412270001136,,,,,,,,,320.1705255000852,320.53389590000734,321.33436070010066,321.3182135000825,321.3182480002288,321.33436070010066,321.33436070010066,321.33436070010066,,322.0855365002062,left,1.0,12.731494199950248,,,,,,,,,,,,,,,,,,,,,,,,,,,,,,,sub-191,1.0,random_dot,60.01568812251773,
left,left,accuracy,,,,,0.0,1.0,1.0,0.0,9.0,0.0,18.0,0.0,322.1004919002298,,,,,,,,,322.08700720011257,322.4505965001881,323.2510132000316,323.23478990001604,323.2348257000558,323.2510132000316,323.2510132000316,323.2510132000316,,324.60341570014134,left,1.0,13.337140899850056,,,,,,,,,,,,,,,,,,,,,,,,,,,,,,,sub-191,1.0,random_dot,60.01568812251773,
right,right,accuracy,,,,,0.0,1.0,1.0,0.0,9.0,1.0,19.0,1.0,324.617191700032,,,,,,,,,324.6047832001932,325.8174356000964,326.6173160001636,326.60185500001535,326.6018891001586,326.6173160001636,326.6173160001636,326.6173160001636,,327.83546030009165,right,1.0,13.198577799834313,,,,,,,,,,,,,,,,,,,,,,,,,,,,,,,sub-191,1.0,random_dot,60.01568812251773,
left,left,accuracy,,,,,0.0,1.0,1.0,0.0,10.0,0.0,20.0,0.0,327.8504365000408,,,,,,,,,327.83707480016164,327.9502168002073,328.7505690001417,328.7346355000045,328.734663200099,328.7505690001417,328.7505690001417,328.7505690001417,,330.33511250000447,left,1.0,13.564701499883084,,,,,,,,,,,,,,,,,,,,,,,,,,,,,,,sub-191,1.0,random_dot,60.01568812251773,
right,right,accuracy,,,,,0.0,1.0,1.0,0.0,10.0,1.0,21.0,1.0,330.35012280009687,,,,,,,,,330.33651280007325,331.55020320019685,332.350532800192,332.3340202001855,332.3340473000426,332.350532800192,332.350532800192,332.350532800192,,333.46877030003816,right,1.0,13.094935999950394,,,,,,,,,,,,,,,,,,,,,,,,,,,,,,,sub-191,1.0,random_dot,60.01568812251773,
right,right,accuracy,,,,,0.0,1.0,1.0,0.0,11.0,0.0,22.0,1.0,333.4833306001965,,,,,,,,,333.4702465001028,334.2833863000851,335.0838659000583,335.06813290016726,335.0681705002208,335.0838659000583,335.0838659000583,335.0838659000583,,336.535429000156,right,1.0,13.43675999972038,,,,,,,,,,,,,,,,,,,,,,,,,,,,,,,sub-191,1.0,random_dot,60.01568812251773,
left,left,accuracy,,,,,0.0,1.0,1.0,0.0,11.0,1.0,23.0,0.0,336.549823500216,,,,,,,,,336.5369466000702,336.89977220003493,337.700123900082,337.68391420017,337.6839435000438,337.700123900082,337.700123900082,337.700123900082,,338.5849922001362,left,1.0,12.868910799967123,,,,,,,,,,,,,,,,,,,,,,,,,,,,,,,sub-191,1.0,random_dot,60.01568812251773,
right,right,accuracy,,,,,0.0,1.0,1.0,0.0,12.0,0.0,24.0,1.0,338.5997062001843,,,,,,,,,338.5870041002054,339.799655900104,340.6000459000934,340.58384530013427,340.58388000004925,340.6000459000934,340.6000459000934,340.6000459000934,,341.91841210005805,right,1.0,13.300037799868733,,,,,,,,,,,,,,,,,,,,,,,,,,,,,,,sub-191,1.0,random_dot,60.01568812251773,
left,left,accuracy,,,,,0.0,1.0,1.0,0.0,12.0,1.0,25.0,0.0,341.9329374001827,,,,,,,,,341.919892200036,342.73292220011353,343.533214900177,343.51682120002806,343.5168459000997,343.533214900177,343.533214900177,343.533214900177,,344.8013611000497,left,1.0,13.24369899998419,,,,,,,,,,,,,,,,,,,,,,,,,,,,,,,sub-191,1.0,random_dot,60.01568812251773,
right,right,accuracy,,,,,0.0,1.0,1.0,0.0,13.0,0.0,26.0,1.0,344.816049200017,,,,,,,,,344.8027419000864,345.1660397001542,345.96653830003925,345.95052630011924,345.95055800001137,345.96653830003925,345.96653830003925,345.96653830003925,,347.234623900149,right,1.0,13.251859699841589,,,,,,,,,,,,,,,,,,,,,,,,,,,,,,,sub-191,1.0,random_dot,60.01568812251773,
left,left,accuracy,,,,,0.0,1.0,1.0,0.0,13.0,1.0,27.0,0.0,347.2493141000159,,,,,,,,,347.23604110023007,347.5994123001583,348.399915400194,348.38409470021725,348.3841305000242,348.399915400194,348.399915400194,348.399915400194,,349.13454870018177,left,1.0,12.713230699766427,,,,,,,,,,,,,,,,,,,,,,,,,,,,,,,sub-191,1.0,random_dot,60.01568812251773,
left,left,accuracy,,,,,0.0,1.0,1.0,0.0,14.0,0.0,28.0,0.0,349.14925340004265,,,,,,,,,349.1361051001586,349.24928070022725,350.0495969001204,350.033384000184,350.033414500067,350.0495969001204,350.0495969001204,350.0495969001204,,352.51739839999937,left,1.0,14.444287599762902,,,,,,,,,,,,,,,,,,,,,,,,,,,,,,,sub-191,1.0,random_dot,60.01568812251773,
right,right,accuracy,,,,,0.0,1.0,1.0,0.0,14.0,1.0,29.0,1.0,352.53242560010403,,,,,,,,,352.51891460013576,353.7324079000391,354.5329364000354,354.51677010022104,354.5168062001467,354.5329364000354,354.5329364000354,354.5329364000354,,355.3019240000285,right,1.0,12.75445539993234,,,,,,,,,,,,,,,,,,,,,,,,,,,,,,,sub-191,1.0,random_dot,60.01568812251773,
right,right,accuracy,,,,,0.0,1.0,1.0,0.0,15.0,0.0,30.0,1.0,355.3156138001941,,,,,,,,,355.30339070013724,355.6659085000865,356.4660826001782,356.4498321001884,356.44986340007745,356.4660826001782,356.4660826001782,356.4660826001782,,357.55034520011395,right,1.0,13.061618899926543,,,,,,,,,,,,,,,,,,,,,,,,,,,,,,,sub-191,1.0,random_dot,60.01568812251773,
left,left,accuracy,,,,,0.0,1.0,1.0,0.0,15.0,1.0,31.0,0.0,357.5654125001747,,,,,,,,,357.5518128001131,357.6656773001887,358.4660652000457,358.4499326001387,358.44996890006587,358.4660652000457,358.4660652000457,358.4660652000457,,360.2171507000457,left,1.0,13.726222899975255,,,,,,,,,,,,,,,,,,,,,,,,,,,,,,,sub-191,1.0,random_dot,60.01568812251773,
right,right,accuracy,,,,,0.0,1.0,1.0,0.0,16.0,0.0,32.0,1.0,360.2321803001687,,,,,,,,,360.2185288001783,361.4321713000536,362.2324630001094,362.2162588001229,362.21629280014895,362.2324630001094,362.2324630001094,362.2324630001094,,362.9011976001784,right,1.0,12.653037999756634,,,,,,,,,,,,,,,,,,,,,,,,,,,,,,,sub-191,1.0,random_dot,60.01568812251773,
left,left,accuracy,,,,,0.0,1.0,1.0,0.0,16.0,1.0,33.0,0.0,362.915310600074,,,,,,,,,362.9027642000001,363.7152443001978,364.5157991000451,364.49935340019874,364.4993814001791,364.5157991000451,364.5157991000451,364.5157991000451,,365.1503530000337,left,1.0,12.606973099755123,,,,,,,,,,,,,,,,,,,,,,,,,,,,,,,sub-191,1.0,random_dot,60.01568812251773,
right,right,accuracy,,,,,0.0,1.0,1.0,0.0,17.0,0.0,34.0,1.0,365.1651497001294,,,,,,,,,365.1519083001185,365.2651829000097,366.0655215000734,366.0497601001989,366.0497935002204,366.0655215000734,366.0655215000734,366.0655215000734,,367.2335195001215,right,1.0,13.146015499718487,,,,,,,,,,,,,,,,,,,,,,,,,,,,,,,sub-191,1.0,random_dot,60.01568812251773,
left,left,accuracy,,,,,0.0,1.0,1.0,0.0,17.0,1.0,35.0,0.0,367.24837280018255,,,,,,,,,367.2349384000991,368.0484393001534,368.8486989000812,368.83283040020615,368.8328712000512,368.8486989000812,368.8486989000812,368.8486989000812,,370.1171056001913,left,1.0,13.25003799982369,,,,,,,,,,,,,,,,,,,,,,,,,,,,,,,sub-191,1.0,random_dot,60.01568812251773,
left,left,accuracy,,,,,0.0,1.0,1.0,0.0,18.0,0.0,36.0,0.0,370.1316138000693,,,,,,,,,370.11863810010254,370.9315824001096,371.7319275001064,371.7161346001085,371.7161962001119,371.7319275001064,371.7319275001064,371.7319275001064,,372.6500558000989,left,1.0,12.898724999744443,,,,,,,,,,,,,,,,,,,,,,,,,,,,,,,sub-191,1.0,random_dot,60.01568812251773,
right,right,accuracy,,,,,0.0,1.0,1.0,0.0,18.0,1.0,37.0,1.0,372.6647302000784,,,,,,,,,372.651502400171,372.7647604001686,373.56542670005,373.54921970004216,373.5492597001139,373.56542670005,373.56542670005,373.56542670005,,375.1180726001039,right,1.0,13.537142899818718,,,,,,,,,,,,,,,,,,,,,,,,,,,,,,,sub-191,1.0,random_dot,60.01568812251773,
left,left,accuracy,,,,,0.0,1.0,1.0,0.0,19.0,0.0,38.0,0.0,375.1313394000754,,,,,,,,,375.11956120003015,375.9315494000912,376.7316871001385,376.7158663000446,376.71589620015584,376.7316871001385,376.7316871001385,376.7316871001385,,378.5001146001741,left,1.0,13.742098199669272,,,,,,,,,,,,,,,,,,,,,,,,,,,,,,,sub-191,1.0,random_dot,60.01568812251773,
right,right,accuracy,,,,,0.0,1.0,1.0,0.0,19.0,1.0,39.0,1.0,378.5147154000588,,,,,,,,,378.501633200096,378.8647678000853,379.6651476002298,379.64917320013046,379.6492061000317,379.6651476002298,379.6651476002298,379.6651476002298,,380.4162296000868,right,1.0,12.722328499890864,,,,,,,,,,,,,,,,,,,,,,,,,,,,,,,sub-191,1.0,random_dot,60.01568812251773,
left,left,accuracy,,,,,0.0,1.0,1.0,0.0,20.0,0.0,40.0,0.0,380.4311425001361,,,,,,,,,380.4177023000084,381.23118480015546,382.0318497000262,382.0161116002128,382.016154800076,382.0318497000262,382.0318497000262,382.0318497000262,,384.2659155000001,left,1.0,14.21577229979448,,,,,,,,,,,,,,,,,,,,,,,,,,,,,,,sub-191,1.0,random_dot,60.01568812251773,
right,right,accuracy,,,,,0.0,1.0,1.0,0.0,20.0,1.0,41.0,1.0,384.2811522001866,,,,,,,,,384.26728460006416,385.0809138000477,385.8812910001725,385.8652731000912,385.8653007000685,385.8812910001725,385.8812910001725,385.8812910001725,,387.3996740002185,right,1.0,13.488982799928635,,,,,,,,,,,,,,,,,,,,,,,,,,,,,,,sub-191,1.0,random_dot,60.01568812251773,
left,left,accuracy,,,,,0.0,1.0,1.0,0.0,21.0,0.0,42.0,0.0,387.41432710015215,,,,,,,,,387.40119780018,388.214143600082,389.0146745000966,388.9993076000828,388.9993482001592,389.0146745000966,389.0146745000966,389.0146745000966,,389.84988460014574,left,1.0,12.812718800036237,,,,,,,,,,,,,,,,,,,,,,,,,,,,,,,sub-191,1.0,random_dot,60.01568812251773,
right,right,accuracy,,,,,0.0,1.0,1.0,0.0,21.0,1.0,43.0,1.0,389.8640169000719,,,,,,,,,389.85127140022814,391.06400180002674,391.8645195001736,391.8481831001118,391.84821290010586,391.8645195001736,391.8645195001736,391.8645195001736,,392.66610500006936,right,1.0,12.783435999648646,,,,,,,,,,,,,,,,,,,,,,,,,,,,,,,sub-191,1.0,random_dot,60.01568812251773,
right,right,accuracy,,,,,0.0,1.0,1.0,0.0,22.0,0.0,44.0,1.0,392.6805350000504,,,,,,,,,392.66746070003137,393.4805381000042,394.28090110002086,394.2650111000985,394.265040300088,394.28090110002086,394.28090110002086,394.28090110002086,,395.4988959000912,right,1.0,13.19955569994636,,,,,,,,,,,,,,,,,,,,,,,,,,,,,,,sub-191,1.0,random_dot,60.01568812251773,
left,left,accuracy,,,,,0.0,1.0,1.0,0.0,22.0,1.0,45.0,0.0,395.513775800122,,,,,,,,,395.5003218001221,396.3138125000987,397.1143097002059,397.09826060011983,397.0982891002204,397.1143097002059,397.1143097002059,397.1143097002059,,397.832498600008,left,1.0,12.698957999702545,,,,,,,,,,,,,,,,,,,,,,,,,,,,,,,sub-191,1.0,random_dot,60.01568812251773,
left,left,accuracy,,,,,0.0,1.0,1.0,0.0,23.0,0.0,46.0,0.0,397.8468850001227,,,,,,,,,397.833968100138,397.94702860014513,398.747386300005,398.730991500197,398.7310201001819,398.747386300005,398.747386300005,398.747386300005,403.7303277000319,404.298348300159,left,1.0,17.522176399827003,,,,,,,,,,,,,,,,,,,,,,,,,,,,,,,sub-191,1.0,random_dot,60.01568812251773,
right,right,accuracy,,,,,0.0,1.0,1.0,0.0,23.0,1.0,47.0,1.0,404.3135660002008,,,,,,,,,404.3003640000243,404.4134715001565,405.2137092000339,405.19726500008255,405.1972891001497,405.2137092000339,405.2137092000339,405.2137092000339,,406.09907450014725,right,1.0,12.867271599825472,,,,,,,,,,,,,,,,,,,,,,,,,,,,,,,sub-191,1.0,random_dot,60.01568812251773,
left,left,accuracy,,,,,0.0,1.0,1.0,0.0,24.0,0.0,48.0,0.0,406.1132220001891,,,,,,,,,406.10059060016647,406.4633044002112,407.2636007000692,407.2474892002065,407.2475205000956,407.2636007000692,407.2636007000692,407.2636007000692,,408.1648510000669,left,1.0,12.88341169967316,,,,,,,,,,,,,,,,,,,,,,,,,,,,,,,sub-191,1.0,random_dot,60.01568812251773,
right,right,accuracy,,,,,0.0,1.0,1.0,0.0,24.0,1.0,49.0,1.0,408.17989290016703,,,,,,,,,408.1663230000995,408.27979040006176,409.0802687001415,409.0643406000454,409.0643709001597,409.0802687001415,409.0802687001415,409.0802687001415,,409.79864330007695,right,1.0,12.693604199914262,,,,,,,,,,,,,,,,,,,,,,,,,,,,,,,sub-191,1.0,random_dot,60.01568812251773,
right,right,accuracy,,,,,0.0,1.0,1.0,0.0,25.0,0.0,50.0,1.0,409.8132351001259,,,,,,,,,409.80020990013145,410.1630177001935,410.9635347002186,410.94715900020674,410.9471883000806,410.9635347002186,410.9635347002186,410.9635347002186,,413.3815204000566,right,1.0,14.390187199926004,,,,,,,,,,,,,,,,,,,,,,,,,,,,,,,sub-191,1.0,random_dot,60.01568812251773,
left,left,accuracy,,,,,0.0,1.0,1.0,0.0,25.0,1.0,51.0,0.0,413.3962945002131,,,,,,,,,413.38311740010977,413.4962480000686,414.2966160001233,414.2805354001466,414.2805650001392,414.2966160001233,414.2966160001233,414.2966160001233,,415.3817318000365,left,1.0,13.070280899759382,,,,,,,,,,,,,,,,,,,,,,,,,,,,,,,sub-191,1.0,random_dot,60.01568812251773,
right,right,accuracy,,,,,0.0,1.0,1.0,0.0,26.0,0.0,52.0,1.0,415.3962045002263,,,,,,,,,415.3831510001328,416.5961417001672,417.3967325000558,417.3802802001592,417.3803062001243,417.3967325000558,417.3967325000558,417.3967325000558,,418.2480823001824,right,1.0,12.824862699955702,,,,,,,,,,,,,,,,,,,,,,,,,,,,,,,sub-191,1.0,random_dot,60.01568812251773,
left,left,accuracy,,,,,0.0,1.0,1.0,0.0,26.0,1.0,53.0,0.0,418.262874700129,,,,,,,,,418.2493477000389,418.3627077001147,419.1633955000434,419.1474900001194,419.1475273000542,419.1633955000434,419.1633955000434,419.1633955000434,,420.08154580020346,left,1.0,12.888956199632958,,,,,,,,,,,,,,,,,,,,,,,,,,,,,,,sub-191,1.0,random_dot,60.01568812251773,
right,right,accuracy,,,,,0.0,1.0,1.0,0.0,27.0,0.0,54.0,1.0,420.09600160014816,,,,,,,,,420.0830075000413,421.2958965001162,422.096515300218,422.0801575002261,422.08018820011057,422.096515300218,422.096515300218,422.096515300218,,423.9153440000955,right,1.0,13.80377439991571,,,,,,,,,,,,,,,,,,,,,,,,,,,,,,,sub-191,1.0,random_dot,60.01568812251773,
left,left,accuracy,,,,,0.0,1.0,1.0,0.0,27.0,1.0,55.0,0.0,423.9291088001337,,,,,,,,,423.9168417002074,425.12900810013525,425.9296646001749,425.91322380001657,425.9132589001674,425.9296646001749,425.9296646001749,425.9296646001749,,427.16433740011416,left,1.0,13.20638670003973,,,,,,,,,,,,,,,,,,,,,,,,,,,,,,,sub-191,1.0,random_dot,60.01568812251773,
right,right,accuracy,,,,,0.0,1.0,1.0,0.0,28.0,0.0,56.0,1.0,427.1789729001466,,,,,,,,,427.1657741002273,427.2791826000903,428.0795385001693,428.0636521000415,428.06368670007214,428.0795385001693,428.0795385001693,428.0795385001693,,430.7140120000113,right,1.0,14.614829499972984,,,,,,,,,,,,,,,,,,,,,,,,,,,,,,,sub-191,1.0,random_dot,60.01568812251773,
left,left,accuracy,,,,,0.0,1.0,1.0,0.0,28.0,1.0,57.0,0.0,430.7288236001041,,,,,,,,,430.7161185001023,430.8287692000158,431.62911930005066,431.61287730000913,431.6129051002208,431.62911930005066,431.62911930005066,431.62911930005066,,433.3303724001162,left,1.0,13.673647199990228,,,,,,,,,,,,,,,,,,,,,,,,,,,,,,,sub-191,1.0,random_dot,60.01568812251773,
left,left,accuracy,,,,,0.0,1.0,1.0,0.0,29.0,0.0,58.0,0.0,433.345329800155,,,,,,,,,433.33173670014367,434.1454751000274,434.9460897000972,434.92969830008224,434.92973890015855,434.9460897000972,434.9460897000972,434.9460897000972,,435.7312961001881,right,0.0,12.762401399901137,,,,,,,,,,,,,,,,,,,,,,,,,,,,,,,sub-191,1.0,random_dot,60.01568812251773,
right,right,accuracy,,,,,0.0,1.0,1.0,0.0,29.0,1.0,59.0,1.0,435.74545130017214,,,,,,,,,435.7326352000237,436.5453587002121,437.34576280019246,437.32956600002944,437.3295994000509,437.34576280019246,437.34576280019246,437.34576280019246,,438.1307453000918,right,1.0,12.756509799743071,,,,,,,,,,,,,,,,,,,,,,,,,,,,,,,sub-191,1.0,random_dot,60.01568812251773,
,,accuracy,,,,,0.0,1.0,1.0,0.0,,,,,,,,,,,,,,,,,,,,,,,,,,,,,,,,,,,,,,,,,,,,,,,,,,,,,,,,,sub-191,1.0,random_dot,60.01568812251773,
,,,,,,,,,,,,,,,,,,,,,,,,,,,,,,,,,,,,,,,,,,,,,,,,,,,,,,,,,,,,,,,438.13178970012814,438.1453071001452,443.14498940017074,443.1295399002265,sub-191,,,,
