direction,corrAns,randomInstr,practice_trials.thisRepN,practice_trials.thisTrialN,practice_trials.thisN,practice_trials.thisIndex,instr_trials.thisRepN,instr_trials.thisTrialN,instr_trials.thisN,instr_trials.thisIndex,test_trials.thisRepN,test_trials.thisTrialN,test_trials.thisN,test_trials.thisIndex,thisRow.t,notes,general_instruction.started,textGeneralInstr.started,respGeneralInstr.started,general_instruction.stopped,respGeneralInstr.keys,respGeneralInstr.rt,respGeneralInstr.duration,ITI.started,fixcross.started,fixcross.stopped,ITI.stopped,dots.started,backgroundDots.started,stimulusDots.started,respDots.started,stimulusDots.stopped,dots.stopped,respDots.keys,respDots.corr,respDots.rt,respDots.duration,feedback.started,textFeedback.started,feedback.stopped,textFeedback.stopped,info.started,textInfo.started,keyRespInfo.started,info.stopped,keyRespInfo.keys,keyRespInfo.rt,keyRespInfo.duration,test_instruction.started,textTestInstr.started,respTestInstr.started,test_instruction.stopped,respTestInstr.keys,respTestInstr.rt,respTestInstr.duration,random_instruction.started,textRandomInstr.started,respRandomInstr.started,random_instruction.stopped,respRandomInstr.keys,respRandomInstr.rt,respRandomInstr.duration,goodbye.started,textGoodbye.started,textGoodbye.stopped,goodbye.stopped,participant,session,expName,frameRate,Unnamed: 74
,,,,,,,,,,,,,,,,,0.0758537999990949,0.0854932000002008,0.0854932000002008,41.2398032000001,space,74.99487099999897,,,,,,,,,,,,,,,,,,,,,,,,,,,,,,,,,,,,,,,,,,,,,sub-148,1.0,random_dot,60.18487590167421,
right,right,,0.0,0.0,0.0,1.0,,,,,,,,,41.31739329999982,,,,,,,,,41.31283970000004,41.60463410000011,42.42664560000048,42.38953620000029,42.38957549999941,42.42664560000048,42.42664560000048,42.42664560000048,47.39264270000058,49.62964479999937,right,1.0,41.05330859999958,,49.65059210000072,49.678847099999984,50.16087019999941,,,,,,,,,,,,,,,,,,,,,,,,,,,sub-148,1.0,random_dot,60.18487590167421,
left,left,,0.0,1.0,1.0,0.0,,,,,,,,,50.17730490000031,,,,,,,,,50.16176070000074,50.26091380000071,51.06189459999951,51.045532599999206,51.04557109999951,51.06189459999951,51.06189459999951,51.06189459999951,56.048621599999024,56.75158849999934,right,0.0,39.52658830000109,,56.75241529999949,56.76753710000048,57.26572499999929,,,,,,,,,,,,,,,,,,,,,,,,,,,sub-148,1.0,random_dot,60.18487590167421,
right,right,,1.0,0.0,2.0,1.0,,,,,,,,,57.281831399999646,,,,,,,,,57.26630710000063,57.36786079999911,58.168195500000365,58.15201639999941,58.15204309999899,58.168195500000365,58.168195500000365,58.168195500000365,63.15325490000032,63.70546309999918,right,1.0,39.37994079999953,,63.70651739999994,63.71966169999905,64.2045694999997,64.22019150000051,,,,,,,,,,,,,,,,,,,,,,,,,,sub-148,1.0,random_dot,60.18487590167421,
left,left,,1.0,1.0,3.0,0.0,,,,,,,,,64.22019150000051,,,,,,,,,64.20536250000077,64.57062439999936,65.37156409999989,65.35581450000063,65.35586349999903,65.37156409999989,65.37156409999989,65.37156409999989,,69.1259585000007,left,1.0,37.59735489999912,,69.1270284000002,69.14006859999972,69.62486419999914,69.64032860000043,,,,,,,,,,,,,,,,,,,,,,,,,,sub-148,1.0,random_dot,60.18487590167421,
left,left,,2.0,0.0,4.0,0.0,,,,,,,,,69.64032860000043,,,,,,,,,69.62568040000042,69.74062009999943,70.54206229999909,70.52573590000065,70.52577209999981,70.54206229999909,70.54206229999909,70.54206229999909,,73.3790986999993,right,0.0,36.68761809999887,,73.38021320000007,73.39285989999917,73.87779749999936,73.8934105999997,,,,,,,,,,,,,,,,,,,,,,,,,,sub-148,1.0,random_dot,60.18487590167421,
right,right,,2.0,1.0,5.0,1.0,,,,,,,,,73.8934105999997,,,,,,,,,73.87858609999967,74.69401800000014,75.49522609999985,75.47888860000057,75.4789409999994,75.49522609999985,75.49522609999985,75.49522609999985,80.4820022999993,81.38428589999967,right,1.0,39.73325759999898,,81.38532649999979,81.39837149999948,81.88323730000047,81.89906150000024,,,,,,,,,,,,,,,,,,,,,,,,,,sub-148,1.0,random_dot,60.18487590167421,
left,left,,3.0,0.0,6.0,0.0,,,,,,,,,81.89906150000024,,,,,,,,,81.88410210000075,82.69945969999935,83.50055520000024,83.48452460000044,83.48456710000028,83.50055520000024,83.50055520000024,83.50055520000024,88.48768779999955,89.45751650000057,left,1.0,39.8081302999999,,89.45862569999917,89.47075269999914,89.95553560000008,89.97092259999954,,,,,,,,,,,,,,,,,,,,,,,,,,sub-148,1.0,random_dot,60.18487590167421,
right,right,,3.0,1.0,7.0,1.0,,,,,,,,,89.97092259999954,,,,,,,,,89.95626509999965,90.32157340000047,91.1229497000004,91.10627360000036,91.10631119999924,91.1229497000004,91.1229497000004,91.1229497000004,,93.4754286999996,right,1.0,36.195102300000144,,93.47634199999992,93.4902476999996,93.97501460000058,93.99055889999909,,,,,,,,,,,,,,,,,,,,,,,,,,sub-148,1.0,random_dot,60.18487590167421,
left,left,,4.0,0.0,8.0,0.0,,,,,,,,,93.99055889999909,,,,,,,,,93.9758043999991,94.0905829000003,94.89182099999924,94.8756269000005,94.87566309999966,94.89182099999924,94.89182099999924,94.89182099999924,99.87854999999944,102.6819876999998,left,1.0,41.62733389999994,,102.68293230000018,102.69650209999963,103.18131549999998,103.19678829999977,,,,,,,,,,,,,,,,,,,,,,,,,,sub-148,1.0,random_dot,60.18487590167421,
right,right,,4.0,1.0,9.0,1.0,,,,,,,,,103.19678829999977,,,,,,,,,103.18213389999984,103.29705130000002,104.09822949999943,104.08174019999932,104.08178129999942,104.09822949999943,104.09822949999943,104.09822949999943,109.0848633000005,109.27034300000014,right,1.0,39.022468999999546,,109.27156769999964,109.2845569000001,109.76883810000072,109.78456989999904,,,,,,,,,,,,,,,,,,,,,,,,,,sub-148,1.0,random_dot,60.18487590167421,
left,left,,5.0,0.0,10.0,0.0,,,,,,,,,109.78456989999904,,,,,,,,,109.76956169999904,110.98538890000054,111.7870860999992,111.77056730000004,111.7706331999998,111.7870860999992,111.7870860999992,111.7870860999992,,116.0915771,left,1.0,38.15195270000004,,116.09262990000023,116.10578739999984,116.59005649999926,116.6060331000008,,,,,,,,,,,,,,,,,,,,,,,,,,sub-148,1.0,random_dot,60.18487590167421,
right,right,,5.0,1.0,11.0,1.0,,,,,,,,,116.6060331000008,,,,,,,,,116.59071140000016,117.40659059999962,118.20774359999996,118.1916041000004,118.19164169999932,118.20774359999996,118.20774359999996,118.20774359999996,,119.57763999999952,right,1.0,35.221287599999414,,119.57849859999988,119.5915941000003,120.0764593999993,120.09178059999977,,,,,,,,,,,,,,,,,,,,,,,,,,sub-148,1.0,random_dot,60.18487590167421,
left,left,,6.0,0.0,12.0,0.0,,,,,,,,,120.09178059999977,,,,,,,,,120.07718890000068,120.44192719999955,121.24321749999945,121.2271411999991,121.2271853000002,121.24321749999945,121.24321749999945,121.24321749999945,,124.3637882999992,left,1.0,36.96697189999941,,124.36491240000032,124.3777566000008,124.86286660000042,124.87847730000068,,,,,,,,,,,,,,,,,,,,,,,,,,sub-148,1.0,random_dot,60.18487590167421,
right,right,,6.0,1.0,13.0,1.0,,,,,,,,,124.87847730000068,,,,,,,,,124.86363560000063,125.22846620000018,126.03015419999974,126.01359389999924,126.0136437000001,126.03015419999974,126.03015419999974,126.03015419999974,,128.09963190000053,right,1.0,35.92039749999822,,128.10060229999908,128.11382579999918,128.5988053000001,128.61417280000023,,,,,,,,,,,,,,,,,,,,,,,,,,sub-148,1.0,random_dot,60.18487590167421,
right,right,,7.0,0.0,14.0,1.0,,,,,,,,,128.61417280000023,,,,,,,,,128.59954090000065,128.71425079999972,129.5154593999996,129.49917540000024,129.49921429999995,129.5154593999996,129.5154593999996,129.5154593999996,,131.8020271000005,right,1.0,36.12383079999927,,131.8029616999993,131.81632069999978,132.3013886000008,132.31681059999937,,,,,,,,,,,,,,,,,,,,,,,,,,sub-148,1.0,random_dot,60.18487590167421,
left,left,,7.0,1.0,15.0,0.0,,,,,,,,,132.31681059999937,,,,,,,,,132.3026245000001,133.51756580000074,134.31880909999927,134.30240699999922,134.30244130000028,134.31880909999927,134.31880909999927,134.31880909999927,,136.4220535000004,left,1.0,35.94078629999967,,136.42313869999998,136.43625860000066,136.9210753999996,136.93641799999932,,,,,,,,,,,,,,,,,,,,,,,,,,sub-148,1.0,random_dot,60.18487590167421,
right,right,,8.0,0.0,16.0,1.0,,,,,,,,,136.93641799999932,,,,,,,,,136.92177979999906,137.0365223000008,137.83799379999982,137.82150510000065,137.8215567999996,137.83799379999982,137.83799379999982,137.83799379999982,,139.6908736000005,right,1.0,35.691238299999895,,139.69190589999926,139.70510950000062,140.18990929999927,140.20560970000042,,,,,,,,,,,,,,,,,,,,,,,,,,sub-148,1.0,random_dot,60.18487590167421,
left,left,,8.0,1.0,17.0,0.0,,,,,,,,,140.20560970000042,,,,,,,,,140.19073919999937,140.3058044999998,141.106728499999,141.09083099999953,141.0908684999995,141.106728499999,141.106728499999,141.106728499999,,143.25995259999945,right,0.0,36.00237150000066,,143.26111200000014,143.2740847999994,143.7589805000007,143.77450859999954,,,,,,,,,,,,,,,,,,,,,,,,,,sub-148,1.0,random_dot,60.18487590167421,
left,left,,9.0,0.0,18.0,0.0,,,,,,,,,143.77450859999954,,,,,,,,,143.75979369999914,144.1247626000004,144.92600739999943,144.90951420000056,144.90955009999925,144.92600739999943,144.92600739999943,144.92600739999943,,146.86314850000053,left,1.0,35.773167000001195,,146.8642357000008,146.87649129999954,147.36195709999993,147.37698450000062,,,,,,,,,,,,,,,,,,,,,,,,,,sub-148,1.0,random_dot,60.18487590167421,
right,right,,9.0,1.0,19.0,1.0,,,,,,,,,147.37698450000062,,,,,,,,,147.36264979999942,147.72720950000075,148.5284198999998,148.51273740000033,148.51277520000076,148.5284198999998,148.5284198999998,148.5284198999998,,151.06499059999987,right,1.0,36.38038930000039,,151.06591769999977,151.07942790000016,151.56430220000038,151.58012170000077,,,,,,,,,,,,,,,,,,,,,,,,,,sub-148,1.0,random_dot,60.18487590167421,
,,,,,,,,,,,,,,,,,,,,,,,,,,,,,,,,,,,,,,,,,,151.56441319999976,151.58012170000077,151.58012170000077,156.00151770000048,space,38.26949189999869,,,,,,,,,,,,,,,,,,,,sub-148,1.0,random_dot,60.18487590167421,
,,,,,,,,,,,,,,,,,,,,,,,,,,,,,,,,,,,,,,,,,,,,,,,,,156.00160789999973,156.01654459999918,156.01654459999918,159.63793439999972,space,37.47304759999861,,,,,,,,,,,,,sub-148,1.0,random_dot,60.18487590167421,
right,right,speed,,,,,0.0,0.0,0.0,1.0,0.0,0.0,0.0,1.0,167.04414170000018,,,,,,,,,167.04013830000076,168.24144840000008,169.04254459999902,169.02632500000072,169.02636639999946,169.04254459999902,169.04254459999902,169.04254459999902,,169.92848819999926,right,1.0,34.73705349999909,,,,,,,,,,,,,,,,,,,,159.66331750000063,159.68395489999966,159.68395489999966,167.02570510000078,space,41.18639699999949,,,,,,sub-148,1.0,random_dot,60.18487590167421,
left,left,speed,,,,,0.0,0.0,0.0,1.0,0.0,1.0,1.0,0.0,169.9423167999994,,,,,,,,,169.93115639999996,170.04248109999935,170.8436555999997,170.8274452000005,170.82748410000022,170.8436555999997,170.8436555999997,170.8436555999997,,173.19803610000054,right,0.0,36.20572999999968,,,,,,,,,,,,,,,,,,,,,,,,,,,,,,,sub-148,1.0,random_dot,60.18487590167421,
left,left,speed,,,,,0.0,0.0,0.0,1.0,1.0,0.0,2.0,0.0,173.21121590000075,,,,,,,,,173.19997580000015,174.41236449999997,175.21355869999934,175.19717719999971,175.19721709999976,175.21355869999934,175.21355869999934,175.21355869999934,,177.6333426000001,right,0.0,36.25658470000053,,,,,,,,,,,,,,,,,,,,,,,,,,,,,,,sub-148,1.0,random_dot,60.18487590167421,
right,right,speed,,,,,0.0,0.0,0.0,1.0,1.0,1.0,3.0,1.0,177.6477786000014,,,,,,,,,177.6352926999989,178.44819649999954,179.2496415000005,179.23309980000158,179.2331350000004,179.2496415000005,179.2496415000005,179.2496415000005,,182.85373770000115,left,0.0,37.45148379999955,,,,,,,,,,,,,,,,,,,,,,,,,,,,,,,sub-148,1.0,random_dot,60.18487590167421,
right,right,speed,,,,,0.0,0.0,0.0,1.0,2.0,0.0,4.0,1.0,182.8677657999997,,,,,,,,,182.8559528999995,183.21817980000012,184.0190525999988,184.0036702000016,184.00372510000125,184.0190525999988,184.0190525999988,184.0190525999988,,185.4393024000001,right,1.0,35.2714444000012,,,,,,,,,,,,,,,,,,,,,,,,,,,,,,,sub-148,1.0,random_dot,60.18487590167421,
left,left,speed,,,,,0.0,0.0,0.0,1.0,2.0,1.0,5.0,0.0,185.4530434999997,,,,,,,,,185.44136479999904,186.25364910000096,187.0550397999996,187.0389830000004,187.03902669999843,187.0550397999996,187.0550397999996,187.0550397999996,,191.1256301000012,left,1.0,37.91498689999935,,,,,,,,,,,,,,,,,,,,,,,,,,,,,,,sub-148,1.0,random_dot,60.18487590167421,
left,left,speed,,,,,0.0,0.0,0.0,1.0,3.0,0.0,6.0,0.0,191.1401363999994,,,,,,,,,191.12715639999988,192.34149729999808,193.14241869999933,193.12631019999932,193.1263490000001,193.14241869999933,193.14241869999933,193.14241869999933,,195.3292444999988,right,0.0,36.03791249999995,,,,,,,,,,,,,,,,,,,,,,,,,,,,,,,sub-148,1.0,random_dot,60.18487590167421,
right,right,speed,,,,,0.0,0.0,0.0,1.0,3.0,1.0,7.0,1.0,195.34314379999887,,,,,,,,,195.3313345000006,196.14373420000084,196.94488820000151,196.92874699999996,196.928797999999,196.94488820000151,196.94488820000151,196.94488820000151,,198.0639323000014,right,1.0,34.9559248000005,,,,,,,,,,,,,,,,,,,,,,,,,,,,,,,sub-148,1.0,random_dot,60.18487590167421,
left,left,speed,,,,,0.0,0.0,0.0,1.0,4.0,0.0,8.0,0.0,198.07836960000168,,,,,,,,,198.0660086000007,198.17846699999973,198.97973430000093,198.9632269999984,198.96326579999916,198.97973430000093,198.97973430000093,198.97973430000093,,200.08261469999889,right,0.0,34.94005770000149,,,,,,,,,,,,,,,,,,,,,,,,,,,,,,,sub-148,1.0,random_dot,60.18487590167421,
right,right,speed,,,,,0.0,0.0,0.0,1.0,4.0,1.0,9.0,1.0,200.09645700000144,,,,,,,,,200.08478419999847,200.19645489999857,200.9976512000012,200.98144800000048,200.98148590000164,200.9976512000012,200.9976512000012,200.9976512000012,,203.76795740000125,right,1.0,36.61225610000111,,,,,,,,,,,,,,,,,,,,,,,,,,,,,,,sub-148,1.0,random_dot,60.18487590167421,
left,left,speed,,,,,0.0,0.0,0.0,1.0,5.0,0.0,10.0,0.0,203.7821926000015,,,,,,,,,203.7700354999997,204.58278379999865,205.3841749000003,205.36770200000137,205.36774179999884,205.3841749000003,205.3841749000003,205.3841749000003,,208.05444819999863,right,0.0,36.50707220000186,,,,,,,,,,,,,,,,,,,,,,,,,,,,,,,sub-148,1.0,random_dot,60.18487590167421,
right,right,speed,,,,,0.0,0.0,0.0,1.0,5.0,1.0,11.0,1.0,208.06863780000091,,,,,,,,,208.0564518999981,208.8690332999995,209.67028780000143,209.6540675999986,209.65411620000123,209.67028780000143,209.67028780000143,209.67028780000143,,212.2403479000004,left,0.0,36.41942129999734,,,,,,,,,,,,,,,,,,,,,,,,,,,,,,,sub-148,1.0,random_dot,60.18487590167421,
left,left,speed,,,,,0.0,0.0,0.0,1.0,6.0,0.0,12.0,0.0,212.25462000000152,,,,,,,,,212.2421723999996,212.60511199999928,213.40609569999836,213.38996990000123,213.3900077000017,213.40609569999836,213.40609569999836,213.40609569999836,,216.36005950000072,left,1.0,36.80507909999869,,,,,,,,,,,,,,,,,,,,,,,,,,,,,,,sub-148,1.0,random_dot,60.18487590167421,
right,right,speed,,,,,0.0,0.0,0.0,1.0,6.0,1.0,13.0,1.0,216.37433860000056,,,,,,,,,216.36243749999807,217.57522889999927,218.3764339999998,218.36010279999937,218.36014089999844,218.3764339999998,218.3764339999998,218.3764339999998,223.3630280000016,224.11549660000128,right,1.0,39.5839347000001,,,,,,,,,,,,,,,,,,,,,,,,,,,,,,,sub-148,1.0,random_dot,60.18487590167421,
left,left,speed,,,,,0.0,0.0,0.0,1.0,7.0,0.0,14.0,0.0,224.12963860000127,,,,,,,,,224.1175740000017,224.22970380000152,225.0308595000006,225.01472439999816,225.01476379999983,225.0308595000006,225.0308595000006,225.0308595000006,,228.1188109999985,right,0.0,36.93951019999804,,,,,,,,,,,,,,,,,,,,,,,,,,,,,,,sub-148,1.0,random_dot,60.18487590167421,
right,right,speed,,,,,0.0,0.0,0.0,1.0,7.0,1.0,15.0,1.0,228.1322391999984,,,,,,,,,228.12109370000144,228.93290719999823,229.73406530000105,229.7175058000012,229.717544000001,229.73406530000105,229.73406530000105,229.73406530000105,,232.9885806000002,left,0.0,37.09637280000243,,,,,,,,,,,,,,,,,,,,,,,,,,,,,,,sub-148,1.0,random_dot,60.18487590167421,
right,right,speed,,,,,0.0,0.0,0.0,1.0,8.0,0.0,16.0,1.0,233.0022884000009,,,,,,,,,232.99097639999852,233.35262939999848,234.1537155999995,234.13751130000128,234.137562599999,234.1537155999995,234.1537155999995,234.1537155999995,,236.59098379999887,right,1.0,36.285773399999016,,,,,,,,,,,,,,,,,,,,,,,,,,,,,,,sub-148,1.0,random_dot,60.18487590167421,
left,left,speed,,,,,0.0,0.0,0.0,1.0,8.0,1.0,17.0,0.0,236.60493339999996,,,,,,,,,236.59209929999813,237.8057706999989,238.6071576000013,238.59025609999844,238.59028790000048,238.6071576000013,238.6071576000013,238.6071576000013,,241.99401359999865,right,0.0,37.22356040000159,,,,,,,,,,,,,,,,,,,,,,,,,,,,,,,sub-148,1.0,random_dot,60.18487590167421,
right,right,speed,,,,,0.0,0.0,0.0,1.0,9.0,0.0,18.0,1.0,242.00840609999975,,,,,,,,,241.99627449999932,242.80896309999844,243.6102512000016,243.5941279000017,243.59417809999832,243.6102512000016,243.6102512000016,243.6102512000016,248.5962793999988,248.58211699999995,right,1.0,38.819566599999234,,,,,,,,,,,,,,,,,,,,,,,,,,,,,,,sub-148,1.0,random_dot,60.18487590167421,
left,left,speed,,,,,0.0,0.0,0.0,1.0,9.0,1.0,19.0,0.0,248.5962793999988,,,,,,,,,248.58421030000136,248.696432499999,249.49757480000156,249.48129900000092,249.48133609999968,249.49757480000156,249.49757480000156,249.49757480000156,,252.10078919999975,right,0.0,36.44252710000001,,,,,,,,,,,,,,,,,,,,,,,,,,,,,,,sub-148,1.0,random_dot,60.18487590167421,
left,left,speed,,,,,0.0,0.0,0.0,1.0,10.0,0.0,20.0,0.0,252.1151669999981,,,,,,,,,252.1023938000017,252.4653577000008,253.26697389999936,253.25072980000004,253.25077989999957,253.26697389999936,253.26697389999936,253.26697389999936,,257.0212549000007,left,1.0,37.60497829999804,,,,,,,,,,,,,,,,,,,,,,,,,,,,,,,sub-148,1.0,random_dot,60.18487590167421,
right,right,speed,,,,,0.0,0.0,0.0,1.0,10.0,1.0,21.0,1.0,257.0352318999994,,,,,,,,,257.02315179999823,257.8360327999999,258.6374534000006,258.62084810000124,258.62088499999845,258.6374534000006,258.6374534000006,258.6374534000006,,263.5092535999993,left,0.0,38.72311500000069,,,,,,,,,,,,,,,,,,,,,,,,,,,,,,,sub-148,1.0,random_dot,60.18487590167421,
left,left,speed,,,,,0.0,0.0,0.0,1.0,11.0,0.0,22.0,0.0,263.5232898999984,,,,,,,,,263.5114029000015,263.8735324999998,264.67462329999944,264.6584744999982,264.6585241000012,264.67462329999944,264.67462329999944,264.67462329999944,,267.6284179000013,left,1.0,36.79625139999917,,,,,,,,,,,,,,,,,,,,,,,,,,,,,,,sub-148,1.0,random_dot,60.18487590167421,
right,right,speed,,,,,0.0,0.0,0.0,1.0,11.0,1.0,23.0,1.0,267.64292469999964,,,,,,,,,267.63064660000055,267.99286680000114,268.7941957999992,268.77782710000065,268.7778629000004,268.7941957999992,268.7941957999992,268.7941957999992,,271.4141298000013,right,1.0,36.45747069999925,,,,,,,,,,,,,,,,,,,,,,,,,,,,,,,sub-148,1.0,random_dot,60.18487590167421,
right,right,speed,,,,,0.0,0.0,0.0,1.0,12.0,0.0,24.0,1.0,271.42861749999975,,,,,,,,,271.4160399000011,272.62931690000005,273.43062960000134,273.41444460000093,273.4144828000008,273.43062960000134,273.43062960000134,273.43062960000134,,276.73426440000003,right,1.0,37.15012360000037,,,,,,,,,,,,,,,,,,,,,,,,,,,,,,,sub-148,1.0,random_dot,60.18487590167421,
left,left,speed,,,,,0.0,0.0,0.0,1.0,12.0,1.0,25.0,0.0,276.74897450000026,,,,,,,,,276.73542669999915,277.5493359000011,278.3506212000011,278.3341720000008,278.3342076999997,278.3506212000011,278.3506212000011,278.3506212000011,,281.82218530000137,right,0.0,37.32107659999747,,,,,,,,,,,,,,,,,,,,,,,,,,,,,,,sub-148,1.0,random_dot,60.18487590167421,
right,right,speed,,,,,0.0,0.0,0.0,1.0,13.0,0.0,26.0,1.0,281.8356952000013,,,,,,,,,281.8242695999997,281.9357007000017,282.73706290000155,282.7205688000013,282.720604600001,282.73706290000155,282.73706290000155,282.73706290000155,,286.25840060000155,right,1.0,37.373283099997934,,,,,,,,,,,,,,,,,,,,,,,,,,,,,,,sub-148,1.0,random_dot,60.18487590167421,
left,left,speed,,,,,0.0,0.0,0.0,1.0,13.0,1.0,27.0,0.0,286.27230320000126,,,,,,,,,286.26042939999934,286.6222007999986,287.42353900000126,287.4072216000004,287.4072595999987,287.42353900000126,287.42353900000126,287.42353900000126,,292.22937289999936,left,1.0,38.65691010000228,,,,,,,,,,,,,,,,,,,,,,,,,,,,,,,sub-148,1.0,random_dot,60.18487590167421,
right,right,speed,,,,,0.0,0.0,0.0,1.0,14.0,0.0,28.0,1.0,292.24267299999883,,,,,,,,,292.23142330000155,293.04343229999904,293.8446445999998,293.8282354999992,293.8282745000015,293.8446445999998,293.8446445999998,293.8446445999998,,295.06380940000054,right,1.0,35.05654470000081,,,,,,,,,,,,,,,,,,,,,,,,,,,,,,,sub-148,1.0,random_dot,60.18487590167421,
left,left,speed,,,,,0.0,0.0,0.0,1.0,14.0,1.0,29.0,0.0,295.0782272000015,,,,,,,,,295.06586290000087,295.1783334999982,295.97927959999834,295.9629968999998,295.96303609999995,295.97927959999834,295.97927959999834,295.97927959999834,,297.41537889999927,left,1.0,35.28161790000013,,,,,,,,,,,,,,,,,,,,,,,,,,,,,,,sub-148,1.0,random_dot,60.18487590167421,
right,right,speed,,,,,0.0,0.0,0.0,1.0,15.0,0.0,30.0,1.0,297.4296551999996,,,,,,,,,297.41722649999974,297.7800578000006,298.5811201999986,298.5647947999987,298.5648330999993,298.5811201999986,298.5811201999986,298.5811201999986,,299.7003655999997,right,1.0,34.959262299998954,,,,,,,,,,,,,,,,,,,,,,,,,,,,,,,sub-148,1.0,random_dot,60.18487590167421,
left,left,speed,,,,,0.0,0.0,0.0,1.0,15.0,1.0,31.0,0.0,299.71454110000013,,,,,,,,,299.70255820000057,299.8146375000015,300.6158278999992,300.5996340000001,300.5996995000005,300.6158278999992,300.6158278999992,300.6158278999992,,301.58513589999893,left,1.0,34.8148798000002,,,,,,,,,,,,,,,,,,,,,,,,,,,,,,,sub-148,1.0,random_dot,60.18487590167421,
right,right,speed,,,,,0.0,0.0,0.0,1.0,16.0,0.0,32.0,1.0,301.599323299999,,,,,,,,,301.5872433999993,302.8002156999992,303.6012146000012,303.5851770999998,303.58521400000063,303.6012146000012,303.6012146000012,303.6012146000012,,305.2539488999992,right,1.0,35.49035279999953,,,,,,,,,,,,,,,,,,,,,,,,,,,,,,,sub-148,1.0,random_dot,60.18487590167421,
left,left,speed,,,,,0.0,0.0,0.0,1.0,16.0,1.0,33.0,0.0,305.2682986999989,,,,,,,,,305.2557806999994,305.6185586999982,306.4199003999984,306.4035000999993,306.40353979999963,306.4199003999984,306.4199003999984,306.4199003999984,,307.5556708999993,left,1.0,34.98042149999674,,,,,,,,,,,,,,,,,,,,,,,,,,,,,,,sub-148,1.0,random_dot,60.18487590167421,
left,left,speed,,,,,0.0,0.0,0.0,1.0,17.0,0.0,34.0,0.0,307.5696956999982,,,,,,,,,307.55756089999886,307.6700965,308.471337500001,308.4550017999991,308.45504099999926,308.471337500001,308.471337500001,308.471337500001,,310.94127670000125,left,1.0,36.30908199999976,,,,,,,,,,,,,,,,,,,,,,,,,,,,,,,sub-148,1.0,random_dot,60.18487590167421,
right,right,speed,,,,,0.0,0.0,0.0,1.0,17.0,1.0,35.0,1.0,310.95568470000035,,,,,,,,,310.9433311000012,312.15623400000004,312.957666100001,312.94169220000003,312.9417301000012,312.957666100001,312.957666100001,312.957666100001,,314.2101998999988,right,1.0,35.09305560000212,,,,,,,,,,,,,,,,,,,,,,,,,,,,,,,sub-148,1.0,random_dot,60.18487590167421,
right,right,speed,,,,,0.0,0.0,0.0,1.0,18.0,0.0,36.0,1.0,314.2246002000011,,,,,,,,,314.21224990000155,314.32450190000054,315.1258023999999,315.10961439999846,315.1096525000012,315.1258023999999,315.1258023999999,315.1258023999999,,316.99561690000155,right,1.0,35.714490899998054,,,,,,,,,,,,,,,,,,,,,,,,,,,,,,,sub-148,1.0,random_dot,60.18487590167421,
left,left,speed,,,,,0.0,0.0,0.0,1.0,18.0,1.0,37.0,0.0,317.0095033000016,,,,,,,,,316.9980970000015,317.1098624999995,317.9111052999997,317.8951591999994,317.8952287000011,317.9111052999997,317.9111052999997,317.9111052999997,,318.7968481000007,left,1.0,34.72980309999912,,,,,,,,,,,,,,,,,,,,,,,,,,,,,,,sub-148,1.0,random_dot,60.18487590167421,
left,left,speed,,,,,0.0,0.0,0.0,1.0,19.0,0.0,38.0,0.0,318.81081019999874,,,,,,,,,318.7990688000009,319.61170709999897,320.4128247999997,320.39655719999973,320.39659420000135,320.4128247999997,320.4128247999997,320.4128247999997,,321.3653850999999,right,0.0,34.797533799999655,,,,,,,,,,,,,,,,,,,,,,,,,,,,,,,sub-148,1.0,random_dot,60.18487590167421,
right,right,speed,,,,,0.0,0.0,0.0,1.0,19.0,1.0,39.0,1.0,321.3792544000007,,,,,,,,,321.36745899999914,321.72944910000115,322.5308477000017,322.5147825000004,322.51483220000046,322.5308477000017,322.5308477000017,322.5308477000017,,325.65136689999963,left,0.0,36.959821000000375,,,,,,,,,,,,,,,,,,,,,,,,,,,,,,,sub-148,1.0,random_dot,60.18487590167421,
left,left,speed,,,,,0.0,0.0,0.0,1.0,20.0,0.0,40.0,0.0,325.66578259999915,,,,,,,,,325.6538779999992,326.8665624000005,327.6679134999995,327.6514713999986,327.651508500001,327.6679134999995,327.6679134999995,327.6679134999995,,329.57117820000167,left,1.0,35.74285439999949,,,,,,,,,,,,,,,,,,,,,,,,,,,,,,,sub-148,1.0,random_dot,60.18487590167421,
right,right,speed,,,,,0.0,0.0,0.0,1.0,20.0,1.0,41.0,1.0,329.5850374999991,,,,,,,,,329.5732020000014,329.6852299000002,330.4862545999986,330.4698829999997,330.4699220999992,330.4862545999986,330.4862545999986,330.4862545999986,,333.34044299999914,right,1.0,36.70480679999673,,,,,,,,,,,,,,,,,,,,,,,,,,,,,,,sub-148,1.0,random_dot,60.18487590167421,
right,right,speed,,,,,0.0,0.0,0.0,1.0,21.0,0.0,42.0,1.0,333.35418820000086,,,,,,,,,333.3427519000016,333.4544804999987,334.2556883999987,334.23924729999817,334.23928290000003,334.2556883999987,334.2556883999987,334.2556883999987,,337.4090328000002,right,1.0,37.005178800001886,,,,,,,,,,,,,,,,,,,,,,,,,,,,,,,sub-148,1.0,random_dot,60.18487590167421,
left,left,speed,,,,,0.0,0.0,0.0,1.0,21.0,1.0,43.0,0.0,337.4235987999982,,,,,,,,,337.4105486999997,337.7739567000008,338.5750554999995,338.5588713000016,338.5589087999997,338.5750554999995,338.5750554999995,338.5750554999995,,340.8621127999995,left,1.0,36.12640420000025,,,,,,,,,,,,,,,,,,,,,,,,,,,,,,,sub-148,1.0,random_dot,60.18487590167421,
right,right,speed,,,,,0.0,0.0,0.0,1.0,22.0,0.0,44.0,1.0,340.8760257999984,,,,,,,,,340.8641974000002,341.2263781999991,342.0277009000001,342.0114832999989,342.0115231,342.0277009000001,342.0277009000001,342.0277009000001,,343.1297968000017,right,1.0,34.94352029999936,,,,,,,,,,,,,,,,,,,,,,,,,,,,,,,sub-148,1.0,random_dot,60.18487590167421,
left,left,speed,,,,,0.0,0.0,0.0,1.0,22.0,1.0,45.0,0.0,343.14411389999987,,,,,,,,,343.1320685999981,343.49454389999846,344.2960045999989,344.27987689999827,344.2799176999997,344.2960045999989,344.2960045999989,344.2960045999989,,345.9652823000015,left,1.0,35.50617379999676,,,,,,,,,,,,,,,,,,,,,,,,,,,,,,,sub-148,1.0,random_dot,60.18487590167421,
right,right,speed,,,,,0.0,0.0,0.0,1.0,23.0,0.0,46.0,1.0,345.97971380000126,,,,,,,,,345.96732410000004,346.780231499999,347.5813824000016,347.56484499999897,347.5648811999981,347.5813824000016,347.5813824000016,347.5813824000016,,349.66790420000143,right,1.0,35.92997599999944,,,,,,,,,,,,,,,,,,,,,,,,,,,,,,,sub-148,1.0,random_dot,60.18487590167421,
left,left,speed,,,,,0.0,0.0,0.0,1.0,23.0,1.0,47.0,0.0,349.6819884000015,,,,,,,,,349.67053380000107,350.8830848000016,351.6840064000007,351.66788859999906,351.6679262000016,351.6840064000007,351.6840064000007,351.6840064000007,,352.5698477999995,left,1.0,34.73712339999838,,,,,,,,,,,,,,,,,,,,,,,,,,,,,,,sub-148,1.0,random_dot,60.18487590167421,
left,left,speed,,,,,0.0,0.0,0.0,1.0,24.0,0.0,48.0,0.0,352.58390509999845,,,,,,,,,352.57183199999963,353.7851026000008,354.5861171999986,354.5698184000012,354.5698575000006,354.5861171999986,354.5861171999986,354.5861171999986,,356.13887449999856,left,1.0,35.39507009999943,,,,,,,,,,,,,,,,,,,,,,,,,,,,,,,sub-148,1.0,random_dot,60.18487590167421,
right,right,speed,,,,,0.0,0.0,0.0,1.0,24.0,1.0,49.0,1.0,356.1531578999984,,,,,,,,,356.1406898000005,356.9536172999997,357.75495200000114,357.7384957000013,357.7385434000007,357.75495200000114,357.75495200000114,357.75495200000114,,361.47590540000056,right,1.0,37.56627959999969,,,,,,,,,,,,,,,,,,,,,,,,,,,,,,,sub-148,1.0,random_dot,60.18487590167421,
right,right,speed,,,,,0.0,0.0,0.0,1.0,25.0,0.0,50.0,1.0,361.4899814,,,,,,,,,361.4780198999997,362.2908370999994,363.0919823999993,363.075642400001,363.0756779999992,363.0919823999993,363.0919823999993,363.0919823999993,,364.1777798999992,right,1.0,34.929109400000016,,,,,,,,,,,,,,,,,,,,,,,,,,,,,,,sub-148,1.0,random_dot,60.18487590167421,
left,left,speed,,,,,0.0,0.0,0.0,1.0,25.0,1.0,51.0,0.0,364.19206790000135,,,,,,,,,364.1796688999984,364.2922113000004,365.0934261999992,365.07716769999934,365.0772062000015,365.0934261999992,365.0934261999992,365.0934261999992,,366.1625241999991,left,1.0,34.90769089999958,,,,,,,,,,,,,,,,,,,,,,,,,,,,,,,sub-148,1.0,random_dot,60.18487590167421,
left,left,speed,,,,,0.0,0.0,0.0,1.0,26.0,0.0,52.0,0.0,366.1767641999995,,,,,,,,,366.1646669999991,367.377626200001,368.1792226000016,368.1623190000009,368.1623492999988,368.1792226000016,368.1792226000016,368.1792226000016,,369.5644396000007,left,1.0,35.23177420000138,,,,,,,,,,,,,,,,,,,,,,,,,,,,,,,sub-148,1.0,random_dot,60.18487590167421,
right,right,speed,,,,,0.0,0.0,0.0,1.0,26.0,1.0,53.0,1.0,369.5790799000006,,,,,,,,,369.56608270000106,369.9295590999991,370.7305208000016,370.71423459999824,370.7142718999985,370.7305208000016,370.7305208000016,370.7305208000016,,371.7829518999988,right,1.0,34.890908299999865,,,,,,,,,,,,,,,,,,,,,,,,,,,,,,,sub-148,1.0,random_dot,60.18487590167421,
right,right,speed,,,,,0.0,0.0,0.0,1.0,27.0,0.0,54.0,1.0,371.797360999999,,,,,,,,,371.7850206999992,372.5978974000009,373.3991956000009,373.38294829999904,373.3829860999994,373.3991956000009,373.3991956000009,373.3991956000009,,374.4846980999992,right,1.0,34.9227549999996,,,,,,,,,,,,,,,,,,,,,,,,,,,,,,,sub-148,1.0,random_dot,60.18487590167421,
left,left,speed,,,,,0.0,0.0,0.0,1.0,27.0,1.0,55.0,0.0,374.49908400000095,,,,,,,,,374.4865348000003,375.70008829999824,376.50112999999874,376.484843799999,376.4848790999986,376.50112999999874,376.50112999999874,376.50112999999874,,377.4202477000017,left,1.0,34.77002630000061,,,,,,,,,,,,,,,,,,,,,,,,,,,,,,,sub-148,1.0,random_dot,60.18487590167421,
left,left,speed,,,,,0.0,0.0,0.0,1.0,28.0,0.0,56.0,0.0,377.4342721000012,,,,,,,,,377.4223432000017,377.78456280000137,378.5859986000014,378.56957449999936,378.5696122999998,378.5859986000014,378.5859986000014,378.5859986000014,,381.77327839999816,left,1.0,37.02533240000048,,,,,,,,,,,,,,,,,,,,,,,,,,,,,,,sub-148,1.0,random_dot,60.18487590167421,
right,right,speed,,,,,0.0,0.0,0.0,1.0,28.0,1.0,57.0,1.0,381.7873320999988,,,,,,,,,381.77549660000113,381.8874538,382.6887391,382.6724736999986,382.6725143999993,382.6887391,382.6887391,382.6887391,,386.7430932000007,right,1.0,37.90300599999682,,,,,,,,,,,,,,,,,,,,,,,,,,,,,,,sub-148,1.0,random_dot,60.18487590167421,
right,right,speed,,,,,0.0,0.0,0.0,1.0,29.0,0.0,58.0,1.0,386.7574188000017,,,,,,,,,386.7449275999989,387.9582810999982,388.7596694000004,388.7434983000003,388.7435339999993,388.7596694000004,388.7596694000004,388.7596694000004,393.7462682999994,394.5652547000009,right,1.0,39.65144919999875,,,,,,,,,,,,,,,,,,,,,,,,,,,,,,,sub-148,1.0,random_dot,60.18487590167421,
left,left,speed,,,,,0.0,0.0,0.0,1.0,29.0,1.0,59.0,0.0,394.5796398000002,,,,,,,,,394.5673565000016,395.780185900001,396.5819623000007,396.565023000001,396.5650554000004,396.5819623000007,396.5819623000007,396.5819623000007,,399.2020921999992,left,1.0,36.46974559999944,,,,,,,,,,,,,,,,,,,,,,,,,,,,,,,sub-148,1.0,random_dot,60.18487590167421,
,,speed,,,,,0.0,0.0,0.0,1.0,,,,,,,,,,,,,,,,,,,,,,,,,,,,,,,,,,,,,,,,,,,,,,,,,,,,,,,,,sub-148,1.0,random_dot,60.18487590167421,
right,right,accuracy,,,,,0.0,1.0,1.0,0.0,0.0,0.0,0.0,1.0,420.1803414000005,,,,,,,,,420.1753808000012,420.98082859999886,421.78216449999854,421.7656901999999,421.7657406999988,421.78216449999854,421.78216449999854,421.78216449999854,,424.1355281999986,right,1.0,36.2001575999966,,,,,,,,,,,,,,,,,,,,399.2041158000011,399.2272467999992,399.2272467999992,420.16533909999816,space,54.77533649999896,,,,,,sub-148,1.0,random_dot,60.18487590167421,
left,left,accuracy,,,,,0.0,1.0,1.0,0.0,0.0,1.0,1.0,0.0,424.1495276000005,,,,,,,,,424.1382504000012,425.3506165000017,426.1518366,426.13569879999886,426.1357507999983,426.1518366,426.1518366,426.1518366,,428.2050991000015,left,1.0,35.890450700000656,,,,,,,,,,,,,,,,,,,,,,,,,,,,,,,sub-148,1.0,random_dot,60.18487590167421,
left,left,accuracy,,,,,0.0,1.0,1.0,0.0,1.0,0.0,2.0,0.0,428.219242000001,,,,,,,,,428.207245399999,429.420121000001,430.22130500000094,430.2049633000006,430.2050032999996,430.22130500000094,430.22130500000094,430.22130500000094,,431.6906198000015,left,1.0,35.31074609999996,,,,,,,,,,,,,,,,,,,,,,,,,,,,,,,sub-148,1.0,random_dot,60.18487590167421,
right,right,accuracy,,,,,0.0,1.0,1.0,0.0,1.0,1.0,3.0,1.0,431.7047825999998,,,,,,,,,431.6927728999999,432.05501840000034,432.8564596000015,432.8399717000011,432.84001069999977,432.8564596000015,432.8564596000015,432.8564596000015,,435.0595118000001,right,1.0,36.04600909999863,,,,,,,,,,,,,,,,,,,,,,,,,,,,,,,sub-148,1.0,random_dot,60.18487590167421,
left,left,accuracy,,,,,0.0,1.0,1.0,0.0,2.0,0.0,4.0,0.0,435.0738075999998,,,,,,,,,435.0616040000005,436.2748813999988,437.0759428000001,437.0593934000008,437.0594293999984,437.0759428000001,437.0759428000001,437.0759428000001,,439.0956743000006,left,1.0,35.856802099999186,,,,,,,,,,,,,,,,,,,,,,,,,,,,,,,sub-148,1.0,random_dot,60.18487590167421,
right,right,accuracy,,,,,0.0,1.0,1.0,0.0,2.0,1.0,5.0,1.0,439.1102308999998,,,,,,,,,439.0980247999996,439.2101529999982,440.0112046999984,439.9952996000011,439.9953551000017,440.0112046999984,440.0112046999984,440.0112046999984,,442.4317071999994,right,1.0,36.27157009999792,,,,,,,,,,,,,,,,,,,,,,,,,,,,,,,sub-148,1.0,random_dot,60.18487590167421,
left,left,accuracy,,,,,0.0,1.0,1.0,0.0,3.0,0.0,6.0,0.0,442.4455118999995,,,,,,,,,442.4336471000006,443.2461708999999,444.04728069999874,444.03128409999954,444.0313345000013,444.04728069999874,444.04728069999874,444.04728069999874,,445.3506906999992,left,1.0,35.154614399998536,,,,,,,,,,,,,,,,,,,,,,,,,,,,,,,sub-148,1.0,random_dot,60.18487590167421,
right,right,accuracy,,,,,0.0,1.0,1.0,0.0,3.0,1.0,7.0,1.0,445.3641757999994,,,,,,,,,445.3526402000007,445.7143970999987,446.5157272000015,446.4994060000008,446.4994506999992,446.5157272000015,446.5157272000015,446.5157272000015,,447.8683260000016,right,1.0,35.19629840000198,,,,,,,,,,,,,,,,,,,,,,,,,,,,,,,sub-148,1.0,random_dot,60.18487590167421,
right,right,accuracy,,,,,0.0,1.0,1.0,0.0,4.0,0.0,8.0,1.0,447.8825015999992,,,,,,,,,447.87047340000026,448.2328723999981,449.0339594999987,449.0179568000003,449.018006100001,449.0339594999987,449.0339594999987,449.0339594999987,,450.3702757999981,right,1.0,35.17791339999894,,,,,,,,,,,,,,,,,,,,,,,,,,,,,,,sub-148,1.0,random_dot,60.18487590167421,
left,left,accuracy,,,,,0.0,1.0,1.0,0.0,4.0,1.0,9.0,0.0,450.3843273000002,,,,,,,,,450.37254909999865,451.5852931999998,452.3865257000016,452.3703631000008,452.3703994000007,452.3865257000016,452.3865257000016,452.3865257000016,,455.50673300000017,left,1.0,36.96645659999922,,,,,,,,,,,,,,,,,,,,,,,,,,,,,,,sub-148,1.0,random_dot,60.18487590167421,
right,right,accuracy,,,,,0.0,1.0,1.0,0.0,5.0,0.0,10.0,1.0,455.521082199999,,,,,,,,,455.5085243999984,456.722119,457.52321699999993,457.50686400000086,457.5069012000004,457.52321699999993,457.52321699999993,457.52321699999993,,458.6592349000002,right,1.0,34.97885189999943,,,,,,,,,,,,,,,,,,,,,,,,,,,,,,,sub-148,1.0,random_dot,60.18487590167421,
left,left,accuracy,,,,,0.0,1.0,1.0,0.0,5.0,1.0,11.0,0.0,458.6733737999984,,,,,,,,,458.6613243999982,459.8742398000013,460.6754601000012,460.65910220000114,460.6591414000013,460.6754601000012,460.6754601000012,460.6754601000012,,463.1123346000004,left,1.0,36.27648860000045,,,,,,,,,,,,,,,,,,,,,,,,,,,,,,,sub-148,1.0,random_dot,60.18487590167421,
left,left,accuracy,,,,,0.0,1.0,1.0,0.0,6.0,0.0,12.0,0.0,463.1265527000014,,,,,,,,,463.1145521999988,464.3270795000008,465.1284801999991,465.1124704999984,465.1125052000007,465.1284801999991,465.1284801999991,465.1284801999991,,466.2810025000017,left,1.0,35.00354529999822,,,,,,,,,,,,,,,,,,,,,,,,,,,,,,,sub-148,1.0,random_dot,60.18487590167421,
right,right,accuracy,,,,,0.0,1.0,1.0,0.0,6.0,1.0,13.0,1.0,466.2951155999999,,,,,,,,,466.2834822999994,466.6454786999984,467.4467353999989,467.43005770000127,467.4300940999983,467.4467353999989,467.4467353999989,467.4467353999989,,468.9659870999985,right,1.0,35.35624689999895,,,,,,,,,,,,,,,,,,,,,,,,,,,,,,,sub-148,1.0,random_dot,60.18487590167421,
left,left,accuracy,,,,,0.0,1.0,1.0,0.0,7.0,0.0,14.0,0.0,468.9804108000008,,,,,,,,,468.9680347999984,469.7809976000008,470.5821062999985,470.5657847999992,470.5658243000016,470.5821062999985,470.5821062999985,470.5821062999985,,471.6015759999991,left,1.0,34.8698876999988,,,,,,,,,,,,,,,,,,,,,,,,,,,,,,,sub-148,1.0,random_dot,60.18487590167421,
right,right,accuracy,,,,,0.0,1.0,1.0,0.0,7.0,1.0,15.0,1.0,471.6156513000005,,,,,,,,,471.60373699999946,471.96571439999934,472.7671957000002,472.7510731999992,472.7511104999994,472.7671957000002,472.7671957000002,472.7671957000002,,475.0870752999999,left,0.0,36.16581099999894,,,,,,,,,,,,,,,,,,,,,,,,,,,,,,,sub-148,1.0,random_dot,60.18487590167421,
left,left,accuracy,,,,,0.0,1.0,1.0,0.0,8.0,0.0,16.0,0.0,475.1011899999994,,,,,,,,,475.0893656999997,475.20138039999983,476.00257859999874,475.9864347999992,475.98647209999945,476.00257859999874,476.00257859999874,476.00257859999874,,478.7228363000013,left,1.0,36.55950109999685,,,,,,,,,,,,,,,,,,,,,,,,,,,,,,,sub-148,1.0,random_dot,60.18487590167421,
right,right,accuracy,,,,,0.0,1.0,1.0,0.0,8.0,1.0,17.0,1.0,478.7370809000004,,,,,,,,,478.7249422000005,479.9379352000015,480.7392215999989,480.7227996999991,480.7228607999986,480.7392215999989,480.7392215999989,480.7392215999989,,481.7247688000007,right,1.0,34.82279019999987,,,,,,,,,,,,,,,,,,,,,,,,,,,,,,,sub-148,1.0,random_dot,60.18487590167421,
left,left,accuracy,,,,,0.0,1.0,1.0,0.0,9.0,0.0,18.0,0.0,481.7390576000016,,,,,,,,,481.7268225999997,482.0894074000007,482.890723800001,482.8744408000002,482.8744752000002,482.890723800001,482.890723800001,482.890723800001,,484.0765106000017,left,1.0,35.03121470000042,,,,,,,,,,,,,,,,,,,,,,,,,,,,,,,sub-148,1.0,random_dot,60.18487590167421,
right,right,accuracy,,,,,0.0,1.0,1.0,0.0,9.0,1.0,19.0,1.0,484.0908303000015,,,,,,,,,484.0790983999996,484.89129570000114,485.6926770000009,485.6760750999984,485.67611249999936,485.6926770000009,485.6926770000009,485.6926770000009,490.6792465000017,491.06471430000056,left,0.0,39.20905789999961,,,,,,,,,,,,,,,,,,,,,,,,,,,,,,,sub-148,1.0,random_dot,60.18487590167421,
left,left,accuracy,,,,,0.0,1.0,1.0,0.0,10.0,0.0,20.0,0.0,491.0787676999989,,,,,,,,,491.0669297000004,491.8795942999986,492.68059959999846,492.6644140000008,492.6644514999989,492.68059959999846,492.68059959999846,492.68059959999846,,494.4009410999988,right,0.0,35.572160300002,,,,,,,,,,,,,,,,,,,,,,,,,,,,,,,sub-148,1.0,random_dot,60.18487590167421,
right,right,accuracy,,,,,0.0,1.0,1.0,0.0,10.0,1.0,21.0,1.0,494.4145407999986,,,,,,,,,494.4030412999982,495.2150630999986,496.0163159999993,495.9999396000003,495.9999765999983,496.0163159999993,496.0163159999993,496.0163159999993,,497.5692332999988,right,1.0,35.396536399999604,,,,,,,,,,,,,,,,,,,,,,,,,,,,,,,sub-148,1.0,random_dot,60.18487590167421,
left,left,accuracy,,,,,0.0,1.0,1.0,0.0,11.0,0.0,22.0,0.0,497.5833958999992,,,,,,,,,497.5712527000014,498.3839269,499.1849243999986,499.1689443999985,499.1690165999989,499.1849243999986,499.1849243999986,499.1849243999986,,502.105544,right,0.0,36.75773729999855,,,,,,,,,,,,,,,,,,,,,,,,,,,,,,,sub-148,1.0,random_dot,60.18487590167421,
right,right,accuracy,,,,,0.0,1.0,1.0,0.0,11.0,1.0,23.0,1.0,502.11982479999824,,,,,,,,,502.1076430999983,503.32066120000127,504.1218718,504.1053260999997,504.1053602000011,504.1218718,504.1218718,504.1218718,,505.5913438000007,right,1.0,35.3208252000004,,,,,,,,,,,,,,,,,,,,,,,,,,,,,,,sub-148,1.0,random_dot,60.18487590167421,
right,right,accuracy,,,,,0.0,1.0,1.0,0.0,12.0,0.0,24.0,1.0,505.6054922999992,,,,,,,,,505.5941608000012,505.9557766000016,506.75700210000105,506.7405438000005,506.7405817000017,506.75700210000105,506.75700210000105,506.75700210000105,,507.992811099999,right,1.0,35.075581400000374,,,,,,,,,,,,,,,,,,,,,,,,,,,,,,,sub-148,1.0,random_dot,60.18487590167421,
left,left,accuracy,,,,,0.0,1.0,1.0,0.0,12.0,1.0,25.0,0.0,508.0071838999993,,,,,,,,,507.994906599999,508.1071055000011,508.9084147999984,508.8926816000003,508.89272710000114,508.9084147999984,508.9084147999984,508.9084147999984,,510.9117510000015,right,0.0,35.85413999999946,,,,,,,,,,,,,,,,,,,,,,,,,,,,,,,sub-148,1.0,random_dot,60.18487590167421,
left,left,accuracy,,,,,0.0,1.0,1.0,0.0,13.0,0.0,26.0,0.0,510.9256805999994,,,,,,,,,510.9138513000016,511.27606489999926,512.0773763999987,512.0609185999983,512.0609576000006,512.0773763999987,512.0773763999987,512.0773763999987,,514.2303358000008,right,0.0,35.99552059999769,,,,,,,,,,,,,,,,,,,,,,,,,,,,,,,sub-148,1.0,random_dot,60.18487590167421,
right,right,accuracy,,,,,0.0,1.0,1.0,0.0,13.0,1.0,27.0,1.0,514.2444885999994,,,,,,,,,514.2329689999988,515.0453146999989,515.8463925999986,515.8306676999982,515.8307044999983,515.8463925999986,515.8463925999986,515.8463925999986,,517.3330789999982,right,1.0,35.33711829999811,,,,,,,,,,,,,,,,,,,,,,,,,,,,,,,sub-148,1.0,random_dot,60.18487590167421,
right,right,accuracy,,,,,0.0,1.0,1.0,0.0,14.0,0.0,28.0,1.0,517.3469395999982,,,,,,,,,517.3353114000001,517.6971036000014,518.4983115000014,518.4821162999997,518.4821551000005,518.4983115000014,518.4983115000014,518.4983115000014,,520.8015738000013,right,1.0,36.14455210000233,,,,,,,,,,,,,,,,,,,,,,,,,,,,,,,sub-148,1.0,random_dot,60.18487590167421,
left,left,accuracy,,,,,0.0,1.0,1.0,0.0,14.0,1.0,29.0,0.0,520.8157778000004,,,,,,,,,520.8036813000017,522.0168358999999,522.8179437999988,522.8015704000009,522.8016077000011,522.8179437999988,522.8179437999988,522.8179437999988,,524.6707767999997,right,0.0,35.695509900000616,,,,,,,,,,,,,,,,,,,,,,,,,,,,,,,sub-148,1.0,random_dot,60.18487590167421,
left,left,accuracy,,,,,0.0,1.0,1.0,0.0,15.0,0.0,30.0,0.0,524.6850403000008,,,,,,,,,524.6730335999982,525.8860589000014,526.6870873999997,526.6709874999997,526.6710255999988,526.6870873999997,526.6870873999997,526.6870873999997,,528.8903446999993,right,0.0,36.04567999999927,,,,,,,,,,,,,,,,,,,,,,,,,,,,,,,sub-148,1.0,random_dot,60.18487590167421,
right,right,accuracy,,,,,0.0,1.0,1.0,0.0,15.0,1.0,31.0,1.0,528.904631200001,,,,,,,,,528.8924621999995,529.2548924999992,530.056319199999,530.0400997000015,530.0401431000009,530.056319199999,530.056319199999,530.056319199999,,531.8424026999983,right,1.0,35.626510599999165,,,,,,,,,,,,,,,,,,,,,,,,,,,,,,,sub-148,1.0,random_dot,60.18487590167421,
left,left,accuracy,,,,,0.0,1.0,1.0,0.0,16.0,0.0,32.0,0.0,531.8567959999982,,,,,,,,,531.8444672999995,531.9568597999987,532.7581680999992,532.7413977000015,532.7414331999989,532.7581680999992,532.7581680999992,532.7581680999992,,534.9780460999991,right,0.0,36.06578799999989,,,,,,,,,,,,,,,,,,,,,,,,,,,,,,,sub-148,1.0,random_dot,60.18487590167421,
right,right,accuracy,,,,,0.0,1.0,1.0,0.0,16.0,1.0,33.0,1.0,534.992114300001,,,,,,,,,534.9801449999995,535.0924763999992,535.8935282000002,535.8773831999988,535.8774231000007,535.8935282000002,535.8935282000002,535.8935282000002,540.8804006000009,541.3827347999995,left,0.0,39.33914359999835,,,,,,,,,,,,,,,,,,,,,,,,,,,,,,,sub-148,1.0,random_dot,60.18487590167421,
right,right,accuracy,,,,,0.0,1.0,1.0,0.0,17.0,0.0,34.0,1.0,541.3967791999985,,,,,,,,,541.3848276000008,541.4966029000007,542.2979159000006,542.2818164,542.2818552000008,542.2979159000006,542.2979159000006,542.2979159000006,,546.6861487000006,right,1.0,38.23525370000061,,,,,,,,,,,,,,,,,,,,,,,,,,,,,,,sub-148,1.0,random_dot,60.18487590167421,
left,left,accuracy,,,,,0.0,1.0,1.0,0.0,17.0,1.0,35.0,0.0,546.7002779999984,,,,,,,,,546.6882113999982,547.0503599999993,547.8515997000013,547.8350811,547.8351272999989,547.8515997000013,547.8515997000013,547.8515997000013,,552.6236814999993,left,1.0,38.6209314000007,,,,,,,,,,,,,,,,,,,,,,,,,,,,,,,sub-148,1.0,random_dot,60.18487590167421,
left,left,accuracy,,,,,0.0,1.0,1.0,0.0,18.0,0.0,36.0,0.0,552.6375098000008,,,,,,,,,552.625909299999,553.8385413999986,554.6396435000006,554.6232827000003,554.6233182000014,554.6396435000006,554.6396435000006,554.6396435000006,,557.7613460999983,right,0.0,36.97289219999948,,,,,,,,,,,,,,,,,,,,,,,,,,,,,,,sub-148,1.0,random_dot,60.18487590167421,
right,right,accuracy,,,,,0.0,1.0,1.0,0.0,18.0,1.0,37.0,1.0,557.7743715999986,,,,,,,,,557.7635391999993,558.9752492999996,559.7763824999984,559.7603485999989,559.7604004000004,559.7763824999984,559.7763824999984,559.7763824999984,564.7631271000009,564.8821133000001,left,0.0,38.956881500002055,,,,,,,,,,,,,,,,,,,,,,,,,,,,,,,sub-148,1.0,random_dot,60.18487590167421,
right,right,accuracy,,,,,0.0,1.0,1.0,0.0,19.0,0.0,38.0,1.0,564.8961933999981,,,,,,,,,564.8842734000009,564.9962613000007,565.7974775999992,565.7812850999999,565.7813387000006,565.7974775999992,565.7974775999992,565.7974775999992,,568.9511758999997,right,1.0,36.99510089999967,,,,,,,,,,,,,,,,,,,,,,,,,,,,,,,sub-148,1.0,random_dot,60.18487590167421,
left,left,accuracy,,,,,0.0,1.0,1.0,0.0,19.0,1.0,39.0,0.0,568.9654685000005,,,,,,,,,568.9532978000007,570.1662935000004,570.9675650000008,570.9510738000008,570.9511121000014,570.9675650000008,570.9675650000008,570.9675650000008,,574.2721603000009,right,0.0,37.15581190000012,,,,,,,,,,,,,,,,,,,,,,,,,,,,,,,sub-148,1.0,random_dot,60.18487590167421,
right,right,accuracy,,,,,0.0,1.0,1.0,0.0,20.0,0.0,40.0,1.0,574.2858663999996,,,,,,,,,574.2742343000009,574.6359743999983,575.4374343,575.4209438999987,575.420981199999,575.4374343,575.4374343,575.4374343,,578.3911341000003,right,1.0,36.79718729999877,,,,,,,,,,,,,,,,,,,,,,,,,,,,,,,sub-148,1.0,random_dot,60.18487590167421,
left,left,accuracy,,,,,0.0,1.0,1.0,0.0,20.0,1.0,41.0,0.0,578.4053255999988,,,,,,,,,578.3933536999994,578.7553943000003,579.5568173999982,579.5403198000004,579.540356200001,579.5568173999982,579.5568173999982,579.5568173999982,,583.2443790000016,left,1.0,37.52654519999851,,,,,,,,,,,,,,,,,,,,,,,,,,,,,,,sub-148,1.0,random_dot,60.18487590167421,
left,left,accuracy,,,,,0.0,1.0,1.0,0.0,21.0,0.0,42.0,0.0,583.2589596000016,,,,,,,,,583.2465094999989,584.4595567999986,585.2606340000002,585.2442014999997,585.2442546000002,585.2606340000002,585.2606340000002,585.2606340000002,,589.1987260000005,right,0.0,37.78281819999757,,,,,,,,,,,,,,,,,,,,,,,,,,,,,,,sub-148,1.0,random_dot,60.18487590167421,
right,right,accuracy,,,,,0.0,1.0,1.0,0.0,21.0,1.0,43.0,1.0,589.212749100001,,,,,,,,,589.2007850999998,589.5628530999984,590.3641920999999,590.3478962999998,590.3479342999981,590.3641920999999,590.3641920999999,590.3641920999999,,595.1024705,left,0.0,38.57919050000055,,,,,,,,,,,,,,,,,,,,,,,,,,,,,,,sub-148,1.0,random_dot,60.18487590167421,
right,right,accuracy,,,,,0.0,1.0,1.0,0.0,22.0,0.0,44.0,1.0,595.1167079999996,,,,,,,,,595.1047096999991,595.466970200001,596.2681745999998,596.2523875999996,596.2524274000007,596.2681745999998,596.2681745999998,596.2681745999998,,599.6884547999998,right,1.0,37.265571899999486,,,,,,,,,,,,,,,,,,,,,,,,,,,,,,,sub-148,1.0,random_dot,60.18487590167421,
left,left,accuracy,,,,,0.0,1.0,1.0,0.0,22.0,1.0,45.0,0.0,599.7030058,,,,,,,,,599.6900976000015,599.8033694999995,600.6045342999987,600.5878795000008,600.5879130000012,600.6045342999987,600.6045342999987,600.6045342999987,605.5913118000008,605.6931010999997,right,0.0,38.93973449999612,,,,,,,,,,,,,,,,,,,,,,,,,,,,,,,sub-148,1.0,random_dot,60.18487590167421,
right,right,accuracy,,,,,0.0,1.0,1.0,0.0,23.0,0.0,46.0,1.0,605.7073747000013,,,,,,,,,605.6950887000003,606.5079745999992,607.3090176999995,607.2928870999986,607.2929362000013,607.3090176999995,607.3090176999995,607.3090176999995,,610.763574999999,left,0.0,37.29415209999934,,,,,,,,,,,,,,,,,,,,,,,,,,,,,,,sub-148,1.0,random_dot,60.18487590167421,
left,left,accuracy,,,,,0.0,1.0,1.0,0.0,23.0,1.0,47.0,0.0,610.7775101999996,,,,,,,,,610.7657095999984,611.1277261999985,611.9287623,611.9124882000015,611.9125269000015,611.9287623,611.9287623,611.9287623,,616.2332727999983,left,1.0,38.15529270000116,,,,,,,,,,,,,,,,,,,,,,,,,,,,,,,sub-148,1.0,random_dot,60.18487590167421,
left,left,accuracy,,,,,0.0,1.0,1.0,0.0,24.0,0.0,48.0,0.0,616.2477443000007,,,,,,,,,616.2342466999999,616.598141299999,617.3994612000006,617.3832956999995,617.3833332999984,617.3994612000006,617.3994612000006,617.3994612000006,,619.7360742000001,left,1.0,36.18499320000046,,,,,,,,,,,,,,,,,,,,,,,,,,,,,,,sub-148,1.0,random_dot,60.18487590167421,
right,right,accuracy,,,,,0.0,1.0,1.0,0.0,24.0,1.0,49.0,1.0,619.7502306000006,,,,,,,,,619.7381256999997,620.1003664,620.9016504999981,620.8853494999985,620.8853887999994,620.9016504999981,620.9016504999981,620.9016504999981,,625.4565481000009,left,0.0,38.39230669999961,,,,,,,,,,,,,,,,,,,,,,,,,,,,,,,sub-148,1.0,random_dot,60.18487590167421,
left,left,accuracy,,,,,0.0,1.0,1.0,0.0,25.0,0.0,50.0,0.0,625.4709649999986,,,,,,,,,625.4586118999996,625.5709903000006,626.3721683999993,626.3557630000014,626.3557993000013,626.3721683999993,626.3721683999993,626.3721683999993,631.3588627000008,633.5455043999991,left,1.0,41.02101730000141,,,,,,,,,,,,,,,,,,,,,,,,,,,,,,,sub-148,1.0,random_dot,60.18487590167421,
right,right,accuracy,,,,,0.0,1.0,1.0,0.0,25.0,1.0,51.0,1.0,633.5597255999983,,,,,,,,,633.5476284000015,633.909813100001,634.7110344000012,634.6947598999996,634.6947960999987,634.7110344000012,634.7110344000012,634.7110344000012,,637.2316688999981,right,1.0,36.37205439999889,,,,,,,,,,,,,,,,,,,,,,,,,,,,,,,sub-148,1.0,random_dot,60.18487590167421,
right,right,accuracy,,,,,0.0,1.0,1.0,0.0,26.0,0.0,52.0,1.0,637.245553499999,,,,,,,,,637.2336707000013,637.3454621000001,638.1468224,638.1306439999989,638.1306806000011,638.1468224,638.1468224,638.1468224,,640.9836201000016,left,0.0,36.68759929999942,,,,,,,,,,,,,,,,,,,,,,,,,,,,,,,sub-148,1.0,random_dot,60.18487590167421,
left,left,accuracy,,,,,0.0,1.0,1.0,0.0,26.0,1.0,53.0,0.0,640.9979775000011,,,,,,,,,640.9855313999997,641.0982120999997,641.8993627,641.8832547000002,641.8832927999993,641.8993627,641.8993627,641.8993627,,643.4350661000008,left,1.0,35.38463930000216,,,,,,,,,,,,,,,,,,,,,,,,,,,,,,,sub-148,1.0,random_dot,60.18487590167421,
right,right,accuracy,,,,,0.0,1.0,1.0,0.0,27.0,0.0,54.0,1.0,643.4498818999982,,,,,,,,,643.4361423999999,644.250243299999,645.0515197000004,645.0354143999994,645.0354513000002,645.0515197000004,645.0515197000004,645.0515197000004,,647.4549380000008,right,1.0,36.24216940000042,,,,,,,,,,,,,,,,,,,,,,,,,,,,,,,sub-148,1.0,random_dot,60.18487590167421,
left,left,accuracy,,,,,0.0,1.0,1.0,0.0,27.0,1.0,55.0,0.0,647.4690643999984,,,,,,,,,647.4569653999988,647.5692705999991,648.3703991999992,648.3541808999998,648.3542183000009,648.3703991999992,648.3703991999992,648.3703991999992,,650.4069854999998,left,1.0,35.87363710000136,,,,,,,,,,,,,,,,,,,,,,,,,,,,,,,sub-148,1.0,random_dot,60.18487590167421,
right,right,accuracy,,,,,0.0,1.0,1.0,0.0,28.0,0.0,56.0,1.0,650.4213169999985,,,,,,,,,650.4090142000005,651.6219193000015,652.4232624000015,652.4073227999997,652.4073799999987,652.4232624000015,652.4232624000015,652.4232624000015,,653.8260541,right,1.0,35.241196999999374,,,,,,,,,,,,,,,,,,,,,,,,,,,,,,,sub-148,1.0,random_dot,60.18487590167421,
left,left,accuracy,,,,,0.0,1.0,1.0,0.0,28.0,1.0,57.0,0.0,653.8401873999992,,,,,,,,,653.8283191999999,654.1907319000002,654.9915501000014,654.9754542999999,654.9754888000007,654.9915501000014,654.9915501000014,654.9915501000014,,658.2956270999985,left,1.0,37.14324250000209,,,,,,,,,,,,,,,,,,,,,,,,,,,,,,,sub-148,1.0,random_dot,60.18487590167421,
left,left,accuracy,,,,,0.0,1.0,1.0,0.0,29.0,0.0,58.0,0.0,658.3100350000004,,,,,,,,,658.2978230999997,658.6600423,659.4613674999982,659.4452898,659.4453279999998,659.4613674999982,659.4613674999982,659.4613674999982,,660.6473290999984,left,1.0,35.0339075999982,,,,,,,,,,,,,,,,,,,,,,,,,,,,,,,sub-148,1.0,random_dot,60.18487590167421,
right,right,accuracy,,,,,0.0,1.0,1.0,0.0,29.0,1.0,59.0,1.0,660.6614444999996,,,,,,,,,660.6486596000013,660.7615306999996,661.5627207000016,661.546711500001,661.5467502999982,661.5627207000016,661.5627207000016,661.5627207000016,,663.2993063999984,right,1.0,35.58278629999768,,,,,,,,,,,,,,,,,,,,,,,,,,,,,,,sub-148,1.0,random_dot,60.18487590167421,
,,accuracy,,,,,0.0,1.0,1.0,0.0,,,,,,,,,,,,,,,,,,,,,,,,,,,,,,,,,,,,,,,,,,,,,,,,,,,,,,,,,sub-148,1.0,random_dot,60.18487590167421,
,,,,,,,,,,,,,,,,,,,,,,,,,,,,,,,,,,,,,,,,,,,,,,,,,,,,,,,,,,,,,,,663.3012935999996,663.3136232000015,668.3168547000005,668.3012131000014,sub-148,,,,
