wordCTK,colorCTK,corrAnsCTK,congruentCTK,thisN,thisTrialN,thisRepN,keyResp_CTK.keys,keyResp_CTK.corr,keyResp_CTK.rt,keyResp_CTK.duration,wordPractice,colorPractice,corrAnsPractice,congruentPractice,respPractice.keys,respPractice.corr,respPractice.rt,respPractice.duration,word,color,corrAns,congruent,keyResp_test_run.keys,keyResp_test_run.corr,keyResp_test_run.rt,keyResp_test_run.duration,trials_CTK.thisRepN,trials_CTK.thisTrialN,trials_CTK.thisN,trials_CTK.thisIndex,trials_practice.thisRepN,trials_practice.thisTrialN,trials_practice.thisN,trials_practice.thisIndex,trials_test.thisRepN,trials_test.thisTrialN,trials_test.thisN,trials_test.thisIndex,thisRow.t,notes,instruction.started,instr_text.started,instr_image.started,instr_resp.started,instruction.stopped,instr_resp.keys,instr_resp.rt,instr_resp.duration,instr_color_to_key.started,instr_ctk.started,resp_ctk.started,instr_color_to_key.stopped,resp_ctk.keys,resp_ctk.rt,resp_ctk.duration,ITI.started,fixcross.started,fixcross.stopped,ITI.stopped,color_to_key_run.started,stimulus_CTK.started,keyResp_CTK.started,color_to_key_run.stopped,trials_CTK.keyResp_CTK.keys,trials_CTK.keyResp_CTK.corr,trials_CTK.keyResp_CTK.rt,trials_CTK.keyResp_CTK.duration,instr_practice.started,instr_practice_text.started,instr_practice_resp.started,instr_practice.stopped,instr_practice_resp.keys,instr_practice_resp.rt,instr_practice_resp.duration,practice_run.started,stimulus_practice.started,respPractice.started,practice_run.stopped,trials_practice.respPractice.keys,trials_practice.respPractice.corr,trials_practice.respPractice.rt,trials_practice.respPractice.duration,feedback.started,textFeedback.started,feedback.stopped,textFeedback.stopped,instr_test.started,instr_test_text.started,instr_test_resp.started,instr_test.stopped,instr_test_resp.keys,instr_test_resp.rt,instr_test_resp.duration,test_run.started,stimulus_test_run.started,keyResp_test_run.started,test_run.stopped,trials_test.keyResp_test_run.keys,trials_test.keyResp_test_run.corr,trials_test.keyResp_test_run.rt,trials_test.keyResp_test_run.duration,goodbye.started,textGoodbye.started,textGoodbye.stopped,goodbye.stopped,participant,session,expName,frameRate,Unnamed: 113
,,,,,,,,,,,,,,,,,,,,,,,,,,,,,,,,,,,,,,,,,0.008270999999695,0.0165754169993306,0.0165754169993306,0.0165754169993306,3.990122541999881,space,3.933415958999831,,,,,,,,,,,,,,,,,,,,,,,,,,,,,,,,,,,,,,,,,,,,,,,,,,,,,,,,,,,sub-060,1,stroop_test,,
,,,,,,,,,,,,,,,,,,,,,,,,,,,,,,,,,,,,,,,,,,,,,,,,,3.9901899999995294,4.015461041999515,4.015461041999515,7.214792832999592,space,3.1920984170001248,,,,,,,,,,,,,,,,,,,,,,,,,,,,,,,,,,,,,,,,,,,,,,,,,,,,sub-060,1,stroop_test,,
test,yellow,g,1.0,0.0,0.0,0.0,g,1.0,1.3517505410000012,,,,,,,,,,,,,,,,,,0.0,0.0,0.0,1.0,,,,,,,,,7.249115707999408,,,,,,,,,,,,,,,,,7.233730791999733,8.420085291999385,9.227795582999534,9.213055291999808,9.22097945799942,9.227795582999534,9.227795582999534,10.58205233299941,g,1.0,1.3517505410000012,,,,,,,,,,,,,,,,,,,,,,,,,,,,,,,,,,,,,,,,sub-060,1,stroop_test,,
test,blue,b,1.0,1.0,1.0,0.0,b,1.0,0.8433388329995068,,,,,,,,,,,,,,,,,,0.0,1.0,1.0,2.0,,,,,,,,,10.592624291999527,,,,,,,,,,,,,,,,,10.582707042000038,11.379118166999431,12.170061499999974,12.163056708000113,12.163635291999526,12.170061499999974,12.170061499999974,13.020476207999309,b,1.0,0.8433388329995068,,,,,,,,,,,,,,,,,,,,,,,,,,,,,,,,,,,,,,,,sub-060,1,stroop_test,,
test,red,r,1.0,2.0,2.0,0.0,r,1.0,0.9052392920002604,,,,,,,,,,,,,,,,,,0.0,2.0,2.0,0.0,,,,,,,,,13.0307424169996,,,,,,,,,,,,,,,,,13.021023958000114,13.818825041999844,14.61122499999965,14.601805582999988,14.602402249999614,14.61122499999965,14.61122499999965,15.52095008299966,r,1.0,0.9052392920002604,,,,,,,,,,,,,,,,,,,,,,,,,,,,,,,,,,,,,,,,sub-060,1,stroop_test,,
test,red,r,1.0,3.0,0.0,1.0,r,1.0,0.5922178750006424,,,,,,,,,,,,,,,,,,1.0,0.0,3.0,0.0,,,,,,,,,15.531098458000088,,,,,,,,,,,,,,,,,15.5214336250001,15.868718042000182,16.661103792000176,16.65187637500003,16.652452082999844,16.661103792000176,16.661103792000176,17.264401749999706,r,1.0,0.5922178750006424,,,,,,,,,,,,,,,,,,,,,,,,,,,,,,,,,,,,,,,,sub-060,1,stroop_test,,
test,yellow,g,1.0,4.0,1.0,1.0,g,1.0,0.5353637079997497,,,,,,,,,,,,,,,,,,1.0,1.0,4.0,1.0,,,,,,,,,17.274489166999956,,,,,,,,,,,,,,,,,17.264948832999835,17.612381916999766,18.40409937499953,18.39644266699997,18.397208458000023,18.40409937499953,18.40409937499953,18.947875249999925,g,1.0,0.5353637079997497,,,,,,,,,,,,,,,,,,,,,,,,,,,,,,,,,,,,,,,,sub-060,1,stroop_test,,
test,blue,b,1.0,5.0,2.0,1.0,b,1.0,0.4848766249997425,,,,,,,,,,,,,,,,,,1.0,2.0,5.0,2.0,,,,,,,,,18.957953207999708,,,,,,,,,,,,,,,,,18.94850066700019,19.29577466699993,20.08666875000017,20.07967245799955,20.080261166999662,20.08666875000017,20.08666875000017,20.581141249999742,b,1.0,0.4848766249997425,,,,,,,,,,,,,,,,,,,,,,,,,,,,,,,,,,,,,,,,sub-060,1,stroop_test,,
test,yellow,g,1.0,6.0,0.0,2.0,g,1.0,0.7258882919995813,,,,,,,,,,,,,,,,,,2.0,0.0,6.0,1.0,,,,,,,,,20.591111582999478,,,,,,,,,,,,,,,,,20.58171145799952,20.9291758749996,21.72025595800005,21.71303508299934,21.713628041999986,21.72025595800005,21.72025595800005,22.448748582999546,g,1.0,0.7258882919995813,,,,,,,,,,,,,,,,,,,,,,,,,,,,,,,,,,,,,,,,sub-060,1,stroop_test,,
test,red,r,1.0,7.0,1.0,2.0,r,1.0,0.8041330420001032,,,,,,,,,,,,,,,,,,2.0,1.0,7.0,0.0,,,,,,,,,22.45897920799962,,,,,,,,,,,,,,,,,22.449379249999765,23.64578383299977,24.43754962499952,24.429795791999823,24.43056145799983,24.43754962499952,24.43754962499952,25.2479859999994,r,1.0,0.8041330420001032,,,,,,,,,,,,,,,,,,,,,,,,,,,,,,,,,,,,,,,,sub-060,1,stroop_test,,
test,blue,b,1.0,8.0,2.0,2.0,b,1.0,0.7724536659998193,,,,,,,,,,,,,,,,,,2.0,2.0,8.0,2.0,,,,,,,,,25.258311957999467,,,,,,,,,,,,,,,,,25.24860283299949,25.34560916699957,26.13761650000015,26.12987054199948,26.13063499999953,26.13761650000015,26.13761650000015,26.91433724999933,b,1.0,0.7724536659998193,,,,,,,,,,,,,,,,,,,,,,,,,,,,,,,,,,,,,,,,sub-060,1,stroop_test,,
test,yellow,g,1.0,9.0,0.0,3.0,g,1.0,0.6143991250000909,,,,,,,,,,,,,,,,,,3.0,0.0,9.0,1.0,,,,,,,,,26.92423008300011,,,,,,,,,,,,,,,,,26.91487487499944,27.712391666999796,28.50413141699937,28.49647245799952,28.4972485419994,28.50413141699937,28.50413141699937,29.120930916999896,g,1.0,0.6143991250000909,,,,,,,,,,,,,,,,,,,,,,,,,,,,,,,,,,,,,,,,sub-060,1,stroop_test,,
test,blue,b,1.0,10.0,1.0,3.0,b,1.0,0.6593894170000567,,,,,,,,,,,,,,,,,,3.0,1.0,10.0,2.0,,,,,,,,,29.131425417000173,,,,,,,,,,,,,,,,,29.121462416999748,29.46942958299951,30.271090624999488,30.263208624999606,30.26397633299985,30.271090624999488,30.271090624999488,30.937040499999966,b,1.0,0.6593894170000567,,,,,,,,,,,,,,,,,,,,,,,,,,,,,,,,,,,,,,,,sub-060,1,stroop_test,,
test,red,r,1.0,11.0,2.0,3.0,r,1.0,1.236375749999752,,,,,,,,,,,,,,,,,,3.0,2.0,11.0,0.0,,,,,,,,,30.947259832999407,,,,,,,,,,,,,,,,,30.93753829199977,31.285118207999403,32.07747633300005,32.06887199999983,32.06944525000017,32.07747633300005,32.07747633300005,33.32032512499973,r,1.0,1.236375749999752,,,,,,,,,,,,,,,,,,,,,,,,,,,,,,,,,,,,,,,,sub-060,1,stroop_test,,
,,,,,,,,,,,,,,,,,,,,,,,,,,,,,,,,,,,,,,,,,,,,,,,,,,,,,,,,,,,,,,,,,,,,33.32055558299999,33.33191974999954,33.33191974999954,34.60416545799944,space,1.2662553330001174,,,,,,,,,,,,,,,,,,,,,,,,,,,,,,,,,sub-060,1,stroop_test,,
,,,,0.0,0.0,0.0,,,,,rot,blue,b,0.0,b,1.0,1.170747833999485,,,,,,,,,,,,,,0.0,0.0,0.0,2.0,,,,,34.62515295799949,,,,,,,,,,,,,,,,,34.61837429199932,34.95283791699967,35.76032291699994,35.74637687499944,,,,,,,,,,,,,,,,35.75319129199943,35.76032291699994,35.76032291699994,36.93740187499952,b,1.0,1.170747833999485,,36.946295791999546,36.954746749999686,37.94570974999988,,,,,,,,,,,,,,,,,,,,,sub-060,1,stroop_test,,
,,,,1.0,1.0,0.0,,,,,blau,blue,b,1.0,b,1.0,0.5682271249997939,,,,,,,,,,,,,,0.0,1.0,1.0,5.0,,,,,37.951337083,,,,,,,,,,,,,,,,,37.946187333000125,38.73597862499992,39.54437045799932,39.52990887499982,,,,,,,,,,,,,,,,39.53746120799951,39.54437045799932,39.54437045799932,40.115116416999626,b,1.0,0.5682271249997939,,40.11600445800013,40.12635462500021,41.11321954199957,41.11896629199964,,,,,,,,,,,,,,,,,,,,sub-060,1,stroop_test,,
,,,,2.0,2.0,0.0,,,,,gelb,yellow,g,1.0,g,1.0,0.64431550000063,,,,,,,,,,,,,,0.0,2.0,2.0,11.0,,,,,41.11896629199964,,,,,,,,,,,,,,,,,41.11376270799974,41.91229525000017,42.70777429200007,42.69639570799973,,,,,,,,,,,,,,,,42.70077279199995,42.70777429200007,42.70777429200007,43.35457833300006,g,1.0,0.64431550000063,,43.355423416999656,43.36542149999968,44.35184104200016,44.36241141699975,,,,,,,,,,,,,,,,,,,,sub-060,1,stroop_test,,
,,,,3.0,3.0,0.0,,,,,blau,yellow,g,0.0,g,1.0,1.2435970420001468,,,,,,,,,,,,,,0.0,3.0,3.0,7.0,,,,,44.36241141699975,,,,,,,,,,,,,,,,,44.352247791999616,45.55121204199986,46.34732274999988,46.3357136249997,,,,,,,,,,,,,,,,46.33933566699943,46.34732274999988,46.34732274999988,47.59775383299984,g,1.0,1.2435970420001468,,47.59857437499977,47.60931141699984,48.59650341699944,48.60227895800017,,,,,,,,,,,,,,,,,,,,sub-060,1,stroop_test,,
,,,,4.0,4.0,0.0,,,,,gelb,red,r,0.0,r,1.0,0.90107183300006,,,,,,,,,,,,,,0.0,4.0,4.0,8.0,,,,,48.60227895800017,,,,,,,,,,,,,,,,,48.59702008299973,49.39572058300018,50.19050466699992,50.17961504199957,,,,,,,,,,,,,,,,50.18345895799939,50.19050466699992,50.19050466699992,51.09774354199999,r,1.0,0.90107183300006,,51.0985486669997,51.1094554579995,52.09650712499933,52.10233254200011,,,,,,,,,,,,,,,,,,,,sub-060,1,stroop_test,,
,,,,5.0,5.0,0.0,,,,,rot,yellow,g,0.0,g,1.0,0.956392084000072,,,,,,,,,,,,,,0.0,5.0,5.0,3.0,,,,,52.10233254200011,,,,,,,,,,,,,,,,,52.0970328329995,52.195794499999465,52.9924460000002,52.97984904199984,,,,,,,,,,,,,,,,52.98513895799988,52.9924460000002,52.9924460000002,53.95392899999933,g,1.0,0.956392084000072,,53.95461075000003,53.96461879199978,54.95242812499964,54.96219687499979,,,,,,,,,,,,,,,,,,,,sub-060,1,stroop_test,,
,,,,6.0,6.0,0.0,,,,,gelb,yellow,g,1.0,g,1.0,0.5691610000003493,,,,,,,,,,,,,,0.0,6.0,6.0,10.0,,,,,54.96219687499979,,,,,,,,,,,,,,,,,54.95283533299971,55.75168087499969,56.54705349999949,56.53551829199933,,,,,,,,,,,,,,,,56.53908633299943,56.54705349999949,56.54705349999949,57.12017262500012,g,1.0,0.5691610000003493,,57.12086866699974,57.13126804199965,58.11867745800009,58.128857167000206,,,,,,,,,,,,,,,,,,,,sub-060,1,stroop_test,,
,,,,7.0,7.0,0.0,,,,,rot,red,r,1.0,r,1.0,0.6838276669996048,,,,,,,,,,,,,,0.0,7.0,7.0,0.0,,,,,58.128857167000206,,,,,,,,,,,,,,,,,58.11910162499953,58.218821874999776,59.02480512500006,59.01304883299963,,,,,,,,,,,,,,,,59.01747891699961,59.02480512500006,59.02480512500006,59.71424720799951,r,1.0,0.6838276669996048,,59.71505937499933,59.72596212499957,60.71300854199944,60.71850799999993,,,,,,,,,,,,,,,,,,,,sub-060,1,stroop_test,,
,,,,8.0,8.0,0.0,,,,,blau,blue,b,1.0,b,1.0,0.4311247499999808,,,,,,,,,,,,,,0.0,8.0,8.0,6.0,,,,,60.71850799999993,,,,,,,,,,,,,,,,,60.71342908299994,61.51232504200016,62.30751558300017,62.29623529199944,,,,,,,,,,,,,,,,62.30041029199947,62.30751558300017,62.30751558300017,62.74770933299988,b,1.0,0.4311247499999808,,62.74858899999981,62.75801191699975,63.746241374999954,63.751380875,,,,,,,,,,,,,,,,,,,,sub-060,1,stroop_test,,
,,,,9.0,9.0,0.0,,,,,gelb,blue,b,0.0,b,1.0,1.0932331670001076,,,,,,,,,,,,,,0.0,9.0,9.0,9.0,,,,,63.751380875,,,,,,,,,,,,,,,,,63.74664954199943,64.54569249999986,65.3411244580002,65.32970099999966,,,,,,,,,,,,,,,,65.33406195799944,65.3411244580002,65.3411244580002,66.43743549999999,b,1.0,1.0932331670001076,,66.43817970799955,66.4480880000001,67.43545308299963,67.44561049999993,,,,,,,,,,,,,,,,,,,,sub-060,1,stroop_test,,
,,,,10.0,10.0,0.0,,,,,rot,red,r,1.0,r,1.0,0.7013393340002949,,,,,,,,,,,,,,0.0,10.0,10.0,1.0,,,,,67.44561049999993,,,,,,,,,,,,,,,,,67.43584833299974,68.63533349999943,69.42784366700016,69.41845445799936,,,,,,,,,,,,,,,,69.42183229199964,69.42784366700016,69.42784366700016,70.13165583299997,r,1.0,0.7013393340002949,,70.13252195799942,70.14418641700013,71.12979704200006,71.13554533299975,,,,,,,,,,,,,,,,,,,,sub-060,1,stroop_test,,
,,,,11.0,11.0,0.0,,,,,blau,red,r,0.0,r,1.0,1.014591209000173,,,,,,,,,,,,,,0.0,11.0,11.0,4.0,,,,,71.13554533299975,,,,,,,,,,,,,,,,,71.13031854200017,71.47904674999972,72.275357042,72.26301162499931,,,,,,,,,,,,,,,,72.26842854200004,72.275357042,72.275357042,73.29770820799968,r,1.0,1.014591209000173,,73.2985341249996,73.3103992919996,74.29620599999998,74.30154762499933,,,,,,,,,,,,,,,,,,,,sub-060,1,stroop_test,,
,,,,12.0,0.0,1.0,,,,,blau,yellow,g,0.0,g,1.0,1.1486937079998825,,,,,,,,,,,,,,1.0,0.0,12.0,7.0,,,,,74.30154762499933,,,,,,,,,,,,,,,,,74.29663554199942,75.49564029199973,76.28675083300004,76.27956804199948,,,,,,,,,,,,,,,,76.28013649999957,76.28675083300004,76.28675083300004,77.44829983299951,g,1.0,1.1486937079998825,,77.44880537500012,77.46218504199987,78.44617412499974,78.45149737500014,,,,,,,,,,,,,,,,,,,,sub-060,1,stroop_test,,
,,,,13.0,1.0,1.0,,,,,rot,yellow,g,0.0,g,1.0,1.3143387089994576,,,,,,,,,,,,,,1.0,1.0,13.0,3.0,,,,,78.45149737500014,,,,,,,,,,,,,,,,,78.44657825000013,79.64555745799953,80.44096662499942,80.42965441700017,,,,,,,,,,,,,,,,80.43375462499989,80.44096662499942,80.44096662499942,81.76440362499943,g,1.0,1.3143387089994576,,81.76522449999993,81.77704145799999,82.76291220799976,82.76816541700009,,,,,,,,,,,,,,,,,,,,sub-060,1,stroop_test,,
,,,,14.0,2.0,1.0,,,,,blau,blue,b,1.0,b,1.0,0.8234522920001837,,,,,,,,,,,,,,1.0,2.0,14.0,6.0,,,,,82.76816541700009,,,,,,,,,,,,,,,,,82.76332970800013,83.56226391699965,84.35697837499993,84.34618191699974,,,,,,,,,,,,,,,,84.34993337499964,84.35697837499993,84.35697837499993,85.18742083300003,b,1.0,0.8234522920001837,,85.18814295799984,85.19880554199972,86.18580729199948,86.19554116699965,,,,,,,,,,,,,,,,,,,,sub-060,1,stroop_test,,
,,,,15.0,3.0,1.0,,,,,blau,red,r,0.0,r,1.0,0.7350587500004622,,,,,,,,,,,,,,1.0,3.0,15.0,4.0,,,,,86.19554116699965,,,,,,,,,,,,,,,,,86.18622462499934,86.53494516699993,87.32734462499957,87.31866945799993,,,,,,,,,,,,,,,,87.31923395800004,87.32734462499957,87.32734462499957,88.06543691699972,r,1.0,0.7350587500004622,,88.06635945800008,88.07806304199948,89.06292633300018,89.06875262499943,,,,,,,,,,,,,,,,,,,,sub-060,1,stroop_test,,
,,,,16.0,4.0,1.0,,,,,rot,blue,b,0.0,b,1.0,1.0118602499996996,,,,,,,,,,,,,,1.0,4.0,16.0,2.0,,,,,89.06875262499943,,,,,,,,,,,,,,,,,89.0634359579999,90.26220058299988,91.05696979200002,91.04608929200003,,,,,,,,,,,,,,,,91.04980887500004,91.05696979200002,91.05696979200002,92.07105404199956,b,1.0,1.0118602499996996,,92.07189349999952,92.08249049999996,93.06894187499984,93.07886279200012,,,,,,,,,,,,,,,,,,,,sub-060,1,stroop_test,,
,,,,17.0,5.0,1.0,,,,,gelb,yellow,g,1.0,g,1.0,0.9167650420004064,,,,,,,,,,,,,,1.0,5.0,17.0,11.0,,,,,93.07886279200012,,,,,,,,,,,,,,,,,93.0693308330001,93.8693025829998,94.67392920800012,94.66290641700016,,,,,,,,,,,,,,,,94.66700370799936,94.67392920800012,94.67392920800012,95.59757112499938,g,1.0,0.9167650420004064,,95.59837679199973,95.6099237919998,96.59620283299957,96.60173766699972,,,,,,,,,,,,,,,,,,,,sub-060,1,stroop_test,,
,,,,18.0,6.0,1.0,,,,,gelb,red,r,0.0,r,1.0,1.0014909169995008,,,,,,,,,,,,,,1.0,6.0,18.0,8.0,,,,,96.60173766699972,,,,,,,,,,,,,,,,,96.59674041699964,96.9455141669996,97.73723874999996,97.72958687499975,,,,,,,,,,,,,,,,97.73031958299998,97.73723874999996,97.73723874999996,98.7475957079996,r,1.0,1.0014909169995008,,98.74845683300008,98.75996049999958,99.74647504199947,99.75224433299992,,,,,,,,,,,,,,,,,,,,sub-060,1,stroop_test,,
,,,,19.0,7.0,1.0,,,,,rot,red,r,1.0,r,1.0,0.608335791999707,,,,,,,,,,,,,,1.0,7.0,19.0,0.0,,,,,99.75224433299992,,,,,,,,,,,,,,,,,99.74699020800016,100.54564791699976,101.34201129199936,101.3295465000001,,,,,,,,,,,,,,,,101.33484062499974,101.34201129199936,101.34201129199936,101.9531542499999,r,1.0,0.608335791999707,,101.95391595799993,101.96451720799996,102.95179479199942,102.96211341700018,,,,,,,,,,,,,,,,,,,,sub-060,1,stroop_test,,
,,,,20.0,8.0,1.0,,,,,blau,blue,b,1.0,b,1.0,0.7632708329992965,,,,,,,,,,,,,,1.0,8.0,20.0,5.0,,,,,102.96211341700018,,,,,,,,,,,,,,,,,102.95220454199988,103.7517333750002,104.56194183299976,104.53521320799972,,,,,,,,,,,,,,,,104.5387847080001,104.56194183299976,104.56194183299976,105.33074562499952,b,1.0,0.7632708329992965,,105.33155216700015,105.34269083299932,106.32950595799956,106.33521358300004,,,,,,,,,,,,,,,,,,,,sub-060,1,stroop_test,,
,,,,21.0,9.0,1.0,,,,,gelb,blue,b,0.0,b,1.0,0.7888344589991902,,,,,,,,,,,,,,1.0,9.0,21.0,9.0,,,,,106.33521358300004,,,,,,,,,,,,,,,,,106.32994779199998,107.12882916699982,107.92426949999935,107.91293591700014,,,,,,,,,,,,,,,,107.9172577499994,107.92426949999935,107.92426949999935,108.7201530000002,b,1.0,0.7888344589991902,,108.72089829200011,108.73114883299968,109.71909112499998,109.72886695799934,,,,,,,,,,,,,,,,,,,,sub-060,1,stroop_test,,
,,,,22.0,10.0,1.0,,,,,rot,red,r,1.0,r,1.0,0.6936424580007952,,,,,,,,,,,,,,1.0,10.0,22.0,1.0,,,,,109.72886695799934,,,,,,,,,,,,,,,,,109.71951399999944,109.81887666700004,110.62356520799948,110.61266845799946,,,,,,,,,,,,,,,,110.61639087499952,110.62356520799948,110.62356520799948,111.32004470799984,r,1.0,0.6936424580007952,,111.320743667,111.33113483299984,112.3180447499999,112.32873341699997,,,,,,,,,,,,,,,,,,,,sub-060,1,stroop_test,,
,,,,23.0,11.0,1.0,,,,,gelb,yellow,g,1.0,g,1.0,0.6797237079999832,,,,,,,,,,,,,,1.0,11.0,23.0,10.0,,,,,112.32873341699997,,,,,,,,,,,,,,,,,112.31845387500016,112.4191274169998,113.2240441670001,113.21275129199968,,,,,,,,,,,,,,,,113.216850625,113.2240441670001,113.2240441670001,113.91416491699964,g,1.0,0.6797237079999832,,113.91497441699994,113.92637462499988,114.91296370799957,114.92121470799977,,,,,,,,,,,,,,,,,,,,sub-060,1,stroop_test,,
,,,,,,,,,,,,,,,,,,,,,,,,,,,,,,,,,,,,,,,,,,,,,,,,,,,,,,,,,,,,,,,,,,,,,,,,,,,,,,,,,,,,,,,114.91317824999987,114.92121470799977,114.92121470799977,116.83072229199934,space,1.9052069580002355,,,,,,,,,,,,,,sub-060,1,stroop_test,,
,,,,0.0,0.0,0.0,,,,,,,,,,,,,gelb,yellow,g,1.0,g,1.0,0.73026929200023,,,,,,,,,,0.0,0.0,0.0,10.0,116.854653417,,,,,,,,,,,,,,,,,116.84803091699996,117.17893025000012,117.9744377500001,117.96286820800016,,,,,,,,,,,,,,,,,,,,,,,,,,,,,,,,,,,117.96730916700017,117.9744377500001,117.9744377500001,118.71425395799996,g,1.0,0.73026929200023,,,,,,sub-060,1,stroop_test,,
,,,,1.0,1.0,0.0,,,,,,,,,,,,,rot,yellow,g,0.0,g,1.0,0.7600747920005233,,,,,,,,,,0.0,1.0,1.0,3.0,118.72375095799998,,,,,,,,,,,,,,,,,118.71487399999933,119.91222666700014,120.7084866669993,120.69626883299952,,,,,,,,,,,,,,,,,,,,,,,,,,,,,,,,,,,120.70127745799982,120.7084866669993,120.7084866669993,121.4809902500001,g,1.0,0.7600747920005233,,,,,,sub-060,1,stroop_test,,
,,,,2.0,2.0,0.0,,,,,,,,,,,,,gelb,red,r,0.0,r,1.0,0.9624517919992286,,,,,,,,,,0.0,2.0,2.0,8.0,121.49548445799974,,,,,,,,,,,,,,,,,121.48132558299947,122.2788021669994,123.0735796250001,123.0627097079996,,,,,,,,,,,,,,,,,,,,,,,,,,,,,,,,,,,123.06653191699934,123.0735796250001,123.0735796250001,124.04746224999964,r,1.0,0.9624517919992286,,,,,,sub-060,1,stroop_test,,
,,,,3.0,3.0,0.0,,,,,,,,,,,,,rot,blue,b,0.0,b,1.0,0.5219688750003115,,,,,,,,,,0.0,3.0,3.0,2.0,124.05702683299933,,,,,,,,,,,,,,,,,124.04803879199972,125.24541574999968,126.04130883299968,126.02963058299974,,,,,,,,,,,,,,,,,,,,,,,,,,,,,,,,,,,126.03407183299989,126.04130883299968,126.04130883299968,126.56984379200004,b,1.0,0.5219688750003115,,,,,,sub-060,1,stroop_test,,
,,,,4.0,4.0,0.0,,,,,,,,,,,,,blau,yellow,g,0.0,g,1.0,1.1634146659998803,,,,,,,,,,0.0,4.0,4.0,7.0,126.58039220799948,,,,,,,,,,,,,,,,,126.5703735420002,126.66843029199936,127.47857570799988,127.45188920799956,,,,,,,,,,,,,,,,,,,,,,,,,,,,,,,,,,,127.45544741699996,127.47857570799988,127.47857570799988,128.64785049999955,g,1.0,1.1634146659998803,,,,,,sub-060,1,stroop_test,,
,,,,5.0,5.0,0.0,,,,,,,,,,,,,rot,red,r,1.0,r,1.0,0.8880667920002452,,,,,,,,,,0.0,5.0,5.0,1.0,128.6574892079998,,,,,,,,,,,,,,,,,128.64849145799965,128.74553412499972,129.54130795799938,129.5295522079996,,,,,,,,,,,,,,,,,,,,,,,,,,,,,,,,,,,129.5339277919993,129.54130795799938,129.54130795799938,130.44186816699948,r,1.0,0.8880667920002452,,,,,,sub-060,1,stroop_test,,
,,,,6.0,6.0,0.0,,,,,,,,,,,,,blau,blue,b,1.0,b,1.0,0.6617634170006568,,,,,,,,,,0.0,6.0,6.0,5.0,130.4468838749999,,,,,,,,,,,,,,,,,130.44231450000007,131.2357067920002,132.04151349999938,132.02983170799962,,,,,,,,,,,,,,,,,,,,,,,,,,,,,,,,,,,132.03452516699963,132.04151349999938,132.04151349999938,132.71415979199992,b,1.0,0.6617634170006568,,,,,,sub-060,1,stroop_test,,
,,,,7.0,7.0,0.0,,,,,,,,,,,,,blau,red,r,0.0,r,1.0,1.0089545410000935,,,,,,,,,,0.0,7.0,7.0,4.0,132.7238737079997,,,,,,,,,,,,,,,,,132.7147500000001,133.51230387499982,134.30384549999962,134.29616941699987,,,,,,,,,,,,,,,,,,,,,,,,,,,,,,,,,,,134.29690712499996,134.30384549999962,134.30384549999962,135.3252902919994,r,1.0,1.0089545410000935,,,,,,sub-060,1,stroop_test,,
,,,,8.0,8.0,0.0,,,,,,,,,,,,,gelb,blue,b,0.0,b,1.0,0.8315050000001065,,,,,,,,,,0.0,8.0,8.0,9.0,135.33016937499997,,,,,,,,,,,,,,,,,135.32573837499967,136.51820791699993,137.31445887500013,137.30183104199932,,,,,,,,,,,,,,,,,,,,,,,,,,,,,,,,,,,137.3068912079998,137.31445887500013,137.31445887500013,138.15937029199995,b,1.0,0.8315050000001065,,,,,,sub-060,1,stroop_test,,
,,,,9.0,9.0,0.0,,,,,,,,,,,,,rot,red,r,1.0,r,1.0,0.7821098330005043,,,,,,,,,,0.0,9.0,9.0,0.0,138.16370245799953,,,,,,,,,,,,,,,,,138.15979604199947,139.35171658299987,140.147098292,140.13547608299996,,,,,,,,,,,,,,,,,,,,,,,,,,,,,,,,,,,140.13910254199982,140.147098292,140.147098292,140.93252533299983,r,1.0,0.7821098330005043,,,,,,sub-060,1,stroop_test,,
,,,,10.0,10.0,0.0,,,,,,,,,,,,,gelb,yellow,g,1.0,g,1.0,0.4819845000001805,,,,,,,,,,0.0,10.0,10.0,11.0,140.94372858299994,,,,,,,,,,,,,,,,,140.93324995799958,141.72889083300015,142.52386108300016,142.51281333299994,,,,,,,,,,,,,,,,,,,,,,,,,,,,,,,,,,,142.51667208299932,142.52386108300016,142.52386108300016,143.01431358299942,g,1.0,0.4819845000001805,,,,,,sub-060,1,stroop_test,,
,,,,11.0,11.0,0.0,,,,,,,,,,,,,blau,blue,b,1.0,b,1.0,0.5021200840001256,,,,,,,,,,0.0,11.0,11.0,6.0,143.0250797079998,,,,,,,,,,,,,,,,,143.01491208300013,144.21217416699983,145.00782566699945,144.9962491669994,,,,,,,,,,,,,,,,,,,,,,,,,,,,,,,,,,,145.0005715419993,145.00782566699945,145.00782566699945,145.51419350000015,b,1.0,0.5021200840001256,,,,,,sub-060,1,stroop_test,,
,,,,12.0,0.0,1.0,,,,,,,,,,,,,blau,red,r,0.0,b,0.0,0.6879149999995207,,,,,,,,,,1.0,0.0,12.0,4.0,145.52542962499956,,,,,,,,,,,,,,,,,145.5148466669998,145.61209479199988,146.4034403329997,146.3960932079999,,,,,,,,,,,,,,,,,,,,,,,,,,,,,,,,,,,146.39668962499945,146.4034403329997,146.4034403329997,147.09774395800014,b,0.0,0.6879149999995207,,,,,,sub-060,1,stroop_test,,
,,,,13.0,1.0,1.0,,,,,,,,,,,,,gelb,yellow,g,1.0,g,1.0,1.130854542000634,,,,,,,,,,1.0,1.0,13.0,11.0,147.10892791700007,,,,,,,,,,,,,,,,,147.09847020799953,147.4453131249993,148.2403440829994,148.22943591700005,,,,,,,,,,,,,,,,,,,,,,,,,,,,,,,,,,,148.23327804200017,148.2403440829994,148.2403440829994,149.38086287499937,g,1.0,1.130854542000634,,,,,,sub-060,1,stroop_test,,
,,,,14.0,2.0,1.0,,,,,,,,,,,,,gelb,red,r,0.0,r,1.0,2.068949416999203,,,,,,,,,,1.0,2.0,14.0,8.0,149.3916978749994,,,,,,,,,,,,,,,,,149.38152166700002,149.47821045799992,150.27006512499975,150.26269208299982,,,,,,,,,,,,,,,,,,,,,,,,,,,,,,,,,,,150.2632882500002,150.27006512499975,150.27006512499975,152.3474734579995,r,1.0,2.068949416999203,,,,,,sub-060,1,stroop_test,,
,,,,15.0,3.0,1.0,,,,,,,,,,,,,rot,blue,b,0.0,b,1.0,0.9592886249993172,,,,,,,,,,1.0,3.0,15.0,2.0,152.35880895799983,,,,,,,,,,,,,,,,,152.34818820799956,152.6954672920001,153.4915712080001,153.4797542919996,,,,,,,,,,,,,,,,,,,,,,,,,,,,,,,,,,,153.48411533299986,153.4915712080001,153.4915712080001,154.45320658299988,b,1.0,0.9592886249993172,,,,,,sub-060,1,stroop_test,,
,,,,16.0,4.0,1.0,,,,,,,,,,,,,blau,blue,b,1.0,b,1.0,0.4529289580004842,,,,,,,,,,1.0,4.0,16.0,5.0,154.4644222500001,,,,,,,,,,,,,,,,,154.45383612499973,155.65174366700012,156.46146983299968,156.44621262500004,,,,,,,,,,,,,,,,,,,,,,,,,,,,,,,,,,,156.4543177079995,156.46146983299968,156.46146983299968,156.9198656669996,b,1.0,0.4529289580004842,,,,,,sub-060,1,stroop_test,,
,,,,17.0,5.0,1.0,,,,,,,,,,,,,rot,red,r,1.0,r,1.0,0.5509557920004227,,,,,,,,,,1.0,5.0,17.0,1.0,156.93114483299996,,,,,,,,,,,,,,,,,156.92040733300018,157.71834725000008,158.52834645799976,158.50160170799973,,,,,,,,,,,,,,,,,,,,,,,,,,,,,,,,,,,158.50509870799942,158.52834645799976,158.52834645799976,159.09293875000003,r,1.0,0.5509557920004227,,,,,,sub-060,1,stroop_test,,
,,,,18.0,6.0,1.0,,,,,,,,,,,,,gelb,blue,b,0.0,b,1.0,1.0542030839997096,,,,,,,,,,1.0,6.0,18.0,9.0,159.0980519169998,,,,,,,,,,,,,,,,,159.09342591699988,159.43481424999936,160.24502087499968,160.218571333,,,,,,,,,,,,,,,,,,,,,,,,,,,,,,,,,,,160.22219425000003,160.24502087499968,160.24502087499968,161.30315874999997,b,1.0,1.0542030839997096,,,,,,sub-060,1,stroop_test,,
,,,,19.0,7.0,1.0,,,,,,,,,,,,,blau,blue,b,1.0,b,1.0,0.5257358750004641,,,,,,,,,,1.0,7.0,19.0,6.0,161.31389450000006,,,,,,,,,,,,,,,,,161.30372908299978,162.50225995799974,163.29684079199978,163.28528791699955,,,,,,,,,,,,,,,,,,,,,,,,,,,,,,,,,,,163.2888904579995,163.29684079199978,163.29684079199978,163.83102425000016,b,1.0,0.5257358750004641,,,,,,sub-060,1,stroop_test,,
,,,,20.0,8.0,1.0,,,,,,,,,,,,,gelb,yellow,g,1.0,g,1.0,0.889437208000345,,,,,,,,,,1.0,8.0,20.0,10.0,163.8407192499999,,,,,,,,,,,,,,,,,163.83169275,165.0287413750002,165.82355704200015,165.8126772919995,,,,,,,,,,,,,,,,,,,,,,,,,,,,,,,,,,,165.8165440419998,165.82355704200015,165.82355704200015,166.7199809169997,g,1.0,0.889437208000345,,,,,,sub-060,1,stroop_test,,
,,,,21.0,9.0,1.0,,,,,,,,,,,,,rot,yellow,g,0.0,r,0.0,1.3749612909996358,,,,,,,,,,1.0,9.0,21.0,3.0,166.7303548330001,,,,,,,,,,,,,,,,,166.72053999999935,167.9185926250002,168.71365570799935,168.70211466699948,,,,,,,,,,,,,,,,,,,,,,,,,,,,,,,,,,,168.705710792,168.71365570799935,168.71365570799935,170.0974368749994,r,0.0,1.3749612909996358,,,,,,sub-060,1,stroop_test,,
,,,,22.0,10.0,1.0,,,,,,,,,,,,,rot,red,r,1.0,r,1.0,0.6668902499995966,,,,,,,,,,1.0,10.0,22.0,0.0,170.10764941700018,,,,,,,,,,,,,,,,,170.09807099999944,170.1953868749997,170.98764904200016,170.97947616700003,,,,,,,,,,,,,,,,,,,,,,,,,,,,,,,,,,,170.98024616699968,170.98764904200016,170.98764904200016,171.6642447079994,r,1.0,0.6668902499995966,,,,,,sub-060,1,stroop_test,,
,,,,23.0,11.0,1.0,,,,,,,,,,,,,blau,yellow,g,0.0,g,1.0,1.0683098330000576,,,,,,,,,,1.0,11.0,23.0,7.0,171.67483829199955,,,,,,,,,,,,,,,,,171.6649674169994,172.46187516699956,173.25747691699962,173.24595945799956,,,,,,,,,,,,,,,,,,,,,,,,,,,,,,,,,,,173.25029087499934,173.25747691699962,173.25747691699962,174.3306684170002,g,1.0,1.0683098330000576,,,,,,sub-060,1,stroop_test,,
,,,,24.0,0.0,2.0,,,,,,,,,,,,,blau,red,r,0.0,r,1.0,1.9652545420003664,,,,,,,,,,2.0,0.0,24.0,4.0,174.3413340420002,,,,,,,,,,,,,,,,,174.33131216699985,175.5286329169994,176.3201716249996,176.31271316699986,,,,,,,,,,,,,,,,,,,,,,,,,,,,,,,,,,,176.3134139169997,176.3201716249996,176.3201716249996,178.2979624999998,r,1.0,1.9652545420003664,,,,,,sub-060,1,stroop_test,,
,,,,25.0,1.0,2.0,,,,,,,,,,,,,gelb,blue,b,0.0,b,1.0,0.964906291999796,,,,,,,,,,2.0,1.0,25.0,9.0,178.31193104199974,,,,,,,,,,,,,,,,,178.29832029199952,178.39537154199934,179.19217291699988,179.1794539579996,,,,,,,,,,,,,,,,,,,,,,,,,,,,,,,,,,,179.18518966699958,179.19217291699988,179.19217291699988,180.16417974999968,b,1.0,0.964906291999796,,,,,,sub-060,1,stroop_test,,
,,,,26.0,2.0,2.0,,,,,,,,,,,,,blau,blue,b,1.0,b,1.0,1.037559708000117,,,,,,,,,,2.0,2.0,26.0,5.0,180.17466837499975,,,,,,,,,,,,,,,,,180.1647962919997,181.36200966700017,182.1579176669993,182.14596829199945,,,,,,,,,,,,,,,,,,,,,,,,,,,,,,,,,,,182.15054204199987,182.1579176669993,182.1579176669993,183.19793408299935,b,1.0,1.037559708000117,,,,,,sub-060,1,stroop_test,,
,,,,27.0,3.0,2.0,,,,,,,,,,,,,gelb,yellow,g,1.0,g,1.0,0.9309879160000492,,,,,,,,,,2.0,3.0,27.0,10.0,183.2084685,,,,,,,,,,,,,,,,,183.1985872919995,183.29527883299943,184.0911822079997,184.0794219999998,,,,,,,,,,,,,,,,,,,,,,,,,,,,,,,,,,,184.083999167,184.0911822079997,184.0911822079997,185.0307457079998,g,1.0,0.9309879160000492,,,,,,sub-060,1,stroop_test,,
,,,,28.0,4.0,2.0,,,,,,,,,,,,,blau,yellow,g,0.0,g,1.0,0.7954466660003163,,,,,,,,,,2.0,4.0,28.0,7.0,185.0410223749996,,,,,,,,,,,,,,,,,185.03134754199985,186.2287388329996,187.02368937499975,187.01267525000003,,,,,,,,,,,,,,,,,,,,,,,,,,,,,,,,,,,187.01652716699937,187.02368937499975,187.02368937499975,187.83071366700003,g,1.0,0.7954466660003163,,,,,,sub-060,1,stroop_test,,
,,,,29.0,5.0,2.0,,,,,,,,,,,,,rot,red,r,1.0,r,1.0,0.77956470800018,,,,,,,,,,2.0,5.0,29.0,1.0,187.8414629580002,,,,,,,,,,,,,,,,,187.8313294999998,189.02858337499947,189.82444866700007,189.81264399999964,,,,,,,,,,,,,,,,,,,,,,,,,,,,,,,,,,,189.81700558299963,189.82444866700007,189.82444866700007,190.6140915830001,r,1.0,0.77956470800018,,,,,,sub-060,1,stroop_test,,
,,,,30.0,6.0,2.0,,,,,,,,,,,,,rot,blue,b,0.0,r,0.0,2.158857166999951,,,,,,,,,,2.0,6.0,30.0,2.0,190.62470633300015,,,,,,,,,,,,,,,,,190.61468974999931,190.96189183299973,191.7534724999996,191.7460259999998,,,,,,,,,,,,,,,,,,,,,,,,,,,,,,,,,,,191.74674720799976,191.7534724999996,191.7534724999996,193.91489699999968,r,0.0,2.158857166999951,,,,,,sub-060,1,stroop_test,,
,,,,31.0,7.0,2.0,,,,,,,,,,,,,rot,yellow,g,0.0,g,1.0,1.1041936660003555,,,,,,,,,,2.0,7.0,31.0,3.0,193.9256434580002,,,,,,,,,,,,,,,,,193.91556049999963,194.7120155829998,195.5040021249997,195.49615104199984,,,,,,,,,,,,,,,,,,,,,,,,,,,,,,,,,,,195.4968960830001,195.5040021249997,195.5040021249997,196.61400041700017,g,1.0,1.1041936660003555,,,,,,sub-060,1,stroop_test,,
,,,,32.0,8.0,2.0,,,,,,,,,,,,,rot,red,r,1.0,r,1.0,0.699332332999802,,,,,,,,,,2.0,8.0,32.0,0.0,196.62448629199932,,,,,,,,,,,,,,,,,196.61462262499936,197.41193145799932,198.2030466669994,198.19585899999947,,,,,,,,,,,,,,,,,,,,,,,,,,,,,,,,,,,198.1964539999999,198.2030466669994,198.2030466669994,198.9140623329995,r,1.0,0.699332332999802,,,,,,sub-060,1,stroop_test,,
,,,,33.0,9.0,2.0,,,,,,,,,,,,,blau,blue,b,1.0,b,1.0,0.6052856249998513,,,,,,,,,,2.0,9.0,33.0,6.0,198.92443416700007,,,,,,,,,,,,,,,,,198.91471212499985,199.26193791700007,200.05693625000004,200.04599037499972,,,,,,,,,,,,,,,,,,,,,,,,,,,,,,,,,,,200.04991883299957,200.05693625000004,200.05693625000004,200.66466454199963,b,1.0,0.6052856249998513,,,,,,sub-060,1,stroop_test,,
,,,,34.0,10.0,2.0,,,,,,,,,,,,,gelb,yellow,g,1.0,g,1.0,0.907468083000822,,,,,,,,,,2.0,10.0,34.0,11.0,200.67523062500004,,,,,,,,,,,,,,,,,200.6653017079998,201.01189716699992,201.8085918329998,201.7957713750002,,,,,,,,,,,,,,,,,,,,,,,,,,,,,,,,,,,201.80128499999955,201.8085918329998,201.8085918329998,202.7200615419997,g,1.0,0.907468083000822,,,,,,sub-060,1,stroop_test,,
,,,,35.0,11.0,2.0,,,,,,,,,,,,,gelb,red,r,0.0,r,1.0,0.748978999999963,,,,,,,,,,2.0,11.0,35.0,8.0,202.73058004199996,,,,,,,,,,,,,,,,,202.720594292,203.5184776669994,204.31035320799947,204.302055958,,,,,,,,,,,,,,,,,,,,,,,,,,,,,,,,,,,204.30265404199963,204.31035320799947,204.31035320799947,205.06449299999983,r,1.0,0.748978999999963,,,,,,sub-060,1,stroop_test,,
,,,,36.0,0.0,3.0,,,,,,,,,,,,,gelb,yellow,g,1.0,g,1.0,1.405247208000219,,,,,,,,,,3.0,0.0,36.0,11.0,205.075001792,,,,,,,,,,,,,,,,,205.0651733750001,205.16183754199935,205.9533902919993,205.94593537499983,,,,,,,,,,,,,,,,,,,,,,,,,,,,,,,,,,,205.9465382499993,205.9533902919993,205.9533902919993,207.3640824999993,g,1.0,1.405247208000219,,,,,,sub-060,1,stroop_test,,
,,,,37.0,1.0,3.0,,,,,,,,,,,,,rot,red,r,1.0,r,1.0,0.7045060840000588,,,,,,,,,,3.0,1.0,37.0,0.0,207.3744109170002,,,,,,,,,,,,,,,,,207.36469879200013,207.7119917079999,208.5074099579997,208.4959449580001,,,,,,,,,,,,,,,,,,,,,,,,,,,,,,,,,,,208.50013470799968,208.5074099579997,208.5074099579997,209.2140805829995,r,1.0,0.7045060840000588,,,,,,sub-060,1,stroop_test,,
,,,,38.0,2.0,3.0,,,,,,,,,,,,,rot,blue,b,0.0,b,1.0,0.8249482499995793,,,,,,,,,,3.0,2.0,38.0,2.0,209.224621333,,,,,,,,,,,,,,,,,209.21471029199984,209.56204566699944,210.35381445799976,210.3462573329998,,,,,,,,,,,,,,,,,,,,,,,,,,,,,,,,,,,210.3470478749996,210.35381445799976,210.35381445799976,211.1813384999996,b,1.0,0.8249482499995793,,,,,,sub-060,1,stroop_test,,
,,,,39.0,3.0,3.0,,,,,,,,,,,,,blau,red,r,0.0,b,0.0,0.9283825409993368,,,,,,,,,,3.0,3.0,39.0,4.0,211.19195883300017,,,,,,,,,,,,,,,,,211.18200929199972,211.97870070799945,212.7740361669994,212.76273624999976,,,,,,,,,,,,,,,,,,,,,,,,,,,,,,,,,,,212.76697345799948,212.7740361669994,212.7740361669994,213.71397008299937,b,0.0,0.9283825409993368,,,,,,sub-060,1,stroop_test,,
,,,,40.0,4.0,3.0,,,,,,,,,,,,,gelb,red,r,0.0,r,1.0,1.118354874999568,,,,,,,,,,3.0,4.0,40.0,8.0,213.72457975,,,,,,,,,,,,,,,,,213.7145851669993,214.9118661249995,215.70752812499995,215.69592958300015,,,,,,,,,,,,,,,,,,,,,,,,,,,,,,,,,,,215.700396708,215.70752812499995,215.70752812499995,216.83039912499956,r,1.0,1.118354874999568,,,,,,sub-060,1,stroop_test,,
,,,,41.0,5.0,3.0,,,,,,,,,,,,,rot,red,r,1.0,r,1.0,0.5624914999998509,,,,,,,,,,3.0,5.0,41.0,1.0,216.8405304999997,,,,,,,,,,,,,,,,,216.83099062499969,216.92848462499933,217.7236579999999,217.71241800000007,,,,,,,,,,,,,,,,,,,,,,,,,,,,,,,,,,,217.71621720799976,217.7236579999999,217.7236579999999,218.29733479199967,r,1.0,0.5624914999998509,,,,,,sub-060,1,stroop_test,,
,,,,42.0,6.0,3.0,,,,,,,,,,,,,blau,yellow,g,0.0,g,1.0,1.3440882920003787,,,,,,,,,,3.0,6.0,42.0,7.0,218.30763445799948,,,,,,,,,,,,,,,,,218.29793929199968,219.49530104199948,220.290683833,220.2793083329998,,,,,,,,,,,,,,,,,,,,,,,,,,,,,,,,,,,220.28362429199933,220.290683833,220.290683833,221.63700049999989,g,1.0,1.3440882920003787,,,,,,sub-060,1,stroop_test,,
,,,,43.0,7.0,3.0,,,,,,,,,,,,,blau,blue,b,1.0,b,1.0,0.9251965000003112,,,,,,,,,,3.0,7.0,43.0,6.0,221.64757775,,,,,,,,,,,,,,,,,221.6376222079998,222.43541774999997,223.2269724580001,223.2184113329995,,,,,,,,,,,,,,,,,,,,,,,,,,,,,,,,,,,223.2189755419995,223.2269724580001,223.2269724580001,224.16403612500017,b,1.0,0.9251965000003112,,,,,,sub-060,1,stroop_test,,
,,,,44.0,8.0,3.0,,,,,,,,,,,,,gelb,yellow,g,1.0,g,1.0,1.0264308750001874,,,,,,,,,,3.0,8.0,44.0,10.0,224.17454604199972,,,,,,,,,,,,,,,,,224.16470562499944,225.36188641699937,226.15780799999996,226.1458302499996,,,,,,,,,,,,,,,,,,,,,,,,,,,,,,,,,,,226.150872833,226.15780799999996,226.15780799999996,227.18712024999968,g,1.0,1.0264308750001874,,,,,,sub-060,1,stroop_test,,
,,,,45.0,9.0,3.0,,,,,,,,,,,,,rot,yellow,g,0.0,g,1.0,0.794333750000078,,,,,,,,,,3.0,9.0,45.0,3.0,227.19764349999969,,,,,,,,,,,,,,,,,227.1877107499995,227.2847462079999,228.080122417,228.06831449999936,,,,,,,,,,,,,,,,,,,,,,,,,,,,,,,,,,,228.0719109169995,228.080122417,228.080122417,228.8806787499998,g,1.0,0.794333750000078,,,,,,sub-060,1,stroop_test,,
,,,,46.0,10.0,3.0,,,,,,,,,,,,,gelb,blue,b,0.0,b,1.0,0.6848579999996218,,,,,,,,,,3.0,10.0,46.0,9.0,228.891146125,,,,,,,,,,,,,,,,,228.88132766699985,229.22854712499972,230.0235021669996,230.0124523329996,,,,,,,,,,,,,,,,,,,,,,,,,,,,,,,,,,,230.0165404999998,230.0235021669996,230.0235021669996,230.71399874999952,b,1.0,0.6848579999996218,,,,,,sub-060,1,stroop_test,,
,,,,47.0,11.0,3.0,,,,,,,,,,,,,blau,blue,b,1.0,b,1.0,0.5638442910003505,,,,,,,,,,3.0,11.0,47.0,5.0,230.7245585419996,,,,,,,,,,,,,,,,,230.71471145799933,231.51183287499956,232.30729854199944,232.29591424999944,,,,,,,,,,,,,,,,,,,,,,,,,,,,,,,,,,,232.3001367500001,232.30729854199944,232.30729854199944,232.8810998749996,b,1.0,0.5638442910003505,,,,,,sub-060,1,stroop_test,,
,,,,48.0,0.0,4.0,,,,,,,,,,,,,gelb,red,r,0.0,r,1.0,0.7570537080000577,,,,,,,,,,4.0,0.0,48.0,8.0,232.8920344170001,,,,,,,,,,,,,,,,,232.88176316699992,233.678420792,234.47407962499983,234.46269404199936,,,,,,,,,,,,,,,,,,,,,,,,,,,,,,,,,,,234.46705779199965,234.47407962499983,234.47407962499983,235.23676720799995,r,1.0,0.7570537080000577,,,,,,sub-060,1,stroop_test,,
,,,,49.0,1.0,4.0,,,,,,,,,,,,,rot,yellow,g,0.0,g,1.0,1.0330208750001475,,,,,,,,,,4.0,1.0,49.0,3.0,235.2471840829994,,,,,,,,,,,,,,,,,235.2373117500001,235.58490987499957,236.3799443329999,236.36836349999976,,,,,,,,,,,,,,,,,,,,,,,,,,,,,,,,,,,236.37181599999985,236.3799443329999,236.3799443329999,237.41993774999992,g,1.0,1.0330208750001475,,,,,,sub-060,1,stroop_test,,
,,,,50.0,2.0,4.0,,,,,,,,,,,,,gelb,yellow,g,1.0,g,1.0,1.082318333999865,,,,,,,,,,4.0,2.0,50.0,11.0,237.4304951670001,,,,,,,,,,,,,,,,,237.4204972919997,238.61799345799955,239.4132254999995,239.40167912499965,,,,,,,,,,,,,,,,,,,,,,,,,,,,,,,,,,,239.405256,239.4132254999995,239.4132254999995,240.4981934580001,g,1.0,1.082318333999865,,,,,,sub-060,1,stroop_test,,
,,,,51.0,3.0,4.0,,,,,,,,,,,,,rot,blue,b,0.0,b,1.0,0.7982619169997633,,,,,,,,,,4.0,3.0,51.0,2.0,240.5087882919997,,,,,,,,,,,,,,,,,240.49885233299935,240.5937764169994,241.39181091699996,241.37908574999983,,,,,,,,,,,,,,,,,,,,,,,,,,,,,,,,,,,241.384431042,241.39181091699996,241.39181091699996,242.197100458,b,1.0,0.7982619169997633,,,,,,sub-060,1,stroop_test,,
,,,,52.0,4.0,4.0,,,,,,,,,,,,,blau,blue,b,1.0,b,1.0,0.5043947499998467,,,,,,,,,,4.0,4.0,52.0,5.0,242.20766637499943,,,,,,,,,,,,,,,,,242.1977067079997,242.29505108299963,243.0910454169998,243.07932320799955,,,,,,,,,,,,,,,,,,,,,,,,,,,,,,,,,,,243.0838522919994,243.0910454169998,243.0910454169998,243.5980152499997,b,1.0,0.5043947499998467,,,,,,sub-060,1,stroop_test,,
,,,,53.0,5.0,4.0,,,,,,,,,,,,,blau,yellow,g,0.0,g,1.0,0.8125796249996711,,,,,,,,,,4.0,5.0,53.0,7.0,243.6087373749997,,,,,,,,,,,,,,,,,243.59869395799976,243.94521824999995,244.73726012499992,244.72951058299984,,,,,,,,,,,,,,,,,,,,,,,,,,,,,,,,,,,244.73025420799968,244.73726012499992,244.73726012499992,245.55300804199945,g,1.0,0.8125796249996711,,,,,,sub-060,1,stroop_test,,
,,,,54.0,6.0,4.0,,,,,,,,,,,,,gelb,blue,b,0.0,b,1.0,0.6258748330001254,,,,,,,,,,4.0,6.0,54.0,9.0,245.5638013329999,,,,,,,,,,,,,,,,,245.5535472499996,245.9014037500001,246.69690212499967,246.68510233300003,,,,,,,,,,,,,,,,,,,,,,,,,,,,,,,,,,,246.68877141699977,246.69690212499967,246.69690212499967,247.33040399999936,b,1.0,0.6258748330001254,,,,,,sub-060,1,stroop_test,,
,,,,55.0,7.0,4.0,,,,,,,,,,,,,rot,red,r,1.0,r,1.0,0.5258475410000756,,,,,,,,,,4.0,7.0,55.0,0.0,247.34090537500012,,,,,,,,,,,,,,,,,247.3310023329996,247.67710329199963,248.474613417,248.4625033329994,,,,,,,,,,,,,,,,,,,,,,,,,,,,,,,,,,,248.4668640829996,248.474613417,248.474613417,249.0027169999994,r,1.0,0.5258475410000756,,,,,,sub-060,1,stroop_test,,
,,,,56.0,8.0,4.0,,,,,,,,,,,,,rot,red,r,1.0,r,1.0,0.5805554999997184,,,,,,,,,,4.0,8.0,56.0,1.0,249.01324054199995,,,,,,,,,,,,,,,,,249.00330870800008,249.1008669169996,249.8936482499994,249.8847742500002,,,,,,,,,,,,,,,,,,,,,,,,,,,,,,,,,,,249.88538295799933,249.8936482499994,249.8936482499994,250.48063362499943,r,1.0,0.5805554999997184,,,,,,sub-060,1,stroop_test,,
,,,,57.0,9.0,4.0,,,,,,,,,,,,,blau,blue,b,1.0,b,1.0,0.677752665999833,,,,,,,,,,4.0,9.0,57.0,6.0,250.4907450000001,,,,,,,,,,,,,,,,,250.4813414579994,251.2784403329997,252.07386874999972,252.0625222919998,,,,,,,,,,,,,,,,,,,,,,,,,,,,,,,,,,,252.06687483299996,252.07386874999972,252.07386874999972,252.75414212499985,b,1.0,0.677752665999833,,,,,,sub-060,1,stroop_test,,
,,,,58.0,10.0,4.0,,,,,,,,,,,,,blau,red,r,0.0,b,0.0,0.6870114170005763,,,,,,,,,,4.0,10.0,58.0,4.0,252.76420883299943,,,,,,,,,,,,,,,,,252.75487829199935,253.95207833299992,254.74361783299992,254.73516058299992,,,,,,,,,,,,,,,,,,,,,,,,,,,,,,,,,,,254.73574775,254.74361783299992,254.74361783299992,255.43615774999944,b,0.0,0.6870114170005763,,,,,,sub-060,1,stroop_test,,
,,,,59.0,11.0,4.0,,,,,,,,,,,,,gelb,yellow,g,1.0,g,1.0,0.99263237499963,,,,,,,,,,4.0,11.0,59.0,10.0,255.44678824999937,,,,,,,,,,,,,,,,,255.4367102919996,256.2344756249995,257.02996274999987,257.0183292499996,,,,,,,,,,,,,,,,,,,,,,,,,,,,,,,,,,,257.0218789169994,257.02996274999987,257.02996274999987,258.0306674169997,g,1.0,0.99263237499963,,,,,,sub-060,1,stroop_test,,
,,,,60.0,0.0,5.0,,,,,,,,,,,,,gelb,red,r,0.0,g,0.0,0.5658405000003768,,,,,,,,,,5.0,0.0,60.0,8.0,258.0410151669994,,,,,,,,,,,,,,,,,258.0313660419997,258.128491083,258.9196298329998,258.91248112499943,,,,,,,,,,,,,,,,,,,,,,,,,,,,,,,,,,,258.9130880419998,258.9196298329998,258.9196298329998,259.497253042,g,0.0,0.5658405000003768,,,,,,sub-060,1,stroop_test,,
,,,,61.0,1.0,5.0,,,,,,,,,,,,,rot,blue,b,0.0,b,1.0,0.991000790999351,,,,,,,,,,5.0,1.0,61.0,2.0,259.50783158299964,,,,,,,,,,,,,,,,,259.49793045800016,260.2951135829999,261.0926223329998,261.0793795,,,,,,,,,,,,,,,,,,,,,,,,,,,,,,,,,,,261.0853600419996,261.0926223329998,261.0926223329998,262.08698820799964,b,1.0,0.991000790999351,,,,,,sub-060,1,stroop_test,,
,,,,62.0,2.0,5.0,,,,,,,,,,,,,gelb,yellow,g,1.0,g,1.0,0.8074666249995062,,,,,,,,,,5.0,2.0,62.0,11.0,262.0975484999999,,,,,,,,,,,,,,,,,262.0875391250001,262.1839677500002,262.97998820799967,262.968488042,,,,,,,,,,,,,,,,,,,,,,,,,,,,,,,,,,,262.9721744580001,262.97998820799967,262.97998820799967,263.7972982499996,g,1.0,0.8074666249995062,,,,,,sub-060,1,stroop_test,,
,,,,63.0,3.0,5.0,,,,,,,,,,,,,blau,yellow,g,0.0,g,1.0,1.071655333000308,,,,,,,,,,5.0,3.0,63.0,7.0,263.8079264170001,,,,,,,,,,,,,,,,,263.79802241699963,264.99526058299944,265.7907169169994,265.779306208,,,,,,,,,,,,,,,,,,,,,,,,,,,,,,,,,,,265.78358758299964,265.7907169169994,265.7907169169994,266.87544849999995,g,1.0,1.071655333000308,,,,,,sub-060,1,stroop_test,,
,,,,64.0,4.0,5.0,,,,,,,,,,,,,rot,red,r,1.0,r,1.0,0.7147767079995901,,,,,,,,,,5.0,4.0,64.0,0.0,266.8798042499993,,,,,,,,,,,,,,,,,266.8758631669998,266.96759658300016,267.7613758329999,267.7506457499994,,,,,,,,,,,,,,,,,,,,,,,,,,,,,,,,,,,267.75425695800004,267.7613758329999,267.7613758329999,268.4803739580002,r,1.0,0.7147767079995901,,,,,,sub-060,1,stroop_test,,
,,,,65.0,5.0,5.0,,,,,,,,,,,,,rot,yellow,g,0.0,g,1.0,1.2583130000002711,,,,,,,,,,5.0,5.0,65.0,3.0,268.4907912079998,,,,,,,,,,,,,,,,,268.48104112500005,268.5784060420001,269.3703739579996,269.3626903329996,,,,,,,,,,,,,,,,,,,,,,,,,,,,,,,,,,,269.3634641669996,269.3703739579996,269.3703739579996,270.6313687080001,g,1.0,1.2583130000002711,,,,,,sub-060,1,stroop_test,,
,,,,66.0,6.0,5.0,,,,,,,,,,,,,gelb,yellow,g,1.0,g,1.0,0.4852835419997063,,,,,,,,,,5.0,6.0,66.0,10.0,270.642160167,,,,,,,,,,,,,,,,,270.632106,270.72850324999945,271.52369958300005,271.5125201669998,,,,,,,,,,,,,,,,,,,,,,,,,,,,,,,,,,,271.51639604199954,271.52369958300005,271.52369958300005,272.013968792,g,1.0,0.4852835419997063,,,,,,sub-060,1,stroop_test,,
,,,,67.0,7.0,5.0,,,,,,,,,,,,,gelb,blue,b,0.0,b,1.0,0.5600252499998533,,,,,,,,,,5.0,7.0,67.0,9.0,272.02458733299954,,,,,,,,,,,,,,,,,272.01465758299946,272.81178983300015,273.60358387499946,273.5958354579998,,,,,,,,,,,,,,,,,,,,,,,,,,,,,,,,,,,273.59659841699977,273.60358387499946,273.60358387499946,274.16993054199975,b,1.0,0.5600252499998533,,,,,,sub-060,1,stroop_test,,
,,,,68.0,8.0,5.0,,,,,,,,,,,,,blau,blue,b,1.0,b,1.0,0.4689594589999615,,,,,,,,,,5.0,8.0,68.0,6.0,274.1804633329993,,,,,,,,,,,,,,,,,274.1705111249994,274.26753587499934,275.06321229199966,275.05170112499945,,,,,,,,,,,,,,,,,,,,,,,,,,,,,,,,,,,275.05529108300016,275.06321229199966,275.06321229199966,275.5364458329996,b,1.0,0.4689594589999615,,,,,,sub-060,1,stroop_test,,
,,,,69.0,9.0,5.0,,,,,,,,,,,,,blau,blue,b,1.0,b,1.0,0.4502217920007751,,,,,,,,,,5.0,9.0,69.0,5.0,275.54697829199995,,,,,,,,,,,,,,,,,275.537008667,276.7354145829995,277.5369471670001,277.52938237499984,,,,,,,,,,,,,,,,,,,,,,,,,,,,,,,,,,,277.5301380000001,277.5369471670001,277.5369471670001,277.99732595800015,b,1.0,0.4502217920007751,,,,,,sub-060,1,stroop_test,,
,,,,70.0,10.0,5.0,,,,,,,,,,,,,rot,red,r,1.0,r,1.0,0.6474778330002664,,,,,,,,,,5.0,10.0,70.0,1.0,278.00790954199965,,,,,,,,,,,,,,,,,277.99803024999983,278.3450652499996,279.1425415829999,279.1291271669997,,,,,,,,,,,,,,,,,,,,,,,,,,,,,,,,,,,279.13510462500017,279.1425415829999,279.1425415829999,279.79741212499994,r,1.0,0.6474778330002664,,,,,,sub-060,1,stroop_test,,
,,,,71.0,11.0,5.0,,,,,,,,,,,,,blau,red,r,0.0,r,1.0,0.3613067080004839,,,,,,,,,,5.0,11.0,71.0,4.0,279.8073922079993,,,,,,,,,,,,,,,,,279.79817749999984,280.9951642919996,281.7900856669994,281.77908016699985,,,,,,,,,,,,,,,,,,,,,,,,,,,,,,,,,,,281.7828832079995,281.7900856669994,281.7900856669994,282.15397954199943,r,1.0,0.3613067080004839,,,,,,sub-060,1,stroop_test,,
,,,,72.0,0.0,6.0,,,,,,,,,,,,,blau,blue,b,1.0,b,1.0,0.8912641659999281,,,,,,,,,,6.0,0.0,72.0,6.0,282.1641410000002,,,,,,,,,,,,,,,,,282.1547185419995,282.951595042,283.7541881249999,283.7460018749998,,,,,,,,,,,,,,,,,,,,,,,,,,,,,,,,,,,283.74674754199987,283.7541881249999,283.7541881249999,284.6480375000001,b,1.0,0.8912641659999281,,,,,,sub-060,1,stroop_test,,
,,,,73.0,1.0,6.0,,,,,,,,,,,,,blau,yellow,g,0.0,g,1.0,0.7155073339999944,,,,,,,,,,6.0,1.0,73.0,7.0,284.6595923750001,,,,,,,,,,,,,,,,,284.64878062499974,285.8450420829995,286.6370663329999,286.6291513329997,,,,,,,,,,,,,,,,,,,,,,,,,,,,,,,,,,,286.62994312499995,286.6370663329999,286.6370663329999,287.36384691700005,g,1.0,0.7155073339999944,,,,,,sub-060,1,stroop_test,,
,,,,74.0,2.0,6.0,,,,,,,,,,,,,rot,red,r,1.0,r,1.0,0.763052708000032,,,,,,,,,,6.0,2.0,74.0,1.0,287.37499879200004,,,,,,,,,,,,,,,,,287.3645415000001,287.46164733299975,288.2569969169999,288.24576974999945,,,,,,,,,,,,,,,,,,,,,,,,,,,,,,,,,,,288.2496119999996,288.2569969169999,288.2569969169999,289.0304187499996,r,1.0,0.763052708000032,,,,,,sub-060,1,stroop_test,,
,,,,75.0,3.0,6.0,,,,,,,,,,,,,blau,red,r,0.0,r,1.0,1.043510624999726,,,,,,,,,,6.0,3.0,75.0,4.0,289.0411640000002,,,,,,,,,,,,,,,,,289.03104924999934,289.828394917,290.6234092499999,290.6123302919996,,,,,,,,,,,,,,,,,,,,,,,,,,,,,,,,,,,290.6163056669993,290.6234092499999,290.6234092499999,291.66958412499935,r,1.0,1.043510624999726,,,,,,sub-060,1,stroop_test,,
,,,,76.0,4.0,6.0,,,,,,,,,,,,,blau,blue,b,1.0,b,1.0,1.127545833000113,,,,,,,,,,6.0,4.0,76.0,5.0,291.680658708,,,,,,,,,,,,,,,,,291.670234833,291.76694504199986,292.56016374999945,292.55156358299973,,,,,,,,,,,,,,,,,,,,,,,,,,,,,,,,,,,292.55213470799936,292.56016374999945,292.56016374999945,293.69731370799946,b,1.0,1.127545833000113,,,,,,sub-060,1,stroop_test,,
,,,,77.0,5.0,6.0,,,,,,,,,,,,,rot,yellow,g,0.0,g,1.0,1.1755257079994408,,,,,,,,,,6.0,5.0,77.0,3.0,293.7066729170001,,,,,,,,,,,,,,,,,293.6980707920002,293.7952147919996,294.59102433299995,294.5792282920001,,,,,,,,,,,,,,,,,,,,,,,,,,,,,,,,,,,294.583703583,294.59102433299995,294.59102433299995,295.7697664999996,g,1.0,1.1755257079994408,,,,,,sub-060,1,stroop_test,,
,,,,78.0,6.0,6.0,,,,,,,,,,,,,gelb,yellow,g,1.0,g,1.0,0.637084834000234,,,,,,,,,,6.0,6.0,78.0,10.0,295.7800985829999,,,,,,,,,,,,,,,,,295.77043454199975,296.96809216699967,297.7630894169997,297.7514757079998,,,,,,,,,,,,,,,,,,,,,,,,,,,,,,,,,,,297.7550843749996,297.7630894169997,297.7630894169997,298.4029981670001,g,1.0,0.637084834000234,,,,,,sub-060,1,stroop_test,,
,,,,79.0,7.0,6.0,,,,,,,,,,,,,gelb,yellow,g,1.0,g,1.0,0.5520181250003589,,,,,,,,,,6.0,7.0,79.0,11.0,298.413333042,,,,,,,,,,,,,,,,,298.40355524999995,299.201702458,300.00272741699973,299.9955719169993,,,,,,,,,,,,,,,,,,,,,,,,,,,,,,,,,,,299.996169,300.00272741699973,300.00272741699973,300.56361458299943,g,1.0,0.5520181250003589,,,,,,sub-060,1,stroop_test,,
,,,,80.0,8.0,6.0,,,,,,,,,,,,,gelb,red,r,0.0,r,1.0,0.9187720420004551,,,,,,,,,,6.0,8.0,80.0,8.0,300.5736837499999,,,,,,,,,,,,,,,,,300.5642839579996,300.9117753330001,301.70310195799993,301.6956873749996,,,,,,,,,,,,,,,,,,,,,,,,,,,,,,,,,,,301.6963847500001,301.70310195799993,301.70310195799993,302.6303398330001,r,1.0,0.9187720420004551,,,,,,sub-060,1,stroop_test,,
,,,,81.0,9.0,6.0,,,,,,,,,,,,,rot,blue,b,0.0,b,1.0,1.1479312920000666,,,,,,,,,,6.0,9.0,81.0,2.0,302.6407531670002,,,,,,,,,,,,,,,,,302.6310219999996,302.97839374999967,303.7756871669999,303.76249820799967,,,,,,,,,,,,,,,,,,,,,,,,,,,,,,,,,,,303.7683610419999,303.7756871669999,303.7756871669999,304.9303500420001,b,1.0,1.1479312920000666,,,,,,sub-060,1,stroop_test,,
,,,,82.0,10.0,6.0,,,,,,,,,,,,,rot,red,r,1.0,r,1.0,0.7727077090003149,,,,,,,,,,6.0,10.0,82.0,0.0,304.94090099999994,,,,,,,,,,,,,,,,,304.9310371669999,306.12842029199965,306.91948845800016,306.9123381669997,,,,,,,,,,,,,,,,,,,,,,,,,,,,,,,,,,,306.9129277080001,306.91948845800016,306.91948845800016,307.6970609579994,r,1.0,0.7727077090003149,,,,,,sub-060,1,stroop_test,,
,,,,83.0,11.0,6.0,,,,,,,,,,,,,gelb,blue,b,0.0,b,1.0,0.983702500000618,,,,,,,,,,6.0,11.0,83.0,9.0,307.70731541699934,,,,,,,,,,,,,,,,,307.6977545,307.79356262500005,308.5917691249997,308.579262667,,,,,,,,,,,,,,,,,,,,,,,,,,,,,,,,,,,308.583993792,308.5917691249997,308.5917691249997,309.5798156669998,b,1.0,0.983702500000618,,,,,,sub-060,1,stroop_test,,
,,,,84.0,0.0,7.0,,,,,,,,,,,,,blau,yellow,g,0.0,g,1.0,1.239375750000363,,,,,,,,,,7.0,0.0,84.0,7.0,309.59119887499946,,,,,,,,,,,,,,,,,309.5805637499998,309.67827837499954,310.4739691670002,310.4623708749996,,,,,,,,,,,,,,,,,,,,,,,,,,,,,,,,,,,310.4669260419996,310.4739691670002,310.4739691670002,311.7195570829999,g,1.0,1.239375750000363,,,,,,sub-060,1,stroop_test,,
,,,,85.0,1.0,7.0,,,,,,,,,,,,,blau,blue,b,1.0,b,1.0,0.9905107919994408,,,,,,,,,,7.0,1.0,85.0,5.0,311.7308265829997,,,,,,,,,,,,,,,,,311.720112,312.51786637499936,313.310204292,313.30202279199966,,,,,,,,,,,,,,,,,,,,,,,,,,,,,,,,,,,313.3026191250001,313.310204292,313.310204292,314.30325237499983,b,1.0,0.9905107919994408,,,,,,sub-060,1,stroop_test,,
,,,,86.0,2.0,7.0,,,,,,,,,,,,,gelb,blue,b,0.0,b,1.0,0.6518266249995577,,,,,,,,,,7.0,2.0,86.0,9.0,314.3141141669994,,,,,,,,,,,,,,,,,314.3039964999998,314.6513951249999,315.4464350829994,315.43485708299977,,,,,,,,,,,,,,,,,,,,,,,,,,,,,,,,,,,315.4385232079994,315.4464350829994,315.4464350829994,316.10263979199954,b,1.0,0.6518266249995577,,,,,,sub-060,1,stroop_test,,
,,,,87.0,3.0,7.0,,,,,,,,,,,,,blau,red,r,0.0,r,1.0,1.0326521670003783,,,,,,,,,,7.0,3.0,87.0,4.0,316.11329549999937,,,,,,,,,,,,,,,,,316.10322641699986,317.30172358299933,318.1071247079999,318.0956924579996,,,,,,,,,,,,,,,,,,,,,,,,,,,,,,,,,,,318.1000625830002,318.1071247079999,318.1071247079999,319.1469439169996,r,1.0,1.0326521670003783,,,,,,sub-060,1,stroop_test,,
,,,,88.0,4.0,7.0,,,,,,,,,,,,,gelb,yellow,g,1.0,g,1.0,0.7079703330000484,,,,,,,,,,7.0,4.0,88.0,10.0,319.1579510829997,,,,,,,,,,,,,,,,,319.14766645799955,319.2438010830001,320.040849,320.0291137079994,,,,,,,,,,,,,,,,,,,,,,,,,,,,,,,,,,,320.033661083,320.040849,320.040849,320.75313729199934,g,1.0,0.7079703330000484,,,,,,sub-060,1,stroop_test,,
,,,,89.0,5.0,7.0,,,,,,,,,,,,,gelb,red,r,0.0,r,1.0,1.5542789159999302,,,,,,,,,,7.0,5.0,89.0,8.0,320.7639783750001,,,,,,,,,,,,,,,,,320.7537040829993,321.1010292499996,321.8933812079995,321.8848678329996,,,,,,,,,,,,,,,,,,,,,,,,,,,,,,,,,,,321.88546012499955,321.8933812079995,321.8933812079995,323.4532648329996,r,1.0,1.5542789159999302,,,,,,sub-060,1,stroop_test,,
,,,,90.0,6.0,7.0,,,,,,,,,,,,,rot,blue,b,0.0,b,1.0,1.4184789170003569,,,,,,,,,,7.0,6.0,90.0,2.0,323.46408345799955,,,,,,,,,,,,,,,,,323.453820875,324.6513175829996,325.4463088749999,325.434456125,,,,,,,,,,,,,,,,,,,,,,,,,,,,,,,,,,,325.4393392080001,325.4463088749999,325.4463088749999,326.8696438329998,b,1.0,1.4184789170003569,,,,,,sub-060,1,stroop_test,,
,,,,91.0,7.0,7.0,,,,,,,,,,,,,rot,yellow,g,0.0,g,1.0,0.7151306249998015,,,,,,,,,,7.0,7.0,91.0,3.0,326.8805514169999,,,,,,,,,,,,,,,,,326.8702425829997,328.0681176669996,328.8697647499994,328.86215099999936,,,,,,,,,,,,,,,,,,,,,,,,,,,,,,,,,,,328.8628599169997,328.8697647499994,328.8697647499994,329.5979883330001,g,1.0,0.7151306249998015,,,,,,sub-060,1,stroop_test,,
,,,,92.0,8.0,7.0,,,,,,,,,,,,,rot,red,r,1.0,r,1.0,0.7019056660001297,,,,,,,,,,7.0,8.0,92.0,0.0,329.61167470799955,,,,,,,,,,,,,,,,,329.5984292080002,330.7950128329994,331.5869712499998,331.5790841669996,,,,,,,,,,,,,,,,,,,,,,,,,,,,,,,,,,,331.5798556669997,331.5869712499998,331.5869712499998,332.2972102499998,r,1.0,0.7019056660001297,,,,,,sub-060,1,stroop_test,,
,,,,93.0,9.0,7.0,,,,,,,,,,,,,rot,red,r,1.0,r,1.0,0.9511435000003984,,,,,,,,,,7.0,9.0,93.0,1.0,332.3078673330001,,,,,,,,,,,,,,,,,332.2978145420002,333.0949009169999,333.88686362499993,333.87900524999986,,,,,,,,,,,,,,,,,,,,,,,,,,,,,,,,,,,333.87973941699966,333.88686362499993,333.88686362499993,334.84697675000007,r,1.0,0.9511435000003984,,,,,,sub-060,1,stroop_test,,
,,,,94.0,10.0,7.0,,,,,,,,,,,,,gelb,yellow,g,1.0,g,1.0,0.9640542500001176,,,,,,,,,,7.0,10.0,94.0,11.0,334.85767883300014,,,,,,,,,,,,,,,,,334.8475681250002,334.94491041699985,335.7400819579998,335.72885445799966,,,,,,,,,,,,,,,,,,,,,,,,,,,,,,,,,,,335.73300308299986,335.7400819579998,335.7400819579998,336.71363912499964,g,1.0,0.9640542500001176,,,,,,sub-060,1,stroop_test,,
,,,,95.0,11.0,7.0,,,,,,,,,,,,,blau,blue,b,1.0,b,1.0,0.6135762500007331,,,,,,,,,,7.0,11.0,95.0,6.0,336.7244906249998,,,,,,,,,,,,,,,,,336.7142642919998,337.0616505829994,337.8568287500002,337.8456001249997,,,,,,,,,,,,,,,,,,,,,,,,,,,,,,,,,,,337.84983454199937,337.8568287500002,337.8568287500002,338.48043329199936,b,1.0,0.6135762500007331,,,,,,sub-060,1,stroop_test,,
,,,,96.0,0.0,8.0,,,,,,,,,,,,,rot,yellow,g,0.0,g,1.0,0.6003469580000456,,,,,,,,,,8.0,0.0,96.0,3.0,338.4912591249995,,,,,,,,,,,,,,,,,338.4810613749996,339.2782861669993,340.0734411249996,340.06225341699974,,,,,,,,,,,,,,,,,,,,,,,,,,,,,,,,,,,340.06605191699964,340.0734411249996,340.0734411249996,340.680569917,g,1.0,0.6003469580000456,,,,,,sub-060,1,stroop_test,,
,,,,97.0,1.0,8.0,,,,,,,,,,,,,rot,red,r,1.0,r,1.0,0.8094049169994832,,,,,,,,,,8.0,1.0,97.0,0.0,340.69075316699946,,,,,,,,,,,,,,,,,340.6812447499997,341.02817754199987,341.819562875,341.8123474169997,,,,,,,,,,,,,,,,,,,,,,,,,,,,,,,,,,,341.81295220799984,341.819562875,341.819562875,342.641950792,r,1.0,0.8094049169994832,,,,,,sub-060,1,stroop_test,,
,,,,98.0,2.0,8.0,,,,,,,,,,,,,blau,blue,b,1.0,b,1.0,0.7184741660003056,,,,,,,,,,8.0,2.0,98.0,5.0,342.6463772500001,,,,,,,,,,,,,,,,,342.64238233299966,343.83540875000017,344.6396427919999,344.6287885419997,,,,,,,,,,,,,,,,,,,,,,,,,,,,,,,,,,,344.6326414999994,344.6396427919999,344.6396427919999,345.3636421249994,b,1.0,0.7184741660003056,,,,,,sub-060,1,stroop_test,,
,,,,99.0,3.0,8.0,,,,,,,,,,,,,rot,red,r,1.0,r,1.0,0.9609147080000184,,,,,,,,,,8.0,3.0,99.0,1.0,345.37427791699974,,,,,,,,,,,,,,,,,345.3642991249999,346.16159241700007,346.9575177500001,346.9457601670001,,,,,,,,,,,,,,,,,,,,,,,,,,,,,,,,,,,346.9500628329997,346.9575177500001,346.9575177500001,347.93029583299995,r,1.0,0.9609147080000184,,,,,,sub-060,1,stroop_test,,
,,,,100.0,4.0,8.0,,,,,,,,,,,,,gelb,red,r,0.0,r,1.0,0.9713526659998024,,,,,,,,,,8.0,4.0,100.0,8.0,347.940770792,,,,,,,,,,,,,,,,,347.9309115420001,348.72820649999994,349.52506458300013,349.51230766699973,,,,,,,,,,,,,,,,,,,,,,,,,,,,,,,,,,,349.5181090420001,349.52506458300013,349.52506458300013,350.50274416699995,r,1.0,0.9713526659998024,,,,,,sub-060,1,stroop_test,,
,,,,101.0,5.0,8.0,,,,,,,,,,,,,blau,yellow,g,0.0,g,1.0,0.6684545420002905,,,,,,,,,,8.0,5.0,101.0,7.0,350.5136008749996,,,,,,,,,,,,,,,,,350.5032774169995,350.85115654199944,351.64634016699983,351.6348073749996,,,,,,,,,,,,,,,,,,,,,,,,,,,,,,,,,,,351.638387,351.64634016699983,351.64634016699983,352.31995495799947,g,1.0,0.6684545420002905,,,,,,sub-060,1,stroop_test,,
,,,,102.0,6.0,8.0,,,,,,,,,,,,,gelb,blue,b,0.0,b,1.0,0.6733881250002014,,,,,,,,,,8.0,6.0,102.0,9.0,352.3305622500002,,,,,,,,,,,,,,,,,352.3204959579998,353.517695042,354.31325641700005,354.30109825,,,,,,,,,,,,,,,,,,,,,,,,,,,,,,,,,,,354.3047594999998,354.31325641700005,354.31325641700005,354.99697775000004,b,1.0,0.6733881250002014,,,,,,sub-060,1,stroop_test,,
,,,,103.0,7.0,8.0,,,,,,,,,,,,,gelb,yellow,g,1.0,g,1.0,1.1639377909996256,,,,,,,,,,8.0,7.0,103.0,10.0,355.0076625000001,,,,,,,,,,,,,,,,,354.99761254199984,355.09475699999984,355.88699050000014,355.8790389579999,,,,,,,,,,,,,,,,,,,,,,,,,,,,,,,,,,,355.8798233329999,355.88699050000014,355.88699050000014,357.0534118329997,g,1.0,1.1639377909996256,,,,,,sub-060,1,stroop_test,,
,,,,104.0,8.0,8.0,,,,,,,,,,,,,blau,blue,b,1.0,b,1.0,0.8116121250004653,,,,,,,,,,8.0,8.0,104.0,6.0,357.0638315420001,,,,,,,,,,,,,,,,,357.05409941699963,358.25099712500014,359.0612112079998,359.0344977499999,,,,,,,,,,,,,,,,,,,,,,,,,,,,,,,,,,,359.03813504199934,359.0612112079998,359.0612112079998,359.8803209580001,b,1.0,0.8116121250004653,,,,,,sub-060,1,stroop_test,,
,,,,105.0,9.0,8.0,,,,,,,,,,,,,blau,red,r,0.0,r,1.0,1.3833382499997242,,,,,,,,,,8.0,9.0,105.0,4.0,359.8909737919994,,,,,,,,,,,,,,,,,359.8809660830002,360.6783013750001,361.4700858749993,361.46246387500014,,,,,,,,,,,,,,,,,,,,,,,,,,,,,,,,,,,361.463241333,361.4700858749993,361.4700858749993,362.8635986250001,r,1.0,1.3833382499997242,,,,,,sub-060,1,stroop_test,,
,,,,106.0,10.0,8.0,,,,,,,,,,,,,rot,blue,b,0.0,b,1.0,0.7554207919993132,,,,,,,,,,8.0,10.0,106.0,2.0,362.87449687499975,,,,,,,,,,,,,,,,,362.8643069999998,362.96156766700005,363.7576542079996,363.7456979999997,,,,,,,,,,,,,,,,,,,,,,,,,,,,,,,,,,,363.7502691669997,363.7576542079996,363.7576542079996,364.51969458299936,b,1.0,0.7554207919993132,,,,,,sub-060,1,stroop_test,,
,,,,107.0,11.0,8.0,,,,,,,,,,,,,gelb,yellow,g,1.0,g,1.0,0.6244650420003381,,,,,,,,,,8.0,11.0,107.0,11.0,364.5292617919995,,,,,,,,,,,,,,,,,364.5201936249996,365.3178054999999,366.1279349999995,366.10096412499934,,,,,,,,,,,,,,,,,,,,,,,,,,,,,,,,,,,366.1045544999997,366.1279349999995,366.1279349999995,366.7634882499997,g,1.0,0.6244650420003381,,,,,,sub-060,1,stroop_test,,
,,,,108.0,0.0,9.0,,,,,,,,,,,,,blau,blue,b,1.0,b,1.0,0.7536866669997835,,,,,,,,,,9.0,0.0,108.0,5.0,366.773656333,,,,,,,,,,,,,,,,,366.764103042,366.861713542,367.6584900829994,367.6456213329993,,,,,,,,,,,,,,,,,,,,,,,,,,,,,,,,,,,367.6513499579996,367.6584900829994,367.6584900829994,368.4251290829998,b,1.0,0.7536866669997835,,,,,,sub-060,1,stroop_test,,
,,,,109.0,1.0,9.0,,,,,,,,,,,,,rot,yellow,g,0.0,g,1.0,1.3083559169999717,,,,,,,,,,9.0,1.0,109.0,3.0,368.4294570419997,,,,,,,,,,,,,,,,,368.4255683749998,369.2174260829997,370.0278256249994,370.0010515419999,,,,,,,,,,,,,,,,,,,,,,,,,,,,,,,,,,,370.0045719999998,370.0278256249994,370.0278256249994,371.34688195799936,g,1.0,1.3083559169999717,,,,,,sub-060,1,stroop_test,,
,,,,110.0,2.0,9.0,,,,,,,,,,,,,gelb,blue,b,0.0,b,1.0,0.7759729170002174,,,,,,,,,,9.0,2.0,110.0,9.0,371.356894042,,,,,,,,,,,,,,,,,371.3475338749995,372.5448469169996,373.3407114169995,373.3289400419999,,,,,,,,,,,,,,,,,,,,,,,,,,,,,,,,,,,373.33357262499976,373.3407114169995,373.3407114169995,374.1192933329994,b,1.0,0.7759729170002174,,,,,,sub-060,1,stroop_test,,
,,,,111.0,3.0,9.0,,,,,,,,,,,,,rot,red,r,1.0,r,1.0,0.649417125000582,,,,,,,,,,9.0,3.0,111.0,1.0,374.129753958,,,,,,,,,,,,,,,,,374.1198691669997,374.467773292,375.26306083300005,375.25141791699934,,,,,,,,,,,,,,,,,,,,,,,,,,,,,,,,,,,375.25495245799993,375.26306083300005,375.26306083300005,375.9195377079996,r,1.0,0.649417125000582,,,,,,sub-060,1,stroop_test,,
,,,,112.0,4.0,9.0,,,,,,,,,,,,,gelb,yellow,g,1.0,g,1.0,0.6385180000006585,,,,,,,,,,9.0,4.0,112.0,11.0,375.9294822080001,,,,,,,,,,,,,,,,,375.92009037499975,376.01720854199993,376.8133538329994,376.8018175420002,,,,,,,,,,,,,,,,,,,,,,,,,,,,,,,,,,,376.805464,376.8133538329994,376.8133538329994,377.46367033299975,g,1.0,0.6385180000006585,,,,,,sub-060,1,stroop_test,,
,,,,113.0,5.0,9.0,,,,,,,,,,,,,rot,red,r,1.0,r,1.0,0.593938750000234,,,,,,,,,,9.0,5.0,113.0,0.0,377.4739909579994,,,,,,,,,,,,,,,,,377.4643084999998,378.26150462499936,379.0566211669993,379.0454194169997,,,,,,,,,,,,,,,,,,,,,,,,,,,,,,,,,,,379.0491951249997,379.0566211669993,379.0566211669993,379.65287050000006,r,1.0,0.593938750000234,,,,,,sub-060,1,stroop_test,,
,,,,114.0,6.0,9.0,,,,,,,,,,,,,rot,blue,b,0.0,b,1.0,1.0111331250000148,,,,,,,,,,9.0,6.0,114.0,2.0,379.6636538329994,,,,,,,,,,,,,,,,,379.6534762920001,380.8511601250002,381.643611083,381.6343682500001,,,,,,,,,,,,,,,,,,,,,,,,,,,,,,,,,,,381.6349317919994,381.643611083,381.643611083,382.6636014169999,b,1.0,1.0111331250000148,,,,,,sub-060,1,stroop_test,,
,,,,115.0,7.0,9.0,,,,,,,,,,,,,blau,yellow,g,0.0,g,1.0,1.152937667000515,,,,,,,,,,9.0,7.0,115.0,7.0,382.673888583,,,,,,,,,,,,,,,,,382.6642834579998,383.86143487499976,384.656377667,384.6453810829999,,,,,,,,,,,,,,,,,,,,,,,,,,,,,,,,,,,384.6492560830002,384.656377667,384.656377667,385.8134367920002,g,1.0,1.152937667000515,,,,,,sub-060,1,stroop_test,,
,,,,116.0,8.0,9.0,,,,,,,,,,,,,blau,red,r,0.0,r,1.0,0.9247963339994384,,,,,,,,,,9.0,8.0,116.0,4.0,385.8237363749995,,,,,,,,,,,,,,,,,385.8140372500002,385.9114504579993,386.70349524999983,386.69570629200007,,,,,,,,,,,,,,,,,,,,,,,,,,,,,,,,,,,386.6964800420001,386.70349524999983,386.70349524999983,387.6307066250001,r,1.0,0.9247963339994384,,,,,,sub-060,1,stroop_test,,
,,,,117.0,9.0,9.0,,,,,,,,,,,,,gelb,red,r,0.0,r,1.0,1.3773967499992068,,,,,,,,,,9.0,9.0,117.0,8.0,387.6412031250002,,,,,,,,,,,,,,,,,387.631384667,388.4282239999993,389.2248622079997,389.212262,,,,,,,,,,,,,,,,,,,,,,,,,,,,,,,,,,,389.2177072499999,389.2248622079997,389.2248622079997,390.613513458,r,1.0,1.3773967499992068,,,,,,sub-060,1,stroop_test,,
,,,,118.0,10.0,9.0,,,,,,,,,,,,,blau,blue,b,1.0,b,1.0,0.5899842919998264,,,,,,,,,,9.0,10.0,118.0,6.0,390.6239753749997,,,,,,,,,,,,,,,,,390.6141428749997,391.4114478329993,392.2062326669993,392.1954078749996,,,,,,,,,,,,,,,,,,,,,,,,,,,,,,,,,,,392.1992897079999,392.2062326669993,392.2062326669993,392.8034746249996,b,1.0,0.5899842919998264,,,,,,sub-060,1,stroop_test,,
,,,,119.0,11.0,9.0,,,,,,,,,,,,,gelb,yellow,g,1.0,g,1.0,0.5623130840003796,,,,,,,,,,9.0,11.0,119.0,10.0,392.8138513329996,,,,,,,,,,,,,,,,,392.80406866700014,393.1509871669996,393.946194958,393.93466249999983,,,,,,,,,,,,,,,,,,,,,,,,,,,,,,,,,,,393.9382860830001,393.946194958,393.946194958,394.5137640419998,g,1.0,0.5623130840003796,,,,,,sub-060,1,stroop_test,,
,,,,,,,,,,,,,,,,,,,,,,,,,,,,,,,,,,,,,,,,,,,,,,,,,,,,,,,,,,,,,,,,,,,,,,,,,,,,,,,,,,,,,,,,,,,,,,,,,,,,,,394.5141365,394.5266864579999,399.5168833329999,399.51227554199977,sub-060,1,stroop_test,,
