direction,corrAns,thisN,thisTrialN,thisRepN,respDots.keys,respDots.corr,respDots.rt,respDots.duration,randomInstr,respRandomInstr.keys,respRandomInstr.rt,respRandomInstr.duration,practice_trials.thisRepN,practice_trials.thisTrialN,practice_trials.thisN,practice_trials.thisIndex,instr_trials.thisRepN,instr_trials.thisTrialN,instr_trials.thisN,instr_trials.thisIndex,test_trials.thisRepN,test_trials.thisTrialN,test_trials.thisN,test_trials.thisIndex,thisRow.t,notes,general_instruction.started,textGeneralInstr.started,respGeneralInstr.started,general_instruction.stopped,respGeneralInstr.keys,respGeneralInstr.rt,respGeneralInstr.duration,ITI.started,fixcross.started,fixcross.stopped,ITI.stopped,dots.started,backgroundDots.started,stimulusDots.started,respDots.started,dots.stopped,practice_trials.respDots.keys,practice_trials.respDots.corr,practice_trials.respDots.rt,practice_trials.respDots.duration,feedback.started,textFeedback.started,feedback.stopped,textFeedback.stopped,stimulusDots.stopped,info.started,textInfo.started,keyRespInfo.started,info.stopped,keyRespInfo.keys,keyRespInfo.rt,keyRespInfo.duration,test_instruction.started,textTestInstr.started,respTestInstr.started,test_instruction.stopped,respTestInstr.keys,respTestInstr.rt,respTestInstr.duration,random_instruction.started,textRandomInstr.started,respRandomInstr.started,random_instruction.stopped,instr_trials.respRandomInstr.keys,instr_trials.respRandomInstr.rt,instr_trials.respRandomInstr.duration,test_trials.respDots.keys,test_trials.respDots.corr,test_trials.respDots.rt,test_trials.respDots.duration,goodbye.started,textGoodbye.started,goodbye.stopped,participant,session,expName,frameRate,Unnamed: 87
,,,,,,,,,,,,,,,,,,,,,,,,,,,0.0097453039998072,0.0256966800006921,0.0256966800006921,12.816376019996824,space,12.752147092003725,,,,,,,,,,,,,,,,,,,,,,,,,,,,,,,,,,,,,,,,,,,,,,,,sub-116,1,random_dot,59.15476687789651,
left,left,0.0,0.0,0.0,left,1.0,1.6395450890049688,,,,,,0.0,0.0,0.0,0.0,,,,,,,,,12.837448505000792,,,,,,,,,12.827213341995956,12.922038389995578,13.723824207998405,13.708381005002591,13.708742410002742,13.723824207998405,13.723824207998405,13.723824207998405,15.380742939996708,left,1.0,1.6395450890049688,,15.386591214999498,15.407405412996011,15.897046874997612,,,,,,,,,,,,,,,,,,,,,,,,,,,,,,,sub-116,1,random_dot,59.15476687789651,
right,right,1.0,1.0,0.0,left,0.0,1.3842553119975491,,,,,,0.0,1.0,1.0,1.0,,,,,,,,,15.913658031000525,,,,,,,,,15.89737894800055,16.68209435499739,17.48411166200094,17.46853598999587,17.468867331001093,17.48411166200094,17.48411166200094,17.48411166200094,18.873185160999128,left,0.0,1.3842553119975491,,18.878501125000184,18.89052177000121,19.389298777001382,,,,,,,,,,,,,,,,,,,,,,,,,,,,,,,sub-116,1,random_dot,59.15476687789651,
left,left,2.0,0.0,1.0,right,0.0,1.0130143710048287,,,,,,1.0,0.0,2.0,0.0,,,,,,,,,19.406286817000364,,,,,,,,,19.38963139599946,20.57669000200258,21.377858610998373,21.362029236996023,21.36237739699573,21.377858610998373,21.377858610998373,21.377858610998373,22.3990439650006,right,0.0,1.0130143710048287,,22.399129190998792,22.414055294997524,22.89966855500097,,,,,,,,,,,,,,,,,,,,,,,,,,,,,,,sub-116,1,random_dot,59.15476687789651,
right,right,3.0,1.0,1.0,left,0.0,2.682706383995537,,,,,,1.0,1.0,3.0,1.0,,,,,,,,,22.916390250000404,,,,,,,,,22.900075551995545,24.1016764829983,24.90465329700237,24.889287179998064,24.88976621999609,24.90465329700237,24.90465329700237,24.90465329700237,27.595931197000027,left,0.0,2.682706383995537,,27.59601684600057,27.61109075499553,28.09619426199788,,,,,,,,,,,,,,,,,,,,,,,,,,,,,,,sub-116,1,random_dot,59.15476687789651,
left,left,4.0,0.0,2.0,right,0.0,1.8639362079993589,,,,,,2.0,0.0,4.0,0.0,,,,,,,,,28.11272189200099,,,,,,,,,28.096538976999,28.897735025995644,29.701060639999923,29.685296146999463,29.685785301997385,29.701060639999923,29.701060639999923,29.701060639999923,31.573567961000663,right,0.0,1.8639362079993589,,31.573676446001627,31.58877252599632,32.07450237000012,,,,,,,,,,,,,,,,,,,,,,,,,,,,,,,sub-116,1,random_dot,59.15476687789651,
right,right,5.0,1.0,2.0,left,0.0,2.557373104005819,,,,,,2.0,1.0,5.0,1.0,,,,,,,,,32.09055570999772,,,,,,,,,32.0749495400014,32.1737168749969,32.97568655299983,32.95969329500076,32.96003766699869,32.97568655299983,32.97568655299983,32.97568655299983,35.55074064600194,left,0.0,2.557373104005819,,35.55086183700041,35.56621728799655,36.05142290100048,36.0674663259997,,,,,,,,,,,,,,,,,,,,,,,,,,,,,,sub-116,1,random_dot,59.15476687789651,
right,right,6.0,0.0,3.0,right,1.0,6.104086461004044,,,,,,3.0,0.0,6.0,1.0,,,,,,,,,36.0674663259997,,,,,,,,,36.05169884699717,36.15048771700094,36.95270045199868,36.93699095500051,36.93732755599922,36.95270045199868,36.95270045199868,36.95270045199868,43.070243615002255,right,1.0,6.104086461004044,,43.07262585200078,43.08583854800236,43.57154769200133,,41.949750464002136,,,,,,,,,,,,,,,,,,,,,,,,,,,,,sub-116,1,random_dot,59.15476687789651,
left,left,7.0,1.0,3.0,right,0.0,3.807542854003259,,,,,,3.0,1.0,7.0,0.0,,,,,,,,,43.58826509700157,,,,,,,,,43.57199957499688,43.92213056000037,44.7232886119964,44.70772934299748,44.70807790700201,44.7232886119964,44.7232886119964,44.7232886119964,48.53592646800098,right,0.0,3.807542854003259,,48.539413275997504,48.55005786699621,49.0365048839958,49.05173293199914,,,,,,,,,,,,,,,,,,,,,,,,,,,,,,sub-116,1,random_dot,59.15476687789651,
right,right,8.0,0.0,4.0,right,1.0,2.598615714996413,,,,,,4.0,0.0,8.0,1.0,,,,,,,,,49.05173293199914,,,,,,,,,49.036815344996285,50.239238385001954,51.040659072998096,51.02467378399888,51.02502072700008,51.040659072998096,51.040659072998096,51.040659072998096,53.6489436769989,right,1.0,2.598615714996413,,53.65169195699855,53.66347822499665,54.149511534997146,,,,,,,,,,,,,,,,,,,,,,,,,,,,,,,sub-116,1,random_dot,59.15476687789651,
left,left,9.0,1.0,4.0,left,1.0,1.5638096350012347,,,,,,4.0,1.0,9.0,0.0,,,,,,,,,54.16555240299931,,,,,,,,,54.14996332499868,55.35284659700119,56.15387585199642,56.13780532700184,56.138145587996405,56.15387585199642,56.15387585199642,56.15387585199642,57.72680475699599,left,1.0,1.5638096350012347,,57.72690536799928,57.741545965000114,58.22677630199905,58.24318060299993,,,,,,,,,,,,,,,,,,,,,,,,,,,,,,sub-116,1,random_dot,59.15476687789651,
left,left,10.0,0.0,5.0,left,1.0,1.220249710000644,,,,,,5.0,0.0,10.0,0.0,,,,,,,,,58.24318060299993,,,,,,,,,58.22701276800217,58.32749306999904,59.12980956999672,59.11378764199617,59.11426625999593,59.12980956999672,59.12980956999672,59.12980956999672,60.35322242700204,left,1.0,1.220249710000644,,60.35334306600271,60.36560451799596,60.85163332199591,60.86746826700255,,,,,,,,,,,,,,,,,,,,,,,,,,,,,,sub-116,1,random_dot,59.15476687789651,
right,right,11.0,1.0,5.0,right,1.0,1.3500684890022967,,,,,,5.0,1.0,11.0,1.0,,,,,,,,,60.86746826700255,,,,,,,,,60.8520338620001,60.96803937500226,61.7689509999982,61.752971000998514,61.75331138799811,61.7689509999982,61.7689509999982,61.7689509999982,63.124416170001496,right,1.0,1.3500684890022967,,63.12452388300153,63.13944036699832,63.6246941099962,63.640666977000365,,,,,,,,,,,,,,,,,,,,,,,,,,,,,,sub-116,1,random_dot,59.15476687789651,
left,left,12.0,0.0,6.0,right,0.0,1.721789315997739,,,,,,6.0,0.0,12.0,0.0,,,,,,,,,63.640666977000365,,,,,,,,,63.62496988000203,63.72461690499768,64.52686483899743,64.51149691700266,64.51197874500212,64.52686483899743,64.52686483899743,64.52686483899743,66.26592209999944,right,0.0,1.721789315997739,,66.26843245099735,66.2816058440003,66.76623775700136,66.78240500100219,,,,,,,,,,,,,,,,,,,,,,,,,,,,,,sub-116,1,random_dot,59.15476687789651,
right,right,13.0,1.0,6.0,left,0.0,2.274097495006572,,,,,,6.0,1.0,13.0,1.0,,,,,,,,,66.78240500100219,,,,,,,,,66.76652303699666,66.86692031200073,67.6683856669988,67.65262739099853,67.65296981100255,67.6683856669988,67.6683856669988,67.6683856669988,69.95912529199995,left,0.0,2.274097495006572,,69.9592256629985,69.97436438700242,70.45969310299552,70.47553593699558,,,,,,,,,,,,,,,,,,,,,,,,,,,,,,sub-116,1,random_dot,59.15476687789651,
right,right,14.0,0.0,7.0,right,1.0,1.4961365559938713,,,,,,7.0,0.0,14.0,1.0,,,,,,,,,70.47553593699558,,,,,,,,,70.4599710409966,70.55989265000244,71.36181286999636,71.34582765300001,71.34617749800236,71.36181286999636,71.36181286999636,71.36181286999636,72.86708625299798,right,1.0,1.4961365559938713,,72.86961138500192,72.88225390700245,73.36725419700088,,,,,,,,,,,,,,,,,,,,,,,,,,,,,,,sub-116,1,random_dot,59.15476687789651,
left,left,15.0,1.0,7.0,left,1.0,1.541242269995564,,,,,,7.0,1.0,15.0,0.0,,,,,,,,,73.38321925499622,,,,,,,,,73.36756121699727,74.57095427199965,75.37279077999847,75.35722867000004,75.35770646700257,75.37279077999847,75.37279077999847,75.37279077999847,76.92715615499765,left,1.0,1.541242269995564,,76.92724833999819,76.94271012699755,77.42757888000051,,,,,,,,,,,,,,,,,,,,,,,,,,,,,,,sub-116,1,random_dot,59.15476687789651,
right,right,16.0,0.0,8.0,right,1.0,1.0777548979967833,,,,,,8.0,0.0,16.0,1.0,,,,,,,,,77.44425917499757,,,,,,,,,77.42787421999674,77.77934289500263,78.58147186000133,78.56616025699623,78.56667810500221,78.58147186000133,78.58147186000133,78.58147186000133,79.66853358200024,right,1.0,1.0777548979967833,,79.66864517799695,79.68394325499685,80.16926482199779,,,,,,,,,,,,,,,,,,,,,,,,,,,,,,,sub-116,1,random_dot,59.15476687789651,
left,left,17.0,1.0,8.0,left,1.0,2.403311714006122,,,,,,8.0,1.0,17.0,0.0,,,,,,,,,80.18584842199925,,,,,,,,,80.1697110669993,80.26943028700043,81.07140615500248,81.05598568500136,81.05646423000144,81.07140615500248,81.07140615500248,81.07140615500248,83.47927369299578,left,1.0,2.403311714006122,,83.47936868199758,83.49358494999615,83.97989547700126,83.99591113499628,,,,,,,,,,,,,,,,,,,,,,,,,,,,,,sub-116,1,random_dot,59.15476687789651,
left,left,18.0,0.0,9.0,right,0.0,1.8158606630022405,,,,,,9.0,0.0,18.0,0.0,,,,,,,,,83.99591113499628,,,,,,,,,83.98029405700072,84.33034888999828,85.13237603999733,85.11673385200265,85.11722200000077,85.13237603999733,85.13237603999733,85.13237603999733,86.95490811199852,right,0.0,1.8158606630022405,,86.95721793799748,86.9699249740006,87.45554424500006,,,,,,,,,,,,,,,,,,,,,,,,,,,,,,,sub-116,1,random_dot,59.15476687789651,
right,right,19.0,1.0,9.0,right,1.0,1.858466199999384,,,,,,9.0,1.0,19.0,1.0,,,,,,,,,87.4722026849995,,,,,,,,,87.45595114499883,88.65836202699575,89.4604825819988,89.44463577499846,89.44513203699898,89.4604825819988,89.4604825819988,89.4604825819988,91.33339861300192,right,1.0,1.858466199999384,,91.33589187500183,91.34803488000034,91.83362747499632,,,,,,,,,,,,,,,,,,,,,,,,,,,,,,,sub-116,1,random_dot,59.15476687789651,
,,,,,,,,,,,,,,,,,,,,,,,,,,,,,,,,,,,,,,,,,,,,,,,,,,,,91.8337945969979,91.8506341070024,91.8506341070024,95.596946605001,space,3.7397405299998354,,,,,,,,,,,,,,,,,,,,,,,sub-116,1,random_dot,59.15476687789651,
,,,,,,,,,,,,,,,,,,,,,,,,,,,,,,,,,,,,,,,,,,,,,,,,,,,,,,,,,,,95.59703874499974,95.60968758099624,95.60968758099624,101.77714258299966,space,6.152558999005123,,,,,,,,,,,,,,,,sub-116,1,random_dot,59.15476687789651,
right,right,0.0,0.0,0.0,right,1.0,1.0845582499969169,,accuracy,space,2.3727782010028022,,,,,,0.0,0.0,0.0,0.0,0.0,0.0,0.0,1.0,104.19908295499772,,,,,,,,,104.18951279099564,104.2995146100002,105.10214563499903,105.08661750699684,105.08714686700114,105.10214563499903,105.10214563499903,105.10214563499903,106.1903140459981,,,,,,,,,,,,,,,,,,,,,,,,101.79807855300167,101.80712913000023,101.80712913000023,104.18463108799916,space,2.3727782010028022,,right,1.0,1.0845582499969169,,,,,sub-116,1,random_dot,59.15476687789651,
left,left,1.0,1.0,0.0,left,1.0,1.889344891002111,,accuracy,space,2.3727782010028022,,,,,,0.0,0.0,0.0,0.0,0.0,1.0,1.0,0.0,106.20417811299558,,,,,,,,,106.19062251799916,106.99052996999671,107.79273318199556,107.77722213500238,107.77771445200052,107.79273318199556,107.79273318199556,107.79273318199556,109.69891983499838,,,,,,,,,,,,,,,,,,,,,,,,,,,,,,,left,1.0,1.889344891002111,,,,,sub-116,1,random_dot,59.15476687789651,
right,right,2.0,0.0,1.0,right,1.0,1.5963635809966945,,accuracy,space,2.3727782010028022,,,,,,0.0,0.0,0.0,0.0,1.0,0.0,2.0,1.0,109.71382928099774,,,,,,,,,109.699275672996,110.04782929299836,110.85092513499694,110.83492003999709,110.83540597699904,110.85092513499694,110.85092513499694,110.85092513499694,112.45640958000148,,,,,,,,,,,,,,,,,,,,,,,,,,,,,,,right,1.0,1.5963635809966945,,,,,sub-116,1,random_dot,59.15476687789651,
left,left,3.0,1.0,1.0,left,1.0,2.2074647629997344,,accuracy,space,2.3727782010028022,,,,,,0.0,0.0,0.0,0.0,1.0,1.0,3.0,0.0,112.47115845100052,,,,,,,,,112.45672696799738,112.57184601500194,113.3738866929998,113.3585515119994,113.35903786499694,113.3738866929998,113.3738866929998,113.3738866929998,115.59762745999616,,,,,,,,,,,,,,,,,,,,,,,,,,,,,,,left,1.0,2.2074647629997344,,,,,sub-116,1,random_dot,59.15476687789651,
left,left,4.0,0.0,2.0,left,1.0,2.6951500039940584,,accuracy,space,2.3727782010028022,,,,,,0.0,0.0,0.0,0.0,2.0,0.0,4.0,0.0,115.61277352499746,,,,,,,,,115.59793195599924,116.79924580499936,117.6014428599956,117.58539748100156,117.58575688600104,117.6014428599956,117.6014428599956,117.6014428599956,120.31015157500224,,,,,,,,,,,,,,,,,,,,,,,,,,,,,,,left,1.0,2.6951500039940584,,,,,sub-116,1,random_dot,59.15476687789651,
right,right,5.0,1.0,2.0,right,1.0,1.404348698000831,,accuracy,space,2.3727782010028022,,,,,,0.0,0.0,0.0,0.0,2.0,1.0,5.0,1.0,120.32541997700172,,,,,,,,,120.31046856600004,121.51321133499732,122.3150103070002,122.2993106119975,122.29978885700255,122.3150103070002,122.3150103070002,122.3150103070002,123.73669365500244,,,,,,,,,,,,,,,,,,,,,,,,,,,,,,,right,1.0,1.404348698000831,,,,,sub-116,1,random_dot,59.15476687789651,
left,left,6.0,0.0,3.0,left,1.0,2.064137724999455,,accuracy,space,2.3727782010028022,,,,,,0.0,0.0,0.0,0.0,3.0,0.0,6.0,0.0,123.7513123050012,,,,,,,,,123.73705006000093,124.08616340700246,124.88864743000158,124.8729082419959,124.873389346998,124.88864743000158,124.88864743000158,124.88864743000158,126.96231556999555,,,,,,,,,,,,,,,,,,,,,,,,,,,,,,,left,1.0,2.064137724999455,,,,,sub-116,1,random_dot,59.15476687789651,
right,right,7.0,1.0,3.0,right,1.0,2.506920086001628,,accuracy,space,2.3727782010028022,,,,,,0.0,0.0,0.0,0.0,3.0,1.0,7.0,1.0,126.97630384299556,,,,,,,,,126.96261401000083,127.76297137000074,128.5653133349988,128.54950776699843,128.54997852499946,128.5653133349988,128.5653133349988,128.5653133349988,131.08919339499698,,,,,,,,,,,,,,,,,,,,,,,,,,,,,,,right,1.0,2.506920086001628,,,,,sub-116,1,random_dot,59.15476687789651,
right,right,8.0,0.0,4.0,right,1.0,5.828863194001315,,accuracy,space,2.3727782010028022,,,,,,0.0,0.0,0.0,0.0,4.0,0.0,8.0,1.0,131.10421916099585,,,,,,,,,131.08955109999806,132.2916683500007,133.0937249849958,133.07859763500164,133.07907798200176,133.0937249849958,133.0937249849958,133.0937249849958,138.92793023800186,,,,,,,,,138.08976626199728,,,,,,,,,,,,,,,,,,,,,,right,1.0,5.828863194001315,,,,,sub-116,1,random_dot,59.15476687789651,
left,left,9.0,1.0,4.0,left,1.0,1.5790158750023693,,accuracy,space,2.3727782010028022,,,,,,0.0,0.0,0.0,0.0,4.0,1.0,9.0,0.0,138.94219993700244,,,,,,,,,138.9284133819965,139.72749652399943,140.53058580499783,140.51472225700127,140.51520671199978,140.53058580499783,140.53058580499783,140.53058580499783,142.118869316997,,,,,,,,,,,,,,,,,,,,,,,,,,,,,,,left,1.0,1.5790158750023693,,,,,sub-116,1,random_dot,59.15476687789651,
left,left,10.0,0.0,5.0,left,1.0,1.488489743001992,,accuracy,space,2.3727782010028022,,,,,,0.0,0.0,0.0,0.0,5.0,0.0,10.0,0.0,142.1333112450011,,,,,,,,,142.11921195300238,142.92019247700227,143.7213371379985,143.7054599069961,143.70583171799808,143.7213371379985,143.7213371379985,143.7213371379985,145.2271323419991,,,,,,,,,,,,,,,,,,,,,,,,,,,,,,,left,1.0,1.488489743001992,,,,,sub-116,1,random_dot,59.15476687789651,
right,right,11.0,1.0,5.0,right,1.0,1.066872234994662,,accuracy,space,2.3727782010028022,,,,,,0.0,0.0,0.0,0.0,5.0,1.0,11.0,1.0,145.24223556499783,,,,,,,,,145.22741746099928,145.34221690199774,146.14431316500122,146.1286478050024,146.12898754300113,146.14431316500122,146.14431316500122,146.14431316500122,147.21565979599836,,,,,,,,,,,,,,,,,,,,,,,,,,,,,,,right,1.0,1.066872234994662,,,,,sub-116,1,random_dot,59.15476687789651,
right,right,12.0,0.0,6.0,right,1.0,1.823972506004793,,accuracy,space,2.3727782010028022,,,,,,0.0,0.0,0.0,0.0,6.0,0.0,12.0,1.0,147.23053561699635,,,,,,,,,147.21598120999988,148.41799011999683,149.21946148700226,149.20332219800184,149.20366781699704,149.21946148700226,149.21946148700226,149.21946148700226,151.05958042499697,,,,,,,,,,,,,,,,,,,,,,,,,,,,,,,right,1.0,1.823972506004793,,,,,sub-116,1,random_dot,59.15476687789651,
left,left,13.0,1.0,6.0,left,1.0,1.330989371999749,,accuracy,space,2.3727782010028022,,,,,,0.0,0.0,0.0,0.0,6.0,1.0,13.0,0.0,151.07414446499752,,,,,,,,,151.05994787999953,151.86012445599772,152.6624898969967,152.64675111499673,152.6472348419993,152.6624898969967,152.6624898969967,152.6624898969967,154.00055844099552,,,,,,,,,,,,,,,,,,,,,,,,,,,,,,,left,1.0,1.330989371999749,,,,,sub-116,1,random_dot,59.15476687789651,
right,right,14.0,0.0,7.0,right,1.0,2.058585728002072,,accuracy,space,2.3727782010028022,,,,,,0.0,0.0,0.0,0.0,7.0,0.0,14.0,1.0,154.015734280998,,,,,,,,,154.00087195699598,154.35052955999709,155.15203995699994,155.13566940199962,155.13601742500032,155.15203995699994,155.15203995699994,155.15203995699994,157.22542503099976,,,,,,,,,,,,,,,,,,,,,,,,,,,,,,,right,1.0,2.058585728002072,,,,,sub-116,1,random_dot,59.15476687789651,
left,left,15.0,1.0,7.0,left,1.0,1.054161601998203,,accuracy,space,2.3727782010028022,,,,,,0.0,0.0,0.0,0.0,7.0,1.0,15.0,0.0,157.24066938099713,,,,,,,,,157.22589511099795,157.3244244449961,158.12634176199936,158.11087922700244,158.1112063670007,158.12634176199936,158.12634176199936,158.12634176199936,159.19790983699932,,,,,,,,,,,,,,,,,,,,,,,,,,,,,,,left,1.0,1.054161601998203,,,,,sub-116,1,random_dot,59.15476687789651,
left,left,16.0,0.0,8.0,left,1.0,0.9163327700007358,,accuracy,space,2.3727782010028022,,,,,,0.0,0.0,0.0,0.0,8.0,0.0,16.0,0.0,159.2123853869998,,,,,,,,,159.19819500599988,160.399154849998,161.2010661749955,161.18618482499733,161.1866760519988,161.2010661749955,161.2010661749955,161.2010661749955,162.12255627800187,,,,,,,,,,,,,,,,,,,,,,,,,,,,,,,left,1.0,0.9163327700007358,,,,,sub-116,1,random_dot,59.15476687789651,
right,right,17.0,1.0,8.0,right,1.0,0.986410972000158,,accuracy,space,2.3727782010028022,,,,,,0.0,0.0,0.0,0.0,8.0,1.0,17.0,1.0,162.13736639499984,,,,,,,,,162.12285696600156,163.3236468729956,164.1263020299957,164.10995266999817,164.11027966099937,164.1263020299957,164.1263020299957,164.1263020299957,165.1302454129982,,,,,,,,,,,,,,,,,,,,,,,,,,,,,,,right,1.0,0.986410972000158,,,,,sub-116,1,random_dot,59.15476687789651,
right,right,18.0,0.0,9.0,right,1.0,1.0454602850004449,,accuracy,space,2.3727782010028022,,,,,,0.0,0.0,0.0,0.0,9.0,0.0,18.0,1.0,165.1450449719996,,,,,,,,,165.13052941299975,165.93181479499617,166.73347625199676,166.7176026599991,166.7180875999984,166.73347625199676,166.73347625199676,166.73347625199676,167.78775132499868,,,,,,,,,,,,,,,,,,,,,,,,,,,,,,,right,1.0,1.0454602850004449,,,,,sub-116,1,random_dot,59.15476687789651,
left,left,19.0,1.0,9.0,left,1.0,1.059964375999698,,accuracy,space,2.3727782010028022,,,,,,0.0,0.0,0.0,0.0,9.0,1.0,19.0,0.0,167.8021366499961,,,,,,,,,167.7880677849971,168.13630051999644,168.93939875999786,168.9237463669997,168.92422131200146,168.93939875999786,168.93939875999786,168.93939875999786,170.0094151309968,,,,,,,,,,,,,,,,,,,,,,,,,,,,,,,left,1.0,1.059964375999698,,,,,sub-116,1,random_dot,59.15476687789651,
left,left,20.0,0.0,10.0,left,1.0,1.1486867960047675,,accuracy,space,2.3727782010028022,,,,,,0.0,0.0,0.0,0.0,10.0,0.0,20.0,0.0,170.02519567700074,,,,,,,,,170.00971865299653,170.81139312199957,171.6135663620007,171.59803558499698,171.59852225500072,171.6135663620007,171.6135663620007,171.6135663620007,172.76716873700207,,,,,,,,,,,,,,,,,,,,,,,,,,,,,,,left,1.0,1.1486867960047675,,,,,sub-116,1,random_dot,59.15476687789651,
right,right,21.0,1.0,10.0,right,1.0,1.6687891309993574,,accuracy,space,2.3727782010028022,,,,,,0.0,0.0,0.0,0.0,10.0,1.0,21.0,1.0,172.7823142510024,,,,,,,,,172.76745398999628,172.88290136100113,173.68423420099862,173.6690498559983,173.66951457600226,173.68423420099862,173.68423420099862,173.68423420099862,175.3578671849973,,,,,,,,,,,,,,,,,,,,,,,,,,,,,,,right,1.0,1.6687891309993574,,,,,sub-116,1,random_dot,59.15476687789651,
left,left,22.0,0.0,11.0,left,1.0,1.021061617997475,,accuracy,space,2.3727782010028022,,,,,,0.0,0.0,0.0,0.0,11.0,0.0,22.0,0.0,175.37240310700145,,,,,,,,,175.35819281500153,176.1588744269975,176.96115068499785,176.94506771500164,176.94554678699933,176.96115068499785,176.96115068499785,176.96115068499785,177.9984168969968,,,,,,,,,,,,,,,,,,,,,,,,,,,,,,,left,1.0,1.021061617997475,,,,,sub-116,1,random_dot,59.15476687789651,
right,right,23.0,1.0,11.0,right,1.0,0.7580295750012738,,accuracy,space,2.3727782010028022,,,,,,0.0,0.0,0.0,0.0,11.0,1.0,23.0,1.0,178.0130149550023,,,,,,,,,177.9987750299988,178.11338897400128,178.91558374500164,178.8999175909994,178.90025384399632,178.91558374500164,178.91558374500164,178.91558374500164,179.68579871099791,,,,,,,,,,,,,,,,,,,,,,,,,,,,,,,right,1.0,0.7580295750012738,,,,,sub-116,1,random_dot,59.15476687789651,
left,left,24.0,0.0,12.0,left,1.0,0.7128572410001652,,accuracy,space,2.3727782010028022,,,,,,0.0,0.0,0.0,0.0,12.0,0.0,24.0,0.0,179.70067117000144,,,,,,,,,179.68615514099656,180.4869386950013,181.28903811000052,181.27316063200124,181.2736389970014,181.28903811000052,181.28903811000052,181.28903811000052,182.008850061,,,,,,,,,,,,,,,,,,,,,,,,,,,,,,,left,1.0,0.7128572410001652,,,,,sub-116,1,random_dot,59.15476687789651,
right,right,25.0,1.0,12.0,right,1.0,0.6014400089989067,,accuracy,space,2.3727782010028022,,,,,,0.0,0.0,0.0,0.0,12.0,1.0,25.0,1.0,182.02349811099705,,,,,,,,,182.0091725800012,182.80998251200072,183.61154683399943,183.5955087639959,183.5958615470008,183.61154683399943,183.61154683399943,183.61154683399943,184.21559813099884,,,,,,,,,,,,,,,,,,,,,,,,,,,,,,,right,1.0,0.6014400089989067,,,,,sub-116,1,random_dot,59.15476687789651,
left,left,26.0,0.0,13.0,left,1.0,0.7414771809999365,,accuracy,space,2.3727782010028022,,,,,,0.0,0.0,0.0,0.0,13.0,0.0,26.0,0.0,184.2293579370016,,,,,,,,,184.21591441000052,184.5644111169968,185.36642892999956,185.3509947950006,185.35151062999648,185.36642892999956,185.36642892999956,185.36642892999956,186.11979787699968,,,,,,,,,,,,,,,,,,,,,,,,,,,,,,,left,1.0,0.7414771809999365,,,,,sub-116,1,random_dot,59.15476687789651,
right,right,27.0,1.0,13.0,right,1.0,1.8119190630022783,,accuracy,space,2.3727782010028022,,,,,,0.0,0.0,0.0,0.0,13.0,1.0,27.0,1.0,186.1350765179959,,,,,,,,,186.12011257700212,186.21862823000265,187.02116785699764,187.005385561999,187.005862951999,187.02116785699764,187.02116785699764,187.02116785699764,188.8437738709981,,,,,,,,,,,,,,,,,,,,,,,,,,,,,,,right,1.0,1.8119190630022783,,,,,sub-116,1,random_dot,59.15476687789651,
left,left,28.0,0.0,14.0,left,1.0,1.1702085479992093,,accuracy,space,2.3727782010028022,,,,,,0.0,0.0,0.0,0.0,14.0,0.0,28.0,0.0,188.85905661700235,,,,,,,,,188.84413014700112,188.95862471000143,189.76169624699835,189.74622177000128,189.746708284998,189.76169624699835,189.76169624699835,189.76169624699835,190.94973703000144,,,,,,,,,,,,,,,,,,,,,,,,,,,,,,,left,1.0,1.1702085479992093,,,,,sub-116,1,random_dot,59.15476687789651,
right,right,29.0,1.0,14.0,right,1.0,1.5223051749999286,,accuracy,space,2.3727782010028022,,,,,,0.0,0.0,0.0,0.0,14.0,1.0,29.0,1.0,190.96409467299964,,,,,,,,,190.9501034269997,191.75008859700029,192.55286946200067,192.5364170920002,192.53688797699576,192.55286946200067,192.55286946200067,192.55286946200067,194.0908604180004,,,,,,,,,,,,,,,,,,,,,,,,,,,,,,,right,1.0,1.5223051749999286,,,,,sub-116,1,random_dot,59.15476687789651,
left,left,30.0,0.0,15.0,left,1.0,3.4519679629956954,,accuracy,space,2.3727782010028022,,,,,,0.0,0.0,0.0,0.0,15.0,0.0,30.0,0.0,194.10578254100253,,,,,,,,,194.09114589999808,195.29304001700075,196.0952469620024,196.0794290920021,196.0799206770025,196.0952469620024,196.0952469620024,196.0952469620024,199.55550551600027,,,,,,,,,,,,,,,,,,,,,,,,,,,,,,,left,1.0,3.4519679629956954,,,,,sub-116,1,random_dot,59.15476687789651,
right,right,31.0,1.0,15.0,right,1.0,0.9025529720020132,,accuracy,space,2.3727782010028022,,,,,,0.0,0.0,0.0,0.0,15.0,1.0,31.0,1.0,199.5709650650024,,,,,,,,,199.55578811300077,200.7580498870011,201.5599876999986,201.54407014699973,201.54455422700264,201.5599876999986,201.5599876999986,201.5599876999986,202.4802327799989,,,,,,,,,,,,,,,,,,,,,,,,,,,,,,,right,1.0,0.9025529720020132,,,,,sub-116,1,random_dot,59.15476687789651,
right,right,32.0,0.0,16.0,right,1.0,0.8297090499982005,,accuracy,space,2.3727782010028022,,,,,,0.0,0.0,0.0,0.0,16.0,0.0,32.0,1.0,202.49477352399845,,,,,,,,,202.48059170699707,202.83032944500155,203.63252905199624,203.61631998999653,203.6168004669962,203.63252905199624,203.63252905199624,203.63252905199624,204.47040937699785,,,,,,,,,,,,,,,,,,,,,,,,,,,,,,,right,1.0,0.8297090499982005,,,,,sub-116,1,random_dot,59.15476687789651,
left,left,33.0,1.0,16.0,left,1.0,1.5273799420028809,,accuracy,space,2.3727782010028022,,,,,,0.0,0.0,0.0,0.0,16.0,1.0,33.0,0.0,204.48346019999732,,,,,,,,,204.4707693370001,205.2702261070008,206.0715208879992,206.05503338699785,206.05537765700137,206.0715208879992,206.0715208879992,206.0715208879992,207.6100887979992,,,,,,,,,,,,,,,,,,,,,,,,,,,,,,,left,1.0,1.5273799420028809,,,,,sub-116,1,random_dot,59.15476687789651,
right,right,34.0,0.0,17.0,right,1.0,2.3084068770040176,,accuracy,space,2.3727782010028022,,,,,,0.0,0.0,0.0,0.0,17.0,0.0,34.0,1.0,207.62515454099776,,,,,,,,,207.61039438300213,207.7098982699972,208.51077253500264,208.49578901499623,208.4962716800001,208.51077253500264,208.51077253500264,208.51077253500264,210.8352087309977,,,,,,,,,,,,,,,,,,,,,,,,,,,,,,,right,1.0,2.3084068770040176,,,,,sub-116,1,random_dot,59.15476687789651,
left,left,35.0,1.0,17.0,left,1.0,3.2240985900061787,,accuracy,space,2.3727782010028022,,,,,,0.0,0.0,0.0,0.0,17.0,1.0,35.0,0.0,210.85060841799717,,,,,,,,,210.83552935699845,211.6366171519985,212.4381808199978,212.4222197179988,212.42256656599784,212.4381808199978,212.4381808199978,212.4381808199978,215.6659428669955,,,,,,,,,,,,,,,,,,,,,,,,,,,,,,,left,1.0,3.2240985900061787,,,,,sub-116,1,random_dot,59.15476687789651,
right,right,36.0,0.0,18.0,right,1.0,2.541521464998368,,accuracy,space,2.3727782010028022,,,,,,0.0,0.0,0.0,0.0,18.0,0.0,36.0,1.0,215.6802889009996,,,,,,,,,215.66624635199696,216.86776320699573,217.66968284700124,217.6540486899976,217.65453037199768,217.66968284700124,217.66968284700124,217.66968284700124,220.2283736070021,,,,,,,,,,,,,,,,,,,,,,,,,,,,,,,right,1.0,2.541521464998368,,,,,sub-116,1,random_dot,59.15476687789651,
left,left,37.0,1.0,18.0,left,1.0,1.9127057279984,,accuracy,space,2.3727782010028022,,,,,,0.0,0.0,0.0,0.0,18.0,1.0,37.0,0.0,220.2425177059995,,,,,,,,,220.2289135719984,221.02810976299952,221.82986029199677,221.81382612499877,221.8141784479958,221.82986029199677,221.82986029199677,221.82986029199677,223.75313096599712,,,,,,,,,,,,,,,,,,,,,,,,,,,,,,,left,1.0,1.9127057279984,,,,,sub-116,1,random_dot,59.15476687789651,
right,right,38.0,0.0,19.0,right,1.0,1.8390527249939623,,accuracy,space,2.3727782010028022,,,,,,0.0,0.0,0.0,0.0,19.0,0.0,38.0,1.0,223.76889787899563,,,,,,,,,223.75362334599777,223.8687720769958,224.6711007630001,224.6547982199991,224.65514404099667,224.6711007630001,224.6711007630001,224.6711007630001,226.52844870099943,,,,,,,,,,,,,,,,,,,,,,,,,,,,,,,right,1.0,1.8390527249939623,,,,,sub-116,1,random_dot,59.15476687789651,
left,left,39.0,1.0,19.0,right,0.0,3.677372890997504,,accuracy,space,2.3727782010028022,,,,,,0.0,0.0,0.0,0.0,19.0,1.0,39.0,0.0,226.54309145799925,,,,,,,,,226.52881761299795,227.32777972199983,228.1301727579994,228.11407138699724,228.1144073519972,228.1301727579994,228.1301727579994,228.1301727579994,231.82437951099564,,,,,,,,,,,,,,,,,,,,,,,,,,,,,,,right,0.0,3.677372890997504,,,,,sub-116,1,random_dot,59.15476687789651,
left,left,40.0,0.0,20.0,left,1.0,2.1191152170067653,,accuracy,space,2.3727782010028022,,,,,,0.0,0.0,0.0,0.0,20.0,0.0,40.0,0.0,231.84044266399724,,,,,,,,,231.82474406500117,232.1740784349968,232.9767950940004,232.96064522300003,232.96099714100276,232.9767950940004,232.9767950940004,232.9767950940004,235.1008565200027,,,,,,,,,,,,,,,,,,,,,,,,,,,,,,,left,1.0,2.1191152170067653,,,,,sub-116,1,random_dot,59.15476687789651,
right,right,41.0,1.0,20.0,right,1.0,1.981803909999144,,accuracy,space,2.3727782010028022,,,,,,0.0,0.0,0.0,0.0,20.0,1.0,41.0,1.0,235.11475687799972,,,,,,,,,235.10125484700256,236.30264329999773,237.10491313500097,237.08933049500047,237.08981807500092,237.10491313500097,237.10491313500097,237.10491313500097,239.09439521499732,,,,,,,,,,,,,,,,,,,,,,,,,,,,,,,right,1.0,1.981803909999144,,,,,sub-116,1,random_dot,59.15476687789651,
left,left,42.0,0.0,21.0,left,1.0,1.186269268997421,,accuracy,space,2.3727782010028022,,,,,,0.0,0.0,0.0,0.0,21.0,0.0,42.0,0.0,239.1096658769966,,,,,,,,,239.09469775499747,239.2099673039993,240.01250605699897,239.997019026996,239.99750238200068,240.01250605699897,240.01250605699897,240.01250605699897,241.2011912579983,,,,,,,,,,,,,,,,,,,,,,,,,,,,,,,left,1.0,1.186269268997421,,,,,sub-116,1,random_dot,59.15476687789651,
right,right,43.0,1.0,21.0,right,1.0,1.4218395360003342,,accuracy,space,2.3727782010028022,,,,,,0.0,0.0,0.0,0.0,21.0,1.0,43.0,1.0,241.21474649499575,,,,,,,,,241.20150638499763,242.4025209600004,243.20427051700244,243.18858902699867,243.18906938200237,243.20427051700244,243.20427051700244,243.20427051700244,244.64280226799747,,,,,,,,,,,,,,,,,,,,,,,,,,,,,,,right,1.0,1.4218395360003342,,,,,sub-116,1,random_dot,59.15476687789651,
left,left,44.0,0.0,22.0,left,1.0,2.642077012998925,,accuracy,space,2.3727782010028022,,,,,,0.0,0.0,0.0,0.0,22.0,0.0,44.0,0.0,244.6573723100009,,,,,,,,,244.64316854000208,245.00880447999955,245.81142160500167,245.79568912200196,245.79617380000127,245.81142160500167,245.81142160500167,245.81142160500167,248.46884477999996,,,,,,,,,,,,,,,,,,,,,,,,,,,,,,,left,1.0,2.642077012998925,,,,,sub-116,1,random_dot,59.15476687789651,
right,right,45.0,1.0,22.0,right,1.0,0.9765105360056624,,accuracy,space,2.3727782010028022,,,,,,0.0,0.0,0.0,0.0,22.0,1.0,45.0,1.0,248.4842980350004,,,,,,,,,248.4691639329976,248.5685754570004,249.3707536669972,249.35499172999695,249.3554718000014,249.3707536669972,249.3707536669972,249.3707536669972,250.3583442899981,,,,,,,,,,,,,,,,,,,,,,,,,,,,,,,right,1.0,0.9765105360056624,,,,,sub-116,1,random_dot,59.15476687789651,
right,right,46.0,0.0,23.0,right,1.0,1.1745333119979475,,accuracy,space,2.3727782010028022,,,,,,0.0,0.0,0.0,0.0,23.0,0.0,46.0,1.0,250.3731050049973,,,,,,,,,250.3586762760024,250.723602895996,251.52636531499596,251.509936825998,251.510275683002,251.52636531499596,251.52636531499596,251.52636531499596,252.71405259099996,,,,,,,,,,,,,,,,,,,,,,,,,,,,,,,right,1.0,1.1745333119979475,,,,,sub-116,1,random_dot,59.15476687789651,
left,left,47.0,1.0,23.0,left,1.0,1.1553563449997457,,accuracy,space,2.3727782010028022,,,,,,0.0,0.0,0.0,0.0,23.0,1.0,47.0,0.0,252.72905529499985,,,,,,,,,252.71433963599705,252.83001190100185,253.6313830869985,253.6155237880012,253.61587757300003,253.6313830869985,253.6313830869985,253.6313830869985,254.8036714810005,,,,,,,,,,,,,,,,,,,,,,,,,,,,,,,left,1.0,1.1553563449997457,,,,,sub-116,1,random_dot,59.15476687789651,
left,left,48.0,0.0,24.0,left,1.0,0.9809516759996768,,accuracy,space,2.3727782010028022,,,,,,0.0,0.0,0.0,0.0,24.0,0.0,48.0,0.0,254.8178123170001,,,,,,,,,254.80402461299676,255.15305203999745,255.9552320770017,255.9393201769999,255.93980575000023,255.9552320770017,255.9552320770017,255.9552320770017,256.94205394099845,,,,,,,,,,,,,,,,,,,,,,,,,,,,,,,left,1.0,0.9809516759996768,,,,,sub-116,1,random_dot,59.15476687789651,
right,right,49.0,1.0,24.0,right,1.0,0.983756916000857,,accuracy,space,2.3727782010028022,,,,,,0.0,0.0,0.0,0.0,24.0,1.0,49.0,1.0,256.9570863379995,,,,,,,,,256.94233669799723,257.7435830999966,258.5445471310013,258.5293969119957,258.5297856300021,258.5445471310013,258.5445471310013,258.5445471310013,259.5327081869982,,,,,,,,,,,,,,,,,,,,,,,,,,,,,,,right,1.0,0.983756916000857,,,,,sub-116,1,random_dot,59.15476687789651,
left,left,50.0,0.0,25.0,left,1.0,1.2435689070043736,,accuracy,space,2.3727782010028022,,,,,,0.0,0.0,0.0,0.0,25.0,0.0,50.0,0.0,259.5478193910021,,,,,,,,,259.5330130250004,259.8981622899955,260.7012983320019,260.6852022870007,260.6856921869985,260.7012983320019,260.7012983320019,260.7012983320019,261.9551186309982,,,,,,,,,,,,,,,,,,,,,,,,,,,,,,,left,1.0,1.2435689070043736,,,,,sub-116,1,random_dot,59.15476687789651,
right,right,51.0,1.0,25.0,right,1.0,0.9158281499985604,,accuracy,space,2.3727782010028022,,,,,,0.0,0.0,0.0,0.0,25.0,1.0,51.0,1.0,261.9703187699997,,,,,,,,,261.9554722480025,262.75593099199614,263.5584570880019,263.5421985569992,263.54253634499764,263.5584570880019,263.5584570880019,263.5584570880019,264.4792848709985,,,,,,,,,,,,,,,,,,,,,,,,,,,,,,,right,1.0,0.9158281499985604,,,,,sub-116,1,random_dot,59.15476687789651,
right,right,52.0,0.0,26.0,right,1.0,0.8481608260044595,,accuracy,space,2.3727782010028022,,,,,,0.0,0.0,0.0,0.0,26.0,0.0,52.0,1.0,264.4940563549972,,,,,,,,,264.4795674880006,265.681012205001,266.48326054000063,266.4673670350021,266.467849642002,266.48326054000063,266.48326054000063,266.48326054000063,267.3366315559979,,,,,,,,,,,,,,,,,,,,,,,,,,,,,,,right,1.0,0.8481608260044595,,,,,sub-116,1,random_dot,59.15476687789651,
left,left,53.0,1.0,26.0,left,1.0,0.7681850869994378,,accuracy,space,2.3727782010028022,,,,,,0.0,0.0,0.0,0.0,26.0,1.0,53.0,0.0,267.3526361549957,,,,,,,,,267.3369350899957,268.5383878599969,269.3414547150023,269.3255385820012,269.3260219149961,269.3414547150023,269.3414547150023,269.3414547150023,270.12712807299977,,,,,,,,,,,,,,,,,,,,,,,,,,,,,,,left,1.0,0.7681850869994378,,,,,sub-116,1,random_dot,59.15476687789651,
left,left,54.0,0.0,27.0,left,1.0,2.4391343649986084,,accuracy,space,2.3727782010028022,,,,,,0.0,0.0,0.0,0.0,27.0,0.0,54.0,0.0,270.14221464,,,,,,,,,270.1274893399968,270.4775856319975,271.2795644200014,271.2638297399972,271.264310327002,271.2795644200014,271.2795644200014,271.2795644200014,273.7210164459975,,,,,,,,,,,,,,,,,,,,,,,,,,,,,,,left,1.0,2.4391343649986084,,,,,sub-116,1,random_dot,59.15476687789651,
right,right,55.0,1.0,27.0,right,1.0,1.5868409239992616,,accuracy,space,2.3727782010028022,,,,,,0.0,0.0,0.0,0.0,27.0,1.0,55.0,1.0,273.73498681800265,,,,,,,,,273.7214782449955,274.5216526369986,275.32278930699977,275.3070058259982,275.30734996499814,275.32278930699977,275.32278930699977,275.32278930699977,276.9147820149956,,,,,,,,,,,,,,,,,,,,,,,,,,,,,,,right,1.0,1.5868409239992616,,,,,sub-116,1,random_dot,59.15476687789651,
left,left,56.0,0.0,28.0,left,1.0,1.1504993149937943,,accuracy,space,2.3727782010028022,,,,,,0.0,0.0,0.0,0.0,28.0,0.0,56.0,0.0,276.92699362499843,,,,,,,,,276.9151631170025,277.02726808100124,277.83037187699665,277.81480888999795,277.8152928470008,277.83037187699665,277.83037187699665,277.83037187699665,278.98485619099665,,,,,,,,,,,,,,,,,,,,,,,,,,,,,,,left,1.0,1.1504993149937943,,,,,sub-116,1,random_dot,59.15476687789651,
right,right,57.0,1.0,28.0,right,1.0,2.2287484379994567,,accuracy,space,2.3727782010028022,,,,,,0.0,0.0,0.0,0.0,28.0,1.0,57.0,1.0,278.9993065509989,,,,,,,,,278.9851789530003,279.78511117000016,280.5879684469983,280.5720308949967,280.5725084570004,280.5879684469983,280.5879684469983,280.5879684469983,282.82760076999693,,,,,,,,,,,,,,,,,,,,,,,,,,,,,,,right,1.0,2.2287484379994567,,,,,sub-116,1,random_dot,59.15476687789651,
left,left,58.0,0.0,29.0,left,1.0,0.7927747330031707,,accuracy,space,2.3727782010028022,,,,,,0.0,0.0,0.0,0.0,29.0,0.0,58.0,0.0,282.8431206009991,,,,,,,,,282.8279487559994,284.02994786999625,284.8319765069973,284.8167248969985,284.81721014499635,284.8319765069973,284.8319765069973,284.8319765069973,285.6355201549959,,,,,,,,,,,,,,,,,,,,,,,,,,,,,,,left,1.0,0.7927747330031707,,,,,sub-116,1,random_dot,59.15476687789651,
right,right,59.0,1.0,29.0,right,1.0,5.185757636994822,,accuracy,space,2.3727782010028022,,,,,,0.0,0.0,0.0,0.0,29.0,1.0,59.0,1.0,285.6501897049966,,,,,,,,,285.6358715269962,285.75093741100136,286.55397791,286.53797487200063,286.53845366199675,286.55397791,286.55397791,286.55397791,291.7520603169978,,,,,,,,,291.55009235000034,,,,,,,,,,,,,,,,,,,,,,right,1.0,5.185757636994822,,,,,sub-116,1,random_dot,59.15476687789651,
,,0.0,0.0,0.0,,,,,accuracy,space,2.3727782010028022,,,,,,0.0,0.0,0.0,0.0,,,,,,,,,,,,,,,,,,,,,,,,,,,,,,,,,,,,,,,,,,,,,,,,,,,,,,,,,,,,sub-116,1,random_dot,59.15476687789651,
left,left,0.0,0.0,0.0,right,0.0,0.3533486969972728,,speed,space,3.0058790569964917,,,,,,0.0,1.0,1.0,1.0,0.0,0.0,0.0,0.0,294.80779565800185,,,,,,,,,294.79863810799725,295.9954821049978,296.797244166999,296.7808526259978,296.7811966779991,296.797244166999,296.797244166999,296.797244166999,297.1664131899961,,,,,,,,,,,,,,,,,,,,,,,,291.76380229299684,291.77221722299873,291.77221722299873,294.79346621999866,space,3.0058790569964917,,right,0.0,0.3533486969972728,,,,,sub-116,1,random_dot,59.15476687789651,
right,right,1.0,1.0,0.0,right,1.0,0.501704806003545,,speed,space,3.0058790569964917,,,,,,0.0,1.0,1.0,1.0,0.0,1.0,1.0,1.0,297.181510360002,,,,,,,,,297.1666967479978,298.3676708799976,299.17085534700163,299.1547718899965,299.1552602599986,299.17085534700163,299.17085534700163,299.17085534700163,299.68923094600177,,,,,,,,,,,,,,,,,,,,,,,,,,,,,,,right,1.0,0.501704806003545,,,,,sub-116,1,random_dot,59.15476687789651,
left,left,2.0,0.0,1.0,left,1.0,0.5679978789994493,,speed,space,3.0058790569964917,,,,,,0.0,1.0,1.0,1.0,1.0,0.0,2.0,0.0,299.7043580929967,,,,,,,,,299.68953335999686,300.89225866700144,301.69422241999564,301.678297116996,301.6787788149959,301.69422241999564,301.69422241999564,301.69422241999564,302.27909768000245,,,,,,,,,,,,,,,,,,,,,,,,,,,,,,,left,1.0,0.5679978789994493,,,,,sub-116,1,random_dot,59.15476687789651,
right,right,3.0,1.0,1.0,right,1.0,0.6594818459998351,,speed,space,3.0058790569964917,,,,,,0.0,1.0,1.0,1.0,1.0,1.0,3.0,1.0,302.2946868099971,,,,,,,,,302.2794525329955,303.08037589200103,303.88214483000047,303.86679713299964,303.8671301649956,303.88214483000047,303.88214483000047,303.88214483000047,304.5516402409994,,,,,,,,,,,,,,,,,,,,,,,,,,,,,,,right,1.0,0.6594818459998351,,,,,sub-116,1,random_dot,59.15476687789651,
right,right,4.0,0.0,2.0,right,1.0,0.5816860799968708,,speed,space,3.0058790569964917,,,,,,0.0,1.0,1.0,1.0,2.0,0.0,4.0,1.0,304.5675431790005,,,,,,,,,304.55194984199625,304.9024909599975,305.7046538470022,305.68881866699667,305.6892976969975,305.7046538470022,305.7046538470022,305.7046538470022,306.2910163359993,,,,,,,,,,,,,,,,,,,,,,,,,,,,,,,right,1.0,0.5816860799968708,,,,,sub-116,1,random_dot,59.15476687789651,
left,left,5.0,1.0,2.0,right,0.0,0.5853750469977967,,speed,space,3.0058790569964917,,,,,,0.0,1.0,1.0,1.0,2.0,1.0,5.0,0.0,306.3052741499996,,,,,,,,,306.29133210500004,306.4061811499996,307.2078349099975,307.1922741570015,307.1926002499968,307.2078349099975,307.2078349099975,307.2078349099975,307.7959796849973,,,,,,,,,,,,,,,,,,,,,,,,,,,,,,,right,0.0,0.5853750469977967,,,,,sub-116,1,random_dot,59.15476687789651,
left,left,6.0,0.0,3.0,left,1.0,0.6323173760029022,,speed,space,3.0058790569964917,,,,,,0.0,1.0,1.0,1.0,3.0,0.0,6.0,0.0,307.80940702099906,,,,,,,,,307.79629538099834,308.59566449999693,309.3981790300022,309.38242770199577,309.38291514199955,309.3981790300022,309.3981790300022,309.3981790300022,310.0345702609993,,,,,,,,,,,,,,,,,,,,,,,,,,,,,,,left,1.0,0.6323173760029022,,,,,sub-116,1,random_dot,59.15476687789651,
right,right,7.0,1.0,3.0,right,1.0,0.8598573349954677,,speed,space,3.0058790569964917,,,,,,0.0,1.0,1.0,1.0,3.0,1.0,7.0,1.0,310.0487371819981,,,,,,,,,310.0348825170004,310.83531540499825,311.63732385200274,311.621665214996,311.6221421549999,311.63732385200274,311.63732385200274,311.63732385200274,312.5065175970012,,,,,,,,,,,,,,,,,,,,,,,,,,,,,,,right,1.0,0.8598573349954677,,,,,sub-116,1,random_dot,59.15476687789651,
right,right,8.0,0.0,4.0,right,1.0,0.6573100599998725,,speed,space,3.0058790569964917,,,,,,0.0,1.0,1.0,1.0,4.0,0.0,8.0,1.0,312.5221229769959,,,,,,,,,312.5067989169984,313.3082127300004,314.110647786998,314.0949043119981,314.09542129500187,314.110647786998,314.110647786998,314.110647786998,314.78037372999825,,,,,,,,,,,,,,,,,,,,,,,,,,,,,,,right,1.0,0.6573100599998725,,,,,sub-116,1,random_dot,59.15476687789651,
left,left,9.0,1.0,4.0,right,0.0,1.2542326770053478,,speed,space,3.0058790569964917,,,,,,0.0,1.0,1.0,1.0,4.0,1.0,9.0,0.0,314.7947802510025,,,,,,,,,314.78072789999715,315.1458093830006,315.9483503340016,315.932298380998,315.9326388670015,315.9483503340016,315.9483503340016,315.9483503340016,317.2193339009973,,,,,,,,,,,,,,,,,,,,,,,,,,,,,,,right,0.0,1.2542326770053478,,,,,sub-116,1,random_dot,59.15476687789651,
left,left,10.0,0.0,5.0,left,1.0,1.0213536800001748,,speed,space,3.0058790569964917,,,,,,0.0,1.0,1.0,1.0,5.0,0.0,10.0,0.0,317.2352800899971,,,,,,,,,317.2196316670015,318.0209685849986,318.821642830997,318.8065900770016,318.80694795699674,318.821642830997,318.821642830997,318.821642830997,319.8605910309998,,,,,,,,,,,,,,,,,,,,,,,,,,,,,,,left,1.0,1.0213536800001748,,,,,sub-116,1,random_dot,59.15476687789651,
right,right,11.0,1.0,5.0,right,1.0,1.4037383409959148,,speed,space,3.0058790569964917,,,,,,0.0,1.0,1.0,1.0,5.0,1.0,11.0,1.0,319.8748556319988,,,,,,,,,319.86092470600124,320.66166588699707,321.46366277700145,321.4474140070015,321.4478933770006,321.46366277700145,321.46366277700145,321.46366277700145,322.8842734369973,,,,,,,,,,,,,,,,,,,,,,,,,,,,,,,right,1.0,1.4037383409959148,,,,,sub-116,1,random_dot,59.15476687789651,
left,left,12.0,0.0,6.0,left,1.0,0.9024246429980848,,speed,space,3.0058790569964917,,,,,,0.0,1.0,1.0,1.0,6.0,0.0,12.0,0.0,322.9003715669969,,,,,,,,,322.8846439810004,323.2351542050019,324.0370596569992,324.02136589199654,324.02184616500017,324.0370596569992,324.0370596569992,324.0370596569992,324.95738769500167,,,,,,,,,,,,,,,,,,,,,,,,,,,,,,,left,1.0,0.9024246429980848,,,,,sub-116,1,random_dot,59.15476687789651,
right,right,13.0,1.0,6.0,right,1.0,0.803273558994988,,speed,space,3.0058790569964917,,,,,,0.0,1.0,1.0,1.0,6.0,1.0,13.0,1.0,324.97189570000046,,,,,,,,,324.9577336000002,325.0728033799969,325.8755428219956,325.85956178999913,325.8600446950004,325.8755428219956,325.8755428219956,325.8755428219956,326.6949231079998,,,,,,,,,,,,,,,,,,,,,,,,,,,,,,,right,1.0,0.803273558994988,,,,,sub-116,1,random_dot,59.15476687789651,
left,left,14.0,0.0,7.0,left,1.0,0.6256803549986216,,speed,space,3.0058790569964917,,,,,,0.0,1.0,1.0,1.0,7.0,0.0,14.0,0.0,326.7101768970024,,,,,,,,,326.6952324160011,327.0449345219968,327.84710174200154,327.8315419169958,327.8320252549965,327.84710174200154,327.84710174200154,327.84710174200154,328.48329076299706,,,,,,,,,,,,,,,,,,,,,,,,,,,,,,,left,1.0,0.6256803549986216,,,,,sub-116,1,random_dot,59.15476687789651,
right,right,15.0,1.0,7.0,left,0.0,0.6097436530035338,,speed,space,3.0058790569964917,,,,,,0.0,1.0,1.0,1.0,7.0,1.0,15.0,1.0,328.498365225998,,,,,,,,,328.4835837560022,329.28359505700064,330.0865422499992,330.0708152869993,330.07129881499714,330.0865422499992,330.0865422499992,330.0865422499992,330.70596215299884,,,,,,,,,,,,,,,,,,,,,,,,,,,,,,,left,0.0,0.6097436530035338,,,,,sub-116,1,random_dot,59.15476687789651,
right,right,16.0,0.0,8.0,right,1.0,0.6368050480014062,,speed,space,3.0058790569964917,,,,,,0.0,1.0,1.0,1.0,8.0,0.0,16.0,1.0,330.7208139249997,,,,,,,,,330.7063228650004,331.05546705999586,331.85699847700016,331.841557644002,331.8419111030016,331.85699847700016,331.85699847700016,331.85699847700016,332.51070418200106,,,,,,,,,,,,,,,,,,,,,,,,,,,,,,,right,1.0,0.6368050480014062,,,,,sub-116,1,random_dot,59.15476687789651,
left,left,17.0,1.0,8.0,left,1.0,1.330006305004645,,speed,space,3.0058790569964917,,,,,,0.0,1.0,1.0,1.0,8.0,1.0,17.0,0.0,332.52547633500217,,,,,,,,,332.5109821399965,333.31147585000144,334.1141352850027,334.09814411700063,334.09863364199555,334.1141352850027,334.1141352850027,334.1141352850027,335.4519806199969,,,,,,,,,,,,,,,,,,,,,,,,,,,,,,,left,1.0,1.330006305004645,,,,,sub-116,1,random_dot,59.15476687789651,
left,left,18.0,0.0,9.0,left,1.0,0.7239658940015943,,speed,space,3.0058790569964917,,,,,,0.0,1.0,1.0,1.0,9.0,0.0,18.0,0.0,335.4666433149978,,,,,,,,,335.4522615879978,336.25340040699666,337.0553773069987,337.03941825999937,337.03990085700207,337.0553773069987,337.0553773069987,337.0553773069987,337.7913209269973,,,,,,,,,,,,,,,,,,,,,,,,,,,,,,,left,1.0,0.7239658940015943,,,,,sub-116,1,random_dot,59.15476687789651,
right,right,19.0,1.0,9.0,left,0.0,1.1258908429954315,,speed,space,3.0058790569964917,,,,,,0.0,1.0,1.0,1.0,9.0,1.0,19.0,1.0,337.80606088700006,,,,,,,,,337.7916711549988,338.1575652600004,338.9604625319989,338.9442062369999,338.9446849070009,338.9604625319989,338.9604625319989,338.9604625319989,340.0974092979959,,,,,,,,,,,,,,,,,,,,,,,,,,,,,,,left,0.0,1.1258908429954315,,,,,sub-116,1,random_dot,59.15476687789651,
left,left,20.0,0.0,10.0,left,1.0,1.0263398500028416,,speed,space,3.0058790569964917,,,,,,0.0,1.0,1.0,1.0,10.0,0.0,20.0,0.0,340.1129708649969,,,,,,,,,340.0977244079986,340.8985845970019,341.6999221869992,341.6837425749982,341.68402391299605,341.6999221869992,341.6999221869992,341.6999221869992,342.73763317499834,,,,,,,,,,,,,,,,,,,,,,,,,,,,,,,left,1.0,1.0263398500028416,,,,,sub-116,1,random_dot,59.15476687789651,
right,right,21.0,1.0,10.0,right,1.0,0.8194061179965502,,speed,space,3.0058790569964917,,,,,,0.0,1.0,1.0,1.0,10.0,1.0,21.0,1.0,342.7525991229995,,,,,,,,,342.7379290800018,343.0882533069962,343.8900278419969,343.8744259149971,343.87490827500005,343.8900278419969,343.8900278419969,343.8900278419969,344.7260379149957,,,,,,,,,,,,,,,,,,,,,,,,,,,,,,,right,1.0,0.8194061179965502,,,,,sub-116,1,random_dot,59.15476687789651,
right,right,22.0,0.0,11.0,right,1.0,0.4699717389958096,,speed,space,3.0058790569964917,,,,,,0.0,1.0,1.0,1.0,11.0,0.0,22.0,1.0,344.7417646940012,,,,,,,,,344.7263360020006,345.076682425999,345.87787574499816,345.86165283699665,345.86197778499627,345.87787574499816,345.87787574499816,345.87787574499816,346.36399063099816,,,,,,,,,,,,,,,,,,,,,,,,,,,,,,,right,1.0,0.4699717389958096,,,,,sub-116,1,random_dot,59.15476687789651,
left,left,23.0,1.0,11.0,right,0.0,0.5518793610026478,,speed,space,3.0058790569964917,,,,,,0.0,1.0,1.0,1.0,11.0,1.0,23.0,0.0,346.379185591999,,,,,,,,,346.3642738510025,346.46322884700203,347.2657060749989,347.25014656200074,347.2506530669998,347.2657060749989,347.2657060749989,347.2657060749989,347.8352459000016,,,,,,,,,,,,,,,,,,,,,,,,,,,,,,,right,0.0,0.5518793610026478,,,,,sub-116,1,random_dot,59.15476687789651,
right,right,24.0,0.0,12.0,right,1.0,0.4844490999967092,,speed,space,3.0058790569964917,,,,,,0.0,1.0,1.0,1.0,12.0,0.0,24.0,1.0,347.84962474799977,,,,,,,,,347.8355972509962,347.9502958719968,348.7532144020006,348.7374759469967,348.7379676549972,348.7532144020006,348.7532144020006,348.7532144020006,349.2544683369997,,,,,,,,,,,,,,,,,,,,,,,,,,,,,,,right,1.0,0.4844490999967092,,,,,sub-116,1,random_dot,59.15476687789651,
left,left,25.0,1.0,12.0,left,1.0,0.6877691589979804,,speed,space,3.0058790569964917,,,,,,0.0,1.0,1.0,1.0,12.0,1.0,25.0,0.0,349.2704070129985,,,,,,,,,349.25486646100035,350.45774469000025,351.25968353699864,351.2440446319961,351.24453122699924,351.25968353699864,351.25968353699864,351.25968353699864,351.96201941999607,,,,,,,,,,,,,,,,,,,,,,,,,,,,,,,left,1.0,0.6877691589979804,,,,,sub-116,1,random_dot,59.15476687789651,
left,left,26.0,0.0,13.0,left,1.0,0.4206087780039524,,speed,space,3.0058790569964917,,,,,,0.0,1.0,1.0,1.0,13.0,0.0,26.0,0.0,351.97791357799724,,,,,,,,,351.96236742100155,352.7636785020004,353.5653647750005,353.54893913200067,353.5493062949972,353.5653647750005,353.5653647750005,353.5653647750005,354.001787109999,,,,,,,,,,,,,,,,,,,,,,,,,,,,,,,left,1.0,0.4206087780039524,,,,,sub-116,1,random_dot,59.15476687789651,
right,right,27.0,1.0,13.0,right,1.0,0.474834013999498,,speed,space,3.0058790569964917,,,,,,0.0,1.0,1.0,1.0,13.0,1.0,27.0,1.0,354.0159739180017,,,,,,,,,354.0021187750026,354.1164082920004,354.9193215720006,354.9037403499969,354.9042248170008,354.9193215720006,354.9193215720006,354.9193215720006,355.40455728000234,,,,,,,,,,,,,,,,,,,,,,,,,,,,,,,right,1.0,0.474834013999498,,,,,sub-116,1,random_dot,59.15476687789651,
left,left,28.0,0.0,14.0,left,1.0,0.7192046729978756,,speed,space,3.0058790569964917,,,,,,0.0,1.0,1.0,1.0,14.0,0.0,28.0,0.0,355.4205459549994,,,,,,,,,355.40491087499686,355.50344315999973,356.30617870499555,356.2893935009997,356.28973780600063,356.30617870499555,356.30617870499555,356.30617870499555,357.0429244709958,,,,,,,,,,,,,,,,,,,,,,,,,,,,,,,left,1.0,0.7192046729978756,,,,,sub-116,1,random_dot,59.15476687789651,
right,right,29.0,1.0,14.0,right,1.0,1.0534503500020946,,speed,space,3.0058790569964917,,,,,,0.0,1.0,1.0,1.0,14.0,1.0,29.0,1.0,357.0576972199997,,,,,,,,,357.043220517,357.15789299800235,357.9608492769985,357.9449616599959,357.9454431949998,357.9608492769985,357.9608492769985,357.9608492769985,359.0318126400016,,,,,,,,,,,,,,,,,,,,,,,,,,,,,,,right,1.0,1.0534503500020946,,,,,sub-116,1,random_dot,59.15476687789651,
right,right,30.0,0.0,15.0,right,1.0,0.9703710070025408,,speed,space,3.0058790569964917,,,,,,0.0,1.0,1.0,1.0,15.0,0.0,30.0,1.0,359.04611619599746,,,,,,,,,359.03217292299814,359.38059025300026,360.1833710400024,360.1671185829982,360.1674798449967,360.1833710400024,360.1833710400024,360.1833710400024,361.1562900400022,,,,,,,,,,,,,,,,,,,,,,,,,,,,,,,right,1.0,0.9703710070025408,,,,,sub-116,1,random_dot,59.15476687789651,
left,left,31.0,1.0,15.0,left,1.0,0.6943663700003526,,speed,space,3.0058790569964917,,,,,,0.0,1.0,1.0,1.0,15.0,1.0,31.0,0.0,361.16879161100223,,,,,,,,,361.15688583500014,361.9710747779973,362.7728831720015,362.7579194220016,362.75840141499793,362.7728831720015,362.7728831720015,362.7728831720015,363.47635413199896,,,,,,,,,,,,,,,,,,,,,,,,,,,,,,,left,1.0,0.6943663700003526,,,,,sub-116,1,random_dot,59.15476687789651,
left,left,32.0,0.0,16.0,left,1.0,0.6525845210053376,,speed,space,3.0058790569964917,,,,,,0.0,1.0,1.0,1.0,16.0,0.0,32.0,0.0,363.49162549099856,,,,,,,,,363.4766794620009,364.2781321220027,365.0794866750002,365.0636486959993,365.0639917410008,365.0794866750002,365.0794866750002,365.0794866750002,365.7494989869956,,,,,,,,,,,,,,,,,,,,,,,,,,,,,,,left,1.0,0.6525845210053376,,,,,sub-116,1,random_dot,59.15476687789651,
right,right,33.0,1.0,16.0,right,1.0,1.2367522040003678,,speed,space,3.0058790569964917,,,,,,0.0,1.0,1.0,1.0,16.0,1.0,33.0,1.0,365.7643757409969,,,,,,,,,365.74985266099975,366.09905633000017,366.90209912000137,366.8860204270022,366.8865095649962,366.90209912000137,366.90209912000137,366.90209912000137,368.1561627069968,,,,,,,,,,,,,,,,,,,,,,,,,,,,,,,right,1.0,1.2367522040003678,,,,,sub-116,1,random_dot,59.15476687789651,
right,right,34.0,0.0,17.0,right,1.0,0.9032630209985656,,speed,space,3.0058790569964917,,,,,,0.0,1.0,1.0,1.0,17.0,0.0,34.0,1.0,368.1710511170022,,,,,,,,,368.156519037002,368.2711013750013,369.0733639300015,369.0569488850015,369.05728328999976,369.0733639300015,369.0733639300015,369.0733639300015,369.99456402299984,,,,,,,,,,,,,,,,,,,,,,,,,,,,,,,right,1.0,0.9032630209985656,,,,,sub-116,1,random_dot,59.15476687789651,
left,left,35.0,1.0,17.0,left,1.0,0.949609118004446,,speed,space,3.0058790569964917,,,,,,0.0,1.0,1.0,1.0,17.0,1.0,35.0,0.0,370.009278159996,,,,,,,,,369.99492083000223,370.1096055739981,370.911568974996,370.89654616700136,370.8970221970012,370.911568974996,370.911568974996,370.911568974996,371.8660598700008,,,,,,,,,,,,,,,,,,,,,,,,,,,,,,,left,1.0,0.949609118004446,,,,,sub-116,1,random_dot,59.15476687789651,
right,right,36.0,0.0,18.0,right,1.0,0.8751831670015235,,speed,space,3.0058790569964917,,,,,,0.0,1.0,1.0,1.0,18.0,0.0,36.0,1.0,371.88061532199936,,,,,,,,,371.8663418619981,372.6658947879987,373.4683954899956,373.4520502919986,373.4523272110018,373.4683954899956,373.4683954899956,373.4683954899956,374.3559226869984,,,,,,,,,,,,,,,,,,,,,,,,,,,,,,,right,1.0,0.8751831670015235,,,,,sub-116,1,random_dot,59.15476687789651,
left,left,37.0,1.0,18.0,right,0.0,1.138447127006657,,speed,space,3.0058790569964917,,,,,,0.0,1.0,1.0,1.0,18.0,1.0,37.0,0.0,374.3710428979976,,,,,,,,,374.3562766309988,375.1571821149992,375.95915031000186,375.9436035269973,375.944084814997,375.95915031000186,375.95915031000186,375.95915031000186,377.1134825909976,,,,,,,,,,,,,,,,,,,,,,,,,,,,,,,right,0.0,1.138447127006657,,,,,sub-116,1,random_dot,59.15476687789651,
right,right,38.0,0.0,19.0,right,1.0,0.7571244330029003,,speed,space,3.0058790569964917,,,,,,0.0,1.0,1.0,1.0,19.0,0.0,38.0,1.0,377.12843817500107,,,,,,,,,377.1138359300021,377.9145351370025,378.71670338200056,378.70067472200026,378.701154481998,378.71670338200056,378.71670338200056,378.71670338200056,379.4861878049997,,,,,,,,,,,,,,,,,,,,,,,,,,,,,,,right,1.0,0.7571244330029003,,,,,sub-116,1,random_dot,59.15476687789651,
left,left,39.0,1.0,19.0,left,1.0,0.7258452779933577,,speed,space,3.0058790569964917,,,,,,0.0,1.0,1.0,1.0,19.0,1.0,39.0,0.0,379.50090427300165,,,,,,,,,379.4864697459998,380.2866104979985,381.0895093220024,381.0735195870002,381.07399924199854,381.0895093220024,381.0895093220024,381.0895093220024,381.8257393769964,,,,,,,,,,,,,,,,,,,,,,,,,,,,,,,left,1.0,0.7258452779933577,,,,,sub-116,1,random_dot,59.15476687789651,
right,right,40.0,0.0,20.0,right,1.0,0.6999946069990983,,speed,space,3.0058790569964917,,,,,,0.0,1.0,1.0,1.0,20.0,0.0,40.0,1.0,381.8410309609972,,,,,,,,,381.8260599400018,381.940716915,382.74281780199817,382.7270558059972,382.7274115679975,382.74281780199817,382.74281780199817,382.74281780199817,383.4469172269965,,,,,,,,,,,,,,,,,,,,,,,,,,,,,,,right,1.0,0.6999946069990983,,,,,sub-116,1,random_dot,59.15476687789651,
left,left,41.0,1.0,20.0,right,0.0,0.7313168659966323,,speed,space,3.0058790569964917,,,,,,0.0,1.0,1.0,1.0,20.0,1.0,41.0,0.0,383.46182599700114,,,,,,,,,383.44724118799786,384.2474537359958,385.049996306996,385.0341647949972,385.034646549997,385.049996306996,385.049996306996,385.049996306996,385.78626983999857,,,,,,,,,,,,,,,,,,,,,,,,,,,,,,,right,0.0,0.7313168659966323,,,,,sub-116,1,random_dot,59.15476687789651,
right,right,42.0,0.0,21.0,right,1.0,0.5262439210055163,,speed,space,3.0058790569964917,,,,,,0.0,1.0,1.0,1.0,21.0,0.0,42.0,1.0,385.8015743069991,,,,,,,,,385.7866459950019,386.98807329699775,387.7901661200012,387.7742482320027,387.7745965959985,387.7901661200012,387.7901661200012,387.7901661200012,388.3268935169981,,,,,,,,,,,,,,,,,,,,,,,,,,,,,,,right,1.0,0.5262439210055163,,,,,sub-116,1,random_dot,59.15476687789651,
left,left,43.0,1.0,21.0,right,0.0,0.4504930229959427,,speed,space,3.0058790569964917,,,,,,0.0,1.0,1.0,1.0,21.0,1.0,43.0,0.0,388.34105552199617,,,,,,,,,388.3272649999999,388.6762581069997,389.47844905500097,389.4626629949999,389.4631455369963,389.47844905500097,389.47844905500097,389.47844905500097,389.93169273700187,,,,,,,,,,,,,,,,,,,,,,,,,,,,,,,right,0.0,0.4504930229959427,,,,,sub-116,1,random_dot,59.15476687789651,
left,left,44.0,0.0,22.0,left,1.0,0.4978461720020277,,speed,space,3.0058790569964917,,,,,,0.0,1.0,1.0,1.0,22.0,0.0,44.0,0.0,389.9453708349975,,,,,,,,,389.93199519300106,390.7320792669998,391.5339445049976,391.51820900200255,391.51869536499726,391.5339445049976,391.5339445049976,391.5339445049976,392.0363902179961,,,,,,,,,,,,,,,,,,,,,,,,,,,,,,,left,1.0,0.4978461720020277,,,,,sub-116,1,random_dot,59.15476687789651,
right,right,45.0,1.0,22.0,right,1.0,0.3865795189994969,,speed,space,3.0058790569964917,,,,,,0.0,1.0,1.0,1.0,22.0,1.0,45.0,1.0,392.05162981600006,,,,,,,,,392.0367029330009,392.3861854119969,393.18825486499554,393.1726686149996,393.1731468770013,393.18825486499554,393.18825486499554,393.18825486499554,393.5903742129958,,,,,,,,,,,,,,,,,,,,,,,,,,,,,,,right,1.0,0.3865795189994969,,,,,sub-116,1,random_dot,59.15476687789651,
left,left,46.0,0.0,23.0,left,1.0,0.3512928100026329,,speed,space,3.0058790569964917,,,,,,0.0,1.0,1.0,1.0,23.0,0.0,46.0,0.0,393.6052025829995,,,,,,,,,393.5907266349968,393.7063449599955,394.50837529199634,394.4927694049984,394.4932559649969,394.50837529199634,394.50837529199634,394.50837529199634,394.8769498449983,,,,,,,,,,,,,,,,,,,,,,,,,,,,,,,left,1.0,0.3512928100026329,,,,,sub-116,1,random_dot,59.15476687789651,
right,right,47.0,1.0,23.0,right,1.0,0.3103350680030416,,speed,space,3.0058790569964917,,,,,,0.0,1.0,1.0,1.0,23.0,1.0,47.0,1.0,394.8920796899984,,,,,,,,,394.87731152299966,395.2270228900016,396.02920416499546,396.01373934,396.0142227149991,396.02920416499546,396.02920416499546,396.02920416499546,396.3472964249959,,,,,,,,,,,,,,,,,,,,,,,,,,,,,,,right,1.0,0.3103350680030416,,,,,sub-116,1,random_dot,59.15476687789651,
left,left,48.0,0.0,24.0,left,1.0,0.3355976100065163,,speed,space,3.0058790569964917,,,,,,0.0,1.0,1.0,1.0,24.0,0.0,48.0,0.0,396.3630855020019,,,,,,,,,396.3475950680004,397.55002856699866,398.35203889200056,398.336261849996,398.3367459599976,398.35203889200056,398.35203889200056,398.35203889200056,398.7040242709991,,,,,,,,,,,,,,,,,,,,,,,,,,,,,,,left,1.0,0.3355976100065163,,,,,sub-116,1,random_dot,59.15476687789651,
right,right,49.0,1.0,24.0,right,1.0,0.2686059409970767,,speed,space,3.0058790569964917,,,,,,0.0,1.0,1.0,1.0,24.0,1.0,49.0,1.0,398.719258156998,,,,,,,,,398.7043791749966,399.504403455001,400.3078689370013,400.29157549999945,400.2920567999972,400.3078689370013,400.3078689370013,400.3078689370013,400.59264664299553,,,,,,,,,,,,,,,,,,,,,,,,,,,,,,,right,1.0,0.2686059409970767,,,,,sub-116,1,random_dot,59.15476687789651,
left,left,50.0,0.0,25.0,left,1.0,0.3312347079991014,,speed,space,3.0058790569964917,,,,,,0.0,1.0,1.0,1.0,25.0,0.0,50.0,0.0,400.60731586699694,,,,,,,,,400.5929994809994,400.94233086500026,401.7445423719983,401.7286142820012,401.7290956450015,401.7445423719983,401.7445423719983,401.7445423719983,402.0825211400006,,,,,,,,,,,,,,,,,,,,,,,,,,,,,,,left,1.0,0.3312347079991014,,,,,sub-116,1,random_dot,59.15476687789651,
right,right,51.0,1.0,25.0,left,0.0,0.4698977389998617,,speed,space,3.0058790569964917,,,,,,0.0,1.0,1.0,1.0,25.0,1.0,51.0,1.0,402.0944421230015,,,,,,,,,402.0829532650023,403.2823652099978,404.0840914969958,404.0679444350026,404.0683308219959,404.0840914969958,404.0840914969958,404.0840914969958,404.5703716579956,,,,,,,,,,,,,,,,,,,,,,,,,,,,,,,left,0.0,0.4698977389998617,,,,,sub-116,1,random_dot,59.15476687789651,
right,right,52.0,0.0,26.0,right,1.0,0.4430753419946995,,speed,space,3.0058790569964917,,,,,,0.0,1.0,1.0,1.0,26.0,0.0,52.0,1.0,404.58526407599857,,,,,,,,,404.5707452159986,404.6859465099988,405.487551512997,405.4714037520025,405.4717953049985,405.487551512997,405.487551512997,405.487551512997,405.93989314600185,,,,,,,,,,,,,,,,,,,,,,,,,,,,,,,right,1.0,0.4430753419946995,,,,,sub-116,1,random_dot,59.15476687789651,
left,left,53.0,1.0,26.0,left,1.0,0.9532165000055102,,speed,space,3.0058790569964917,,,,,,0.0,1.0,1.0,1.0,26.0,1.0,53.0,0.0,405.955286270997,,,,,,,,,405.9402103809989,406.7417303399998,407.5426330129994,407.5269007349998,407.527227984996,407.5426330129994,407.5426330129994,407.5426330129994,408.5127646850015,,,,,,,,,,,,,,,,,,,,,,,,,,,,,,,left,1.0,0.9532165000055102,,,,,sub-116,1,random_dot,59.15476687789651,
left,left,54.0,0.0,27.0,left,1.0,0.6784956880001118,,speed,space,3.0058790569964917,,,,,,0.0,1.0,1.0,1.0,27.0,0.0,54.0,0.0,408.5284722750002,,,,,,,,,408.5131332269957,409.7158639869958,410.5180772469976,410.5024245099994,410.5029075799976,410.5180772469976,410.5180772469976,410.5180772469976,411.2041772360026,,,,,,,,,,,,,,,,,,,,,,,,,,,,,,,left,1.0,0.6784956880001118,,,,,sub-116,1,random_dot,59.15476687789651,
right,right,55.0,1.0,27.0,left,0.0,0.5050023849980789,,speed,space,3.0058790569964917,,,,,,0.0,1.0,1.0,1.0,27.0,1.0,55.0,1.0,411.2189456859997,,,,,,,,,411.2045115950023,411.5543013170027,412.3564366999999,412.3406643400013,412.341164685,412.3564366999999,412.3564366999999,412.3564366999999,412.8755884209968,,,,,,,,,,,,,,,,,,,,,,,,,,,,,,,left,0.0,0.5050023849980789,,,,,sub-116,1,random_dot,59.15476687789651,
left,left,56.0,0.0,28.0,left,1.0,0.6248188630052027,,speed,space,3.0058790569964917,,,,,,0.0,1.0,1.0,1.0,28.0,0.0,56.0,0.0,412.89009385999816,,,,,,,,,412.8759329910026,414.07714231099817,414.8798401169988,414.8637982419969,414.8642940299978,414.8798401169988,414.8798401169988,414.8798401169988,415.51531120599975,,,,,,,,,,,,,,,,,,,,,,,,,,,,,,,left,1.0,0.6248188630052027,,,,,sub-116,1,random_dot,59.15476687789651,
right,right,57.0,1.0,28.0,right,1.0,0.7532263809989672,,speed,space,3.0058790569964917,,,,,,0.0,1.0,1.0,1.0,28.0,1.0,57.0,1.0,415.5303842700014,,,,,,,,,415.5156230700013,416.71767347499554,417.5201895319988,417.5040765419981,417.5045586970009,417.5201895319988,417.5201895319988,417.5201895319988,418.2901706030025,,,,,,,,,,,,,,,,,,,,,,,,,,,,,,,right,1.0,0.7532263809989672,,,,,sub-116,1,random_dot,59.15476687789651,
left,left,58.0,0.0,29.0,left,1.0,0.8044464190024883,,speed,space,3.0058790569964917,,,,,,0.0,1.0,1.0,1.0,29.0,0.0,58.0,0.0,418.304538245,,,,,,,,,418.2905449249956,418.6559625669979,419.4579594699972,419.441940855002,419.44226660500135,419.4579594699972,419.4579594699972,419.4579594699972,420.27763862699794,,,,,,,,,,,,,,,,,,,,,,,,,,,,,,,left,1.0,0.8044464190024883,,,,,sub-116,1,random_dot,59.15476687789651,
right,right,59.0,1.0,29.0,right,1.0,1.055699142998492,,speed,space,3.0058790569964917,,,,,,0.0,1.0,1.0,1.0,29.0,1.0,59.0,1.0,420.2933055370013,,,,,,,,,420.2779550869964,421.07967500200175,421.8814690399959,421.8658016420013,421.8662803170009,421.8814690399959,421.8814690399959,421.8814690399959,422.95184382799926,,,,,,,,,,,,,,,,,,,,,,,,,,,,,,,right,1.0,1.055699142998492,,,,,sub-116,1,random_dot,59.15476687789651,
,,1.0,1.0,0.0,,,,,speed,space,3.0058790569964917,,,,,,0.0,1.0,1.0,1.0,,,,,,,,,,,,,,,,,,,,,,,,,,,,,,,,,,,,,,,,,,,,,,,,,,,,,,,,,,,,sub-116,1,random_dot,59.15476687789651,
,,,,,,,,,,,,,,,,,,,,,,,,,,,,,,,,,,,,,,,,,,,,,,,,,,,,,,,,,,,,,,,,,,,,,,,,,,,,,422.9561341520021,422.9666324099962,427.9639016200017,sub-116,1,random_dot,59.15476687789651,
