direction,corrAns,thisN,thisTrialN,thisRepN,respDots.keys,respDots.corr,respDots.rt,respDots.duration,randomInstr,respRandomInstr.keys,respRandomInstr.rt,respRandomInstr.duration,practice_trials.thisRepN,practice_trials.thisTrialN,practice_trials.thisN,practice_trials.thisIndex,instr_trials.thisRepN,instr_trials.thisTrialN,instr_trials.thisN,instr_trials.thisIndex,test_trials.thisRepN,test_trials.thisTrialN,test_trials.thisN,test_trials.thisIndex,thisRow.t,notes,general_instruction.started,textGeneralInstr.started,respGeneralInstr.started,general_instruction.stopped,respGeneralInstr.keys,respGeneralInstr.rt,respGeneralInstr.duration,ITI.started,fixcross.started,fixcross.stopped,ITI.stopped,dots.started,backgroundDots.started,stimulusDots.started,respDots.started,dots.stopped,practice_trials.respDots.keys,practice_trials.respDots.corr,practice_trials.respDots.rt,practice_trials.respDots.duration,feedback.started,textFeedback.started,feedback.stopped,textFeedback.stopped,info.started,textInfo.started,keyRespInfo.started,info.stopped,keyRespInfo.keys,keyRespInfo.rt,keyRespInfo.duration,test_instruction.started,textTestInstr.started,respTestInstr.started,test_instruction.stopped,respTestInstr.keys,respTestInstr.rt,respTestInstr.duration,random_instruction.started,textRandomInstr.started,respRandomInstr.started,random_instruction.stopped,instr_trials.respRandomInstr.keys,instr_trials.respRandomInstr.rt,instr_trials.respRandomInstr.duration,test_trials.respDots.keys,test_trials.respDots.corr,test_trials.respDots.rt,test_trials.respDots.duration,goodbye.started,textGoodbye.started,participant,session,expName,frameRate,Unnamed: 85
,,,,,,,,,,,,,,,,,,,,,,,,,,,0.0079527559573762,0.0228274449473246,0.0228274449473246,2.0833376849768683,space,1.9492973880260247,,,,,,,,,,,,,,,,,,,,,,,,,,,,,,,,,,,,,,,,,,,,,,sub-068,1.0,random_dot,,
left,left,0.0,0.0,0.0,left,1.0,0.9438522669952364,,,,,,0.0,0.0,0.0,0.0,,,,,,,,,2.1035206399974413,,,,,,,,,2.090440440981183,2.8814849379705265,3.6909605079563335,3.671565190947149,3.672049537999556,3.6909605079563335,3.6909605079563335,3.6909605079563335,4.655358559975866,left,1.0,0.9438522669952364,,4.661004080960993,4.685808731999714,5.155989057966508,,,,,,,,,,,,,,,,,,,,,,,,,,,,,sub-068,1.0,random_dot,,
right,right,1.0,1.0,0.0,right,1.0,0.6414452530443668,,,,,,0.0,1.0,1.0,1.0,,,,,,,,,5.162074620951898,,,,,,,,,5.156561229960062,5.257346812984906,6.070687455998268,6.045826969959308,6.046609376964625,6.070687455998268,6.070687455998268,6.070687455998268,6.720959915954154,right,1.0,0.6414452530443668,,6.721051892964169,6.728800101962406,7.222475177957676,,,,,,,,,,,,,,,,,,,,,,,,,,,,,sub-068,1.0,random_dot,,
left,left,2.0,0.0,1.0,left,1.0,0.6817581970244646,,,,,,1.0,0.0,2.0,0.0,,,,,,,,,7.228326968965121,,,,,,,,,7.222914765996393,7.312224989000242,8.10706464498071,8.096245710970834,8.097041336994153,8.10706464498071,8.10706464498071,8.10706464498071,8.792454701964743,left,1.0,0.6817581970244646,,8.792528620979283,8.804174574965145,9.28971726296004,9.30719559598947,,,,,,,,,,,,,,,,,,,,,,,,,,,,sub-068,1.0,random_dot,,
right,right,3.0,1.0,1.0,left,0.0,0.94376153399935,,,,,,1.0,1.0,3.0,1.0,,,,,,,,,9.30719559598947,,,,,,,,,9.290276036947034,10.087867764988914,10.881089271977544,10.871787123964168,10.872250745946076,10.881089271977544,10.881089271977544,10.881089271977544,11.839233780978248,left,0.0,0.94376153399935,,11.84576900699176,11.858485773962457,12.344422292953825,,,,,,,,,,,,,,,,,,,,,,,,,,,,,sub-068,1.0,random_dot,,
left,left,4.0,0.0,2.0,right,0.0,0.914287046995014,,,,,,2.0,0.0,4.0,0.0,,,,,,,,,12.355496743984986,,,,,,,,,12.345106400956864,13.128643468953667,13.929455404984765,13.92153818596853,13.921922871959396,13.929455404984765,13.929455404984765,13.929455404984765,14.848829279944766,right,0.0,0.914287046995014,,14.849019440996926,14.857745495974086,15.34529708197806,15.354219326982276,,,,,,,,,,,,,,,,,,,,,,,,,,,,sub-068,1.0,random_dot,,
right,right,5.0,1.0,2.0,left,0.0,0.7925359939690679,,,,,,2.0,1.0,5.0,1.0,,,,,,,,,15.354219326982276,,,,,,,,,15.34596343897283,16.154600092966575,16.946120529959444,16.938368296949193,16.93879632296739,16.946120529959444,16.946120529959444,16.946120529959444,17.747097720974125,left,0.0,0.7925359939690679,,17.747169012960512,17.77019843395101,18.25495099800173,,,,,,,,,,,,,,,,,,,,,,,,,,,,,sub-068,1.0,random_dot,,
right,right,6.0,0.0,3.0,right,1.0,1.2360504679963924,,,,,,3.0,0.0,6.0,1.0,,,,,,,,,18.26102091895882,,,,,,,,,18.255364382988773,18.34509850398172,19.153668934945017,19.128871720982715,19.129673137969803,19.153668934945017,19.153668934945017,19.153668934945017,20.39705807098653,right,1.0,1.2360504679963924,,20.399035550944973,20.40700897696661,20.89504167594714,20.904198044969235,,,,,,,,,,,,,,,,,,,,,,,,,,,,sub-068,1.0,random_dot,,
left,left,7.0,1.0,3.0,left,1.0,1.081074047018774,,,,,,3.0,1.0,7.0,0.0,,,,,,,,,20.904198044969235,,,,,,,,,20.89549691398861,20.99478452495532,21.788522534945518,21.77815405896399,21.778899559983984,21.788522534945518,21.788522534945518,21.788522534945518,22.876473256968893,left,1.0,1.081074047018774,,22.876539331977256,22.88742992898915,23.371583097963597,23.37755501398351,,,,,,,,,,,,,,,,,,,,,,,,,,,,sub-068,1.0,random_dot,,
right,right,8.0,0.0,4.0,right,1.0,0.6465234400238842,,,,,,4.0,0.0,8.0,1.0,,,,,,,,,23.37755501398351,,,,,,,,,23.371869171969596,23.47187856095843,24.271317171980627,24.26099180598976,24.26155519299209,24.271317171980627,24.271317171980627,24.271317171980627,24.92441025597509,right,1.0,0.6465234400238842,,24.924486994976174,24.931756960984785,25.421796028967947,25.42735918000108,,,,,,,,,,,,,,,,,,,,,,,,,,,,sub-068,1.0,random_dot,,
left,left,9.0,1.0,4.0,left,1.0,0.6882254609954543,,,,,,4.0,1.0,9.0,0.0,,,,,,,,,25.42735918000108,,,,,,,,,25.42212677898351,25.771860822977036,26.56250599096529,26.554674477956723,26.55507065495476,26.56250599096529,26.56250599096529,26.56250599096529,27.259769226948265,left,1.0,0.6882254609954543,,27.25984489399707,27.270399203000125,27.75425846397411,27.76015843998175,,,,,,,,,,,,,,,,,,,,,,,,,,,,sub-068,1.0,random_dot,,
right,right,10.0,0.0,5.0,left,0.0,0.7246181499795057,,,,,,5.0,0.0,10.0,1.0,,,,,,,,,27.76015843998175,,,,,,,,,27.754668627982028,28.104221151967067,28.897151204000693,28.887945331982337,28.888394591980614,28.897151204000693,28.897151204000693,28.897151204000693,29.625637409975752,left,0.0,0.7246181499795057,,29.627409894950688,29.636783524998464,30.122183128958568,30.12810144596733,,,,,,,,,,,,,,,,,,,,,,,,,,,,sub-068,1.0,random_dot,,
left,left,11.0,1.0,5.0,left,1.0,1.823270360007882,,,,,,5.0,1.0,11.0,0.0,,,,,,,,,30.12810144596733,,,,,,,,,30.122570718987845,31.32073413894977,32.11608805996366,32.10564697999507,32.10631568299141,32.11608805996366,32.11608805996366,32.11608805996366,33.941233666962944,left,1.0,1.823270360007882,,33.94369431497762,33.95165836898377,34.439587930974085,34.45419465599116,,,,,,,,,,,,,,,,,,,,,,,,,,,,sub-068,1.0,random_dot,,
left,left,12.0,0.0,6.0,left,1.0,1.1229317340184934,,,,,,6.0,0.0,12.0,0.0,,,,,,,,,34.45419465599116,,,,,,,,,34.44014016696019,35.2373379439814,36.02893529395806,36.020973499980755,36.021427811996546,36.02893529395806,36.02893529395806,36.02893529395806,37.15937949699583,left,1.0,1.1229317340184934,,37.15945983398706,37.17088270594832,37.654346592957154,37.6603427399532,,,,,,,,,,,,,,,,,,,,,,,,,,,,sub-068,1.0,random_dot,,
right,right,13.0,1.0,6.0,right,1.0,1.5273258339730091,,,,,,6.0,1.0,13.0,1.0,,,,,,,,,37.6603427399532,,,,,,,,,37.654729196976405,37.76096407795558,38.55545887094922,38.545426544966176,38.54608655697666,38.55545887094922,38.55545887094922,38.55545887094922,40.08811151597183,right,1.0,1.5273258339730091,,40.088229571993,40.09505524497945,40.57807669095928,40.58704379299888,,,,,,,,,,,,,,,,,,,,,,,,,,,,sub-068,1.0,random_dot,,
right,right,14.0,0.0,7.0,left,0.0,0.9983459649956784,,,,,,7.0,0.0,14.0,1.0,,,,,,,,,40.58704379299888,,,,,,,,,40.57876266498352,41.78705787897343,42.58054643496871,42.57243942597415,42.57301839499269,42.58054643496871,42.58054643496871,42.58054643496871,43.58738231897587,left,0.0,0.9983459649956784,,43.5889358529821,43.5956434099935,44.07871053396957,44.087286071968265,,,,,,,,,,,,,,,,,,,,,,,,,,,,sub-068,1.0,random_dot,,
left,left,15.0,1.0,7.0,left,1.0,1.4926394970389083,,,,,,7.0,1.0,15.0,0.0,,,,,,,,,44.087286071968265,,,,,,,,,44.07925791596063,44.42700557794888,45.22217720694607,45.21173452498624,45.21234986395575,45.22217720694607,45.22217720694607,45.22217720694607,46.73817041696748,left,1.0,1.4926394970389083,,46.74021953099873,46.747834481997415,47.23876585799735,,,,,,,,,,,,,,,,,,,,,,,,,,,,,sub-068,1.0,random_dot,,
left,left,16.0,0.0,8.0,left,1.0,2.2486416929750703,,,,,,8.0,0.0,16.0,0.0,,,,,,,,,47.24505040195072,,,,,,,,,47.239391484996304,48.42709319497226,49.22183400398353,49.21102464798605,49.21180672897026,49.22183400398353,49.22183400398353,49.22183400398353,51.47637454996584,left,1.0,2.2486416929750703,,51.47644319495885,51.48655865597539,51.97219547495479,51.97828337899409,,,,,,,,,,,,,,,,,,,,,,,,,,,,sub-068,1.0,random_dot,,
right,right,17.0,1.0,8.0,left,0.0,1.6649823489715343,,,,,,8.0,1.0,17.0,1.0,,,,,,,,,51.97828337899409,,,,,,,,,51.972722099977545,52.77110203600023,53.57222206797451,53.55687464994844,53.55752774496796,53.57222206797451,53.57222206797451,53.57222206797451,55.24600852798904,left,0.0,1.6649823489715343,,55.24806603399338,55.25575619295705,55.74465285695624,55.75360367697431,,,,,,,,,,,,,,,,,,,,,,,,,,,,sub-068,1.0,random_dot,,
left,left,18.0,0.0,9.0,left,1.0,1.7999588079983369,,,,,,9.0,0.0,18.0,0.0,,,,,,,,,55.75360367697431,,,,,,,,,55.74532406398794,56.54351249698084,57.33834836096503,57.328305053990334,57.32911582197994,57.33834836096503,57.33834836096503,57.33834836096503,59.14148360298714,left,1.0,1.7999588079983369,,59.143872708955314,59.15310780098662,59.63743051496567,59.64368188299704,,,,,,,,,,,,,,,,,,,,,,,,,,,,sub-068,1.0,random_dot,,
right,right,19.0,1.0,9.0,right,1.0,1.5736068059923127,,,,,,9.0,1.0,19.0,1.0,,,,,,,,,59.64368188299704,,,,,,,,,59.63783592794789,60.83689331199275,61.630648388993,61.62105786096072,61.62170887197135,61.630648388993,61.630648388993,61.630648388993,63.22113634698326,right,1.0,1.5736068059923127,,63.22120982297929,63.22824879398104,63.721969508973416,,,,,,,,,,,,,,,,,,,,,,,,,,,,,sub-068,1.0,random_dot,,
,,,,,,,,,,,,,,,,,,,,,,,,,,,,,,,,,,,,,,,,,,,,,,,,,,,63.72221299895318,63.73019138496602,63.73019138496602,65.138275167963,space,1.4011493300204163,,,,,,,,,,,,,,,,,,,,,,sub-068,1.0,random_dot,,
,,,,,,,,,,,,,,,,,,,,,,,,,,,,,,,,,,,,,,,,,,,,,,,,,,,,,,,,,,65.13832578895381,65.14705691696145,65.14705691696145,67.9381050139782,space,2.7842934740474448,,,,,,,,,,,,,,,sub-068,1.0,random_dot,,
left,left,0.0,0.0,0.0,left,1.0,1.14042645401787,,accuracy,space,2.098919140989892,,,,,,0.0,0.0,0.0,0.0,0.0,0.0,0.0,0.0,70.07486967899604,,,,,,,,,70.06748611596413,70.15925400494598,70.96999126899755,70.94470720895333,70.94553924899083,70.96999126899755,70.96999126899755,70.96999126899755,72.11321899696486,,,,,,,,,,,,,,,,,,,,,,,67.95312488795025,67.96146651299205,67.96146651299205,70.0620505589759,space,2.098919140989892,,left,1.0,1.14042645401787,,,,sub-068,1.0,random_dot,,
right,right,1.0,1.0,0.0,right,1.0,0.8685701169888489,,accuracy,space,2.098919140989892,,,,,,0.0,0.0,0.0,0.0,0.0,1.0,1.0,1.0,72.12146812997526,,,,,,,,,72.11347061995184,72.21114380995277,73.00558581395308,72.9952915419708,72.99587331298972,73.00558581395308,73.00558581395308,73.00558581395308,73.88063116098056,,,,,,,,,,,,,,,,,,,,,,,,,,,,,,right,1.0,0.8685701169888489,,,,sub-068,1.0,random_dot,,
left,left,2.0,0.0,1.0,right,0.0,1.6354912139941007,,accuracy,space,2.098919140989892,,,,,,0.0,0.0,0.0,0.0,1.0,0.0,2.0,0.0,73.88999886799138,,,,,,,,,73.88086920697242,74.23987736995332,75.036746400001,75.02628156699939,75.02681042498443,75.036746400001,75.036746400001,75.036746400001,76.68119518097956,,,,,,,,,,,,,,,,,,,,,,,,,,,,,,right,0.0,1.6354912139941007,,,,sub-068,1.0,random_dot,,
right,right,3.0,1.0,1.0,left,0.0,1.406359852000605,,accuracy,space,2.098919140989892,,,,,,0.0,0.0,0.0,0.0,1.0,1.0,3.0,1.0,76.68900974199641,,,,,,,,,76.6815799799515,77.02738043898717,77.82102421997115,77.81037274899427,77.81113760895096,77.82102421997115,77.82102421997115,77.82102421997115,79.23070544796064,,,,,,,,,,,,,,,,,,,,,,,,,,,,,,left,0.0,1.406359852000605,,,,sub-068,1.0,random_dot,,
left,left,4.0,0.0,2.0,left,1.0,2.100941042008344,,accuracy,space,2.098919140989892,,,,,,0.0,0.0,0.0,0.0,2.0,0.0,4.0,0.0,79.23929968295852,,,,,,,,,79.23124246695079,79.32522933499422,80.12053623999236,80.11004551895894,80.11064668296603,80.12053623999236,80.12053623999236,80.12053623999236,82.22397023596568,,,,,,,,,,,,,,,,,,,,,,,,,,,,,,left,1.0,2.100941042008344,,,,sub-068,1.0,random_dot,,
right,right,5.0,1.0,2.0,right,1.0,1.5302990439813584,,accuracy,space,2.098919140989892,,,,,,0.0,0.0,0.0,0.0,2.0,1.0,5.0,1.0,82.23661155399168,,,,,,,,,82.22422600199934,82.5700478029903,83.3630551059614,83.35502620099578,83.35548546799691,83.3630551059614,83.3630551059614,83.3630551059614,84.90448767197086,,,,,,,,,,,,,,,,,,,,,,,,,,,,,,right,1.0,1.5302990439813584,,,,sub-068,1.0,random_dot,,
left,left,6.0,0.0,3.0,left,1.0,1.2756430329754949,,accuracy,space,2.098919140989892,,,,,,0.0,0.0,0.0,0.0,3.0,0.0,6.0,0.0,84.91250489198137,,,,,,,,,84.90473474696046,84.99425802897895,85.78877843095688,85.77761639596429,85.77841165696736,85.78877843095688,85.78877843095688,85.78877843095688,87.07062673196197,,,,,,,,,,,,,,,,,,,,,,,,,,,,,,left,1.0,1.2756430329754949,,,,sub-068,1.0,random_dot,,
right,right,7.0,1.0,3.0,left,0.0,2.1558545400039293,,accuracy,space,2.098919140989892,,,,,,0.0,0.0,0.0,0.0,3.0,1.0,7.0,1.0,87.07787413598271,,,,,,,,,87.07096777594415,88.26069020899013,89.06208093697205,89.05370842094999,89.05416948196944,89.06208093697205,89.06208093697205,89.06208093697205,91.22095040295972,,,,,,,,,,,,,,,,,,,,,,,,,,,,,,left,0.0,2.1558545400039293,,,,sub-068,1.0,random_dot,,
left,left,8.0,0.0,4.0,right,0.0,2.0719597460119985,,accuracy,space,2.098919140989892,,,,,,0.0,0.0,0.0,0.0,4.0,0.0,8.0,0.0,91.22802819299976,,,,,,,,,91.22119656496216,91.56064077594785,92.35449994797818,92.34432750195263,92.34513254795456,92.35449994797818,92.35449994797818,92.35449994797818,94.43718963395804,,,,,,,,,,,,,,,,,,,,,,,,,,,,,,right,0.0,2.0719597460119985,,,,sub-068,1.0,random_dot,,
right,right,9.0,1.0,4.0,left,0.0,1.813401262043044,,accuracy,space,2.098919140989892,,,,,,0.0,0.0,0.0,0.0,4.0,1.0,9.0,1.0,94.44525371695636,,,,,,,,,94.4374304979574,95.62634016695664,96.42191195295892,96.41113912296714,96.41191784496186,96.42191195295892,96.42191195295892,96.42191195295892,98.24213196296478,,,,,,,,,,,,,,,,,,,,,,,,,,,,,,left,0.0,1.813401262043044,,,,sub-068,1.0,random_dot,,
left,left,10.0,0.0,5.0,right,0.0,1.5419487740145996,,accuracy,space,2.098919140989892,,,,,,0.0,0.0,0.0,0.0,5.0,0.0,10.0,0.0,98.25256703799823,,,,,,,,,98.24238459795016,98.58606600394704,99.38039422599832,99.37061761895892,99.3712746629608,99.38039422599832,99.38039422599832,99.38039422599832,100.92926645296392,,,,,,,,,,,,,,,,,,,,,,,,,,,,,,right,0.0,1.5419487740145996,,,,sub-068,1.0,random_dot,,
right,right,11.0,1.0,5.0,left,0.0,2.2790073369978927,,accuracy,space,2.098919140989892,,,,,,0.0,0.0,0.0,0.0,5.0,1.0,11.0,1.0,100.93770713597767,,,,,,,,,100.92952642799357,101.7273887039628,102.52843027899507,102.52044094895246,102.5208951709792,102.52843027899507,102.52843027899507,102.52843027899507,104.81345630798025,,,,,,,,,,,,,,,,,,,,,,,,,,,,,,left,0.0,2.2790073369978927,,,,sub-068,1.0,random_dot,,
right,right,12.0,0.0,6.0,right,1.0,1.2705525810015388,,accuracy,space,2.098919140989892,,,,,,0.0,0.0,0.0,0.0,6.0,0.0,12.0,1.0,104.82203082798516,,,,,,,,,104.81376177596394,106.010387118964,106.81301106698812,106.8047762339702,106.80537354794797,106.81301106698812,106.81301106698812,106.81301106698812,108.08740413095802,,,,,,,,,,,,,,,,,,,,,,,,,,,,,,right,1.0,1.2705525810015388,,,,sub-068,1.0,random_dot,,
left,left,13.0,1.0,6.0,right,0.0,1.1463817540206946,,accuracy,space,2.098919140989892,,,,,,0.0,0.0,0.0,0.0,6.0,1.0,13.0,0.0,108.09397500497288,,,,,,,,,108.0877636539517,108.87641534395516,109.67251211899566,109.66030367295023,109.66109765099829,109.67251211899566,109.67251211899566,109.67251211899566,110.82163405395112,,,,,,,,,,,,,,,,,,,,,,,,,,,,,,right,0.0,1.1463817540206946,,,,sub-068,1.0,random_dot,,
left,left,14.0,0.0,7.0,left,1.0,0.8476284719654359,,accuracy,space,2.098919140989892,,,,,,0.0,0.0,0.0,0.0,7.0,0.0,14.0,0.0,110.82739003095776,,,,,,,,,110.82188210997263,110.91941676498392,111.71286621096078,111.70479318097932,111.7052484669839,111.71286621096078,111.71286621096078,111.71286621096078,112.56248442799551,,,,,,,,,,,,,,,,,,,,,,,,,,,,,,left,1.0,0.8476284719654359,,,,sub-068,1.0,random_dot,,
right,right,15.0,1.0,7.0,right,1.0,1.1245830900152214,,accuracy,space,2.098919140989892,,,,,,0.0,0.0,0.0,0.0,7.0,1.0,15.0,1.0,112.57043912698282,,,,,,,,,112.56273554696236,112.90938973095037,113.70301286695758,113.69254386698594,113.69324563798727,113.70301286695758,113.70301286695758,113.70301286695758,114.82922786398558,,,,,,,,,,,,,,,,,,,,,,,,,,,,,,right,1.0,1.1245830900152214,,,,sub-068,1.0,random_dot,,
left,left,16.0,0.0,8.0,left,1.0,2.233176092035137,,accuracy,space,2.098919140989892,,,,,,0.0,0.0,0.0,0.0,8.0,0.0,16.0,0.0,114.83683051599655,,,,,,,,,114.82948116696208,116.02701211796376,116.82065420597792,116.80998202395858,116.81077235698469,116.82065420597792,116.82065420597792,116.82065420597792,119.05901274696224,,,,,,,,,,,,,,,,,,,,,,,,,,,,,,left,1.0,2.233176092035137,,,,sub-068,1.0,random_dot,,
right,right,17.0,1.0,8.0,right,1.0,1.6960889979964122,,accuracy,space,2.098919140989892,,,,,,0.0,0.0,0.0,0.0,8.0,1.0,17.0,1.0,119.06932228297228,,,,,,,,,119.05949496896936,119.8541877559619,120.6534179499722,120.64319079898996,120.64371340698564,120.6534179499722,120.6534179499722,120.6534179499722,122.37060625996672,,,,,,,,,,,,,,,,,,,,,,,,,,,,,,right,1.0,1.6960889979964122,,,,sub-068,1.0,random_dot,,
right,right,18.0,0.0,9.0,right,1.0,2.8658230979926884,,accuracy,space,2.098919140989892,,,,,,0.0,0.0,0.0,0.0,9.0,0.0,18.0,1.0,122.37833769898862,,,,,,,,,122.3708827989758,122.71058538596844,123.51165310299255,123.50351961195702,123.50397368398262,123.51165310299255,123.51165310299255,123.51165310299255,126.37868139898636,,,,,,,,,,,,,,,,,,,,,,,,,,,,,,right,1.0,2.8658230979926884,,,,sub-068,1.0,random_dot,,
left,left,19.0,1.0,9.0,left,1.0,1.6730323689989746,,accuracy,space,2.098919140989892,,,,,,0.0,0.0,0.0,0.0,9.0,1.0,19.0,0.0,126.38472046598326,,,,,,,,,126.3789241509512,126.72680010698969,127.5295145259588,127.52116790798028,127.5216850299621,127.5295145259588,127.5295145259588,127.5295145259588,129.20591236196924,,,,,,,,,,,,,,,,,,,,,,,,,,,,,,left,1.0,1.6730323689989746,,,,sub-068,1.0,random_dot,,
left,left,20.0,0.0,10.0,right,0.0,1.4371914969524369,,accuracy,space,2.098919140989892,,,,,,0.0,0.0,0.0,0.0,10.0,0.0,20.0,0.0,129.21896297496278,,,,,,,,,129.20616971998243,130.4023310399498,131.1952687529847,131.18711206194712,131.18759745400166,131.1952687529847,131.1952687529847,131.1952687529847,132.63958589895628,,,,,,,,,,,,,,,,,,,,,,,,,,,,,,right,0.0,1.4371914969524369,,,,sub-068,1.0,random_dot,,
right,right,21.0,1.0,10.0,left,0.0,1.748946990002878,,accuracy,space,2.098919140989892,,,,,,0.0,0.0,0.0,0.0,10.0,1.0,21.0,1.0,132.64676800294546,,,,,,,,,132.63980676495703,132.73727861599764,133.52854893094627,133.5205089049996,133.52096395898843,133.52854893094627,133.52854893094627,133.52854893094627,135.28013627795735,,,,,,,,,,,,,,,,,,,,,,,,,,,,,,left,0.0,1.748946990002878,,,,sub-068,1.0,random_dot,,
left,left,22.0,0.0,11.0,right,0.0,2.466694467002526,,accuracy,space,2.098919140989892,,,,,,0.0,0.0,0.0,0.0,11.0,0.0,22.0,0.0,135.3025945769623,,,,,,,,,135.28041583899176,136.47494374995586,137.27108906098874,137.2590736289858,137.25981396896532,137.27108906098874,137.27108906098874,137.27108906098874,139.74494595598662,,,,,,,,,,,,,,,,,,,,,,,,,,,,,,right,0.0,2.466694467002526,,,,sub-068,1.0,random_dot,,
right,right,23.0,1.0,11.0,right,1.0,1.98144763300661,,accuracy,space,2.098919140989892,,,,,,0.0,0.0,0.0,0.0,11.0,1.0,23.0,1.0,139.7539843999548,,,,,,,,,139.74519187497208,139.84189976594644,140.63714086299296,140.62619946396444,140.62701758899493,140.63714086299296,140.63714086299296,140.63714086299296,142.62304881599266,,,,,,,,,,,,,,,,,,,,,,,,,,,,,,right,1.0,1.98144763300661,,,,sub-068,1.0,random_dot,,
left,left,24.0,0.0,12.0,right,0.0,0.8762496419949457,,accuracy,space,2.098919140989892,,,,,,0.0,0.0,0.0,0.0,12.0,0.0,24.0,0.0,142.63559054699726,,,,,,,,,142.62348013196606,142.96957309299614,143.76931279397104,143.75607653794577,143.7567330049933,143.76931279397104,143.76931279397104,143.76931279397104,144.6561509849853,,,,,,,,,,,,,,,,,,,,,,,,,,,,,,right,0.0,0.8762496419949457,,,,sub-068,1.0,random_dot,,
right,right,25.0,1.0,12.0,right,1.0,2.175776434014552,,accuracy,space,2.098919140989892,,,,,,0.0,0.0,0.0,0.0,12.0,1.0,25.0,1.0,144.66889765794622,,,,,,,,,144.65642172895605,144.75280906498665,145.54583559394814,145.53608513996005,145.5365454669809,145.54583559394814,145.54583559394814,145.54583559394814,147.7364740849589,,,,,,,,,,,,,,,,,,,,,,,,,,,,,,right,1.0,2.175776434014552,,,,sub-068,1.0,random_dot,,
left,left,26.0,0.0,13.0,left,1.0,2.08309004601324,,accuracy,space,2.098919140989892,,,,,,0.0,0.0,0.0,0.0,13.0,0.0,26.0,0.0,147.74467060697498,,,,,,,,,147.73674810299417,147.8254962899955,148.6204773109639,148.60943730198778,148.6103963679634,148.6204773109639,148.6204773109639,148.6204773109639,150.70557292900048,,,,,,,,,,,,,,,,,,,,,,,,,,,,,,left,1.0,2.08309004601324,,,,sub-068,1.0,random_dot,,
right,right,27.0,1.0,13.0,left,0.0,1.0030012559727766,,accuracy,space,2.098919140989892,,,,,,0.0,0.0,0.0,0.0,13.0,1.0,27.0,1.0,150.71202269097557,,,,,,,,,150.70595595397754,150.80319451499963,151.5956045689527,151.58630800899118,151.58676586399088,151.5956045689527,151.5956045689527,151.5956045689527,152.60271317599108,,,,,,,,,,,,,,,,,,,,,,,,,,,,,,left,0.0,1.0030012559727766,,,,sub-068,1.0,random_dot,,
right,right,28.0,0.0,14.0,right,1.0,0.7165815129992552,,accuracy,space,2.098919140989892,,,,,,0.0,0.0,0.0,0.0,14.0,0.0,28.0,1.0,152.61874125298343,,,,,,,,,152.60312872595387,152.69179076497676,153.5020583809819,153.4768699639826,153.4776681609801,153.5020583809819,153.5020583809819,153.5020583809819,154.22123979596654,,,,,,,,,,,,,,,,,,,,,,,,,,,,,,right,1.0,0.7165815129992552,,,,sub-068,1.0,random_dot,,
left,left,29.0,1.0,14.0,left,1.0,0.9349314760183915,,accuracy,space,2.098919140989892,,,,,,0.0,0.0,0.0,0.0,14.0,1.0,29.0,0.0,154.2269050529576,,,,,,,,,154.22148964297958,155.01920314499876,155.81103228096617,155.80286874296144,155.80332755495328,155.81103228096617,155.81103228096617,155.81103228096617,156.7488193239551,,,,,,,,,,,,,,,,,,,,,,,,,,,,,,left,1.0,0.9349314760183915,,,,sub-068,1.0,random_dot,,
left,left,30.0,0.0,15.0,right,0.0,1.271196824964136,,accuracy,space,2.098919140989892,,,,,,0.0,0.0,0.0,0.0,15.0,0.0,30.0,0.0,156.75589986995328,,,,,,,,,156.74917915597325,156.84299621294485,157.63833918696037,157.62600131495856,157.62679756997386,157.63833918696037,157.63833918696037,157.63833918696037,158.9203394439537,,,,,,,,,,,,,,,,,,,,,,,,,,,,,,right,0.0,1.271196824964136,,,,sub-068,1.0,random_dot,,
right,right,31.0,1.0,15.0,right,1.0,2.51149850001093,,accuracy,space,2.098919140989892,,,,,,0.0,0.0,0.0,0.0,15.0,1.0,31.0,1.0,158.93578920996515,,,,,,,,,158.92075518798083,159.0100557959522,159.80508097395068,159.7939537849743,159.79476701800013,159.80508097395068,159.80508097395068,159.80508097395068,162.33933088497724,,,,,,,,,,,,,,,,,,,,,,,,,,,,,,right,1.0,2.51149850001093,,,,sub-068,1.0,random_dot,,
right,right,32.0,0.0,16.0,left,0.0,1.5331713919877077,,accuracy,space,2.098919140989892,,,,,,0.0,0.0,0.0,0.0,16.0,0.0,32.0,1.0,162.3521908869734,,,,,,,,,162.3401005519554,163.53532351797912,164.32761388097424,164.31958026398206,164.3200296489522,164.32761388097424,164.32761388097424,164.32761388097424,165.8626057129586,,,,,,,,,,,,,,,,,,,,,,,,,,,,,,left,0.0,1.5331713919877077,,,,sub-068,1.0,random_dot,,
left,left,33.0,1.0,16.0,right,0.0,1.6743463189923204,,accuracy,space,2.098919140989892,,,,,,0.0,0.0,0.0,0.0,16.0,1.0,33.0,0.0,165.88534587196773,,,,,,,,,165.86298290098784,166.2100922719692,167.0190650059958,167.00546495598974,167.0061173539725,167.0190650059958,167.0190650059958,167.0190650059958,168.70276820799336,,,,,,,,,,,,,,,,,,,,,,,,,,,,,,right,0.0,1.6743463189923204,,,,sub-068,1.0,random_dot,,
left,left,34.0,0.0,17.0,left,1.0,0.9474695909884758,,accuracy,space,2.098919140989892,,,,,,0.0,0.0,0.0,0.0,17.0,0.0,34.0,0.0,168.7104848739691,,,,,,,,,168.70302058494417,169.89208998798858,170.68617849994916,170.67573989595985,170.6763370539993,170.68617849994916,170.68617849994916,170.68617849994916,171.6364022969501,,,,,,,,,,,,,,,,,,,,,,,,,,,,,,left,1.0,0.9474695909884758,,,,sub-068,1.0,random_dot,,
right,right,35.0,1.0,17.0,right,1.0,0.8523894239915535,,accuracy,space,2.098919140989892,,,,,,0.0,0.0,0.0,0.0,17.0,1.0,35.0,1.0,171.6424253959558,,,,,,,,,171.63666410394944,172.82574675796786,173.620357865002,173.60939347097883,173.61019084096188,173.620357865002,173.620357865002,173.620357865002,174.4740879960009,,,,,,,,,,,,,,,,,,,,,,,,,,,,,,right,1.0,0.8523894239915535,,,,sub-068,1.0,random_dot,,
left,left,36.0,0.0,18.0,left,1.0,1.0375301870517433,,accuracy,space,2.098919140989892,,,,,,0.0,0.0,0.0,0.0,18.0,0.0,36.0,0.0,174.48517772596097,,,,,,,,,174.47434404294472,174.81778795697028,175.61310147499898,175.603585120989,175.60417772899382,175.61310147499898,175.61310147499898,175.61310147499898,176.65524945996003,,,,,,,,,,,,,,,,,,,,,,,,,,,,,,left,1.0,1.0375301870517433,,,,sub-068,1.0,random_dot,,
right,right,37.0,1.0,18.0,right,1.0,1.0063764739898031,,accuracy,space,2.098919140989892,,,,,,0.0,0.0,0.0,0.0,18.0,1.0,37.0,1.0,176.66268178395694,,,,,,,,,176.6556660149945,177.00343097094446,177.80227248894516,177.79171466699336,177.79243433696683,177.80227248894516,177.80227248894516,177.80227248894516,178.81926605396438,,,,,,,,,,,,,,,,,,,,,,,,,,,,,,right,1.0,1.0063764739898031,,,,sub-068,1.0,random_dot,,
right,right,38.0,0.0,19.0,right,1.0,1.042101947008632,,accuracy,space,2.098919140989892,,,,,,0.0,0.0,0.0,0.0,19.0,0.0,38.0,1.0,178.8257479799795,,,,,,,,,178.81953546998557,178.90991118794773,179.71146631694864,179.7035834179842,179.70403890195303,179.71146631694864,179.71146631694864,179.71146631694864,180.7617445719661,,,,,,,,,,,,,,,,,,,,,,,,,,,,,,right,1.0,1.042101947008632,,,,sub-068,1.0,random_dot,,
left,left,39.0,1.0,19.0,left,1.0,0.9518559210118838,,accuracy,space,2.098919140989892,,,,,,0.0,0.0,0.0,0.0,19.0,1.0,39.0,0.0,180.77153827698203,,,,,,,,,180.76205910398855,180.85971250699367,181.65566675399896,181.6432604479487,181.64406617195343,181.65566675399896,181.65566675399896,181.65566675399896,182.61505053099245,,,,,,,,,,,,,,,,,,,,,,,,,,,,,,left,1.0,0.9518559210118838,,,,sub-068,1.0,random_dot,,
left,left,40.0,0.0,20.0,left,1.0,1.6777576329768635,,accuracy,space,2.098919140989892,,,,,,0.0,0.0,0.0,0.0,20.0,0.0,40.0,0.0,182.6221468909644,,,,,,,,,182.61528721498323,182.95819036394823,183.75202801794512,183.741363471956,183.7419411849696,183.75202801794512,183.75202801794512,183.75202801794512,185.4528499149601,,,,,,,,,,,,,,,,,,,,,,,,,,,,,,left,1.0,1.6777576329768635,,,,sub-068,1.0,random_dot,,
right,right,41.0,1.0,20.0,right,1.0,1.3998363640275784,,accuracy,space,2.098919140989892,,,,,,0.0,0.0,0.0,0.0,20.0,1.0,41.0,1.0,185.4598809639574,,,,,,,,,185.45315364998527,186.2418145039701,187.0357549749897,187.02588365698463,187.026514141995,187.0357549749897,187.0357549749897,187.0357549749897,188.4368499709526,,,,,,,,,,,,,,,,,,,,,,,,,,,,,,right,1.0,1.3998363640275784,,,,sub-068,1.0,random_dot,,
right,right,42.0,0.0,21.0,left,0.0,2.0205501160235144,,accuracy,space,2.098919140989892,,,,,,0.0,0.0,0.0,0.0,21.0,0.0,42.0,1.0,188.44227985898036,,,,,,,,,188.4370974149788,189.63678836496547,190.43630375596692,190.4252984309569,190.42608383396876,190.43630375596692,190.43630375596692,190.43630375596692,192.4699017209932,,,,,,,,,,,,,,,,,,,,,,,,,,,,,,left,0.0,2.0205501160235144,,,,sub-068,1.0,random_dot,,
left,left,43.0,1.0,21.0,right,0.0,2.288833665021229,,accuracy,space,2.098919140989892,,,,,,0.0,0.0,0.0,0.0,21.0,1.0,43.0,0.0,192.47646256594453,,,,,,,,,192.4701718429569,192.559837326,193.35387918294876,193.34312463895185,193.34390982799232,193.35387918294876,193.35387918294876,193.35387918294876,195.65359044098292,,,,,,,,,,,,,,,,,,,,,,,,,,,,,,right,0.0,2.288833665021229,,,,sub-068,1.0,random_dot,,
left,left,44.0,0.0,22.0,left,1.0,2.5226914020022377,,accuracy,space,2.098919140989892,,,,,,0.0,0.0,0.0,0.0,22.0,0.0,44.0,0.0,195.66257040796336,,,,,,,,,195.6540813939646,196.4430560729816,197.245072562946,197.23685718496563,197.23740880098197,197.245072562946,197.245072562946,197.245072562946,199.7705942259636,,,,,,,,,,,,,,,,,,,,,,,,,,,,,,left,1.0,2.5226914020022377,,,,sub-068,1.0,random_dot,,
right,right,45.0,1.0,22.0,right,1.0,2.464159194962121,,accuracy,space,2.098919140989892,,,,,,0.0,0.0,0.0,0.0,22.0,1.0,45.0,1.0,199.77816930698464,,,,,,,,,199.7708751539467,199.8689099579933,200.6614644039655,200.65264400298477,200.65325812995437,200.6614644039655,200.6614644039655,200.6614644039655,203.12803515099225,,,,,,,,,,,,,,,,,,,,,,,,,,,,,,right,1.0,2.464159194962121,,,,sub-068,1.0,random_dot,,
left,left,46.0,0.0,23.0,left,1.0,1.218295291007962,,accuracy,space,2.098919140989892,,,,,,0.0,0.0,0.0,0.0,23.0,0.0,46.0,0.0,203.1349181529949,,,,,,,,,203.12833775597392,203.92618076398503,204.7264591359999,204.7188321889844,204.71929956495296,204.7264591359999,204.7264591359999,204.7264591359999,205.9530597559642,,,,,,,,,,,,,,,,,,,,,,,,,,,,,,left,1.0,1.218295291007962,,,,sub-068,1.0,random_dot,,
right,right,47.0,1.0,23.0,left,0.0,1.0153937640134243,,accuracy,space,2.098919140989892,,,,,,0.0,0.0,0.0,0.0,23.0,1.0,47.0,1.0,205.95992171694525,,,,,,,,,205.9533082799753,206.3031090969453,207.10318180097968,207.0921797049814,207.09297662996687,207.10318180097968,207.10318180097968,207.10318180097968,208.1274410019978,,,,,,,,,,,,,,,,,,,,,,,,,,,,,,left,0.0,1.0153937640134243,,,,sub-068,1.0,random_dot,,
left,left,48.0,0.0,24.0,left,1.0,2.213278845010791,,accuracy,space,2.098919140989892,,,,,,0.0,0.0,0.0,0.0,24.0,0.0,48.0,0.0,208.13601561594987,,,,,,,,,208.12769138696603,208.23627982195467,209.0354806879768,209.02523914299672,209.02590353100092,209.0354806879768,209.0354806879768,209.0354806879768,211.25697963195853,,,,,,,,,,,,,,,,,,,,,,,,,,,,,,left,1.0,2.213278845010791,,,,sub-068,1.0,random_dot,,
right,right,49.0,1.0,24.0,right,1.0,1.4598253479925916,,accuracy,space,2.098919140989892,,,,,,0.0,0.0,0.0,0.0,24.0,1.0,49.0,1.0,211.2679768379894,,,,,,,,,211.25726790196492,212.0512417559512,212.84499274997503,212.83552289899671,212.8359753959812,212.84499274997503,212.84499274997503,212.84499274997503,214.31368154095253,,,,,,,,,,,,,,,,,,,,,,,,,,,,,,right,1.0,1.4598253479925916,,,,sub-068,1.0,random_dot,,
left,left,50.0,0.0,25.0,right,0.0,1.1697995000286028,,accuracy,space,2.098919140989892,,,,,,0.0,0.0,0.0,0.0,25.0,0.0,50.0,0.0,214.3207793739857,,,,,,,,,214.31396267097443,215.10952731396537,215.911977486976,215.90243416198064,215.90302859200165,215.911977486976,215.911977486976,215.911977486976,217.0873160599731,,,,,,,,,,,,,,,,,,,,,,,,,,,,,,right,0.0,1.1697995000286028,,,,sub-068,1.0,random_dot,,
right,right,51.0,1.0,25.0,right,1.0,1.5709229659987614,,accuracy,space,2.098919140989892,,,,,,0.0,0.0,0.0,0.0,25.0,1.0,51.0,1.0,217.0936500459793,,,,,,,,,217.08753111498663,218.28492347494463,219.0779252309585,219.0698414099752,219.0703106369474,219.0779252309585,219.0779252309585,219.0779252309585,220.6702614919632,,,,,,,,,,,,,,,,,,,,,,,,,,,,,,right,1.0,1.5709229659987614,,,,sub-068,1.0,random_dot,,
left,left,52.0,0.0,26.0,left,1.0,2.324920234037563,,accuracy,space,2.098919140989892,,,,,,0.0,0.0,0.0,0.0,26.0,0.0,52.0,0.0,220.67879766394617,,,,,,,,,220.6706596579752,220.76945329096637,221.56887801998528,221.5583087099949,221.55906370998127,221.56887801998528,221.56887801998528,221.56887801998528,223.90440775296884,,,,,,,,,,,,,,,,,,,,,,,,,,,,,,left,1.0,2.324920234037563,,,,sub-068,1.0,random_dot,,
right,right,53.0,1.0,26.0,right,1.0,1.1252541350550018,,accuracy,space,2.098919140989892,,,,,,0.0,0.0,0.0,0.0,26.0,1.0,53.0,1.0,223.9114355299971,,,,,,,,,223.9046631929814,224.00237554998603,224.7934708760004,224.7854032960022,224.78590303997044,224.7934708760004,224.7934708760004,224.7934708760004,225.91997155197896,,,,,,,,,,,,,,,,,,,,,,,,,,,,,,right,1.0,1.1252541350550018,,,,sub-068,1.0,random_dot,,
left,left,54.0,0.0,27.0,left,1.0,1.0376392169855535,,accuracy,space,2.098919140989892,,,,,,0.0,0.0,0.0,0.0,27.0,0.0,54.0,0.0,225.92605858499883,,,,,,,,,225.92022750299657,226.71814191696467,227.51121285097904,227.5030293269665,227.5034865199705,227.51121285097904,227.51121285097904,227.51121285097904,228.5526041299454,,,,,,,,,,,,,,,,,,,,,,,,,,,,,,left,1.0,1.0376392169855535,,,,sub-068,1.0,random_dot,,
right,right,55.0,1.0,27.0,right,1.0,2.283110612013843,,accuracy,space,2.098919140989892,,,,,,0.0,0.0,0.0,0.0,27.0,1.0,55.0,1.0,228.56054707395376,,,,,,,,,228.55304121098013,228.6514988199924,229.4427115569706,229.4342632549815,229.43504600797317,229.4427115569706,229.4427115569706,229.4427115569706,231.73025104799308,,,,,,,,,,,,,,,,,,,,,,,,,,,,,,right,1.0,2.283110612013843,,,,sub-068,1.0,random_dot,,
right,right,56.0,0.0,28.0,right,1.0,1.6262029850040562,,accuracy,space,2.098919140989892,,,,,,0.0,0.0,0.0,0.0,28.0,0.0,56.0,1.0,231.73638889798892,,,,,,,,,231.730548367952,232.9253599419608,233.72663525794636,233.7185909319669,233.71905278798656,233.72663525794636,233.72663525794636,233.72663525794636,235.3542521209456,,,,,,,,,,,,,,,,,,,,,,,,,,,,,,right,1.0,1.6262029850040562,,,,sub-068,1.0,random_dot,,
left,left,57.0,1.0,28.0,right,0.0,1.5583480329951271,,accuracy,space,2.098919140989892,,,,,,0.0,0.0,0.0,0.0,28.0,1.0,57.0,0.0,235.36076682194837,,,,,,,,,235.35467621596763,235.70259000197984,236.49636589194412,236.486333105946,236.4872113839956,236.49636589194412,236.49636589194412,236.49636589194412,238.06312405597416,,,,,,,,,,,,,,,,,,,,,,,,,,,,,,right,0.0,1.5583480329951271,,,,sub-068,1.0,random_dot,,
right,right,58.0,0.0,29.0,left,0.0,1.7428299150196835,,accuracy,space,2.098919140989892,,,,,,0.0,0.0,0.0,0.0,29.0,0.0,58.0,1.0,238.0703876439948,,,,,,,,,238.0634647929692,238.40758849296253,239.2109899409697,239.2027765379753,239.2032290559728,239.2109899409697,239.2109899409697,239.2109899409697,240.9618630959885,,,,,,,,,,,,,,,,,,,,,,,,,,,,,,left,0.0,1.7428299150196835,,,,sub-068,1.0,random_dot,,
left,left,59.0,1.0,29.0,left,1.0,1.2727779860142618,,accuracy,space,2.098919140989892,,,,,,0.0,0.0,0.0,0.0,29.0,1.0,59.0,0.0,240.9703789519845,,,,,,,,,240.96211133798352,242.15831393294505,242.96100643998943,242.9513431169908,242.95204852498136,242.96100643998943,242.96100643998943,242.96100643998943,244.23558535799384,,,,,,,,,,,,,,,,,,,,,,,,,,,,,,left,1.0,1.2727779860142618,,,,sub-068,1.0,random_dot,,
,,0.0,0.0,0.0,,,,,accuracy,space,2.098919140989892,,,,,,0.0,0.0,0.0,0.0,,,,,,,,,,,,,,,,,,,,,,,,,,,,,,,,,,,,,,,,,,,,,,,,,,,,,,,,,,sub-068,1.0,random_dot,,
left,left,0.0,0.0,0.0,right,0.0,0.5664826899883337,,speed,space,2.488955424982123,,,,,,0.0,1.0,1.0,1.0,0.0,0.0,0.0,0.0,246.7639442969812,,,,,,,,,246.75614624796435,247.9513115369482,248.7446360399481,248.73507514898665,248.7356982039637,248.7446360399481,248.7446360399481,248.7446360399481,249.31311415799428,,,,,,,,,,,,,,,,,,,,,,,244.2434188689804,244.25290882599077,244.25290882599077,246.7523179539712,space,2.488955424982123,,right,0.0,0.5664826899883337,,,,sub-068,1.0,random_dot,,
right,right,1.0,1.0,0.0,left,0.0,0.6954467159812339,,speed,space,2.488955424982123,,,,,,0.0,1.0,1.0,1.0,0.0,1.0,1.0,1.0,249.3208792709629,,,,,,,,,249.3134166119853,250.10744759097,250.90245075896385,250.89141274394933,250.892201974988,250.90245075896385,250.90245075896385,250.90245075896385,251.61963475396624,,,,,,,,,,,,,,,,,,,,,,,,,,,,,,left,0.0,0.6954467159812339,,,,sub-068,1.0,random_dot,,
right,right,2.0,0.0,1.0,right,1.0,0.904265327961184,,speed,space,2.488955424982123,,,,,,0.0,1.0,1.0,1.0,1.0,0.0,2.0,1.0,251.6266830779496,,,,,,,,,251.6200293949805,251.71737251000013,252.50957124796696,252.50156414095545,252.5020174769452,252.50957124796696,252.50957124796696,252.50957124796696,253.4359337729984,,,,,,,,,,,,,,,,,,,,,,,,,,,,,,right,1.0,0.904265327961184,,,,sub-068,1.0,random_dot,,
left,left,3.0,1.0,1.0,left,1.0,1.0143393489997834,,speed,space,2.488955424982123,,,,,,0.0,1.0,1.0,1.0,1.0,1.0,3.0,0.0,253.443800332956,,,,,,,,,253.43623762897917,253.52546040399463,254.32871872198305,254.3192843789584,254.3198695689789,254.32871872198305,254.32871872198305,254.32871872198305,255.34759527695127,,,,,,,,,,,,,,,,,,,,,,,,,,,,,,left,1.0,1.0143393489997834,,,,sub-068,1.0,random_dot,,
left,left,4.0,0.0,2.0,right,0.0,0.7590606390149333,,speed,space,2.488955424982123,,,,,,0.0,1.0,1.0,1.0,2.0,0.0,4.0,0.0,255.3549176179804,,,,,,,,,255.34786802798044,255.44189101096708,256.2508233099943,256.23665952595184,256.23714389797533,256.2508233099943,256.2508233099943,256.2508233099943,257.01820841099834,,,,,,,,,,,,,,,,,,,,,,,,,,,,,,right,0.0,0.7590606390149333,,,,sub-068,1.0,random_dot,,
right,right,5.0,1.0,2.0,left,0.0,0.6424664449878037,,speed,space,2.488955424982123,,,,,,0.0,1.0,1.0,1.0,2.0,1.0,5.0,1.0,257.02482595999027,,,,,,,,,257.01846357097384,257.10828565596603,257.9043681269977,257.89298165094806,257.8937701179529,257.9043681269977,257.9043681269977,257.9043681269977,258.5562596449745,,,,,,,,,,,,,,,,,,,,,,,,,,,,,,left,0.0,0.6424664449878037,,,,sub-068,1.0,random_dot,,
left,left,6.0,0.0,3.0,left,1.0,0.5885404509608634,,speed,space,2.488955424982123,,,,,,0.0,1.0,1.0,1.0,3.0,0.0,6.0,0.0,258.5670735779568,,,,,,,,,258.5565281979507,258.90212933399016,259.69357398396824,259.6855476979981,259.6860028919764,259.69357398396824,259.69357398396824,259.69357398396824,260.28540609497577,,,,,,,,,,,,,,,,,,,,,,,,,,,,,,left,1.0,0.5885404509608634,,,,sub-068,1.0,random_dot,,
right,right,7.0,1.0,3.0,left,0.0,0.64457968599163,,speed,space,2.488955424982123,,,,,,0.0,1.0,1.0,1.0,3.0,1.0,7.0,1.0,260.29319613496773,,,,,,,,,260.28578672296135,261.4754785449477,262.2774257399724,262.26921501394827,262.269660416001,262.2774257399724,262.2774257399724,262.2774257399724,262.92581832094584,,,,,,,,,,,,,,,,,,,,,,,,,,,,,,left,0.0,0.64457968599163,,,,sub-068,1.0,random_dot,,
right,right,8.0,0.0,4.0,right,1.0,0.7011363579658791,,speed,space,2.488955424982123,,,,,,0.0,1.0,1.0,1.0,4.0,0.0,8.0,1.0,262.9331756149768,,,,,,,,,262.9261095059919,263.0264429919771,263.82779175497126,263.81814223894617,263.8186027149786,263.82779175497126,263.82779175497126,263.82779175497126,264.53824604395777,,,,,,,,,,,,,,,,,,,,,,,,,,,,,,right,1.0,0.7011363579658791,,,,sub-068,1.0,random_dot,,
left,left,9.0,1.0,4.0,left,1.0,0.6955810229992494,,speed,space,2.488955424982123,,,,,,0.0,1.0,1.0,1.0,4.0,1.0,9.0,0.0,264.551160590956,,,,,,,,,264.5384893729933,264.63720302894944,265.45024548098445,265.4266560219694,265.4272800280014,265.45024548098445,265.45024548098445,265.45024548098445,266.1540163299651,,,,,,,,,,,,,,,,,,,,,,,,,,,,,,left,1.0,0.6955810229992494,,,,sub-068,1.0,random_dot,,
left,left,10.0,0.0,5.0,right,0.0,0.9601672859862448,,speed,space,2.488955424982123,,,,,,0.0,1.0,1.0,1.0,5.0,0.0,10.0,0.0,266.160557990952,,,,,,,,,266.1542307729833,266.9509929429624,267.74612342298497,267.73607934400206,267.73673486098414,267.74612342298497,267.74612342298497,267.74612342298497,268.71988275594776,,,,,,,,,,,,,,,,,,,,,,,,,,,,,,right,0.0,0.9601672859862448,,,,sub-068,1.0,random_dot,,
right,right,11.0,1.0,5.0,right,1.0,0.7525963390362449,,speed,space,2.488955424982123,,,,,,0.0,1.0,1.0,1.0,5.0,1.0,11.0,1.0,268.7343019639957,,,,,,,,,268.7204665269819,269.06766732997494,269.85932155296905,269.8513581299921,269.8518096979824,269.85932155296905,269.85932155296905,269.85932155296905,270.63537598296534,,,,,,,,,,,,,,,,,,,,,,,,,,,,,,right,1.0,0.7525963390362449,,,,sub-068,1.0,random_dot,,
left,left,12.0,0.0,6.0,left,1.0,0.6080681800376624,,speed,space,2.488955424982123,,,,,,0.0,1.0,1.0,1.0,6.0,0.0,12.0,0.0,270.64334552397486,,,,,,,,,270.63575352699263,271.43498955096584,272.23423860996263,272.2207870549755,272.2214402849786,272.23423860996263,272.23423860996263,272.23423860996263,272.85373495996464,,,,,,,,,,,,,,,,,,,,,,,,,,,,,,left,1.0,0.6080681800376624,,,,sub-068,1.0,random_dot,,
right,right,13.0,1.0,6.0,left,0.0,0.6459609200246632,,speed,space,2.488955424982123,,,,,,0.0,1.0,1.0,1.0,6.0,1.0,13.0,1.0,272.86299929296365,,,,,,,,,272.85425352398306,273.2007324610022,273.9940116519574,273.9847079559695,273.98516480997205,273.9940116519574,273.9940116519574,273.9940116519574,274.64454360998934,,,,,,,,,,,,,,,,,,,,,,,,,,,,,,left,0.0,0.6459609200246632,,,,sub-068,1.0,random_dot,,
right,right,14.0,0.0,7.0,left,0.0,0.8670133510022424,,speed,space,2.488955424982123,,,,,,0.0,1.0,1.0,1.0,7.0,0.0,14.0,1.0,274.6535417799605,,,,,,,,,274.64479224494426,274.740990596998,275.54989040695364,275.52540980099,275.5262152409996,275.54989040695364,275.54989040695364,275.54989040695364,276.4205637809937,,,,,,,,,,,,,,,,,,,,,,,,,,,,,,left,0.0,0.8670133510022424,,,,sub-068,1.0,random_dot,,
left,left,15.0,1.0,7.0,right,0.0,1.219406149990391,,speed,space,2.488955424982123,,,,,,0.0,1.0,1.0,1.0,7.0,1.0,15.0,0.0,276.4273855199572,,,,,,,,,276.4209274390014,277.61769754998386,278.4089462699485,278.40112336399034,278.4015772289713,278.4089462699485,278.4089462699485,278.4089462699485,279.6348434309475,,,,,,,,,,,,,,,,,,,,,,,,,,,,,,right,0.0,1.219406149990391,,,,sub-068,1.0,random_dot,,
right,right,16.0,0.0,8.0,right,1.0,0.6736754940357059,,speed,space,2.488955424982123,,,,,,0.0,1.0,1.0,1.0,8.0,0.0,16.0,1.0,279.6412456269609,,,,,,,,,279.63505773298675,280.82437214197125,281.61850067897467,281.60745543194935,281.6082393269753,281.61850067897467,281.61850067897467,281.61850067897467,282.3023032809724,,,,,,,,,,,,,,,,,,,,,,,,,,,,,,right,1.0,0.6736754940357059,,,,sub-068,1.0,random_dot,,
left,left,17.0,1.0,8.0,left,1.0,0.6773291560239159,,speed,space,2.488955424982123,,,,,,0.0,1.0,1.0,1.0,8.0,1.0,17.0,0.0,282.3095301689464,,,,,,,,,282.3026918959804,283.5003324629506,284.2925482519786,284.28455531195505,284.2850099969655,284.2925482519786,284.2925482519786,284.2925482519786,284.9780837799772,,,,,,,,,,,,,,,,,,,,,,,,,,,,,,left,1.0,0.6773291560239159,,,,sub-068,1.0,random_dot,,
right,right,18.0,0.0,9.0,right,1.0,1.141411034972407,,speed,space,2.488955424982123,,,,,,0.0,1.0,1.0,1.0,9.0,0.0,18.0,1.0,284.9858791139559,,,,,,,,,284.97829812497366,285.77492085599806,286.57570931100054,286.56760277797,286.5680596579914,286.57570931100054,286.57570931100054,286.57570931100054,287.73511041497113,,,,,,,,,,,,,,,,,,,,,,,,,,,,,,right,1.0,1.141411034972407,,,,sub-068,1.0,random_dot,,
left,left,19.0,1.0,9.0,left,1.0,1.655097302980721,,speed,space,2.488955424982123,,,,,,0.0,1.0,1.0,1.0,9.0,1.0,19.0,0.0,287.74342729896307,,,,,,,,,287.73548939597094,287.83403986599296,288.6259641349898,288.61794597195694,288.6183997199987,288.6259641349898,288.6259641349898,288.6259641349898,290.30144095397554,,,,,,,,,,,,,,,,,,,,,,,,,,,,,,left,1.0,1.655097302980721,,,,sub-068,1.0,random_dot,,
left,left,20.0,0.0,10.0,right,0.0,0.8039961530012079,,speed,space,2.488955424982123,,,,,,0.0,1.0,1.0,1.0,10.0,0.0,20.0,0.0,290.3150656299549,,,,,,,,,290.301864369947,291.09142776898807,291.8929349620012,291.88525466498686,291.8857393270009,291.8929349620012,291.8929349620012,291.8929349620012,292.7031840219861,,,,,,,,,,,,,,,,,,,,,,,,,,,,,,right,0.0,0.8039961530012079,,,,sub-068,1.0,random_dot,,
right,right,21.0,1.0,10.0,left,0.0,0.6981716409791261,,speed,space,2.488955424982123,,,,,,0.0,1.0,1.0,1.0,10.0,1.0,21.0,1.0,292.7100573629723,,,,,,,,,292.7034047259949,293.4996619929443,294.2923965889495,294.2848673579865,294.2852594569558,294.2923965889495,294.2923965889495,294.2923965889495,295.0005644679768,,,,,,,,,,,,,,,,,,,,,,,,,,,,,,left,0.0,0.6981716409791261,,,,sub-068,1.0,random_dot,,
left,left,22.0,0.0,11.0,left,1.0,0.6939409439801238,,speed,space,2.488955424982123,,,,,,0.0,1.0,1.0,1.0,11.0,0.0,22.0,0.0,295.0170713059488,,,,,,,,,295.0008095839876,296.19149786396883,296.992125359946,296.98427894397173,296.98474374599755,296.992125359946,296.992125359946,296.992125359946,297.6878392569488,,,,,,,,,,,,,,,,,,,,,,,,,,,,,,left,1.0,0.6939409439801238,,,,sub-068,1.0,random_dot,,
right,right,23.0,1.0,11.0,left,0.0,1.6246404300327413,,speed,space,2.488955424982123,,,,,,0.0,1.0,1.0,1.0,11.0,1.0,23.0,1.0,297.7011732959654,,,,,,,,,297.68810280796606,297.78518946596887,298.5835005109548,298.57316762697883,298.5736993099563,298.5835005109548,298.5835005109548,298.5835005109548,300.21142461296404,,,,,,,,,,,,,,,,,,,,,,,,,,,,,,left,0.0,1.6246404300327413,,,,sub-068,1.0,random_dot,,
right,right,24.0,0.0,12.0,right,1.0,1.6355546489940025,,speed,space,2.488955424982123,,,,,,0.0,1.0,1.0,1.0,12.0,0.0,24.0,1.0,300.2191711839987,,,,,,,,,300.2116772219888,300.3083255869569,301.1014474859694,301.0913246869459,301.0921285019722,301.1014474859694,301.1014474859694,301.1014474859694,302.7525422159815,,,,,,,,,,,,,,,,,,,,,,,,,,,,,,right,1.0,1.6355546489940025,,,,sub-068,1.0,random_dot,,
left,left,25.0,1.0,12.0,left,1.0,2.058457717008423,,speed,space,2.488955424982123,,,,,,0.0,1.0,1.0,1.0,12.0,1.0,25.0,0.0,302.76050781598315,,,,,,,,,302.7529732909752,303.0918466949952,303.88470404897816,303.8751393119456,303.8757268670015,303.88470404897816,303.88470404897816,303.88470404897816,305.95160031097475,,,,,,,,,,,,,,,,,,,,,,,,,,,,,,left,1.0,2.058457717008423,,,,sub-068,1.0,random_dot,,
right,right,26.0,0.0,13.0,right,1.0,0.6885932949953713,,speed,space,2.488955424982123,,,,,,0.0,1.0,1.0,1.0,13.0,0.0,26.0,1.0,305.959043003968,,,,,,,,,305.9518140339642,306.3007745879586,307.09457221999764,307.0851847009617,307.08576779294526,307.09457221999764,307.09457221999764,307.09457221999764,307.7857957609813,,,,,,,,,,,,,,,,,,,,,,,,,,,,,,right,1.0,0.6885932949953713,,,,sub-068,1.0,random_dot,,
left,left,27.0,1.0,13.0,left,1.0,0.6181641719886102,,speed,space,2.488955424982123,,,,,,0.0,1.0,1.0,1.0,13.0,1.0,27.0,0.0,307.7922814129852,,,,,,,,,307.786041571002,308.1243241199991,308.9338877009577,308.920256422949,308.9209075989784,308.9338877009577,308.9338877009577,308.9338877009577,309.55362348398194,,,,,,,,,,,,,,,,,,,,,,,,,,,,,,left,1.0,0.6181641719886102,,,,sub-068,1.0,random_dot,,
right,right,28.0,0.0,14.0,left,0.0,1.052346402022522,,speed,space,2.488955424982123,,,,,,0.0,1.0,1.0,1.0,14.0,0.0,28.0,1.0,309.56652247696184,,,,,,,,,309.55394625797635,310.7503771679476,311.54373505094554,311.5344018949545,311.53500078595243,311.54373505094554,311.54373505094554,311.54373505094554,312.6198771959753,,,,,,,,,,,,,,,,,,,,,,,,,,,,,,left,0.0,1.052346402022522,,,,sub-068,1.0,random_dot,,
left,left,29.0,1.0,14.0,right,0.0,0.7505628250073642,,speed,space,2.488955424982123,,,,,,0.0,1.0,1.0,1.0,14.0,1.0,29.0,0.0,312.6336648379802,,,,,,,,,312.62058940000134,312.71690984495217,313.51154126995243,313.50199496594723,313.5026700979797,313.51154126995243,313.51154126995243,313.51154126995243,314.26723259099526,,,,,,,,,,,,,,,,,,,,,,,,,,,,,,right,0.0,0.7505628250073642,,,,sub-068,1.0,random_dot,,
right,right,30.0,0.0,15.0,right,1.0,0.594682143011596,,speed,space,2.488955424982123,,,,,,0.0,1.0,1.0,1.0,15.0,0.0,30.0,1.0,314.28386335098185,,,,,,,,,314.2675379309803,315.4582400599611,316.2521087289788,316.24124077300075,316.2420455109677,316.2521087289788,316.2521087289788,316.2521087289788,316.8557194210007,,,,,,,,,,,,,,,,,,,,,,,,,,,,,,right,1.0,0.594682143011596,,,,sub-068,1.0,random_dot,,
left,left,31.0,1.0,15.0,left,1.0,0.9076995810028166,,speed,space,2.488955424982123,,,,,,0.0,1.0,1.0,1.0,15.0,1.0,31.0,0.0,316.8664980319445,,,,,,,,,316.85596318996977,316.9503334129695,317.7436193949543,317.73548872495303,317.7361176099512,317.7436193949543,317.7436193949543,317.7436193949543,318.6686753179529,,,,,,,,,,,,,,,,,,,,,,,,,,,,,,left,1.0,0.9076995810028166,,,,sub-068,1.0,random_dot,,
right,right,32.0,0.0,16.0,right,1.0,0.7160693859914318,,speed,space,2.488955424982123,,,,,,0.0,1.0,1.0,1.0,16.0,0.0,32.0,1.0,318.6760894229519,,,,,,,,,318.66903899697354,318.76712941599544,319.56709162396146,319.5535964019946,319.5542543089832,319.56709162396146,319.56709162396146,319.56709162396146,320.30084671394434,,,,,,,,,,,,,,,,,,,,,,,,,,,,,,right,1.0,0.7160693859914318,,,,sub-068,1.0,random_dot,,
left,left,33.0,1.0,16.0,left,1.0,1.2027051649638452,,speed,space,2.488955424982123,,,,,,0.0,1.0,1.0,1.0,16.0,1.0,33.0,0.0,320.3177270059823,,,,,,,,,320.30121160898125,320.3895883319783,321.20055733894696,321.1871778969653,321.18782409798587,321.20055733894696,321.20055733894696,321.20055733894696,322.4056098559522,,,,,,,,,,,,,,,,,,,,,,,,,,,,,,left,1.0,1.2027051649638452,,,,sub-068,1.0,random_dot,,
left,left,34.0,0.0,17.0,right,0.0,0.8262351359589957,,speed,space,2.488955424982123,,,,,,0.0,1.0,1.0,1.0,17.0,0.0,34.0,0.0,322.4161518109613,,,,,,,,,322.40586610196624,323.599992651958,324.3898690159549,324.38320221798494,324.3834638699773,324.3898690159549,324.3898690159549,324.3898690159549,325.21786341798725,,,,,,,,,,,,,,,,,,,,,,,,,,,,,,right,0.0,0.8262351359589957,,,,sub-068,1.0,random_dot,,
right,right,35.0,1.0,17.0,left,0.0,0.6408087990130298,,speed,space,2.488955424982123,,,,,,0.0,1.0,1.0,1.0,17.0,1.0,35.0,1.0,325.2244566239533,,,,,,,,,325.21813249599654,325.55693060398335,326.3663009699667,326.3412711759447,326.3420554099721,326.3663009699667,326.3663009699667,326.3663009699667,327.01706303597894,,,,,,,,,,,,,,,,,,,,,,,,,,,,,,left,0.0,0.6408087990130298,,,,sub-068,1.0,random_dot,,
right,right,36.0,0.0,18.0,left,0.0,1.1857997049810365,,speed,space,2.488955424982123,,,,,,0.0,1.0,1.0,1.0,18.0,0.0,36.0,1.0,327.02465252694674,,,,,,,,,327.0173286049976,328.2197381889564,329.0173126089503,329.0067016959656,329.00738932797685,329.0173126089503,329.0173126089503,329.0173126089503,330.2102425969788,,,,,,,,,,,,,,,,,,,,,,,,,,,,,,left,0.0,1.1857997049810365,,,,sub-068,1.0,random_dot,,
left,left,37.0,1.0,18.0,right,0.0,0.7206084179924801,,speed,space,2.488955424982123,,,,,,0.0,1.0,1.0,1.0,18.0,1.0,37.0,0.0,330.2191227529547,,,,,,,,,330.2105178219499,331.4070950379828,332.2095995089621,332.20161649998045,332.2020683019655,332.2095995089621,332.2095995089621,332.2095995089621,332.935211176984,,,,,,,,,,,,,,,,,,,,,,,,,,,,,,right,0.0,0.7206084179924801,,,,sub-068,1.0,random_dot,,
right,right,38.0,0.0,19.0,left,0.0,0.8547005549771711,,speed,space,2.488955424982123,,,,,,0.0,1.0,1.0,1.0,19.0,0.0,38.0,1.0,332.94172381196404,,,,,,,,,332.93580615898827,333.7348091049935,334.53343794395914,334.5233506549848,334.52397639199626,334.53343794395914,334.53343794395914,334.53343794395914,335.39371698495233,,,,,,,,,,,,,,,,,,,,,,,,,,,,,,left,0.0,0.8547005549771711,,,,sub-068,1.0,random_dot,,
left,left,39.0,1.0,19.0,left,1.0,2.0081084899720736,,speed,space,2.488955424982123,,,,,,0.0,1.0,1.0,1.0,19.0,1.0,39.0,0.0,335.4025735569885,,,,,,,,,335.3939917579992,336.58883535896894,337.3831278749858,337.3739344969508,337.37475060496945,337.3831278749858,337.3831278749858,337.3831278749858,339.4005358949653,,,,,,,,,,,,,,,,,,,,,,,,,,,,,,left,1.0,2.0081084899720736,,,,sub-068,1.0,random_dot,,
right,right,40.0,0.0,20.0,right,1.0,1.0800638740183786,,speed,space,2.488955424982123,,,,,,0.0,1.0,1.0,1.0,20.0,0.0,40.0,1.0,339.4093502399628,,,,,,,,,339.4011727769976,340.18995657999767,340.9941632769769,340.9848640659475,340.98531725094654,340.9941632769769,340.9941632769769,340.9941632769769,342.0780042029801,,,,,,,,,,,,,,,,,,,,,,,,,,,,,,right,1.0,1.0800638740183786,,,,sub-068,1.0,random_dot,,
left,left,41.0,1.0,20.0,right,0.0,1.2465407939744182,,speed,space,2.488955424982123,,,,,,0.0,1.0,1.0,1.0,20.0,1.0,41.0,0.0,342.085391976987,,,,,,,,,342.078417215962,342.87341826898046,343.66766404599184,343.6565574389533,343.6574004729628,343.66766404599184,343.66766404599184,343.66766404599184,344.91763529594755,,,,,,,,,,,,,,,,,,,,,,,,,,,,,,right,0.0,1.2465407939744182,,,,sub-068,1.0,random_dot,,
right,right,42.0,0.0,21.0,right,1.0,0.8169556849752553,,speed,space,2.488955424982123,,,,,,0.0,1.0,1.0,1.0,21.0,0.0,42.0,1.0,344.92542032699566,,,,,,,,,344.9179642489762,345.2676332289702,346.06699763197685,346.0564114579465,346.0571188349859,346.06699763197685,346.06699763197685,346.06699763197685,346.8853895819629,,,,,,,,,,,,,,,,,,,,,,,,,,,,,,right,1.0,0.8169556849752553,,,,sub-068,1.0,random_dot,,
left,left,43.0,1.0,21.0,left,1.0,0.7542952429503202,,speed,space,2.488955424982123,,,,,,0.0,1.0,1.0,1.0,21.0,1.0,43.0,0.0,346.8911690579844,,,,,,,,,346.8856591889635,346.9839867579867,347.78303856996354,347.7724871179671,347.7730598009657,347.78303856996354,347.78303856996354,347.78303856996354,348.5389385999879,,,,,,,,,,,,,,,,,,,,,,,,,,,,,,left,1.0,0.7542952429503202,,,,sub-068,1.0,random_dot,,
left,left,44.0,0.0,22.0,right,0.0,0.8520123889902607,,speed,space,2.488955424982123,,,,,,0.0,1.0,1.0,1.0,22.0,0.0,44.0,0.0,348.5501237799763,,,,,,,,,348.53929711598903,348.8829877949902,349.6761630969704,349.66811309894547,349.6685616569593,349.6761630969704,349.6761630969704,349.6761630969704,350.53438123798696,,,,,,,,,,,,,,,,,,,,,,,,,,,,,,right,0.0,0.8520123889902607,,,,sub-068,1.0,random_dot,,
right,right,45.0,1.0,22.0,left,0.0,1.328831848979462,,speed,space,2.488955424982123,,,,,,0.0,1.0,1.0,1.0,22.0,1.0,45.0,1.0,350.54083855298813,,,,,,,,,350.5346479449654,351.734088186,352.52539499499835,352.51719556498574,352.5178457479924,352.52539499499835,352.52539499499835,352.52539499499835,353.8668540789513,,,,,,,,,,,,,,,,,,,,,,,,,,,,,,left,0.0,1.328831848979462,,,,sub-068,1.0,random_dot,,
right,right,46.0,0.0,23.0,left,0.0,1.500905089022126,,speed,space,2.488955424982123,,,,,,0.0,1.0,1.0,1.0,23.0,0.0,46.0,1.0,353.87380617298186,,,,,,,,,353.86713447998045,354.2056809869828,355.00047157896915,354.9896003419999,354.9904045649455,355.00047157896915,355.00047157896915,355.00047157896915,356.50348129996564,,,,,,,,,,,,,,,,,,,,,,,,,,,,,,left,0.0,1.500905089022126,,,,sub-068,1.0,random_dot,,
left,left,47.0,1.0,23.0,right,0.0,1.871950812987052,,speed,space,2.488955424982123,,,,,,0.0,1.0,1.0,1.0,23.0,1.0,47.0,0.0,356.5161157469847,,,,,,,,,356.5037280699471,356.5992187979864,357.39128903398523,357.3832374539925,357.3836874499684,357.39128903398523,357.39128903398523,357.39128903398523,359.267539561959,,,,,,,,,,,,,,,,,,,,,,,,,,,,,,right,0.0,1.871950812987052,,,,sub-068,1.0,random_dot,,
left,left,48.0,0.0,24.0,right,0.0,3.208577088022139,,speed,space,2.488955424982123,,,,,,0.0,1.0,1.0,1.0,24.0,0.0,48.0,0.0,359.2743949180003,,,,,,,,,359.267885009991,359.6070029049879,360.4108137849835,360.4013543089968,360.4019370329916,360.4108137849835,360.4108137849835,360.4108137849835,363.6261863889522,,,,,,,,,,,,,,,,,,,,,,,,,,,,,,right,0.0,3.208577088022139,,,,sub-068,1.0,random_dot,,
right,right,49.0,1.0,24.0,left,0.0,1.1619080749806017,,speed,space,2.488955424982123,,,,,,0.0,1.0,1.0,1.0,24.0,1.0,49.0,1.0,363.64838090294506,,,,,,,,,363.6264254099806,364.8230437589809,365.6171007969533,365.60618064395385,365.6069642259972,365.6171007969533,365.6171007969533,365.6171007969533,366.8007740459871,,,,,,,,,,,,,,,,,,,,,,,,,,,,,,left,0.0,1.1619080749806017,,,,sub-068,1.0,random_dot,,
left,left,50.0,0.0,25.0,right,0.0,1.5553895049961284,,speed,space,2.488955424982123,,,,,,0.0,1.0,1.0,1.0,25.0,0.0,50.0,0.0,366.8162756989477,,,,,,,,,366.8011961929733,367.9906102929963,368.7926447049831,368.7846806629677,368.785141425964,368.7926447049831,368.7926447049831,368.7926447049831,370.367947289953,,,,,,,,,,,,,,,,,,,,,,,,,,,,,,right,0.0,1.5553895049961284,,,,sub-068,1.0,random_dot,,
right,right,51.0,1.0,25.0,right,1.0,0.9584510090062396,,speed,space,2.488955424982123,,,,,,0.0,1.0,1.0,1.0,25.0,1.0,51.0,1.0,370.3752164819744,,,,,,,,,370.3682879959815,370.45783736999147,371.2666295459494,371.2410219439771,371.2418221979751,371.2666295459494,371.2666295459494,371.2666295459494,372.2347836499685,,,,,,,,,,,,,,,,,,,,,,,,,,,,,,right,1.0,0.9584510090062396,,,,sub-068,1.0,random_dot,,
right,right,52.0,0.0,26.0,left,0.0,1.0905249279458076,,speed,space,2.488955424982123,,,,,,0.0,1.0,1.0,1.0,26.0,0.0,52.0,1.0,372.2412262389553,,,,,,,,,372.2350517019513,373.0350933999871,373.8336857599788,373.82266764499946,373.8234545899904,373.8336857599788,373.8336857599788,373.8336857599788,374.9334875669447,,,,,,,,,,,,,,,,,,,,,,,,,,,,,,left,0.0,1.0905249279458076,,,,sub-068,1.0,random_dot,,
left,left,53.0,1.0,26.0,left,1.0,0.8649414200335741,,speed,space,2.488955424982123,,,,,,0.0,1.0,1.0,1.0,26.0,1.0,53.0,0.0,374.9397814909462,,,,,,,,,374.9337101349957,376.1224392919685,376.917058373976,376.9061477929936,376.90694606897887,376.917058373976,376.917058373976,376.917058373976,377.7880713179474,,,,,,,,,,,,,,,,,,,,,,,,,,,,,,left,1.0,0.8649414200335741,,,,sub-068,1.0,random_dot,,
right,right,54.0,0.0,27.0,left,0.0,1.3480580180184916,,speed,space,2.488955424982123,,,,,,0.0,1.0,1.0,1.0,27.0,0.0,54.0,1.0,377.799421291973,,,,,,,,,377.7884989119484,377.8825896239723,378.6753002089681,378.6674155209912,378.6678689539549,378.6753002089681,378.6753002089681,378.6753002089681,380.03369258495513,,,,,,,,,,,,,,,,,,,,,,,,,,,,,,left,0.0,1.3480580180184916,,,,sub-068,1.0,random_dot,,
left,left,55.0,1.0,27.0,right,0.0,0.821532185014803,,speed,space,2.488955424982123,,,,,,0.0,1.0,1.0,1.0,27.0,1.0,55.0,0.0,380.049554726982,,,,,,,,,380.0340382259456,380.8232488599606,381.6256271159509,381.6163224649499,381.61678249097895,381.6256271159509,381.6256271159509,381.6256271159509,382.4548796609743,,,,,,,,,,,,,,,,,,,,,,,,,,,,,,right,0.0,0.821532185014803,,,,sub-068,1.0,random_dot,,
right,right,56.0,0.0,28.0,left,0.0,1.1914270580164157,,speed,space,2.488955424982123,,,,,,0.0,1.0,1.0,1.0,28.0,0.0,56.0,1.0,382.4654880549642,,,,,,,,,382.4550946179661,382.81662299798336,383.6088427429786,383.60075541900005,383.6012208579923,383.6088427429786,383.6088427429786,383.6088427429786,384.81803101097466,,,,,,,,,,,,,,,,,,,,,,,,,,,,,,left,0.0,1.1914270580164157,,,,sub-068,1.0,random_dot,,
left,left,57.0,1.0,28.0,right,0.0,0.7933825489599258,,speed,space,2.488955424982123,,,,,,0.0,1.0,1.0,1.0,28.0,1.0,57.0,0.0,384.82592929998646,,,,,,,,,384.8184498709743,385.1673200679943,385.9666494329576,385.95596974896034,385.9567274349975,385.9666494329576,385.9666494329576,385.9666494329576,386.7667956649675,,,,,,,,,,,,,,,,,,,,,,,,,,,,,,right,0.0,0.7933825489599258,,,,sub-068,1.0,random_dot,,
left,left,58.0,0.0,29.0,right,0.0,0.6954354259651154,,speed,space,2.488955424982123,,,,,,0.0,1.0,1.0,1.0,29.0,0.0,58.0,0.0,386.7743338859873,,,,,,,,,386.7671120619634,387.9565298569505,388.7516465759836,388.74048294796376,388.7412638369715,388.7516465759836,388.7516465759836,388.7516465759836,389.4668850299786,,,,,,,,,,,,,,,,,,,,,,,,,,,,,,right,0.0,0.6954354259651154,,,,sub-068,1.0,random_dot,,
right,right,59.0,1.0,29.0,right,1.0,0.6600558210047893,,speed,space,2.488955424982123,,,,,,0.0,1.0,1.0,1.0,29.0,1.0,59.0,1.0,389.47396027995273,,,,,,,,,389.4672515429557,389.5554953579558,390.35007360298187,390.3400394009659,390.3408102209796,390.35007360298187,390.35007360298187,390.35007360298187,391.0341636359808,,,,,,,,,,,,,,,,,,,,,,,,,,,,,,right,1.0,0.6600558210047893,,,,sub-068,1.0,random_dot,,
,,1.0,1.0,0.0,,,,,speed,space,2.488955424982123,,,,,,0.0,1.0,1.0,1.0,,,,,,,,,,,,,,,,,,,,,,,,,,,,,,,,,,,,,,,,,,,,,,,,,,,,,,,,,,sub-068,1.0,random_dot,,
,,,,,,,,,,,,,,,,,,,,,,,,,,,,,,,,,,,,,,,,,,,,,,,,,,,,,,,,,,,,,,,,,,,,,,,,,,,,391.0398629559786,391.0491259599803,sub-068,,,,
