direction,corrAns,thisN,thisTrialN,thisRepN,respDots.keys,respDots.corr,respDots.rt,respDots.duration,randomInstr,respRandomInstr.keys,respRandomInstr.rt,respRandomInstr.duration,practice_trials.thisRepN,practice_trials.thisTrialN,practice_trials.thisN,practice_trials.thisIndex,instr_trials.thisRepN,instr_trials.thisTrialN,instr_trials.thisN,instr_trials.thisIndex,test_trials.thisRepN,test_trials.thisTrialN,test_trials.thisN,test_trials.thisIndex,thisRow.t,notes,general_instruction.started,textGeneralInstr.started,respGeneralInstr.started,general_instruction.stopped,respGeneralInstr.keys,respGeneralInstr.rt,respGeneralInstr.duration,ITI.started,fixcross.started,fixcross.stopped,ITI.stopped,dots.started,backgroundDots.started,stimulusDots.started,respDots.started,stimulusDots.stopped,dots.stopped,practice_trials.respDots.keys,practice_trials.respDots.corr,practice_trials.respDots.rt,practice_trials.respDots.duration,feedback.started,textFeedback.started,feedback.stopped,textFeedback.stopped,info.started,textInfo.started,keyRespInfo.started,info.stopped,keyRespInfo.keys,keyRespInfo.rt,keyRespInfo.duration,test_instruction.started,textTestInstr.started,respTestInstr.started,test_instruction.stopped,respTestInstr.keys,respTestInstr.rt,respTestInstr.duration,random_instruction.started,textRandomInstr.started,respRandomInstr.started,random_instruction.stopped,instr_trials.respRandomInstr.keys,instr_trials.respRandomInstr.rt,instr_trials.respRandomInstr.duration,test_trials.respDots.keys,test_trials.respDots.corr,test_trials.respDots.rt,test_trials.respDots.duration,goodbye.started,textGoodbye.started,goodbye.stopped,participant,session,expName,frameRate,Unnamed: 87
,,,,,,,,,,,,,,,,,,,,,,,,,,,0.0077002909965813,0.0162864579906454,0.0162864579906454,43.60792854099418,space,43.48101224999118,,,,,,,,,,,,,,,,,,,,,,,,,,,,,,,,,,,,,,,,,,,,,,,,sub-074,1,random_dot,,
left,left,0.0,0.0,0.0,right,0.0,9.611420625005849,,,,,,0.0,0.0,0.0,0.0,,,,,,,,,43.621586665991344,,,,,,,,,43.61287341600109,43.6977717080008,44.49762020799972,44.48268762500084,44.48322145799466,44.49762020799972,44.49762020799972,44.49762020799972,49.47792316599225,54.11336308300088,right,0.0,9.611420625005849,,54.12416270800168,54.16541679100192,54.61747362499591,,,,,,,,,,,,,,,,,,,,,,,,,,,,,,sub-074,1,random_dot,,
right,right,1.0,1.0,0.0,left,0.0,3.282597250014078,,,,,,0.0,1.0,1.0,1.0,,,,,,,,,54.62813099999039,,,,,,,,,54.61794229099178,55.41143104099319,56.20293945800222,56.195056040989584,56.195817915999214,56.20293945800222,56.20293945800222,56.20293945800222,,59.49449820799055,left,0.0,3.282597250014078,,59.49463408299198,59.50290112500079,59.9950006250001,,,,,,,,,,,,,,,,,,,,,,,,,,,,,,sub-074,1,random_dot,,
right,right,2.0,0.0,1.0,right,1.0,5.909632333001355,,,,,,1.0,0.0,2.0,1.0,,,,,,,,,60.00058287499997,,,,,,,,,59.99567829100124,60.78461304098892,61.58729466599471,61.57832316600252,61.57886049999797,61.58729466599471,61.58729466599471,61.58729466599471,66.57801166600257,67.50296374999743,right,1.0,5.909632333001355,,67.51189716599765,67.52015237500018,68.01161004099413,,,,,,,,,,,,,,,,,,,,,,,,,,,,,,sub-074,1,random_dot,,
left,left,3.0,1.0,1.0,left,1.0,1.7337517499981914,,,,,,1.0,1.0,3.0,0.0,,,,,,,,,68.01766562499688,,,,,,,,,68.01227716599533,69.20093500000075,69.99303762499767,69.98445587499009,69.98490616599156,69.99303762499767,69.99303762499767,69.99303762499767,,71.73464691599656,left,1.0,1.7337517499981914,,71.73478724999586,71.74381387500034,72.22832720799488,72.23373841599096,,,,,,,,,,,,,,,,,,,,,,,,,,,,,sub-074,1,random_dot,,
right,right,4.0,0.0,2.0,right,1.0,1.92944137500308,,,,,,2.0,0.0,4.0,1.0,,,,,,,,,72.23373841599096,,,,,,,,,72.2288120000012,72.33370358298998,73.12642000000051,73.11760758300079,73.11804566599312,73.12642000000051,73.12642000000051,73.12642000000051,,75.06210462500167,right,1.0,1.92944137500308,,75.06226420799794,75.07076224999037,75.56189962499775,75.56795954098925,,,,,,,,,,,,,,,,,,,,,,,,,,,,,sub-074,1,random_dot,,
left,left,5.0,1.0,2.0,left,1.0,1.315568790989346,,,,,,2.0,1.0,5.0,0.0,,,,,,,,,75.56795954098925,,,,,,,,,75.56256049999502,75.6505131659942,76.44311766600003,76.43422862498846,76.43468395799573,76.44311766600003,76.44311766600003,76.44311766600003,,77.76238383298914,left,1.0,1.315568790989346,,77.76251216599485,77.76998095799354,78.26191629099776,78.26766279099684,,,,,,,,,,,,,,,,,,,,,,,,,,,,,sub-074,1,random_dot,,
right,right,6.0,0.0,3.0,right,1.0,1.4179827080079122,,,,,,3.0,0.0,6.0,1.0,,,,,,,,,78.26766279099684,,,,,,,,,78.26251608299208,79.46153200000117,80.25346662499942,80.24516079098976,80.24582879099762,80.25346662499942,80.25346662499942,80.25346662499942,,81.67838829099492,right,1.0,1.4179827080079122,,81.67857316599111,81.68693070799054,82.17834145799861,82.18363945800229,,,,,,,,,,,,,,,,,,,,,,,,,,,,,sub-074,1,random_dot,,
left,left,7.0,1.0,3.0,left,1.0,1.406867166995653,,,,,,3.0,1.0,7.0,0.0,,,,,,,,,82.18363945800229,,,,,,,,,82.17882441599795,82.9675933749968,83.75970466599392,83.75067312498868,83.7512362080015,83.75970466599392,83.75970466599392,83.75970466599392,,85.16806937499496,left,1.0,1.406867166995653,,85.16821037499176,85.17795633299102,85.66195212499588,85.66795604099752,,,,,,,,,,,,,,,,,,,,,,,,,,,,,sub-074,1,random_dot,,
left,left,8.0,0.0,4.0,right,0.0,1.607632500003092,,,,,,4.0,0.0,8.0,0.0,,,,,,,,,85.66795604099752,,,,,,,,,85.66259820800042,86.86700854099763,87.66076833299303,87.65036891600175,87.65082254099252,87.66076833299303,87.66076833299303,87.66076833299303,,89.27932099999452,right,0.0,1.607632500003092,,89.28375541599235,89.29372424999019,89.77841483299562,89.78424495799118,,,,,,,,,,,,,,,,,,,,,,,,,,,,,sub-074,1,random_dot,,
right,right,9.0,1.0,4.0,left,0.0,2.500197333007236,,,,,,4.0,1.0,9.0,1.0,,,,,,,,,89.78424495799118,,,,,,,,,89.77903937498922,89.87810974998865,90.6701886249939,90.66174508299446,90.6625005829992,90.6701886249939,90.6701886249939,90.6701886249939,,93.17960220799432,left,0.0,2.500197333007236,,93.17974116599362,93.18887908299804,93.67845916599616,93.68454954099434,,,,,,,,,,,,,,,,,,,,,,,,,,,,,sub-074,1,random_dot,,
left,left,10.0,0.0,5.0,right,0.0,1.896231666993117,,,,,,5.0,0.0,10.0,0.0,,,,,,,,,93.68454954099434,,,,,,,,,93.679131375,93.7779776249954,94.57010812500084,94.56182137499854,94.56254195798827,94.57010812500084,94.57010812500084,94.57010812500084,,96.46980429100222,right,0.0,1.896231666993117,,96.4699358749931,96.47980462499254,96.9680155829992,96.97807345799812,,,,,,,,,,,,,,,,,,,,,,,,,,,,,sub-074,1,random_dot,,
right,right,11.0,1.0,5.0,right,1.0,4.248269250005251,,,,,,5.0,1.0,11.0,1.0,,,,,,,,,96.97807345799812,,,,,,,,,96.96840279099706,98.1669126659981,98.96014183299847,98.95043183300004,98.95088237499294,98.96014183299847,98.96014183299847,98.96014183299847,,103.21124399999098,right,1.0,4.248269250005251,,103.21460683298938,103.22874533299182,103.71163270800024,,,,,,,,,,,,,,,,,,,,,,,,,,,,,,sub-074,1,random_dot,,
left,left,12.0,0.0,6.0,right,0.0,4.510965291003231,,,,,,6.0,0.0,12.0,0.0,,,,,,,,,103.71763770798862,,,,,,,,,103.7123237909982,103.80115787500108,104.59306458299396,104.58427970799676,104.58474566599762,104.59306458299396,104.59306458299396,104.59306458299396,,109.1118435410026,right,0.0,4.510965291003231,,109.11669829099264,109.12583033299596,109.61171945800017,109.6176204999938,,,,,,,,,,,,,,,,,,,,,,,,,,,,,sub-074,1,random_dot,,
right,right,13.0,1.0,6.0,right,1.0,1.3078470839973306,,,,,,6.0,1.0,13.0,1.0,,,,,,,,,109.6176204999938,,,,,,,,,109.6123387080006,110.80106620799052,111.59309383299842,111.584758625002,111.5851932910009,111.59309383299842,111.59309383299842,111.59309383299842,,112.91023066599156,right,1.0,1.3078470839973306,,112.91403345800065,112.92297162499744,113.4116123749991,,,,,,,,,,,,,,,,,,,,,,,,,,,,,,sub-074,1,random_dot,,
left,left,14.0,0.0,7.0,right,0.0,0.9458251249889144,,,,,,7.0,0.0,14.0,0.0,,,,,,,,,113.41746170799888,,,,,,,,,113.41226779099088,114.6014455830009,115.40299245799542,115.39511387499806,115.39564495800003,115.40299245799542,115.40299245799542,115.40299245799542,,116.35124316599104,right,0.0,0.9458251249889144,,116.35519029099667,116.36488808300057,116.85111229099856,116.86135304099298,,,,,,,,,,,,,,,,,,,,,,,,,,,,,sub-074,1,random_dot,,
right,right,15.0,1.0,7.0,left,0.0,3.618536291003693,,,,,,7.0,1.0,15.0,1.0,,,,,,,,,116.86135304099298,,,,,,,,,116.85157554098988,117.65066549999756,118.44313658299508,118.43463108300055,118.43506458299817,118.44313658299508,118.44313658299508,118.44313658299508,,122.06952550000278,left,0.0,3.618536291003693,,122.06965979099914,122.09447491599713,122.57826904099784,,,,,,,,,,,,,,,,,,,,,,,,,,,,,,sub-074,1,random_dot,,
right,right,16.0,0.0,8.0,right,1.0,4.366901166999014,,,,,,8.0,0.0,16.0,1.0,,,,,,,,,122.5840820829908,,,,,,,,,122.57893487499678,122.66692824999336,123.45973783299269,123.45114270799968,123.45167549999314,123.45973783299269,123.45973783299269,123.45973783299269,,127.83818125000109,right,1.0,4.366901166999014,,127.84189095799228,127.84696475000236,128.3342320410011,128.34500241599744,,,,,,,,,,,,,,,,,,,,,,,,,,,,,sub-074,1,random_dot,,
left,left,17.0,1.0,8.0,right,0.0,4.552984916997957,,,,,,8.0,1.0,17.0,0.0,,,,,,,,,128.34500241599744,,,,,,,,,128.33461041600094,129.53457641600107,130.3264417909959,130.31787237500248,130.31829804099107,130.3264417909959,130.3264417909959,130.3264417909959,,134.88707912499376,right,0.0,4.552984916997957,,134.89116362499772,134.89985604099638,135.38462262500252,135.39488816598896,,,,,,,,,,,,,,,,,,,,,,,,,,,,,sub-074,1,random_dot,,
left,left,18.0,0.0,9.0,right,0.0,1.299938458003453,,,,,,9.0,0.0,18.0,0.0,,,,,,,,,135.39488816598896,,,,,,,,,135.3850375829934,136.58354554099787,137.37646233299165,137.36719604099926,137.3678734159912,137.37646233299165,137.37646233299165,137.37646233299165,,138.6783652909944,right,0.0,1.299938458003453,,138.67853891599225,138.6877184999903,139.17834449998918,139.18358908299706,,,,,,,,,,,,,,,,,,,,,,,,,,,,,sub-074,1,random_dot,,
right,right,19.0,1.0,9.0,left,0.0,4.002021124993917,,,,,,9.0,1.0,19.0,1.0,,,,,,,,,139.18358908299706,,,,,,,,,139.17882720800117,139.26754291600082,140.0692789159948,140.06173441599822,140.06228833299247,140.0692789159948,140.0692789159948,140.0692789159948,,144.0797150409926,left,0.0,4.002021124993917,,144.079916082992,144.0894244579977,144.57862566599215,144.58701224999095,,,,,,,,,,,,,,,,,,,,,,,,,,,,,sub-074,1,random_dot,,
,,,,,,,,,,,,,,,,,,,,,,,,,,,,,,,,,,,,,,,,,,,,,,,,,,,,144.57885970799543,144.58701224999095,144.58701224999095,157.5192130409996,space,12.924915959010832,,,,,,,,,,,,,,,,,,,,,,,sub-074,1,random_dot,,
,,,,,,,,,,,,,,,,,,,,,,,,,,,,,,,,,,,,,,,,,,,,,,,,,,,,,,,,,,,157.51930837499094,157.533226790998,157.533226790998,159.84629274999315,space,2.300219124997966,,,,,,,,,,,,,,,,sub-074,1,random_dot,,
left,left,0.0,0.0,0.0,right,0.0,1.4080684590007877,,accuracy,space,5.142719499999657,,,,,,0.0,0.0,0.0,0.0,0.0,0.0,0.0,0.0,165.0482197079982,,,,,,,,,165.04007629099942,165.828403624997,166.62015862499538,166.61201004098984,166.61274158299784,166.62015862499538,166.62015862499538,166.62015862499538,,168.03633687499678,,,,,,,,,,,,,,,,,,,,,,,159.87030483299168,159.87866970799223,159.87866970799223,165.02971350000007,space,5.142719499999657,,right,0.0,1.4080684590007877,,,,,sub-074,1,random_dot,,
right,right,1.0,1.0,0.0,right,1.0,1.6747496249881806,,accuracy,space,5.142719499999657,,,,,,0.0,0.0,0.0,0.0,0.0,1.0,1.0,1.0,168.04448937499546,,,,,,,,,168.03683304099832,168.3846420829941,169.17643599999428,169.1677619999973,169.16832895799598,169.17643599999428,169.17643599999428,169.17643599999428,,170.8780689999985,,,,,,,,,,,,,,,,,,,,,,,,,,,,,,right,1.0,1.6747496249881806,,,,,sub-074,1,random_dot,,
right,right,2.0,0.0,1.0,left,0.0,3.009308583001257,,accuracy,space,5.142719499999657,,,,,,0.0,0.0,0.0,0.0,1.0,0.0,2.0,1.0,170.89513158299087,,,,,,,,,170.87854062499537,171.21817520799232,172.0197698330012,172.01171391599928,172.01230224999017,172.0197698330012,172.0197698330012,172.0197698330012,,175.0348632499954,,,,,,,,,,,,,,,,,,,,,,,,,,,,,,left,0.0,3.009308583001257,,,,,sub-074,1,random_dot,,
left,left,3.0,1.0,1.0,right,0.0,1.9137338750006163,,accuracy,space,5.142719499999657,,,,,,0.0,0.0,0.0,0.0,1.0,1.0,3.0,0.0,175.04383124999003,,,,,,,,,175.03535462499713,175.13461904099677,175.92641549999826,175.91789520799648,175.91832895799598,175.92641549999826,175.92641549999826,175.92641549999826,,177.84496345798834,,,,,,,,,,,,,,,,,,,,,,,,,,,,,,right,0.0,1.9137338750006163,,,,,sub-074,1,random_dot,,
left,left,4.0,0.0,2.0,left,1.0,3.47045954198984,,accuracy,space,5.142719499999657,,,,,,0.0,0.0,0.0,0.0,2.0,0.0,4.0,0.0,177.85453650000272,,,,,,,,,177.8456268329901,177.93517170799896,178.72657145799894,178.71799962499065,178.71844041599252,178.72657145799894,178.72657145799894,178.72657145799894,,182.2020525830012,,,,,,,,,,,,,,,,,,,,,,,,,,,,,,left,1.0,3.47045954198984,,,,,sub-074,1,random_dot,,
right,right,5.0,1.0,2.0,right,1.0,3.001862874996732,,accuracy,space,5.142719499999657,,,,,,0.0,0.0,0.0,0.0,2.0,1.0,5.0,1.0,182.21115254100005,,,,,,,,,182.202544957996,182.55179391599088,183.3530240409891,183.3450890410022,183.3456164160016,183.3530240409891,183.3530240409891,183.3530240409891,,186.361921290998,,,,,,,,,,,,,,,,,,,,,,,,,,,,,,right,1.0,3.001862874996732,,,,,sub-074,1,random_dot,,
left,left,6.0,0.0,3.0,left,1.0,2.31038241701026,,accuracy,space,5.142719499999657,,,,,,0.0,0.0,0.0,0.0,3.0,0.0,6.0,0.0,186.37147229099355,,,,,,,,,186.362457582989,187.15119583299384,187.9435002909886,187.93428795799264,187.93473958299728,187.9435002909886,187.9435002909886,187.9435002909886,,190.2619425000012,,,,,,,,,,,,,,,,,,,,,,,,,,,,,,left,1.0,2.31038241701026,,,,,sub-074,1,random_dot,,
right,right,7.0,1.0,3.0,right,1.0,4.076932000010856,,accuracy,space,5.142719499999657,,,,,,0.0,0.0,0.0,0.0,3.0,1.0,7.0,1.0,190.27095120798916,,,,,,,,,190.26249737499165,191.4507940409967,192.24366462499893,192.2341267909942,192.23458566599584,192.24366462499893,192.24366462499893,192.24366462499893,,196.32862516598837,,,,,,,,,,,,,,,,,,,,,,,,,,,,,,right,1.0,4.076932000010856,,,,,sub-074,1,random_dot,,
right,right,8.0,0.0,4.0,right,1.0,4.372302792005939,,accuracy,space,5.142719499999657,,,,,,0.0,0.0,0.0,0.0,4.0,0.0,8.0,1.0,196.3377868749958,,,,,,,,,196.32911700000116,197.11765058299352,197.91027016600128,197.90126179099025,197.9017858750012,197.91027016600128,197.91027016600128,197.91027016600128,,202.28701595799063,,,,,,,,,,,,,,,,,,,,,,,,,,,,,,right,1.0,4.372302792005939,,,,,sub-074,1,random_dot,,
left,left,9.0,1.0,4.0,left,1.0,2.7248448339960305,,accuracy,space,5.142719499999657,,,,,,0.0,0.0,0.0,0.0,4.0,1.0,9.0,0.0,202.29646341600164,,,,,,,,,202.287508333,203.48445074999472,204.2768701250025,204.26750000000172,204.26799304099404,204.2768701250025,204.2768701250025,204.2768701250025,,207.01200858299853,,,,,,,,,,,,,,,,,,,,,,,,,,,,,,left,1.0,2.7248448339960305,,,,,sub-074,1,random_dot,,
right,right,10.0,0.0,5.0,left,0.0,4.53026729200792,,accuracy,space,5.142719499999657,,,,,,0.0,0.0,0.0,0.0,5.0,0.0,10.0,1.0,207.01871408299485,,,,,,,,,207.0125635000004,208.20143595799163,208.9930929159891,208.98477454099336,208.98524524999084,208.9930929159891,208.9930929159891,208.9930929159891,,213.5293227499933,,,,,,,,,,,,,,,,,,,,,,,,,,,,,,left,0.0,4.53026729200792,,,,,sub-074,1,random_dot,,
left,left,11.0,1.0,5.0,right,0.0,4.668672457992216,,accuracy,space,5.142719499999657,,,,,,0.0,0.0,0.0,0.0,5.0,1.0,11.0,0.0,213.5384648329928,,,,,,,,,213.5298284159944,214.32820599999104,215.1204512080003,215.1119743329909,215.11265358299715,215.1204512080003,215.1204512080003,215.1204512080003,,219.7947934159893,,,,,,,,,,,,,,,,,,,,,,,,,,,,,,right,0.0,4.668672457992216,,,,,sub-074,1,random_dot,,
right,right,12.0,0.0,6.0,left,0.0,2.430790124999476,,accuracy,space,5.142719499999657,,,,,,0.0,0.0,0.0,0.0,6.0,0.0,12.0,1.0,219.8032883749984,,,,,,,,,219.79526041599456,219.8843982909893,220.67716395799653,220.66776866599685,220.6682201660005,220.67716395799653,220.67716395799653,220.67716395799653,,223.1118046659976,,,,,,,,,,,,,,,,,,,,,,,,,,,,,,left,0.0,2.430790124999476,,,,,sub-074,1,random_dot,,
left,left,13.0,1.0,6.0,right,0.0,2.212446000005002,,accuracy,space,5.142719499999657,,,,,,0.0,0.0,0.0,0.0,6.0,1.0,13.0,0.0,223.11972079100087,,,,,,,,,223.1122079159977,223.9009869159927,224.69363929099927,224.6845963329979,224.6850363330013,224.69363929099927,224.69363929099927,224.69363929099927,,226.91199520799276,,,,,,,,,,,,,,,,,,,,,,,,,,,,,,right,0.0,2.212446000005002,,,,,sub-074,1,random_dot,,
left,left,14.0,0.0,7.0,left,1.0,4.32568920799531,,accuracy,space,5.142719499999657,,,,,,0.0,0.0,0.0,0.0,7.0,0.0,14.0,0.0,226.91974841599583,,,,,,,,,226.91241929099488,228.10121875000183,228.8931414159888,228.8845254159969,228.88495541599696,228.8931414159888,228.8931414159888,228.8931414159888,,233.2282073329989,,,,,,,,,,,,,,,,,,,,,,,,,,,,,,left,1.0,4.32568920799531,,,,,sub-074,1,random_dot,,
right,right,15.0,1.0,7.0,left,0.0,2.2584889999998268,,accuracy,space,5.142719499999657,,,,,,0.0,0.0,0.0,0.0,7.0,1.0,15.0,1.0,233.2365960000025,,,,,,,,,233.22867483299345,233.56625704099133,234.3612700410013,234.34988320799312,234.35031479099416,234.3612700410013,234.3612700410013,234.3612700410013,,236.6291351249965,,,,,,,,,,,,,,,,,,,,,,,,,,,,,,left,0.0,2.2584889999998268,,,,,sub-074,1,random_dot,,
left,left,16.0,0.0,8.0,right,0.0,2.3245916250016307,,accuracy,space,5.142719499999657,,,,,,0.0,0.0,0.0,0.0,8.0,0.0,16.0,0.0,236.63764220799203,,,,,,,,,236.62960579099308,236.7281348749966,237.52010949999385,237.5118165409949,237.5125270409917,237.52010949999385,237.52010949999385,237.52010949999385,,239.853173083,,,,,,,,,,,,,,,,,,,,,,,,,,,,,,right,0.0,2.3245916250016307,,,,,sub-074,1,random_dot,,
right,right,17.0,1.0,8.0,right,1.0,2.0424576670047827,,accuracy,space,5.142719499999657,,,,,,0.0,0.0,0.0,0.0,8.0,1.0,17.0,1.0,239.87788141598867,,,,,,,,,239.85369629100023,240.20170462499664,240.99317962500209,240.98451520799424,240.9849597499997,240.99317962500209,240.99317962500209,240.99317962500209,,243.04604324999676,,,,,,,,,,,,,,,,,,,,,,,,,,,,,,right,1.0,2.0424576670047827,,,,,sub-074,1,random_dot,,
right,right,18.0,0.0,9.0,left,0.0,4.768145708992961,,accuracy,space,5.142719499999657,,,,,,0.0,0.0,0.0,0.0,9.0,0.0,18.0,1.0,243.0547030829912,,,,,,,,,243.04655691600053,243.39479374999064,244.18633720799696,244.17839000000092,244.178948832996,244.18633720799696,244.18633720799696,244.18633720799696,,248.9626956659922,,,,,,,,,,,,,,,,,,,,,,,,,,,,,,left,0.0,4.768145708992961,,,,,sub-074,1,random_dot,,
left,left,19.0,1.0,9.0,left,1.0,4.7316002910083625,,accuracy,space,5.142719499999657,,,,,,0.0,0.0,0.0,0.0,9.0,1.0,19.0,0.0,248.97139491599228,,,,,,,,,248.9632441249996,249.7615915409988,250.55405904099464,250.54529137499048,250.54599329100165,250.55405904099464,250.55405904099464,250.55405904099464,,255.29513162499643,,,,,,,,,,,,,,,,,,,,,,,,,,,,,,left,1.0,4.7316002910083625,,,,,sub-074,1,random_dot,,
left,left,20.0,0.0,10.0,left,1.0,6.302548749998096,,accuracy,space,5.142719499999657,,,,,,0.0,0.0,0.0,0.0,10.0,0.0,20.0,0.0,255.30449854099425,,,,,,,,,255.29570637499276,256.4848137499939,257.2765620829887,257.26771487499354,257.26826274998893,257.2765620829887,257.2765620829887,257.2765620829887,262.2614417909936,263.5865263329906,,,,,,,,,,,,,,,,,,,,,,,,,,,,,,left,1.0,6.302548749998096,,,,,sub-074,1,random_dot,,
right,right,21.0,1.0,10.0,right,1.0,2.7496490420016926,,accuracy,space,5.142719499999657,,,,,,0.0,0.0,0.0,0.0,10.0,1.0,21.0,1.0,263.59646812498977,,,,,,,,,263.58718124999723,264.38464287499664,265.1765799999994,265.1679884999903,265.1684239999886,265.1765799999994,265.1765799999994,265.1765799999994,,267.9279686249938,,,,,,,,,,,,,,,,,,,,,,,,,,,,,,right,1.0,2.7496490420016926,,,,,sub-074,1,random_dot,,
right,right,22.0,0.0,11.0,right,1.0,3.27337841699773,,accuracy,space,5.142719499999657,,,,,,0.0,0.0,0.0,0.0,11.0,0.0,22.0,1.0,267.9374422909896,,,,,,,,,267.92845654099074,269.11848012499104,269.92060683299496,269.9119304999913,269.912672749997,269.92060683299496,269.92060683299496,269.92060683299496,,273.2017781249888,,,,,,,,,,,,,,,,,,,,,,,,,,,,,,right,1.0,3.27337841699773,,,,,sub-074,1,random_dot,,
left,left,23.0,1.0,11.0,right,0.0,5.707591000013053,,accuracy,space,5.142719499999657,,,,,,0.0,0.0,0.0,0.0,11.0,1.0,23.0,0.0,273.2108870410011,,,,,,,,,273.2022434160026,274.4010049579956,275.1932552079961,275.1847563749907,275.1852896249911,275.1932552079961,275.1932552079961,275.1932552079961,280.1781829160027,280.91336562499055,,,,,,,,,,,,,,,,,,,,,,,,,,,,,,right,0.0,5.707591000013053,,,,,sub-074,1,random_dot,,
right,right,24.0,0.0,12.0,right,1.0,5.6667511669948,,accuracy,space,5.142719499999657,,,,,,0.0,0.0,0.0,0.0,12.0,0.0,24.0,1.0,280.9229344579944,,,,,,,,,280.914071332998,281.71151966600155,282.50290649999806,282.49511008299305,282.4956415829947,282.50290649999806,282.50290649999806,282.50290649999806,287.4826654159988,288.17940670799,,,,,,,,,,,,,,,,,,,,,,,,,,,,,,right,1.0,5.6667511669948,,,,,sub-074,1,random_dot,,
left,left,25.0,1.0,12.0,left,1.0,1.8885451670066689,,accuracy,space,5.142719499999657,,,,,,0.0,0.0,0.0,0.0,12.0,1.0,25.0,0.0,288.1885650829936,,,,,,,,,288.1799269579933,288.27810379100265,289.0700752080011,289.06180362499435,289.0624940830021,289.0700752080011,289.0700752080011,289.0700752080011,,290.9616849159938,,,,,,,,,,,,,,,,,,,,,,,,,,,,,,left,1.0,1.8885451670066689,,,,,sub-074,1,random_dot,,
left,left,26.0,0.0,13.0,right,0.0,3.4212859999970533,,accuracy,space,5.142719499999657,,,,,,0.0,0.0,0.0,0.0,13.0,0.0,26.0,0.0,290.9708990829968,,,,,,,,,290.9622311659914,292.1506582079892,292.9432214159897,292.93481562499073,292.9352702499891,292.9432214159897,292.9432214159897,292.9432214159897,,296.3699691660004,,,,,,,,,,,,,,,,,,,,,,,,,,,,,,right,0.0,3.4212859999970533,,,,,sub-074,1,random_dot,,
right,right,27.0,1.0,13.0,left,0.0,4.955514250003034,,accuracy,space,5.142719499999657,,,,,,0.0,0.0,0.0,0.0,13.0,1.0,27.0,1.0,296.3797573749908,,,,,,,,,296.3704552499985,296.7178151249973,297.50984279099794,297.5013705409947,297.5018202909996,297.50984279099794,297.50984279099794,297.50984279099794,,302.4683334579895,,,,,,,,,,,,,,,,,,,,,,,,,,,,,,left,0.0,4.955514250003034,,,,,sub-074,1,random_dot,,
right,right,28.0,0.0,14.0,right,1.0,2.7594002499972703,,accuracy,space,5.142719499999657,,,,,,0.0,0.0,0.0,0.0,14.0,0.0,28.0,1.0,302.47767883299093,,,,,,,,,302.4688150000002,302.81806783299544,303.6098239999992,303.600964790996,303.6014141249907,303.6098239999992,303.6098239999992,303.6098239999992,,306.3780728749989,,,,,,,,,,,,,,,,,,,,,,,,,,,,,,right,1.0,2.7594002499972703,,,,,sub-074,1,random_dot,,
left,left,29.0,1.0,14.0,left,1.0,1.00434695801232,,accuracy,space,5.142719499999657,,,,,,0.0,0.0,0.0,0.0,14.0,1.0,29.0,0.0,306.387305915996,,,,,,,,,306.3785861249926,307.16785754098964,307.95983829098986,307.9515667910018,307.95200445799856,307.95983829098986,307.95983829098986,307.95983829098986,,308.9682591250021,,,,,,,,,,,,,,,,,,,,,,,,,,,,,,left,1.0,1.00434695801232,,,,,sub-074,1,random_dot,,
left,left,30.0,0.0,15.0,left,1.0,1.1002591669966932,,accuracy,space,5.142719499999657,,,,,,0.0,0.0,0.0,0.0,15.0,0.0,30.0,0.0,308.9776216249884,,,,,,,,,308.96875600000203,309.7680511660001,310.5598588749999,310.5514162079926,310.55189104098827,310.5598588749999,310.5598588749999,310.5598588749999,,311.66266141599044,,,,,,,,,,,,,,,,,,,,,,,,,,,,,,left,1.0,1.1002591669966932,,,,,sub-074,1,random_dot,,
right,right,31.0,1.0,15.0,right,1.0,2.8460594580101315,,accuracy,space,5.142719499999657,,,,,,0.0,0.0,0.0,0.0,15.0,1.0,31.0,1.0,311.6720503329998,,,,,,,,,311.66317945800256,312.8616089159914,313.6529187080014,313.6451282499911,313.6457007080025,313.6529187080014,313.6529187080014,313.6529187080014,,316.50152833299944,,,,,,,,,,,,,,,,,,,,,,,,,,,,,,right,1.0,2.8460594580101315,,,,,sub-074,1,random_dot,,
right,right,32.0,0.0,16.0,right,1.0,3.770724083005916,,accuracy,space,5.142719499999657,,,,,,0.0,0.0,0.0,0.0,16.0,0.0,32.0,1.0,316.5106126249884,,,,,,,,,316.5020059999952,316.601626290998,317.39317395800026,317.38444049999816,317.38496674998896,317.39317395800026,317.39317395800026,317.39317395800026,,321.1699259579909,,,,,,,,,,,,,,,,,,,,,,,,,,,,,,right,1.0,3.770724083005916,,,,,sub-074,1,random_dot,,
left,left,33.0,1.0,16.0,left,1.0,3.093022832996212,,accuracy,space,5.142719499999657,,,,,,0.0,0.0,0.0,0.0,16.0,1.0,33.0,0.0,321.1801164159988,,,,,,,,,321.1704176659987,321.5177474999946,322.3098296660028,322.3012911659898,322.3017259999906,322.3098296660028,322.3098296660028,322.3098296660028,,325.4113411659928,,,,,,,,,,,,,,,,,,,,,,,,,,,,,,left,1.0,3.093022832996212,,,,,sub-074,1,random_dot,,
left,left,34.0,0.0,17.0,right,0.0,3.801528625001083,,accuracy,space,5.142719499999657,,,,,,0.0,0.0,0.0,0.0,17.0,0.0,34.0,0.0,325.4204929999978,,,,,,,,,325.411841041001,325.751408540993,326.5431806659908,326.5342292909918,326.5346994159918,326.5431806659908,326.5431806659908,326.5431806659908,,330.3519058749953,,,,,,,,,,,,,,,,,,,,,,,,,,,,,,right,0.0,3.801528625001083,,,,,sub-074,1,random_dot,,
right,right,35.0,1.0,17.0,right,1.0,5.5743130420014495,,accuracy,space,5.142719499999657,,,,,,0.0,0.0,0.0,0.0,17.0,1.0,35.0,1.0,330.3610191659973,,,,,,,,,330.3523914159887,330.45130454099854,331.2432444159931,331.2351108750008,331.2355736249883,331.2432444159931,331.2432444159931,331.2432444159931,336.22819324999,336.8188365410024,,,,,,,,,,,,,,,,,,,,,,,,,,,,,,right,1.0,5.5743130420014495,,,,,sub-074,1,random_dot,,
left,left,36.0,0.0,18.0,right,0.0,1.820731291998527,,accuracy,space,5.142719499999657,,,,,,0.0,0.0,0.0,0.0,18.0,0.0,36.0,0.0,336.8276259580016,,,,,,,,,336.8193143749959,337.61816362499667,338.4098500830005,338.40177250000124,338.40221466599905,338.4098500830005,338.4098500830005,338.4098500830005,,340.2366238329996,,,,,,,,,,,,,,,,,,,,,,,,,,,,,,right,0.0,1.820731291998527,,,,,sub-074,1,random_dot,,
right,right,37.0,1.0,18.0,right,1.0,2.911851166994893,,accuracy,space,5.142719499999657,,,,,,0.0,0.0,0.0,0.0,18.0,1.0,37.0,1.0,340.2467706250027,,,,,,,,,340.2371179579932,341.43493495800067,342.2265547080024,342.2178077909921,342.2182536659966,342.2265547080024,342.2265547080024,342.2265547080024,,345.14623183300137,,,,,,,,,,,,,,,,,,,,,,,,,,,,,,right,1.0,2.911851166994893,,,,,sub-074,1,random_dot,,
right,right,38.0,0.0,19.0,right,1.0,3.357484291002038,,accuracy,space,5.142719499999657,,,,,,0.0,0.0,0.0,0.0,19.0,0.0,38.0,1.0,345.1554797909921,,,,,,,,,345.14674329099944,345.94478783299564,346.7369304159947,346.7286406249914,346.72919625000213,346.7369304159947,346.7369304159947,346.7369304159947,,350.1014894159889,,,,,,,,,,,,,,,,,,,,,,,,,,,,,,right,1.0,3.357484291002038,,,,,sub-074,1,random_dot,,
left,left,39.0,1.0,19.0,right,0.0,2.727223042005789,,accuracy,space,5.142719499999657,,,,,,0.0,0.0,0.0,0.0,19.0,1.0,39.0,0.0,350.1105519999983,,,,,,,,,350.1019739999901,350.89480491599534,351.68701954100106,351.678467040998,351.6791952499916,351.68701954100106,351.68701954100106,351.68701954100106,,354.4200262910017,,,,,,,,,,,,,,,,,,,,,,,,,,,,,,right,0.0,2.727223042005789,,,,,sub-074,1,random_dot,,
right,right,40.0,0.0,20.0,left,0.0,4.870022500006598,,accuracy,space,5.142719499999657,,,,,,0.0,0.0,0.0,0.0,20.0,0.0,40.0,1.0,354.4298932499951,,,,,,,,,354.42050624999683,355.2182517909969,356.0100885829888,356.0008915409999,356.001346457997,356.0100885829888,356.0100885829888,356.0100885829888,,360.8868537499948,,,,,,,,,,,,,,,,,,,,,,,,,,,,,,left,0.0,4.870022500006598,,,,,sub-074,1,random_dot,,
left,left,41.0,1.0,20.0,right,0.0,1.336571791995084,,accuracy,space,5.142719499999657,,,,,,0.0,0.0,0.0,0.0,20.0,1.0,41.0,0.0,360.8966887499992,,,,,,,,,360.8873541249922,362.0844932909968,362.8764852079912,362.8684684159962,362.8689091659908,362.8764852079912,362.8764852079912,362.8764852079912,,364.2183575829986,,,,,,,,,,,,,,,,,,,,,,,,,,,,,,right,0.0,1.336571791995084,,,,,sub-074,1,random_dot,,
left,left,42.0,0.0,21.0,right,0.0,3.35987162499805,,accuracy,space,5.142719499999657,,,,,,0.0,0.0,0.0,0.0,21.0,0.0,42.0,0.0,364.2278658750001,,,,,,,,,364.21887287498976,364.317979540996,365.1100416249974,365.10078329099633,365.1012275829999,365.1100416249974,365.1100416249974,365.1100416249974,,368.47800845799793,,,,,,,,,,,,,,,,,,,,,,,,,,,,,,right,0.0,3.35987162499805,,,,,sub-074,1,random_dot,,
right,right,43.0,1.0,21.0,right,1.0,3.2919836250075605,,accuracy,space,5.142719499999657,,,,,,0.0,0.0,0.0,0.0,21.0,1.0,43.0,1.0,368.4874207909888,,,,,,,,,368.4785000409902,368.5678611659969,369.3598666249891,369.3513098330004,369.3517390829948,369.3598666249891,369.3598666249891,369.3598666249891,,372.6617232909921,,,,,,,,,,,,,,,,,,,,,,,,,,,,,,right,1.0,3.2919836250075605,,,,,sub-074,1,random_dot,,
right,right,44.0,0.0,22.0,right,1.0,2.039553167007398,,accuracy,space,5.142719499999657,,,,,,0.0,0.0,0.0,0.0,22.0,0.0,44.0,1.0,372.67126341599214,,,,,,,,,372.662410207995,372.7514037910005,373.54320674999326,373.5342467909941,373.5346908329957,373.54320674999326,373.54320674999326,373.54320674999326,,375.5853231660003,,,,,,,,,,,,,,,,,,,,,,,,,,,,,,right,1.0,2.039553167007398,,,,,sub-074,1,random_dot,,
left,left,45.0,1.0,22.0,right,0.0,5.599917249986902,,accuracy,space,5.142719499999657,,,,,,0.0,0.0,0.0,0.0,22.0,1.0,45.0,0.0,375.5945813750004,,,,,,,,,375.5858104999934,375.9351116659964,376.7267033749959,376.71824899999774,376.718782625001,376.7267033749959,376.7267033749959,376.7267033749959,381.71665045799455,382.3303621660016,,,,,,,,,,,,,,,,,,,,,,,,,,,,,,right,0.0,5.599917249986902,,,,,sub-074,1,random_dot,,
right,right,46.0,0.0,23.0,left,0.0,4.226644499998656,,accuracy,space,5.142719499999657,,,,,,0.0,0.0,0.0,0.0,23.0,0.0,46.0,1.0,382.3402881660004,,,,,,,,,382.3313537909999,382.42805008299183,383.2209782080026,383.2119742079958,383.2126598329924,383.2209782080026,383.2209782080026,383.2209782080026,,387.45178399998986,,,,,,,,,,,,,,,,,,,,,,,,,,,,,,left,0.0,4.226644499998656,,,,,sub-074,1,random_dot,,
left,left,47.0,1.0,23.0,left,1.0,3.531051749989274,,accuracy,space,5.142719499999657,,,,,,0.0,0.0,0.0,0.0,23.0,1.0,47.0,0.0,387.46111541599385,,,,,,,,,387.4522769999894,388.6516407500021,389.4433353749919,389.4350200409972,389.4354754999949,389.4433353749919,389.4433353749919,389.4433353749919,,392.9780155409972,,,,,,,,,,,,,,,,,,,,,,,,,,,,,,left,1.0,3.531051749989274,,,,,sub-074,1,random_dot,,
right,right,48.0,0.0,24.0,right,1.0,2.665492582993465,,accuracy,space,5.142719499999657,,,,,,0.0,0.0,0.0,0.0,24.0,0.0,48.0,1.0,392.98741129098926,,,,,,,,,392.9785010409978,393.31787041599455,394.109856665993,394.1015625829896,394.1020248330024,394.109856665993,394.109856665993,394.109856665993,,396.7792577910004,,,,,,,,,,,,,,,,,,,,,,,,,,,,,,right,1.0,2.665492582993465,,,,,sub-074,1,random_dot,,
left,left,49.0,1.0,24.0,left,1.0,1.3662572500034005,,accuracy,space,5.142719499999657,,,,,,0.0,0.0,0.0,0.0,24.0,1.0,49.0,0.0,396.788528457997,,,,,,,,,396.779783082995,397.578270500002,398.3700224579952,398.3618680829968,398.3624509999936,398.3700224579952,398.3700224579952,398.3700224579952,,399.7458942499943,,,,,,,,,,,,,,,,,,,,,,,,,,,,,,left,1.0,1.3662572500034005,,,,,sub-074,1,random_dot,,
right,right,50.0,0.0,25.0,right,1.0,2.476818834009464,,accuracy,space,5.142719499999657,,,,,,0.0,0.0,0.0,0.0,25.0,0.0,50.0,1.0,399.7551597499987,,,,,,,,,399.74642137499177,400.5449500409886,401.3373329999886,401.3286235409905,401.3293463329901,401.3373329999886,401.3373329999886,401.3373329999886,,403.8196519579942,,,,,,,,,,,,,,,,,,,,,,,,,,,,,,right,1.0,2.476818834009464,,,,,sub-074,1,random_dot,,
left,left,51.0,1.0,25.0,left,1.0,1.843140457989648,,accuracy,space,5.142719499999657,,,,,,0.0,0.0,0.0,0.0,25.0,1.0,51.0,0.0,403.8277806249971,,,,,,,,,403.8200802909996,404.6185094999964,405.409945833002,405.40184029100055,405.4023289999896,405.409945833002,405.409945833002,405.409945833002,,407.2623053330026,,,,,,,,,,,,,,,,,,,,,,,,,,,,,,left,1.0,1.843140457989648,,,,,sub-074,1,random_dot,,
left,left,52.0,0.0,26.0,right,0.0,3.506309083008091,,accuracy,space,5.142719499999657,,,,,,0.0,0.0,0.0,0.0,26.0,0.0,52.0,0.0,407.2716362909996,,,,,,,,,407.2630721250025,407.3514738329977,408.152601875001,408.1450698330009,408.1455342909903,408.152601875001,408.152601875001,408.152601875001,,411.6629344999965,,,,,,,,,,,,,,,,,,,,,,,,,,,,,,right,0.0,3.506309083008091,,,,,sub-074,1,random_dot,,
right,right,53.0,1.0,26.0,left,0.0,1.2718885829963256,,accuracy,space,5.142719499999657,,,,,,0.0,0.0,0.0,0.0,26.0,1.0,53.0,1.0,411.6719806659967,,,,,,,,,411.6636095409922,412.46158429099887,413.2540059159946,413.2454419159913,413.246127958002,413.2540059159946,413.2540059159946,413.2540059159946,,414.5295898329932,,,,,,,,,,,,,,,,,,,,,,,,,,,,,,left,0.0,1.2718885829963256,,,,,sub-074,1,random_dot,,
left,left,54.0,0.0,27.0,left,1.0,4.316020666999975,,accuracy,space,5.142719499999657,,,,,,0.0,0.0,0.0,0.0,27.0,0.0,54.0,0.0,414.5387251659995,,,,,,,,,414.5302440410014,415.7283090830024,416.5208182499919,416.5118649579963,416.5124607079924,416.5208182499919,416.5208182499919,416.5208182499919,,420.8447995409952,,,,,,,,,,,,,,,,,,,,,,,,,,,,,,left,1.0,4.316020666999975,,,,,sub-074,1,random_dot,,
right,right,55.0,1.0,27.0,right,1.0,0.902506166996318,,accuracy,space,5.142719499999657,,,,,,0.0,0.0,0.0,0.0,27.0,1.0,55.0,1.0,420.8536548330012,,,,,,,,,420.8452772079909,420.93399350000254,421.72729883299326,421.7185240830004,421.71905745800177,421.72729883299326,421.72729883299326,421.72729883299326,,422.6360125829961,,,,,,,,,,,,,,,,,,,,,,,,,,,,,,right,1.0,0.902506166996318,,,,,sub-074,1,random_dot,,
left,left,56.0,0.0,28.0,left,1.0,1.9900833749998128,,accuracy,space,5.142719499999657,,,,,,0.0,0.0,0.0,0.0,28.0,0.0,56.0,0.0,422.6611959579896,,,,,,,,,422.6364924999944,422.9845453329908,423.7766787909932,423.76814433299296,423.7685843749932,423.7766787909932,423.7766787909932,423.7766787909932,,425.7701885409915,,,,,,,,,,,,,,,,,,,,,,,,,,,,,,left,1.0,1.9900833749998128,,,,,sub-074,1,random_dot,,
right,right,57.0,1.0,28.0,right,1.0,1.639637957996456,,accuracy,space,5.142719499999657,,,,,,0.0,0.0,0.0,0.0,28.0,1.0,57.0,1.0,425.7798354999977,,,,,,,,,425.7706759579887,426.9683484999987,427.76818341598846,427.76098391599953,427.7613866249885,427.76818341598846,427.76818341598846,427.76818341598846,,429.4126289580017,,,,,,,,,,,,,,,,,,,,,,,,,,,,,,right,1.0,1.639637957996456,,,,,sub-074,1,random_dot,,
right,right,58.0,0.0,29.0,right,1.0,2.211898707988439,,accuracy,space,5.142719499999657,,,,,,0.0,0.0,0.0,0.0,29.0,0.0,58.0,1.0,429.4220219159906,,,,,,,,,429.4132067499886,429.761485540992,430.5537069999991,430.5453610830009,430.5460912499984,430.5537069999991,430.5537069999991,430.5537069999991,,432.76984391600126,,,,,,,,,,,,,,,,,,,,,,,,,,,,,,right,1.0,2.211898707988439,,,,,sub-074,1,random_dot,,
left,left,59.0,1.0,29.0,right,0.0,1.028506375005236,,accuracy,space,5.142719499999657,,,,,,0.0,0.0,0.0,0.0,29.0,1.0,59.0,0.0,432.7800225409883,,,,,,,,,432.7703212909983,433.11779779099743,433.9101524579892,433.9006755409937,433.9011166659912,433.9101524579892,433.9101524579892,433.9101524579892,,434.9446862499899,,,,,,,,,,,,,,,,,,,,,,,,,,,,,,right,0.0,1.028506375005236,,,,,sub-074,1,random_dot,,
,,0.0,0.0,0.0,,,,,accuracy,space,5.142719499999657,,,,,,0.0,0.0,0.0,0.0,,,,,,,,,,,,,,,,,,,,,,,,,,,,,,,,,,,,,,,,,,,,,,,,,,,,,,,,,,,,sub-074,1,random_dot,,
left,left,0.0,0.0,0.0,right,0.0,2.5661837499937974,,speed,space,9.96554499999911,,,,,,0.0,1.0,1.0,1.0,0.0,0.0,0.0,0.0,444.96564533299534,,,,,,,,,444.9561404999986,445.2948439579922,446.0878565409949,446.0785154579935,446.07920891599497,446.0878565409949,446.0878565409949,446.0878565409949,,448.6626083750016,,,,,,,,,,,,,,,,,,,,,,,434.9629445409955,434.9705508749903,434.9705508749903,444.9462389580003,space,9.96554499999911,,right,0.0,2.5661837499937974,,,,,sub-074,1,random_dot,,
right,right,1.0,1.0,0.0,right,1.0,1.1434240419912385,,speed,space,9.96554499999911,,,,,,0.0,1.0,1.0,1.0,0.0,1.0,1.0,1.0,448.6704654159985,,,,,,,,,448.6630172079895,449.0115730409889,449.8036138329917,449.7954194999911,449.7960912909912,449.8036138329917,449.8036138329917,449.8036138329917,,450.9520065830002,,,,,,,,,,,,,,,,,,,,,,,,,,,,,,right,1.0,1.1434240419912385,,,,,sub-074,1,random_dot,,
right,right,2.0,0.0,1.0,right,1.0,1.1955480829929002,,speed,space,9.96554499999911,,,,,,0.0,1.0,1.0,1.0,1.0,0.0,2.0,1.0,450.9604062500002,,,,,,,,,450.9525035409897,452.15146112500224,452.95334479099256,452.9452031249966,452.9458774160012,452.95334479099256,452.95334479099256,452.95334479099256,,454.1517939579935,,,,,,,,,,,,,,,,,,,,,,,,,,,,,,right,1.0,1.1955480829929002,,,,,sub-074,1,random_dot,,
left,left,3.0,1.0,1.0,right,0.0,2.743333082995377,,speed,space,9.96554499999911,,,,,,0.0,1.0,1.0,1.0,1.0,1.0,3.0,0.0,454.1602409159968,,,,,,,,,454.1522579579905,454.5014514159993,455.29363637499046,455.2847340409935,455.2852809159958,455.29363637499046,455.29363637499046,455.29363637499046,,458.0460186249984,,,,,,,,,,,,,,,,,,,,,,,,,,,,,,right,0.0,2.743333082995377,,,,,sub-074,1,random_dot,,
left,left,4.0,0.0,2.0,left,1.0,4.3559624170011375,,speed,space,9.96554499999911,,,,,,0.0,1.0,1.0,1.0,2.0,0.0,4.0,0.0,458.0548818749958,,,,,,,,,458.0465212499985,458.1447152079927,458.936795540998,458.9284248329932,458.9289516249992,458.936795540998,458.936795540998,458.936795540998,,463.295385999998,,,,,,,,,,,,,,,,,,,,,,,,,,,,,,left,1.0,4.3559624170011375,,,,,sub-074,1,random_dot,,
right,right,5.0,1.0,2.0,right,1.0,0.9074546670017298,,speed,space,9.96554499999911,,,,,,0.0,1.0,1.0,1.0,2.0,1.0,5.0,1.0,463.3046287909965,,,,,,,,,463.295894165989,463.3845511249965,464.1770326659898,464.16758016600215,464.1680245409953,464.1770326659898,464.1770326659898,464.1770326659898,,465.086922040995,,,,,,,,,,,,,,,,,,,,,,,,,,,,,,right,1.0,0.9074546670017298,,,,,sub-074,1,random_dot,,
left,left,6.0,0.0,3.0,right,0.0,1.521374584001023,,speed,space,9.96554499999911,,,,,,0.0,1.0,1.0,1.0,3.0,0.0,6.0,0.0,465.0964912079944,,,,,,,,,465.0873929160007,465.184942915992,465.98589020800136,465.978326832992,465.9787769159884,465.98589020800136,465.98589020800136,465.98589020800136,,467.5129606659903,,,,,,,,,,,,,,,,,,,,,,,,,,,,,,right,0.0,1.521374584001023,,,,,sub-074,1,random_dot,,
right,right,7.0,1.0,3.0,right,1.0,1.4843299159983872,,speed,space,9.96554499999911,,,,,,0.0,1.0,1.0,1.0,3.0,1.0,7.0,1.0,467.5214961659949,,,,,,,,,467.51339812499646,467.86150724999607,468.6522504579916,468.6448639579903,468.64531737499055,468.6522504579916,468.6522504579916,468.6522504579916,,470.1450864159997,,,,,,,,,,,,,,,,,,,,,,,,,,,,,,right,1.0,1.4843299159983872,,,,,sub-074,1,random_dot,,
left,left,8.0,0.0,4.0,right,0.0,2.026535500001046,,speed,space,9.96554499999911,,,,,,0.0,1.0,1.0,1.0,4.0,0.0,8.0,0.0,470.1535573329893,,,,,,,,,470.1456562910025,470.2348016659962,471.027027499993,471.0183343749959,471.01877191600215,471.027027499993,471.027027499993,471.027027499993,,473.0617514999904,,,,,,,,,,,,,,,,,,,,,,,,,,,,,,right,0.0,2.026535500001046,,,,,sub-074,1,random_dot,,
right,right,9.0,1.0,4.0,left,0.0,1.0557611669937614,,speed,space,9.96554499999911,,,,,,0.0,1.0,1.0,1.0,4.0,1.0,9.0,1.0,473.0703988749883,,,,,,,,,473.0622603329976,473.4001200409984,474.1937225829897,474.1843343749933,474.1847694159951,474.1937225829897,474.1937225829897,474.1937225829897,,475.2530464579904,,,,,,,,,,,,,,,,,,,,,,,,,,,,,,left,0.0,1.0557611669937614,,,,,sub-074,1,random_dot,,
right,right,10.0,0.0,5.0,right,1.0,0.6707457919983426,,speed,space,9.96554499999911,,,,,,0.0,1.0,1.0,1.0,5.0,0.0,10.0,1.0,475.2780407499959,,,,,,,,,475.2535281250021,475.3505499999883,476.14369683299446,476.1348757499945,476.13539458299056,476.14369683299446,476.14369683299446,476.14369683299446,,476.8208156249893,,,,,,,,,,,,,,,,,,,,,,,,,,,,,,right,1.0,0.6707457919983426,,,,,sub-074,1,random_dot,,
left,left,11.0,1.0,5.0,left,1.0,2.9733570420066826,,speed,space,9.96554499999911,,,,,,0.0,1.0,1.0,1.0,5.0,1.0,11.0,0.0,476.8299991660024,,,,,,,,,476.8212852909928,477.1684441249963,477.9600031659938,477.9517935829936,477.9522369999904,477.9600031659938,477.9600031659938,477.9600031659938,,480.9360198749928,,,,,,,,,,,,,,,,,,,,,,,,,,,,,,left,1.0,2.9733570420066826,,,,,sub-074,1,random_dot,,
left,left,12.0,0.0,6.0,right,0.0,1.6193012080038898,,speed,space,9.96554499999911,,,,,,0.0,1.0,1.0,1.0,6.0,0.0,12.0,0.0,480.9443187909928,,,,,,,,,480.9364910000004,481.0344407499943,481.8270970829908,481.8183702079986,481.8188465830026,481.8270970829908,481.8270970829908,481.8270970829908,,483.4533849579893,,,,,,,,,,,,,,,,,,,,,,,,,,,,,,right,0.0,1.6193012080038898,,,,,sub-074,1,random_dot,,
right,right,13.0,1.0,6.0,right,1.0,0.9948572080029408,,speed,space,9.96554499999911,,,,,,0.0,1.0,1.0,1.0,6.0,1.0,13.0,1.0,483.4779807500017,,,,,,,,,483.4538779579889,484.2506932499964,485.0533546660008,485.0452471250028,485.04577754098864,485.0533546660008,485.0533546660008,485.0533546660008,,486.0523425829888,,,,,,,,,,,,,,,,,,,,,,,,,,,,,,right,1.0,0.9948572080029408,,,,,sub-074,1,random_dot,,
left,left,14.0,0.0,7.0,right,0.0,1.5046100420004225,,speed,space,9.96554499999911,,,,,,0.0,1.0,1.0,1.0,7.0,0.0,14.0,0.0,486.0603756249912,,,,,,,,,486.05271404099767,487.2524203749927,488.05311133299256,488.0451604159898,488.0457092500001,488.05311133299256,488.05311133299256,488.05311133299256,,489.5624501659913,,,,,,,,,,,,,,,,,,,,,,,,,,,,,,right,0.0,1.5046100420004225,,,,,sub-074,1,random_dot,,
right,right,15.0,1.0,7.0,left,0.0,1.962355541007128,,speed,space,9.96554499999911,,,,,,0.0,1.0,1.0,1.0,7.0,1.0,15.0,1.0,489.56972641599714,,,,,,,,,489.5628469999938,490.35168374999193,491.1528650830005,491.14511208300246,491.1456398750015,491.1528650830005,491.1528650830005,491.1528650830005,,493.1181427909905,,,,,,,,,,,,,,,,,,,,,,,,,,,,,,left,0.0,1.962355541007128,,,,,sub-074,1,random_dot,,
left,left,16.0,0.0,8.0,right,0.0,2.977989292005077,,speed,space,9.96554499999911,,,,,,0.0,1.0,1.0,1.0,8.0,0.0,16.0,0.0,493.1273866659904,,,,,,,,,493.1186343329901,493.4682764159952,494.2710182909941,494.262200290992,494.2628938330017,494.2710182909941,494.2710182909941,494.2710182909941,,497.2523373329896,,,,,,,,,,,,,,,,,,,,,,,,,,,,,,right,0.0,2.977989292005077,,,,,sub-074,1,random_dot,,
right,right,17.0,1.0,8.0,left,0.0,1.1424615840078332,,speed,space,9.96554499999911,,,,,,0.0,1.0,1.0,1.0,8.0,1.0,17.0,1.0,497.2598134159925,,,,,,,,,497.2527505409962,498.45147941599134,499.243363415997,499.2350806249888,499.2355967909971,499.243363415997,499.243363415997,499.243363415997,,500.3957414159959,,,,,,,,,,,,,,,,,,,,,,,,,,,,,,left,0.0,1.1424615840078332,,,,,sub-074,1,random_dot,,
left,left,18.0,0.0,9.0,left,1.0,1.340791624999838,,speed,space,9.96554499999911,,,,,,0.0,1.0,1.0,1.0,9.0,0.0,18.0,0.0,500.4027420409984,,,,,,,,,500.3961572080007,500.734762291002,501.527083915993,501.51781037499313,501.5182393329888,501.527083915993,501.527083915993,501.527083915993,,502.8792563749885,,,,,,,,,,,,,,,,,,,,,,,,,,,,,,left,1.0,1.340791624999838,,,,,sub-074,1,random_dot,,
right,right,19.0,1.0,9.0,right,1.0,3.3418151249934454,,speed,space,9.96554499999911,,,,,,0.0,1.0,1.0,1.0,9.0,1.0,19.0,1.0,502.8867991250008,,,,,,,,,502.8796516250004,504.0781343749986,504.8700063329889,504.8619172079925,504.8624489579961,504.8700063329889,504.8700063329889,504.8700063329889,,508.21840279099706,,,,,,,,,,,,,,,,,,,,,,,,,,,,,,right,1.0,3.3418151249934454,,,,,sub-074,1,random_dot,,
right,right,20.0,0.0,10.0,right,1.0,2.045386458004941,,speed,space,9.96554499999911,,,,,,0.0,1.0,1.0,1.0,10.0,0.0,20.0,1.0,508.2275425830012,,,,,,,,,508.218883249996,509.0165395829972,509.8113391249936,509.8002942079911,509.8007185000024,509.8113391249936,509.8113391249936,509.8113391249936,,511.8616906660027,,,,,,,,,,,,,,,,,,,,,,,,,,,,,,right,1.0,2.045386458004941,,,,,sub-074,1,random_dot,,
left,left,21.0,1.0,10.0,left,1.0,1.5182334170094691,,speed,space,9.96554499999911,,,,,,0.0,1.0,1.0,1.0,10.0,1.0,21.0,0.0,511.8713425000024,,,,,,,,,511.86231720799697,512.6516254159942,513.4433076249989,513.4344681249931,513.4349053329934,513.4433076249989,513.4433076249989,513.4433076249989,,514.9681785829889,,,,,,,,,,,,,,,,,,,,,,,,,,,,,,left,1.0,1.5182334170094691,,,,,sub-074,1,random_dot,,
right,right,22.0,0.0,11.0,left,0.0,1.2705970420065569,,speed,space,9.96554499999911,,,,,,0.0,1.0,1.0,1.0,11.0,0.0,22.0,1.0,514.9772735000006,,,,,,,,,514.9686603329901,516.1673475829884,516.9599613749888,516.9516272079927,516.9520727909985,516.9599613749888,516.9599613749888,516.9599613749888,,518.2350812910008,,,,,,,,,,,,,,,,,,,,,,,,,,,,,,left,0.0,1.2705970420065569,,,,,sub-074,1,random_dot,,
left,left,23.0,1.0,11.0,left,1.0,1.1428139579948038,,speed,space,9.96554499999911,,,,,,0.0,1.0,1.0,1.0,11.0,1.0,23.0,0.0,518.2445210829901,,,,,,,,,518.2355477079982,519.4341507499921,520.2266744579974,520.2178984159982,520.2184270409925,520.2266744579974,520.2266744579974,520.2266744579974,,521.3792154159892,,,,,,,,,,,,,,,,,,,,,,,,,,,,,,left,1.0,1.1428139579948038,,,,,sub-074,1,random_dot,,
right,right,24.0,0.0,12.0,right,1.0,1.8466009170078903,,speed,space,9.96554499999911,,,,,,0.0,1.0,1.0,1.0,12.0,0.0,24.0,1.0,521.3890607499925,,,,,,,,,521.3798983750021,521.4783705829905,522.2699250829901,522.261776415995,522.2623607909918,522.2699250829901,522.2699250829901,522.2699250829901,,524.1190061660018,,,,,,,,,,,,,,,,,,,,,,,,,,,,,,right,1.0,1.8466009170078903,,,,,sub-074,1,random_dot,,
left,left,25.0,1.0,12.0,left,1.0,1.6683488749986282,,speed,space,9.96554499999911,,,,,,0.0,1.0,1.0,1.0,12.0,1.0,25.0,0.0,524.1275628329895,,,,,,,,,524.119484875002,524.2180227499921,525.0099502499943,525.0009085409984,525.0014024580014,525.0099502499943,525.0099502499943,525.0099502499943,,526.6866583749943,,,,,,,,,,,,,,,,,,,,,,,,,,,,,,left,1.0,1.6683488749986282,,,,,sub-074,1,random_dot,,
right,right,26.0,0.0,13.0,right,1.0,3.3186580409965245,,speed,space,9.96554499999911,,,,,,0.0,1.0,1.0,1.0,13.0,0.0,26.0,1.0,526.7112526659912,,,,,,,,,526.68710791599,527.4834929159988,528.2766684579983,528.2673210409994,528.2678513749997,528.2766684579983,528.2766684579983,528.2766684579983,,531.602648125001,,,,,,,,,,,,,,,,,,,,,,,,,,,,,,right,1.0,3.3186580409965245,,,,,sub-074,1,random_dot,,
left,left,27.0,1.0,13.0,left,1.0,1.2677626670047175,,speed,space,9.96554499999911,,,,,,0.0,1.0,1.0,1.0,13.0,1.0,27.0,0.0,531.6277745409898,,,,,,,,,531.6031397079933,532.803491957995,533.603437999991,533.5952140000009,533.5957919999928,533.603437999991,533.603437999991,533.603437999991,,534.8796635829931,,,,,,,,,,,,,,,,,,,,,,,,,,,,,,left,1.0,1.2677626670047175,,,,,sub-074,1,random_dot,,
right,right,28.0,0.0,14.0,right,1.0,1.985272375008208,,speed,space,9.96554499999911,,,,,,0.0,1.0,1.0,1.0,14.0,0.0,28.0,1.0,534.8887227910018,,,,,,,,,534.8801934160001,535.6781326659984,536.4699134999973,536.4619784579991,536.4627112079907,536.4699134999973,536.4699134999973,536.4699134999973,,538.4613257500023,,,,,,,,,,,,,,,,,,,,,,,,,,,,,,right,1.0,1.985272375008208,,,,,sub-074,1,random_dot,,
left,left,29.0,1.0,14.0,left,1.0,1.8494232920056677,,speed,space,9.96554499999911,,,,,,0.0,1.0,1.0,1.0,14.0,1.0,29.0,0.0,538.4698342499905,,,,,,,,,538.4617569999973,538.800917540997,539.5936102080013,539.5837287079921,539.5841921659885,539.5936102080013,539.5936102080013,539.5936102080013,,541.4446673329949,,,,,,,,,,,,,,,,,,,,,,,,,,,,,,left,1.0,1.8494232920056677,,,,,sub-074,1,random_dot,,
left,left,30.0,0.0,15.0,left,1.0,4.96017804199073,,speed,space,9.96554499999911,,,,,,0.0,1.0,1.0,1.0,15.0,0.0,30.0,0.0,541.4539707910008,,,,,,,,,541.4451485829923,541.5361914160021,542.3367136659945,542.3285083749943,542.3290383330022,542.3367136659945,542.3367136659945,542.3367136659945,,547.3023430829926,,,,,,,,,,,,,,,,,,,,,,,,,,,,,,left,1.0,4.96017804199073,,,,,sub-074,1,random_dot,,
right,right,31.0,1.0,15.0,right,1.0,0.8646470839885296,,speed,space,9.96554499999911,,,,,,0.0,1.0,1.0,1.0,15.0,1.0,31.0,1.0,547.310926332997,,,,,,,,,547.3027873329993,547.4008679159888,548.1932784160017,548.1842289999913,548.1848167499993,548.1932784160017,548.1932784160017,548.1932784160017,,549.0624327499972,,,,,,,,,,,,,,,,,,,,,,,,,,,,,,right,1.0,0.8646470839885296,,,,,sub-074,1,random_dot,,
right,right,32.0,0.0,16.0,left,0.0,2.607374750004965,,speed,space,9.96554499999911,,,,,,0.0,1.0,1.0,1.0,16.0,0.0,32.0,1.0,549.0709650829958,,,,,,,,,549.062922290992,549.1615030829998,549.9534169580002,549.9453081659885,549.9458462079929,549.9534169580002,549.9534169580002,549.9534169580002,,552.5627883330017,,,,,,,,,,,,,,,,,,,,,,,,,,,,,,left,0.0,2.607374750004965,,,,,sub-074,1,random_dot,,
left,left,33.0,1.0,16.0,left,1.0,2.378063291005674,,speed,space,9.96554499999911,,,,,,0.0,1.0,1.0,1.0,16.0,1.0,33.0,0.0,552.571481291001,,,,,,,,,552.5632924999954,552.9115697499947,553.7027241249889,553.6948007909959,553.6953189579945,553.7027241249889,553.7027241249889,553.7027241249889,,556.0854634999996,,,,,,,,,,,,,,,,,,,,,,,,,,,,,,left,1.0,2.378063291005674,,,,,sub-074,1,random_dot,,
left,left,34.0,0.0,17.0,left,1.0,2.048276250003255,,speed,space,9.96554499999911,,,,,,0.0,1.0,1.0,1.0,17.0,0.0,34.0,0.0,556.1114175409894,,,,,,,,,556.0860264579969,556.8854840830027,557.6864333749982,557.678492082996,557.6790494579909,557.6864333749982,557.6864333749982,557.6864333749982,,559.7371350409958,,,,,,,,,,,,,,,,,,,,,,,,,,,,,,left,1.0,2.048276250003255,,,,,sub-074,1,random_dot,,
right,right,35.0,1.0,17.0,right,1.0,0.9660811250068946,,speed,space,9.96554499999911,,,,,,0.0,1.0,1.0,1.0,17.0,1.0,35.0,1.0,559.7473234579957,,,,,,,,,559.7376591659995,560.9341557500011,561.7274698330002,561.717417790991,561.7178378749959,561.7274698330002,561.7274698330002,561.7274698330002,,562.7017821659974,,,,,,,,,,,,,,,,,,,,,,,,,,,,,,right,1.0,0.9660811250068946,,,,,sub-074,1,random_dot,,
right,right,36.0,0.0,18.0,right,1.0,4.289023334000376,,speed,space,9.96554499999911,,,,,,0.0,1.0,1.0,1.0,18.0,0.0,36.0,1.0,562.7107052909996,,,,,,,,,562.7022670409933,563.5014156249963,564.2934334579913,564.2851731659903,564.2856053750002,564.2934334579913,564.2934334579913,564.2934334579913,,568.5861452079989,,,,,,,,,,,,,,,,,,,,,,,,,,,,,,right,1.0,4.289023334000376,,,,,sub-074,1,random_dot,,
left,left,37.0,1.0,18.0,left,1.0,4.325675917003537,,speed,space,9.96554499999911,,,,,,0.0,1.0,1.0,1.0,18.0,1.0,37.0,0.0,568.5967729159893,,,,,,,,,568.5866552499938,569.7840235409967,570.5766516659933,570.5675259999989,570.5679792500014,570.5766516659933,570.5766516659933,570.5766516659933,,574.9114662499924,,,,,,,,,,,,,,,,,,,,,,,,,,,,,,left,1.0,4.325675917003537,,,,,sub-074,1,random_dot,,
right,right,38.0,0.0,19.0,right,1.0,2.57305062499654,,speed,space,9.96554499999911,,,,,,0.0,1.0,1.0,1.0,19.0,0.0,38.0,1.0,574.920848624999,,,,,,,,,574.9119764579955,576.1019110829948,576.8932618749968,576.8849452909926,576.8853897910012,576.8932618749968,576.8932618749968,576.8932618749968,,579.468753832989,,,,,,,,,,,,,,,,,,,,,,,,,,,,,,right,1.0,2.57305062499654,,,,,sub-074,1,random_dot,,
left,left,39.0,1.0,19.0,left,1.0,2.571188000001712,,speed,space,9.96554499999911,,,,,,0.0,1.0,1.0,1.0,19.0,1.0,39.0,0.0,579.4781096660008,,,,,,,,,579.4692642079899,580.6670407909987,581.4698879159987,581.4618680409912,581.462408499996,581.4698879159987,581.4698879159987,581.4698879159987,,584.0448151250021,,,,,,,,,,,,,,,,,,,,,,,,,,,,,,left,1.0,2.571188000001712,,,,,sub-074,1,random_dot,,
right,right,40.0,0.0,20.0,right,1.0,1.8303083750070075,,speed,space,9.96554499999911,,,,,,0.0,1.0,1.0,1.0,20.0,0.0,40.0,1.0,584.0544812500011,,,,,,,,,584.045299749996,584.8340831660025,585.6267175409885,585.6181311659893,585.6185844159918,585.6267175409885,585.6267175409885,585.6267175409885,,587.4614791249915,,,,,,,,,,,,,,,,,,,,,,,,,,,,,,right,1.0,1.8303083750070075,,,,,sub-074,1,random_dot,,
left,left,41.0,1.0,20.0,right,0.0,2.022604208003031,,speed,space,9.96554499999911,,,,,,0.0,1.0,1.0,1.0,20.0,1.0,41.0,0.0,587.4708247499948,,,,,,,,,587.4619588329952,588.2513482499926,589.0434743749938,589.0343122909981,589.0348646249913,589.0434743749938,589.0434743749938,589.0434743749938,,591.0692149999959,,,,,,,,,,,,,,,,,,,,,,,,,,,,,,right,0.0,2.022604208003031,,,,,sub-074,1,random_dot,,
left,left,42.0,0.0,21.0,left,1.0,1.628753916011192,,speed,space,9.96554499999911,,,,,,0.0,1.0,1.0,1.0,21.0,0.0,42.0,0.0,591.0946746249974,,,,,,,,,591.0696980409994,592.2681190000003,593.0599678750004,593.051638207995,593.052086249998,593.0599678750004,593.0599678750004,593.0599678750004,,594.6948277499905,,,,,,,,,,,,,,,,,,,,,,,,,,,,,,left,1.0,1.628753916011192,,,,,sub-074,1,random_dot,,
right,right,43.0,1.0,21.0,left,0.0,2.955202041004668,,speed,space,9.96554499999911,,,,,,0.0,1.0,1.0,1.0,21.0,1.0,43.0,1.0,594.7040657079924,,,,,,,,,594.6953334579885,594.7848701249895,595.5865885410021,595.5785613749904,595.5791084579978,595.5865885410021,595.5865885410021,595.5865885410021,,598.5451318749983,,,,,,,,,,,,,,,,,,,,,,,,,,,,,,left,0.0,2.955202041004668,,,,,sub-074,1,random_dot,,
left,left,44.0,0.0,22.0,right,0.0,2.844971708007506,,speed,space,9.96554499999911,,,,,,0.0,1.0,1.0,1.0,22.0,0.0,44.0,0.0,598.5552167499991,,,,,,,,,598.5457525829988,598.8842602499935,599.6767521659931,599.6675880830007,599.6680262500013,599.6767521659931,599.6767521659931,599.6767521659931,,602.5289873329893,,,,,,,,,,,,,,,,,,,,,,,,,,,,,,right,0.0,2.844971708007506,,,,,sub-074,1,random_dot,,
right,right,45.0,1.0,22.0,right,1.0,0.8537787919922266,,speed,space,9.96554499999911,,,,,,0.0,1.0,1.0,1.0,22.0,1.0,45.0,1.0,602.5381187909952,,,,,,,,,602.5294912909885,603.3172889159905,604.1099450829934,604.1015283329907,604.1019646659988,604.1099450829934,604.1099450829934,604.1099450829934,,604.9685839159938,,,,,,,,,,,,,,,,,,,,,,,,,,,,,,right,1.0,0.8537787919922266,,,,,sub-074,1,random_dot,,
right,right,46.0,0.0,23.0,right,1.0,0.9490317079907982,,speed,space,9.96554499999911,,,,,,0.0,1.0,1.0,1.0,23.0,0.0,46.0,1.0,604.994662165991,,,,,,,,,604.9690659999906,605.7685098749935,606.5706014579919,606.5620784999919,606.5628122499911,606.5706014579919,606.5706014579919,606.5706014579919,,607.5288087079971,,,,,,,,,,,,,,,,,,,,,,,,,,,,,,right,1.0,0.9490317079907982,,,,,sub-074,1,random_dot,,
left,left,47.0,1.0,23.0,right,0.0,5.620507624989841,,speed,space,9.96554499999911,,,,,,0.0,1.0,1.0,1.0,23.0,1.0,47.0,0.0,607.5376907079917,,,,,,,,,607.5292752910027,608.7185502499924,609.5099308749923,609.5013974579924,609.5019267079915,609.5099308749923,609.5099308749923,609.5099308749923,614.5001684579911,615.136702082993,,,,,,,,,,,,,,,,,,,,,,,,,,,,,,right,0.0,5.620507624989841,,,,,sub-074,1,random_dot,,
right,right,48.0,0.0,24.0,left,0.0,3.893777917008265,,speed,space,9.96554499999911,,,,,,0.0,1.0,1.0,1.0,24.0,0.0,48.0,1.0,615.147121624992,,,,,,,,,615.1373282080021,616.3350812080025,617.1265952499962,617.1179424159927,617.1184616659884,617.1265952499962,617.1265952499962,617.1265952499962,,621.0298524999962,,,,,,,,,,,,,,,,,,,,,,,,,,,,,,left,0.0,3.893777917008265,,,,,sub-074,1,random_dot,,
left,left,49.0,1.0,24.0,left,1.0,2.168743458008976,,speed,space,9.96554499999911,,,,,,0.0,1.0,1.0,1.0,24.0,1.0,49.0,0.0,621.0395385829906,,,,,,,,,621.0303953330003,622.2286124160019,623.0204594999959,623.0120874580025,623.0127867499978,623.0204594999959,623.0204594999959,623.0204594999959,,625.1964967910026,,,,,,,,,,,,,,,,,,,,,,,,,,,,,,left,1.0,2.168743458008976,,,,,sub-074,1,random_dot,,
left,left,50.0,0.0,25.0,left,1.0,1.5026613749942044,,speed,space,9.96554499999911,,,,,,0.0,1.0,1.0,1.0,25.0,0.0,50.0,0.0,625.2063339579909,,,,,,,,,625.1971079579962,626.3949562909984,627.1934870409896,627.1825460830005,627.1830039579945,627.1934870409896,627.1934870409896,627.1934870409896,,628.7030614159885,,,,,,,,,,,,,,,,,,,,,,,,,,,,,,left,1.0,1.5026613749942044,,,,,sub-074,1,random_dot,,
right,right,51.0,1.0,25.0,left,0.0,4.206918832991505,,speed,space,9.96554499999911,,,,,,0.0,1.0,1.0,1.0,25.0,1.0,51.0,1.0,628.7134656249982,,,,,,,,,628.7035862909979,629.051771457991,629.8433513749915,629.8344591249916,629.8349387909984,629.8433513749915,629.8433513749915,629.8433513749915,,634.0527613750019,,,,,,,,,,,,,,,,,,,,,,,,,,,,,,left,0.0,4.206918832991505,,,,,sub-074,1,random_dot,,
right,right,52.0,0.0,26.0,left,0.0,1.5578163330064854,,speed,space,9.96554499999911,,,,,,0.0,1.0,1.0,1.0,26.0,0.0,52.0,1.0,634.0633474579954,,,,,,,,,634.0532586249901,634.4022884159931,635.2041279159894,635.1953949159943,635.1961309579929,635.2041279159894,635.2041279159894,635.2041279159894,,636.7684736660012,,,,,,,,,,,,,,,,,,,,,,,,,,,,,,left,0.0,1.5578163330064854,,,,,sub-074,1,random_dot,,
left,left,53.0,1.0,26.0,right,0.0,1.774926875004894,,speed,space,9.96554499999911,,,,,,0.0,1.0,1.0,1.0,26.0,1.0,53.0,0.0,636.7772745409893,,,,,,,,,636.7689657909941,637.1185992909886,637.9100105409889,637.9014027910016,637.9018902079988,637.9100105409889,637.9100105409889,637.9100105409889,,639.6871405409911,,,,,,,,,,,,,,,,,,,,,,,,,,,,,,right,0.0,1.774926875004894,,,,,sub-074,1,random_dot,,
left,left,54.0,0.0,27.0,right,0.0,3.350814749996061,,speed,space,9.96554499999911,,,,,,0.0,1.0,1.0,1.0,27.0,0.0,54.0,0.0,639.6968880409986,,,,,,,,,639.6876262909936,640.485014291,641.2849355409999,641.2776319999975,641.2784097499971,641.2849355409999,641.2849355409999,641.2849355409999,,644.6448365830001,,,,,,,,,,,,,,,,,,,,,,,,,,,,,,right,0.0,3.350814749996061,,,,,sub-074,1,random_dot,,
right,right,55.0,1.0,27.0,right,1.0,2.9971332079876447,,speed,space,9.96554499999911,,,,,,0.0,1.0,1.0,1.0,27.0,1.0,55.0,1.0,644.6540906250011,,,,,,,,,644.645347083002,645.4333523749956,646.2266162079904,646.2181672079896,646.2186163329898,646.2266162079904,646.2266162079904,646.2266162079904,,649.2298432499956,,,,,,,,,,,,,,,,,,,,,,,,,,,,,,right,1.0,2.9971332079876447,,,,,sub-074,1,random_dot,,
left,left,56.0,0.0,28.0,left,1.0,4.894132540997816,,speed,space,9.96554499999911,,,,,,0.0,1.0,1.0,1.0,28.0,0.0,56.0,0.0,649.2393665409909,,,,,,,,,649.2305104159896,649.3284207499964,650.120494207993,650.112097958001,650.1127851659985,650.120494207993,650.120494207993,650.120494207993,,655.0187675409979,,,,,,,,,,,,,,,,,,,,,,,,,,,,,,left,1.0,4.894132540997816,,,,,sub-074,1,random_dot,,
right,right,57.0,1.0,28.0,right,1.0,1.3076318749954223,,speed,space,9.96554499999911,,,,,,0.0,1.0,1.0,1.0,28.0,1.0,57.0,1.0,655.0279544160003,,,,,,,,,655.019301458,655.3676774579944,656.1600398329902,656.1515284159977,656.1520659160014,656.1600398329902,656.1600398329902,656.1600398329902,,657.4796070409939,,,,,,,,,,,,,,,,,,,,,,,,,,,,,,right,1.0,1.3076318749954223,,,,,sub-074,1,random_dot,,
left,left,58.0,0.0,29.0,left,1.0,2.941952374996617,,speed,space,9.96554499999911,,,,,,0.0,1.0,1.0,1.0,29.0,0.0,58.0,0.0,657.4889062500006,,,,,,,,,657.48011962499,658.2784410000022,659.0704359579977,659.0618999159924,659.0626692910009,659.0704359579977,659.0704359579977,659.0704359579977,,662.0204204579932,,,,,,,,,,,,,,,,,,,,,,,,,,,,,,left,1.0,2.941952374996617,,,,,sub-074,1,random_dot,,
right,right,59.0,1.0,29.0,right,1.0,4.93523683300009,,speed,space,9.96554499999911,,,,,,0.0,1.0,1.0,1.0,29.0,1.0,59.0,1.0,662.0303519579902,,,,,,,,,662.0209182909894,662.1180576659972,662.9099906659976,662.9011224580026,662.9015887499991,662.9099906659976,662.9099906659976,662.9099906659976,,667.8524029999971,,,,,,,,,,,,,,,,,,,,,,,,,,,,,,right,1.0,4.93523683300009,,,,,sub-074,1,random_dot,,
,,1.0,1.0,0.0,,,,,speed,space,9.96554499999911,,,,,,0.0,1.0,1.0,1.0,,,,,,,,,,,,,,,,,,,,,,,,,,,,,,,,,,,,,,,,,,,,,,,,,,,,,,,,,,,,sub-074,1,random_dot,,
,,,,,,,,,,,,,,,,,,,,,,,,,,,,,,,,,,,,,,,,,,,,,,,,,,,,,,,,,,,,,,,,,,,,,,,,,,,,,667.8604523329996,667.8709267910017,672.8617348749976,sub-074,1,random_dot,,
