wordCTK,colorCTK,corrAnsCTK,congruentCTK,thisN,thisTrialN,thisRepN,keyResp_CTK.keys,keyResp_CTK.corr,keyResp_CTK.rt,keyResp_CTK.duration,wordPractice,colorPractice,corrAnsPractice,congruentPractice,respPractice.keys,respPractice.corr,respPractice.rt,respPractice.duration,word,color,corrAns,congruent,keyResp_test_run.keys,keyResp_test_run.corr,keyResp_test_run.rt,keyResp_test_run.duration,trials_CTK.thisRepN,trials_CTK.thisTrialN,trials_CTK.thisN,trials_CTK.thisIndex,trials_practice.thisRepN,trials_practice.thisTrialN,trials_practice.thisN,trials_practice.thisIndex,trials_test.thisRepN,trials_test.thisTrialN,trials_test.thisN,trials_test.thisIndex,thisRow.t,notes,instruction.started,instr_text.started,instr_image.started,instr_resp.started,instruction.stopped,instr_resp.keys,instr_resp.rt,instr_resp.duration,instr_color_to_key.started,instr_ctk.started,resp_ctk.started,instr_color_to_key.stopped,resp_ctk.keys,resp_ctk.rt,resp_ctk.duration,ITI.started,fixcross.started,fixcross.stopped,ITI.stopped,color_to_key_run.started,stimulus_CTK.started,keyResp_CTK.started,color_to_key_run.stopped,trials_CTK.keyResp_CTK.keys,trials_CTK.keyResp_CTK.corr,trials_CTK.keyResp_CTK.rt,trials_CTK.keyResp_CTK.duration,instr_practice.started,instr_practice_text.started,instr_practice_resp.started,instr_practice.stopped,instr_practice_resp.keys,instr_practice_resp.rt,instr_practice_resp.duration,practice_run.started,stimulus_practice.started,respPractice.started,practice_run.stopped,trials_practice.respPractice.keys,trials_practice.respPractice.corr,trials_practice.respPractice.rt,trials_practice.respPractice.duration,feedback.started,textFeedback.started,feedback.stopped,textFeedback.stopped,instr_test.started,instr_test_text.started,instr_test_resp.started,instr_test.stopped,instr_test_resp.keys,instr_test_resp.rt,instr_test_resp.duration,test_run.started,stimulus_test_run.started,keyResp_test_run.started,test_run.stopped,trials_test.keyResp_test_run.keys,trials_test.keyResp_test_run.corr,trials_test.keyResp_test_run.rt,trials_test.keyResp_test_run.duration,goodbye.started,textGoodbye.started,goodbye.stopped,participant,session,expName,frameRate,Unnamed: 112
,,,,,,,,,,,,,,,,,,,,,,,,,,,,,,,,,,,,,,,,,0.0069586329991579,0.0222145690058823,0.0222145690058823,0.0222145690058823,53.20874951000587,space,53.17752590499731,,,,,,,,,,,,,,,,,,,,,,,,,,,,,,,,,,,,,,,,,,,,,,,,,,,,,,,,,,sub-123,1,stroop_test,59.0832018214064,
,,,,,,,,,,,,,,,,,,,,,,,,,,,,,,,,,,,,,,,,,,,,,,,,,53.20881095599907,53.22391309100203,53.22391309100203,76.18928779799899,space,22.9586709169962,,,,,,,,,,,,,,,,,,,,,,,,,,,,,,,,,,,,,,,,,,,,,,,,,,,sub-123,1,stroop_test,59.0832018214064,
test,blue,b,1.0,0.0,0.0,0.0,b,1.0,1.5368885889984083,,,,,,,,,,,,,,,,,,0.0,0.0,0.0,2.0,,,,,,,,,76.21102588299982,,,,,,,,,,,,,,,,,76.20351935000508,77.00417228900187,77.80993853299879,77.79122795299918,77.8003142230009,77.80993853299879,77.80993853299879,79.36203737300093,b,1.0,1.5368885889984083,,,,,,,,,,,,,,,,,,,,,,,,,,,,,,,,,,,,,,,sub-123,1,stroop_test,59.0832018214064,
test,red,r,1.0,1.0,1.0,0.0,r,1.0,0.9460748700003024,,,,,,,,,,,,,,,,,,0.0,1.0,1.0,0.0,,,,,,,,,79.37654528100393,,,,,,,,,,,,,,,,,79.36243439900136,80.16285566500301,80.96474080299959,80.94809039100073,80.94865911899979,80.96474080299959,80.96474080299959,81.92012896099914,r,1.0,0.9460748700003024,,,,,,,,,,,,,,,,,,,,,,,,,,,,,,,,,,,,,,,sub-123,1,stroop_test,59.0832018214064,
test,yellow,g,1.0,2.0,2.0,0.0,g,1.0,0.6035779469966656,,,,,,,,,,,,,,,,,,0.0,2.0,2.0,1.0,,,,,,,,,81.93394320300285,,,,,,,,,,,,,,,,,81.92047754100349,83.12111788300535,83.9233568530035,83.90708352300135,83.90785057800531,83.9233568530035,83.9233568530035,84.54250226700242,g,1.0,0.6035779469966656,,,,,,,,,,,,,,,,,,,,,,,,,,,,,,,,,,,,,,,sub-123,1,stroop_test,59.0832018214064,
test,blue,b,1.0,3.0,0.0,1.0,b,1.0,1.269987426996522,,,,,,,,,,,,,,,,,,1.0,0.0,3.0,2.0,,,,,,,,,84.55730198600213,,,,,,,,,,,,,,,,,84.54287963300158,84.89128444100061,85.69469111299986,85.67848543000582,85.67924341300386,85.69469111299986,85.69469111299986,86.98296668900002,b,1.0,1.269987426996522,,,,,,,,,,,,,,,,,,,,,,,,,,,,,,,,,,,,,,,sub-123,1,stroop_test,59.0832018214064,
test,red,r,1.0,4.0,1.0,1.0,r,1.0,0.8464895770011935,,,,,,,,,,,,,,,,,,1.0,1.0,4.0,0.0,,,,,,,,,86.99723474700295,,,,,,,,,,,,,,,,,86.9833490509991,87.34869838799932,88.15084622500581,88.13556226000219,88.13631532300496,88.15084622500581,88.15084622500581,89.00610324500303,r,1.0,0.8464895770011935,,,,,,,,,,,,,,,,,,,,,,,,,,,,,,,,,,,,,,,sub-123,1,stroop_test,59.0832018214064,
test,yellow,g,1.0,5.0,2.0,1.0,g,1.0,0.448307830003614,,,,,,,,,,,,,,,,,,1.0,2.0,5.0,1.0,,,,,,,,,89.01882690300408,,,,,,,,,,,,,,,,,89.00652085800539,89.37108363000152,90.17284797799948,90.1570805980009,90.1578537230016,90.17284797799948,90.17284797799948,90.6275306650059,g,1.0,0.448307830003614,,,,,,,,,,,,,,,,,,,,,,,,,,,,,,,,,,,,,,,sub-123,1,stroop_test,59.0832018214064,
test,blue,b,1.0,6.0,0.0,2.0,b,1.0,0.5694260050004232,,,,,,,,,,,,,,,,,,2.0,0.0,6.0,2.0,,,,,,,,,90.64019756600464,,,,,,,,,,,,,,,,,90.62796276500012,91.44326831500076,92.24519033000252,92.2293983500058,92.2301391630026,92.24519033000252,92.24519033000252,92.83014669800468,b,1.0,0.5694260050004232,,,,,,,,,,,,,,,,,,,,,,,,,,,,,,,,,,,,,,,sub-123,1,stroop_test,59.0832018214064,
test,red,r,1.0,7.0,1.0,2.0,r,1.0,0.7023564180053654,,,,,,,,,,,,,,,,,,2.0,1.0,7.0,0.0,,,,,,,,,92.84641917900444,,,,,,,,,,,,,,,,,92.83044810100546,92.92950910800572,93.73161586800416,93.71632211000542,93.71689662000426,93.73161586800416,93.73161586800416,94.4364226040052,r,1.0,0.7023564180053654,,,,,,,,,,,,,,,,,,,,,,,,,,,,,,,,,,,,,,,sub-123,1,stroop_test,59.0832018214064,
test,yellow,g,1.0,8.0,2.0,2.0,g,1.0,0.4086714770019171,,,,,,,,,,,,,,,,,,2.0,2.0,8.0,1.0,,,,,,,,,94.44985542300128,,,,,,,,,,,,,,,,,94.43673772799956,94.55098605999956,95.35396619300444,95.33770512300543,95.33847918500396,95.35396619300444,95.35396619300444,95.77302305299963,g,1.0,0.4086714770019171,,,,,,,,,,,,,,,,,,,,,,,,,,,,,,,,,,,,,,,sub-123,1,stroop_test,59.0832018214064,
test,blue,b,1.0,9.0,0.0,3.0,b,1.0,0.3266126899980008,,,,,,,,,,,,,,,,,,3.0,0.0,9.0,2.0,,,,,,,,,95.78693352700066,,,,,,,,,,,,,,,,,95.77337106900086,96.57259686299948,97.37591686300584,97.35993028800294,97.36070454000584,97.37591686300584,97.37591686300584,97.71208292300436,b,1.0,0.3266126899980008,,,,,,,,,,,,,,,,,,,,,,,,,,,,,,,,,,,,,,,sub-123,1,stroop_test,59.0832018214064,
test,yellow,g,1.0,10.0,1.0,3.0,g,1.0,0.7008911269949749,,,,,,,,,,,,,,,,,,3.0,1.0,10.0,1.0,,,,,,,,,97.7261114810026,,,,,,,,,,,,,,,,,97.71243928900368,98.52855797300435,99.33076702000108,99.31491014000494,99.31567116000224,99.33076702000108,99.33076702000108,100.0369359430042,g,1.0,0.7008911269949749,,,,,,,,,,,,,,,,,,,,,,,,,,,,,,,,,,,,,,,sub-123,1,stroop_test,59.0832018214064,
test,red,r,1.0,11.0,2.0,3.0,r,1.0,0.4192323399984161,,,,,,,,,,,,,,,,,,3.0,2.0,11.0,0.0,,,,,,,,,100.04810939200252,,,,,,,,,,,,,,,,,100.03759170300329,101.25257692800368,102.05458035800255,102.03936910500488,102.04013231499994,102.05458035800255,102.05458035800255,102.49040624900226,r,1.0,0.4192323399984161,,,,,,,,,,,,,,,,,,,,,,,,,,,,,,,,,,,,,,,sub-123,1,stroop_test,59.0832018214064,
,,,,,,,,,,,,,,,,,,,,,,,,,,,,,,,,,,,,,,,,,,,,,,,,,,,,,,,,,,,,,,,,,,,,102.4905929430024,102.50502835000223,102.50502835000223,132.02006305000396,space,29.50765850800235,,,,,,,,,,,,,,,,,,,,,,,,,,,,,,,,sub-123,1,stroop_test,59.0832018214064,
,,,,0.0,0.0,0.0,,,,,gelb,yellow,g,1.0,g,1.0,0.6603378640065785,,,,,,,,,,,,,,0.0,0.0,0.0,11.0,,,,,132.03866806800215,,,,,,,,,,,,,,,,,132.03102011300507,132.3847444980056,133.1873087530039,133.17178536500433,,,,,,,,,,,,,,,,133.1788992360016,133.1873087530039,133.1873087530039,133.85700196000107,g,1.0,0.6603378640065785,,133.86298715000157,133.88779724800406,134.85922179499903,,,,,,,,,,,,,,,,,,,,sub-123,1,stroop_test,59.0832018214064,
,,,,1.0,1.0,0.0,,,,,blau,blue,b,1.0,b,1.0,0.375640623999061,,,,,,,,,,,,,,0.0,1.0,1.0,6.0,,,,,134.875740168005,,,,,,,,,,,,,,,,,134.85974291000457,136.062457824999,136.86456285900204,136.84845354000572,,,,,,,,,,,,,,,,136.85487711300084,136.86456285900204,136.86456285900204,137.25070059800055,b,1.0,0.375640623999061,,137.2512651959987,137.2647522910047,138.2519912880016,,,,,,,,,,,,,,,,,,,,sub-123,1,stroop_test,59.0832018214064,
,,,,2.0,2.0,0.0,,,,,blau,blue,b,1.0,b,1.0,0.4779932929959614,,,,,,,,,,,,,,0.0,2.0,2.0,5.0,,,,,138.2679672680024,,,,,,,,,,,,,,,,,138.2524917000046,139.4546910450008,140.25668035299896,140.24116936499922,,,,,,,,,,,,,,,,140.24191195000458,140.25668035299896,140.25668035299896,140.74236506400484,b,1.0,0.4779932929959614,,140.74285155300458,140.75728979500127,141.74460264500522,,,,,,,,,,,,,,,,,,,,sub-123,1,stroop_test,59.0832018214064,
,,,,3.0,3.0,0.0,,,,,rot,red,r,1.0,r,1.0,0.4027112320036394,,,,,,,,,,,,,,0.0,3.0,3.0,0.0,,,,,141.76120242800243,,,,,,,,,,,,,,,,,141.74510624500545,142.94725687000027,143.74884537899925,143.73366121500294,,,,,,,,,,,,,,,,143.73921419500402,143.74884537899925,143.74884537899925,144.15484560500045,r,1.0,0.4027112320036394,,144.15548160500475,144.16693936299998,145.15403741000046,145.17039299799944,,,,,,,,,,,,,,,,,,,sub-123,1,stroop_test,59.0832018214064,
,,,,4.0,4.0,0.0,,,,,rot,blue,b,0.0,b,1.0,0.8149960649971035,,,,,,,,,,,,,,0.0,4.0,4.0,2.0,,,,,145.17039299799944,,,,,,,,,,,,,,,,,145.15452867500426,146.35631178800395,147.15855604300305,147.1430390050009,,,,,,,,,,,,,,,,147.14377221500035,147.15855604300305,147.15855604300305,147.97888952799985,b,1.0,0.8149960649971035,,147.9793911750021,147.9931181300053,148.980161270003,,,,,,,,,,,,,,,,,,,,sub-123,1,stroop_test,59.0832018214064,
,,,,5.0,5.0,0.0,,,,,gelb,blue,b,0.0,b,1.0,0.492952669999795,,,,,,,,,,,,,,0.0,5.0,5.0,9.0,,,,,148.99660617500194,,,,,,,,,,,,,,,,,148.98065558300004,149.78210759800277,150.58342280700165,150.56770416300424,,,,,,,,,,,,,,,,150.57093344400346,150.58342280700165,150.58342280700165,151.0873400210039,b,1.0,0.492952669999795,,151.08791811099945,151.10165864900046,152.08864853300474,,,,,,,,,,,,,,,,,,,,sub-123,1,stroop_test,59.0832018214064,
,,,,6.0,6.0,0.0,,,,,gelb,red,r,0.0,r,1.0,0.4083331900037592,,,,,,,,,,,,,,0.0,6.0,6.0,8.0,,,,,152.10513365299994,,,,,,,,,,,,,,,,,152.08914328800165,153.2917921000044,154.09388917800243,154.07790668000234,,,,,,,,,,,,,,,,154.07866613300575,154.09388917800243,154.09388917800243,154.51255266999942,r,1.0,0.4083331900037592,,154.51304198000437,154.5272633179993,155.51423101800174,,,,,,,,,,,,,,,,,,,,sub-123,1,stroop_test,59.0832018214064,
,,,,7.0,7.0,0.0,,,,,blau,red,r,0.0,r,1.0,0.6040321899999981,,,,,,,,,,,,,,0.0,7.0,7.0,4.0,,,,,155.53095183800178,,,,,,,,,,,,,,,,,155.51472938500228,155.86416226300207,156.6671681680018,156.65158201300073,,,,,,,,,,,,,,,,156.65634694300388,156.6671681680018,156.6671681680018,157.28759503800393,r,1.0,0.6040321899999981,,157.28825982700073,157.3016706480048,158.28824482100026,158.30414823500178,,,,,,,,,,,,,,,,,,,sub-123,1,stroop_test,59.0832018214064,
,,,,8.0,8.0,0.0,,,,,gelb,yellow,g,1.0,g,1.0,0.5380707069998607,,,,,,,,,,,,,,0.0,8.0,8.0,10.0,,,,,158.30414823500178,,,,,,,,,,,,,,,,,158.28857830900233,158.63825511000323,159.44154015300592,159.42546624500392,,,,,,,,,,,,,,,,159.43007825300447,159.44154015300592,159.44154015300592,159.99424888600333,g,1.0,0.5380707069998607,,159.9947303480003,160.00870605600358,160.99578740300058,,,,,,,,,,,,,,,,,,,,sub-123,1,stroop_test,59.0832018214064,
,,,,9.0,9.0,0.0,,,,,rot,yellow,g,0.0,g,1.0,0.6735293500023545,,,,,,,,,,,,,,0.0,9.0,9.0,3.0,,,,,161.01226525300444,,,,,,,,,,,,,,,,,160.99628682500042,161.09572102800303,161.8973169430028,161.8821134480022,,,,,,,,,,,,,,,,161.88662047300022,161.8973169430028,161.8973169430028,162.58394356300414,g,1.0,0.6735293500023545,,162.58442886600096,162.59891561300174,163.58581830500043,,,,,,,,,,,,,,,,,,,,sub-123,1,stroop_test,59.0832018214064,
,,,,10.0,10.0,0.0,,,,,rot,red,r,1.0,r,1.0,0.4938611149991629,,,,,,,,,,,,,,0.0,10.0,10.0,1.0,,,,,163.6024696950044,,,,,,,,,,,,,,,,,163.5863430630052,164.7894387050037,165.59036259500135,165.57416178900166,,,,,,,,,,,,,,,,165.57469892600056,165.59036259500135,165.59036259500135,166.09361781700136,r,1.0,0.4938611149991629,,166.0941868900045,166.10893386899988,167.09432723899954,,,,,,,,,,,,,,,,,,,,sub-123,1,stroop_test,59.0832018214064,
,,,,11.0,11.0,0.0,,,,,blau,yellow,g,0.0,g,1.0,0.9431344219992752,,,,,,,,,,,,,,0.0,11.0,11.0,7.0,,,,,167.1115522580003,,,,,,,,,,,,,,,,,167.09468978299992,167.44519510499958,168.2483605200032,168.23253180300526,,,,,,,,,,,,,,,,168.23719144300412,168.2483605200032,168.2483605200032,169.2012116140031,g,1.0,0.9431344219992752,,169.2017067650013,169.21698744500463,170.20370505800383,,,,,,,,,,,,,,,,,,,,sub-123,1,stroop_test,59.0832018214064,
,,,,12.0,0.0,1.0,,,,,gelb,red,r,0.0,r,1.0,0.6369229299962171,,,,,,,,,,,,,,1.0,0.0,12.0,8.0,,,,,170.2204737400025,,,,,,,,,,,,,,,,,170.20421476000047,170.3038067180023,171.10539045900077,171.08886358800373,,,,,,,,,,,,,,,,171.09181505300512,171.10539045900077,171.10539045900077,171.75761970999883,r,1.0,0.6369229299962171,,171.75810978500522,171.773363307002,172.76023970300594,,,,,,,,,,,,,,,,,,,,sub-123,1,stroop_test,59.0832018214064,
,,,,13.0,1.0,1.0,,,,,gelb,yellow,g,1.0,g,1.0,0.7575263969993102,,,,,,,,,,,,,,1.0,1.0,13.0,11.0,,,,,172.77708802800043,,,,,,,,,,,,,,,,,172.76077133999934,173.11162703800073,173.91352136500063,173.89763687800587,,,,,,,,,,,,,,,,173.89838911300467,173.91352136500063,173.91352136500063,174.68227540000225,g,1.0,0.7575263969993102,,174.68276481499925,174.6978538300027,175.68447841900343,,,,,,,,,,,,,,,,,,,,sub-123,1,stroop_test,59.0832018214064,
,,,,14.0,2.0,1.0,,,,,blau,red,r,0.0,r,1.0,0.5758112439943943,,,,,,,,,,,,,,1.0,2.0,14.0,4.0,,,,,175.70070992199908,,,,,,,,,,,,,,,,,175.68483672500588,176.88709273900167,177.68970108900248,177.6743060430017,,,,,,,,,,,,,,,,177.6789258429999,177.68970108900248,177.68970108900248,178.275960965002,r,1.0,0.5758112439943943,,178.27643985900067,178.2907284530011,179.27773327800242,,,,,,,,,,,,,,,,,,,,sub-123,1,stroop_test,59.0832018214064,
,,,,15.0,3.0,1.0,,,,,gelb,blue,b,0.0,b,1.0,0.5204172640005709,,,,,,,,,,,,,,1.0,3.0,15.0,9.0,,,,,179.29470587499964,,,,,,,,,,,,,,,,,179.27822697000374,179.6286801650058,180.430208329999,180.41390953300288,,,,,,,,,,,,,,,,180.4171930950033,180.430208329999,180.430208329999,180.9667702549996,b,1.0,0.5204172640005709,,180.96724999500293,180.9818155950052,181.968512129999,,,,,,,,,,,,,,,,,,,,sub-123,1,stroop_test,59.0832018214064,
,,,,16.0,4.0,1.0,,,,,rot,red,r,1.0,r,1.0,0.5585443720046896,,,,,,,,,,,,,,1.0,4.0,16.0,1.0,,,,,181.98508587299875,,,,,,,,,,,,,,,,,181.9690278429989,182.06869615300093,182.87058002000413,182.8548956529994,,,,,,,,,,,,,,,,182.85936017000492,182.87058002000413,182.87058002000413,183.43988512500076,r,1.0,0.5585443720046896,,183.4404707550057,183.45450153700224,184.44169408300516,,,,,,,,,,,,,,,,,,,,sub-123,1,stroop_test,59.0832018214064,
,,,,17.0,5.0,1.0,,,,,rot,blue,b,0.0,b,1.0,0.494712621999497,,,,,,,,,,,,,,1.0,5.0,17.0,2.0,,,,,184.458142690004,,,,,,,,,,,,,,,,,184.44220805800435,184.79230248300155,185.59475543500596,185.57873801000096,,,,,,,,,,,,,,,,185.57947405800223,185.59475543500596,185.59475543500596,186.09901232999985,b,1.0,0.494712621999497,,186.0996946880041,186.1113915829992,187.0994472099992,187.11567731299877,,,,,,,,,,,,,,,,,,,sub-123,1,stroop_test,59.0832018214064,
,,,,18.0,6.0,1.0,,,,,rot,red,r,1.0,r,1.0,0.4211640149951563,,,,,,,,,,,,,,1.0,6.0,18.0,0.0,,,,,187.11567731299877,,,,,,,,,,,,,,,,,187.09993201800532,187.90108344300097,188.70186749799905,188.6859835550058,,,,,,,,,,,,,,,,188.68660081300183,188.70186749799905,188.70186749799905,189.13877974700156,r,1.0,0.4211640149951563,,189.13930238600005,189.1536752009997,190.140208883,,,,,,,,,,,,,,,,,,,,sub-123,1,stroop_test,59.0832018214064,
,,,,19.0,7.0,1.0,,,,,gelb,yellow,g,1.0,g,1.0,0.3669299640023382,,,,,,,,,,,,,,1.0,7.0,19.0,10.0,,,,,190.15681448800024,,,,,,,,,,,,,,,,,190.1407450650004,190.9412271350011,191.7433798560014,191.7274557820056,,,,,,,,,,,,,,,,191.73030528100207,191.7433798560014,191.7433798560014,192.11619898500064,g,1.0,0.3669299640023382,,192.11690436900244,192.12822565300303,193.11456042300412,193.13062256500416,,,,,,,,,,,,,,,,,,,sub-123,1,stroop_test,59.0832018214064,
,,,,20.0,8.0,1.0,,,,,rot,yellow,g,0.0,g,1.0,0.4581742480004322,,,,,,,,,,,,,,1.0,8.0,20.0,3.0,,,,,193.13062256500416,,,,,,,,,,,,,,,,,193.1149092630003,193.481887451002,194.2839696209994,194.2691842980057,,,,,,,,,,,,,,,,194.2737486449987,194.2839696209994,194.2839696209994,194.7532096540017,g,1.0,0.4581742480004322,,194.75370029100304,194.7685029659988,195.7556073349988,,,,,,,,,,,,,,,,,,,,sub-123,1,stroop_test,59.0832018214064,
,,,,21.0,9.0,1.0,,,,,blau,blue,b,1.0,b,1.0,0.4652952219985309,,,,,,,,,,,,,,1.0,9.0,21.0,6.0,,,,,195.77164143299888,,,,,,,,,,,,,,,,,195.7561001530048,196.55707154999985,197.35873020299917,197.34350484500465,,,,,,,,,,,,,,,,197.34873709000385,197.35873020299917,197.35873020299917,197.8311186400024,b,1.0,0.4652952219985309,,197.83183843300503,197.84486161500536,198.83082778300013,198.8467448130032,,,,,,,,,,,,,,,,,,,sub-123,1,stroop_test,59.0832018214064,
,,,,22.0,10.0,1.0,,,,,blau,blue,b,1.0,b,1.0,0.5295726080003078,,,,,,,,,,,,,,1.0,10.0,22.0,5.0,,,,,198.8467448130032,,,,,,,,,,,,,,,,,198.83131755300565,200.0335078499993,200.83442241900048,200.8185506689988,,,,,,,,,,,,,,,,200.8190938800035,200.83442241900048,200.83442241900048,201.37087673800124,b,1.0,0.5295726080003078,,201.37139011100223,201.3857076830027,202.37275147800392,,,,,,,,,,,,,,,,,,,,sub-123,1,stroop_test,59.0832018214064,
,,,,23.0,11.0,1.0,,,,,blau,yellow,g,0.0,g,1.0,0.785091038000246,,,,,,,,,,,,,,1.0,11.0,23.0,7.0,,,,,202.3892960650046,,,,,,,,,,,,,,,,,202.3732566629988,202.72259126100107,203.5256687400033,203.5099809029998,,,,,,,,,,,,,,,,203.51072562800252,203.5256687400033,203.5256687400033,204.3134812050048,g,1.0,0.785091038000246,,204.31398642800195,204.32689992300584,205.31409984000493,,,,,,,,,,,,,,,,,,,,sub-123,1,stroop_test,59.0832018214064,
,,,,,,,,,,,,,,,,,,,,,,,,,,,,,,,,,,,,,,,,,,,,,,,,,,,,,,,,,,,,,,,,,,,,,,,,,,,,,,,,,,,,,,,205.3143213930016,205.3310692580053,205.3310692580053,219.9534556630024,space,14.607549140004268,,,,,,,,,,,,,sub-123,1,stroop_test,59.0832018214064,
,,,,0.0,0.0,0.0,,,,,,,,,,,,,blau,blue,b,1.0,b,1.0,1.443580617000407,,,,,,,,,,0.0,0.0,0.0,5.0,219.9712803030052,,,,,,,,,,,,,,,,,219.96324409800584,221.15602067299915,221.95791559300412,221.9424489200028,,,,,,,,,,,,,,,,,,,,,,,,,,,,,,,,,,,221.9470586380048,221.95791559300412,221.95791559300412,223.4135915130028,b,1.0,1.443580617000407,,,,,sub-123,1,stroop_test,59.0832018214064,
,,,,1.0,1.0,0.0,,,,,,,,,,,,,blau,yellow,g,0.0,g,1.0,0.7404533439985244,,,,,,,,,,0.0,1.0,1.0,7.0,223.42859103000228,,,,,,,,,,,,,,,,,223.41392744600307,223.5285223130049,224.33045390700136,224.31448744999943,,,,,,,,,,,,,,,,,,,,,,,,,,,,,,,,,,,224.315031928003,224.33045390700136,224.33045390700136,225.0844830510032,g,1.0,0.7404533439985244,,,,,sub-123,1,stroop_test,59.0832018214064,
,,,,2.0,2.0,0.0,,,,,,,,,,,,,gelb,blue,b,0.0,b,1.0,0.6250191350045498,,,,,,,,,,0.0,2.0,2.0,9.0,225.0996956210001,,,,,,,,,,,,,,,,,225.0848717110057,225.1998355780015,226.00157371500245,225.9861057110029,,,,,,,,,,,,,,,,,,,,,,,,,,,,,,,,,,,225.98890976600524,226.00157371500245,226.00157371500245,226.64033405000373,b,1.0,0.6250191350045498,,,,,sub-123,1,stroop_test,59.0832018214064,
,,,,3.0,3.0,0.0,,,,,,,,,,,,,rot,blue,b,0.0,b,1.0,0.7205358710052678,,,,,,,,,,0.0,3.0,3.0,2.0,226.65338461300416,,,,,,,,,,,,,,,,,226.6409176550005,227.0051546579998,227.8072920390041,227.7917201050004,,,,,,,,,,,,,,,,,,,,,,,,,,,,,,,,,,,227.7969028830048,227.8072920390041,227.8072920390041,228.54304339599912,b,1.0,0.7205358710052678,,,,,sub-123,1,stroop_test,59.0832018214064,
,,,,4.0,4.0,0.0,,,,,,,,,,,,,blau,red,r,0.0,r,1.0,0.6101243719967897,,,,,,,,,,0.0,4.0,4.0,4.0,228.558939868999,,,,,,,,,,,,,,,,,228.5433812800038,228.65923246100283,229.4608889950032,229.44495435299905,,,,,,,,,,,,,,,,,,,,,,,,,,,,,,,,,,,229.4482246050029,229.4608889950032,229.4608889950032,230.08189441500144,r,1.0,0.6101243719967897,,,,,sub-123,1,stroop_test,59.0832018214064,
,,,,5.0,5.0,0.0,,,,,,,,,,,,,rot,red,r,1.0,r,1.0,0.5729301300016232,,,,,,,,,,0.0,5.0,5.0,1.0,230.09598191999976,,,,,,,,,,,,,,,,,230.0823067090023,230.19693143300535,230.99906323300087,230.98333855800595,,,,,,,,,,,,,,,,,,,,,,,,,,,,,,,,,,,230.98789256500456,230.99906323300087,230.99906323300087,231.58523336800133,r,1.0,0.5729301300016232,,,,,sub-123,1,stroop_test,59.0832018214064,
,,,,6.0,6.0,0.0,,,,,,,,,,,,,gelb,yellow,g,1.0,g,1.0,0.6054804640007205,,,,,,,,,,0.0,6.0,6.0,11.0,231.60035665800388,,,,,,,,,,,,,,,,,231.5855732630007,231.7010701230029,232.50228808900283,232.48684358299943,,,,,,,,,,,,,,,,,,,,,,,,,,,,,,,,,,,232.49009545500303,232.50228808900283,232.50228808900283,233.1242560300016,g,1.0,0.6054804640007205,,,,,sub-123,1,stroop_test,59.0832018214064,
,,,,7.0,7.0,0.0,,,,,,,,,,,,,rot,yellow,g,0.0,g,1.0,0.7355082309950376,,,,,,,,,,0.0,7.0,7.0,3.0,233.13831294300329,,,,,,,,,,,,,,,,,233.1248363480045,233.4890834980033,234.2918096650028,234.27577299000404,,,,,,,,,,,,,,,,,,,,,,,,,,,,,,,,,,,234.2803232830047,234.2918096650028,234.2918096650028,235.0446522150014,g,1.0,0.7355082309950376,,,,,sub-123,1,stroop_test,59.0832018214064,
,,,,8.0,8.0,0.0,,,,,,,,,,,,,gelb,yellow,g,1.0,g,1.0,0.5696574970061192,,,,,,,,,,0.0,8.0,8.0,10.0,235.0598876790027,,,,,,,,,,,,,,,,,235.0450514490003,236.24687000500128,237.0490127529993,237.0331050780005,,,,,,,,,,,,,,,,,,,,,,,,,,,,,,,,,,,237.0378404229996,237.0490127529993,237.0490127529993,237.634813511002,g,1.0,0.5696574970061192,,,,,sub-123,1,stroop_test,59.0832018214064,
,,,,9.0,9.0,0.0,,,,,,,,,,,,,rot,red,r,1.0,r,1.0,0.5360820920031983,,,,,,,,,,0.0,9.0,9.0,0.0,237.64943818499887,,,,,,,,,,,,,,,,,237.63515895300225,238.83639917099936,239.6383794630019,239.6228686579998,,,,,,,,,,,,,,,,,,,,,,,,,,,,,,,,,,,239.6261493330021,239.6383794630019,239.6383794630019,240.19207451699916,r,1.0,0.5360820920031983,,,,,sub-123,1,stroop_test,59.0832018214064,
,,,,10.0,10.0,0.0,,,,,,,,,,,,,gelb,red,r,0.0,r,1.0,0.809181142001762,,,,,,,,,,0.0,10.0,10.0,8.0,240.20645121000416,,,,,,,,,,,,,,,,,240.19249333000332,240.30648138499964,241.1084699130006,241.092985563002,,,,,,,,,,,,,,,,,,,,,,,,,,,,,,,,,,,241.09641360500245,241.1084699130006,241.1084699130006,241.92939756299893,r,1.0,0.809181142001762,,,,,sub-123,1,stroop_test,59.0832018214064,
,,,,11.0,11.0,0.0,,,,,,,,,,,,,blau,blue,b,1.0,b,1.0,0.4015649450011551,,,,,,,,,,0.0,11.0,11.0,6.0,241.9441770160047,,,,,,,,,,,,,,,,,241.92974001100083,242.73079418799895,243.53264786500225,243.51676218500504,,,,,,,,,,,,,,,,,,,,,,,,,,,,,,,,,,,243.52131073000052,243.53264786500225,243.53264786500225,243.93876103500224,b,1.0,0.4015649450011551,,,,,sub-123,1,stroop_test,59.0832018214064,
,,,,12.0,0.0,1.0,,,,,,,,,,,,,rot,yellow,g,0.0,g,1.0,0.494168522003747,,,,,,,,,,1.0,0.0,12.0,3.0,243.94922171000508,,,,,,,,,,,,,,,,,243.93927675500163,244.0501012980021,244.85188460800416,244.8360164600017,,,,,,,,,,,,,,,,,,,,,,,,,,,,,,,,,,,244.83923484100524,244.85188460800416,244.85188460800416,245.3560828930058,g,1.0,0.494168522003747,,,,,sub-123,1,stroop_test,59.0832018214064,
,,,,13.0,1.0,1.0,,,,,,,,,,,,,rot,red,r,1.0,r,1.0,0.5592899170005694,,,,,,,,,,1.0,1.0,13.0,0.0,245.3700279629993,,,,,,,,,,,,,,,,,245.35647808900103,245.4704326179999,246.2734829280016,246.25786276299917,,,,,,,,,,,,,,,,,,,,,,,,,,,,,,,,,,,246.2586280750038,246.2734829280016,246.2734829280016,246.8440899230045,r,1.0,0.5592899170005694,,,,,sub-123,1,stroop_test,59.0832018214064,
,,,,14.0,2.0,1.0,,,,,,,,,,,,,blau,yellow,g,0.0,g,1.0,0.6211412709963042,,,,,,,,,,1.0,2.0,14.0,7.0,246.85704676000023,,,,,,,,,,,,,,,,,246.8445046000052,247.20923505500105,248.0107865509999,247.9947204080017,,,,,,,,,,,,,,,,,,,,,,,,,,,,,,,,,,,247.99747257499985,248.0107865509999,248.0107865509999,248.6476586999997,g,1.0,0.6211412709963042,,,,,sub-123,1,stroop_test,59.0832018214064,
,,,,15.0,3.0,1.0,,,,,,,,,,,,,gelb,blue,b,0.0,b,1.0,0.6200354429965955,,,,,,,,,,1.0,3.0,15.0,9.0,248.66194757800255,,,,,,,,,,,,,,,,,248.64809148100176,249.84952381300536,250.6517467090016,250.63627934800024,,,,,,,,,,,,,,,,,,,,,,,,,,,,,,,,,,,250.6408400080036,250.6517467090016,250.6517467090016,251.2878428289987,b,1.0,0.6200354429965955,,,,,sub-123,1,stroop_test,59.0832018214064,
,,,,16.0,4.0,1.0,,,,,,,,,,,,,rot,blue,b,0.0,b,1.0,0.5480198740042397,,,,,,,,,,1.0,4.0,16.0,2.0,251.3024132080027,,,,,,,,,,,,,,,,,251.28823504500176,252.4898397050056,253.29211563600256,253.27642566800205,,,,,,,,,,,,,,,,,,,,,,,,,,,,,,,,,,,253.28091191500425,253.29211563600256,253.29211563600256,253.8453145360036,b,1.0,0.5480198740042397,,,,,sub-123,1,stroop_test,59.0832018214064,
,,,,17.0,5.0,1.0,,,,,,,,,,,,,blau,blue,b,1.0,b,1.0,0.49991716400109,,,,,,,,,,1.0,5.0,17.0,6.0,253.85934567300137,,,,,,,,,,,,,,,,,253.8456524180001,253.95961542700388,254.76194076300453,254.7459823590034,,,,,,,,,,,,,,,,,,,,,,,,,,,,,,,,,,,254.74880189900432,254.76194076300453,254.76194076300453,255.26590436400147,b,1.0,0.49991716400109,,,,,sub-123,1,stroop_test,59.0832018214064,
,,,,18.0,6.0,1.0,,,,,,,,,,,,,rot,red,r,1.0,r,1.0,0.5442569329970866,,,,,,,,,,1.0,6.0,18.0,1.0,255.27981491500395,,,,,,,,,,,,,,,,,255.2662531560054,255.38009148499987,256.1820059829988,256.1666548830035,,,,,,,,,,,,,,,,,,,,,,,,,,,,,,,,,,,256.17007354499947,256.1820059829988,256.1820059829988,256.7366000330003,r,1.0,0.5442569329970866,,,,,sub-123,1,stroop_test,59.0832018214064,
,,,,19.0,7.0,1.0,,,,,,,,,,,,,blau,red,r,0.0,r,1.0,0.5118419099962921,,,,,,,,,,1.0,7.0,19.0,4.0,256.7508166770058,,,,,,,,,,,,,,,,,256.7370136910031,257.1015450390041,257.90345985800377,257.8876599790019,,,,,,,,,,,,,,,,,,,,,,,,,,,,,,,,,,,257.89058240099985,257.90345985800377,257.90345985800377,258.4251799230042,r,1.0,0.5118419099962921,,,,,sub-123,1,stroop_test,59.0832018214064,
,,,,20.0,8.0,1.0,,,,,,,,,,,,,gelb,red,r,0.0,r,1.0,0.4805006770038744,,,,,,,,,,1.0,8.0,20.0,8.0,258.4386671050015,,,,,,,,,,,,,,,,,258.4256295150044,258.53956850000395,259.34192176500073,259.3256762950041,,,,,,,,,,,,,,,,,,,,,,,,,,,,,,,,,,,259.3302390550016,259.34192176500073,259.34192176500073,259.8274554930031,r,1.0,0.4805006770038744,,,,,sub-123,1,stroop_test,59.0832018214064,
,,,,21.0,9.0,1.0,,,,,,,,,,,,,gelb,yellow,g,1.0,g,1.0,0.3442614230007166,,,,,,,,,,1.0,9.0,21.0,11.0,259.8419089290037,,,,,,,,,,,,,,,,,259.82778083500307,260.62826025300456,261.4306471500022,261.4149337650015,,,,,,,,,,,,,,,,,,,,,,,,,,,,,,,,,,,261.4156937529988,261.4306471500022,261.4306471500022,261.78452399000525,g,1.0,0.3442614230007166,,,,,sub-123,1,stroop_test,59.0832018214064,
,,,,22.0,10.0,1.0,,,,,,,,,,,,,gelb,yellow,g,1.0,g,1.0,0.6036858070001472,,,,,,,,,,1.0,10.0,22.0,10.0,261.7976961950044,,,,,,,,,,,,,,,,,261.7849988599992,262.98486361300456,263.7858160649994,263.76999177100515,,,,,,,,,,,,,,,,,,,,,,,,,,,,,,,,,,,263.7705367130038,263.7858160649994,263.7858160649994,264.3932451130022,g,1.0,0.6036858070001472,,,,,sub-123,1,stroop_test,59.0832018214064,
,,,,23.0,11.0,1.0,,,,,,,,,,,,,blau,blue,b,1.0,b,1.0,0.4545452539969119,,,,,,,,,,1.0,11.0,23.0,5.0,264.40491406300134,,,,,,,,,,,,,,,,,264.3940606430042,264.5050754860058,265.3065844830053,265.2908262090059,,,,,,,,,,,,,,,,,,,,,,,,,,,,,,,,,,,265.29373090300214,265.3065844830053,265.3065844830053,265.77704339499905,b,1.0,0.4545452539969119,,,,,sub-123,1,stroop_test,59.0832018214064,
,,,,24.0,0.0,2.0,,,,,,,,,,,,,rot,yellow,g,0.0,g,1.0,0.7228009860045859,,,,,,,,,,2.0,0.0,24.0,3.0,265.7913016500024,,,,,,,,,,,,,,,,,265.77745203000086,265.8926457179987,266.69432960500126,266.67908664000424,,,,,,,,,,,,,,,,,,,,,,,,,,,,,,,,,,,266.68363329500426,266.69432960500126,266.69432960500126,267.4315341570036,g,1.0,0.7228009860045859,,,,,sub-123,1,stroop_test,59.0832018214064,
,,,,25.0,1.0,2.0,,,,,,,,,,,,,gelb,red,r,0.0,r,1.0,0.8185309870023048,,,,,,,,,,2.0,1.0,25.0,8.0,267.44583267300186,,,,,,,,,,,,,,,,,267.431946951001,267.7808234730037,268.58196985900577,268.5663920470033,,,,,,,,,,,,,,,,,,,,,,,,,,,,,,,,,,,268.5692375190047,268.58196985900577,268.58196985900577,269.40596450500016,r,1.0,0.8185309870023048,,,,,sub-123,1,stroop_test,59.0832018214064,
,,,,26.0,2.0,2.0,,,,,,,,,,,,,gelb,yellow,g,1.0,g,1.0,0.5158029619997251,,,,,,,,,,2.0,2.0,26.0,11.0,269.41768196700286,,,,,,,,,,,,,,,,,269.4064461529997,270.2204524030021,271.02256344500347,271.007142733004,,,,,,,,,,,,,,,,,,,,,,,,,,,,,,,,,,,271.00789434499893,271.02256344500347,271.02256344500347,271.54465844300285,g,1.0,0.5158029619997251,,,,,sub-123,1,stroop_test,59.0832018214064,
,,,,27.0,3.0,2.0,,,,,,,,,,,,,blau,blue,b,1.0,b,1.0,0.4514158959937049,,,,,,,,,,2.0,3.0,27.0,6.0,271.55717351099884,,,,,,,,,,,,,,,,,271.5451527100013,272.7438278250047,273.54561251900304,273.529371745004,,,,,,,,,,,,,,,,,,,,,,,,,,,,,,,,,,,273.53285128599964,273.54561251900304,273.54561251900304,273.99945085299987,b,1.0,0.4514158959937049,,,,,sub-123,1,stroop_test,59.0832018214064,
,,,,28.0,4.0,2.0,,,,,,,,,,,,,blau,red,r,0.0,r,1.0,0.5762620149980648,,,,,,,,,,2.0,4.0,28.0,4.0,274.0128363370022,,,,,,,,,,,,,,,,,273.9998667960026,274.1143379300047,274.91684662300395,274.9006235150009,,,,,,,,,,,,,,,,,,,,,,,,,,,,,,,,,,,274.9013951080051,274.91684662300395,274.91684662300395,275.5036990430017,r,1.0,0.5762620149980648,,,,,sub-123,1,stroop_test,59.0832018214064,
,,,,29.0,5.0,2.0,,,,,,,,,,,,,gelb,yellow,g,1.0,g,1.0,0.5872097429964924,,,,,,,,,,2.0,5.0,29.0,10.0,275.51679760400293,,,,,,,,,,,,,,,,,275.5041676629989,276.7046590030004,277.5063131480056,277.49089814499894,,,,,,,,,,,,,,,,,,,,,,,,,,,,,,,,,,,277.4954893380054,277.5063131480056,277.5063131480056,278.1097918730011,g,1.0,0.5872097429964924,,,,,sub-123,1,stroop_test,59.0832018214064,
,,,,30.0,6.0,2.0,,,,,,,,,,,,,gelb,blue,b,0.0,b,1.0,0.7791741599939996,,,,,,,,,,2.0,6.0,30.0,9.0,278.12468358800106,,,,,,,,,,,,,,,,,278.1101919810026,278.22441600500315,279.0277212130022,279.0116121450046,,,,,,,,,,,,,,,,,,,,,,,,,,,,,,,,,,,279.0123349980058,279.0277212130022,279.0277212130022,279.815768389999,b,1.0,0.7791741599939996,,,,,sub-123,1,stroop_test,59.0832018214064,
,,,,31.0,7.0,2.0,,,,,,,,,,,,,blau,yellow,g,0.0,g,1.0,0.5872650289966259,,,,,,,,,,2.0,7.0,31.0,7.0,279.82864618500025,,,,,,,,,,,,,,,,,279.81623936300457,279.9291676590001,280.7316391550048,280.7161404780054,,,,,,,,,,,,,,,,,,,,,,,,,,,,,,,,,,,280.7208125250036,280.7316391550048,280.7316391550048,281.3344500960011,g,1.0,0.5872650289966259,,,,,sub-123,1,stroop_test,59.0832018214064,
,,,,32.0,8.0,2.0,,,,,,,,,,,,,rot,red,r,1.0,r,1.0,0.5570370279965573,,,,,,,,,,2.0,8.0,32.0,1.0,281.3495498390039,,,,,,,,,,,,,,,,,281.3348037780015,281.6840675390049,282.4856714530033,282.4696740080035,,,,,,,,,,,,,,,,,,,,,,,,,,,,,,,,,,,282.4729691110042,282.4856714530033,282.4856714530033,283.0562735210042,r,1.0,0.5570370279965573,,,,,sub-123,1,stroop_test,59.0832018214064,
,,,,33.0,9.0,2.0,,,,,,,,,,,,,blau,blue,b,1.0,b,1.0,0.5590035999994143,,,,,,,,,,2.0,9.0,33.0,5.0,283.0712495350017,,,,,,,,,,,,,,,,,283.05665029300144,283.42215792999923,284.2236990099991,284.2080227430052,,,,,,,,,,,,,,,,,,,,,,,,,,,,,,,,,,,284.21111940000264,284.2236990099991,284.2236990099991,284.79342892600107,b,1.0,0.5590035999994143,,,,,sub-123,1,stroop_test,59.0832018214064,
,,,,34.0,10.0,2.0,,,,,,,,,,,,,rot,blue,b,0.0,b,1.0,0.5381552279941388,,,,,,,,,,2.0,10.0,34.0,2.0,284.80920875900483,,,,,,,,,,,,,,,,,284.7937795110047,284.89321221000137,285.6944684150003,285.678364504005,,,,,,,,,,,,,,,,,,,,,,,,,,,,,,,,,,,285.6809404430023,285.6944684150003,285.6944684150003,286.2481771189996,b,1.0,0.5381552279941388,,,,,sub-123,1,stroop_test,59.0832018214064,
,,,,35.0,11.0,2.0,,,,,,,,,,,,,rot,red,r,1.0,r,1.0,0.5590840069999103,,,,,,,,,,2.0,11.0,35.0,0.0,286.26249812800233,,,,,,,,,,,,,,,,,286.24858108100307,286.6135976930018,287.4163912080039,287.40069366000535,,,,,,,,,,,,,,,,,,,,,,,,,,,,,,,,,,,287.4014528830012,287.4163912080039,287.4163912080039,287.9854385380022,r,1.0,0.5590840069999103,,,,,sub-123,1,stroop_test,59.0832018214064,
,,,,36.0,0.0,3.0,,,,,,,,,,,,,blau,red,r,0.0,r,1.0,0.961085249997268,,,,,,,,,,3.0,0.0,36.0,4.0,288.0011010980015,,,,,,,,,,,,,,,,,287.9858929480033,288.08397576100106,288.8869864330045,288.8710322580009,,,,,,,,,,,,,,,,,,,,,,,,,,,,,,,,,,,288.87666645500576,288.8869864330045,288.8869864330045,289.8571024300036,r,1.0,0.961085249997268,,,,,sub-123,1,stroop_test,59.0832018214064,
,,,,37.0,1.0,3.0,,,,,,,,,,,,,blau,yellow,g,0.0,g,1.0,0.6624749430047814,,,,,,,,,,3.0,1.0,37.0,7.0,289.87271828500525,,,,,,,,,,,,,,,,,289.85743479899975,290.6586710480042,291.4606622749998,291.4450469250005,,,,,,,,,,,,,,,,,,,,,,,,,,,,,,,,,,,291.4458052199989,291.4606622749998,291.4606622749998,292.1320076580014,g,1.0,0.6624749430047814,,,,,sub-123,1,stroop_test,59.0832018214064,
,,,,38.0,2.0,3.0,,,,,,,,,,,,,rot,red,r,1.0,r,1.0,0.5747426899979473,,,,,,,,,,3.0,2.0,38.0,1.0,292.144788769001,,,,,,,,,,,,,,,,,292.1326592730038,293.33213485500164,294.13361614300084,294.1175653610044,,,,,,,,,,,,,,,,,,,,,,,,,,,,,,,,,,,294.1203049309988,294.13361614300084,294.13361614300084,294.7202914560039,r,1.0,0.5747426899979473,,,,,sub-123,1,stroop_test,59.0832018214064,
,,,,39.0,3.0,3.0,,,,,,,,,,,,,rot,yellow,g,0.0,b,0.0,0.6039475080033299,,,,,,,,,,3.0,3.0,39.0,3.0,294.7355914430009,,,,,,,,,,,,,,,,,294.7206243460023,294.83543488700525,295.6383634380036,295.6227088450032,,,,,,,,,,,,,,,,,,,,,,,,,,,,,,,,,,,295.62347051500547,295.6383634380036,295.6383634380036,296.2584125229987,b,0.0,0.6039475080033299,,,,,sub-123,1,stroop_test,59.0832018214064,
,,,,40.0,4.0,3.0,,,,,,,,,,,,,blau,blue,b,1.0,b,1.0,0.4689661599986721,,,,,,,,,,3.0,4.0,40.0,5.0,296.27299756900175,,,,,,,,,,,,,,,,,296.258817918002,296.6240085190002,297.42607222300285,297.4107898150032,,,,,,,,,,,,,,,,,,,,,,,,,,,,,,,,,,,297.4149851530019,297.42607222300285,297.42607222300285,297.9124746830057,b,1.0,0.4689661599986721,,,,,sub-123,1,stroop_test,59.0832018214064,
,,,,41.0,5.0,3.0,,,,,,,,,,,,,gelb,red,r,0.0,r,1.0,0.7973861759965075,,,,,,,,,,3.0,5.0,41.0,8.0,297.9273077930048,,,,,,,,,,,,,,,,,297.91295039800025,298.0117573430034,298.8126256730029,298.7967369640028,,,,,,,,,,,,,,,,,,,,,,,,,,,,,,,,,,,298.7996736810019,298.8126256730029,298.8126256730029,299.6186583529998,r,1.0,0.7973861759965075,,,,,sub-123,1,stroop_test,59.0832018214064,
,,,,42.0,6.0,3.0,,,,,,,,,,,,,rot,blue,b,0.0,b,1.0,0.7278595690004295,,,,,,,,,,3.0,6.0,42.0,2.0,299.63188061500114,,,,,,,,,,,,,,,,,299.61912683000264,300.818608530004,301.6202052330045,301.60464657400007,,,,,,,,,,,,,,,,,,,,,,,,,,,,,,,,,,,301.6075206759997,301.6202052330045,301.6202052330045,302.35761590600305,b,1.0,0.7278595690004295,,,,,sub-123,1,stroop_test,59.0832018214064,
,,,,43.0,7.0,3.0,,,,,,,,,,,,,blau,blue,b,1.0,b,1.0,0.4354485650037532,,,,,,,,,,3.0,7.0,43.0,6.0,302.37191710900515,,,,,,,,,,,,,,,,,302.3579593329996,303.5592067730031,304.3622092150036,304.3461019930037,,,,,,,,,,,,,,,,,,,,,,,,,,,,,,,,,,,304.35071251000045,304.3622092150036,304.3622092150036,304.81324455600407,b,1.0,0.4354485650037532,,,,,sub-123,1,stroop_test,59.0832018214064,
,,,,44.0,8.0,3.0,,,,,,,,,,,,,gelb,blue,b,0.0,b,1.0,0.5098632109948085,,,,,,,,,,3.0,8.0,44.0,9.0,304.828653605,,,,,,,,,,,,,,,,,304.8135924560047,304.9128315380003,305.7149170289995,305.70005055500224,,,,,,,,,,,,,,,,,,,,,,,,,,,,,,,,,,,305.7053447530052,305.7149170289995,305.7149170289995,306.23453293300554,b,1.0,0.5098632109948085,,,,,sub-123,1,stroop_test,59.0832018214064,
,,,,45.0,9.0,3.0,,,,,,,,,,,,,gelb,yellow,g,1.0,g,1.0,0.7105028570003924,,,,,,,,,,3.0,9.0,45.0,10.0,306.2494932310001,,,,,,,,,,,,,,,,,306.23493971200514,306.34972249100247,307.1524585549996,307.1367914200018,,,,,,,,,,,,,,,,,,,,,,,,,,,,,,,,,,,307.1375467329999,307.1524585549996,307.1524585549996,307.8732747030008,g,1.0,0.7105028570003924,,,,,sub-123,1,stroop_test,59.0832018214064,
,,,,46.0,10.0,3.0,,,,,,,,,,,,,gelb,yellow,g,1.0,g,1.0,0.6244501670007594,,,,,,,,,,3.0,10.0,46.0,11.0,307.8872995280035,,,,,,,,,,,,,,,,,307.8737481050048,308.22196617300506,309.0241583980023,309.0087264200047,,,,,,,,,,,,,,,,,,,,,,,,,,,,,,,,,,,309.0094830130038,309.0241583980023,309.0241583980023,309.66055884199886,g,1.0,0.6244501670007594,,,,,sub-123,1,stroop_test,59.0832018214064,
,,,,47.0,11.0,3.0,,,,,,,,,,,,,rot,red,r,1.0,r,1.0,0.5781711479939986,,,,,,,,,,3.0,11.0,47.0,0.0,309.67559588300355,,,,,,,,,,,,,,,,,309.6609689980032,310.46158887500496,311.2637323570016,311.2478256480026,,,,,,,,,,,,,,,,,,,,,,,,,,,,,,,,,,,311.25232732800214,311.2637323570016,311.2637323570016,311.85142915000324,r,1.0,0.5781711479939986,,,,,sub-123,1,stroop_test,59.0832018214064,
,,,,48.0,0.0,4.0,,,,,,,,,,,,,blau,blue,b,1.0,b,1.0,0.9038324889988872,,,,,,,,,,4.0,0.0,48.0,5.0,311.86423040999944,,,,,,,,,,,,,,,,,311.8519017400031,312.2152624299997,313.0178310629999,313.0027975530029,,,,,,,,,,,,,,,,,,,,,,,,,,,,,,,,,,,313.00738972500403,313.0178310629999,313.0178310629999,313.9389239880038,b,1.0,0.9038324889988872,,,,,sub-123,1,stroop_test,59.0832018214064,
,,,,49.0,1.0,4.0,,,,,,,,,,,,,gelb,blue,b,0.0,b,1.0,0.51529904200288,,,,,,,,,,4.0,1.0,49.0,9.0,313.9530339699995,,,,,,,,,,,,,,,,,313.9393384950017,314.3041922430057,315.1063568970057,315.09130908500083,,,,,,,,,,,,,,,,,,,,,,,,,,,,,,,,,,,315.09551298800216,315.1063568970057,315.1063568970057,315.6267498560046,b,1.0,0.51529904200288,,,,,sub-123,1,stroop_test,59.0832018214064,
,,,,50.0,2.0,4.0,,,,,,,,,,,,,gelb,yellow,g,1.0,g,1.0,0.5708447420038283,,,,,,,,,,4.0,2.0,50.0,11.0,315.64101410500007,,,,,,,,,,,,,,,,,315.6270893300025,316.4274428450008,317.22933085000113,317.21346368300146,,,,,,,,,,,,,,,,,,,,,,,,,,,,,,,,,,,317.2142028849994,317.22933085000113,317.22933085000113,317.8158702590008,g,1.0,0.5708447420038283,,,,,sub-123,1,stroop_test,59.0832018214064,
,,,,51.0,3.0,4.0,,,,,,,,,,,,,rot,red,r,1.0,r,1.0,0.5774733369980822,,,,,,,,,,4.0,3.0,51.0,1.0,317.830724174004,,,,,,,,,,,,,,,,,317.816275833,318.1810289210043,318.98339620700426,318.9674008530056,,,,,,,,,,,,,,,,,,,,,,,,,,,,,,,,,,,318.9705444900028,318.98339620700426,318.98339620700426,319.5702061530028,r,1.0,0.5774733369980822,,,,,sub-123,1,stroop_test,59.0832018214064,
,,,,52.0,4.0,4.0,,,,,,,,,,,,,blau,yellow,g,0.0,g,1.0,0.7923337859974708,,,,,,,,,,4.0,4.0,52.0,7.0,319.5853536979994,,,,,,,,,,,,,,,,,319.5705924300055,319.68512175800424,320.4872928110053,320.47120614400046,,,,,,,,,,,,,,,,,,,,,,,,,,,,,,,,,,,320.4741005610049,320.4872928110053,320.4872928110053,321.2908386910058,g,1.0,0.7923337859974708,,,,,sub-123,1,stroop_test,59.0832018214064,
,,,,53.0,5.0,4.0,,,,,,,,,,,,,rot,red,r,1.0,r,1.0,0.6118195359958918,,,,,,,,,,4.0,5.0,53.0,0.0,321.30648016800114,,,,,,,,,,,,,,,,,321.2911721339988,322.0924726150042,322.90899740999885,322.87925978800195,,,,,,,,,,,,,,,,,,,,,,,,,,,,,,,,,,,322.88484251000045,322.90899740999885,322.90899740999885,323.5302776150056,r,1.0,0.6118195359958918,,,,,sub-123,1,stroop_test,59.0832018214064,
,,,,54.0,6.0,4.0,,,,,,,,,,,,,blau,red,r,0.0,r,1.0,0.3765163570060394,,,,,,,,,,4.0,6.0,54.0,4.0,323.5456677350012,,,,,,,,,,,,,,,,,323.5306237289988,324.3322361700048,325.1335740690047,325.1183659400049,,,,,,,,,,,,,,,,,,,,,,,,,,,,,,,,,,,325.122967618001,325.1335740690047,325.1335740690047,325.520736434999,r,1.0,0.3765163570060394,,,,,sub-123,1,stroop_test,59.0832018214064,
,,,,55.0,7.0,4.0,,,,,,,,,,,,,gelb,yellow,g,1.0,g,1.0,0.5448937399996794,,,,,,,,,,4.0,7.0,55.0,10.0,325.5348323780054,,,,,,,,,,,,,,,,,325.52112617700186,325.6343164550053,326.4375065620043,326.42164764000336,,,,,,,,,,,,,,,,,,,,,,,,,,,,,,,,,,,326.42672702800337,326.4375065620043,326.4375065620043,326.98983664499974,g,1.0,0.5448937399996794,,,,,sub-123,1,stroop_test,59.0832018214064,
,,,,56.0,8.0,4.0,,,,,,,,,,,,,rot,blue,b,0.0,b,1.0,0.7029926449977211,,,,,,,,,,4.0,8.0,56.0,2.0,327.0058468979987,,,,,,,,,,,,,,,,,326.9901752980004,327.3556482280037,328.15826931700576,328.1417648580027,,,,,,,,,,,,,,,,,,,,,,,,,,,,,,,,,,,328.1449442660014,328.15826931700576,328.15826931700576,328.86457155300013,b,1.0,0.7029926449977211,,,,,sub-123,1,stroop_test,59.0832018214064,
,,,,57.0,9.0,4.0,,,,,,,,,,,,,gelb,red,r,0.0,r,1.0,0.5878628379941802,,,,,,,,,,4.0,9.0,57.0,8.0,328.87602465500095,,,,,,,,,,,,,,,,,328.8649716549989,329.679268150001,330.4810656080008,330.46463187100017,,,,,,,,,,,,,,,,,,,,,,,,,,,,,,,,,,,330.46752721500525,330.4810656080008,330.4810656080008,331.0845215770023,r,1.0,0.5878628379941802,,,,,sub-123,1,stroop_test,59.0832018214064,
,,,,58.0,10.0,4.0,,,,,,,,,,,,,rot,yellow,g,0.0,g,1.0,0.5386426089971792,,,,,,,,,,4.0,10.0,58.0,3.0,331.0989132090035,,,,,,,,,,,,,,,,,331.0849139749989,331.4506701650025,332.25158869100414,332.2370607330013,,,,,,,,,,,,,,,,,,,,,,,,,,,,,,,,,,,332.24154858800466,332.25158869100414,332.25158869100414,332.80537541599915,g,1.0,0.5386426089971792,,,,,sub-123,1,stroop_test,59.0832018214064,
,,,,59.0,11.0,4.0,,,,,,,,,,,,,blau,blue,b,1.0,b,1.0,0.8698714650017791,,,,,,,,,,4.0,11.0,59.0,6.0,332.8200466690032,,,,,,,,,,,,,,,,,332.8057314800026,333.1543678080052,333.9564589850052,333.94102103900514,,,,,,,,,,,,,,,,,,,,,,,,,,,,,,,,,,,333.9439076350027,333.9564589850052,333.9564589850052,334.8434150239991,b,1.0,0.8698714650017791,,,,,sub-123,1,stroop_test,59.0832018214064,
,,,,60.0,0.0,5.0,,,,,,,,,,,,,rot,yellow,g,0.0,r,0.0,0.8164548130007461,,,,,,,,,,5.0,0.0,60.0,3.0,334.8588751089992,,,,,,,,,,,,,,,,,334.84382519200153,334.94237036100094,335.74695639100537,335.73004019300424,,,,,,,,,,,,,,,,,,,,,,,,,,,,,,,,,,,335.7371420749987,335.74695639100537,335.74695639100537,336.56650063800043,r,0.0,0.8164548130007461,,,,,sub-123,1,stroop_test,59.0832018214064,
,,,,61.0,1.0,5.0,,,,,,,,,,,,,rot,blue,b,0.0,b,1.0,1.6013979599956656,,,,,,,,,,5.0,1.0,61.0,2.0,336.5802566440034,,,,,,,,,,,,,,,,,336.5668461430032,336.9156688150033,337.71744495500025,337.70162212300056,,,,,,,,,,,,,,,,,,,,,,,,,,,,,,,,,,,337.70239027999924,337.71744495500025,337.71744495500025,339.3249320790055,b,1.0,1.6013979599956656,,,,,sub-123,1,stroop_test,59.0832018214064,
,,,,62.0,2.0,5.0,,,,,,,,,,,,,blau,blue,b,1.0,b,1.0,0.5190266520003206,,,,,,,,,,5.0,2.0,62.0,6.0,339.33753110100224,,,,,,,,,,,,,,,,,339.3253481360007,339.4386772889993,340.2406697930055,340.2251912080028,,,,,,,,,,,,,,,,,,,,,,,,,,,,,,,,,,,340.22976253300294,340.2406697930055,340.2406697930055,340.7640165929988,b,1.0,0.5190266520003206,,,,,sub-123,1,stroop_test,59.0832018214064,
,,,,63.0,3.0,5.0,,,,,,,,,,,,,blau,blue,b,1.0,b,1.0,0.4532324530009646,,,,,,,,,,5.0,3.0,63.0,5.0,340.77539471700584,,,,,,,,,,,,,,,,,340.7646039500032,341.1258141580038,341.9290369800001,341.913282598005,,,,,,,,,,,,,,,,,,,,,,,,,,,,,,,,,,,341.9140273700032,341.9290369800001,341.9290369800001,342.39766379100183,b,1.0,0.4532324530009646,,,,,sub-123,1,stroop_test,59.0832018214064,
,,,,64.0,4.0,5.0,,,,,,,,,,,,,gelb,blue,b,0.0,b,1.0,0.569488207998802,,,,,,,,,,5.0,4.0,64.0,9.0,342.412598900999,,,,,,,,,,,,,,,,,342.3980699360036,343.1987474350026,344.0014950830009,343.98517446999904,,,,,,,,,,,,,,,,,,,,,,,,,,,,,,,,,,,343.98973355500493,344.0014950830009,344.0014950830009,344.5873351390037,b,1.0,0.569488207998802,,,,,sub-123,1,stroop_test,59.0832018214064,
,,,,65.0,5.0,5.0,,,,,,,,,,,,,blau,yellow,g,0.0,g,1.0,0.718174364999868,,,,,,,,,,5.0,5.0,65.0,7.0,344.60183297500043,,,,,,,,,,,,,,,,,344.5877235970038,345.3878067300029,346.1899255870012,346.174886093002,,,,,,,,,,,,,,,,,,,,,,,,,,,,,,,,,,,346.17938973299897,346.1899255870012,346.1899255870012,346.9111137490036,g,1.0,0.718174364999868,,,,,sub-123,1,stroop_test,59.0832018214064,
,,,,66.0,6.0,5.0,,,,,,,,,,,,,gelb,red,r,0.0,r,1.0,0.579457473999355,,,,,,,,,,5.0,6.0,66.0,8.0,346.9248646890046,,,,,,,,,,,,,,,,,346.9114527339989,347.7109126080031,348.5121951330002,348.4971485530041,,,,,,,,,,,,,,,,,,,,,,,,,,,,,,,,,,,348.50136338500306,348.5121951330002,348.5121951330002,349.10020585100574,r,1.0,0.579457473999355,,,,,sub-123,1,stroop_test,59.0832018214064,
,,,,67.0,7.0,5.0,,,,,,,,,,,,,gelb,yellow,g,1.0,g,1.0,0.5325214600015897,,,,,,,,,,5.0,7.0,67.0,10.0,349.1139943689996,,,,,,,,,,,,,,,,,349.1006021249996,349.89910571899964,350.7015246830051,350.6855801490019,,,,,,,,,,,,,,,,,,,,,,,,,,,,,,,,,,,350.68612035299884,350.7015246830051,350.7015246830051,351.2408947370059,g,1.0,0.5325214600015897,,,,,sub-123,1,stroop_test,59.0832018214064,
,,,,68.0,8.0,5.0,,,,,,,,,,,,,rot,red,r,1.0,r,1.0,0.5308566300009261,,,,,,,,,,5.0,8.0,68.0,1.0,351.25246800100285,,,,,,,,,,,,,,,,,351.24130097500165,351.603650088,352.40712890800205,352.3911629830036,,,,,,,,,,,,,,,,,,,,,,,,,,,,,,,,,,,352.39569873300206,352.40712890800205,352.40712890800205,352.9448675130043,r,1.0,0.5308566300009261,,,,,sub-123,1,stroop_test,59.0832018214064,
,,,,69.0,9.0,5.0,,,,,,,,,,,,,blau,red,r,0.0,r,1.0,0.4923471180009073,,,,,,,,,,5.0,9.0,69.0,4.0,352.9573557010008,,,,,,,,,,,,,,,,,352.9453507050057,354.160555981005,354.962526673,354.94724551900435,,,,,,,,,,,,,,,,,,,,,,,,,,,,,,,,,,,354.9507585809988,354.962526673,354.962526673,355.46638815800543,r,1.0,0.4923471180009073,,,,,sub-123,1,stroop_test,59.0832018214064,
,,,,70.0,10.0,5.0,,,,,,,,,,,,,rot,red,r,1.0,r,1.0,0.661779114001547,,,,,,,,,,5.0,10.0,70.0,0.0,355.4806473770004,,,,,,,,,,,,,,,,,355.4667239390037,356.26712922000297,357.06799501099886,357.05341671800124,,,,,,,,,,,,,,,,,,,,,,,,,,,,,,,,,,,357.05761093000183,357.06799501099886,357.06799501099886,357.7389300799987,r,1.0,0.661779114001547,,,,,sub-123,1,stroop_test,59.0832018214064,
,,,,71.0,11.0,5.0,,,,,,,,,,,,,gelb,yellow,g,1.0,g,1.0,0.4687061599979643,,,,,,,,,,5.0,11.0,71.0,11.0,357.7541032980007,,,,,,,,,,,,,,,,,357.7392903650034,358.08856661499885,358.8919306280004,358.8753088800004,,,,,,,,,,,,,,,,,,,,,,,,,,,,,,,,,,,358.8798913300052,358.8919306280004,358.8919306280004,359.37643390900485,g,1.0,0.4687061599979643,,,,,sub-123,1,stroop_test,59.0832018214064,
,,,,72.0,0.0,6.0,,,,,,,,,,,,,rot,yellow,g,0.0,g,1.0,0.5251399089975166,,,,,,,,,,6.0,0.0,72.0,3.0,359.3911831229998,,,,,,,,,,,,,,,,,359.37676881800144,360.57859682500566,361.380362418,361.3648978830024,,,,,,,,,,,,,,,,,,,,,,,,,,,,,,,,,,,361.3694449550021,361.380362418,361.380362418,361.9158383230024,g,1.0,0.5251399089975166,,,,,sub-123,1,stroop_test,59.0832018214064,
,,,,73.0,1.0,6.0,,,,,,,,,,,,,gelb,yellow,g,1.0,g,1.0,0.624037376997876,,,,,,,,,,6.0,1.0,73.0,11.0,361.931871793,,,,,,,,,,,,,,,,,361.9161714650036,362.7173145890047,363.51867763300106,363.5041354780042,,,,,,,,,,,,,,,,,,,,,,,,,,,,,,,,,,,363.5086487230001,363.51867763300106,363.51867763300106,364.1566394230031,g,1.0,0.624037376997876,,,,,sub-123,1,stroop_test,59.0832018214064,
,,,,74.0,2.0,6.0,,,,,,,,,,,,,gelb,red,r,0.0,r,1.0,0.6254579269952956,,,,,,,,,,6.0,2.0,74.0,8.0,364.1706189750039,,,,,,,,,,,,,,,,,364.1570361769991,364.9569879300034,365.7592869979999,365.7435151250029,,,,,,,,,,,,,,,,,,,,,,,,,,,,,,,,,,,365.7442807830012,365.7592869979999,365.7592869979999,366.3954392740052,r,1.0,0.6254579269952956,,,,,sub-123,1,stroop_test,59.0832018214064,
,,,,75.0,3.0,6.0,,,,,,,,,,,,,blau,blue,b,1.0,b,1.0,0.7600379520008573,,,,,,,,,,6.0,3.0,75.0,6.0,366.4099538070004,,,,,,,,,,,,,,,,,366.3958503489994,366.5102293750024,367.31212001400127,367.2973841150015,,,,,,,,,,,,,,,,,,,,,,,,,,,,,,,,,,,367.30184550500417,367.31212001400127,367.31212001400127,368.0825980350055,b,1.0,0.7600379520008573,,,,,sub-123,1,stroop_test,59.0832018214064,
,,,,76.0,4.0,6.0,,,,,,,,,,,,,blau,blue,b,1.0,b,1.0,0.5164124180009821,,,,,,,,,,6.0,4.0,76.0,5.0,368.0977500529989,,,,,,,,,,,,,,,,,368.08294071099954,368.8831230990036,369.6865765030016,369.6707948399999,,,,,,,,,,,,,,,,,,,,,,,,,,,,,,,,,,,369.6715762180029,369.6865765030016,369.6865765030016,370.20829950800544,b,1.0,0.5164124180009821,,,,,sub-123,1,stroop_test,59.0832018214064,
,,,,77.0,5.0,6.0,,,,,,,,,,,,,gelb,yellow,g,1.0,g,1.0,0.6366107459980412,,,,,,,,,,6.0,5.0,77.0,10.0,370.2202388470032,,,,,,,,,,,,,,,,,370.2087963250015,370.32087739300187,371.1377471610031,371.1075855800009,,,,,,,,,,,,,,,,,,,,,,,,,,,,,,,,,,,371.1131842780014,371.1377471610031,371.1377471610031,371.7791777750026,g,1.0,0.6366107459980412,,,,,sub-123,1,stroop_test,59.0832018214064,
,,,,78.0,6.0,6.0,,,,,,,,,,,,,blau,yellow,g,0.0,g,1.0,0.5237301450033556,,,,,,,,,,6.0,6.0,78.0,7.0,371.7912854030001,,,,,,,,,,,,,,,,,371.77965486500034,371.8917953030032,372.6935565029999,372.6783714330013,,,,,,,,,,,,,,,,,,,,,,,,,,,,,,,,,,,372.6828109929993,372.6935565029999,372.6935565029999,373.2302666500036,g,1.0,0.5237301450033556,,,,,sub-123,1,stroop_test,59.0832018214064,
,,,,79.0,7.0,6.0,,,,,,,,,,,,,rot,red,r,1.0,r,1.0,0.5741919680003775,,,,,,,,,,6.0,7.0,79.0,0.0,373.244859051003,,,,,,,,,,,,,,,,,373.23059964799904,374.43221375000576,375.2335240110042,375.2178309650044,,,,,,,,,,,,,,,,,,,,,,,,,,,,,,,,,,,375.2210380050019,375.2335240110042,375.2335240110042,375.820739104005,r,1.0,0.5741919680003775,,,,,sub-123,1,stroop_test,59.0832018214064,
,,,,80.0,8.0,6.0,,,,,,,,,,,,,rot,blue,b,0.0,b,1.0,0.5578964839951368,,,,,,,,,,6.0,8.0,80.0,2.0,375.8350469870056,,,,,,,,,,,,,,,,,375.8211563100049,377.02271358299913,377.8245131100048,377.8088566930018,,,,,,,,,,,,,,,,,,,,,,,,,,,,,,,,,,,377.8096063330013,377.8245131100048,377.8245131100048,378.3934093580028,b,1.0,0.5578964839951368,,,,,sub-123,1,stroop_test,59.0832018214064,
,,,,81.0,9.0,6.0,,,,,,,,,,,,,gelb,blue,b,0.0,b,1.0,0.4367256170007749,,,,,,,,,,6.0,9.0,81.0,9.0,378.40851448800095,,,,,,,,,,,,,,,,,378.3937858540012,378.4933837429999,379.2948535260002,379.2792738480057,,,,,,,,,,,,,,,,,,,,,,,,,,,,,,,,,,,379.2836329100028,379.2948535260002,379.2948535260002,379.7475982790056,b,1.0,0.4367256170007749,,,,,sub-123,1,stroop_test,59.0832018214064,
,,,,82.0,10.0,6.0,,,,,,,,,,,,,rot,red,r,1.0,r,1.0,0.4518083399962052,,,,,,,,,,6.0,10.0,82.0,1.0,379.76252394400217,,,,,,,,,,,,,,,,,379.7479295880039,380.1135414110031,380.91636955500144,380.9003998699991,,,,,,,,,,,,,,,,,,,,,,,,,,,,,,,,,,,380.9050298700022,380.91636955500144,380.91636955500144,381.37199261000205,r,1.0,0.4518083399962052,,,,,sub-123,1,stroop_test,59.0832018214064,
,,,,83.0,11.0,6.0,,,,,,,,,,,,,blau,red,r,0.0,b,0.0,0.3861550880028517,,,,,,,,,,6.0,11.0,83.0,4.0,381.38367422900046,,,,,,,,,,,,,,,,,381.3724392790027,382.1852257480059,382.9891680650034,382.97278398300114,,,,,,,,,,,,,,,,,,,,,,,,,,,,,,,,,,,382.9773573280036,382.9891680650034,382.9891680650034,383.3900423080049,b,0.0,0.3861550880028517,,,,,sub-123,1,stroop_test,59.0832018214064,
,,,,84.0,0.0,7.0,,,,,,,,,,,,,rot,blue,b,0.0,b,1.0,0.6636903129983693,,,,,,,,,,7.0,0.0,84.0,2.0,383.4060574579999,,,,,,,,,,,,,,,,,383.3903770300021,383.74094079000497,384.542095583005,384.5266392850026,,,,,,,,,,,,,,,,,,,,,,,,,,,,,,,,,,,384.5311539780014,384.542095583005,384.542095583005,385.2120635460015,b,1.0,0.6636903129983693,,,,,sub-123,1,stroop_test,59.0832018214064,
,,,,85.0,1.0,7.0,,,,,,,,,,,,,gelb,yellow,g,1.0,g,1.0,0.5975602560065454,,,,,,,,,,7.0,1.0,85.0,11.0,385.2269650550006,,,,,,,,,,,,,,,,,385.21241518900206,386.414553210001,387.21682765600417,387.2005480650041,,,,,,,,,,,,,,,,,,,,,,,,,,,,,,,,,,,387.20613635300106,387.21682765600417,387.21682765600417,387.8196392130049,g,1.0,0.5975602560065454,,,,,sub-123,1,stroop_test,59.0832018214064,
,,,,86.0,2.0,7.0,,,,,,,,,,,,,rot,red,r,1.0,r,1.0,0.6426392380017205,,,,,,,,,,7.0,2.0,86.0,0.0,387.8342272600057,,,,,,,,,,,,,,,,,387.81997387100273,387.934436593001,388.7360807880032,388.7205434179996,,,,,,,,,,,,,,,,,,,,,,,,,,,,,,,,,,,388.7235595040038,388.7360807880032,388.7360807880032,389.3899102569994,r,1.0,0.6426392380017205,,,,,sub-123,1,stroop_test,59.0832018214064,
,,,,87.0,3.0,7.0,,,,,,,,,,,,,rot,yellow,g,0.0,r,0.0,0.4412150260031922,,,,,,,,,,7.0,3.0,87.0,3.0,389.4046566800025,,,,,,,,,,,,,,,,,389.3903005570028,389.7396916630023,390.5409508779994,390.5260728630019,,,,,,,,,,,,,,,,,,,,,,,,,,,,,,,,,,,390.5268421880028,390.5409508779994,390.5409508779994,390.9933558929988,r,0.0,0.4412150260031922,,,,,sub-123,1,stroop_test,59.0832018214064,
,,,,88.0,4.0,7.0,,,,,,,,,,,,,blau,blue,b,1.0,b,1.0,0.6540132730006007,,,,,,,,,,7.0,4.0,88.0,5.0,391.00888290500006,,,,,,,,,,,,,,,,,390.9936935090009,391.7948387280048,392.5969046329992,392.580482723999,,,,,,,,,,,,,,,,,,,,,,,,,,,,,,,,,,,392.5833597890014,392.5969046329992,392.5969046329992,393.2669595970001,b,1.0,0.6540132730006007,,,,,sub-123,1,stroop_test,59.0832018214064,
,,,,89.0,5.0,7.0,,,,,,,,,,,,,blau,blue,b,1.0,b,1.0,0.5118127089954214,,,,,,,,,,7.0,5.0,89.0,6.0,393.2819592730011,,,,,,,,,,,,,,,,,393.267373929004,393.3817045809992,394.1838867870029,394.16823250300513,,,,,,,,,,,,,,,,,,,,,,,,,,,,,,,,,,,394.1687427910001,394.1838867870029,394.1838867870029,394.7038873089987,b,1.0,0.5118127089954214,,,,,sub-123,1,stroop_test,59.0832018214064,
,,,,90.0,6.0,7.0,,,,,,,,,,,,,gelb,blue,b,0.0,b,1.0,0.6060786250018282,,,,,,,,,,7.0,6.0,90.0,9.0,394.71884763800335,,,,,,,,,,,,,,,,,394.7042241740055,395.0541419729998,395.8568638979996,395.84017577800114,,,,,,,,,,,,,,,,,,,,,,,,,,,,,,,,,,,395.84475474300416,395.8568638979996,395.8568638979996,396.47560469100426,b,1.0,0.6060786250018282,,,,,sub-123,1,stroop_test,59.0832018214064,
,,,,91.0,7.0,7.0,,,,,,,,,,,,,gelb,red,r,0.0,r,1.0,0.9141881359973922,,,,,,,,,,7.0,7.0,91.0,8.0,396.490453121005,,,,,,,,,,,,,,,,,396.476024141004,397.6777983580032,398.4788912150034,398.4629218310001,,,,,,,,,,,,,,,,,,,,,,,,,,,,,,,,,,,398.4634616510011,398.4788912150034,398.4788912150034,399.4019479480048,r,1.0,0.9141881359973922,,,,,sub-123,1,stroop_test,59.0832018214064,
,,,,92.0,8.0,7.0,,,,,,,,,,,,,blau,red,r,0.0,r,1.0,0.570754226995632,,,,,,,,,,7.0,8.0,92.0,4.0,399.41425788500055,,,,,,,,,,,,,,,,,399.4025486850005,400.6019413030008,401.4040724000006,401.3885628429998,,,,,,,,,,,,,,,,,,,,,,,,,,,,,,,,,,,401.393175600002,401.4040724000006,401.4040724000006,401.9906340660018,r,1.0,0.570754226995632,,,,,sub-123,1,stroop_test,59.0832018214064,
,,,,93.0,9.0,7.0,,,,,,,,,,,,,gelb,yellow,g,1.0,g,1.0,0.7441764130053343,,,,,,,,,,7.0,9.0,93.0,10.0,402.005013314003,,,,,,,,,,,,,,,,,401.991045281,402.79134704800526,403.5931760710009,403.5778624049999,,,,,,,,,,,,,,,,,,,,,,,,,,,,,,,,,,,403.5824675879994,403.5931760710009,403.5931760710009,404.3478965540053,g,1.0,0.7441764130053343,,,,,sub-123,1,stroop_test,59.0832018214064,
,,,,94.0,10.0,7.0,,,,,,,,,,,,,rot,red,r,1.0,r,1.0,0.6084172079936252,,,,,,,,,,7.0,10.0,94.0,1.0,404.3612928100047,,,,,,,,,,,,,,,,,404.3483125730054,404.7127889780022,405.5300762600018,405.4994383350058,,,,,,,,,,,,,,,,,,,,,,,,,,,,,,,,,,,405.5050783750048,405.5300762600018,405.5300762600018,406.15154707400507,r,1.0,0.6084172079936252,,,,,sub-123,1,stroop_test,59.0832018214064,
,,,,95.0,11.0,7.0,,,,,,,,,,,,,blau,yellow,g,0.0,g,1.0,0.8599531649961136,,,,,,,,,,7.0,11.0,95.0,7.0,406.1663913190059,,,,,,,,,,,,,,,,,406.1519292430021,406.26643574500486,407.0703413049996,407.05364146300417,,,,,,,,,,,,,,,,,,,,,,,,,,,,,,,,,,,407.0581925400038,407.0703413049996,407.0703413049996,407.940942291003,g,1.0,0.8599531649961136,,,,,sub-123,1,stroop_test,59.0832018214064,
,,,,96.0,0.0,8.0,,,,,,,,,,,,,gelb,red,r,0.0,r,1.0,0.4879937930018059,,,,,,,,,,8.0,0.0,96.0,8.0,407.9548278400034,,,,,,,,,,,,,,,,,407.9413445169994,408.05575843300176,408.8568365600004,408.841477218004,,,,,,,,,,,,,,,,,,,,,,,,,,,,,,,,,,,408.8446335300032,408.8568365600004,408.8568365600004,409.35992253100267,r,1.0,0.4879937930018059,,,,,sub-123,1,stroop_test,59.0832018214064,
,,,,97.0,1.0,8.0,,,,,,,,,,,,,gelb,blue,b,0.0,b,1.0,0.6121802079942427,,,,,,,,,,8.0,1.0,97.0,9.0,409.374572589004,,,,,,,,,,,,,,,,,409.36033268900064,409.7094234010001,410.5111404199997,410.4956225050046,,,,,,,,,,,,,,,,,,,,,,,,,,,,,,,,,,,410.4961391450052,410.5111404199997,410.5111404199997,411.13242272299976,b,1.0,0.6121802079942427,,,,,sub-123,1,stroop_test,59.0832018214064,
,,,,98.0,2.0,8.0,,,,,,,,,,,,,gelb,yellow,g,1.0,g,1.0,0.7615054810012225,,,,,,,,,,8.0,2.0,98.0,10.0,411.1464305780028,,,,,,,,,,,,,,,,,411.1328343490022,411.24681370799954,412.0487233690001,412.0326395209995,,,,,,,,,,,,,,,,,,,,,,,,,,,,,,,,,,,412.03320391700254,412.0487233690001,412.0487233690001,412.8204188650052,g,1.0,0.7615054810012225,,,,,sub-123,1,stroop_test,59.0832018214064,
,,,,99.0,3.0,8.0,,,,,,,,,,,,,rot,red,r,1.0,r,1.0,0.7703286730029504,,,,,,,,,,8.0,3.0,99.0,1.0,412.8338332249986,,,,,,,,,,,,,,,,,412.820843857,414.0214929450012,414.8233631000039,414.8081140180002,,,,,,,,,,,,,,,,,,,,,,,,,,,,,,,,,,,414.8126374580024,414.8233631000039,414.8233631000039,415.6100381350043,r,1.0,0.7703286730029504,,,,,sub-123,1,stroop_test,59.0832018214064,
,,,,100.0,4.0,8.0,,,,,,,,,,,,,blau,yellow,g,0.0,g,1.0,0.8949620940038585,,,,,,,,,,8.0,4.0,100.0,7.0,415.6251855450028,,,,,,,,,,,,,,,,,415.6103771280032,416.4109463200002,417.2127631070034,417.1973164400042,,,,,,,,,,,,,,,,,,,,,,,,,,,,,,,,,,,417.2019081930048,417.2127631070034,417.2127631070034,418.11747186700086,g,1.0,0.8949620940038585,,,,,sub-123,1,stroop_test,59.0832018214064,
,,,,101.0,5.0,8.0,,,,,,,,,,,,,blau,blue,b,1.0,b,1.0,0.6363439929991728,,,,,,,,,,8.0,5.0,101.0,5.0,418.13145801200153,,,,,,,,,,,,,,,,,418.117865305001,418.2315277410016,419.0347483200021,419.0188591280021,,,,,,,,,,,,,,,,,,,,,,,,,,,,,,,,,,,419.0196257650023,419.0347483200021,419.0347483200021,419.6870667290059,b,1.0,0.6363439929991728,,,,,sub-123,1,stroop_test,59.0832018214064,
,,,,102.0,6.0,8.0,,,,,,,,,,,,,blau,blue,b,1.0,b,1.0,0.5076756890048273,,,,,,,,,,8.0,6.0,102.0,6.0,419.7022704840056,,,,,,,,,,,,,,,,,419.6874750589996,419.80259585800377,420.605505010004,420.589899245002,,,,,,,,,,,,,,,,,,,,,,,,,,,,,,,,,,,420.5906730900024,420.605505010004,420.605505010004,421.1238898790034,b,1.0,0.5076756890048273,,,,,sub-123,1,stroop_test,59.0832018214064,
,,,,103.0,7.0,8.0,,,,,,,,,,,,,rot,red,r,1.0,r,1.0,0.6365047180006513,,,,,,,,,,8.0,7.0,103.0,0.0,421.13952715900086,,,,,,,,,,,,,,,,,421.1242220760032,422.3268887480008,423.1287594590031,423.1128431100005,,,,,,,,,,,,,,,,,,,,,,,,,,,,,,,,,,,423.1173847050013,423.1287594590031,423.1287594590031,423.7819902410047,r,1.0,0.6365047180006513,,,,,sub-123,1,stroop_test,59.0832018214064,
,,,,104.0,8.0,8.0,,,,,,,,,,,,,blau,red,r,0.0,r,1.0,0.5233331420022296,,,,,,,,,,8.0,8.0,104.0,4.0,423.7964119950048,,,,,,,,,,,,,,,,,423.782399058,423.89660859000287,424.6994860690029,424.68410615299945,,,,,,,,,,,,,,,,,,,,,,,,,,,,,,,,,,,424.68914921300166,424.6994860690029,424.6994860690029,425.2356219390058,r,1.0,0.5233331420022296,,,,,sub-123,1,stroop_test,59.0832018214064,
,,,,105.0,9.0,8.0,,,,,,,,,,,,,rot,blue,b,0.0,b,1.0,0.8481346550033777,,,,,,,,,,8.0,9.0,105.0,2.0,425.2503491489988,,,,,,,,,,,,,,,,,425.2360172730041,425.5853687250056,426.3884214850041,426.37176875000296,,,,,,,,,,,,,,,,,,,,,,,,,,,,,,,,,,,426.376337063004,426.3884214850041,426.3884214850041,427.2434089500021,b,1.0,0.8481346550033777,,,,,sub-123,1,stroop_test,59.0832018214064,
,,,,106.0,10.0,8.0,,,,,,,,,,,,,gelb,yellow,g,1.0,g,1.0,0.535165446002793,,,,,,,,,,8.0,10.0,106.0,11.0,427.2555580830012,,,,,,,,,,,,,,,,,427.2438821380056,427.60749336799927,428.4093754679998,428.3939646880026,,,,,,,,,,,,,,,,,,,,,,,,,,,,,,,,,,,428.3985282249996,428.4093754679998,428.4093754679998,428.96140760900016,g,1.0,0.535165446002793,,,,,sub-123,1,stroop_test,59.0832018214064,
,,,,107.0,11.0,8.0,,,,,,,,,,,,,rot,yellow,g,0.0,g,1.0,0.4228953419951722,,,,,,,,,,8.0,11.0,107.0,3.0,428.9774423190029,,,,,,,,,,,,,,,,,428.96174075399904,429.0609303730016,429.8631588070057,429.84669773399946,,,,,,,,,,,,,,,,,,,,,,,,,,,,,,,,,,,429.8494903079991,429.8631588070057,429.8631588070057,430.2985139500015,g,1.0,0.4228953419951722,,,,,sub-123,1,stroop_test,59.0832018214064,
,,,,108.0,0.0,9.0,,,,,,,,,,,,,gelb,yellow,g,1.0,g,1.0,0.4122519519951311,,,,,,,,,,9.0,0.0,108.0,11.0,430.3143704800023,,,,,,,,,,,,,,,,,430.2988585179992,431.1001531780057,431.9016992070028,431.8864420630052,,,,,,,,,,,,,,,,,,,,,,,,,,,,,,,,,,,431.890985873004,431.9016992070028,431.9016992070028,432.323339473005,g,1.0,0.4122519519951311,,,,,sub-123,1,stroop_test,59.0832018214064,
,,,,109.0,1.0,9.0,,,,,,,,,,,,,gelb,red,r,0.0,r,1.0,0.4891394189980929,,,,,,,,,,9.0,1.0,109.0,8.0,432.3362501330048,,,,,,,,,,,,,,,,,432.3239228910024,432.6870316030036,433.4903515850019,433.4744249530049,,,,,,,,,,,,,,,,,,,,,,,,,,,,,,,,,,,433.4752182930024,433.4903515850019,433.4903515850019,433.9914547380031,r,1.0,0.4891394189980929,,,,,sub-123,1,stroop_test,59.0832018214064,
,,,,110.0,2.0,9.0,,,,,,,,,,,,,rot,red,r,1.0,r,1.0,0.5682250539975939,,,,,,,,,,9.0,2.0,110.0,0.0,434.0075781330015,,,,,,,,,,,,,,,,,433.9918050330016,434.793385928002,435.5959408600029,435.58020725299866,,,,,,,,,,,,,,,,,,,,,,,,,,,,,,,,,,,435.5848929900021,435.5959408600029,435.5959408600029,436.18165927500377,r,1.0,0.5682250539975939,,,,,sub-123,1,stroop_test,59.0832018214064,
,,,,111.0,3.0,9.0,,,,,,,,,,,,,rot,blue,b,0.0,b,1.0,0.7091437919953023,,,,,,,,,,9.0,3.0,111.0,2.0,436.1963893810025,,,,,,,,,,,,,,,,,436.1820609800052,436.5482479380007,437.3501812730028,437.3349642980029,,,,,,,,,,,,,,,,,,,,,,,,,,,,,,,,,,,437.3357424150017,437.3501812730028,437.3501812730028,438.0697010940057,b,1.0,0.7091437919953023,,,,,sub-123,1,stroop_test,59.0832018214064,
,,,,112.0,4.0,9.0,,,,,,,,,,,,,rot,red,r,1.0,r,1.0,1.005236254997726,,,,,,,,,,9.0,4.0,112.0,1.0,438.0850860220016,,,,,,,,,,,,,,,,,438.0700669229991,438.42000832000485,439.2220376480036,439.2063008350015,,,,,,,,,,,,,,,,,,,,,,,,,,,,,,,,,,,439.2070543430018,439.2220376480036,439.2220376480036,440.2421878509994,r,1.0,1.005236254997726,,,,,sub-123,1,stroop_test,59.0832018214064,
,,,,113.0,5.0,9.0,,,,,,,,,,,,,blau,red,r,0.0,r,1.0,1.7349047949974192,,,,,,,,,,9.0,5.0,113.0,4.0,440.2575664899996,,,,,,,,,,,,,,,,,440.2425963900023,441.04279744499945,441.8456498830056,441.8302686680036,,,,,,,,,,,,,,,,,,,,,,,,,,,,,,,,,,,441.8357960780049,441.8456498830056,441.8456498830056,443.5871303630047,r,1.0,1.7349047949974192,,,,,sub-123,1,stroop_test,59.0832018214064,
,,,,114.0,6.0,9.0,,,,,,,,,,,,,blau,yellow,g,0.0,g,1.0,0.8435963199954131,,,,,,,,,,9.0,6.0,114.0,7.0,443.5998772940002,,,,,,,,,,,,,,,,,443.5876226450055,444.8026482830028,445.60555778800335,445.5902156230004,,,,,,,,,,,,,,,,,,,,,,,,,,,,,,,,,,,445.5909940100028,445.60555778800335,445.60555778800335,446.4596452670012,g,1.0,0.8435963199954131,,,,,sub-123,1,stroop_test,59.0832018214064,
,,,,115.0,7.0,9.0,,,,,,,,,,,,,blau,blue,b,1.0,b,1.0,0.6089679729993804,,,,,,,,,,9.0,7.0,115.0,5.0,446.4742369250016,,,,,,,,,,,,,,,,,446.4600384930018,446.8249632570005,447.6279077979998,447.611839322999,,,,,,,,,,,,,,,,,,,,,,,,,,,,,,,,,,,447.6125808180004,447.6279077979998,447.6279077979998,448.2479194050029,b,1.0,0.6089679729993804,,,,,sub-123,1,stroop_test,59.0832018214064,
,,,,116.0,8.0,9.0,,,,,,,,,,,,,gelb,blue,b,0.0,b,1.0,0.5417955240045558,,,,,,,,,,9.0,8.0,116.0,9.0,448.26175623300514,,,,,,,,,,,,,,,,,448.24828895799874,449.449431068002,450.2510881230046,450.2358334730016,,,,,,,,,,,,,,,,,,,,,,,,,,,,,,,,,,,450.2404153579992,450.2510881230046,450.2510881230046,450.80352897900593,b,1.0,0.5417955240045558,,,,,sub-123,1,stroop_test,59.0832018214064,
,,,,117.0,9.0,9.0,,,,,,,,,,,,,gelb,yellow,g,1.0,g,1.0,0.6665439100033836,,,,,,,,,,9.0,9.0,117.0,10.0,450.8189305460037,,,,,,,,,,,,,,,,,450.8038677479999,452.0061299080044,452.8081360130018,452.792330395001,,,,,,,,,,,,,,,,,,,,,,,,,,,,,,,,,,,452.7930853830039,452.8081360130018,452.8081360130018,453.4807917979997,g,1.0,0.6665439100033836,,,,,sub-123,1,stroop_test,59.0832018214064,
,,,,118.0,10.0,9.0,,,,,,,,,,,,,blau,blue,b,1.0,b,1.0,0.6418313169997418,,,,,,,,,,9.0,10.0,118.0,6.0,453.4925959149987,,,,,,,,,,,,,,,,,453.4812662080003,453.8442656500047,454.6460628429995,454.62992888200097,,,,,,,,,,,,,,,,,,,,,,,,,,,,,,,,,,,454.6329972290041,454.6460628429995,454.6460628429995,455.2998213040046,b,1.0,0.6418313169997418,,,,,sub-123,1,stroop_test,59.0832018214064,
,,,,119.0,11.0,9.0,,,,,,,,,,,,,rot,yellow,g,0.0,r,0.0,0.8410245619961643,,,,,,,,,,9.0,11.0,119.0,3.0,455.314723110001,,,,,,,,,,,,,,,,,455.3002299549989,455.64911787299934,456.452513010001,456.435636248003,,,,,,,,,,,,,,,,,,,,,,,,,,,,,,,,,,,456.4401478780055,456.452513010001,456.452513010001,457.3047813610028,r,0.0,0.8410245619961643,,,,,sub-123,1,stroop_test,59.0832018214064,
,,,,,,,,,,,,,,,,,,,,,,,,,,,,,,,,,,,,,,,,,,,,,,,,,,,,,,,,,,,,,,,,,,,,,,,,,,,,,,,,,,,,,,,,,,,,,,,,,,,,,,457.3049746980032,457.3193296239988,462.3165412189992,sub-123,1,stroop_test,59.0832018214064,
