wordCTK,colorCTK,corrAnsCTK,congruentCTK,thisN,thisTrialN,thisRepN,keyResp_CTK.keys,keyResp_CTK.corr,keyResp_CTK.rt,keyResp_CTK.duration,wordPractice,colorPractice,corrAnsPractice,congruentPractice,respPractice.keys,respPractice.corr,respPractice.rt,respPractice.duration,word,color,corrAns,congruent,keyResp_test_run.keys,keyResp_test_run.corr,keyResp_test_run.rt,keyResp_test_run.duration,trials_CTK.thisRepN,trials_CTK.thisTrialN,trials_CTK.thisN,trials_CTK.thisIndex,trials_practice.thisRepN,trials_practice.thisTrialN,trials_practice.thisN,trials_practice.thisIndex,trials_test.thisRepN,trials_test.thisTrialN,trials_test.thisN,trials_test.thisIndex,thisRow.t,notes,instruction.started,instr_text.started,instr_image.started,instr_resp.started,instruction.stopped,instr_resp.keys,instr_resp.rt,instr_resp.duration,instr_color_to_key.started,instr_ctk.started,resp_ctk.started,instr_color_to_key.stopped,resp_ctk.keys,resp_ctk.rt,resp_ctk.duration,ITI.started,fixcross.started,fixcross.stopped,ITI.stopped,color_to_key_run.started,stimulus_CTK.started,keyResp_CTK.started,color_to_key_run.stopped,trials_CTK.keyResp_CTK.keys,trials_CTK.keyResp_CTK.corr,trials_CTK.keyResp_CTK.rt,trials_CTK.keyResp_CTK.duration,instr_practice.started,instr_practice_text.started,instr_practice_resp.started,instr_practice.stopped,instr_practice_resp.keys,instr_practice_resp.rt,instr_practice_resp.duration,practice_run.started,stimulus_practice.started,respPractice.started,practice_run.stopped,trials_practice.respPractice.keys,trials_practice.respPractice.corr,trials_practice.respPractice.rt,trials_practice.respPractice.duration,feedback.started,textFeedback.started,feedback.stopped,instr_test.started,instr_test_text.started,instr_test_resp.started,instr_test.stopped,instr_test_resp.keys,instr_test_resp.rt,instr_test_resp.duration,test_run.started,stimulus_test_run.started,keyResp_test_run.started,test_run.stopped,trials_test.keyResp_test_run.keys,trials_test.keyResp_test_run.corr,trials_test.keyResp_test_run.rt,trials_test.keyResp_test_run.duration,goodbye.started,textGoodbye.started,goodbye.stopped,participant,session,expName,frameRate,Unnamed: 111
,,,,,,,,,,,,,,,,,,,,,,,,,,,,,,,,,,,,,,,,,0.0388239890016848,0.0739554760002647,0.0739554760002647,0.0739554760002647,35.36289333199966,space,35.258034539998334,,,,,,,,,,,,,,,,,,,,,,,,,,,,,,,,,,,,,,,,,,,,,,,,,,,,,,,,,sub-139,1,stroop_test,79.43101404067949,
,,,,,,,,,,,,,,,,,,,,,,,,,,,,,,,,,,,,,,,,,,,,,,,,,35.362994850002,35.37951109700225,35.37951109700225,41.826048260998505,space,6.432798095003818,,,,,,,,,,,,,,,,,,,,,,,,,,,,,,,,,,,,,,,,,,,,,,,,,,sub-139,1,stroop_test,79.43101404067949,
test,blue,b,1.0,0.0,0.0,0.0,b,1.0,1.94783327299956,,,,,,,,,,,,,,,,,,0.0,0.0,0.0,2.0,,,,,,,,,41.8568391459994,,,,,,,,,,,,,,,,,41.84390761100076,41.93317096099781,42.73824708799657,42.72373985200102,42.73076360300183,42.73824708799657,42.73824708799657,44.70203733800008,b,1.0,1.94783327299956,,,,,,,,,,,,,,,,,,,,,,,,,,,,,,,,,,,,,,sub-139,1,stroop_test,79.43101404067949,
test,yellow,g,1.0,1.0,1.0,0.0,g,1.0,1.6936424700033967,,,,,,,,,,,,,,,,,,0.0,1.0,1.0,1.0,,,,,,,,,44.717089867997856,,,,,,,,,,,,,,,,,44.702625728001294,45.50296856099885,46.31116651200136,46.29797783899994,46.29935206999653,46.31116651200136,46.31116651200136,48.01429645199824,g,1.0,1.6936424700033967,,,,,,,,,,,,,,,,,,,,,,,,,,,,,,,,,,,,,,sub-139,1,stroop_test,79.43101404067949,
test,red,r,1.0,2.0,2.0,0.0,r,1.0,0.6410684769944055,,,,,,,,,,,,,,,,,,0.0,2.0,2.0,0.0,,,,,,,,,48.03006107400142,,,,,,,,,,,,,,,,,48.01518237299752,48.37614459299948,49.1953496319984,49.18389289199695,49.18437076600094,49.1953496319984,49.1953496319984,49.85107609099941,r,1.0,0.6410684769944055,,,,,,,,,,,,,,,,,,,,,,,,,,,,,,,,,,,,,,sub-139,1,stroop_test,79.43101404067949,
test,yellow,g,1.0,3.0,0.0,1.0,g,1.0,1.2277662639971825,,,,,,,,,,,,,,,,,,1.0,0.0,3.0,1.0,,,,,,,,,49.86435286999768,,,,,,,,,,,,,,,,,49.85154984599649,51.06139680700289,51.875560136002605,51.86145494700031,51.862153980000585,51.875560136002605,51.875560136002605,53.10738657799811,g,1.0,1.2277662639971825,,,,,,,,,,,,,,,,,,,,,,,,,,,,,,,,,,,,,,sub-139,1,stroop_test,79.43101404067949,
test,red,r,1.0,4.0,1.0,1.0,r,1.0,0.8863504889959586,,,,,,,,,,,,,,,,,,1.0,1.0,4.0,0.0,,,,,,,,,53.121395397000015,,,,,,,,,,,,,,,,,53.10787036699912,53.91020164299698,54.7127331629963,54.70190989199909,54.70231464599783,54.7127331629963,54.7127331629963,55.60588442399603,r,1.0,0.8863504889959586,,,,,,,,,,,,,,,,,,,,,,,,,,,,,,,,,,,,,,sub-139,1,stroop_test,79.43101404067949,
test,blue,b,1.0,5.0,2.0,1.0,b,1.0,0.4628854960028548,,,,,,,,,,,,,,,,,,1.0,2.0,5.0,2.0,,,,,,,,,55.6205402600026,,,,,,,,,,,,,,,,,55.60643385499861,56.411219301997335,57.223982393996266,57.21119368299696,57.2116616150015,57.223982393996266,57.223982393996266,57.71379241999966,b,1.0,0.4628854960028548,,,,,,,,,,,,,,,,,,,,,,,,,,,,,,,,,,,,,,sub-139,1,stroop_test,79.43101404067949,
test,yellow,g,1.0,6.0,0.0,2.0,g,1.0,0.8434466050021001,,,,,,,,,,,,,,,,,,2.0,0.0,6.0,1.0,,,,,,,,,57.72536988100183,,,,,,,,,,,,,,,,,57.71432826900127,58.91953394399752,59.725306419000844,59.71123829900171,59.712039929996536,59.725306419000844,59.725306419000844,60.578723323000304,g,1.0,0.8434466050021001,,,,,,,,,,,,,,,,,,,,,,,,,,,,,,,,,,,,,,sub-139,1,stroop_test,79.43101404067949,
test,red,r,1.0,7.0,1.0,2.0,r,1.0,0.6843631070005358,,,,,,,,,,,,,,,,,,2.0,1.0,7.0,0.0,,,,,,,,,60.59272928399878,,,,,,,,,,,,,,,,,60.579200583000784,60.6942432989963,61.516358390996174,61.50421423200169,61.50474337099877,61.516358390996174,61.516358390996174,62.21922040000209,r,1.0,0.6843631070005358,,,,,,,,,,,,,,,,,,,,,,,,,,,,,,,,,,,,,,sub-139,1,stroop_test,79.43101404067949,
test,blue,b,1.0,8.0,2.0,2.0,b,1.0,0.6061920469946926,,,,,,,,,,,,,,,,,,2.0,2.0,8.0,2.0,,,,,,,,,62.23244180800248,,,,,,,,,,,,,,,,,62.21960872699856,63.42870625499927,64.24356467599864,64.23212094199698,64.23266924299969,64.24356467599864,64.24356467599864,64.85996436199639,b,1.0,0.6061920469946926,,,,,,,,,,,,,,,,,,,,,,,,,,,,,,,,,,,,,,sub-139,1,stroop_test,79.43101404067949,
test,blue,b,1.0,9.0,0.0,3.0,b,1.0,0.5976467750006123,,,,,,,,,,,,,,,,,,3.0,0.0,9.0,2.0,,,,,,,,,64.87436095000157,,,,,,,,,,,,,,,,,64.860491585001,65.67424494199804,66.48562302200298,66.47318179899594,66.47379710899986,66.48562302200298,66.48562302200298,67.09304980900197,b,1.0,0.5976467750006123,,,,,,,,,,,,,,,,,,,,,,,,,,,,,,,,,,,,,,sub-139,1,stroop_test,79.43101404067949,
test,yellow,g,1.0,10.0,1.0,3.0,g,1.0,1.1008910989985452,,,,,,,,,,,,,,,,,,3.0,1.0,10.0,1.0,,,,,,,,,67.10832895200292,,,,,,,,,,,,,,,,,67.09360793499945,67.2075341239979,68.01782757099863,68.00702601800003,68.0074160380027,68.01782757099863,68.01782757099863,69.12888341399957,g,1.0,1.1008910989985452,,,,,,,,,,,,,,,,,,,,,,,,,,,,,,,,,,,,,,sub-139,1,stroop_test,79.43101404067949,
test,red,r,1.0,11.0,2.0,3.0,r,1.0,1.00583916100004,,,,,,,,,,,,,,,,,,3.0,2.0,11.0,0.0,,,,,,,,,69.14372363800067,,,,,,,,,,,,,,,,,69.12938530300016,70.33291379699949,71.13492896599928,71.12335429000086,71.12382421599614,71.13492896599928,71.13492896599928,72.15265460099909,r,1.0,1.00583916100004,,,,,,,,,,,,,,,,,,,,,,,,,,,,,,,,,,,,,,sub-139,1,stroop_test,79.43101404067949,
,,,,,,,,,,,,,,,,,,,,,,,,,,,,,,,,,,,,,,,,,,,,,,,,,,,,,,,,,,,,,,,,,,,,72.15290730800189,72.16876192599739,72.16876192599739,75.64451137799915,space,3.458527190996392,,,,,,,,,,,,,,,,,,,,,,,,,,,,,,,sub-139,1,stroop_test,79.43101404067949,
,,,,0.0,0.0,0.0,,,,,blau,yellow,g,0.0,g,1.0,1.1675107550036046,,,,,,,,,,,,,,0.0,0.0,0.0,7.0,,,,,75.66928176899819,,,,,,,,,,,,,,,,,75.65732823799772,76.8556835240015,77.67127424100181,77.65111873899878,,,,,,,,,,,,,,,,77.66243725599634,77.67127424100181,77.67127424100181,78.84445026700268,g,1.0,1.1675107550036046,,78.85747279800125,78.86946265999723,79.85311931999604,,,,,,,,,,,,,,,,,,,sub-139,1,stroop_test,79.43101404067949,
,,,,1.0,1.0,0.0,,,,,rot,red,r,1.0,r,1.0,0.9004711369998404,,,,,,,,,,,,,,0.0,1.0,1.0,1.0,,,,,79.86313420799706,,,,,,,,,,,,,,,,,79.85344963600073,80.65077544000087,81.4722767610001,81.45424184999865,,,,,,,,,,,,,,,,81.4632816960002,81.4722767610001,81.4722767610001,82.39044032099628,r,1.0,0.9004711369998404,,82.39124343000003,82.40714679400116,83.40644414100097,,,,,,,,,,,,,,,,,,,sub-139,1,stroop_test,79.43101404067949,
,,,,2.0,2.0,0.0,,,,,rot,blue,b,0.0,b,1.0,0.6900218010050594,,,,,,,,,,,,,,0.0,2.0,2.0,2.0,,,,,83.41652893900027,,,,,,,,,,,,,,,,,83.40676300999621,83.49743845099874,84.30335310599912,84.29018739100138,,,,,,,,,,,,,,,,84.29093644100067,84.30335310599912,84.30335310599912,85.00598396200076,b,1.0,0.6900218010050594,,85.00684197399823,85.02138540899614,86.02114787499886,,,,,,,,,,,,,,,,,,,sub-139,1,stroop_test,79.43101404067949,
,,,,3.0,3.0,0.0,,,,,gelb,yellow,g,1.0,g,1.0,0.9525061669992284,,,,,,,,,,,,,,0.0,3.0,3.0,10.0,,,,,86.03231361499638,,,,,,,,,,,,,,,,,86.02162634999695,86.81375614400167,87.630701150003,87.61640434400033,,,,,,,,,,,,,,,,87.61936810900079,87.630701150003,87.630701150003,88.58818781800073,g,1.0,0.9525061669992284,,88.58898268699704,88.60478039999725,89.60204492000048,,,,,,,,,,,,,,,,,,,sub-139,1,stroop_test,79.43101404067949,
,,,,4.0,4.0,0.0,,,,,rot,yellow,g,0.0,g,1.0,0.8252631919967826,,,,,,,,,,,,,,0.0,4.0,4.0,3.0,,,,,89.61189314499643,,,,,,,,,,,,,,,,,89.60235556100088,90.79839792600252,91.60997767699882,91.59165450900036,,,,,,,,,,,,,,,,91.596579568999,91.60997767699882,91.60997767699882,92.44874797100056,g,1.0,0.8252631919967826,,92.44953392699972,92.46582327299984,93.46855366099771,,,,,,,,,,,,,,,,,,,sub-139,1,stroop_test,79.43101404067949,
,,,,5.0,5.0,0.0,,,,,blau,blue,b,1.0,b,1.0,1.0586820469980012,,,,,,,,,,,,,,0.0,5.0,5.0,5.0,,,,,93.47993011699872,,,,,,,,,,,,,,,,,93.46907285199995,93.8024650629959,94.61015880799825,94.594506454996,,,,,,,,,,,,,,,,94.59810584800287,94.61015880799825,94.61015880799825,95.680951043003,b,1.0,1.0586820469980012,,95.68238151999684,95.69850932499683,96.68725034900126,,,,,,,,,,,,,,,,,,,sub-139,1,stroop_test,79.43101404067949,
,,,,6.0,6.0,0.0,,,,,gelb,red,r,0.0,r,1.0,0.9011675869987812,,,,,,,,,,,,,,0.0,6.0,6.0,8.0,,,,,96.69842166500166,,,,,,,,,,,,,,,,,96.68766555599724,97.4966717749994,98.30267726499731,98.28717710699856,,,,,,,,,,,,,,,,98.29039734300022,98.30267726499731,98.30267726499731,99.2204012919974,r,1.0,0.9011675869987812,,99.22120887599884,99.23772001200268,100.23529021000286,,,,,,,,,,,,,,,,,,,sub-139,1,stroop_test,79.43101404067949,
,,,,7.0,7.0,0.0,,,,,gelb,yellow,g,1.0,g,1.0,0.8351676279999083,,,,,,,,,,,,,,0.0,7.0,7.0,11.0,,,,,100.24552393899648,,,,,,,,,,,,,,,,,100.23559138100244,100.58180983499916,101.4041434039973,101.38989247899735,,,,,,,,,,,,,,,,101.39053598600005,101.4041434039973,101.4041434039973,102.25681853800052,g,1.0,0.8351676279999083,,102.25740284899804,102.27251312600129,103.27298508999957,,,,,,,,,,,,,,,,,,,sub-139,1,stroop_test,79.43101404067949,
,,,,8.0,8.0,0.0,,,,,rot,red,r,1.0,r,1.0,0.93960383200465,,,,,,,,,,,,,,0.0,8.0,8.0,0.0,,,,,103.28583127599995,,,,,,,,,,,,,,,,,103.27353559400215,104.06898364199878,104.87770440999884,104.86116554200272,,,,,,,,,,,,,,,,104.865857443001,104.87770440999884,104.87770440999884,105.8220917189974,r,1.0,0.93960383200465,,105.82326110699796,105.83908840199727,106.82880590199784,,,,,,,,,,,,,,,,,,,sub-139,1,stroop_test,79.43101404067949,
,,,,9.0,9.0,0.0,,,,,gelb,blue,b,0.0,b,1.0,0.8556021320036962,,,,,,,,,,,,,,0.0,9.0,9.0,9.0,,,,,106.84085512399906,,,,,,,,,,,,,,,,,106.82928867499868,106.93209724700137,107.75451838300069,107.73776130699844,,,,,,,,,,,,,,,,107.74181144600152,107.75451838300069,107.75451838300069,108.61771555100133,b,1.0,0.8556021320036962,,108.61829671700252,108.63346053299756,109.62755902099887,,,,,,,,,,,,,,,,,,,sub-139,1,stroop_test,79.43101404067949,
,,,,10.0,10.0,0.0,,,,,blau,red,r,0.0,r,1.0,1.2469130579993362,,,,,,,,,,,,,,0.0,10.0,10.0,4.0,,,,,109.63963910200256,,,,,,,,,,,,,,,,,109.62809504199686,110.42115540400118,111.23695092400158,111.22076592800296,,,,,,,,,,,,,,,,111.22477526399598,111.23695092400158,111.23695092400158,112.49307534500258,r,1.0,1.2469130579993362,,112.49390046500048,112.51042336899992,113.50781172799908,,,,,,,,,,,,,,,,,,,sub-139,1,stroop_test,79.43101404067949,
,,,,11.0,11.0,0.0,,,,,blau,blue,b,1.0,b,1.0,0.6449532230035402,,,,,,,,,,,,,,0.0,11.0,11.0,6.0,,,,,113.51843041100074,,,,,,,,,,,,,,,,,113.50811010399777,114.69946920299844,115.51307207500211,115.50016461299674,,,,,,,,,,,,,,,,115.50073746900308,115.51307207500211,115.51307207500211,116.169162623999,b,1.0,0.6449532230035402,,116.16977400999896,116.18548142300278,117.18602058500257,,,,,,,,,,,,,,,,,,,sub-139,1,stroop_test,79.43101404067949,
,,,,12.0,0.0,1.0,,,,,gelb,red,r,0.0,r,1.0,1.041580832003092,,,,,,,,,,,,,,1.0,0.0,12.0,8.0,,,,,117.19725612000184,,,,,,,,,,,,,,,,,117.18653329899826,117.5294004949974,118.34355219700228,118.3258562100018,,,,,,,,,,,,,,,,118.33093984999869,118.34355219700228,118.34355219700228,119.40403511499608,r,1.0,1.041580832003092,,119.40486711300036,119.41948318399956,120.40740157500112,,,,,,,,,,,,,,,,,,,sub-139,1,stroop_test,79.43101404067949,
,,,,13.0,1.0,1.0,,,,,gelb,yellow,g,1.0,g,1.0,0.7009663189965067,,,,,,,,,,,,,,1.0,1.0,13.0,11.0,,,,,120.4175206919972,,,,,,,,,,,,,,,,,120.4077176849969,120.5177832440022,121.33325342099852,121.3205823649987,,,,,,,,,,,,,,,,121.32136104600067,121.33325342099852,121.33325342099852,122.04132893199858,g,1.0,0.7009663189965067,,122.04260991999764,122.05880065899692,123.05244456999937,,,,,,,,,,,,,,,,,,,sub-139,1,stroop_test,79.43101404067949,
,,,,14.0,2.0,1.0,,,,,blau,red,r,0.0,b,0.0,1.6597117679993971,,,,,,,,,,,,,,1.0,2.0,14.0,4.0,,,,,123.06164575200091,,,,,,,,,,,,,,,,,123.05273041700276,124.25186809700244,125.06517482300114,125.05178593200252,,,,,,,,,,,,,,,,125.05441701300153,125.06517482300114,125.06517482300114,126.73330207399704,b,0.0,1.6597117679993971,,126.74201899499894,126.75329443199736,127.75176396100142,,,,,,,,,,,,,,,,,,,sub-139,1,stroop_test,79.43101404067949,
,,,,15.0,3.0,1.0,,,,,rot,blue,b,0.0,b,1.0,0.9249860650015762,,,,,,,,,,,,,,1.0,3.0,15.0,2.0,,,,,127.76503964100266,,,,,,,,,,,,,,,,,127.7520730749966,127.84049579100248,128.64308305799932,128.62908927199896,,,,,,,,,,,,,,,,128.6326943180029,128.64308305799932,128.64308305799932,129.57301886200003,b,1.0,0.9249860650015762,,129.5767176340014,129.59117312599847,130.58276558299983,,,,,,,,,,,,,,,,,,,sub-139,1,stroop_test,79.43101404067949,
,,,,16.0,4.0,1.0,,,,,rot,yellow,g,0.0,g,1.0,1.1755210760020418,,,,,,,,,,,,,,1.0,4.0,16.0,3.0,,,,,130.59232951099693,,,,,,,,,,,,,,,,,130.58304051199957,130.93051517900312,131.73038888500014,131.7203737489981,,,,,,,,,,,,,,,,131.7207883230003,131.73038888500014,131.73038888500014,132.91597360799642,g,1.0,1.1755210760020418,,132.9165000829962,132.92913213500287,133.9172905689993,,,,,,,,,,,,,,,,,,,sub-139,1,stroop_test,79.43101404067949,
,,,,17.0,5.0,1.0,,,,,blau,blue,b,1.0,b,1.0,2.2983505240044906,,,,,,,,,,,,,,1.0,5.0,17.0,5.0,,,,,133.92603882899857,,,,,,,,,,,,,,,,,133.91757639299612,134.71292926799651,135.52415436499723,135.5101215839968,,,,,,,,,,,,,,,,135.51413692099595,135.52415436499723,135.52415436499723,137.83947516499757,b,1.0,2.2983505240044906,,137.84002138699725,137.85259435899934,138.84210820600128,,,,,,,,,,,,,,,,,,,sub-139,1,stroop_test,79.43101404067949,
,,,,18.0,6.0,1.0,,,,,gelb,yellow,g,1.0,g,1.0,1.2645280209981138,,,,,,,,,,,,,,1.0,6.0,18.0,10.0,,,,,138.85192796900083,,,,,,,,,,,,,,,,,138.84239957099635,139.64059186400118,140.44542798499606,140.43279742699815,,,,,,,,,,,,,,,,140.4353060229987,140.44542798499606,140.44542798499606,141.7148668899972,g,1.0,1.2645280209981138,,141.71536802999617,141.72783262399753,142.72161293299723,,,,,,,,,,,,,,,,,,,sub-139,1,stroop_test,79.43101404067949,
,,,,19.0,7.0,1.0,,,,,blau,yellow,g,0.0,g,1.0,1.485305246002099,,,,,,,,,,,,,,1.0,7.0,19.0,7.0,,,,,142.7306882060002,,,,,,,,,,,,,,,,,142.72189865599648,143.06160125899623,143.87885512399953,143.86583734399755,,,,,,,,,,,,,,,,143.86860829299985,143.87885512399953,143.87885512399953,145.3860792639971,g,1.0,1.485305246002099,,145.3867504709997,145.39761436499975,146.39905543899658,,,,,,,,,,,,,,,,,,,sub-139,1,stroop_test,79.43101404067949,
,,,,20.0,8.0,1.0,,,,,rot,red,r,1.0,r,1.0,1.4288331529969582,,,,,,,,,,,,,,1.0,8.0,20.0,0.0,,,,,146.40902786199877,,,,,,,,,,,,,,,,,146.3993500430006,147.1859076729961,147.99015541999688,147.97558554200077,,,,,,,,,,,,,,,,147.97847965000255,147.99015541999688,147.99015541999688,149.4431868679967,r,1.0,1.4288331529969582,,149.44405190199905,149.45660961700196,150.45038342299813,,,,,,,,,,,,,,,,,,,sub-139,1,stroop_test,79.43101404067949,
,,,,21.0,9.0,1.0,,,,,blau,blue,b,1.0,b,1.0,1.0173603310031467,,,,,,,,,,,,,,1.0,9.0,21.0,6.0,,,,,150.46044895100204,,,,,,,,,,,,,,,,,150.4507397749985,151.25154895799642,152.06080150599882,152.0434505020021,,,,,,,,,,,,,,,,152.04824993100192,152.06080150599882,152.06080150599882,153.0928990550019,b,1.0,1.0173603310031467,,153.09366717699595,153.10772385200107,154.0983319309962,,,,,,,,,,,,,,,,,,,sub-139,1,stroop_test,79.43101404067949,
,,,,22.0,10.0,1.0,,,,,rot,red,r,1.0,r,1.0,1.190993060998153,,,,,,,,,,,,,,1.0,10.0,22.0,1.0,,,,,154.10818897799618,,,,,,,,,,,,,,,,,154.09863297399716,154.46505183899717,155.284380512996,155.27036174100067,,,,,,,,,,,,,,,,155.27321352299623,155.284380512996,155.284380512996,156.4902045600029,r,1.0,1.190993060998153,,156.4908358160028,156.50606559099833,157.49361496500205,,,,,,,,,,,,,,,,,,,sub-139,1,stroop_test,79.43101404067949,
,,,,23.0,11.0,1.0,,,,,gelb,blue,b,0.0,b,1.0,1.2412925249955151,,,,,,,,,,,,,,1.0,11.0,23.0,9.0,,,,,157.50440904500283,,,,,,,,,,,,,,,,,157.49389833799796,158.298587846999,159.10795683899778,159.09332694899786,,,,,,,,,,,,,,,,159.09719914799643,159.10795683899778,159.10795683899778,160.35508284599928,b,1.0,1.2412925249955151,,160.3559048620009,160.36968154100032,161.36772239400307,,,,,,,,,,,,,,,,,,,sub-139,1,stroop_test,79.43101404067949,
,,,,,,,,,,,,,,,,,,,,,,,,,,,,,,,,,,,,,,,,,,,,,,,,,,,,,,,,,,,,,,,,,,,,,,,,,,,,,,,,,,,,,,161.36787123599788,161.3789178980005,161.3789178980005,164.05706908000138,space,2.671552526000596,,,,,,,,,,,,,sub-139,1,stroop_test,79.43101404067949,
,,,,0.0,0.0,0.0,,,,,,,,,,,,,rot,red,r,1.0,r,1.0,1.108023570996011,,,,,,,,,,0.0,0.0,0.0,1.0,164.08687967700098,,,,,,,,,,,,,,,,,164.07400023299851,164.85421881700313,165.66923554200184,165.65575196000282,,,,,,,,,,,,,,,,,,,,,,,,,,,,,,,,,,165.65858014499827,165.66923554200184,165.66923554200184,166.7834505840001,r,1.0,1.108023570996011,,,,,sub-139,1,stroop_test,79.43101404067949,
,,,,1.0,1.0,0.0,,,,,,,,,,,,,rot,yellow,g,0.0,g,1.0,1.0411936589953257,,,,,,,,,,0.0,1.0,1.0,3.0,166.7955002919989,,,,,,,,,,,,,,,,,166.78394497599947,167.13150709399633,167.93402044999675,167.9234267540014,,,,,,,,,,,,,,,,,,,,,,,,,,,,,,,,,,167.92387927800155,167.93402044999675,167.93402044999675,168.98369063699647,g,1.0,1.0411936589953257,,,,,sub-139,1,stroop_test,79.43101404067949,
,,,,2.0,2.0,0.0,,,,,,,,,,,,,gelb,yellow,g,1.0,g,1.0,0.5945621770006255,,,,,,,,,,0.0,2.0,2.0,11.0,168.99541388799844,,,,,,,,,,,,,,,,,168.98405322700273,169.34488965100172,170.16253626199614,170.1496751329978,,,,,,,,,,,,,,,,,,,,,,,,,,,,,,,,,,170.15233314599757,170.16253626199614,170.16253626199614,170.7656311469982,g,1.0,0.5945621770006255,,,,,sub-139,1,stroop_test,79.43101404067949,
,,,,3.0,3.0,0.0,,,,,,,,,,,,,blau,yellow,g,0.0,g,1.0,0.5141698080042261,,,,,,,,,,0.0,3.0,3.0,7.0,170.77833314800228,,,,,,,,,,,,,,,,,170.76611469100317,170.88013110199972,171.69953339199856,171.68530103399826,,,,,,,,,,,,,,,,,,,,,,,,,,,,,,,,,,171.68819656199776,171.69953339199856,171.69953339199856,172.21896093100077,g,1.0,0.5141698080042261,,,,,sub-139,1,stroop_test,79.43101404067949,
,,,,4.0,4.0,0.0,,,,,,,,,,,,,blau,red,r,0.0,r,1.0,0.8625664060018607,,,,,,,,,,0.0,4.0,4.0,4.0,172.23135586600256,,,,,,,,,,,,,,,,,172.2194063959978,173.42962018300022,174.24388748800266,174.23306279799726,,,,,,,,,,,,,,,,,,,,,,,,,,,,,,,,,,174.23356191699713,174.24388748800266,174.24388748800266,175.11380319300224,r,1.0,0.8625664060018607,,,,,sub-139,1,stroop_test,79.43101404067949,
,,,,5.0,5.0,0.0,,,,,,,,,,,,,gelb,red,r,0.0,r,1.0,0.6179796469950816,,,,,,,,,,0.0,5.0,5.0,8.0,175.12583286599693,,,,,,,,,,,,,,,,,175.11418561499886,175.92102501699992,176.73279098599596,176.7187988059959,,,,,,,,,,,,,,,,,,,,,,,,,,,,,,,,,,176.72173934100283,176.73279098599596,176.73279098599596,177.36016835900227,r,1.0,0.6179796469950816,,,,,sub-139,1,stroop_test,79.43101404067949,
,,,,6.0,6.0,0.0,,,,,,,,,,,,,blau,blue,b,1.0,b,1.0,0.5747210530025768,,,,,,,,,,0.0,6.0,6.0,6.0,177.37302299000294,,,,,,,,,,,,,,,,,177.3607611039988,177.4673146599962,178.28290081900195,178.26925877799658,,,,,,,,,,,,,,,,,,,,,,,,,,,,,,,,,,178.27194403100293,178.28290081900195,178.28290081900195,178.8651312639995,b,1.0,0.5747210530025768,,,,,sub-139,1,stroop_test,79.43101404067949,
,,,,7.0,7.0,0.0,,,,,,,,,,,,,gelb,blue,b,0.0,b,1.0,1.3399060220035608,,,,,,,,,,0.0,7.0,7.0,9.0,178.8767535299994,,,,,,,,,,,,,,,,,178.86552888000006,178.97120323499985,179.77463326400175,179.7590082300012,,,,,,,,,,,,,,,,,,,,,,,,,,,,,,,,,,179.76215673200204,179.77463326400175,179.77463326400175,181.11889572200016,b,1.0,1.3399060220035608,,,,,sub-139,1,stroop_test,79.43101404067949,
,,,,8.0,8.0,0.0,,,,,,,,,,,,,rot,blue,b,0.0,b,1.0,0.5416660249975394,,,,,,,,,,0.0,8.0,8.0,2.0,181.1314840490013,,,,,,,,,,,,,,,,,181.11930569299875,182.32926638500064,183.133433488998,183.1191107069972,,,,,,,,,,,,,,,,,,,,,,,,,,,,,,,,,,183.12212195499887,183.133433488998,183.133433488998,183.68892485200195,b,1.0,0.5416660249975394,,,,,sub-139,1,stroop_test,79.43101404067949,
,,,,9.0,9.0,0.0,,,,,,,,,,,,,gelb,yellow,g,1.0,g,1.0,0.6909768370023812,,,,,,,,,,0.0,9.0,9.0,10.0,183.7020802769985,,,,,,,,,,,,,,,,,183.6893380819965,184.04297604999735,184.8507233889977,184.83564787900104,,,,,,,,,,,,,,,,,,,,,,,,,,,,,,,,,,184.8395264560022,184.8507233889977,184.8507233889977,185.5535359580026,g,1.0,0.6909768370023812,,,,,sub-139,1,stroop_test,79.43101404067949,
,,,,10.0,10.0,0.0,,,,,,,,,,,,,rot,red,r,1.0,r,1.0,0.7213656099993386,,,,,,,,,,0.0,10.0,10.0,0.0,185.56746101700264,,,,,,,,,,,,,,,,,185.5541698529996,186.75677984499637,187.56597865500223,187.5502730529988,,,,,,,,,,,,,,,,,,,,,,,,,,,,,,,,,,187.55461363599895,187.56597865500223,187.56597865500223,188.3040196849979,r,1.0,0.7213656099993386,,,,,sub-139,1,stroop_test,79.43101404067949,
,,,,11.0,11.0,0.0,,,,,,,,,,,,,blau,blue,b,1.0,b,1.0,0.7423647629984771,,,,,,,,,,0.0,11.0,11.0,5.0,188.3172825820002,,,,,,,,,,,,,,,,,188.30461274299887,188.66219823299616,189.4668224909983,189.45320969000025,,,,,,,,,,,,,,,,,,,,,,,,,,,,,,,,,,189.45590101199923,189.4668224909983,189.4668224909983,190.21875765699951,b,1.0,0.7423647629984771,,,,,sub-139,1,stroop_test,79.43101404067949,
,,,,12.0,0.0,1.0,,,,,,,,,,,,,gelb,blue,b,0.0,b,1.0,0.5004575200000545,,,,,,,,,,1.0,0.0,12.0,9.0,190.2315513220019,,,,,,,,,,,,,,,,,190.219151983998,191.4246880330029,192.23076259999647,192.2164493149976,,,,,,,,,,,,,,,,,,,,,,,,,,,,,,,,,,192.21973362199788,192.23076259999647,192.23076259999647,192.73457226900064,b,1.0,0.5004575200000545,,,,,sub-139,1,stroop_test,79.43101404067949,
,,,,13.0,1.0,1.0,,,,,,,,,,,,,blau,yellow,g,0.0,g,1.0,1.0337002220039722,,,,,,,,,,1.0,1.0,13.0,7.0,192.7471097960006,,,,,,,,,,,,,,,,,192.73496157799676,193.53993726200133,194.3465448420029,194.3326169799984,,,,,,,,,,,,,,,,,,,,,,,,,,,,,,,,,,194.33561579300292,194.3465448420029,194.3465448420029,195.38390191100189,g,1.0,1.0337002220039722,,,,,sub-139,1,stroop_test,79.43101404067949,
,,,,14.0,2.0,1.0,,,,,,,,,,,,,gelb,yellow,g,1.0,g,1.0,0.6047545969995554,,,,,,,,,,1.0,2.0,14.0,11.0,195.3964236660031,,,,,,,,,,,,,,,,,195.3843066280024,196.1915721960031,196.99420831300085,196.98152120000304,,,,,,,,,,,,,,,,,,,,,,,,,,,,,,,,,,196.98412066700257,196.99420831300085,196.99420831300085,197.602154330998,g,1.0,0.6047545969995554,,,,,sub-139,1,stroop_test,79.43101404067949,
,,,,15.0,3.0,1.0,,,,,,,,,,,,,rot,yellow,g,0.0,g,1.0,0.6085525079979561,,,,,,,,,,1.0,3.0,15.0,3.0,197.61544338599924,,,,,,,,,,,,,,,,,197.60280988500017,197.7108413929964,198.5152427330031,198.5016388369986,,,,,,,,,,,,,,,,,,,,,,,,,,,,,,,,,,198.50456116799612,198.5152427330031,198.5152427330031,199.14021229399805,g,1.0,0.6085525079979561,,,,,sub-139,1,stroop_test,79.43101404067949,
,,,,16.0,4.0,1.0,,,,,,,,,,,,,rot,red,r,1.0,r,1.0,0.7282816559963976,,,,,,,,,,1.0,4.0,16.0,0.0,199.1541910090018,,,,,,,,,,,,,,,,,199.14079612099889,199.49204194499907,200.29605335799715,200.2848203350004,,,,,,,,,,,,,,,,,,,,,,,,,,,,,,,,,,200.2852798620006,200.29605335799715,200.29605335799715,201.03323637200083,r,1.0,0.7282816559963976,,,,,sub-139,1,stroop_test,79.43101404067949,
,,,,17.0,5.0,1.0,,,,,,,,,,,,,gelb,yellow,g,1.0,g,1.0,0.5666044690005947,,,,,,,,,,1.0,5.0,17.0,10.0,201.0453156559961,,,,,,,,,,,,,,,,,201.0335919220015,201.3840919869981,202.19912755399852,202.1849984389992,,,,,,,,,,,,,,,,,,,,,,,,,,,,,,,,,,202.18804304300284,202.19912755399852,202.19912755399852,202.7710725299985,g,1.0,0.5666044690005947,,,,,sub-139,1,stroop_test,79.43101404067949,
,,,,18.0,6.0,1.0,,,,,,,,,,,,,gelb,red,r,0.0,g,0.0,0.9560363369964762,,,,,,,,,,1.0,6.0,18.0,8.0,202.7834400170032,,,,,,,,,,,,,,,,,202.77150387599977,203.96971051199944,204.77212649700232,204.7595324560025,,,,,,,,,,,,,,,,,,,,,,,,,,,,,,,,,,204.76004917099635,204.77212649700232,204.77212649700232,205.7319180499981,g,0.0,0.9560363369964762,,,,,sub-139,1,stroop_test,79.43101404067949,
,,,,19.0,7.0,1.0,,,,,,,,,,,,,rot,blue,b,0.0,b,1.0,0.6162572360044578,,,,,,,,,,1.0,7.0,19.0,2.0,205.7441791840029,,,,,,,,,,,,,,,,,205.732508770001,206.9299295000019,207.74751454999927,207.73323116399845,,,,,,,,,,,,,,,,,,,,,,,,,,,,,,,,,,207.73610634399665,207.74751454999927,207.74751454999927,208.36967084900243,b,1.0,0.6162572360044578,,,,,sub-139,1,stroop_test,79.43101404067949,
,,,,20.0,8.0,1.0,,,,,,,,,,,,,blau,blue,b,1.0,b,1.0,0.5711850989973755,,,,,,,,,,1.0,8.0,20.0,6.0,208.3826531270024,,,,,,,,,,,,,,,,,208.37005476399645,209.1788083939973,209.9833233259997,209.96858550100296,,,,,,,,,,,,,,,,,,,,,,,,,,,,,,,,,,209.97212281300017,209.9833233259997,209.9833233259997,210.55774803499665,b,1.0,0.5711850989973755,,,,,sub-139,1,stroop_test,79.43101404067949,
,,,,21.0,9.0,1.0,,,,,,,,,,,,,rot,red,r,1.0,r,1.0,1.111000443997909,,,,,,,,,,1.0,9.0,21.0,1.0,210.56928256300307,,,,,,,,,,,,,,,,,210.55813317999852,211.7628292189984,212.57175793700296,212.55729437399717,,,,,,,,,,,,,,,,,,,,,,,,,,,,,,,,,,212.5607344340024,212.57175793700296,212.57175793700296,213.68694536999828,r,1.0,1.111000443997909,,,,,sub-139,1,stroop_test,79.43101404067949,
,,,,22.0,10.0,1.0,,,,,,,,,,,,,blau,red,r,0.0,r,1.0,1.1849598859989785,,,,,,,,,,1.0,10.0,22.0,4.0,213.7009035689989,,,,,,,,,,,,,,,,,213.68744641399823,214.4925905799973,215.30105819799792,215.28720097699988,,,,,,,,,,,,,,,,,,,,,,,,,,,,,,,,,,215.29017404300248,215.30105819799792,215.30105819799792,216.4911492129977,r,1.0,1.1849598859989785,,,,,sub-139,1,stroop_test,79.43101404067949,
,,,,23.0,11.0,1.0,,,,,,,,,,,,,blau,blue,b,1.0,b,1.0,1.7239943919994405,,,,,,,,,,1.0,11.0,23.0,5.0,216.50499565099744,,,,,,,,,,,,,,,,,216.49156382700312,216.85076200000185,217.66483338399848,217.6531657079977,,,,,,,,,,,,,,,,,,,,,,,,,,,,,,,,,,217.65367910799975,217.66483338399848,217.66483338399848,219.3938863000003,b,1.0,1.7239943919994405,,,,,sub-139,1,stroop_test,79.43101404067949,
,,,,24.0,0.0,2.0,,,,,,,,,,,,,gelb,blue,b,0.0,b,1.0,0.5249029040060122,,,,,,,,,,2.0,0.0,24.0,9.0,219.407895766999,,,,,,,,,,,,,,,,,219.3943556300001,219.74567388599823,220.55558843499605,220.5411272659985,,,,,,,,,,,,,,,,,,,,,,,,,,,,,,,,,,220.54444249399967,220.55558843499605,220.55558843499605,221.08680349499627,b,1.0,0.5249029040060122,,,,,sub-139,1,stroop_test,79.43101404067949,
,,,,25.0,1.0,2.0,,,,,,,,,,,,,rot,red,r,1.0,r,1.0,0.8948020659954636,,,,,,,,,,2.0,1.0,25.0,0.0,221.09934117399823,,,,,,,,,,,,,,,,,221.08719318999647,221.89686010999867,222.71408669099765,222.6997955949992,,,,,,,,,,,,,,,,,,,,,,,,,,,,,,,,,,222.70284847899893,222.71408669099765,222.71408669099765,223.61994675800088,r,1.0,0.8948020659954636,,,,,sub-139,1,stroop_test,79.43101404067949,
,,,,26.0,2.0,2.0,,,,,,,,,,,,,blau,yellow,g,0.0,g,1.0,0.608504237003217,,,,,,,,,,2.0,2.0,26.0,7.0,223.633185890998,,,,,,,,,,,,,,,,,223.62033207200147,224.42603098599648,225.24411962900197,225.23019908899727,,,,,,,,,,,,,,,,,,,,,,,,,,,,,,,,,,225.23355310299667,225.24411962900197,225.24411962900197,225.869031647002,g,1.0,0.608504237003217,,,,,sub-139,1,stroop_test,79.43101404067949,
,,,,27.0,3.0,2.0,,,,,,,,,,,,,blau,red,r,0.0,g,0.0,0.6970235539993155,,,,,,,,,,2.0,3.0,27.0,4.0,225.881191788998,,,,,,,,,,,,,,,,,225.86940770399812,227.07510882199855,227.88340948899716,227.8726411960015,,,,,,,,,,,,,,,,,,,,,,,,,,,,,,,,,,227.87307093099665,227.88340948899716,227.88340948899716,228.58453209899744,g,0.0,0.6970235539993155,,,,,sub-139,1,stroop_test,79.43101404067949,
,,,,28.0,4.0,2.0,,,,,,,,,,,,,rot,blue,b,0.0,b,1.0,0.6335218189997249,,,,,,,,,,2.0,4.0,28.0,2.0,228.59566063300008,,,,,,,,,,,,,,,,,228.5848973300017,228.93982144800248,229.7471995099986,229.73375935699733,,,,,,,,,,,,,,,,,,,,,,,,,,,,,,,,,,229.73622243799764,229.7471995099986,229.7471995099986,230.38725738500216,b,1.0,0.6335218189997249,,,,,sub-139,1,stroop_test,79.43101404067949,
,,,,29.0,5.0,2.0,,,,,,,,,,,,,gelb,yellow,g,1.0,g,1.0,1.8523087080029652,,,,,,,,,,2.0,5.0,29.0,11.0,230.3999673340004,,,,,,,,,,,,,,,,,230.38768696199983,230.49681092800165,231.31808166200065,231.30197465400124,,,,,,,,,,,,,,,,,,,,,,,,,,,,,,,,,,231.30643082199825,231.31808166200065,231.31808166200065,233.1834556160029,g,1.0,1.8523087080029652,,,,,sub-139,1,stroop_test,79.43101404067949,
,,,,30.0,6.0,2.0,,,,,,,,,,,,,blau,blue,b,1.0,b,1.0,1.5693218989981688,,,,,,,,,,2.0,6.0,30.0,5.0,233.19859138399624,,,,,,,,,,,,,,,,,233.18414305899933,234.3961971969984,235.20119224899827,235.18655376199604,,,,,,,,,,,,,,,,,,,,,,,,,,,,,,,,,,235.1901957689988,235.20119224899827,235.20119224899827,236.7772410550024,b,1.0,1.5693218989981688,,,,,sub-139,1,stroop_test,79.43101404067949,
,,,,31.0,7.0,2.0,,,,,,,,,,,,,blau,blue,b,1.0,b,1.0,0.7078491990032489,,,,,,,,,,2.0,7.0,31.0,6.0,236.7898225530007,,,,,,,,,,,,,,,,,236.7776661109965,237.5827586250016,238.3832367089999,238.37243985300304,,,,,,,,,,,,,,,,,,,,,,,,,,,,,,,,,,238.3728640959962,238.3832367089999,238.3832367089999,239.10488779300067,b,1.0,0.7078491990032489,,,,,sub-139,1,stroop_test,79.43101404067949,
,,,,32.0,8.0,2.0,,,,,,,,,,,,,gelb,yellow,g,1.0,g,1.0,0.8039380519985571,,,,,,,,,,2.0,8.0,32.0,10.0,239.1180669969981,,,,,,,,,,,,,,,,,239.1055025789974,240.31683665899615,241.13103559499723,241.11779897799715,,,,,,,,,,,,,,,,,,,,,,,,,,,,,,,,,,241.12034662599763,241.13103559499723,241.13103559499723,241.95566189799865,g,1.0,0.8039380519985571,,,,,sub-139,1,stroop_test,79.43101404067949,
,,,,33.0,9.0,2.0,,,,,,,,,,,,,rot,red,r,1.0,r,1.0,1.1482060630005435,,,,,,,,,,2.0,9.0,33.0,1.0,241.96846682199973,,,,,,,,,,,,,,,,,241.9562585469976,242.7581044539984,243.56762767599864,243.55295589700108,,,,,,,,,,,,,,,,,,,,,,,,,,,,,,,,,,243.5563649359974,243.56762767599864,243.56762767599864,244.72494417100097,r,1.0,1.1482060630005435,,,,,sub-139,1,stroop_test,79.43101404067949,
,,,,34.0,10.0,2.0,,,,,,,,,,,,,gelb,red,r,0.0,r,1.0,0.9870239439987928,,,,,,,,,,2.0,10.0,34.0,8.0,244.739205453996,,,,,,,,,,,,,,,,,244.7253550910027,245.0804297720024,245.90067137200091,245.88523099599843,,,,,,,,,,,,,,,,,,,,,,,,,,,,,,,,,,245.88874221900187,245.90067137200091,245.90067137200091,246.9071427259987,r,1.0,0.9870239439987928,,,,,sub-139,1,stroop_test,79.43101404067949,
,,,,35.0,11.0,2.0,,,,,,,,,,,,,rot,yellow,g,0.0,g,1.0,0.7054231950023677,,,,,,,,,,2.0,11.0,35.0,3.0,246.91995977899933,,,,,,,,,,,,,,,,,246.9075752599965,248.10846864199996,248.92709332900267,248.91418452600192,,,,,,,,,,,,,,,,,,,,,,,,,,,,,,,,,,248.91678493899963,248.92709332900267,248.92709332900267,249.6374119559987,g,1.0,0.7054231950023677,,,,,sub-139,1,stroop_test,79.43101404067949,
,,,,36.0,0.0,3.0,,,,,,,,,,,,,rot,yellow,g,0.0,g,1.0,0.8996433499996783,,,,,,,,,,3.0,0.0,36.0,3.0,249.64991295099756,,,,,,,,,,,,,,,,,249.63780544199835,250.84295664099773,251.65914537900244,251.64792297199887,,,,,,,,,,,,,,,,,,,,,,,,,,,,,,,,,,251.64857039300117,251.65914537900244,251.65914537900244,252.5706870639988,g,1.0,0.8996433499996783,,,,,sub-139,1,stroop_test,79.43101404067949,
,,,,37.0,1.0,3.0,,,,,,,,,,,,,gelb,yellow,g,1.0,g,1.0,0.6220985149993794,,,,,,,,,,3.0,1.0,37.0,10.0,252.58244494399696,,,,,,,,,,,,,,,,,252.57105644299736,252.6734785849985,253.47981277899817,253.46581429700015,,,,,,,,,,,,,,,,,,,,,,,,,,,,,,,,,,253.46890389700275,253.47981277899817,253.47981277899817,254.1168317720003,g,1.0,0.6220985149993794,,,,,sub-139,1,stroop_test,79.43101404067949,
,,,,38.0,2.0,3.0,,,,,,,,,,,,,blau,yellow,g,0.0,g,1.0,0.487983733000874,,,,,,,,,,3.0,2.0,38.0,7.0,254.1284780939968,,,,,,,,,,,,,,,,,254.11721106500045,255.3248956910029,256.13551009599905,256.1194544820028,,,,,,,,,,,,,,,,,,,,,,,,,,,,,,,,,,256.123415246002,256.13551009599905,256.13551009599905,256.6275711089984,g,1.0,0.487983733000874,,,,,sub-139,1,stroop_test,79.43101404067949,
,,,,39.0,3.0,3.0,,,,,,,,,,,,,rot,red,r,1.0,r,1.0,1.2202700810012177,,,,,,,,,,3.0,3.0,39.0,1.0,256.6416910830012,,,,,,,,,,,,,,,,,256.6281678710002,256.99181467499875,257.80981343500025,257.7920377069968,,,,,,,,,,,,,,,,,,,,,,,,,,,,,,,,,,257.796878232999,257.80981343500025,257.80981343500025,259.0391932920029,r,1.0,1.2202700810012177,,,,,sub-139,1,stroop_test,79.43101404067949,
,,,,40.0,4.0,3.0,,,,,,,,,,,,,gelb,red,r,0.0,r,1.0,0.6471654829947511,,,,,,,,,,3.0,4.0,40.0,8.0,259.05360961699625,,,,,,,,,,,,,,,,,259.03961909699865,259.8484591230008,260.65262722999614,260.6391621270013,,,,,,,,,,,,,,,,,,,,,,,,,,,,,,,,,,260.6422148089987,260.65262722999614,260.65262722999614,261.3075109860001,r,1.0,0.6471654829947511,,,,,sub-139,1,stroop_test,79.43101404067949,
,,,,41.0,5.0,3.0,,,,,,,,,,,,,rot,blue,b,0.0,b,1.0,0.9661416169983568,,,,,,,,,,3.0,5.0,41.0,2.0,261.3195126389983,,,,,,,,,,,,,,,,,261.30794085499656,262.11480198500067,262.9299438579983,262.9157232630023,,,,,,,,,,,,,,,,,,,,,,,,,,,,,,,,,,262.9187150020007,262.9299438579983,262.9299438579983,263.904015893997,b,1.0,0.9661416169983568,,,,,sub-139,1,stroop_test,79.43101404067949,
,,,,42.0,6.0,3.0,,,,,,,,,,,,,gelb,blue,b,0.0,b,1.0,0.3921075120015302,,,,,,,,,,3.0,6.0,42.0,9.0,263.91765752300125,,,,,,,,,,,,,,,,,263.9045926280014,264.0157439199975,264.8291298300028,264.8159423260004,,,,,,,,,,,,,,,,,,,,,,,,,,,,,,,,,,264.8186216000031,264.8291298300028,264.8291298300028,265.23078380800143,b,1.0,0.3921075120015302,,,,,sub-139,1,stroop_test,79.43101404067949,
,,,,43.0,7.0,3.0,,,,,,,,,,,,,blau,red,r,0.0,r,1.0,1.4989604500005953,,,,,,,,,,3.0,7.0,43.0,4.0,265.2431165539965,,,,,,,,,,,,,,,,,265.2312113290027,265.3401157319968,266.1502392640032,266.1359496869991,,,,,,,,,,,,,,,,,,,,,,,,,,,,,,,,,,266.13887021900155,266.1502392640032,266.1502392640032,267.655940507997,r,1.0,1.4989604500005953,,,,,sub-139,1,stroop_test,79.43101404067949,
,,,,44.0,8.0,3.0,,,,,,,,,,,,,blau,blue,b,1.0,b,1.0,1.201528165001946,,,,,,,,,,3.0,8.0,44.0,6.0,267.66778620699915,,,,,,,,,,,,,,,,,267.6563976530015,268.85644999000215,269.6632297890028,269.6511851329997,,,,,,,,,,,,,,,,,,,,,,,,,,,,,,,,,,269.6518541069963,269.6632297890028,269.6632297890028,270.870220705001,b,1.0,1.201528165001946,,,,,sub-139,1,stroop_test,79.43101404067949,
,,,,45.0,9.0,3.0,,,,,,,,,,,,,blau,blue,b,1.0,b,1.0,0.4885745089995907,,,,,,,,,,3.0,9.0,45.0,5.0,270.8827378420028,,,,,,,,,,,,,,,,,270.8706182210008,270.9781773950017,271.7918242980013,271.78098560799845,,,,,,,,,,,,,,,,,,,,,,,,,,,,,,,,,,271.78150129900314,271.7918242980013,271.7918242980013,272.2860978460012,b,1.0,0.4885745089995907,,,,,sub-139,1,stroop_test,79.43101404067949,
,,,,46.0,10.0,3.0,,,,,,,,,,,,,gelb,yellow,g,1.0,g,1.0,0.623853949997283,,,,,,,,,,3.0,10.0,46.0,11.0,272.29805972900067,,,,,,,,,,,,,,,,,272.2864506409969,272.64529601400136,273.45830489200307,273.44203554999694,,,,,,,,,,,,,,,,,,,,,,,,,,,,,,,,,,273.4467098910027,273.45830489200307,273.45830489200307,274.09331888199813,g,1.0,0.623853949997283,,,,,sub-139,1,stroop_test,79.43101404067949,
,,,,47.0,11.0,3.0,,,,,,,,,,,,,rot,red,r,1.0,r,1.0,0.9921918779946282,,,,,,,,,,3.0,11.0,47.0,0.0,274.1080482649995,,,,,,,,,,,,,,,,,274.0937737189961,274.45337274699705,275.2643612269967,275.2504525390032,,,,,,,,,,,,,,,,,,,,,,,,,,,,,,,,,,275.2537981150017,275.2643612269967,275.2643612269967,276.2668725979965,r,1.0,0.9921918779946282,,,,,sub-139,1,stroop_test,79.43101404067949,
,,,,48.0,0.0,4.0,,,,,,,,,,,,,gelb,blue,b,0.0,b,1.0,0.6968756080023013,,,,,,,,,,4.0,0.0,48.0,9.0,276.2792834209977,,,,,,,,,,,,,,,,,276.2672418549992,277.48043888399843,278.2832757989963,278.26932739600306,,,,,,,,,,,,,,,,,,,,,,,,,,,,,,,,,,278.2725850830029,278.2832757989963,278.2832757989963,278.9880039659984,b,1.0,0.6968756080023013,,,,,sub-139,1,stroop_test,79.43101404067949,
,,,,49.0,1.0,4.0,,,,,,,,,,,,,blau,blue,b,1.0,b,1.0,0.4888356039955397,,,,,,,,,,4.0,1.0,49.0,5.0,279.00122115999693,,,,,,,,,,,,,,,,,278.98856050799805,279.34863820300234,280.16262516700226,280.1488243549975,,,,,,,,,,,,,,,,,,,,,,,,,,,,,,,,,,280.15165533399704,280.16262516700226,280.16262516700226,280.6687077009992,b,1.0,0.4888356039955397,,,,,sub-139,1,stroop_test,79.43101404067949,
,,,,50.0,2.0,4.0,,,,,,,,,,,,,rot,yellow,g,0.0,g,1.0,1.588663597998675,,,,,,,,,,4.0,2.0,50.0,3.0,280.681631270003,,,,,,,,,,,,,,,,,280.66909167999984,281.88018377700064,282.68872368099983,282.6739377190024,,,,,,,,,,,,,,,,,,,,,,,,,,,,,,,,,,282.6779475899966,282.68872368099983,282.68872368099983,284.2859650859973,g,1.0,1.588663597998675,,,,,sub-139,1,stroop_test,79.43101404067949,
,,,,51.0,3.0,4.0,,,,,,,,,,,,,blau,red,r,0.0,r,1.0,0.7665067050038488,,,,,,,,,,4.0,3.0,51.0,4.0,284.2988230799965,,,,,,,,,,,,,,,,,284.28637685500144,285.4943269849973,286.3164377249996,286.300436477999,,,,,,,,,,,,,,,,,,,,,,,,,,,,,,,,,,286.3045749800003,286.3164377249996,286.3164377249996,287.10186820200033,r,1.0,0.7665067050038488,,,,,sub-139,1,stroop_test,79.43101404067949,
,,,,52.0,4.0,4.0,,,,,,,,,,,,,rot,red,r,1.0,r,1.0,0.6396807679993799,,,,,,,,,,4.0,4.0,52.0,1.0,287.11571400299727,,,,,,,,,,,,,,,,,287.10246212100174,288.30874017000315,289.1198506849978,289.10623547199793,,,,,,,,,,,,,,,,,,,,,,,,,,,,,,,,,,289.1096268760012,289.1198506849978,289.1198506849978,289.7754292169993,r,1.0,0.6396807679993799,,,,,sub-139,1,stroop_test,79.43101404067949,
,,,,53.0,5.0,4.0,,,,,,,,,,,,,gelb,red,r,0.0,r,1.0,1.064049820000946,,,,,,,,,,4.0,5.0,53.0,8.0,289.7894658009973,,,,,,,,,,,,,,,,,289.7758003479976,290.58574264500203,291.3953489440028,291.381870170997,,,,,,,,,,,,,,,,,,,,,,,,,,,,,,,,,,291.3847765210012,291.3953489440028,291.3953489440028,292.471229625,r,1.0,1.064049820000946,,,,,sub-139,1,stroop_test,79.43101404067949,
,,,,54.0,6.0,4.0,,,,,,,,,,,,,rot,red,r,1.0,r,1.0,0.7669463269994594,,,,,,,,,,4.0,6.0,54.0,0.0,292.4839037619968,,,,,,,,,,,,,,,,,292.4716150940003,293.2780508119977,294.0870964220012,294.0709329960009,,,,,,,,,,,,,,,,,,,,,,,,,,,,,,,,,,294.07478300500225,294.0870964220012,294.0870964220012,294.863540241,r,1.0,0.7669463269994594,,,,,sub-139,1,stroop_test,79.43101404067949,
,,,,55.0,7.0,4.0,,,,,,,,,,,,,gelb,yellow,g,1.0,g,1.0,1.048837342998013,,,,,,,,,,4.0,7.0,55.0,11.0,294.8761581209983,,,,,,,,,,,,,,,,,294.864108486996,295.2238118719979,296.031947882002,296.0182089980008,,,,,,,,,,,,,,,,,,,,,,,,,,,,,,,,,,296.020805154003,296.031947882002,296.031947882002,297.08943993999856,g,1.0,1.048837342998013,,,,,sub-139,1,stroop_test,79.43101404067949,
,,,,56.0,8.0,4.0,,,,,,,,,,,,,gelb,yellow,g,1.0,g,1.0,0.5803377010015538,,,,,,,,,,4.0,8.0,56.0,10.0,297.1020414930026,,,,,,,,,,,,,,,,,297.089815608997,297.8910437789964,298.7053070350012,298.6924699099982,,,,,,,,,,,,,,,,,,,,,,,,,,,,,,,,,,298.69313784899714,298.7053070350012,298.7053070350012,299.2923189669964,g,1.0,0.5803377010015538,,,,,sub-139,1,stroop_test,79.43101404067949,
,,,,57.0,9.0,4.0,,,,,,,,,,,,,blau,blue,b,1.0,b,1.0,0.995902364003996,,,,,,,,,,4.0,9.0,57.0,6.0,299.30670606200147,,,,,,,,,,,,,,,,,299.2927139489984,299.3934208650025,300.209648914999,300.19664534200274,,,,,,,,,,,,,,,,,,,,,,,,,,,,,,,,,,300.19961841299664,300.209648914999,300.209648914999,301.2176205249998,b,1.0,0.995902364003996,,,,,sub-139,1,stroop_test,79.43101404067949,
,,,,58.0,10.0,4.0,,,,,,,,,,,,,blau,yellow,g,0.0,g,1.0,1.1668447780029965,,,,,,,,,,4.0,10.0,58.0,7.0,301.23041094699875,,,,,,,,,,,,,,,,,301.2180103339997,301.57584842199867,302.3796331179983,302.36897496200254,,,,,,,,,,,,,,,,,,,,,,,,,,,,,,,,,,302.3693470959988,302.3796331179983,302.3796331179983,303.5545285240005,g,1.0,1.1668447780029965,,,,,sub-139,1,stroop_test,79.43101404067949,
,,,,59.0,11.0,4.0,,,,,,,,,,,,,rot,blue,b,0.0,b,1.0,0.914675037995039,,,,,,,,,,4.0,11.0,59.0,2.0,303.5672747450008,,,,,,,,,,,,,,,,,303.5550004830002,304.3642867329981,305.18260030900274,305.16845835700224,,,,,,,,,,,,,,,,,,,,,,,,,,,,,,,,,,305.17149419499765,305.18260030900274,305.18260030900274,306.10633809700084,b,1.0,0.914675037995039,,,,,sub-139,1,stroop_test,79.43101404067949,
,,,,60.0,0.0,5.0,,,,,,,,,,,,,gelb,yellow,g,1.0,g,1.0,0.7740370050014462,,,,,,,,,,5.0,0.0,60.0,10.0,306.1190665260001,,,,,,,,,,,,,,,,,306.1068113759975,307.3131102319967,308.1181957910012,308.104162358999,,,,,,,,,,,,,,,,,,,,,,,,,,,,,,,,,,308.10724901499634,308.1181957910012,308.1181957910012,308.9033358509987,g,1.0,0.7740370050014462,,,,,sub-139,1,stroop_test,79.43101404067949,
,,,,61.0,1.0,5.0,,,,,,,,,,,,,gelb,yellow,g,1.0,g,1.0,0.5754131810026593,,,,,,,,,,5.0,1.0,61.0,11.0,308.9166523929962,,,,,,,,,,,,,,,,,308.90393019600015,309.0112483690027,309.82496874799835,309.8140550719981,,,,,,,,,,,,,,,,,,,,,,,,,,,,,,,,,,309.8144981709993,309.82496874799835,309.82496874799835,310.42234013300185,g,1.0,0.5754131810026593,,,,,sub-139,1,stroop_test,79.43101404067949,
,,,,62.0,2.0,5.0,,,,,,,,,,,,,blau,red,r,0.0,r,1.0,1.1664415029954398,,,,,,,,,,5.0,2.0,62.0,4.0,310.4319845729988,,,,,,,,,,,,,,,,,310.4227177330031,310.52471722500195,311.33407672299654,311.32002127899614,,,,,,,,,,,,,,,,,,,,,,,,,,,,,,,,,,311.32319815999654,311.33407672299654,311.33407672299654,312.5133456589974,r,1.0,1.1664415029954398,,,,,sub-139,1,stroop_test,79.43101404067949,
,,,,63.0,3.0,5.0,,,,,,,,,,,,,gelb,blue,b,0.0,b,1.0,0.5816198200045619,,,,,,,,,,5.0,3.0,63.0,9.0,312.5255287370019,,,,,,,,,,,,,,,,,312.51373073700233,312.6227807940013,313.432377637997,313.4188778550015,,,,,,,,,,,,,,,,,,,,,,,,,,,,,,,,,,313.4214876940023,313.432377637997,313.432377637997,314.0229274439989,b,1.0,0.5816198200045619,,,,,sub-139,1,stroop_test,79.43101404067949,
,,,,64.0,4.0,5.0,,,,,,,,,,,,,blau,blue,b,1.0,b,1.0,0.5434603260000586,,,,,,,,,,5.0,4.0,64.0,6.0,314.0357069859965,,,,,,,,,,,,,,,,,314.02339089199813,315.22555048300273,316.0368228669977,316.01969514699886,,,,,,,,,,,,,,,,,,,,,,,,,,,,,,,,,,316.0240489450007,316.0368228669977,316.0368228669977,316.5897536159973,b,1.0,0.5434603260000586,,,,,sub-139,1,stroop_test,79.43101404067949,
,,,,65.0,5.0,5.0,,,,,,,,,,,,,blau,blue,b,1.0,b,1.0,0.5592810890011606,,,,,,,,,,5.0,5.0,65.0,5.0,316.6042420829981,,,,,,,,,,,,,,,,,316.5903200449975,316.94127886200295,317.7603241199977,317.74812638000003,,,,,,,,,,,,,,,,,,,,,,,,,,,,,,,,,,317.7486902430028,317.7603241199977,317.7603241199977,318.3249531350011,b,1.0,0.5592810890011606,,,,,sub-139,1,stroop_test,79.43101404067949,
,,,,66.0,6.0,5.0,,,,,,,,,,,,,rot,blue,b,0.0,b,1.0,0.6271584420028375,,,,,,,,,,5.0,6.0,66.0,2.0,318.3377711389985,,,,,,,,,,,,,,,,,318.32547889000125,319.1452539590028,319.961853341003,319.9478213530019,,,,,,,,,,,,,,,,,,,,,,,,,,,,,,,,,,319.95120868900267,319.961853341003,319.961853341003,320.59416200000123,b,1.0,0.6271584420028375,,,,,sub-139,1,stroop_test,79.43101404067949,
,,,,67.0,7.0,5.0,,,,,,,,,,,,,rot,red,r,1.0,r,1.0,0.836184311992838,,,,,,,,,,5.0,7.0,67.0,1.0,320.6091193570028,,,,,,,,,,,,,,,,,320.5952107549965,321.7967564470018,322.59585198100103,322.5843485860023,,,,,,,,,,,,,,,,,,,,,,,,,,,,,,,,,,322.58494208200136,322.59585198100103,322.59585198100103,323.4381756630028,r,1.0,0.836184311992838,,,,,sub-139,1,stroop_test,79.43101404067949,
,,,,68.0,8.0,5.0,,,,,,,,,,,,,rot,red,r,1.0,r,1.0,0.4842983179987641,,,,,,,,,,5.0,8.0,68.0,0.0,323.4508225539976,,,,,,,,,,,,,,,,,323.4387494140028,324.2384174780018,325.0469399950016,325.0336415510028,,,,,,,,,,,,,,,,,,,,,,,,,,,,,,,,,,325.0341624150024,325.0469399950016,325.0469399950016,325.54120949599746,r,1.0,0.4842983179987641,,,,,sub-139,1,stroop_test,79.43101404067949,
,,,,69.0,9.0,5.0,,,,,,,,,,,,,blau,yellow,g,0.0,g,1.0,0.5365993379964493,,,,,,,,,,5.0,9.0,69.0,7.0,325.55520898300165,,,,,,,,,,,,,,,,,325.5416014340008,325.6498635210009,326.463666155003,326.4496755970031,,,,,,,,,,,,,,,,,,,,,,,,,,,,,,,,,,326.4527250550018,326.463666155003,326.463666155003,327.0143887930026,g,1.0,0.5365993379964493,,,,,sub-139,1,stroop_test,79.43101404067949,
,,,,70.0,10.0,5.0,,,,,,,,,,,,,rot,yellow,g,0.0,g,1.0,0.3778548889968078,,,,,,,,,,5.0,10.0,70.0,3.0,327.02569659300207,,,,,,,,,,,,,,,,,327.0147397190012,327.8252746069993,328.6448661530012,328.6315096899998,,,,,,,,,,,,,,,,,,,,,,,,,,,,,,,,,,328.63431941300223,328.6448661530012,328.6448661530012,329.0308683280018,g,1.0,0.3778548889968078,,,,,sub-139,1,stroop_test,79.43101404067949,
,,,,71.0,11.0,5.0,,,,,,,,,,,,,gelb,red,r,0.0,r,1.0,0.6802394449987332,,,,,,,,,,5.0,11.0,71.0,8.0,329.0431814100011,,,,,,,,,,,,,,,,,329.03128229999857,329.3914594489979,330.1982757939986,330.18462680200173,,,,,,,,,,,,,,,,,,,,,,,,,,,,,,,,,,330.1874456000005,330.1982757939986,330.1982757939986,330.8830015060012,r,1.0,0.6802394449987332,,,,,sub-139,1,stroop_test,79.43101404067949,
,,,,72.0,0.0,6.0,,,,,,,,,,,,,gelb,blue,b,0.0,b,1.0,0.597777707997011,,,,,,,,,,6.0,0.0,72.0,9.0,330.89524030600296,,,,,,,,,,,,,,,,,330.883360728003,330.9915650109979,331.79936202099634,331.7881907819974,,,,,,,,,,,,,,,,,,,,,,,,,,,,,,,,,,331.7886214530008,331.79936202099634,331.79936202099634,332.40090504100226,b,1.0,0.597777707997011,,,,,sub-139,1,stroop_test,79.43101404067949,
,,,,73.0,1.0,6.0,,,,,,,,,,,,,gelb,red,r,0.0,r,1.0,1.305396630996256,,,,,,,,,,6.0,1.0,73.0,8.0,332.4155100499993,,,,,,,,,,,,,,,,,332.401466602998,333.2080542920012,334.0106041550025,333.9997137390019,,,,,,,,,,,,,,,,,,,,,,,,,,,,,,,,,,334.00016082599905,334.0106041550025,334.0106041550025,335.32665159599856,r,1.0,1.305396630996256,,,,,sub-139,1,stroop_test,79.43101404067949,
,,,,74.0,2.0,6.0,,,,,,,,,,,,,blau,yellow,g,0.0,g,1.0,0.5555120389981312,,,,,,,,,,6.0,2.0,74.0,7.0,335.34034480099945,,,,,,,,,,,,,,,,,335.32714704299724,335.4417096620018,336.2477383959995,336.2331968549988,,,,,,,,,,,,,,,,,,,,,,,,,,,,,,,,,,336.2362017859996,336.2477383959995,336.2477383959995,336.8201876269959,g,1.0,0.5555120389981312,,,,,sub-139,1,stroop_test,79.43101404067949,
,,,,75.0,3.0,6.0,,,,,,,,,,,,,rot,blue,b,0.0,b,1.0,0.7103100049935165,,,,,,,,,,6.0,3.0,75.0,2.0,336.83331441700284,,,,,,,,,,,,,,,,,336.82060402999923,337.6259161179987,338.43533184199623,338.4212497709959,,,,,,,,,,,,,,,,,,,,,,,,,,,,,,,,,,338.42459688300005,338.43533184199623,338.43533184199623,339.1524801330015,b,1.0,0.7103100049935165,,,,,sub-139,1,stroop_test,79.43101404067949,
,,,,76.0,4.0,6.0,,,,,,,,,,,,,blau,blue,b,1.0,b,1.0,0.4513447610006551,,,,,,,,,,6.0,4.0,76.0,6.0,339.16600266099704,,,,,,,,,,,,,,,,,339.1530593740026,339.505283024002,340.31185240599734,340.29796990100294,,,,,,,,,,,,,,,,,,,,,,,,,,,,,,,,,,340.30089994199807,340.31185240599734,340.31185240599734,340.7685397519963,b,1.0,0.4513447610006551,,,,,sub-139,1,stroop_test,79.43101404067949,
,,,,77.0,5.0,6.0,,,,,,,,,,,,,gelb,yellow,g,1.0,g,1.0,0.5129727089952212,,,,,,,,,,6.0,5.0,77.0,11.0,340.7809415669981,,,,,,,,,,,,,,,,,340.76890567199735,341.12114422000013,341.9331467439988,341.9175696730017,,,,,,,,,,,,,,,,,,,,,,,,,,,,,,,,,,341.9219388479978,341.9331467439988,341.9331467439988,342.4498205109994,g,1.0,0.5129727089952212,,,,,sub-139,1,stroop_test,79.43101404067949,
,,,,78.0,6.0,6.0,,,,,,,,,,,,,blau,blue,b,1.0,b,1.0,0.8764154469972709,,,,,,,,,,6.0,6.0,78.0,5.0,342.4637535139991,,,,,,,,,,,,,,,,,342.45045387499704,343.2583635889969,344.073762451997,344.05863068500184,,,,,,,,,,,,,,,,,,,,,,,,,,,,,,,,,,344.0632858099998,344.073762451997,344.073762451997,344.9584277199974,b,1.0,0.8764154469972709,,,,,sub-139,1,stroop_test,79.43101404067949,
,,,,79.0,7.0,6.0,,,,,,,,,,,,,gelb,yellow,g,1.0,g,1.0,0.8879679269957705,,,,,,,,,,6.0,7.0,79.0,10.0,344.97033802900114,,,,,,,,,,,,,,,,,344.9588560589982,346.171768168002,346.98353310800303,346.9692991990014,,,,,,,,,,,,,,,,,,,,,,,,,,,,,,,,,,346.9722085969988,346.98353310800303,346.98353310800303,347.8829610399989,g,1.0,0.8879679269957705,,,,,sub-139,1,stroop_test,79.43101404067949,
,,,,80.0,8.0,6.0,,,,,,,,,,,,,blau,red,r,0.0,r,1.0,1.62137357499887,,,,,,,,,,6.0,8.0,80.0,4.0,347.89523657300015,,,,,,,,,,,,,,,,,347.8833264700006,348.24298701099906,349.0480014049972,349.0339900319959,,,,,,,,,,,,,,,,,,,,,,,,,,,,,,,,,,349.0367688490005,349.0480014049972,349.0480014049972,350.6801132769979,r,1.0,1.62137357499887,,,,,sub-139,1,stroop_test,79.43101404067949,
,,,,81.0,9.0,6.0,,,,,,,,,,,,,rot,red,r,1.0,r,1.0,0.5779003189963987,,,,,,,,,,6.0,9.0,81.0,0.0,350.69244785099727,,,,,,,,,,,,,,,,,350.6805579810025,350.79106950999994,351.59488941600284,351.5812636769988,,,,,,,,,,,,,,,,,,,,,,,,,,,,,,,,,,351.5839755699999,351.59488941600284,351.59488941600284,352.1870637690008,r,1.0,0.5779003189963987,,,,,sub-139,1,stroop_test,79.43101404067949,
,,,,82.0,10.0,6.0,,,,,,,,,,,,,rot,yellow,g,0.0,g,1.0,0.5406358899999759,,,,,,,,,,6.0,10.0,82.0,3.0,352.1994177379965,,,,,,,,,,,,,,,,,352.1874378770008,352.98489848199824,353.7897006569983,353.7793575579999,,,,,,,,,,,,,,,,,,,,,,,,,,,,,,,,,,353.779774001996,353.7897006569983,353.7897006569983,354.33600289999595,g,1.0,0.5406358899999759,,,,,sub-139,1,stroop_test,79.43101404067949,
,,,,83.0,11.0,6.0,,,,,,,,,,,,,rot,red,r,1.0,r,1.0,1.1138419740018437,,,,,,,,,,6.0,11.0,83.0,1.0,354.34925233099784,,,,,,,,,,,,,,,,,354.3363951179999,355.1387304559976,355.9401322979975,355.9299486149976,,,,,,,,,,,,,,,,,,,,,,,,,,,,,,,,,,355.93038064100256,355.9401322979975,355.9401322979975,357.0586950700017,r,1.0,1.1138419740018437,,,,,sub-139,1,stroop_test,79.43101404067949,
,,,,84.0,0.0,7.0,,,,,,,,,,,,,gelb,yellow,g,1.0,g,1.0,0.7422231550008291,,,,,,,,,,7.0,0.0,84.0,10.0,357.0714344770022,,,,,,,,,,,,,,,,,357.0590865139966,357.16979408000043,357.9759002249993,357.962358124998,,,,,,,,,,,,,,,,,,,,,,,,,,,,,,,,,,357.96489882499736,357.9759002249993,357.9759002249993,358.7243775550014,g,1.0,0.7422231550008291,,,,,sub-139,1,stroop_test,79.43101404067949,
,,,,85.0,1.0,7.0,,,,,,,,,,,,,gelb,red,r,0.0,b,0.0,0.6794767759929528,,,,,,,,,,7.0,1.0,85.0,8.0,358.737206703001,,,,,,,,,,,,,,,,,358.7249148129995,358.83736434300226,359.6524254249962,359.64055667499633,,,,,,,,,,,,,,,,,,,,,,,,,,,,,,,,,,359.6410901909985,359.6524254249962,359.6524254249962,360.3397525990004,b,0.0,0.6794767759929528,,,,,sub-139,1,stroop_test,79.43101404067949,
,,,,86.0,2.0,7.0,,,,,,,,,,,,,gelb,yellow,g,1.0,g,1.0,0.853370281001844,,,,,,,,,,7.0,2.0,86.0,11.0,360.3531884920012,,,,,,,,,,,,,,,,,360.34015720299794,360.4519371630013,361.26743328500015,361.25655368799926,,,,,,,,,,,,,,,,,,,,,,,,,,,,,,,,,,361.2570690479988,361.26743328500015,361.26743328500015,362.1242636489988,g,1.0,0.853370281001844,,,,,sub-139,1,stroop_test,79.43101404067949,
,,,,87.0,3.0,7.0,,,,,,,,,,,,,blau,blue,b,1.0,b,1.0,0.7563715029973537,,,,,,,,,,7.0,3.0,87.0,5.0,362.1375145130005,,,,,,,,,,,,,,,,,362.1248274999962,363.3357848329979,364.1433291040012,364.1292452470007,,,,,,,,,,,,,,,,,,,,,,,,,,,,,,,,,,364.132451204001,364.1433291040012,364.1433291040012,364.90317843999946,b,1.0,0.7563715029973537,,,,,sub-139,1,stroop_test,79.43101404067949,
,,,,88.0,4.0,7.0,,,,,,,,,,,,,blau,red,r,0.0,r,1.0,0.6233026479967521,,,,,,,,,,7.0,4.0,88.0,4.0,364.9282364480023,,,,,,,,,,,,,,,,,364.9037403149996,365.00998380500096,365.8161825979987,365.8027340879999,,,,,,,,,,,,,,,,,,,,,,,,,,,,,,,,,,365.8034255609964,365.8161825979987,365.8161825979987,366.4552277850016,r,1.0,0.6233026479967521,,,,,sub-139,1,stroop_test,79.43101404067949,
,,,,89.0,5.0,7.0,,,,,,,,,,,,,rot,yellow,g,0.0,g,1.0,0.4814985650009475,,,,,,,,,,7.0,5.0,89.0,3.0,366.4676304609966,,,,,,,,,,,,,,,,,366.4557952079995,367.2693057110009,368.080583474999,368.0663005399984,,,,,,,,,,,,,,,,,,,,,,,,,,,,,,,,,,368.06920402000105,368.080583474999,368.080583474999,368.56848485500086,g,1.0,0.4814985650009475,,,,,sub-139,1,stroop_test,79.43101404067949,
,,,,90.0,6.0,7.0,,,,,,,,,,,,,gelb,blue,b,0.0,b,1.0,1.0822343600011664,,,,,,,,,,7.0,6.0,90.0,9.0,368.5813727439963,,,,,,,,,,,,,,,,,368.5689832749995,369.769725887003,370.5788564620016,370.56509019299847,,,,,,,,,,,,,,,,,,,,,,,,,,,,,,,,,,370.5680472050008,370.5788564620016,370.5788564620016,371.6836323600001,b,1.0,1.0822343600011664,,,,,sub-139,1,stroop_test,79.43101404067949,
,,,,91.0,7.0,7.0,,,,,,,,,,,,,blau,yellow,g,0.0,g,1.0,0.5938258699970902,,,,,,,,,,7.0,7.0,91.0,7.0,371.6936079340012,,,,,,,,,,,,,,,,,371.68400150499656,372.4893435519989,373.3026641909965,373.28880305700295,,,,,,,,,,,,,,,,,,,,,,,,,,,,,,,,,,373.2916269729976,373.3026641909965,373.3026641909965,373.9023654709963,g,1.0,0.5938258699970902,,,,,sub-139,1,stroop_test,79.43101404067949,
,,,,92.0,8.0,7.0,,,,,,,,,,,,,rot,red,r,1.0,r,1.0,0.6968149719978101,,,,,,,,,,7.0,8.0,92.0,1.0,373.9161938690013,,,,,,,,,,,,,,,,,373.9031111189979,375.108297822997,375.9168360140029,375.9015087559965,,,,,,,,,,,,,,,,,,,,,,,,,,,,,,,,,,375.90576759300166,375.9168360140029,375.9168360140029,376.62282483500167,r,1.0,0.6968149719978101,,,,,sub-139,1,stroop_test,79.43101404067949,
,,,,93.0,9.0,7.0,,,,,,,,,,,,,rot,red,r,1.0,r,1.0,0.4710651890054578,,,,,,,,,,7.0,9.0,93.0,0.0,376.6359340159979,,,,,,,,,,,,,,,,,376.6232258579985,377.4305627700014,378.2417289809964,378.2303834429986,,,,,,,,,,,,,,,,,,,,,,,,,,,,,,,,,,378.2308471450015,378.2417289809964,378.2417289809964,378.7204251259973,r,1.0,0.4710651890054578,,,,,sub-139,1,stroop_test,79.43101404067949,
,,,,94.0,10.0,7.0,,,,,,,,,,,,,blau,blue,b,1.0,b,1.0,0.8445659010030795,,,,,,,,,,7.0,10.0,94.0,6.0,378.7334421799969,,,,,,,,,,,,,,,,,378.7209074709972,379.0738295440024,379.8802277110008,379.8664279509976,,,,,,,,,,,,,,,,,,,,,,,,,,,,,,,,,,379.8691527650008,379.8802277110008,379.8802277110008,380.7350627560008,b,1.0,0.8445659010030795,,,,,sub-139,1,stroop_test,79.43101404067949,
,,,,95.0,11.0,7.0,,,,,,,,,,,,,rot,blue,b,0.0,b,1.0,0.7833344330065302,,,,,,,,,,7.0,11.0,95.0,2.0,380.748804447001,,,,,,,,,,,,,,,,,380.73564711699873,381.9414870940018,382.7569891230014,382.7418148200013,,,,,,,,,,,,,,,,,,,,,,,,,,,,,,,,,,382.7463551420005,382.7569891230014,382.7569891230014,383.550170909999,b,1.0,0.7833344330065302,,,,,sub-139,1,stroop_test,79.43101404067949,
,,,,96.0,0.0,8.0,,,,,,,,,,,,,gelb,yellow,g,1.0,g,1.0,0.8032503879949218,,,,,,,,,,8.0,0.0,96.0,11.0,383.5635569419974,,,,,,,,,,,,,,,,,383.5506947230024,383.9103085289971,384.72438732299634,384.7111940850009,,,,,,,,,,,,,,,,,,,,,,,,,,,,,,,,,,384.7139237680021,384.72438732299634,384.72438732299634,385.5332798349991,g,1.0,0.8032503879949218,,,,,sub-139,1,stroop_test,79.43101404067949,
,,,,97.0,1.0,8.0,,,,,,,,,,,,,gelb,red,r,0.0,r,1.0,1.602036747004604,,,,,,,,,,8.0,1.0,97.0,8.0,385.5455685299967,,,,,,,,,,,,,,,,,385.5336444700006,385.64752164999663,386.447242684997,386.4361576090014,,,,,,,,,,,,,,,,,,,,,,,,,,,,,,,,,,386.4365788029973,386.447242684997,386.447242684997,388.0662998600019,r,1.0,1.602036747004604,,,,,sub-139,1,stroop_test,79.43101404067949,
,,,,98.0,2.0,8.0,,,,,,,,,,,,,gelb,blue,b,0.0,b,1.0,0.5855275259964401,,,,,,,,,,8.0,2.0,98.0,9.0,388.078478591,,,,,,,,,,,,,,,,,388.06672751699807,388.8760979229992,389.6773421559992,389.6659119499964,,,,,,,,,,,,,,,,,,,,,,,,,,,,,,,,,,389.6663331730015,389.6773421559992,389.6773421559992,390.2688666000031,b,1.0,0.5855275259964401,,,,,sub-139,1,stroop_test,79.43101404067949,
,,,,99.0,3.0,8.0,,,,,,,,,,,,,blau,blue,b,1.0,b,1.0,0.8799465540068923,,,,,,,,,,8.0,3.0,99.0,6.0,390.28167306999967,,,,,,,,,,,,,,,,,390.26932264900097,390.3784674760027,391.18195442100114,391.1687420800008,,,,,,,,,,,,,,,,,,,,,,,,,,,,,,,,,,391.1714272910031,391.18195442100114,391.18195442100114,392.0692774190029,b,1.0,0.8799465540068923,,,,,sub-139,1,stroop_test,79.43101404067949,
,,,,100.0,4.0,8.0,,,,,,,,,,,,,rot,red,r,1.0,r,1.0,1.5679632699975627,,,,,,,,,,8.0,4.0,100.0,0.0,392.0818917840006,,,,,,,,,,,,,,,,,392.0696570919972,392.1756502099961,392.99027027600096,392.9749678130029,,,,,,,,,,,,,,,,,,,,,,,,,,,,,,,,,,392.9796597730019,392.99027027600096,392.99027027600096,394.5688756029994,r,1.0,1.5679632699975627,,,,,sub-139,1,stroop_test,79.43101404067949,
,,,,101.0,5.0,8.0,,,,,,,,,,,,,blau,blue,b,1.0,b,1.0,2.017705860002025,,,,,,,,,,8.0,5.0,101.0,5.0,394.58192133899865,,,,,,,,,,,,,,,,,394.5692519239965,394.9213846979983,395.72610330399766,395.7120301320029,,,,,,,,,,,,,,,,,,,,,,,,,,,,,,,,,,395.7147676780005,395.72610330399766,395.72610330399766,397.7469183240028,b,1.0,2.017705860002025,,,,,sub-139,1,stroop_test,79.43101404067949,
,,,,102.0,6.0,8.0,,,,,,,,,,,,,rot,yellow,g,0.0,g,1.0,0.5581306099993526,,,,,,,,,,8.0,6.0,102.0,3.0,397.7611034349975,,,,,,,,,,,,,,,,,397.74753069200233,398.0979033170006,398.9122716080019,398.8967198419996,,,,,,,,,,,,,,,,,,,,,,,,,,,,,,,,,,398.9003262979968,398.9122716080019,398.9122716080019,399.4769981970021,g,1.0,0.5581306099993526,,,,,sub-139,1,stroop_test,79.43101404067949,
,,,,103.0,7.0,8.0,,,,,,,,,,,,,gelb,yellow,g,1.0,g,1.0,0.5227534869991359,,,,,,,,,,8.0,7.0,103.0,10.0,399.48972862200026,,,,,,,,,,,,,,,,,399.4776033719973,400.290897275001,401.09601387399744,401.08250933999807,,,,,,,,,,,,,,,,,,,,,,,,,,,,,,,,,,401.0853180569975,401.09601387399744,401.09601387399744,401.6221386550024,g,1.0,0.5227534869991359,,,,,sub-139,1,stroop_test,79.43101404067949,
,,,,104.0,8.0,8.0,,,,,,,,,,,,,blau,red,r,0.0,b,0.0,0.8192226619939902,,,,,,,,,,8.0,8.0,104.0,4.0,401.6348176140018,,,,,,,,,,,,,,,,,401.6225280899962,402.8233334449978,403.62760735399934,403.6141532030015,,,,,,,,,,,,,,,,,,,,,,,,,,,,,,,,,,403.6169124790031,403.62760735399934,403.62760735399934,404.4557419880002,b,0.0,0.8192226619939902,,,,,sub-139,1,stroop_test,79.43101404067949,
,,,,105.0,9.0,8.0,,,,,,,,,,,,,blau,yellow,g,0.0,g,1.0,0.5986999160013511,,,,,,,,,,8.0,9.0,105.0,7.0,404.4682690699992,,,,,,,,,,,,,,,,,404.4563422200008,405.677092801001,406.4913900219981,406.4805025690002,,,,,,,,,,,,,,,,,,,,,,,,,,,,,,,,,,406.4811327299976,406.4913900219981,406.4913900219981,407.09846250499686,g,1.0,0.5986999160013511,,,,,sub-139,1,stroop_test,79.43101404067949,
,,,,106.0,10.0,8.0,,,,,,,,,,,,,rot,blue,b,0.0,b,1.0,1.230838965995645,,,,,,,,,,8.0,10.0,106.0,2.0,407.1117968690014,,,,,,,,,,,,,,,,,407.0990482709967,407.4585046220018,408.2721761159992,408.258221115997,,,,,,,,,,,,,,,,,,,,,,,,,,,,,,,,,,408.2620297429967,408.2721761159992,408.2721761159992,409.5066359389966,b,1.0,1.230838965995645,,,,,sub-139,1,stroop_test,79.43101404067949,
,,,,107.0,11.0,8.0,,,,,,,,,,,,,rot,red,r,1.0,r,1.0,1.2594311079956242,,,,,,,,,,8.0,11.0,107.0,1.0,409.51932483299606,,,,,,,,,,,,,,,,,409.5070226899989,409.8678968750028,410.6772617059978,410.6662805279993,,,,,,,,,,,,,,,,,,,,,,,,,,,,,,,,,,410.6667545579985,410.6772617059978,410.6772617059978,411.94799659099954,r,1.0,1.2594311079956242,,,,,sub-139,1,stroop_test,79.43101404067949,
,,,,108.0,0.0,9.0,,,,,,,,,,,,,rot,yellow,g,0.0,g,1.0,1.3531480279998505,,,,,,,,,,9.0,0.0,108.0,3.0,411.9610421089965,,,,,,,,,,,,,,,,,411.948574809001,412.7457791369961,413.5610545539967,413.5501969659963,,,,,,,,,,,,,,,,,,,,,,,,,,,,,,,,,,413.5506538720001,413.5610545539967,413.5610545539967,414.91849576000095,g,1.0,1.3531480279998505,,,,,sub-139,1,stroop_test,79.43101404067949,
,,,,109.0,1.0,9.0,,,,,,,,,,,,,blau,blue,b,1.0,b,1.0,0.5077018400043016,,,,,,,,,,9.0,1.0,109.0,6.0,414.9306245069965,,,,,,,,,,,,,,,,,414.9189476190004,415.0232167040013,415.8381691309987,415.82306096699904,,,,,,,,,,,,,,,,,,,,,,,,,,,,,,,,,,415.8272131220001,415.8381691309987,415.8381691309987,416.3515579079976,b,1.0,0.5077018400043016,,,,,sub-139,1,stroop_test,79.43101404067949,
,,,,110.0,2.0,9.0,,,,,,,,,,,,,gelb,yellow,g,1.0,g,1.0,0.7243027489967062,,,,,,,,,,9.0,2.0,110.0,11.0,416.36542246500176,,,,,,,,,,,,,,,,,416.35222855600296,417.1514725829984,417.9574699529985,417.9416605160004,,,,,,,,,,,,,,,,,,,,,,,,,,,,,,,,,,417.9464568190015,417.9574699529985,417.9574699529985,418.7025606079988,g,1.0,0.7243027489967062,,,,,sub-139,1,stroop_test,79.43101404067949,
,,,,111.0,3.0,9.0,,,,,,,,,,,,,gelb,yellow,g,1.0,g,1.0,0.5773257990003913,,,,,,,,,,9.0,3.0,111.0,10.0,418.7272132049984,,,,,,,,,,,,,,,,,418.7030719190007,419.0564616949996,419.8710235879989,419.8593936559992,,,,,,,,,,,,,,,,,,,,,,,,,,,,,,,,,,419.8606234979961,419.8710235879989,419.8710235879989,420.4541804909968,g,1.0,0.5773257990003913,,,,,sub-139,1,stroop_test,79.43101404067949,
,,,,112.0,4.0,9.0,,,,,,,,,,,,,rot,red,r,1.0,r,1.0,1.5265190599966445,,,,,,,,,,9.0,4.0,112.0,0.0,420.4673378459993,,,,,,,,,,,,,,,,,420.45474328099954,421.2592679320005,422.06732577100047,422.05356677300006,,,,,,,,,,,,,,,,,,,,,,,,,,,,,,,,,,422.0567654830011,422.06732577100047,422.06732577100047,423.6005612469962,r,1.0,1.5265190599966445,,,,,sub-139,1,stroop_test,79.43101404067949,
,,,,113.0,5.0,9.0,,,,,,,,,,,,,gelb,red,r,0.0,r,1.0,0.6263821199972881,,,,,,,,,,9.0,5.0,113.0,8.0,423.6146139869961,,,,,,,,,,,,,,,,,423.60113350799656,424.8006707910026,425.6060600609999,425.5901820150029,,,,,,,,,,,,,,,,,,,,,,,,,,,,,,,,,,425.5949314140016,425.6060600609999,425.6060600609999,426.2515873840021,r,1.0,0.6263821199972881,,,,,sub-139,1,stroop_test,79.43101404067949,
,,,,114.0,6.0,9.0,,,,,,,,,,,,,blau,blue,b,1.0,b,1.0,0.5913835690007545,,,,,,,,,,9.0,6.0,114.0,5.0,426.26420936799695,,,,,,,,,,,,,,,,,426.2521626660018,427.4648435880008,428.28066016700177,428.266361602,,,,,,,,,,,,,,,,,,,,,,,,,,,,,,,,,,428.269725320999,428.28066016700177,428.28066016700177,428.8819995270024,b,1.0,0.5913835690007545,,,,,sub-139,1,stroop_test,79.43101404067949,
,,,,115.0,7.0,9.0,,,,,,,,,,,,,gelb,blue,b,0.0,b,1.0,1.1161269010044634,,,,,,,,,,9.0,7.0,115.0,9.0,428.8948349450002,,,,,,,,,,,,,,,,,428.88243559499824,430.092061288,430.9077904680016,430.8906323039992,,,,,,,,,,,,,,,,,,,,,,,,,,,,,,,,,,430.8954696630026,430.9077904680016,430.9077904680016,432.0351003809992,b,1.0,1.1161269010044634,,,,,sub-139,1,stroop_test,79.43101404067949,
,,,,116.0,8.0,9.0,,,,,,,,,,,,,blau,red,r,0.0,r,1.0,1.0582486589992186,,,,,,,,,,9.0,8.0,116.0,4.0,432.047764752002,,,,,,,,,,,,,,,,,432.0355692610028,432.143371102,432.953408000998,432.9381005280011,,,,,,,,,,,,,,,,,,,,,,,,,,,,,,,,,,432.9412739719992,432.953408000998,432.953408000998,434.0185490520016,r,1.0,1.0582486589992186,,,,,sub-139,1,stroop_test,79.43101404067949,
,,,,117.0,9.0,9.0,,,,,,,,,,,,,rot,blue,b,0.0,b,1.0,2.6391245119957603,,,,,,,,,,9.0,9.0,117.0,2.0,434.0313276809975,,,,,,,,,,,,,,,,,434.01902586100186,434.8205238299997,435.62490708699625,435.61192377300176,,,,,,,,,,,,,,,,,,,,,,,,,,,,,,,,,,435.6146681179962,435.62490708699625,435.62490708699625,438.267946852,b,1.0,2.6391245119957603,,,,,sub-139,1,stroop_test,79.43101404067949,
,,,,118.0,10.0,9.0,,,,,,,,,,,,,blau,yellow,g,0.0,g,1.0,0.6428362450023997,,,,,,,,,,9.0,10.0,118.0,7.0,438.2809325190028,,,,,,,,,,,,,,,,,438.2684287520024,438.3803122030004,439.1956649909989,439.1824381490005,,,,,,,,,,,,,,,,,,,,,,,,,,,,,,,,,,439.1850679499985,439.1956649909989,439.1956649909989,439.8518215849981,g,1.0,0.6428362450023997,,,,,sub-139,1,stroop_test,79.43101404067949,
,,,,119.0,11.0,9.0,,,,,,,,,,,,,rot,red,r,1.0,r,1.0,1.0002957500037155,,,,,,,,,,9.0,11.0,119.0,1.0,439.8652922879992,,,,,,,,,,,,,,,,,439.8523673189993,441.0592133579994,441.8745549879968,441.8622072290018,,,,,,,,,,,,,,,,,,,,,,,,,,,,,,,,,,441.8646393119998,441.8745549879968,441.8745549879968,442.8950238010002,r,1.0,1.0002957500037155,,,,,sub-139,1,stroop_test,79.43101404067949,
,,,,,,,,,,,,,,,,,,,,,,,,,,,,,,,,,,,,,,,,,,,,,,,,,,,,,,,,,,,,,,,,,,,,,,,,,,,,,,,,,,,,,,,,,,,,,,,,,,,,,442.8953153580005,442.9098824059984,447.9014940060006,sub-139,1,stroop_test,79.43101404067949,
