direction,corrAns,thisN,thisTrialN,thisRepN,respDots.keys,respDots.corr,respDots.rt,respDots.duration,randomInstr,respRandomInstr.keys,respRandomInstr.rt,respRandomInstr.duration,practice_trials.thisRepN,practice_trials.thisTrialN,practice_trials.thisN,practice_trials.thisIndex,instr_trials.thisRepN,instr_trials.thisTrialN,instr_trials.thisN,instr_trials.thisIndex,test_trials.thisRepN,test_trials.thisTrialN,test_trials.thisN,test_trials.thisIndex,thisRow.t,notes,general_instruction.started,textGeneralInstr.started,respGeneralInstr.started,general_instruction.stopped,respGeneralInstr.keys,respGeneralInstr.rt,respGeneralInstr.duration,ITI.started,fixcross.started,fixcross.stopped,ITI.stopped,dots.started,backgroundDots.started,stimulusDots.started,respDots.started,stimulusDots.stopped,dots.stopped,practice_trials.respDots.keys,practice_trials.respDots.corr,practice_trials.respDots.rt,practice_trials.respDots.duration,feedback.started,textFeedback.started,feedback.stopped,textFeedback.stopped,info.started,textInfo.started,keyRespInfo.started,info.stopped,keyRespInfo.keys,keyRespInfo.rt,keyRespInfo.duration,test_instruction.started,textTestInstr.started,respTestInstr.started,test_instruction.stopped,respTestInstr.keys,respTestInstr.rt,respTestInstr.duration,random_instruction.started,textRandomInstr.started,respRandomInstr.started,random_instruction.stopped,instr_trials.respRandomInstr.keys,instr_trials.respRandomInstr.rt,instr_trials.respRandomInstr.duration,test_trials.respDots.keys,test_trials.respDots.corr,test_trials.respDots.rt,test_trials.respDots.duration,goodbye.started,textGoodbye.started,goodbye.stopped,participant,session,expName,frameRate,Unnamed: 87
,,,,,,,,,,,,,,,,,,,,,,,,,,,0.0024411000777035,0.0078905000118538,0.0078905000118538,76.61173820006661,space,76.58442710002419,,,,,,,,,,,,,,,,,,,,,,,,,,,,,,,,,,,,,,,,,,,,,,,,sub-160,1,random_dot,60.9884024167268,
right,right,0.0,0.0,0.0,right,1.0,15.045580200036056,,,,,,0.0,0.0,0.0,1.0,,,,,,,,,76.6635086000897,,,,,,,,,76.65532360004727,77.42092210007831,78.23619269998744,78.205306100077,78.20598080009222,78.23619269998744,78.23619269998744,78.23619269998744,83.21089840005152,93.28518560004886,right,1.0,15.045580200036056,,93.3140159000177,93.32532240008004,93.79936629999428,,,,,,,,,,,,,,,,,,,,,,,,,,,,,,sub-160,1,random_dot,60.9884024167268,
left,left,1.0,1.0,0.0,left,1.0,4.329954399960116,,,,,,0.0,1.0,1.0,0.0,,,,,,,,,93.81567240005823,,,,,,,,,93.80004350002856,94.14918629999738,94.9521914999932,94.93357600003948,94.93432120000944,94.9521914999932,94.9521914999932,94.9521914999932,,99.28970349999145,left,1.0,4.329954399960116,,99.2899564000545,99.30266390007456,99.78698430000804,99.80299320002086,,,,,,,,,,,,,,,,,,,,,,,,,,,,,sub-160,1,random_dot,60.9884024167268,
right,right,2.0,0.0,1.0,right,1.0,2.405849000089802,,,,,,1.0,0.0,2.0,1.0,,,,,,,,,99.80299320002086,,,,,,,,,99.7876081999857,99.90313500002958,100.70610050007237,100.68746650009416,100.68818920000922,100.70610050007237,100.70610050007237,100.70610050007237,,103.12543610006104,right,1.0,2.405849000089802,,103.12568679999094,103.13861960009672,103.62302380008624,103.63895380008034,,,,,,,,,,,,,,,,,,,,,,,,,,,,,sub-160,1,random_dot,60.9884024167268,
left,left,3.0,1.0,1.0,right,0.0,3.249609599937685,,,,,,1.0,1.0,3.0,0.0,,,,,,,,,103.63895380008034,,,,,,,,,103.6236438000342,104.4396177000599,105.24196080002002,105.22308010002598,105.22341480001342,105.24196080002002,105.24196080002002,105.24196080002002,,108.49492389999796,right,0.0,3.249609599937685,,108.51208350004164,108.51860800001305,109.0088345000986,,,,,,,,,,,,,,,,,,,,,,,,,,,,,,sub-160,1,random_dot,60.9884024167268,
right,right,4.0,0.0,2.0,right,1.0,3.3184885000810027,,,,,,2.0,0.0,4.0,1.0,,,,,,,,,109.02548569999637,,,,,,,,,109.00925230002032,110.20983270008584,111.01309610006864,110.9938397000078,110.9942444000626,111.01309610006864,111.01309610006864,111.01309610006864,,114.33283420000224,right,1.0,3.3184885000810027,,114.3401407999918,114.34918180003297,114.84701110003516,,,,,,,,,,,,,,,,,,,,,,,,,,,,,,sub-160,1,random_dot,60.9884024167268,
left,left,5.0,1.0,2.0,left,1.0,1.3017452999483794,,,,,,2.0,1.0,5.0,0.0,,,,,,,,,114.8633695000317,,,,,,,,,114.84760590002406,115.64730040007272,116.45038220006973,116.43160440004432,116.4323563000653,116.45038220006973,116.45038220006973,116.45038220006973,,117.7537249000743,left,1.0,1.3017452999483794,,117.75405380001756,117.76586829998996,118.2496031000046,118.26571200008038,,,,,,,,,,,,,,,,,,,,,,,,,,,,,sub-160,1,random_dot,60.9884024167268,
right,right,6.0,0.0,3.0,left,0.0,1.9024782999185843,,,,,,3.0,0.0,6.0,1.0,,,,,,,,,118.26571200008038,,,,,,,,,118.25022290006746,119.0663636000827,119.86926320008934,119.850579900085,119.85124810005073,119.86926320008934,119.86926320008934,119.86926320008934,,121.78535770007876,left,0.0,1.9024782999185843,,121.79457670007832,121.8027786000166,122.30017900001258,,,,,,,,,,,,,,,,,,,,,,,,,,,,,,sub-160,1,random_dot,60.9884024167268,
left,left,7.0,1.0,3.0,left,1.0,1.558412899961695,,,,,,3.0,1.0,7.0,0.0,,,,,,,,,122.3165452000685,,,,,,,,,122.30093450006098,123.10054750007112,123.90303050004876,123.8851953999838,123.88593099999709,123.90303050004876,123.90303050004876,123.90303050004876,,125.47236660006456,left,1.0,1.558412899961695,,125.48080880008638,125.48955410008784,125.98625810001975,,,,,,,,,,,,,,,,,,,,,,,,,,,,,,sub-160,1,random_dot,60.9884024167268,
right,right,8.0,0.0,4.0,right,1.0,2.09168019995559,,,,,,4.0,0.0,8.0,1.0,,,,,,,,,126.00268939998932,,,,,,,,,125.98671890003608,126.08609470003285,126.88969069998711,126.87121570005549,126.87186569999903,126.88969069998711,126.88969069998711,126.88969069998711,,128.9922817000188,right,1.0,2.09168019995559,,128.9924028000096,129.00611509999726,129.49060140002985,129.5067525000777,,,,,,,,,,,,,,,,,,,,,,,,,,,,,sub-160,1,random_dot,60.9884024167268,
left,left,9.0,1.0,4.0,left,1.0,1.9819768000161275,,,,,,4.0,1.0,9.0,0.0,,,,,,,,,129.5067525000777,,,,,,,,,129.4911586000817,130.30734860000666,131.11033619998489,131.09167690004688,131.0923250000924,131.11033619998489,131.11033619998489,131.11033619998489,,133.09629570005927,left,1.0,1.9819768000161275,,133.09655130002648,133.10929030005354,133.59350640000775,133.60952440008987,,,,,,,,,,,,,,,,,,,,,,,,,,,,,sub-160,1,random_dot,60.9884024167268,
left,left,10.0,0.0,5.0,right,0.0,1.599726299988106,,,,,,5.0,0.0,10.0,0.0,,,,,,,,,133.60952440008987,,,,,,,,,133.5940558000002,133.9599520000629,134.76279860001523,134.7441836000653,134.74485180003103,134.76279860001523,134.76279860001523,134.76279860001523,,136.3649622000521,right,0.0,1.599726299988106,,136.37625159998424,136.3876986000687,136.87896790006198,,,,,,,,,,,,,,,,,,,,,,,,,,,,,,sub-160,1,random_dot,60.9884024167268,
right,right,11.0,1.0,5.0,right,1.0,1.5599045000271872,,,,,,5.0,1.0,11.0,1.0,,,,,,,,,136.89526160003152,,,,,,,,,136.87966960004997,138.07939239998814,138.88229540002067,138.86364770005457,138.8642856000224,138.88229540002067,138.88229540002067,138.88229540002067,,140.44988670002203,right,1.0,1.5599045000271872,,140.52136960008647,140.52864550007507,140.96436169999652,,,,,,,,,,,,,,,,,,,,,,,,,,,,,,sub-160,1,random_dot,60.9884024167268,
left,left,12.0,0.0,6.0,left,1.0,1.204860599944368,,,,,,6.0,0.0,12.0,0.0,,,,,,,,,140.9807804999873,,,,,,,,,140.96472470008302,141.0643330999883,141.8672822000226,141.84838320000563,141.8487940999912,141.8672822000226,141.8672822000226,141.8672822000226,,143.085121500073,left,1.0,1.204860599944368,,143.08525220002048,143.09897920000367,143.58286110009067,143.59933270001784,,,,,,,,,,,,,,,,,,,,,,,,,,,,,sub-160,1,random_dot,60.9884024167268,
right,right,13.0,1.0,6.0,right,1.0,2.08959310001228,,,,,,6.0,1.0,13.0,1.0,,,,,,,,,143.59933270001784,,,,,,,,,143.58324200008065,144.4004702999955,145.20289900002535,145.18388680007774,145.1842776000267,145.20289900002535,145.20289900002535,145.20289900002535,,147.30573210003786,right,1.0,2.08959310001228,,147.30606130009983,147.31891250004992,147.80314510001335,147.81932270003017,,,,,,,,,,,,,,,,,,,,,,,,,,,,,sub-160,1,random_dot,60.9884024167268,
right,right,14.0,0.0,7.0,right,1.0,1.109918399946764,,,,,,7.0,0.0,14.0,1.0,,,,,,,,,147.81932270003017,,,,,,,,,147.8036974000279,148.61992680002004,149.4231979000615,149.40399170003366,149.4047388000181,149.4231979000615,149.4231979000615,149.4231979000615,,150.54100490000565,right,1.0,1.109918399946764,,150.5412511000177,150.55461620003916,151.0387849000981,151.05494330008514,,,,,,,,,,,,,,,,,,,,,,,,,,,,,sub-160,1,random_dot,60.9884024167268,
left,left,15.0,1.0,7.0,left,1.0,1.1068954999791458,,,,,,7.0,1.0,15.0,0.0,,,,,,,,,151.05494330008514,,,,,,,,,151.03934020001907,152.25359600002412,153.0560285000829,153.03828570002224,153.03907940001227,153.0560285000829,153.0560285000829,153.0560285000829,,154.17472350003663,left,1.0,1.1068954999791458,,154.17496119998395,154.18863770004828,154.6739217999857,154.68911270005628,,,,,,,,,,,,,,,,,,,,,,,,,,,,,sub-160,1,random_dot,60.9884024167268,
right,right,16.0,0.0,8.0,right,1.0,1.261685400037095,,,,,,8.0,0.0,16.0,1.0,,,,,,,,,154.68911270005628,,,,,,,,,154.674830700038,154.78932350000832,155.59230600006413,155.573788800044,155.57451710000169,155.59230600006413,155.59230600006413,155.59230600006413,,156.86061229999177,right,1.0,1.261685400037095,,156.86084850004409,156.87466130009852,157.35926180006936,157.37511170003563,,,,,,,,,,,,,,,,,,,,,,,,,,,,,sub-160,1,random_dot,60.9884024167268,
left,left,17.0,1.0,8.0,left,1.0,2.376115699997172,,,,,,8.0,1.0,17.0,0.0,,,,,,,,,157.37511170003563,,,,,,,,,157.35988630005158,157.47396199998911,158.27690330008045,158.26047600002494,158.26124100002926,158.27690330008045,158.27690330008045,158.27690330008045,,160.6621562000364,left,1.0,2.376115699997172,,160.6623930000933,160.67643720004708,161.16059280000627,161.17685879999772,,,,,,,,,,,,,,,,,,,,,,,,,,,,,sub-160,1,random_dot,60.9884024167268,
right,right,18.0,0.0,9.0,right,1.0,1.5821157000027597,,,,,,9.0,0.0,18.0,1.0,,,,,,,,,161.17685879999772,,,,,,,,,161.1611498000566,161.97764900000766,162.78043869999237,162.76236910000443,162.7630939000519,162.78043869999237,162.78043869999237,162.78043869999237,,164.36453340004664,right,1.0,1.5821157000027597,,164.36476830008905,164.3789576999843,164.86305839999113,164.87918759998863,,,,,,,,,,,,,,,,,,,,,,,,,,,,,sub-160,1,random_dot,60.9884024167268,
left,left,19.0,1.0,9.0,left,1.0,1.9911454000975937,,,,,,9.0,1.0,19.0,0.0,,,,,,,,,164.87918759998863,,,,,,,,,164.86372840008698,165.22945940005593,166.03185110003687,166.01400110009126,166.01474160002545,166.03185110003687,166.03185110003687,166.03185110003687,,168.03373780008403,left,1.0,1.9911454000975937,,168.03397560003214,168.0479516000487,168.5313408999937,168.5482760000741,,,,,,,,,,,,,,,,,,,,,,,,,,,,,sub-160,1,random_dot,60.9884024167268,
,,,,,,,,,,,,,,,,,,,,,,,,,,,,,,,,,,,,,,,,,,,,,,,,,,,,168.53148940007668,168.5482760000741,168.5482760000741,193.1349602000555,space,24.58420139993541,,,,,,,,,,,,,,,,,,,,,,,sub-160,1,random_dot,60.9884024167268,
,,,,,,,,,,,,,,,,,,,,,,,,,,,,,,,,,,,,,,,,,,,,,,,,,,,,,,,,,,,193.13510710000992,193.1514791999944,193.1514791999944,209.39682700007688,space,16.23218540009111,,,,,,,,,,,,,,,,sub-160,1,random_dot,60.9884024167268,
right,right,0.0,0.0,0.0,left,0.0,1.9030313999392088,,accuracy,space,31.06088289991021,,,,,,0.0,0.0,0.0,0.0,0.0,0.0,0.0,1.0,240.5686771000037,,,,,,,,,240.5643813000061,240.89787200000137,241.7007717000088,241.68239730002824,241.6831545000896,241.7007717000088,241.7007717000088,241.7007717000088,,243.61942530004308,,,,,,,,,,,,,,,,,,,,,,,209.46024580008816,209.4727287000278,209.4727287000278,240.5485327000497,space,31.06088289991021,,left,0.0,1.9030313999392088,,,,,sub-160,1,random_dot,60.9884024167268,
left,left,1.0,1.0,0.0,right,0.0,2.576939099933952,,accuracy,space,31.06088289991021,,,,,,0.0,0.0,0.0,0.0,0.0,1.0,1.0,0.0,243.6335151999956,,,,,,,,,243.62026670004707,244.83416900003795,245.63622400001623,245.61787379998717,245.6183761000866,245.63622400001623,245.63622400001623,245.63622400001623,,248.2223331000423,,,,,,,,,,,,,,,,,,,,,,,,,,,,,,right,0.0,2.576939099933952,,,,,sub-160,1,random_dot,60.9884024167268,
right,right,2.0,0.0,1.0,right,1.0,3.319107900024392,,accuracy,space,31.06088289991021,,,,,,0.0,0.0,0.0,0.0,1.0,0.0,2.0,1.0,248.23616680002303,,,,,,,,,248.22311170003377,249.42110030003823,250.22453040000983,250.2058274000883,250.2065878000576,250.22453040000983,250.22453040000983,250.22453040000983,,253.5449397000484,,,,,,,,,,,,,,,,,,,,,,,,,,,,,,right,1.0,3.319107900024392,,,,,sub-160,1,random_dot,60.9884024167268,
left,left,3.0,1.0,1.0,left,1.0,1.944903599913232,,accuracy,space,31.06088289991021,,,,,,0.0,0.0,0.0,0.0,1.0,1.0,3.0,0.0,253.5584869000595,,,,,,,,,253.54570410004817,253.90682070003825,254.70907550002448,254.6913381000049,254.69209560006857,254.70907550002448,254.70907550002448,254.70907550002448,,256.6609497000464,,,,,,,,,,,,,,,,,,,,,,,,,,,,,,left,1.0,1.944903599913232,,,,,sub-160,1,random_dot,60.9884024167268,
right,right,4.0,0.0,2.0,right,1.0,1.7859071999555454,,accuracy,space,31.06088289991021,,,,,,0.0,0.0,0.0,0.0,2.0,0.0,4.0,1.0,256.6751846000552,,,,,,,,,256.6618157000048,256.77527870005,257.57779840007424,257.5599893000908,257.56071470002644,257.57779840007424,257.57779840007424,257.57779840007424,,259.37957940006163,,,,,,,,,,,,,,,,,,,,,,,,,,,,,,right,1.0,1.7859071999555454,,,,,sub-160,1,random_dot,60.9884024167268,
left,left,5.0,1.0,2.0,left,1.0,3.196074999985285,,accuracy,space,31.06088289991021,,,,,,0.0,0.0,0.0,0.0,2.0,1.0,5.0,0.0,259.3938682000153,,,,,,,,,259.3804717999883,260.59482670004945,261.3970182000194,261.3793300000252,261.3800891999854,261.3970182000194,261.3970182000194,261.3970182000194,,264.5992620000616,,,,,,,,,,,,,,,,,,,,,,,,,,,,,,left,1.0,3.196074999985285,,,,,sub-160,1,random_dot,60.9884024167268,
right,right,6.0,0.0,3.0,right,1.0,2.5100655000424013,,accuracy,space,31.06088289991021,,,,,,0.0,0.0,0.0,0.0,3.0,0.0,6.0,1.0,264.6139428000897,,,,,,,,,264.59970160003286,264.9666988000972,265.78377710003406,265.76591519999783,265.7666345000034,265.78377710003406,265.78377710003406,265.78377710003406,,268.3028360999888,,,,,,,,,,,,,,,,,,,,,,,,,,,,,,right,1.0,2.5100655000424013,,,,,sub-160,1,random_dot,60.9884024167268,
left,left,7.0,1.0,3.0,left,1.0,4.604623700026423,,accuracy,space,31.06088289991021,,,,,,0.0,0.0,0.0,0.0,3.0,1.0,7.0,0.0,268.31685400009155,,,,,,,,,268.3037481000647,269.51768789999187,270.3199659000384,270.3023352000164,270.3031073000748,270.3199659000384,270.3199659000384,270.3199659000384,,274.9266284999904,,,,,,,,,,,,,,,,,,,,,,,,,,,,,,left,1.0,4.604623700026423,,,,,sub-160,1,random_dot,60.9884024167268,
right,right,8.0,0.0,4.0,right,1.0,3.3187831999966875,,accuracy,space,31.06088289991021,,,,,,0.0,0.0,0.0,0.0,4.0,0.0,8.0,1.0,274.93993190000765,,,,,,,,,274.9275157999946,275.040210200008,275.8565101000713,275.8387716000434,275.8394974000985,275.8565101000713,275.8565101000713,275.8565101000713,,279.17748900002334,,,,,,,,,,,,,,,,,,,,,,,,,,,,,,right,1.0,3.3187831999966875,,,,,sub-160,1,random_dot,60.9884024167268,
left,left,9.0,1.0,4.0,left,1.0,20.662075600004755,,accuracy,space,31.06088289991021,,,,,,0.0,0.0,0.0,0.0,4.0,1.0,9.0,0.0,279.1908027000027,,,,,,,,,279.1790132999886,279.54108100000303,280.3427580000134,280.324922000058,280.3253230000846,280.3427580000134,280.3427580000134,280.3427580000134,285.3310005000094,301.0116627000971,,,,,,,,,,,,,,,,,,,,,,,,,,,,,,left,1.0,20.662075600004755,,,,,sub-160,1,random_dot,60.9884024167268,
right,right,10.0,0.0,5.0,right,1.0,2.166187099996023,,accuracy,space,31.06088289991021,,,,,,0.0,0.0,0.0,0.0,5.0,0.0,10.0,1.0,301.024485400063,,,,,,,,,301.01258950005285,302.2254757999908,303.0283963000402,303.00969380000606,303.01036320009734,303.0283963000402,303.0283963000402,303.0283963000402,,305.1974510999862,,,,,,,,,,,,,,,,,,,,,,,,,,,,,,right,1.0,2.166187099996023,,,,,sub-160,1,random_dot,60.9884024167268,
left,left,11.0,1.0,5.0,left,1.0,2.280442800023593,,accuracy,space,31.06088289991021,,,,,,0.0,0.0,0.0,0.0,5.0,1.0,11.0,0.0,305.2107411000179,,,,,,,,,305.19828330003656,305.3111251000082,306.1142892000498,306.09541840001475,306.09617860009894,306.1142892000498,306.1142892000498,306.1142892000498,,308.3996904999949,,,,,,,,,,,,,,,,,,,,,,,,,,,,,,left,1.0,2.280442800023593,,,,,sub-160,1,random_dot,60.9884024167268,
left,left,12.0,0.0,6.0,right,0.0,1.408080300083384,,accuracy,space,31.06088289991021,,,,,,0.0,0.0,0.0,0.0,6.0,0.0,12.0,0.0,308.41301510005724,,,,,,,,,308.4005417000735,309.213562100078,310.0167911000317,309.99804030009545,309.99877090007067,310.0167911000317,310.0167911000317,310.0167911000317,,311.4320095999865,,,,,,,,,,,,,,,,,,,,,,,,,,,,,,right,0.0,1.408080300083384,,,,,sub-160,1,random_dot,60.9884024167268,
right,right,13.0,1.0,6.0,right,1.0,3.1847914999816567,,accuracy,space,31.06088289991021,,,,,,0.0,0.0,0.0,0.0,6.0,1.0,13.0,1.0,311.4463905000593,,,,,,,,,311.4328760000644,312.2468805999961,313.0496974000707,313.03128640004434,313.032031300012,313.0496974000707,313.0496974000707,313.0496974000707,,316.2353594000451,,,,,,,,,,,,,,,,,,,,,,,,,,,,,,right,1.0,3.1847914999816567,,,,,sub-160,1,random_dot,60.9884024167268,
left,left,14.0,0.0,7.0,left,1.0,3.161289400071837,,accuracy,space,31.06088289991021,,,,,,0.0,0.0,0.0,0.0,7.0,0.0,14.0,0.0,316.2496090000496,,,,,,,,,316.2361452000914,316.6000205000164,317.40288750000764,317.38458120008,317.3849959000945,317.40288750000764,317.40288750000764,317.40288750000764,,320.5739244000288,,,,,,,,,,,,,,,,,,,,,,,,,,,,,,left,1.0,3.161289400071837,,,,,sub-160,1,random_dot,60.9884024167268,
right,right,15.0,1.0,7.0,right,1.0,1.5835709000239149,,accuracy,space,31.06088289991021,,,,,,0.0,0.0,0.0,0.0,7.0,1.0,15.0,1.0,320.5875639000442,,,,,,,,,320.57452370005194,320.9377616000129,321.7410555999959,321.72200160007924,321.72254690004047,321.7410555999959,321.7410555999959,321.7410555999959,,323.34023480000906,,,,,,,,,,,,,,,,,,,,,,,,,,,,,,right,1.0,1.5835709000239149,,,,,sub-160,1,random_dot,60.9884024167268,
left,left,16.0,0.0,8.0,left,1.0,3.3173623000038788,,accuracy,space,31.06088289991021,,,,,,0.0,0.0,0.0,0.0,8.0,0.0,16.0,0.0,323.3541455999948,,,,,,,,,323.3409657999873,324.155154600041,324.95765210001264,324.9422887000256,324.9432210000232,324.95765210001264,324.95765210001264,324.95765210001264,,328.2774242000887,,,,,,,,,,,,,,,,,,,,,,,,,,,,,,left,1.0,3.3173623000038788,,,,,sub-160,1,random_dot,60.9884024167268,
right,right,17.0,1.0,8.0,left,0.0,2.9501638000365347,,accuracy,space,31.06088289991021,,,,,,0.0,0.0,0.0,0.0,8.0,1.0,17.0,1.0,328.291278299992,,,,,,,,,328.27833900006954,329.4920985000208,330.2944171000272,330.2766635000007,330.27738480002154,330.2944171000272,330.2944171000272,330.2944171000272,,333.2491064000642,,,,,,,,,,,,,,,,,,,,,,,,,,,,,,left,0.0,2.9501638000365347,,,,,sub-160,1,random_dot,60.9884024167268,
right,right,18.0,0.0,9.0,right,1.0,1.6396872999612242,,accuracy,space,31.06088289991021,,,,,,0.0,0.0,0.0,0.0,9.0,0.0,18.0,1.0,333.26213100005407,,,,,,,,,333.25048160005827,334.46222250000574,335.265166600002,335.2467170000309,335.2474760999903,335.265166600002,335.265166600002,335.265166600002,,336.915993200033,,,,,,,,,,,,,,,,,,,,,,,,,,,,,,right,1.0,1.6396872999612242,,,,,sub-160,1,random_dot,60.9884024167268,
left,left,19.0,1.0,9.0,left,1.0,2.7709409000817686,,accuracy,space,31.06088289991021,,,,,,0.0,0.0,0.0,0.0,9.0,1.0,19.0,0.0,336.93047760007903,,,,,,,,,336.91688100004103,337.2807990000583,338.0835741000483,338.06540429999586,338.06613290007226,338.0835741000483,338.0835741000483,338.0835741000483,,340.8701235000044,,,,,,,,,,,,,,,,,,,,,,,,,,,,,,left,1.0,2.7709409000817686,,,,,sub-160,1,random_dot,60.9884024167268,
left,left,20.0,0.0,10.0,left,1.0,3.3180338999954984,,accuracy,space,31.06088289991021,,,,,,0.0,0.0,0.0,0.0,10.0,0.0,20.0,0.0,340.8840449000709,,,,,,,,,340.87099369999487,341.23436560004484,342.0363796000602,342.0181962000206,342.01893560006283,342.0363796000602,342.0363796000602,342.0363796000602,,345.3555795000866,,,,,,,,,,,,,,,,,,,,,,,,,,,,,,left,1.0,3.3180338999954984,,,,,sub-160,1,random_dot,60.9884024167268,
right,right,21.0,1.0,10.0,right,1.0,1.4535619999514893,,accuracy,space,31.06088289991021,,,,,,0.0,0.0,0.0,0.0,10.0,1.0,21.0,1.0,345.36951700004283,,,,,,,,,345.35659380001016,345.4699430000037,346.27194450004026,346.2542447000742,346.2550058000488,346.27194450004026,346.27194450004026,346.27194450004026,,347.74080660007894,,,,,,,,,,,,,,,,,,,,,,,,,,,,,,right,1.0,1.4535619999514893,,,,,sub-160,1,random_dot,60.9884024167268,
right,right,22.0,0.0,11.0,right,1.0,2.168461999972351,,accuracy,space,31.06088289991021,,,,,,0.0,0.0,0.0,0.0,11.0,0.0,22.0,1.0,347.75464330008253,,,,,,,,,347.7417008000193,347.85509040008765,348.65688510006294,348.6391997000901,348.6399580000434,348.65688510006294,348.65688510006294,348.65688510006294,,350.84245260001626,,,,,,,,,,,,,,,,,,,,,,,,,,,,,,right,1.0,2.168461999972351,,,,,sub-160,1,random_dot,60.9884024167268,
left,left,23.0,1.0,11.0,left,1.0,1.5060036999639124,,accuracy,space,31.06088289991021,,,,,,0.0,0.0,0.0,0.0,11.0,1.0,23.0,0.0,350.85633300000336,,,,,,,,,350.84319570008665,351.20677889999934,352.0091251999838,351.990913100075,351.99154160008766,352.0091251999838,352.0091251999838,352.0091251999838,,353.52758740005083,,,,,,,,,,,,,,,,,,,,,,,,,,,,,,left,1.0,1.5060036999639124,,,,,sub-160,1,random_dot,60.9884024167268,
right,right,24.0,0.0,12.0,right,1.0,2.0103734000585973,,accuracy,space,31.06088289991021,,,,,,0.0,0.0,0.0,0.0,12.0,0.0,24.0,1.0,353.5413968000794,,,,,,,,,353.52834280009847,353.641572499997,354.4447152999928,354.428662899998,354.4296389000956,354.4447152999928,354.4447152999928,354.4447152999928,,356.4630720000714,,,,,,,,,,,,,,,,,,,,,,,,,,,,,,right,1.0,2.0103734000585973,,,,,sub-160,1,random_dot,60.9884024167268,
left,left,25.0,1.0,12.0,right,0.0,3.4356845000293106,,accuracy,space,31.06088289991021,,,,,,0.0,0.0,0.0,0.0,12.0,1.0,25.0,0.0,356.4771764000179,,,,,,,,,356.46353780000936,356.5773871000856,357.3804627000354,357.3625151000452,357.3631586000556,357.3804627000354,357.3804627000354,357.3804627000354,,360.8327163000358,,,,,,,,,,,,,,,,,,,,,,,,,,,,,,right,0.0,3.4356845000293106,,,,,sub-160,1,random_dot,60.9884024167268,
left,left,26.0,0.0,13.0,left,1.0,3.1554136000340804,,accuracy,space,31.06088289991021,,,,,,0.0,0.0,0.0,0.0,13.0,0.0,26.0,0.0,360.8471171000274,,,,,,,,,360.8335621000733,362.04796390002593,362.8501167000504,362.8324837000109,362.83388260006905,362.8501167000504,362.8501167000504,362.8501167000504,,366.0209531000583,,,,,,,,,,,,,,,,,,,,,,,,,,,,,,left,1.0,3.1554136000340804,,,,,sub-160,1,random_dot,60.9884024167268,
right,right,27.0,1.0,13.0,right,1.0,4.238779700011946,,accuracy,space,31.06088289991021,,,,,,0.0,0.0,0.0,0.0,13.0,1.0,27.0,1.0,366.034159700037,,,,,,,,,366.0218999000499,367.2350095000584,368.0368051000405,368.0192400000524,368.0199581000488,368.0368051000405,368.0368051000405,368.0368051000405,,372.2912309000967,,,,,,,,,,,,,,,,,,,,,,,,,,,,,,right,1.0,4.238779700011946,,,,,sub-160,1,random_dot,60.9884024167268,
left,left,28.0,0.0,14.0,left,1.0,3.806367399985902,,accuracy,space,31.06088289991021,,,,,,0.0,0.0,0.0,0.0,14.0,0.0,28.0,0.0,372.3053554000799,,,,,,,,,372.29211610008497,373.1061570000602,373.9093331000768,373.89083370007575,373.891558400006,373.9093331000768,373.9093331000768,373.9093331000768,,377.7312160000438,,,,,,,,,,,,,,,,,,,,,,,,,,,,,,left,1.0,3.806367399985902,,,,,sub-160,1,random_dot,60.9884024167268,
right,right,29.0,1.0,14.0,right,1.0,1.6712579000741243,,accuracy,space,31.06088289991021,,,,,,0.0,0.0,0.0,0.0,14.0,1.0,29.0,1.0,377.74368360009976,,,,,,,,,377.73231230000965,378.0915708000539,378.894253400038,378.8765821000561,378.8772998000495,378.894253400038,378.894253400038,378.894253400038,,380.5796453000512,,,,,,,,,,,,,,,,,,,,,,,,,,,,,,right,1.0,1.6712579000741243,,,,,sub-160,1,random_dot,60.9884024167268,
right,right,30.0,0.0,15.0,left,0.0,4.348173900041729,,accuracy,space,31.06088289991021,,,,,,0.0,0.0,0.0,0.0,15.0,0.0,30.0,1.0,380.5939483999973,,,,,,,,,380.5804736000719,381.7947689000284,382.59702820004895,382.579264500062,382.5800378000131,382.59702820004895,382.59702820004895,382.59702820004895,,386.9518470000476,,,,,,,,,,,,,,,,,,,,,,,,,,,,,,left,0.0,4.348173900041729,,,,,sub-160,1,random_dot,60.9884024167268,
left,left,31.0,1.0,15.0,right,0.0,3.941975300083868,,accuracy,space,31.06088289991021,,,,,,0.0,0.0,0.0,0.0,15.0,1.0,31.0,0.0,386.9656473000068,,,,,,,,,386.9524597000564,387.3165634000907,388.13381520006806,388.11551840009633,388.1159309000941,388.13381520006806,388.13381520006806,388.13381520006806,,392.0877410999965,,,,,,,,,,,,,,,,,,,,,,,,,,,,,,right,0.0,3.941975300083868,,,,,sub-160,1,random_dot,60.9884024167268,
right,right,32.0,0.0,16.0,right,1.0,3.1206057000672445,,accuracy,space,31.06088289991021,,,,,,0.0,0.0,0.0,0.0,16.0,0.0,32.0,1.0,392.1020370000042,,,,,,,,,392.0884700000752,392.4524381000083,393.2549176000757,393.23694970004726,393.237605500035,393.2549176000757,393.2549176000757,393.2549176000757,,396.3907701000571,,,,,,,,,,,,,,,,,,,,,,,,,,,,,,right,1.0,3.1206057000672445,,,,,sub-160,1,random_dot,60.9884024167268,
left,left,33.0,1.0,16.0,left,1.0,1.83822220005095,,accuracy,space,31.06088289991021,,,,,,0.0,0.0,0.0,0.0,16.0,1.0,33.0,0.0,396.4046760000056,,,,,,,,,396.3916219000239,396.5048519000411,397.30757940001786,397.28923760005273,397.2899595000781,397.30757940001786,397.30757940001786,397.30757940001786,,399.15947290009353,,,,,,,,,,,,,,,,,,,,,,,,,,,,,,left,1.0,1.83822220005095,,,,,sub-160,1,random_dot,60.9884024167268,
left,left,34.0,0.0,17.0,left,1.0,3.920336699928157,,accuracy,space,31.06088289991021,,,,,,0.0,0.0,0.0,0.0,17.0,0.0,34.0,0.0,399.173371000099,,,,,,,,,399.1604013000615,399.5236412000377,400.3256844000425,400.3079387000762,400.30866690003313,400.3256844000425,400.3256844000425,400.3256844000425,,404.2630718,,,,,,,,,,,,,,,,,,,,,,,,,,,,,,left,1.0,3.920336699928157,,,,,sub-160,1,random_dot,60.9884024167268,
right,right,35.0,1.0,17.0,right,1.0,2.5866440000245348,,accuracy,space,31.06088289991021,,,,,,0.0,0.0,0.0,0.0,17.0,1.0,35.0,1.0,404.276506000082,,,,,,,,,404.2639224000741,404.6271156000439,405.4292037000414,405.4114927999908,405.412248800043,405.4292037000414,405.4292037000414,405.4292037000414,,408.03181419998873,,,,,,,,,,,,,,,,,,,,,,,,,,,,,,right,1.0,2.5866440000245348,,,,,sub-160,1,random_dot,60.9884024167268,
right,right,36.0,0.0,18.0,right,1.0,4.32681319990661,,accuracy,space,31.06088289991021,,,,,,0.0,0.0,0.0,0.0,18.0,0.0,36.0,1.0,408.0461155000376,,,,,,,,,408.0328211000888,408.846804000088,409.64881070004776,409.63108299998567,409.63179640006274,409.64881070004776,409.64881070004776,409.64881070004776,,413.9879123000428,,,,,,,,,,,,,,,,,,,,,,,,,,,,,,right,1.0,4.32681319990661,,,,,sub-160,1,random_dot,60.9884024167268,
left,left,37.0,1.0,18.0,left,1.0,2.2120424000313506,,accuracy,space,31.06088289991021,,,,,,0.0,0.0,0.0,0.0,18.0,1.0,37.0,0.0,414.00131040008273,,,,,,,,,413.9888015000615,414.3514145000372,415.15500880009495,415.1361898999894,415.1368328999961,415.15500880009495,415.15500880009495,415.15500880009495,,417.3715064000571,,,,,,,,,,,,,,,,,,,,,,,,,,,,,,left,1.0,2.2120424000313506,,,,,sub-160,1,random_dot,60.9884024167268,
right,right,38.0,0.0,19.0,right,1.0,3.2964108999585733,,accuracy,space,31.06088289991021,,,,,,0.0,0.0,0.0,0.0,19.0,0.0,38.0,1.0,417.38589180004783,,,,,,,,,417.3723418000154,418.5866834000917,419.389740500017,419.3713786000153,419.37226770003326,419.389740500017,419.389740500017,419.389740500017,,422.6912663000403,,,,,,,,,,,,,,,,,,,,,,,,,,,,,,right,1.0,3.2964108999585733,,,,,sub-160,1,random_dot,60.9884024167268,
left,left,39.0,1.0,19.0,left,1.0,1.833137199981138,,accuracy,space,31.06088289991021,,,,,,0.0,0.0,0.0,0.0,19.0,1.0,39.0,0.0,422.7057474000612,,,,,,,,,422.691711200052,423.89021250000224,424.6932720000623,424.67558889999054,424.6766227000626,424.6932720000623,424.6932720000623,424.6932720000623,,426.5294903999893,,,,,,,,,,,,,,,,,,,,,,,,,,,,,,left,1.0,1.833137199981138,,,,,sub-160,1,random_dot,60.9884024167268,
left,left,40.0,0.0,20.0,left,1.0,3.698757900041528,,accuracy,space,31.06088289991021,,,,,,0.0,0.0,0.0,0.0,20.0,0.0,40.0,0.0,426.5429199000355,,,,,,,,,426.53051070007496,427.3438445000211,428.1476901000133,428.12907300004736,428.1297274000244,428.1476901000133,428.1476901000133,428.1476901000133,,431.84827580000274,,,,,,,,,,,,,,,,,,,,,,,,,,,,,,left,1.0,3.698757900041528,,,,,sub-160,1,random_dot,60.9884024167268,
right,right,41.0,1.0,20.0,right,1.0,1.5508547000354156,,accuracy,space,31.06088289991021,,,,,,0.0,0.0,0.0,0.0,20.0,1.0,41.0,1.0,431.8626376000466,,,,,,,,,431.84913500002585,433.06330430007074,433.8656493000453,433.8478123000823,433.8487950999988,433.8656493000453,433.8656493000453,433.8656493000453,,435.41752050002106,,,,,,,,,,,,,,,,,,,,,,,,,,,,,,right,1.0,1.5508547000354156,,,,,sub-160,1,random_dot,60.9884024167268,
right,right,42.0,0.0,21.0,right,1.0,4.082007000106387,,accuracy,space,31.06088289991021,,,,,,0.0,0.0,0.0,0.0,21.0,0.0,42.0,1.0,435.4316489000339,,,,,,,,,435.4184436000651,435.7818833000492,436.5842623000499,436.5665180000942,436.5672792000696,436.5842623000499,436.5842623000499,436.5842623000499,,440.6718223000644,,,,,,,,,,,,,,,,,,,,,,,,,,,,,,right,1.0,4.082007000106387,,,,,sub-160,1,random_dot,60.9884024167268,
left,left,43.0,1.0,21.0,right,0.0,4.38690029992722,,accuracy,space,31.06088289991021,,,,,,0.0,0.0,0.0,0.0,21.0,1.0,43.0,0.0,440.6856648999965,,,,,,,,,440.6727089000633,440.7860662000021,441.5896058999933,441.569410199998,441.5701676000608,441.5896058999933,441.5896058999933,441.5896058999933,,445.9912349000806,,,,,,,,,,,,,,,,,,,,,,,,,,,,,,right,0.0,4.38690029992722,,,,,sub-160,1,random_dot,60.9884024167268,
left,left,44.0,0.0,22.0,left,1.0,3.1376427999930456,,accuracy,space,31.06088289991021,,,,,,0.0,0.0,0.0,0.0,22.0,0.0,44.0,0.0,446.0055218000198,,,,,,,,,445.9921155000338,447.20641330000944,448.0087389000692,447.9909692000365,447.9916959000984,448.0087389000692,448.0087389000692,448.0087389000692,,451.16154000000097,,,,,,,,,,,,,,,,,,,,,,,,,,,,,,left,1.0,3.1376427999930456,,,,,sub-160,1,random_dot,60.9884024167268,
right,right,45.0,1.0,22.0,right,1.0,3.0084476999472827,,accuracy,space,31.06088289991021,,,,,,0.0,0.0,0.0,0.0,22.0,1.0,45.0,1.0,451.17584350006655,,,,,,,,,451.1622751000105,451.27587950008456,452.0783639000729,452.0606326000998,452.0613987999968,452.0783639000729,452.0783639000729,452.0783639000729,,455.09762430004776,,,,,,,,,,,,,,,,,,,,,,,,,,,,,,right,1.0,3.0084476999472827,,,,,sub-160,1,random_dot,60.9884024167268,
right,right,46.0,0.0,23.0,right,1.0,3.0623851000564173,,accuracy,space,31.06088289991021,,,,,,0.0,0.0,0.0,0.0,23.0,0.0,46.0,1.0,455.1119470000267,,,,,,,,,455.09845150006,455.9126682000933,456.7143948000157,456.6967580000637,456.697479100083,456.7143948000157,456.7143948000157,456.7143948000157,,459.7841389999958,,,,,,,,,,,,,,,,,,,,,,,,,,,,,,right,1.0,3.0623851000564173,,,,,sub-160,1,random_dot,60.9884024167268,
left,left,47.0,1.0,23.0,left,1.0,3.2453260000329465,,accuracy,space,31.06088289991021,,,,,,0.0,0.0,0.0,0.0,23.0,1.0,47.0,0.0,459.79844380007125,,,,,,,,,459.784987400053,460.5991416000761,461.4008211999899,461.382915000082,461.3833101000637,461.4008211999899,461.4008211999899,461.4008211999899,,464.6543964000885,,,,,,,,,,,,,,,,,,,,,,,,,,,,,,left,1.0,3.2453260000329465,,,,,sub-160,1,random_dot,60.9884024167268,
right,right,48.0,0.0,24.0,right,1.0,3.5743953000055626,,accuracy,space,31.06088289991021,,,,,,0.0,0.0,0.0,0.0,24.0,0.0,48.0,1.0,464.6681046000449,,,,,,,,,464.6550218000775,465.469274800038,466.272059100098,466.25396930007264,466.2550984000554,466.272059100098,466.272059100098,466.272059100098,,469.8601173000643,,,,,,,,,,,,,,,,,,,,,,,,,,,,,,right,1.0,3.5743953000055626,,,,,sub-160,1,random_dot,60.9884024167268,
left,left,49.0,1.0,24.0,left,1.0,3.2194763000588864,,accuracy,space,31.06088289991021,,,,,,0.0,0.0,0.0,0.0,24.0,1.0,49.0,0.0,469.8737467000028,,,,,,,,,469.8609238000354,469.9740265000146,470.7770258000819,470.7582334000617,470.7588771000737,470.7770258000819,470.7770258000819,470.7770258000819,,474.01122370001394,,,,,,,,,,,,,,,,,,,,,,,,,,,,,,left,1.0,3.2194763000588864,,,,,sub-160,1,random_dot,60.9884024167268,
right,right,50.0,0.0,25.0,right,1.0,2.2086117999861017,,accuracy,space,31.06088289991021,,,,,,0.0,0.0,0.0,0.0,25.0,0.0,50.0,1.0,474.02522290009074,,,,,,,,,474.0120437000878,474.1253642000957,474.9279513000511,474.9095614000689,474.9102290000301,474.9279513000511,474.9279513000511,474.9279513000511,,477.14945960009936,,,,,,,,,,,,,,,,,,,,,,,,,,,,,,right,1.0,2.2086117999861017,,,,,sub-160,1,random_dot,60.9884024167268,
left,left,51.0,1.0,25.0,right,0.0,2.550107999937609,,accuracy,space,31.06088289991021,,,,,,0.0,0.0,0.0,0.0,25.0,1.0,51.0,0.0,477.1621998000192,,,,,,,,,477.150346999988,478.3629421000369,479.1663668000838,479.14732870005537,479.1479661000194,479.1663668000838,479.1663668000838,479.1663668000838,,481.7324268000666,,,,,,,,,,,,,,,,,,,,,,,,,,,,,,right,0.0,2.550107999937609,,,,,sub-160,1,random_dot,60.9884024167268,
right,right,52.0,0.0,26.0,right,1.0,2.617754100007005,,accuracy,space,31.06088289991021,,,,,,0.0,0.0,0.0,0.0,26.0,0.0,52.0,1.0,481.7466988000088,,,,,,,,,481.7332786000334,482.5474431000184,483.3496034999844,483.3319573000772,483.33271129999775,483.3496034999844,483.3496034999844,483.3496034999844,,485.9696372000035,,,,,,,,,,,,,,,,,,,,,,,,,,,,,,right,1.0,2.617754100007005,,,,,sub-160,1,random_dot,60.9884024167268,
left,left,53.0,1.0,26.0,left,1.0,4.051394800073467,,accuracy,space,31.06088289991021,,,,,,0.0,0.0,0.0,0.0,26.0,1.0,53.0,0.0,485.98370790004265,,,,,,,,,485.9704890000867,487.18393130006734,487.9861951000057,487.9685184999835,487.9693032000214,487.9861951000057,487.9861951000057,487.9861951000057,,492.0397994000232,,,,,,,,,,,,,,,,,,,,,,,,,,,,,,left,1.0,4.051394800073467,,,,,sub-160,1,random_dot,60.9884024167268,
right,right,54.0,0.0,27.0,right,1.0,3.2209248000290245,,accuracy,space,31.06088289991021,,,,,,0.0,0.0,0.0,0.0,27.0,0.0,54.0,1.0,492.0539197000908,,,,,,,,,492.0401341000106,492.40488789998926,493.2061593000544,493.1885453000432,493.1892735000001,493.2061593000544,493.2061593000544,493.2061593000544,,496.4421616999898,,,,,,,,,,,,,,,,,,,,,,,,,,,,,,right,1.0,3.2209248000290245,,,,,sub-160,1,random_dot,60.9884024167268,
left,left,55.0,1.0,27.0,left,1.0,2.448085099924356,,accuracy,space,31.06088289991021,,,,,,0.0,0.0,0.0,0.0,27.0,1.0,55.0,0.0,496.4566046000691,,,,,,,,,496.442857200047,496.5566171000246,497.3590777000645,497.3411066000117,497.341598500032,497.3590777000645,497.3590777000645,497.3590777000645,,499.8125561000779,,,,,,,,,,,,,,,,,,,,,,,,,,,,,,left,1.0,2.448085099924356,,,,,sub-160,1,random_dot,60.9884024167268,
right,right,56.0,0.0,28.0,right,1.0,2.1230572999920696,,accuracy,space,31.06088289991021,,,,,,0.0,0.0,0.0,0.0,28.0,0.0,56.0,1.0,499.8265372000169,,,,,,,,,499.8130144000752,500.6117498000385,501.4143687000033,501.3953209000174,501.39584500005,501.4143687000033,501.4143687000033,501.4143687000033,,503.5500324000605,,,,,,,,,,,,,,,,,,,,,,,,,,,,,,right,1.0,2.1230572999920696,,,,,sub-160,1,random_dot,60.9884024167268,
left,left,57.0,1.0,28.0,left,1.0,4.540630400064401,,accuracy,space,31.06088289991021,,,,,,0.0,0.0,0.0,0.0,28.0,1.0,57.0,0.0,503.5635984000983,,,,,,,,,503.55078370007686,503.6637743000174,504.4668188000797,504.4481719000032,504.4488085000776,504.4668188000797,504.4668188000797,504.4668188000797,,509.01800720009487,,,,,,,,,,,,,,,,,,,,,,,,,,,,,,left,1.0,4.540630400064401,,,,,sub-160,1,random_dot,60.9884024167268,
right,right,58.0,0.0,29.0,right,1.0,2.623349000001326,,accuracy,space,31.06088289991021,,,,,,0.0,0.0,0.0,0.0,29.0,0.0,58.0,1.0,509.03207880002446,,,,,,,,,509.01888790004887,509.1319090999896,509.9341375000077,509.91691969998647,509.9176734000212,509.9341375000077,509.9341375000077,509.9341375000077,,512.5712525000563,,,,,,,,,,,,,,,,,,,,,,,,,,,,,,right,1.0,2.623349000001326,,,,,sub-160,1,random_dot,60.9884024167268,
left,left,59.0,1.0,29.0,left,1.0,5.209820399992168,,accuracy,space,31.06088289991021,,,,,,0.0,0.0,0.0,0.0,29.0,1.0,59.0,0.0,512.5848572000396,,,,,,,,,512.572197200032,512.6847851000493,513.4878447999945,513.4693767999997,513.4701325000497,513.4878447999945,513.4878447999945,513.4878447999945,518.4763865000568,518.7111472000834,,,,,,,,,,,,,,,,,,,,,,,,,,,,,,left,1.0,5.209820399992168,,,,,sub-160,1,random_dot,60.9884024167268,
,,0.0,0.0,0.0,,,,,accuracy,space,31.06088289991021,,,,,,0.0,0.0,0.0,0.0,,,,,,,,,,,,,,,,,,,,,,,,,,,,,,,,,,,,,,,,,,,,,,,,,,,,,,,,,,,,sub-160,1,random_dot,60.9884024167268,
right,right,0.0,0.0,0.0,right,1.0,1.0070474999956789,,speed,space,74.18895109998994,,,,,,0.0,1.0,1.0,1.0,0.0,0.0,0.0,1.0,593.0011382000521,,,,,,,,,592.9942157000769,593.0912958000554,593.8952693000901,593.8761472000042,593.8768665000098,593.8952693000901,593.8952693000901,593.8952693000901,,594.9101191000082,,,,,,,,,,,,,,,,,,,,,,,518.7638753000647,518.7733370000497,518.7733370000497,592.9762031000573,space,74.18895109998994,,right,1.0,1.0070474999956789,,,,,sub-160,1,random_dot,60.9884024167268,
left,left,1.0,1.0,0.0,left,1.0,0.764625099953264,,speed,space,74.18895109998994,,,,,,0.0,1.0,1.0,1.0,0.0,1.0,1.0,0.0,594.9245038999943,,,,,,,,,594.9109519000631,596.1251539000077,596.9278751000529,596.9097947999835,596.9106892000418,596.9278751000529,596.9278751000529,596.9278751000529,,597.6963086000178,,,,,,,,,,,,,,,,,,,,,,,,,,,,,,left,1.0,0.764625099953264,,,,,sub-160,1,random_dot,60.9884024167268,
right,right,2.0,0.0,1.0,right,1.0,0.7601396000245586,,speed,space,74.18895109998994,,,,,,0.0,1.0,1.0,1.0,1.0,0.0,2.0,1.0,597.7096337000839,,,,,,,,,597.6977552000899,597.8097464999883,598.6124880000716,598.594622500008,598.5954320000019,598.6124880000716,598.6124880000716,598.6124880000716,,599.3797444000375,,,,,,,,,,,,,,,,,,,,,,,,,,,,,,right,1.0,0.7601396000245586,,,,,sub-160,1,random_dot,60.9884024167268,
left,left,3.0,1.0,1.0,left,1.0,1.193966199993156,,speed,space,74.18895109998994,,,,,,0.0,1.0,1.0,1.0,1.0,1.0,3.0,0.0,599.3943180000642,,,,,,,,,599.3806472000433,600.1946481000632,600.9979881000472,600.9784629000351,600.9788703999948,600.9979881000472,600.9979881000472,600.9979881000472,,602.1985008000629,,,,,,,,,,,,,,,,,,,,,,,,,,,,,,left,1.0,1.193966199993156,,,,,sub-160,1,random_dot,60.9884024167268,
left,left,4.0,0.0,2.0,right,0.0,2.875294999917969,,speed,space,74.18895109998994,,,,,,0.0,1.0,1.0,1.0,2.0,0.0,4.0,0.0,602.2127064000815,,,,,,,,,602.1989469000837,603.0134628000669,603.816495200037,603.7981153000146,603.7986600000877,603.816495200037,603.816495200037,603.816495200037,,606.7038298000116,,,,,,,,,,,,,,,,,,,,,,,,,,,,,,right,0.0,2.875294999917969,,,,,sub-160,1,random_dot,60.9884024167268,
right,right,5.0,1.0,2.0,right,1.0,2.900464199949056,,speed,space,74.18895109998994,,,,,,0.0,1.0,1.0,1.0,2.0,1.0,5.0,1.0,606.7173827000661,,,,,,,,,606.7042841000948,607.5180091999937,608.3218051000731,608.3029059000546,608.3035459000384,608.3218051000731,608.3218051000731,608.3218051000731,,611.2243246000726,,,,,,,,,,,,,,,,,,,,,,,,,,,,,,right,1.0,2.900464199949056,,,,,sub-160,1,random_dot,60.9884024167268,
left,left,6.0,0.0,3.0,left,1.0,3.141419399995357,,speed,space,74.18895109998994,,,,,,0.0,1.0,1.0,1.0,3.0,0.0,6.0,0.0,611.2376512000337,,,,,,,,,611.2251967000775,611.3378619999858,612.1404282000149,612.1215914000059,612.1219944000477,612.1404282000149,612.1404282000149,612.1404282000149,,615.290057700011,,,,,,,,,,,,,,,,,,,,,,,,,,,,,,left,1.0,3.141419399995357,,,,,sub-160,1,random_dot,60.9884024167268,
right,right,7.0,1.0,3.0,right,1.0,1.305443499935791,,speed,space,74.18895109998994,,,,,,0.0,1.0,1.0,1.0,3.0,1.0,7.0,1.0,615.3046671000775,,,,,,,,,615.2905665000435,615.4049542000284,616.2070877000224,616.1897770999931,616.1905325000407,616.2070877000224,616.2070877000224,616.2070877000224,,617.5262101000408,,,,,,,,,,,,,,,,,,,,,,,,,,,,,,right,1.0,1.305443499935791,,,,,sub-160,1,random_dot,60.9884024167268,
left,left,8.0,0.0,4.0,left,1.0,1.859869800042361,,speed,space,74.18895109998994,,,,,,0.0,1.0,1.0,1.0,4.0,0.0,8.0,0.0,617.5400025000563,,,,,,,,,617.5270907999948,617.8904365000781,618.69372380001,618.6785470000468,618.6801199000329,618.69372380001,618.69372380001,618.69372380001,,620.5614729000954,,,,,,,,,,,,,,,,,,,,,,,,,,,,,,left,1.0,1.859869800042361,,,,,sub-160,1,random_dot,60.9884024167268,
right,right,9.0,1.0,4.0,right,1.0,1.9446039999602365,,speed,space,74.18895109998994,,,,,,0.0,1.0,1.0,1.0,4.0,1.0,9.0,1.0,620.5755008000415,,,,,,,,,620.562327300082,620.9259633000474,621.7289762999862,621.7105658000801,621.7113333999878,621.7289762999862,621.7289762999862,621.7289762999862,,623.6814736000961,,,,,,,,,,,,,,,,,,,,,,,,,,,,,,right,1.0,1.9446039999602365,,,,,sub-160,1,random_dot,60.9884024167268,
left,left,10.0,0.0,5.0,left,1.0,4.022845100029372,,speed,space,74.18895109998994,,,,,,0.0,1.0,1.0,1.0,5.0,0.0,10.0,0.0,623.6953706000932,,,,,,,,,623.6823205000255,624.8971885000356,625.7004457000876,625.681670900085,625.682368000038,625.7004457000876,625.7004457000876,625.7004457000876,,629.7370034999913,,,,,,,,,,,,,,,,,,,,,,,,,,,,,,left,1.0,4.022845100029372,,,,,sub-160,1,random_dot,60.9884024167268,
right,right,11.0,1.0,5.0,right,1.0,1.5297344999853522,,speed,space,74.18895109998994,,,,,,0.0,1.0,1.0,1.0,5.0,1.0,11.0,1.0,629.7503969999962,,,,,,,,,629.7378690000623,630.551007400034,631.3544659999898,631.3354997000424,631.3362226000754,631.3544659999898,631.3544659999898,631.3544659999898,,632.8866239000345,,,,,,,,,,,,,,,,,,,,,,,,,,,,,,right,1.0,1.5297344999853522,,,,,sub-160,1,random_dot,60.9884024167268,
right,right,12.0,0.0,6.0,right,1.0,2.458831599913537,,speed,space,74.18895109998994,,,,,,0.0,1.0,1.0,1.0,6.0,0.0,12.0,1.0,632.900611900026,,,,,,,,,632.8874402000802,633.7012644000351,634.503932200023,634.4861109000631,634.486834899988,634.503932200023,634.503932200023,634.503932200023,,636.9738344000652,,,,,,,,,,,,,,,,,,,,,,,,,,,,,,right,1.0,2.458831599913537,,,,,sub-160,1,random_dot,60.9884024167268,
left,left,13.0,1.0,6.0,left,1.0,1.9813160999910904,,speed,space,74.18895109998994,,,,,,0.0,1.0,1.0,1.0,6.0,1.0,13.0,0.0,636.9875175000634,,,,,,,,,636.9743619000074,637.7888618999859,638.5918606000487,638.5731127000181,638.57369260001,638.5918606000487,638.5918606000487,638.5918606000487,,640.5777034000494,,,,,,,,,,,,,,,,,,,,,,,,,,,,,,left,1.0,1.9813160999910904,,,,,sub-160,1,random_dot,60.9884024167268,
right,right,14.0,0.0,7.0,right,1.0,1.5355594001011923,,speed,space,74.18895109998994,,,,,,0.0,1.0,1.0,1.0,7.0,0.0,14.0,1.0,640.5910395000828,,,,,,,,,640.5784554000711,640.9411136000417,641.7581685000332,641.7400187000167,641.7404736999888,641.7581685000332,641.7581685000332,641.7581685000332,,643.3102059999947,,,,,,,,,,,,,,,,,,,,,,,,,,,,,,right,1.0,1.5355594001011923,,,,,sub-160,1,random_dot,60.9884024167268,
left,left,15.0,1.0,7.0,left,1.0,3.005701299989596,,speed,space,74.18895109998994,,,,,,0.0,1.0,1.0,1.0,7.0,1.0,15.0,0.0,643.3245648000157,,,,,,,,,643.3109578000149,643.6749858000549,644.4775517000817,644.459252800094,644.4598971999949,644.4775517000817,644.4775517000817,644.4775517000817,,647.4970002000919,,,,,,,,,,,,,,,,,,,,,,,,,,,,,,left,1.0,3.005701299989596,,,,,sub-160,1,random_dot,60.9884024167268,
right,right,16.0,0.0,8.0,right,1.0,1.0695088000502435,,speed,space,74.18895109998994,,,,,,0.0,1.0,1.0,1.0,8.0,0.0,16.0,1.0,647.5106462000404,,,,,,,,,647.4978284999961,648.3113651000895,649.1136578000151,649.0958501000423,649.0966327000642,649.1136578000151,649.1136578000151,649.1136578000151,,650.1982652000152,,,,,,,,,,,,,,,,,,,,,,,,,,,,,,right,1.0,1.0695088000502435,,,,,sub-160,1,random_dot,60.9884024167268,
left,left,17.0,1.0,8.0,left,1.0,0.9972455999813974,,speed,space,74.18895109998994,,,,,,0.0,1.0,1.0,1.0,8.0,1.0,17.0,0.0,650.212422600016,,,,,,,,,650.1992822000757,651.0130307000363,651.8157457000343,651.7975516000297,651.7982713000383,651.8157457000343,651.8157457000343,651.8157457000343,,652.8169432000723,,,,,,,,,,,,,,,,,,,,,,,,,,,,,,left,1.0,0.9972455999813974,,,,,sub-160,1,random_dot,60.9884024167268,
right,right,18.0,0.0,9.0,right,1.0,1.5785972999874502,,speed,space,74.18895109998994,,,,,,0.0,1.0,1.0,1.0,9.0,0.0,18.0,1.0,652.8311837000074,,,,,,,,,652.8178109000437,654.0322658000514,654.8346810000949,654.8167438000673,654.8175004000077,654.8346810000949,654.8346810000949,654.8346810000949,,656.4207168000285,,,,,,,,,,,,,,,,,,,,,,,,,,,,,,right,1.0,1.5785972999874502,,,,,sub-160,1,random_dot,60.9884024167268,
left,left,19.0,1.0,9.0,left,1.0,2.834256300004199,,speed,space,74.18895109998994,,,,,,0.0,1.0,1.0,1.0,9.0,1.0,19.0,0.0,656.434861900052,,,,,,,,,656.4216100000776,657.2353941000765,658.0390569000738,658.0204997000983,658.0212258000392,658.0390569000738,658.0390569000738,658.0390569000738,,660.8751048000995,,,,,,,,,,,,,,,,,,,,,,,,,,,,,,left,1.0,2.834256300004199,,,,,sub-160,1,random_dot,60.9884024167268,
left,left,20.0,0.0,10.0,left,1.0,3.124026200035587,,speed,space,74.18895109998994,,,,,,0.0,1.0,1.0,1.0,10.0,0.0,20.0,0.0,660.8884549000068,,,,,,,,,660.8759847000474,662.0872593000531,662.8893898000242,662.871681699995,662.8724215000402,662.8893898000242,662.8893898000242,662.8893898000242,,666.0265674000839,,,,,,,,,,,,,,,,,,,,,,,,,,,,,,left,1.0,3.124026200035587,,,,,sub-160,1,random_dot,60.9884024167268,
right,right,21.0,1.0,10.0,right,1.0,1.0603356999345124,,speed,space,74.18895109998994,,,,,,0.0,1.0,1.0,1.0,10.0,1.0,21.0,1.0,666.0404858000111,,,,,,,,,666.0274248000933,666.1405374000315,666.9429659000598,666.9251396000618,666.9258786999853,666.9429659000598,666.9429659000598,666.9429659000598,,668.0119263000088,,,,,,,,,,,,,,,,,,,,,,,,,,,,,,right,1.0,1.0603356999345124,,,,,sub-160,1,random_dot,60.9884024167268,
right,right,22.0,0.0,11.0,right,1.0,1.214007900096476,,speed,space,74.18895109998994,,,,,,0.0,1.0,1.0,1.0,11.0,0.0,22.0,1.0,668.0258573000319,,,,,,,,,668.0128980000736,668.3765901000006,669.1793421000475,669.1610548000317,669.1618698000675,669.1793421000475,669.1793421000475,669.1793421000475,,670.3954435000196,,,,,,,,,,,,,,,,,,,,,,,,,,,,,,right,1.0,1.214007900096476,,,,,sub-160,1,random_dot,60.9884024167268,
left,left,23.0,1.0,11.0,left,1.0,0.9704195000231266,,speed,space,74.18895109998994,,,,,,0.0,1.0,1.0,1.0,11.0,1.0,23.0,0.0,670.4096838000696,,,,,,,,,670.3963063000701,670.7598056000425,671.5624085000018,671.5438988000387,671.5443960000994,671.5624085000018,671.5624085000018,671.5624085000018,,672.5472680000821,,,,,,,,,,,,,,,,,,,,,,,,,,,,,,left,1.0,0.9704195000231266,,,,,sub-160,1,random_dot,60.9884024167268,
left,left,24.0,0.0,12.0,right,0.0,0.9888110999017954,,speed,space,74.18895109998994,,,,,,0.0,1.0,1.0,1.0,12.0,0.0,24.0,0.0,672.5610476000002,,,,,,,,,672.548035099986,672.6611336000497,673.4639655000065,673.4455009000376,673.4459008000558,673.4639655000065,673.4639655000065,673.4639655000065,,674.465880600037,,,,,,,,,,,,,,,,,,,,,,,,,,,,,,right,0.0,0.9888110999017954,,,,,sub-160,1,random_dot,60.9884024167268,
right,right,25.0,1.0,12.0,right,1.0,1.329138199915178,,speed,space,74.18895109998994,,,,,,0.0,1.0,1.0,1.0,12.0,1.0,25.0,1.0,674.4797118999995,,,,,,,,,674.4663448000792,674.5798006000696,675.3836727000307,675.3652317000087,675.3659013999859,675.3836727000307,675.3836727000307,675.3836727000307,,676.7182780000148,,,,,,,,,,,,,,,,,,,,,,,,,,,,,,right,1.0,1.329138199915178,,,,,sub-160,1,random_dot,60.9884024167268,
right,right,26.0,0.0,13.0,right,1.0,1.9899088999954984,,speed,space,74.18895109998994,,,,,,0.0,1.0,1.0,1.0,13.0,0.0,26.0,1.0,676.7320560000371,,,,,,,,,676.7187486999901,677.5306513000978,678.3334624000126,678.3156604000833,678.3163673999952,678.3334624000126,678.3334624000126,678.3334624000126,,680.336310200044,,,,,,,,,,,,,,,,,,,,,,,,,,,,,,right,1.0,1.9899088999954984,,,,,sub-160,1,random_dot,60.9884024167268,
left,left,27.0,1.0,13.0,left,1.0,2.2603908999590203,,speed,space,74.18895109998994,,,,,,0.0,1.0,1.0,1.0,13.0,1.0,27.0,0.0,680.3503296000417,,,,,,,,,680.337135000038,680.4506180000026,681.2531241000397,681.2351493000751,681.2359007000923,681.2531241000397,681.2531241000397,681.2531241000397,,683.5214484999888,,,,,,,,,,,,,,,,,,,,,,,,,,,,,,left,1.0,2.2603908999590203,,,,,sub-160,1,random_dot,60.9884024167268,
left,left,28.0,0.0,14.0,left,1.0,1.845157299889252,,speed,space,74.18895109998994,,,,,,0.0,1.0,1.0,1.0,14.0,0.0,28.0,0.0,683.5356045000954,,,,,,,,,683.5223618000746,683.8858409000095,684.6883288000245,684.6699591000797,684.6707136000041,684.6883288000245,684.6883288000245,684.6883288000245,,686.5406693000114,,,,,,,,,,,,,,,,,,,,,,,,,,,,,,left,1.0,1.845157299889252,,,,,sub-160,1,random_dot,60.9884024167268,
right,right,29.0,1.0,14.0,right,1.0,0.9160389999160544,,speed,space,74.18895109998994,,,,,,0.0,1.0,1.0,1.0,14.0,1.0,29.0,1.0,686.5544701000908,,,,,,,,,686.5415375999874,686.9044320000103,687.7071207000408,687.689151300001,687.6899228000548,687.7071207000408,687.7071207000408,687.7071207000408,,688.6256984000793,,,,,,,,,,,,,,,,,,,,,,,,,,,,,,right,1.0,0.9160389999160544,,,,,sub-160,1,random_dot,60.9884024167268,
right,right,30.0,0.0,15.0,left,0.0,3.3632421999936923,,speed,space,74.18895109998994,,,,,,0.0,1.0,1.0,1.0,15.0,0.0,30.0,1.0,688.6397196000908,,,,,,,,,688.6266714000376,689.4392051000614,690.2412777000573,690.2232511000475,690.2235752000706,690.2412777000573,690.2412777000573,690.2412777000573,,693.6124292000895,,,,,,,,,,,,,,,,,,,,,,,,,,,,,,left,0.0,3.3632421999936923,,,,,sub-160,1,random_dot,60.9884024167268,
left,left,31.0,1.0,15.0,left,1.0,1.8638774000573903,,speed,space,74.18895109998994,,,,,,0.0,1.0,1.0,1.0,15.0,1.0,31.0,0.0,693.6265514000552,,,,,,,,,693.6133230000269,693.7269584999885,694.530193899991,694.51147830009,694.5122064000461,694.530193899991,694.530193899991,694.530193899991,,696.3995199000929,,,,,,,,,,,,,,,,,,,,,,,,,,,,,,left,1.0,1.8638774000573903,,,,,sub-160,1,random_dot,60.9884024167268,
left,left,32.0,0.0,16.0,left,1.0,2.6041360000381246,,speed,space,74.18895109998994,,,,,,0.0,1.0,1.0,1.0,16.0,0.0,32.0,0.0,696.4128711000085,,,,,,,,,696.4003973000217,697.2135261000367,698.0302779000485,698.0125272000441,698.0132832000963,698.0302779000485,698.0302779000485,698.0302779000485,,700.6501220000209,,,,,,,,,,,,,,,,,,,,,,,,,,,,,,left,1.0,2.6041360000381246,,,,,sub-160,1,random_dot,60.9884024167268,
right,right,33.0,1.0,16.0,right,1.0,0.9863765999907628,,speed,space,74.18895109998994,,,,,,0.0,1.0,1.0,1.0,16.0,1.0,33.0,1.0,700.66417740006,,,,,,,,,700.6510050999932,701.8655997000169,702.668355800095,702.6502218000824,702.6509857000783,702.668355800095,702.668355800095,702.668355800095,,703.6715505000902,,,,,,,,,,,,,,,,,,,,,,,,,,,,,,right,1.0,0.9863765999907628,,,,,sub-160,1,random_dot,60.9884024167268,
left,left,34.0,0.0,17.0,left,1.0,1.555539600085467,,speed,space,74.18895109998994,,,,,,0.0,1.0,1.0,1.0,17.0,0.0,34.0,0.0,703.6844877999974,,,,,,,,,703.6724558999995,704.0349582000636,704.8382094000699,704.8192623000359,704.8199882000918,704.8382094000699,704.8382094000699,704.8382094000699,,706.4056044000899,,,,,,,,,,,,,,,,,,,,,,,,,,,,,,left,1.0,1.555539600085467,,,,,sub-160,1,random_dot,60.9884024167268,
right,right,35.0,1.0,17.0,right,1.0,1.2507862999336794,,speed,space,74.18895109998994,,,,,,0.0,1.0,1.0,1.0,17.0,1.0,35.0,1.0,706.4191209999844,,,,,,,,,706.4060741000576,707.2198358000023,708.0230188000714,708.0041357000591,708.0047387999948,708.0230188000714,708.0230188000714,708.0230188000714,,709.2886206000112,,,,,,,,,,,,,,,,,,,,,,,,,,,,,,right,1.0,1.2507862999336794,,,,,sub-160,1,random_dot,60.9884024167268,
left,left,36.0,0.0,18.0,right,0.0,2.202824999927543,,speed,space,74.18895109998994,,,,,,0.0,1.0,1.0,1.0,18.0,0.0,36.0,0.0,709.3024612000445,,,,,,,,,709.28921060008,710.4892439000541,711.2916913999943,711.2731663000304,711.2737426999956,711.2916913999943,711.2916913999943,711.2916913999943,,713.5114091000287,,,,,,,,,,,,,,,,,,,,,,,,,,,,,,right,0.0,2.202824999927543,,,,,sub-160,1,random_dot,60.9884024167268,
right,right,37.0,1.0,18.0,right,1.0,1.8361195999896156,,speed,space,74.18895109998994,,,,,,0.0,1.0,1.0,1.0,18.0,1.0,37.0,1.0,713.524579500081,,,,,,,,,713.5122381000547,714.3253009000327,715.1281695000362,715.1095466000261,715.1101861000061,715.1281695000362,715.1281695000362,715.1281695000362,,716.9807251000311,,,,,,,,,,,,,,,,,,,,,,,,,,,,,,right,1.0,1.8361195999896156,,,,,sub-160,1,random_dot,60.9884024167268,
left,left,38.0,0.0,19.0,left,1.0,1.3470066000008956,,speed,space,74.18895109998994,,,,,,0.0,1.0,1.0,1.0,19.0,0.0,38.0,0.0,716.9936275000218,,,,,,,,,716.9816208999837,717.3439432000741,718.1470506000333,718.1284949000692,718.1292546000332,718.1470506000333,718.1470506000333,718.1470506000333,,719.4959910000907,,,,,,,,,,,,,,,,,,,,,,,,,,,,,,left,1.0,1.3470066000008956,,,,,sub-160,1,random_dot,60.9884024167268,
right,right,39.0,1.0,19.0,right,1.0,1.06061329995282,,speed,space,74.18895109998994,,,,,,0.0,1.0,1.0,1.0,19.0,1.0,39.0,1.0,719.5102703000885,,,,,,,,,719.4968608000781,720.3109264000086,721.1138269000221,721.0962159000337,721.0975321000442,721.1138269000221,721.1138269000221,721.1138269000221,,722.1811028000666,,,,,,,,,,,,,,,,,,,,,,,,,,,,,,right,1.0,1.06061329995282,,,,,sub-160,1,random_dot,60.9884024167268,
right,right,40.0,0.0,20.0,right,1.0,1.0765945999883115,,speed,space,74.18895109998994,,,,,,0.0,1.0,1.0,1.0,20.0,0.0,40.0,1.0,722.1951970000518,,,,,,,,,722.1820390000939,722.2953578000888,723.0979588000337,723.079535100027,723.0802900000708,723.0979588000337,723.0979588000337,723.0979588000337,,724.1823572000721,,,,,,,,,,,,,,,,,,,,,,,,,,,,,,right,1.0,1.0765945999883115,,,,,sub-160,1,random_dot,60.9884024167268,
left,left,41.0,1.0,20.0,left,1.0,1.743976300000213,,speed,space,74.18895109998994,,,,,,0.0,1.0,1.0,1.0,20.0,1.0,41.0,0.0,724.1966893000063,,,,,,,,,724.183190700016,725.3976636000443,726.2001956000458,726.1822127000196,726.1830455000745,726.2001956000458,726.2001956000458,726.2001956000458,,727.9533578000264,,,,,,,,,,,,,,,,,,,,,,,,,,,,,,left,1.0,1.743976300000213,,,,,sub-160,1,random_dot,60.9884024167268,
right,right,42.0,0.0,21.0,left,0.0,2.8134324999991804,,speed,space,74.18895109998994,,,,,,0.0,1.0,1.0,1.0,21.0,0.0,42.0,1.0,727.9665172999958,,,,,,,,,727.9546856000088,728.316692500026,729.1206550000934,729.1022699000314,729.1029629000695,729.1206550000934,729.1206550000934,729.1206550000934,,731.9405085000908,,,,,,,,,,,,,,,,,,,,,,,,,,,,,,left,0.0,2.8134324999991804,,,,,sub-160,1,random_dot,60.9884024167268,
left,left,43.0,1.0,21.0,left,1.0,1.7071953000267968,,speed,space,74.18895109998994,,,,,,0.0,1.0,1.0,1.0,21.0,1.0,43.0,0.0,731.9538951000432,,,,,,,,,731.9413041000953,732.0540209000465,732.8572709000437,732.8381168000633,732.8387593000662,732.8572709000437,732.8572709000437,732.8572709000437,,734.5727484000381,,,,,,,,,,,,,,,,,,,,,,,,,,,,,,left,1.0,1.7071953000267968,,,,,sub-160,1,random_dot,60.9884024167268,
right,right,44.0,0.0,22.0,right,1.0,1.6046651999931782,,speed,space,74.18895109998994,,,,,,0.0,1.0,1.0,1.0,22.0,0.0,44.0,1.0,734.5870154000586,,,,,,,,,734.5735964000924,734.9373752000974,735.7395286000101,735.7218867000192,735.7226019999944,735.7395286000101,735.7395286000101,735.7395286000101,,737.3589226000477,,,,,,,,,,,,,,,,,,,,,,,,,,,,,,right,1.0,1.6046651999931782,,,,,sub-160,1,random_dot,60.9884024167268,
left,left,45.0,1.0,22.0,left,1.0,1.2477420000359416,,speed,space,74.18895109998994,,,,,,0.0,1.0,1.0,1.0,22.0,1.0,45.0,0.0,737.3725371999899,,,,,,,,,737.3597521000775,738.5737277000444,739.3764446000569,739.3583742000628,739.3591206000419,739.3764446000569,739.3764446000569,739.3764446000569,,740.6289851000765,,,,,,,,,,,,,,,,,,,,,,,,,,,,,,left,1.0,1.2477420000359416,,,,,sub-160,1,random_dot,60.9884024167268,
right,right,46.0,0.0,23.0,right,1.0,0.9771611000178382,,speed,space,74.18895109998994,,,,,,0.0,1.0,1.0,1.0,23.0,0.0,46.0,1.0,740.6427917000838,,,,,,,,,740.6298449999886,741.8435614000773,742.6466488000005,742.6277935000835,742.6282343000639,742.6466488000005,742.6466488000005,742.6466488000005,,743.6308516000863,,,,,,,,,,,,,,,,,,,,,,,,,,,,,,right,1.0,0.9771611000178382,,,,,sub-160,1,random_dot,60.9884024167268,
left,left,47.0,1.0,23.0,left,1.0,1.3150219999952242,,speed,space,74.18895109998994,,,,,,0.0,1.0,1.0,1.0,23.0,1.0,47.0,0.0,743.6446993000573,,,,,,,,,743.6312252000207,744.8457068999996,745.649006600026,745.6307107000612,745.6313510000473,745.649006600026,745.649006600026,745.649006600026,,746.9669949000236,,,,,,,,,,,,,,,,,,,,,,,,,,,,,,left,1.0,1.3150219999952242,,,,,sub-160,1,random_dot,60.9884024167268,
right,right,48.0,0.0,24.0,right,1.0,1.569459900027141,,speed,space,74.18895109998994,,,,,,0.0,1.0,1.0,1.0,24.0,0.0,48.0,1.0,746.9803412000183,,,,,,,,,746.9674712000415,748.181912500062,748.9847411999945,748.9661199999973,748.9667790000094,748.9847411999945,748.9847411999945,748.9847411999945,,750.570495699998,,,,,,,,,,,,,,,,,,,,,,,,,,,,,,right,1.0,1.569459900027141,,,,,sub-160,1,random_dot,60.9884024167268,
left,left,49.0,1.0,24.0,left,1.0,0.9477899000048636,,speed,space,74.18895109998994,,,,,,0.0,1.0,1.0,1.0,24.0,1.0,49.0,0.0,750.5833908000495,,,,,,,,,750.5714727999875,750.6834835000336,751.486776500009,751.4678771999897,751.4685975000029,751.486776500009,751.486776500009,751.486776500009,,752.4383125000168,,,,,,,,,,,,,,,,,,,,,,,,,,,,,,left,1.0,0.9477899000048636,,,,,sub-160,1,random_dot,60.9884024167268,
left,left,50.0,0.0,25.0,left,1.0,1.3900974999414757,,speed,space,74.18895109998994,,,,,,0.0,1.0,1.0,1.0,25.0,0.0,50.0,0.0,752.4513146000681,,,,,,,,,752.4392007000279,752.8017940000864,753.6044729000423,753.5862343000481,753.5870000000577,753.6044729000423,753.6044729000423,753.6044729000423,,755.006479700096,,,,,,,,,,,,,,,,,,,,,,,,,,,,,,left,1.0,1.3900974999414757,,,,,sub-160,1,random_dot,60.9884024167268,
right,right,51.0,1.0,25.0,right,1.0,1.1516082000453025,,speed,space,74.18895109998994,,,,,,0.0,1.0,1.0,1.0,25.0,1.0,51.0,1.0,755.0197700000135,,,,,,,,,755.007348800078,755.1198760000989,755.9229431999847,755.9043823000975,755.9051006000955,755.9229431999847,755.9229431999847,755.9229431999847,,757.0913259000517,,,,,,,,,,,,,,,,,,,,,,,,,,,,,,right,1.0,1.1516082000453025,,,,,sub-160,1,random_dot,60.9884024167268,
right,right,52.0,0.0,26.0,right,1.0,1.7359785999869928,,speed,space,74.18895109998994,,,,,,0.0,1.0,1.0,1.0,26.0,0.0,52.0,1.0,757.1045219000662,,,,,,,,,757.0922326000873,757.4549646000378,758.2582866000012,758.2393314000219,758.2400497000199,758.2582866000012,758.2582866000012,758.2582866000012,,760.0098457999993,,,,,,,,,,,,,,,,,,,,,,,,,,,,,,right,1.0,1.7359785999869928,,,,,sub-160,1,random_dot,60.9884024167268,
left,left,53.0,1.0,26.0,left,1.0,0.9972439999692142,,speed,space,74.18895109998994,,,,,,0.0,1.0,1.0,1.0,26.0,1.0,53.0,0.0,760.0232074999949,,,,,,,,,760.0107401000569,761.2242107000202,762.0271000000648,762.008491500048,762.0091316000326,762.0271000000648,762.0271000000648,762.0271000000648,,763.0286643999862,,,,,,,,,,,,,,,,,,,,,,,,,,,,,,left,1.0,0.9972439999692142,,,,,sub-160,1,random_dot,60.9884024167268,
right,right,54.0,0.0,27.0,left,0.0,2.7096210999879986,,speed,space,74.18895109998994,,,,,,0.0,1.0,1.0,1.0,27.0,0.0,54.0,1.0,763.0418534000637,,,,,,,,,763.0295609000605,763.8425829000771,764.6458388000028,764.6268850000342,764.6276361000491,764.6458388000028,764.6458388000028,764.6458388000028,,767.3646753000794,,,,,,,,,,,,,,,,,,,,,,,,,,,,,,left,0.0,2.7096210999879986,,,,,sub-160,1,random_dot,60.9884024167268,
left,left,55.0,1.0,27.0,left,1.0,1.463672299985774,,speed,space,74.18895109998994,,,,,,0.0,1.0,1.0,1.0,27.0,1.0,55.0,0.0,767.3782020000508,,,,,,,,,767.3655526000075,767.4785190999974,768.2814508000156,768.2630981000839,768.2638370000059,768.2814508000156,768.2814508000156,768.2814508000156,,769.7499234999996,,,,,,,,,,,,,,,,,,,,,,,,,,,,,,left,1.0,1.463672299985774,,,,,sub-160,1,random_dot,60.9884024167268,
right,right,56.0,0.0,28.0,right,1.0,1.0613076000008732,,speed,space,74.18895109998994,,,,,,0.0,1.0,1.0,1.0,28.0,0.0,56.0,1.0,769.7632083999924,,,,,,,,,769.7507948999992,770.5619444000768,771.3642010000767,771.3462885000044,771.3472725000465,771.3642010000767,771.3642010000767,771.3642010000767,,772.4322317000479,,,,,,,,,,,,,,,,,,,,,,,,,,,,,,right,1.0,1.0613076000008732,,,,,sub-160,1,random_dot,60.9884024167268,
left,left,57.0,1.0,28.0,left,1.0,1.516356599982828,,speed,space,74.18895109998994,,,,,,0.0,1.0,1.0,1.0,28.0,1.0,57.0,0.0,772.4462021000218,,,,,,,,,772.4330881000496,772.5465847000014,773.3489000000991,773.3311587000499,773.3319170000032,773.3489000000991,773.3489000000991,773.3489000000991,,774.8678933000192,,,,,,,,,,,,,,,,,,,,,,,,,,,,,,left,1.0,1.516356599982828,,,,,sub-160,1,random_dot,60.9884024167268,
right,right,58.0,0.0,29.0,right,1.0,0.8588182999519631,,speed,space,74.18895109998994,,,,,,0.0,1.0,1.0,1.0,29.0,0.0,58.0,1.0,774.8819295000285,,,,,,,,,774.8690829999978,776.0828079000348,776.8858601000393,776.8671624000417,776.8677565000253,776.8858601000393,776.8858601000393,776.8858601000393,,777.7541090000886,,,,,,,,,,,,,,,,,,,,,,,,,,,,,,right,1.0,0.8588182999519631,,,,,sub-160,1,random_dot,60.9884024167268,
left,left,59.0,1.0,29.0,left,1.0,0.9639984999084844,,speed,space,74.18895109998994,,,,,,0.0,1.0,1.0,1.0,29.0,1.0,59.0,0.0,777.7677871000487,,,,,,,,,777.754602800007,777.8683596000774,778.6714027000125,778.6526391000953,778.6530412000138,778.6714027000125,778.6714027000125,778.6714027000125,,779.6393745000241,,,,,,,,,,,,,,,,,,,,,,,,,,,,,,left,1.0,0.9639984999084844,,,,,sub-160,1,random_dot,60.9884024167268,
,,1.0,1.0,0.0,,,,,speed,space,74.18895109998994,,,,,,0.0,1.0,1.0,1.0,,,,,,,,,,,,,,,,,,,,,,,,,,,,,,,,,,,,,,,,,,,,,,,,,,,,,,,,,,,,sub-160,1,random_dot,60.9884024167268,
,,,,,,,,,,,,,,,,,,,,,,,,,,,,,,,,,,,,,,,,,,,,,,,,,,,,,,,,,,,,,,,,,,,,,,,,,,,,,779.6470219000475,779.6565381000983,784.6407169000013,sub-160,1,random_dot,60.9884024167268,
