wordCTK,colorCTK,corrAnsCTK,congruentCTK,thisN,thisTrialN,thisRepN,keyResp_CTK.keys,keyResp_CTK.corr,keyResp_CTK.rt,keyResp_CTK.duration,wordPractice,colorPractice,corrAnsPractice,congruentPractice,respPractice.keys,respPractice.corr,respPractice.rt,respPractice.duration,word,color,corrAns,congruent,keyResp_test_run.keys,keyResp_test_run.corr,keyResp_test_run.rt,keyResp_test_run.duration,trials_CTK.thisRepN,trials_CTK.thisTrialN,trials_CTK.thisN,trials_CTK.thisIndex,trials_practice.thisRepN,trials_practice.thisTrialN,trials_practice.thisN,trials_practice.thisIndex,trials_test.thisRepN,trials_test.thisTrialN,trials_test.thisN,trials_test.thisIndex,thisRow.t,notes,instruction.started,instr_text.started,instr_image.started,instr_resp.started,instruction.stopped,instr_resp.keys,instr_resp.rt,instr_resp.duration,instr_color_to_key.started,instr_ctk.started,resp_ctk.started,instr_color_to_key.stopped,resp_ctk.keys,resp_ctk.rt,resp_ctk.duration,ITI.started,fixcross.started,fixcross.stopped,ITI.stopped,color_to_key_run.started,stimulus_CTK.started,keyResp_CTK.started,color_to_key_run.stopped,trials_CTK.keyResp_CTK.keys,trials_CTK.keyResp_CTK.corr,trials_CTK.keyResp_CTK.rt,trials_CTK.keyResp_CTK.duration,instr_practice.started,instr_practice_text.started,instr_practice_resp.started,instr_practice.stopped,instr_practice_resp.keys,instr_practice_resp.rt,instr_practice_resp.duration,practice_run.started,stimulus_practice.started,respPractice.started,practice_run.stopped,trials_practice.respPractice.keys,trials_practice.respPractice.corr,trials_practice.respPractice.rt,trials_practice.respPractice.duration,feedback.started,textFeedback.started,feedback.stopped,textFeedback.stopped,instr_test.started,instr_test_text.started,instr_test_resp.started,instr_test.stopped,instr_test_resp.keys,instr_test_resp.rt,instr_test_resp.duration,test_run.started,stimulus_test_run.started,keyResp_test_run.started,test_run.stopped,trials_test.keyResp_test_run.keys,trials_test.keyResp_test_run.corr,trials_test.keyResp_test_run.rt,trials_test.keyResp_test_run.duration,goodbye.started,textGoodbye.started,textGoodbye.stopped,goodbye.stopped,participant,session,expName,frameRate,Unnamed: 113
,,,,,,,,,,,,,,,,,,,,,,,,,,,,,,,,,,,,,,,,,0.0061865419993409,0.012566457997309,0.012566457997309,0.012566457997309,6.679739625004004,space,6.552326458011521,,,,,,,,,,,,,,,,,,,,,,,,,,,,,,,,,,,,,,,,,,,,,,,,,,,,,,,,,,,sub-046,1,stroop_test,,
,,,,,,,,,,,,,,,,,,,,,,,,,,,,,,,,,,,,,,,,,,,,,,,,,6.679773791998741,6.686480582997319,6.686480582997319,20.654311249993043,space,13.963104208000004,,,,,,,,,,,,,,,,,,,,,,,,,,,,,,,,,,,,,,,,,,,,,,,,,,,,sub-046,1,stroop_test,,
test,blue,b,1.0,0.0,0.0,0.0,b,1.0,0.8252967910084408,,,,,,,,,,,,,,,,,,0.0,0.0,0.0,2.0,,,,,,,,,20.693109999992885,,,,,,,,,,,,,,,,,20.67628883299767,22.026927333005005,22.82818429199688,22.81350020799437,22.8216521669965,22.82818429199688,22.82818429199688,23.664693500002613,b,1.0,0.8252967910084408,,,,,,,,,,,,,,,,,,,,,,,,,,,,,,,,,,,,,,,,sub-046,1,stroop_test,,
test,yellow,g,1.0,1.0,1.0,0.0,g,1.0,0.4078696250071516,,,,,,,,,,,,,,,,,,0.0,1.0,1.0,1.0,,,,,,,,,23.67523062499822,,,,,,,,,,,,,,,,,23.66515783300565,24.86349175000214,25.65566266700625,25.64739508299681,25.64841041699401,25.65566266700625,25.65566266700625,26.06561975000659,g,1.0,0.4078696250071516,,,,,,,,,,,,,,,,,,,,,,,,,,,,,,,,,,,,,,,,sub-046,1,stroop_test,,
test,red,r,1.0,2.0,2.0,0.0,r,1.0,0.398130667002988,,,,,,,,,,,,,,,,,,0.0,2.0,2.0,0.0,,,,,,,,,26.071669375000056,,,,,,,,,,,,,,,,,26.06658425000205,27.263581749997684,28.055238500004634,28.04739083300228,28.0483775419998,28.055238500004634,28.055238500004634,28.465359708003238,r,1.0,0.398130667002988,,,,,,,,,,,,,,,,,,,,,,,,,,,,,,,,,,,,,,,,sub-046,1,stroop_test,,
test,blue,b,1.0,3.0,0.0,1.0,b,1.0,0.4430203750089276,,,,,,,,,,,,,,,,,,1.0,0.0,3.0,2.0,,,,,,,,,28.47643183299806,,,,,,,,,,,,,,,,,28.46621800000139,28.813666957998063,29.605401624998198,29.59735179200652,29.59831679200579,29.605401624998198,29.605401624998198,30.054367292003008,b,1.0,0.4430203750089276,,,,,,,,,,,,,,,,,,,,,,,,,,,,,,,,,,,,,,,,sub-046,1,stroop_test,,
test,red,r,1.0,4.0,1.0,1.0,r,1.0,0.2728080840024631,,,,,,,,,,,,,,,,,,1.0,1.0,4.0,0.0,,,,,,,,,30.06583337500342,,,,,,,,,,,,,,,,,30.054934792002317,30.40294929199445,31.204620916993008,31.197210500002257,31.19797366700368,31.204620916993008,31.204620916993008,31.48166391700215,r,1.0,0.2728080840024631,,,,,,,,,,,,,,,,,,,,,,,,,,,,,,,,,,,,,,,,sub-046,1,stroop_test,,
test,yellow,g,1.0,5.0,2.0,1.0,g,1.0,0.3286434170004213,,,,,,,,,,,,,,,,,,1.0,2.0,5.0,1.0,,,,,,,,,31.49268170799769,,,,,,,,,,,,,,,,,31.48228591699444,31.579619166994235,32.37175620799826,32.36392520800291,32.364946917005,32.37175620799826,32.37175620799826,32.70452608300548,g,1.0,0.3286434170004213,,,,,,,,,,,,,,,,,,,,,,,,,,,,,,,,,,,,,,,,sub-046,1,stroop_test,,
test,red,r,1.0,6.0,0.0,2.0,r,1.0,0.4274258329969598,,,,,,,,,,,,,,,,,,2.0,0.0,6.0,0.0,,,,,,,,,32.71532387500338,,,,,,,,,,,,,,,,,32.70496995799476,33.90319404199545,34.695856082995306,34.686266832999536,34.68686341699504,34.695856082995306,34.695856082995306,35.13215933300671,r,1.0,0.4274258329969598,,,,,,,,,,,,,,,,,,,,,,,,,,,,,,,,,,,,,,,,sub-046,1,stroop_test,,
test,yellow,g,1.0,7.0,1.0,2.0,g,1.0,0.6539386670046952,,,,,,,,,,,,,,,,,,2.0,1.0,7.0,1.0,,,,,,,,,35.14314783300506,,,,,,,,,,,,,,,,,35.13293145799253,35.48030008299975,36.27141970800585,36.263401167001575,36.264437707999605,36.27141970800585,36.27141970800585,36.93201408299501,g,1.0,0.6539386670046952,,,,,,,,,,,,,,,,,,,,,,,,,,,,,,,,,,,,,,,,sub-046,1,stroop_test,,
test,blue,b,1.0,8.0,2.0,2.0,b,1.0,0.3441210419987328,,,,,,,,,,,,,,,,,,2.0,2.0,8.0,2.0,,,,,,,,,36.94355845800601,,,,,,,,,,,,,,,,,36.932897958002286,37.73010458299541,38.52216187499289,38.51406691700686,38.51504179199401,38.52216187499289,38.52216187499289,38.870414499993785,b,1.0,0.3441210419987328,,,,,,,,,,,,,,,,,,,,,,,,,,,,,,,,,,,,,,,,sub-046,1,stroop_test,,
test,blue,b,1.0,9.0,0.0,3.0,b,1.0,0.4337433750042692,,,,,,,,,,,,,,,,,,3.0,0.0,9.0,2.0,,,,,,,,,38.8817379999964,,,,,,,,,,,,,,,,,38.87087741699361,40.06853062499431,40.8633944579924,40.8525467080035,40.853180707999854,40.8633944579924,40.8633944579924,41.30433158300002,b,1.0,0.4337433750042692,,,,,,,,,,,,,,,,,,,,,,,,,,,,,,,,,,,,,,,,sub-046,1,stroop_test,,
test,yellow,g,1.0,10.0,1.0,3.0,g,1.0,0.4923929999931715,,,,,,,,,,,,,,,,,,3.0,1.0,10.0,1.0,,,,,,,,,41.31521170800261,,,,,,,,,,,,,,,,,41.3047876250057,41.65192429200397,42.44669070800592,42.43593254199368,42.43653462499788,42.44669070800592,42.44669070800592,42.94814024999505,g,1.0,0.4923929999931715,,,,,,,,,,,,,,,,,,,,,,,,,,,,,,,,,,,,,,,,sub-046,1,stroop_test,,
test,red,r,1.0,11.0,2.0,3.0,r,1.0,0.2263929159962572,,,,,,,,,,,,,,,,,,3.0,2.0,11.0,0.0,,,,,,,,,42.9585506250005,,,,,,,,,,,,,,,,,42.94858037499944,43.747009792001336,44.538675250005326,44.53054387499287,44.53151141699345,44.538675250005326,44.538675250005326,44.76895300000615,r,1.0,0.2263929159962572,,,,,,,,,,,,,,,,,,,,,,,,,,,,,,,,,,,,,,,,sub-046,1,stroop_test,,
,,,,,,,,,,,,,,,,,,,,,,,,,,,,,,,,,,,,,,,,,,,,,,,,,,,,,,,,,,,,,,,,,,,,44.76917545800097,44.78221416700399,44.78221416700399,50.91531962499721,space,6.127595666999696,,,,,,,,,,,,,,,,,,,,,,,,,,,,,,,,,sub-046,1,stroop_test,,
,,,,0.0,0.0,0.0,,,,,gelb,yellow,g,1.0,g,1.0,0.6711567499878583,,,,,,,,,,,,,,0.0,0.0,0.0,11.0,,,,,50.93961462499283,,,,,,,,,,,,,,,,,50.93199324999296,52.1134832079988,52.91213012499793,52.89733991700632,,,,,,,,,,,,,,,,52.90528224999434,52.91213012499793,52.91213012499793,53.58725425000012,g,1.0,0.6711567499878583,,53.59497358299268,53.6038069579954,54.596898542004055,,,,,,,,,,,,,,,,,,,,,sub-046,1,stroop_test,,
,,,,1.0,1.0,0.0,,,,,blau,blue,b,1.0,b,1.0,0.4716275419923477,,,,,,,,,,,,,,0.0,1.0,1.0,5.0,,,,,54.60169283300638,,,,,,,,,,,,,,,,,54.59747900000366,54.68606108300446,55.48252041700471,55.46957795799244,,,,,,,,,,,,,,,,55.47661362499639,55.48252041700471,55.48252041700471,55.96546604200557,b,1.0,0.4716275419923477,,55.9664003749931,55.97654425000656,56.96387720799248,56.96961816700059,,,,,,,,,,,,,,,,,,,,sub-046,1,stroop_test,,
,,,,2.0,2.0,0.0,,,,,rot,red,r,1.0,r,1.0,0.4441709999955492,,,,,,,,,,,,,,0.0,2.0,2.0,1.0,,,,,56.96961816700059,,,,,,,,,,,,,,,,,56.964555458005634,58.1634383329947,58.960975750000216,58.94721854200179,,,,,,,,,,,,,,,,58.9540552499966,58.960975750000216,58.960975750000216,59.41541237500496,r,1.0,0.4441709999955492,,59.41648699999496,59.42656733299373,60.4136712920008,60.41884966699581,,,,,,,,,,,,,,,,,,,,sub-046,1,stroop_test,,
,,,,3.0,3.0,0.0,,,,,rot,yellow,g,0.0,g,1.0,1.091079958001501,,,,,,,,,,,,,,0.0,3.0,3.0,3.0,,,,,60.41884966699581,,,,,,,,,,,,,,,,,60.41418329199951,60.763512125005946,61.55503899999894,61.54717220799648,,,,,,,,,,,,,,,,61.548135542005184,61.55503899999894,61.55503899999894,62.64809516699461,g,1.0,1.091079958001501,,62.648989207998966,62.65922474999388,63.6471089169936,63.652895042003365,,,,,,,,,,,,,,,,,,,,sub-046,1,stroop_test,,
,,,,4.0,4.0,0.0,,,,,gelb,blue,b,0.0,b,1.0,0.3667339590028859,,,,,,,,,,,,,,0.0,4.0,4.0,9.0,,,,,63.652895042003365,,,,,,,,,,,,,,,,,63.64779333300248,63.99693004200526,64.79228204200626,64.7805399170029,,,,,,,,,,,,,,,,64.7856397919968,64.79228204200626,64.79228204200626,65.16517862500041,b,1.0,0.3667339590028859,,65.16619716699643,65.17621299999882,66.16389129200252,66.16961320799601,,,,,,,,,,,,,,,,,,,,sub-046,1,stroop_test,,
,,,,5.0,5.0,0.0,,,,,blau,red,r,0.0,r,1.0,0.4962524170114193,,,,,,,,,,,,,,0.0,5.0,5.0,4.0,,,,,66.16961320799601,,,,,,,,,,,,,,,,,66.16454116700334,67.36334041699592,68.15869424999983,68.14722262500436,,,,,,,,,,,,,,,,68.15209162500105,68.15869424999983,68.15869424999983,68.66490666699247,r,1.0,0.4962524170114193,,68.66582054199534,68.67623145799735,69.66398970800219,69.66966949999915,,,,,,,,,,,,,,,,,,,,sub-046,1,stroop_test,,
,,,,6.0,6.0,0.0,,,,,gelb,red,r,0.0,r,1.0,0.5021301670058165,,,,,,,,,,,,,,0.0,6.0,6.0,8.0,,,,,69.66966949999915,,,,,,,,,,,,,,,,,69.66465966700343,70.01354558300227,70.80978745799803,70.79712649999419,,,,,,,,,,,,,,,,70.802698917003,70.80978745799803,70.80978745799803,71.31490012499853,r,1.0,0.5021301670058165,,71.3158778329962,71.32893020799384,72.31363916699775,72.31959699999425,,,,,,,,,,,,,,,,,,,,sub-046,1,stroop_test,,
,,,,7.0,7.0,0.0,,,,,rot,blue,b,0.0,b,1.0,0.5655784580012551,,,,,,,,,,,,,,0.0,7.0,7.0,2.0,,,,,72.31959699999425,,,,,,,,,,,,,,,,,72.31437904199993,72.41354649999994,73.20935649999592,73.19703129200207,,,,,,,,,,,,,,,,73.20206987499841,73.20935649999592,73.20935649999592,73.7817981249973,b,1.0,0.5655784580012551,,73.78271491700434,73.79495204199338,74.78075545800675,74.78649933300039,,,,,,,,,,,,,,,,,,,,sub-046,1,stroop_test,,
,,,,8.0,8.0,0.0,,,,,blau,blue,b,1.0,b,1.0,0.5380258340010187,,,,,,,,,,,,,,0.0,8.0,8.0,6.0,,,,,74.78649933300039,,,,,,,,,,,,,,,,,74.78141958299966,75.13000516699685,75.92583204200491,75.91397812499781,,,,,,,,,,,,,,,,75.91907420799544,75.92583204200491,75.92583204200491,76.47093770799984,b,1.0,0.5380258340010187,,76.4715834170056,76.48486229199625,77.46964779199334,77.4798553330038,,,,,,,,,,,,,,,,,,,,sub-046,1,stroop_test,,
,,,,9.0,9.0,0.0,,,,,gelb,yellow,g,1.0,g,1.0,0.5658607079967624,,,,,,,,,,,,,,0.0,9.0,9.0,10.0,,,,,77.4798553330038,,,,,,,,,,,,,,,,,77.47010099999898,78.66891316699912,79.47993712499738,79.45325720800611,,,,,,,,,,,,,,,,79.4568137919996,79.47993712499738,79.47993712499738,80.04837970799417,g,1.0,0.5658607079967624,,80.04963224999665,80.06181979199755,81.04743233299814,81.05296145800094,,,,,,,,,,,,,,,,,,,,sub-046,1,stroop_test,,
,,,,10.0,10.0,0.0,,,,,blau,yellow,g,0.0,g,1.0,0.5590382919908734,,,,,,,,,,,,,,0.0,10.0,10.0,7.0,,,,,81.05296145800094,,,,,,,,,,,,,,,,,81.04810358300165,82.2468065419962,83.04270116699627,83.03068574999634,,,,,,,,,,,,,,,,83.03602245799266,83.04270116699627,83.04270116699627,83.60415733300033,g,1.0,0.5590382919908734,,83.60498333300347,83.61782479200338,84.60316454200074,84.61364412499825,,,,,,,,,,,,,,,,,,,,sub-046,1,stroop_test,,
,,,,11.0,11.0,0.0,,,,,rot,red,r,1.0,r,1.0,0.5284965000028023,,,,,,,,,,,,,,0.0,11.0,11.0,0.0,,,,,84.61364412499825,,,,,,,,,,,,,,,,,84.60368204199767,84.95278495800449,85.75813479200588,85.74700641700474,,,,,,,,,,,,,,,,85.75123266699666,85.75813479200588,85.75813479200588,86.29842133300554,r,1.0,0.5284965000028023,,86.29936266700679,86.31165687499742,87.29741091700271,87.30294437499833,,,,,,,,,,,,,,,,,,,,sub-046,1,stroop_test,,
,,,,12.0,0.0,1.0,,,,,gelb,red,r,0.0,r,1.0,0.7530587500077672,,,,,,,,,,,,,,1.0,0.0,12.0,8.0,,,,,87.30294437499833,,,,,,,,,,,,,,,,,87.29809429199668,88.49689104199933,89.29251604199817,89.28079279199301,,,,,,,,,,,,,,,,89.2858251669968,89.29251604199817,89.29251604199817,90.04903624999861,r,1.0,0.7530587500077672,,90.05043287499575,90.06265791700571,91.0473510419979,91.0531167500012,,,,,,,,,,,,,,,,,,,,sub-046,1,stroop_test,,
,,,,13.0,1.0,1.0,,,,,gelb,yellow,g,1.0,g,1.0,0.5398769589955918,,,,,,,,,,,,,,1.0,1.0,13.0,10.0,,,,,91.0531167500012,,,,,,,,,,,,,,,,,91.0480238750024,91.39694525000232,92.18862729199464,92.18057995800336,,,,,,,,,,,,,,,,92.18156637500216,92.18862729199464,92.18862729199464,92.73207549999644,g,1.0,0.5398769589955918,,92.73340979199564,92.74555308300478,93.730597457994,93.7361688749952,,,,,,,,,,,,,,,,,,,,sub-046,1,stroop_test,,
,,,,14.0,2.0,1.0,,,,,gelb,yellow,g,1.0,g,1.0,0.4668965000018943,,,,,,,,,,,,,,1.0,2.0,14.0,11.0,,,,,93.7361688749952,,,,,,,,,,,,,,,,,93.73125712499314,94.53027287499572,95.32159708300604,95.31363333300396,,,,,,,,,,,,,,,,95.31468787499762,95.32159708300604,95.32159708300604,95.79884795799444,g,1.0,0.4668965000018943,,95.80008695799916,95.81230783299544,96.79737641700194,96.8032395420014,,,,,,,,,,,,,,,,,,,,sub-046,1,stroop_test,,
,,,,15.0,3.0,1.0,,,,,blau,blue,b,1.0,b,1.0,0.5320620840066113,,,,,,,,,,,,,,1.0,3.0,15.0,5.0,,,,,96.8032395420014,,,,,,,,,,,,,,,,,96.79808333299296,96.89663750000182,97.6934301250003,97.68058629200095,,,,,,,,,,,,,,,,97.68662462499924,97.6934301250003,97.6934301250003,98.23140079200677,b,1.0,0.5320620840066113,,98.23230887499813,98.24464033299591,99.23051845800364,99.23561049999262,,,,,,,,,,,,,,,,,,,,sub-046,1,stroop_test,,
,,,,16.0,4.0,1.0,,,,,rot,red,r,1.0,r,1.0,0.4517972500034375,,,,,,,,,,,,,,1.0,4.0,16.0,0.0,,,,,99.23561049999262,,,,,,,,,,,,,,,,,99.23102887500136,99.5802434579964,100.37655587500194,100.3641209579946,,,,,,,,,,,,,,,,100.369404416997,100.37655587500194,100.37655587500194,100.83185233299446,r,1.0,0.4517972500034375,,100.833208541997,100.84561729199775,101.83017687499525,101.83600920799654,,,,,,,,,,,,,,,,,,,,sub-046,1,stroop_test,,
,,,,17.0,5.0,1.0,,,,,rot,yellow,g,0.0,g,1.0,0.5672575839998899,,,,,,,,,,,,,,1.0,5.0,17.0,3.0,,,,,101.83600920799654,,,,,,,,,,,,,,,,,101.83090650000668,101.9301989999949,102.72194550000133,102.71407004199864,,,,,,,,,,,,,,,,102.71507649999694,102.72194550000133,102.72194550000133,103.2981974580034,g,1.0,0.5672575839998899,,103.29886929200438,103.31060266699932,104.2974697919999,104.30318291700678,,,,,,,,,,,,,,,,,,,,sub-046,1,stroop_test,,
,,,,18.0,6.0,1.0,,,,,blau,yellow,g,0.0,g,1.0,0.535530082997866,,,,,,,,,,,,,,1.0,6.0,18.0,7.0,,,,,104.30318291700678,,,,,,,,,,,,,,,,,104.29814675000672,105.4969444580056,106.29272045800462,106.2806133749982,,,,,,,,,,,,,,,,106.28591133300506,106.29272045800462,106.29272045800462,106.83196737499384,g,1.0,0.535530082997866,,106.83309933300188,106.84512820800592,107.83037433300342,107.83556216700526,,,,,,,,,,,,,,,,,,,,sub-046,1,stroop_test,,
,,,,19.0,7.0,1.0,,,,,blau,red,r,0.0,r,1.0,0.5644779999856837,,,,,,,,,,,,,,1.0,7.0,19.0,4.0,,,,,107.83556216700526,,,,,,,,,,,,,,,,,107.83091170800616,109.03017945800092,109.82167299999855,109.81401320800067,,,,,,,,,,,,,,,,109.8149916669936,109.82167299999855,109.82167299999855,110.38732516700112,r,1.0,0.5644779999856837,,110.38814366700537,110.40131829200254,111.38520741699904,111.3969743750058,,,,,,,,,,,,,,,,,,,,sub-046,1,stroop_test,,
,,,,20.0,8.0,1.0,,,,,gelb,blue,b,0.0,b,1.0,0.3407187090051593,,,,,,,,,,,,,,1.0,8.0,20.0,9.0,,,,,111.3969743750058,,,,,,,,,,,,,,,,,111.38572429200576,112.18639995799458,112.99659862500266,112.96972662500048,,,,,,,,,,,,,,,,112.97365995800646,112.99659862500266,112.99659862500266,113.34839191699577,b,1.0,0.3407187090051593,,113.3493041670008,113.36132533299678,114.34706775000086,114.3529711250012,,,,,,,,,,,,,,,,,,,,sub-046,1,stroop_test,,
,,,,21.0,9.0,1.0,,,,,rot,red,r,1.0,r,1.0,0.4915042499924311,,,,,,,,,,,,,,1.0,9.0,21.0,1.0,,,,,114.3529711250012,,,,,,,,,,,,,,,,,114.34779533300024,115.546814041998,116.3424978749972,116.33057858300162,,,,,,,,,,,,,,,,116.33567604199924,116.3424978749972,116.3424978749972,116.83731758300564,r,1.0,0.4915042499924311,,116.83814399999392,116.85114016699664,117.83648012499908,117.8470714169962,,,,,,,,,,,,,,,,,,,,sub-046,1,stroop_test,,
,,,,22.0,10.0,1.0,,,,,rot,blue,b,0.0,b,1.0,0.4980787499953294,,,,,,,,,,,,,,1.0,10.0,22.0,2.0,,,,,117.8470714169962,,,,,,,,,,,,,,,,,117.83692016699932,117.93626295799912,118.72883279199596,118.72013354199588,,,,,,,,,,,,,,,,118.72079049999591,118.72883279199596,118.72883279199596,119.23204620799515,b,1.0,0.4980787499953294,,119.23311754199676,119.2450240420003,120.23065124999266,120.23637087500538,,,,,,,,,,,,,,,,,,,,sub-046,1,stroop_test,,
,,,,23.0,11.0,1.0,,,,,blau,blue,b,1.0,b,1.0,0.4455509159888606,,,,,,,,,,,,,,1.0,11.0,23.0,6.0,,,,,120.23637087500538,,,,,,,,,,,,,,,,,120.23135329199432,121.03027762500278,121.8272463750036,121.81401429200196,,,,,,,,,,,,,,,,121.82055124999896,121.8272463750036,121.8272463750036,122.28164433299388,b,1.0,0.4455509159888606,,122.28257724999276,122.2947076249984,123.28042858300614,123.28806412499398,,,,,,,,,,,,,,,,,,,,sub-046,1,stroop_test,,
,,,,,,,,,,,,,,,,,,,,,,,,,,,,,,,,,,,,,,,,,,,,,,,,,,,,,,,,,,,,,,,,,,,,,,,,,,,,,,,,,,,,,,,123.28063049999764,123.28806412499398,123.28806412499398,132.081632292,space,8.785028625003179,,,,,,,,,,,,,,sub-046,1,stroop_test,,
,,,,0.0,0.0,0.0,,,,,,,,,,,,,blau,red,r,0.0,r,1.0,0.9118590830039466,,,,,,,,,,0.0,0.0,0.0,4.0,132.1059154579998,,,,,,,,,,,,,,,,,132.09834033300285,133.28031795799325,134.07610562500486,134.0642274999991,,,,,,,,,,,,,,,,,,,,,,,,,,,,,,,,,,,134.0692436669924,134.07610562500486,134.07610562500486,134.99801345799642,r,1.0,0.9118590830039466,,,,,,sub-046,1,stroop_test,,
,,,,1.0,1.0,0.0,,,,,,,,,,,,,blau,yellow,g,0.0,g,1.0,1.1121224160015115,,,,,,,,,,0.0,1.0,1.0,7.0,135.00704820800456,,,,,,,,,,,,,,,,,134.99850937500014,136.19681333299377,136.98791416699532,136.98039633300505,,,,,,,,,,,,,,,,,,,,,,,,,,,,,,,,,,,136.9811415419972,136.98791416699532,136.98791416699532,138.10459779200028,g,1.0,1.1121224160015115,,,,,,sub-046,1,stroop_test,,
,,,,2.0,2.0,0.0,,,,,,,,,,,,,rot,blue,b,0.0,b,1.0,0.5145986669958802,,,,,,,,,,0.0,2.0,2.0,2.0,138.1300721669977,,,,,,,,,,,,,,,,,138.1052128750016,138.90215754200472,139.6984080830007,139.68641974999628,,,,,,,,,,,,,,,,,,,,,,,,,,,,,,,,,,,139.69024724999326,139.6984080830007,139.6984080830007,140.21540245799406,b,1.0,0.5145986669958802,,,,,,sub-046,1,stroop_test,,
,,,,3.0,3.0,0.0,,,,,,,,,,,,,blau,blue,b,1.0,b,1.0,0.3308788329886738,,,,,,,,,,0.0,3.0,3.0,5.0,140.22097495799244,,,,,,,,,,,,,,,,,140.2161507080018,141.41361316699476,142.21010533299705,142.19727804200377,,,,,,,,,,,,,,,,,,,,,,,,,,,,,,,,,,,142.20344512499287,142.21010533299705,142.21010533299705,142.54832233299385,b,1.0,0.3308788329886738,,,,,,sub-046,1,stroop_test,,
,,,,4.0,4.0,0.0,,,,,,,,,,,,,blau,blue,b,1.0,b,1.0,0.4038242920069024,,,,,,,,,,0.0,4.0,4.0,6.0,142.55800820799777,,,,,,,,,,,,,,,,,142.54898833300103,143.3468677500059,144.13818608300062,144.1306949169957,,,,,,,,,,,,,,,,,,,,,,,,,,,,,,,,,,,144.13165762499557,144.13818608300062,144.13818608300062,144.54870924999705,b,1.0,0.4038242920069024,,,,,,sub-046,1,stroop_test,,
,,,,5.0,5.0,0.0,,,,,,,,,,,,,rot,yellow,g,0.0,g,1.0,0.5481462090101559,,,,,,,,,,0.0,5.0,5.0,3.0,144.5582575830049,,,,,,,,,,,,,,,,,144.54949900000065,144.64702504199522,145.44162349999533,145.4302240830002,,,,,,,,,,,,,,,,,,,,,,,,,,,,,,,,,,,145.4346907500003,145.44162349999533,145.44162349999533,145.99895091699727,g,1.0,0.5481462090101559,,,,,,sub-046,1,stroop_test,,
,,,,6.0,6.0,0.0,,,,,,,,,,,,,gelb,yellow,g,1.0,g,1.0,0.3576510419952683,,,,,,,,,,0.0,6.0,6.0,10.0,146.0086714999925,,,,,,,,,,,,,,,,,145.9998530830053,146.09694145800313,146.8927209169924,146.88074029200652,,,,,,,,,,,,,,,,,,,,,,,,,,,,,,,,,,,146.88595037499908,146.8927209169924,146.8927209169924,147.2530625829968,g,1.0,0.3576510419952683,,,,,,sub-046,1,stroop_test,,
,,,,7.0,7.0,0.0,,,,,,,,,,,,,gelb,blue,b,0.0,b,1.0,0.3458711249986663,,,,,,,,,,0.0,7.0,7.0,9.0,147.2624051669991,,,,,,,,,,,,,,,,,147.2535489580041,148.05150395800592,148.8459548749961,148.8365285829932,,,,,,,,,,,,,,,,,,,,,,,,,,,,,,,,,,,148.8371354999981,148.8459548749961,148.8459548749961,149.19867137499386,b,1.0,0.3458711249986663,,,,,,sub-046,1,stroop_test,,
,,,,8.0,8.0,0.0,,,,,,,,,,,,,rot,red,r,1.0,r,1.0,0.4193425840057898,,,,,,,,,,0.0,8.0,8.0,0.0,149.20806945799268,,,,,,,,,,,,,,,,,149.19924616700155,150.3970336670027,151.19237900000007,151.18067924999923,,,,,,,,,,,,,,,,,,,,,,,,,,,,,,,,,,,151.18543270799273,151.19237900000007,151.19237900000007,151.6151488750038,r,1.0,0.4193425840057898,,,,,,sub-046,1,stroop_test,,
,,,,9.0,9.0,0.0,,,,,,,,,,,,,gelb,yellow,g,1.0,g,1.0,0.4448385419964324,,,,,,,,,,0.0,9.0,9.0,11.0,151.62522362500022,,,,,,,,,,,,,,,,,151.6160843329999,151.9635748330038,152.75888416699308,152.74724254199828,,,,,,,,,,,,,,,,,,,,,,,,,,,,,,,,,,,152.75221704199794,152.75888416699308,152.75888416699308,153.2153666249942,g,1.0,0.4448385419964324,,,,,,sub-046,1,stroop_test,,
,,,,10.0,10.0,0.0,,,,,,,,,,,,,rot,red,r,1.0,b,0.0,0.3441744170122547,,,,,,,,,,0.0,10.0,10.0,1.0,153.22513258300023,,,,,,,,,,,,,,,,,153.21630937499867,154.01374504200066,154.80942129199684,154.79742966699996,,,,,,,,,,,,,,,,,,,,,,,,,,,,,,,,,,,154.8024585420062,154.80942129199684,154.80942129199684,155.16563820799638,b,0.0,0.3441744170122547,,,,,,sub-046,1,stroop_test,,
,,,,11.0,11.0,0.0,,,,,,,,,,,,,gelb,red,r,0.0,r,1.0,0.7575358329922892,,,,,,,,,,0.0,11.0,11.0,8.0,155.17557054199278,,,,,,,,,,,,,,,,,155.16670312499627,155.51365304199862,156.31296500000462,156.2974125000037,,,,,,,,,,,,,,,,,,,,,,,,,,,,,,,,,,,156.30633175000548,156.31296500000462,156.31296500000462,157.08226587499666,r,1.0,0.7575358329922892,,,,,,sub-046,1,stroop_test,,
,,,,12.0,0.0,1.0,,,,,,,,,,,,,rot,red,r,1.0,r,1.0,0.4472506669990252,,,,,,,,,,1.0,0.0,12.0,0.0,157.09194262500387,,,,,,,,,,,,,,,,,157.0829351249995,157.18024200000218,157.97630966700672,157.9640725000063,,,,,,,,,,,,,,,,,,,,,,,,,,,,,,,,,,,157.9692972079938,157.97630966700672,157.97630966700672,158.43121812499885,r,1.0,0.4472506669990252,,,,,,sub-046,1,stroop_test,,
,,,,13.0,1.0,1.0,,,,,,,,,,,,,blau,blue,b,1.0,b,1.0,0.3636563339969143,,,,,,,,,,1.0,1.0,13.0,6.0,158.44044520800526,,,,,,,,,,,,,,,,,158.43170012500195,158.78033125000366,159.57577675000357,159.5637241670047,,,,,,,,,,,,,,,,,,,,,,,,,,,,,,,,,,,159.5690072080033,159.57577675000357,159.57577675000357,159.9478167500056,b,1.0,0.3636563339969143,,,,,,sub-046,1,stroop_test,,
,,,,14.0,2.0,1.0,,,,,,,,,,,,,gelb,yellow,g,1.0,g,1.0,0.533401833003154,,,,,,,,,,1.0,2.0,14.0,10.0,159.95690445799846,,,,,,,,,,,,,,,,,159.9483086669934,160.0470228750055,160.84255775000202,160.8306614579924,,,,,,,,,,,,,,,,,,,,,,,,,,,,,,,,,,,160.8357359579968,160.84255775000202,160.84255775000202,161.38209229199856,g,1.0,0.533401833003154,,,,,,sub-046,1,stroop_test,,
,,,,15.0,3.0,1.0,,,,,,,,,,,,,blau,yellow,g,0.0,g,1.0,0.5925144170032581,,,,,,,,,,1.0,3.0,15.0,7.0,161.39187550000497,,,,,,,,,,,,,,,,,161.3830471669935,161.73040766699705,162.52493600000162,162.5137160000013,,,,,,,,,,,,,,,,,,,,,,,,,,,,,,,,,,,162.51824466699327,162.52493600000162,162.52493600000162,163.12095329200383,g,1.0,0.5925144170032581,,,,,,sub-046,1,stroop_test,,
,,,,16.0,4.0,1.0,,,,,,,,,,,,,gelb,red,r,0.0,r,1.0,0.5306460840074578,,,,,,,,,,1.0,4.0,16.0,8.0,163.14691429199593,,,,,,,,,,,,,,,,,163.12144254200393,163.46870524999397,164.2627875420003,164.25296166699263,,,,,,,,,,,,,,,,,,,,,,,,,,,,,,,,,,,164.25643733299512,164.2627875420003,164.2627875420003,164.79852858299273,r,1.0,0.5306460840074578,,,,,,sub-046,1,stroop_test,,
,,,,17.0,5.0,1.0,,,,,,,,,,,,,rot,yellow,g,0.0,b,0.0,0.7437394580047112,,,,,,,,,,1.0,5.0,17.0,3.0,164.80842924999888,,,,,,,,,,,,,,,,,164.79943508299766,165.1470062080043,165.94165574999352,165.93046533300367,,,,,,,,,,,,,,,,,,,,,,,,,,,,,,,,,,,165.93458979199931,165.94165574999352,165.94165574999352,166.6878793329961,b,0.0,0.7437394580047112,,,,,,sub-046,1,stroop_test,,
,,,,18.0,6.0,1.0,,,,,,,,,,,,,gelb,blue,b,0.0,b,1.0,0.5163547919946723,,,,,,,,,,1.0,6.0,18.0,9.0,166.69852195799467,,,,,,,,,,,,,,,,,166.68853079200198,166.78651916699891,167.58200466699782,167.56973687499703,,,,,,,,,,,,,,,,,,,,,,,,,,,,,,,,,,,167.57469241699437,167.58200466699782,167.58200466699782,168.1041558750003,b,1.0,0.5163547919946723,,,,,,sub-046,1,stroop_test,,
,,,,19.0,7.0,1.0,,,,,,,,,,,,,gelb,yellow,g,1.0,g,1.0,0.605432791999192,,,,,,,,,,1.0,7.0,19.0,11.0,168.1132472080062,,,,,,,,,,,,,,,,,168.1046333330014,168.20240224999725,168.9968907500006,168.98540154199873,,,,,,,,,,,,,,,,,,,,,,,,,,,,,,,,,,,168.98600970799453,168.9968907500006,168.9968907500006,169.60438512499968,g,1.0,0.605432791999192,,,,,,sub-046,1,stroop_test,,
,,,,20.0,8.0,1.0,,,,,,,,,,,,,rot,blue,b,0.0,g,0.0,0.4479615000018384,,,,,,,,,,1.0,8.0,20.0,2.0,169.61233808299585,,,,,,,,,,,,,,,,,169.60501374999876,169.7032997500064,170.5133044999966,170.48659937499906,,,,,,,,,,,,,,,,,,,,,,,,,,,,,,,,,,,170.49003662499308,170.5133044999966,170.5133044999966,170.96525491699867,g,0.0,0.4479615000018384,,,,,,sub-046,1,stroop_test,,
,,,,21.0,9.0,1.0,,,,,,,,,,,,,blau,red,r,0.0,r,1.0,0.7983510829944862,,,,,,,,,,1.0,9.0,21.0,4.0,170.9751195419958,,,,,,,,,,,,,,,,,170.96617874999356,171.76363033299276,172.5589669579931,172.5475170830032,,,,,,,,,,,,,,,,,,,,,,,,,,,,,,,,,,,172.55230624999967,172.5589669579931,172.5589669579931,173.36551570800657,r,1.0,0.7983510829944862,,,,,,sub-046,1,stroop_test,,
,,,,22.0,10.0,1.0,,,,,,,,,,,,,blau,blue,b,1.0,b,1.0,0.6618742080027005,,,,,,,,,,1.0,10.0,22.0,5.0,173.3749322079966,,,,,,,,,,,,,,,,,173.36614720799844,174.5637013749947,175.35528600000544,175.34737133300223,,,,,,,,,,,,,,,,,,,,,,,,,,,,,,,,,,,175.34836916699714,175.35528600000544,175.35528600000544,176.02080195800227,b,1.0,0.6618742080027005,,,,,,sub-046,1,stroop_test,,
,,,,23.0,11.0,1.0,,,,,,,,,,,,,rot,red,r,1.0,r,1.0,0.5210443749965634,,,,,,,,,,1.0,11.0,23.0,1.0,176.02986441699613,,,,,,,,,,,,,,,,,176.0212915000011,176.36982562500634,177.16511529199488,177.1535273329937,,,,,,,,,,,,,,,,,,,,,,,,,,,,,,,,,,,177.15729208299308,177.16511529199488,177.16511529199488,177.6873254999955,r,1.0,0.5210443749965634,,,,,,sub-046,1,stroop_test,,
,,,,24.0,0.0,2.0,,,,,,,,,,,,,rot,red,r,1.0,r,1.0,0.4509993749961722,,,,,,,,,,2.0,0.0,24.0,0.0,177.696832792004,,,,,,,,,,,,,,,,,177.68786154199915,177.78640916700533,178.5801685829938,178.56966804199328,,,,,,,,,,,,,,,,,,,,,,,,,,,,,,,,,,,178.57026141700044,178.5801685829938,178.5801685829938,179.03775687499729,r,1.0,0.4509993749961722,,,,,,sub-046,1,stroop_test,,
,,,,25.0,1.0,2.0,,,,,,,,,,,,,blau,yellow,g,0.0,g,1.0,0.5070710830041207,,,,,,,,,,2.0,1.0,25.0,7.0,179.06349329199293,,,,,,,,,,,,,,,,,179.03824295800587,180.236655582994,181.0299892500043,181.0197629579925,,,,,,,,,,,,,,,,,,,,,,,,,,,,,,,,,,,181.0232855420036,181.0299892500043,181.0299892500043,181.54885350000404,g,1.0,0.5070710830041207,,,,,,sub-046,1,stroop_test,,
,,,,26.0,2.0,2.0,,,,,,,,,,,,,gelb,blue,b,0.0,b,1.0,0.5065677499951562,,,,,,,,,,2.0,2.0,26.0,9.0,181.5587586670008,,,,,,,,,,,,,,,,,181.549866500005,181.8970930000069,182.6924300420069,182.6806937920046,,,,,,,,,,,,,,,,,,,,,,,,,,,,,,,,,,,182.68568191700612,182.6924300420069,182.6924300420069,183.2042691249953,b,1.0,0.5065677499951562,,,,,,sub-046,1,stroop_test,,
,,,,27.0,3.0,2.0,,,,,,,,,,,,,rot,blue,b,0.0,b,1.0,0.3876809579960536,,,,,,,,,,2.0,3.0,27.0,2.0,183.2131644170004,,,,,,,,,,,,,,,,,183.20474825000565,184.0031652500038,184.8112785419944,184.797401207994,,,,,,,,,,,,,,,,,,,,,,,,,,,,,,,,,,,184.80424075000337,184.8112785419944,184.8112785419944,185.2040325419948,b,1.0,0.3876809579960536,,,,,,sub-046,1,stroop_test,,
,,,,28.0,4.0,2.0,,,,,,,,,,,,,gelb,yellow,g,1.0,g,1.0,0.5944936250016326,,,,,,,,,,2.0,4.0,28.0,10.0,185.2131369999988,,,,,,,,,,,,,,,,,185.20451850000245,186.00143833299808,186.79647229200052,186.7864158750017,,,,,,,,,,,,,,,,,,,,,,,,,,,,,,,,,,,186.78995074999693,186.79647229200052,186.79647229200052,187.39881591699668,g,1.0,0.5944936250016326,,,,,,sub-046,1,stroop_test,,
,,,,29.0,5.0,2.0,,,,,,,,,,,,,blau,blue,b,1.0,b,1.0,0.7928811659949133,,,,,,,,,,2.0,5.0,29.0,5.0,187.40877070800343,,,,,,,,,,,,,,,,,187.3997903749987,188.5967213749973,189.3930247919925,189.3806707920012,,,,,,,,,,,,,,,,,,,,,,,,,,,,,,,,,,,189.385941792003,189.3930247919925,189.3930247919925,190.1874678750028,b,1.0,0.7928811659949133,,,,,,sub-046,1,stroop_test,,
,,,,30.0,6.0,2.0,,,,,,,,,,,,,rot,red,r,1.0,r,1.0,0.4950075000087963,,,,,,,,,,2.0,6.0,30.0,1.0,190.196712332996,,,,,,,,,,,,,,,,,190.1880625000049,190.98639395799543,191.79685120799692,191.76929387499692,,,,,,,,,,,,,,,,,,,,,,,,,,,,,,,,,,,191.77352287499525,191.79685120799692,191.79685120799692,192.298626667005,r,1.0,0.4950075000087963,,,,,,sub-046,1,stroop_test,,
,,,,31.0,7.0,2.0,,,,,,,,,,,,,blau,red,r,0.0,r,1.0,1.1526929169922369,,,,,,,,,,2.0,7.0,31.0,4.0,192.3103317079949,,,,,,,,,,,,,,,,,192.29953262499475,192.39702829200544,193.1930374999938,193.18082208299893,,,,,,,,,,,,,,,,,,,,,,,,,,,,,,,,,,,193.18613495799943,193.1930374999938,193.1930374999938,194.34817154200573,r,1.0,1.1526929169922369,,,,,,sub-046,1,stroop_test,,
,,,,32.0,8.0,2.0,,,,,,,,,,,,,gelb,yellow,g,1.0,g,1.0,0.7159397499926854,,,,,,,,,,2.0,8.0,32.0,11.0,194.3597020830057,,,,,,,,,,,,,,,,,194.3488504169945,195.14697124999657,195.94191179200425,195.9305058750033,,,,,,,,,,,,,,,,,,,,,,,,,,,,,,,,,,,195.93486508299247,195.94191179200425,195.94191179200425,196.66467154200652,g,1.0,0.7159397499926854,,,,,,sub-046,1,stroop_test,,
,,,,33.0,9.0,2.0,,,,,,,,,,,,,blau,blue,b,1.0,b,1.0,0.6245061670051655,,,,,,,,,,2.0,9.0,33.0,6.0,196.675531957997,,,,,,,,,,,,,,,,,196.665175874994,196.7563087919989,197.5593233330001,197.5473949580046,,,,,,,,,,,,,,,,,,,,,,,,,,,,,,,,,,,197.55243149999296,197.5593233330001,197.5593233330001,198.1877681250044,b,1.0,0.6245061670051655,,,,,,sub-046,1,stroop_test,,
,,,,34.0,10.0,2.0,,,,,,,,,,,,,gelb,red,r,0.0,r,1.0,0.7552262500103097,,,,,,,,,,2.0,10.0,34.0,8.0,198.1991371250042,,,,,,,,,,,,,,,,,198.188396957994,198.28659745800545,199.09353812500197,199.08076058300503,,,,,,,,,,,,,,,,,,,,,,,,,,,,,,,,,,,199.086606708006,199.09353812500197,199.09353812500197,199.85423833300592,r,1.0,0.7552262500103097,,,,,,sub-046,1,stroop_test,,
,,,,35.0,11.0,2.0,,,,,,,,,,,,,rot,yellow,g,0.0,g,1.0,1.43398120799975,,,,,,,,,,2.0,11.0,35.0,3.0,199.86596020800064,,,,,,,,,,,,,,,,,199.85474179200537,200.20309216699388,200.99659808300203,200.98640024999625,,,,,,,,,,,,,,,,,,,,,,,,,,,,,,,,,,,200.98989012499808,200.99659808300203,200.99659808300203,202.4376605830039,g,1.0,1.43398120799975,,,,,,sub-046,1,stroop_test,,
,,,,36.0,0.0,3.0,,,,,,,,,,,,,gelb,blue,b,0.0,b,1.0,0.5912331659928896,,,,,,,,,,3.0,0.0,36.0,9.0,202.44892279199848,,,,,,,,,,,,,,,,,202.43827299999248,202.53912716699412,203.3423994170007,203.3307338750019,,,,,,,,,,,,,,,,,,,,,,,,,,,,,,,,,,,203.3357272919966,203.3423994170007,203.3423994170007,203.93731804199345,b,1.0,0.5912331659928896,,,,,,sub-046,1,stroop_test,,
,,,,37.0,1.0,3.0,,,,,,,,,,,,,rot,blue,b,0.0,b,1.0,0.615845124993939,,,,,,,,,,3.0,1.0,37.0,2.0,203.9486157500069,,,,,,,,,,,,,,,,,203.93781308300092,204.7359628330014,205.52972762500576,205.5194966669951,,,,,,,,,,,,,,,,,,,,,,,,,,,,,,,,,,,205.5230018750008,205.52972762500576,205.52972762500576,206.1485327080009,b,1.0,0.615845124993939,,,,,,sub-046,1,stroop_test,,
,,,,38.0,2.0,3.0,,,,,,,,,,,,,blau,blue,b,1.0,b,1.0,0.3828231249935925,,,,,,,,,,3.0,2.0,38.0,6.0,206.1600216670049,,,,,,,,,,,,,,,,,206.14947591700184,206.24719658300452,207.04184383299437,207.0306019169948,,,,,,,,,,,,,,,,,,,,,,,,,,,,,,,,,,,207.03511245800476,207.04184383299437,207.04184383299437,207.43146812499617,b,1.0,0.3828231249935925,,,,,,sub-046,1,stroop_test,,
,,,,39.0,3.0,3.0,,,,,,,,,,,,,gelb,red,r,0.0,r,1.0,0.7154849590006052,,,,,,,,,,3.0,3.0,39.0,8.0,207.44229866699607,,,,,,,,,,,,,,,,,207.4321949169971,208.63030266700665,209.42502508299367,209.41359841699887,,,,,,,,,,,,,,,,,,,,,,,,,,,,,,,,,,,209.41829929199596,209.42502508299367,209.42502508299367,210.14844687499863,r,1.0,0.7154849590006052,,,,,,sub-046,1,stroop_test,,
,,,,40.0,4.0,3.0,,,,,,,,,,,,,rot,yellow,g,0.0,g,1.0,0.6234308749990305,,,,,,,,,,3.0,4.0,40.0,3.0,210.1595124580053,,,,,,,,,,,,,,,,,210.14911949999805,210.4968807499972,211.29302224999992,211.28078591699887,,,,,,,,,,,,,,,,,,,,,,,,,,,,,,,,,,,211.2861290830042,211.29302224999992,211.29302224999992,211.9210955419985,g,1.0,0.6234308749990305,,,,,,sub-046,1,stroop_test,,
,,,,41.0,5.0,3.0,,,,,,,,,,,,,blau,red,r,0.0,b,0.0,0.5327900840056827,,,,,,,,,,3.0,5.0,41.0,4.0,211.9323116250016,,,,,,,,,,,,,,,,,211.92158799999743,212.02097570800103,212.8276711249928,212.81409108299704,,,,,,,,,,,,,,,,,,,,,,,,,,,,,,,,,,,212.82087004199275,212.8276711249928,212.8276711249928,213.36549991699576,b,0.0,0.5327900840056827,,,,,,sub-046,1,stroop_test,,
,,,,42.0,6.0,3.0,,,,,,,,,,,,,gelb,yellow,g,1.0,g,1.0,0.61576179099211,,,,,,,,,,3.0,6.0,42.0,11.0,213.3765035419929,,,,,,,,,,,,,,,,,213.36623162499745,214.1637052080041,214.95871341699967,214.94710854199369,,,,,,,,,,,,,,,,,,,,,,,,,,,,,,,,,,,214.9519972919952,214.95871341699967,214.95871341699967,215.58159600000363,g,1.0,0.61576179099211,,,,,,sub-046,1,stroop_test,,
,,,,43.0,7.0,3.0,,,,,,,,,,,,,rot,red,r,1.0,r,1.0,0.3596308749984018,,,,,,,,,,3.0,7.0,43.0,0.0,215.59269245799808,,,,,,,,,,,,,,,,,215.58227537499624,216.38032700000625,217.17574016700385,217.16401858300375,,,,,,,,,,,,,,,,,,,,,,,,,,,,,,,,,,,217.16874500000267,217.17574016700385,217.17574016700385,217.53746491699712,r,1.0,0.3596308749984018,,,,,,sub-046,1,stroop_test,,
,,,,44.0,8.0,3.0,,,,,,,,,,,,,blau,yellow,g,0.0,g,1.0,0.6913651250069961,,,,,,,,,,3.0,8.0,44.0,7.0,217.54875641700343,,,,,,,,,,,,,,,,,217.537976874999,217.63640804200256,218.4298874579981,218.4197950420057,,,,,,,,,,,,,,,,,,,,,,,,,,,,,,,,,,,218.42332741699647,218.4298874579981,218.4298874579981,219.1314379999967,g,1.0,0.6913651250069961,,,,,,sub-046,1,stroop_test,,
,,,,45.0,9.0,3.0,,,,,,,,,,,,,rot,red,r,1.0,r,1.0,0.772872458997881,,,,,,,,,,3.0,9.0,45.0,1.0,219.14208512500045,,,,,,,,,,,,,,,,,219.13198212499265,219.4803877079976,220.2763122920005,220.2640441669937,,,,,,,,,,,,,,,,,,,,,,,,,,,,,,,,,,,220.26920858300585,220.2763122920005,220.2763122920005,221.0530411249929,r,1.0,0.772872458997881,,,,,,sub-046,1,stroop_test,,
,,,,46.0,10.0,3.0,,,,,,,,,,,,,gelb,yellow,g,1.0,g,1.0,0.8157673329988029,,,,,,,,,,3.0,10.0,46.0,10.0,221.06340487499256,,,,,,,,,,,,,,,,,221.05353645799917,222.2530234580045,223.0633831669984,223.03656374999264,,,,,,,,,,,,,,,,,,,,,,,,,,,,,,,,,,,223.04010179199395,223.0633831669984,223.0633831669984,223.88182500000403,g,1.0,0.8157673329988029,,,,,,sub-046,1,stroop_test,,
,,,,47.0,11.0,3.0,,,,,,,,,,,,,blau,blue,b,1.0,b,1.0,0.6557272910140455,,,,,,,,,,3.0,11.0,47.0,5.0,223.89305570800207,,,,,,,,,,,,,,,,,223.8826949170034,223.9804850829969,224.77544304200276,224.76391424999747,,,,,,,,,,,,,,,,,,,,,,,,,,,,,,,,,,,224.76865495799572,224.77544304200276,224.77544304200276,225.4375841669971,b,1.0,0.6557272910140455,,,,,,sub-046,1,stroop_test,,
,,,,48.0,0.0,4.0,,,,,,,,,,,,,gelb,yellow,g,1.0,g,1.0,1.121811916003935,,,,,,,,,,4.0,0.0,48.0,10.0,225.44878208299636,,,,,,,,,,,,,,,,,225.43810975000088,226.63657649999368,227.43228545799505,227.4199457079958,,,,,,,,,,,,,,,,,,,,,,,,,,,,,,,,,,,227.425550333006,227.43228545799505,227.43228545799505,228.5656330000056,g,1.0,1.121811916003935,,,,,,sub-046,1,stroop_test,,
,,,,49.0,1.0,4.0,,,,,,,,,,,,,blau,blue,b,1.0,b,1.0,0.8576218329981202,,,,,,,,,,4.0,1.0,49.0,6.0,228.57739341699929,,,,,,,,,,,,,,,,,228.56666558299912,229.76367787500203,230.55942362500355,230.5473657919938,,,,,,,,,,,,,,,,,,,,,,,,,,,,,,,,,,,230.55249520800132,230.55942362500355,230.55942362500355,231.4209479169949,b,1.0,0.8576218329981202,,,,,,sub-046,1,stroop_test,,
,,,,50.0,2.0,4.0,,,,,,,,,,,,,gelb,yellow,g,1.0,g,1.0,0.5637123330088798,,,,,,,,,,4.0,2.0,50.0,11.0,231.43232574999277,,,,,,,,,,,,,,,,,231.4214296249993,232.2199202079937,233.0152769999986,233.003286332998,,,,,,,,,,,,,,,,,,,,,,,,,,,,,,,,,,,233.00760016699496,233.0152769999986,233.0152769999986,233.5817474170035,g,1.0,0.5637123330088798,,,,,,sub-046,1,stroop_test,,
,,,,51.0,3.0,4.0,,,,,,,,,,,,,rot,red,r,1.0,r,1.0,0.5313205830025254,,,,,,,,,,4.0,3.0,51.0,1.0,233.5929984169925,,,,,,,,,,,,,,,,,233.58271187500213,233.9303482499963,234.72665129200325,234.71428600000215,,,,,,,,,,,,,,,,,,,,,,,,,,,,,,,,,,,234.71936958300648,234.72665129200325,234.72665129200325,235.26516812499904,r,1.0,0.5313205830025254,,,,,,sub-046,1,stroop_test,,
,,,,52.0,4.0,4.0,,,,,,,,,,,,,rot,blue,b,0.0,b,1.0,0.5773774580011377,,,,,,,,,,4.0,4.0,52.0,2.0,235.2762098749954,,,,,,,,,,,,,,,,,235.26583229200327,235.6136322920065,236.4035727080045,236.39704391699345,,,,,,,,,,,,,,,,,,,,,,,,,,,,,,,,,,,236.39763212499383,236.4035727080045,236.4035727080045,236.98750124999788,b,1.0,0.5773774580011377,,,,,,sub-046,1,stroop_test,,
,,,,53.0,5.0,4.0,,,,,,,,,,,,,blau,yellow,g,0.0,g,1.0,0.5711656249914085,,,,,,,,,,4.0,5.0,53.0,7.0,236.99871566699585,,,,,,,,,,,,,,,,,236.98803579200467,237.0859541249956,237.89178554200043,237.88057374999332,,,,,,,,,,,,,,,,,,,,,,,,,,,,,,,,,,,237.88504041699343,237.89178554200043,237.89178554200043,238.4654026670032,g,1.0,0.5711656249914085,,,,,,sub-046,1,stroop_test,,
,,,,54.0,6.0,4.0,,,,,,,,,,,,,blau,red,r,0.0,r,1.0,0.6907387499959441,,,,,,,,,,4.0,6.0,54.0,4.0,238.47652912499325,,,,,,,,,,,,,,,,,238.4663014580001,239.2638340419944,240.05603683300436,240.0477764170064,,,,,,,,,,,,,,,,,,,,,,,,,,,,,,,,,,,240.04877620800107,240.05603683300436,240.05603683300436,240.74835441699545,r,1.0,0.6907387499959441,,,,,,sub-046,1,stroop_test,,
,,,,55.0,7.0,4.0,,,,,,,,,,,,,rot,yellow,g,0.0,g,1.0,1.658950625002035,,,,,,,,,,4.0,7.0,55.0,3.0,240.7539373329928,,,,,,,,,,,,,,,,,240.7491513749992,241.94707695799295,242.7427999999927,242.73063941700093,,,,,,,,,,,,,,,,,,,,,,,,,,,,,,,,,,,242.735773124994,242.7427999999927,242.7427999999927,244.4139879169961,g,1.0,1.658950625002035,,,,,,sub-046,1,stroop_test,,
,,,,56.0,8.0,4.0,,,,,,,,,,,,,gelb,blue,b,0.0,b,1.0,0.552552959008608,,,,,,,,,,4.0,8.0,56.0,9.0,244.42482429200027,,,,,,,,,,,,,,,,,244.4146289579949,245.2018695000006,245.9991522920027,245.9866506249964,,,,,,,,,,,,,,,,,,,,,,,,,,,,,,,,,,,245.9923192080023,245.9991522920027,245.9991522920027,246.5540693749936,b,1.0,0.552552959008608,,,,,,sub-046,1,stroop_test,,
,,,,57.0,9.0,4.0,,,,,,,,,,,,,gelb,red,r,0.0,r,1.0,0.4863487499969778,,,,,,,,,,4.0,9.0,57.0,8.0,246.56545816699509,,,,,,,,,,,,,,,,,246.55455412500305,246.9031708749972,247.6953782500059,247.68671925000672,,,,,,,,,,,,,,,,,,,,,,,,,,,,,,,,,,,247.6874623329932,247.6953782500059,247.6953782500059,248.18757079199716,r,1.0,0.4863487499969778,,,,,,sub-046,1,stroop_test,,
,,,,58.0,10.0,4.0,,,,,,,,,,,,,rot,red,r,1.0,r,1.0,0.4666809160116827,,,,,,,,,,4.0,10.0,58.0,0.0,248.1986569169967,,,,,,,,,,,,,,,,,248.18806704200688,248.98621370800535,249.7968275000021,249.7699830829952,,,,,,,,,,,,,,,,,,,,,,,,,,,,,,,,,,,249.7734577079973,249.7968275000021,249.7968275000021,250.26499941700604,r,1.0,0.4666809160116827,,,,,,sub-046,1,stroop_test,,
,,,,59.0,11.0,4.0,,,,,,,,,,,,,blau,blue,b,1.0,b,1.0,0.4941110000072513,,,,,,,,,,4.0,11.0,59.0,5.0,250.2706024999934,,,,,,,,,,,,,,,,,250.2656582500058,251.06371429200223,251.85846487499657,251.8472497920011,,,,,,,,,,,,,,,,,,,,,,,,,,,,,,,,,,,251.851567042002,251.85846487499657,251.85846487499657,252.35494212500635,b,1.0,0.4941110000072513,,,,,,sub-046,1,stroop_test,,
,,,,60.0,0.0,5.0,,,,,,,,,,,,,blau,red,r,0.0,b,0.0,0.4187876659998437,,,,,,,,,,5.0,0.0,60.0,4.0,252.36847499999567,,,,,,,,,,,,,,,,,252.35556804199587,253.5531519170036,254.34566529199947,254.3363646670041,,,,,,,,,,,,,,,,,,,,,,,,,,,,,,,,,,,254.3369605420012,254.34566529199947,254.34566529199947,254.77097529200543,b,0.0,0.4187876659998437,,,,,,sub-046,1,stroop_test,,
,,,,61.0,1.0,5.0,,,,,,,,,,,,,rot,yellow,g,0.0,g,1.0,1.4872038750036154,,,,,,,,,,5.0,1.0,61.0,3.0,254.78207304200623,,,,,,,,,,,,,,,,,254.77146641700529,255.96960237500025,256.76322604200686,256.7531638329965,,,,,,,,,,,,,,,,,,,,,,,,,,,,,,,,,,,256.7566240419983,256.76322604200686,256.76322604200686,258.2542014579958,g,1.0,1.4872038750036154,,,,,,sub-046,1,stroop_test,,
,,,,62.0,2.0,5.0,,,,,,,,,,,,,gelb,blue,b,0.0,b,1.0,0.4435679580055875,,,,,,,,,,5.0,2.0,62.0,9.0,258.2654082499939,,,,,,,,,,,,,,,,,258.25470200000564,259.0537124580005,259.8638705829944,259.83659445800004,,,,,,,,,,,,,,,,,,,,,,,,,,,,,,,,,,,259.8407409579959,259.8638705829944,259.8638705829944,260.3157153329957,b,1.0,0.4435679580055875,,,,,,sub-046,1,stroop_test,,
,,,,63.0,3.0,5.0,,,,,,,,,,,,,rot,red,r,1.0,r,1.0,0.3296762079990003,,,,,,,,,,5.0,3.0,63.0,1.0,260.32668187499803,,,,,,,,,,,,,,,,,260.31645141700574,260.66382479200547,261.45969045799575,261.4475598749996,,,,,,,,,,,,,,,,,,,,,,,,,,,,,,,,,,,261.45268816700263,261.45969045799575,261.45969045799575,261.7983200830058,r,1.0,0.3296762079990003,,,,,,sub-046,1,stroop_test,,
,,,,64.0,4.0,5.0,,,,,,,,,,,,,blau,blue,b,1.0,b,1.0,0.6506160409917356,,,,,,,,,,5.0,4.0,64.0,6.0,261.8087967080064,,,,,,,,,,,,,,,,,261.798808749998,262.99691745800374,263.79378295800416,263.7806076249981,,,,,,,,,,,,,,,,,,,,,,,,,,,,,,,,,,,263.7868349170021,263.79378295800416,263.79378295800416,264.4484201250016,b,1.0,0.6506160409917356,,,,,,sub-046,1,stroop_test,,
,,,,65.0,5.0,5.0,,,,,,,,,,,,,gelb,red,r,0.0,g,0.0,0.6222537090070546,,,,,,,,,,5.0,5.0,65.0,8.0,264.4599617500062,,,,,,,,,,,,,,,,,264.44936220800446,265.6468041670014,266.4420175419946,266.43059354199795,,,,,,,,,,,,,,,,,,,,,,,,,,,,,,,,,,,266.4351007499936,266.4420175419946,266.4420175419946,267.07094720800524,g,0.0,0.6222537090070546,,,,,,sub-046,1,stroop_test,,
,,,,66.0,6.0,5.0,,,,,,,,,,,,,gelb,yellow,g,1.0,g,1.0,0.4012829579878598,,,,,,,,,,5.0,6.0,66.0,10.0,267.0824487920036,,,,,,,,,,,,,,,,,267.07155787499505,267.8681041249947,268.6638347499975,268.6515617080004,,,,,,,,,,,,,,,,,,,,,,,,,,,,,,,,,,,268.6522965829936,268.6638347499975,268.6638347499975,269.0707710419956,g,1.0,0.4012829579878598,,,,,,sub-046,1,stroop_test,,
,,,,67.0,7.0,5.0,,,,,,,,,,,,,rot,blue,b,0.0,b,1.0,0.823789834001218,,,,,,,,,,5.0,7.0,67.0,2.0,269.08208095800364,,,,,,,,,,,,,,,,,269.0712483749958,269.4195722500008,270.2253514579934,270.2139205419953,,,,,,,,,,,,,,,,,,,,,,,,,,,,,,,,,,,270.2183482919936,270.2253514579934,270.2253514579934,271.0543770420045,b,1.0,0.823789834001218,,,,,,sub-046,1,stroop_test,,
,,,,68.0,8.0,5.0,,,,,,,,,,,,,blau,blue,b,1.0,b,1.0,0.6075946659984766,,,,,,,,,,5.0,8.0,68.0,5.0,271.06599533300323,,,,,,,,,,,,,,,,,271.0549876669975,272.25134679199255,273.0485631670017,273.0366208750056,,,,,,,,,,,,,,,,,,,,,,,,,,,,,,,,,,,273.0408233329945,273.0485631670017,273.0485631670017,273.6646916250029,b,1.0,0.6075946659984766,,,,,,sub-046,1,stroop_test,,
,,,,69.0,9.0,5.0,,,,,,,,,,,,,blau,yellow,g,0.0,g,1.0,0.635692084004404,,,,,,,,,,5.0,9.0,69.0,7.0,273.6752620000043,,,,,,,,,,,,,,,,,273.66520400000445,274.0026795830054,274.7953450000059,274.78660970799683,,,,,,,,,,,,,,,,,,,,,,,,,,,,,,,,,,,274.7875818330067,274.7953450000059,274.7953450000059,275.4375291670003,g,1.0,0.635692084004404,,,,,,sub-046,1,stroop_test,,
,,,,70.0,10.0,5.0,,,,,,,,,,,,,gelb,yellow,g,1.0,g,1.0,0.5882286249980098,,,,,,,,,,5.0,10.0,70.0,11.0,275.4488909579959,,,,,,,,,,,,,,,,,275.4381673330063,276.63547837499937,277.4298357499938,277.41976299999806,,,,,,,,,,,,,,,,,,,,,,,,,,,,,,,,,,,277.4233014170022,277.4298357499938,277.4298357499938,278.0207099580002,g,1.0,0.5882286249980098,,,,,,sub-046,1,stroop_test,,
,,,,71.0,11.0,5.0,,,,,,,,,,,,,rot,red,r,1.0,r,1.0,0.5910725830035517,,,,,,,,,,5.0,11.0,71.0,0.0,278.032058124998,,,,,,,,,,,,,,,,,278.02118737499404,278.3693161669944,279.179960458001,279.1526424579933,,,,,,,,,,,,,,,,,,,,,,,,,,,,,,,,,,,279.1568296250043,279.179960458001,279.179960458001,279.7822825420008,r,1.0,0.5910725830035517,,,,,,sub-046,1,stroop_test,,
,,,,72.0,0.0,6.0,,,,,,,,,,,,,gelb,yellow,g,1.0,g,1.0,0.5204579999990528,,,,,,,,,,6.0,0.0,72.0,10.0,279.7934029580065,,,,,,,,,,,,,,,,,279.78319591699983,280.9804007920029,281.7774367499951,281.764048750003,,,,,,,,,,,,,,,,,,,,,,,,,,,,,,,,,,,281.77058533299714,281.7774367499951,281.7774367499951,282.30449654199765,g,1.0,0.5204579999990528,,,,,,sub-046,1,stroop_test,,
,,,,73.0,1.0,6.0,,,,,,,,,,,,,blau,yellow,g,0.0,g,1.0,0.6762434579868568,,,,,,,,,,6.0,1.0,73.0,7.0,282.3159213329928,,,,,,,,,,,,,,,,,282.3051066670014,283.5023899999942,284.29657991700515,284.28579870800604,,,,,,,,,,,,,,,,,,,,,,,,,,,,,,,,,,,284.2901090420055,284.29657991700515,284.29657991700515,284.9815694580029,g,1.0,0.6762434579868568,,,,,,sub-046,1,stroop_test,,
,,,,74.0,2.0,6.0,,,,,,,,,,,,,blau,red,r,0.0,r,1.0,0.7860412919981172,,,,,,,,,,6.0,2.0,74.0,4.0,284.99234974999854,,,,,,,,,,,,,,,,,284.98210187499353,285.0802532499947,285.8718406249973,285.8642362919927,,,,,,,,,,,,,,,,,,,,,,,,,,,,,,,,,,,285.86521783299395,285.8718406249973,285.8718406249973,286.665441582998,r,1.0,0.7860412919981172,,,,,,sub-046,1,stroop_test,,
,,,,75.0,3.0,6.0,,,,,,,,,,,,,rot,blue,b,0.0,b,1.0,0.4853593330044532,,,,,,,,,,6.0,3.0,75.0,2.0,286.67689904199506,,,,,,,,,,,,,,,,,286.66644487499434,287.01381191700057,287.8094641670032,287.7974763329985,,,,,,,,,,,,,,,,,,,,,,,,,,,,,,,,,,,287.8022132920014,287.8094641670032,287.8094641670032,288.298049332996,b,1.0,0.4853593330044532,,,,,,sub-046,1,stroop_test,,
,,,,76.0,4.0,6.0,,,,,,,,,,,,,blau,blue,b,1.0,b,1.0,0.4936462920013582,,,,,,,,,,6.0,4.0,76.0,6.0,288.3081800420041,,,,,,,,,,,,,,,,,288.29844924999634,289.497133375,290.2928545000032,290.2808694169944,,,,,,,,,,,,,,,,,,,,,,,,,,,,,,,,,,,290.28583141700074,290.2928545000032,290.2928545000032,290.79896812500374,b,1.0,0.4936462920013582,,,,,,sub-046,1,stroop_test,,
,,,,77.0,5.0,6.0,,,,,,,,,,,,,blau,blue,b,1.0,b,1.0,0.5370157919969643,,,,,,,,,,6.0,5.0,77.0,5.0,290.8107272079942,,,,,,,,,,,,,,,,,290.8001081669936,290.8968603749963,291.6888356249983,291.68075958300324,,,,,,,,,,,,,,,,,,,,,,,,,,,,,,,,,,,291.6817096669984,291.6888356249983,291.6888356249983,292.2316942500038,b,1.0,0.5370157919969643,,,,,,sub-046,1,stroop_test,,
,,,,78.0,6.0,6.0,,,,,,,,,,,,,gelb,yellow,g,1.0,g,1.0,0.4748557090060785,,,,,,,,,,6.0,6.0,78.0,11.0,292.2427604169934,,,,,,,,,,,,,,,,,292.2323753749952,292.3298555420042,293.12588950000645,293.1140897919977,,,,,,,,,,,,,,,,,,,,,,,,,,,,,,,,,,,293.1191145829944,293.12588950000645,293.12588950000645,293.6042985420063,g,1.0,0.4748557090060785,,,,,,sub-046,1,stroop_test,,
,,,,79.0,7.0,6.0,,,,,,,,,,,,,gelb,blue,b,0.0,b,1.0,0.4593275419902056,,,,,,,,,,6.0,7.0,79.0,9.0,293.61588612500054,,,,,,,,,,,,,,,,,293.6049200419948,294.80290591699304,295.59536274999846,295.5866646249924,,,,,,,,,,,,,,,,,,,,,,,,,,,,,,,,,,,295.587396582996,295.59536274999846,295.59536274999846,296.0654815000016,b,1.0,0.4593275419902056,,,,,,sub-046,1,stroop_test,,
,,,,80.0,8.0,6.0,,,,,,,,,,,,,rot,yellow,g,0.0,g,1.0,0.6448594590037828,,,,,,,,,,6.0,8.0,80.0,3.0,296.07676566700684,,,,,,,,,,,,,,,,,296.06643795799755,297.2638414170069,298.059738750002,298.04748599999584,,,,,,,,,,,,,,,,,,,,,,,,,,,,,,,,,,,298.0527175000025,298.059738750002,298.059738750002,298.71527645799506,g,1.0,0.6448594590037828,,,,,,sub-046,1,stroop_test,,
,,,,81.0,9.0,6.0,,,,,,,,,,,,,rot,red,r,1.0,r,1.0,0.5488114589970792,,,,,,,,,,6.0,9.0,81.0,1.0,298.7263282500062,,,,,,,,,,,,,,,,,298.71598120800627,298.81375287499395,299.60478650000005,299.5972482920042,,,,,,,,,,,,,,,,,,,,,,,,,,,,,,,,,,,299.5980008750048,299.60478650000005,299.60478650000005,300.1655745000025,r,1.0,0.5488114589970792,,,,,,sub-046,1,stroop_test,,
,,,,82.0,10.0,6.0,,,,,,,,,,,,,rot,red,r,1.0,r,1.0,0.46296895800333,,,,,,,,,,6.0,10.0,82.0,0.0,300.1770547920023,,,,,,,,,,,,,,,,,300.16662099999667,301.3637869170052,302.1556927079946,302.1476175419957,,,,,,,,,,,,,,,,,,,,,,,,,,,,,,,,,,,302.1486624579993,302.1556927079946,302.1556927079946,302.6208787920041,r,1.0,0.46296895800333,,,,,,sub-046,1,stroop_test,,
,,,,83.0,11.0,6.0,,,,,,,,,,,,,gelb,red,r,0.0,r,1.0,0.388571834002505,,,,,,,,,,6.0,11.0,83.0,8.0,302.63217962499766,,,,,,,,,,,,,,,,,302.62136545800604,302.71956254199904,303.52695241699985,303.51411191700026,,,,,,,,,,,,,,,,,,,,,,,,,,,,,,,,,,,303.51991795799404,303.52695241699985,303.52695241699985,303.9199639580038,r,1.0,0.388571834002505,,,,,,sub-046,1,stroop_test,,
,,,,84.0,0.0,7.0,,,,,,,,,,,,,gelb,yellow,g,1.0,g,1.0,0.5569763329986017,,,,,,,,,,7.0,0.0,84.0,11.0,303.93195162499615,,,,,,,,,,,,,,,,,303.9204707080062,304.7195655419928,305.52152695799305,305.5140330830036,,,,,,,,,,,,,,,,,,,,,,,,,,,,,,,,,,,305.5150159170007,305.52152695799305,305.52152695799305,306.0821810000052,g,1.0,0.5569763329986017,,,,,,sub-046,1,stroop_test,,
,,,,85.0,1.0,7.0,,,,,,,,,,,,,rot,blue,b,0.0,b,1.0,0.4952973750041565,,,,,,,,,,7.0,1.0,85.0,2.0,306.09378104200005,,,,,,,,,,,,,,,,,306.0831589169975,306.43022416699387,307.22612087499874,307.21411274999264,,,,,,,,,,,,,,,,,,,,,,,,,,,,,,,,,,,307.2191186669952,307.22612087499874,307.22612087499874,307.7322871249926,b,1.0,0.4952973750041565,,,,,,sub-046,1,stroop_test,,
,,,,86.0,2.0,7.0,,,,,,,,,,,,,gelb,blue,b,0.0,b,1.0,0.515708375009126,,,,,,,,,,7.0,2.0,86.0,9.0,307.74358716700226,,,,,,,,,,,,,,,,,307.73334062499634,307.8301288329967,308.6257829170063,308.61407333299576,,,,,,,,,,,,,,,,,,,,,,,,,,,,,,,,,,,308.61895241700404,308.6257829170063,308.6257829170063,309.1490209170006,b,1.0,0.515708375009126,,,,,,sub-046,1,stroop_test,,
,,,,87.0,3.0,7.0,,,,,,,,,,,,,rot,red,r,1.0,r,1.0,0.4169769580039428,,,,,,,,,,7.0,3.0,87.0,0.0,309.16054958300083,,,,,,,,,,,,,,,,,309.15005974999804,309.246946416999,310.0434234169952,310.03084358299384,,,,,,,,,,,,,,,,,,,,,,,,,,,,,,,,,,,310.0361440419947,310.0434234169952,310.0434234169952,310.4653020419937,r,1.0,0.4169769580039428,,,,,,sub-046,1,stroop_test,,
,,,,88.0,4.0,7.0,,,,,,,,,,,,,rot,red,r,1.0,r,1.0,0.4880621250049444,,,,,,,,,,7.0,4.0,88.0,1.0,310.4764905420016,,,,,,,,,,,,,,,,,310.4659819170047,310.8136899579986,311.605352832994,311.5975288750051,,,,,,,,,,,,,,,,,,,,,,,,,,,,,,,,,,,311.5984806670021,311.605352832994,311.605352832994,312.09832054200524,r,1.0,0.4880621250049444,,,,,,sub-046,1,stroop_test,,
,,,,89.0,5.0,7.0,,,,,,,,,,,,,blau,blue,b,1.0,b,1.0,0.5185744169866666,,,,,,,,,,7.0,5.0,89.0,6.0,312.1096820829989,,,,,,,,,,,,,,,,,312.0989969999937,312.8971468749951,313.69277704200067,313.6807045000023,,,,,,,,,,,,,,,,,,,,,,,,,,,,,,,,,,,313.6857980000059,313.69277704200067,313.69277704200067,314.21542862500064,b,1.0,0.5185744169866666,,,,,,sub-046,1,stroop_test,,
,,,,90.0,6.0,7.0,,,,,,,,,,,,,gelb,yellow,g,1.0,g,1.0,0.4592140000022482,,,,,,,,,,7.0,6.0,90.0,10.0,314.22682212499785,,,,,,,,,,,,,,,,,314.2161410830013,314.5637534999987,315.35982666700147,315.3474924579932,,,,,,,,,,,,,,,,,,,,,,,,,,,,,,,,,,,315.35271695800475,315.35982666700147,315.35982666700147,315.8209136670048,g,1.0,0.4592140000022482,,,,,,sub-046,1,stroop_test,,
,,,,91.0,7.0,7.0,,,,,,,,,,,,,blau,yellow,g,0.0,g,1.0,0.7225021249905694,,,,,,,,,,7.0,7.0,91.0,7.0,315.83208408299834,,,,,,,,,,,,,,,,,315.8213860419928,317.019875375001,317.8157539170061,317.8033621249924,,,,,,,,,,,,,,,,,,,,,,,,,,,,,,,,,,,317.8084325420059,317.8157539170061,317.8157539170061,318.54902195799514,g,1.0,0.7225021249905694,,,,,,sub-046,1,stroop_test,,
,,,,92.0,8.0,7.0,,,,,,,,,,,,,blau,blue,b,1.0,b,1.0,0.6481142499978887,,,,,,,,,,7.0,8.0,92.0,5.0,318.56092633299704,,,,,,,,,,,,,,,,,318.55006074999983,318.6469997079985,319.43811133300187,319.4305852079997,,,,,,,,,,,,,,,,,,,,,,,,,,,,,,,,,,,319.4313194999995,319.43811133300187,319.43811133300187,320.08752345800167,b,1.0,0.6481142499978887,,,,,,sub-046,1,stroop_test,,
,,,,93.0,9.0,7.0,,,,,,,,,,,,,blau,red,r,0.0,r,1.0,0.5328770839987556,,,,,,,,,,7.0,9.0,93.0,4.0,320.096965292003,,,,,,,,,,,,,,,,,320.08807537499524,321.286545666997,322.0792701250029,322.07004783299635,,,,,,,,,,,,,,,,,,,,,,,,,,,,,,,,,,,322.0706283329928,322.0792701250029,322.0792701250029,322.6148703329964,r,1.0,0.5328770839987556,,,,,,sub-046,1,stroop_test,,
,,,,94.0,10.0,7.0,,,,,,,,,,,,,gelb,red,r,0.0,r,1.0,0.6025312919955468,,,,,,,,,,7.0,10.0,94.0,8.0,322.625962332997,,,,,,,,,,,,,,,,,322.61553562499466,323.4137015000015,324.20950549999543,324.19750799999747,,,,,,,,,,,,,,,,,,,,,,,,,,,,,,,,,,,324.2025476669951,324.20950549999543,324.20950549999543,324.8156431249954,r,1.0,0.6025312919955468,,,,,,sub-046,1,stroop_test,,
,,,,95.0,11.0,7.0,,,,,,,,,,,,,rot,yellow,g,0.0,g,1.0,0.7431762920023175,,,,,,,,,,7.0,11.0,95.0,3.0,324.82756491699547,,,,,,,,,,,,,,,,,324.8167131670052,325.16352562500106,325.9598433749925,325.94738508299633,,,,,,,,,,,,,,,,,,,,,,,,,,,,,,,,,,,325.95260279199283,325.9598433749925,325.9598433749925,326.7152254579996,g,1.0,0.7431762920023175,,,,,,sub-046,1,stroop_test,,
,,,,96.0,0.0,8.0,,,,,,,,,,,,,rot,red,r,1.0,b,0.0,0.5942378750041826,,,,,,,,,,8.0,0.0,96.0,0.0,326.72627129200555,,,,,,,,,,,,,,,,,326.7158856669994,326.8133922499983,327.6057634580065,327.59746433299733,,,,,,,,,,,,,,,,,,,,,,,,,,,,,,,,,,,327.59846533299424,327.6057634580065,327.6057634580065,328.20483795799373,b,0.0,0.5942378750041826,,,,,,sub-046,1,stroop_test,,
,,,,97.0,1.0,8.0,,,,,,,,,,,,,blau,red,r,0.0,b,0.0,0.5008760420023464,,,,,,,,,,8.0,1.0,97.0,4.0,328.21595604199683,,,,,,,,,,,,,,,,,328.20545833300275,328.30251658300404,329.0960924579995,329.08545612500166,,,,,,,,,,,,,,,,,,,,,,,,,,,,,,,,,,,329.0894758749928,329.0960924579995,329.0960924579995,329.5982842499943,b,0.0,0.5008760420023464,,,,,,sub-046,1,stroop_test,,
,,,,98.0,2.0,8.0,,,,,,,,,,,,,rot,red,r,1.0,r,1.0,0.664969999997993,,,,,,,,,,8.0,2.0,98.0,1.0,329.60412845799874,,,,,,,,,,,,,,,,,329.5989609170065,330.397062582997,331.1919852499996,331.18061787499755,,,,,,,,,,,,,,,,,,,,,,,,,,,,,,,,,,,331.18468970799586,331.1919852499996,331.1919852499996,331.865560249993,r,1.0,0.664969999997993,,,,,,sub-046,1,stroop_test,,
,,,,99.0,3.0,8.0,,,,,,,,,,,,,rot,blue,b,0.0,b,1.0,0.5581562080042204,,,,,,,,,,8.0,3.0,99.0,2.0,331.8774084579927,,,,,,,,,,,,,,,,,331.8666661669995,333.0635164169944,333.8555884170055,333.8474626670068,,,,,,,,,,,,,,,,,,,,,,,,,,,,,,,,,,,333.8484227500012,333.8555884170055,333.8555884170055,334.4157454170054,b,1.0,0.5581562080042204,,,,,,sub-046,1,stroop_test,,
,,,,100.0,4.0,8.0,,,,,,,,,,,,,rot,yellow,g,0.0,g,1.0,0.4726233330002287,,,,,,,,,,8.0,4.0,100.0,3.0,334.42170070800057,,,,,,,,,,,,,,,,,334.4166675000015,335.2137594579981,336.00525354199635,335.9974484999984,,,,,,,,,,,,,,,,,,,,,,,,,,,,,,,,,,,335.99842754199926,336.00525354199635,336.00525354199635,336.4816604999942,g,1.0,0.4726233330002287,,,,,,sub-046,1,stroop_test,,
,,,,101.0,5.0,8.0,,,,,,,,,,,,,gelb,red,r,0.0,r,1.0,0.772451209006249,,,,,,,,,,8.0,5.0,101.0,8.0,336.4929430420016,,,,,,,,,,,,,,,,,336.4823401670001,336.5804326249927,337.37607162499626,337.3641002499935,,,,,,,,,,,,,,,,,,,,,,,,,,,,,,,,,,,337.36918850000075,337.37607162499626,337.37607162499626,338.1544774579961,r,1.0,0.772451209006249,,,,,,sub-046,1,stroop_test,,
,,,,102.0,6.0,8.0,,,,,,,,,,,,,blau,yellow,g,0.0,g,1.0,0.4782477080007083,,,,,,,,,,8.0,6.0,102.0,7.0,338.1656545000005,,,,,,,,,,,,,,,,,338.1549622500024,338.2531466670044,339.0485853749997,339.03656179200334,,,,,,,,,,,,,,,,,,,,,,,,,,,,,,,,,,,339.04103208299784,339.0485853749997,339.0485853749997,339.5322707919986,g,1.0,0.4782477080007083,,,,,,sub-046,1,stroop_test,,
,,,,103.0,7.0,8.0,,,,,,,,,,,,,gelb,yellow,g,1.0,g,1.0,0.6207073750119889,,,,,,,,,,8.0,7.0,103.0,10.0,339.54330504199606,,,,,,,,,,,,,,,,,339.53303170799336,339.88053604199376,340.67604541699984,340.66416741699504,,,,,,,,,,,,,,,,,,,,,,,,,,,,,,,,,,,340.6692330829974,340.67604541699984,340.67604541699984,341.29885345799266,g,1.0,0.6207073750119889,,,,,,sub-046,1,stroop_test,,
,,,,104.0,8.0,8.0,,,,,,,,,,,,,blau,blue,b,1.0,b,1.0,0.5448708339972654,,,,,,,,,,8.0,8.0,104.0,6.0,341.30500733299414,,,,,,,,,,,,,,,,,341.29988954200235,341.3971302919963,342.1927632080042,342.1807929170027,,,,,,,,,,,,,,,,,,,,,,,,,,,,,,,,,,,342.1860061670013,342.1927632080042,342.1927632080042,342.7485527499957,b,1.0,0.5448708339972654,,,,,,sub-046,1,stroop_test,,
,,,,105.0,9.0,8.0,,,,,,,,,,,,,gelb,blue,b,0.0,b,1.0,0.5490272910101339,,,,,,,,,,8.0,9.0,105.0,9.0,342.759773208003,,,,,,,,,,,,,,,,,342.7492344170023,342.84710337499564,343.6427381669928,343.63072891699267,,,,,,,,,,,,,,,,,,,,,,,,,,,,,,,,,,,343.6359584169986,343.6427381669928,343.6427381669928,344.1990201669978,b,1.0,0.5490272910101339,,,,,,sub-046,1,stroop_test,,
,,,,106.0,10.0,8.0,,,,,,,,,,,,,gelb,yellow,g,1.0,g,1.0,0.4616124590102117,,,,,,,,,,8.0,10.0,106.0,11.0,344.2107366249984,,,,,,,,,,,,,,,,,344.2001227080036,344.29651458299486,345.0890512920014,345.080825291996,,,,,,,,,,,,,,,,,,,,,,,,,,,,,,,,,,,345.0818042500032,345.0890512920014,345.0890512920014,345.5544261250034,g,1.0,0.4616124590102117,,,,,,sub-046,1,stroop_test,,
,,,,107.0,11.0,8.0,,,,,,,,,,,,,blau,blue,b,1.0,b,1.0,0.3760203330020886,,,,,,,,,,8.0,11.0,107.0,5.0,345.56569899999886,,,,,,,,,,,,,,,,,345.55503429200326,345.9020829999936,346.6986214579956,346.68698949999816,,,,,,,,,,,,,,,,,,,,,,,,,,,,,,,,,,,346.6912710000033,346.6986214579956,346.6986214579956,347.0824972919945,b,1.0,0.3760203330020886,,,,,,sub-046,1,stroop_test,,
,,,,108.0,0.0,9.0,,,,,,,,,,,,,rot,red,r,1.0,r,1.0,0.5584322079957929,,,,,,,,,,9.0,0.0,108.0,1.0,347.0940627499949,,,,,,,,,,,,,,,,,347.0836396670056,348.28045266699337,349.0760727080051,349.06412841699785,,,,,,,,,,,,,,,,,,,,,,,,,,,,,,,,,,,349.0691075420036,349.0760727080051,349.0760727080051,349.6374932500039,r,1.0,0.5584322079957929,,,,,,sub-046,1,stroop_test,,
,,,,109.0,1.0,9.0,,,,,,,,,,,,,gelb,yellow,g,1.0,b,0.0,0.4685995409963652,,,,,,,,,,9.0,1.0,109.0,11.0,349.6491368749994,,,,,,,,,,,,,,,,,349.6380966249999,350.8357407500007,351.62995833299647,351.6199232920044,,,,,,,,,,,,,,,,,,,,,,,,,,,,,,,,,,,351.62346862499544,351.62995833299647,351.62995833299647,352.10441887499474,b,0.0,0.4685995409963652,,,,,,sub-046,1,stroop_test,,
,,,,110.0,2.0,9.0,,,,,,,,,,,,,rot,red,r,1.0,r,1.0,0.6207999580074102,,,,,,,,,,9.0,2.0,110.0,0.0,352.11559312499594,,,,,,,,,,,,,,,,,352.10492620800505,352.90310954200686,353.6996391249995,353.68667658300546,,,,,,,,,,,,,,,,,,,,,,,,,,,,,,,,,,,353.6927998330066,353.6996391249995,353.6996391249995,354.33241045799514,r,1.0,0.6207999580074102,,,,,,sub-046,1,stroop_test,,
,,,,111.0,3.0,9.0,,,,,,,,,,,,,gelb,blue,b,0.0,b,1.0,0.4474777090072166,,,,,,,,,,9.0,3.0,111.0,9.0,354.3439742079936,,,,,,,,,,,,,,,,,354.33346137500484,354.4305772920052,355.2259731249942,355.2140672920068,,,,,,,,,,,,,,,,,,,,,,,,,,,,,,,,,,,355.2191737499961,355.2259731249942,355.2259731249942,355.6819631669932,b,1.0,0.4474777090072166,,,,,,sub-046,1,stroop_test,,
,,,,112.0,4.0,9.0,,,,,,,,,,,,,blau,red,r,0.0,r,1.0,1.5063458329968853,,,,,,,,,,9.0,4.0,112.0,4.0,355.6929303329962,,,,,,,,,,,,,,,,,355.68265283299843,356.4803672499984,357.27601583300566,357.2640855420032,,,,,,,,,,,,,,,,,,,,,,,,,,,,,,,,,,,357.26919550000457,357.27601583300566,357.27601583300566,358.787346416997,r,1.0,1.5063458329968853,,,,,,sub-046,1,stroop_test,,
,,,,113.0,5.0,9.0,,,,,,,,,,,,,gelb,yellow,g,1.0,g,1.0,0.3724794579902664,,,,,,,,,,9.0,5.0,113.0,10.0,358.7985876669991,,,,,,,,,,,,,,,,,358.78783366699645,359.1363461669971,359.9298657920008,359.91919279200374,,,,,,,,,,,,,,,,,,,,,,,,,,,,,,,,,,,359.9234245419939,359.9298657920008,359.9298657920008,360.304131375,g,1.0,0.3724794579902664,,,,,,sub-046,1,stroop_test,,
,,,,114.0,6.0,9.0,,,,,,,,,,,,,gelb,red,r,0.0,r,1.0,0.6992220829997677,,,,,,,,,,9.0,6.0,114.0,8.0,360.3132283750019,,,,,,,,,,,,,,,,,360.3047677080031,360.6529822919984,361.44606366699736,361.4366755420051,,,,,,,,,,,,,,,,,,,,,,,,,,,,,,,,,,,361.4372798330005,361.44606366699736,361.44606366699736,362.14852333300223,r,1.0,0.6992220829997677,,,,,,sub-046,1,stroop_test,,
,,,,115.0,7.0,9.0,,,,,,,,,,,,,rot,blue,b,0.0,b,1.0,0.5908258340059547,,,,,,,,,,9.0,7.0,115.0,2.0,362.15989979199367,,,,,,,,,,,,,,,,,362.14951916699647,362.9469122080045,363.742479374996,363.7307224169927,,,,,,,,,,,,,,,,,,,,,,,,,,,,,,,,,,,363.7353342499992,363.742479374996,363.742479374996,364.337688582993,b,1.0,0.5908258340059547,,,,,,sub-046,1,stroop_test,,
,,,,116.0,8.0,9.0,,,,,,,,,,,,,rot,yellow,g,0.0,g,1.0,0.531780000004801,,,,,,,,,,9.0,8.0,116.0,3.0,364.34884137500194,,,,,,,,,,,,,,,,,364.3381859999936,365.53650512499735,366.3294781250006,366.31935024999257,,,,,,,,,,,,,,,,,,,,,,,,,,,,,,,,,,,366.319985042006,366.3294781250006,366.3294781250006,366.8652750420006,g,1.0,0.531780000004801,,,,,,sub-046,1,stroop_test,,
,,,,117.0,9.0,9.0,,,,,,,,,,,,,blau,blue,b,1.0,b,1.0,0.4423237500013783,,,,,,,,,,9.0,9.0,117.0,5.0,366.876358124995,,,,,,,,,,,,,,,,,366.8660715830047,367.663823750001,368.4597358750034,368.4475365830003,,,,,,,,,,,,,,,,,,,,,,,,,,,,,,,,,,,368.4528818749968,368.4597358750034,368.4597358750034,368.9041002919985,b,1.0,0.4423237500013783,,,,,,sub-046,1,stroop_test,,
,,,,118.0,10.0,9.0,,,,,,,,,,,,,blau,blue,b,1.0,b,1.0,0.3780144579941407,,,,,,,,,,9.0,10.0,118.0,6.0,368.9154420830018,,,,,,,,,,,,,,,,,368.9045728750061,370.103348042001,370.8960099579999,370.8866318329965,,,,,,,,,,,,,,,,,,,,,,,,,,,,,,,,,,,370.8872370830068,370.8960099579999,370.8960099579999,371.2821771250019,b,1.0,0.3780144579941407,,,,,,sub-046,1,stroop_test,,
,,,,119.0,11.0,9.0,,,,,,,,,,,,,blau,yellow,g,0.0,r,0.0,0.4095892909972463,,,,,,,,,,9.0,11.0,119.0,7.0,371.2937249999959,,,,,,,,,,,,,,,,,371.2832674579986,372.08045187499374,372.8727021670056,372.8642134999973,,,,,,,,,,,,,,,,,,,,,,,,,,,,,,,,,,,372.8651944169978,372.8727021670056,372.8727021670056,373.2876490000053,r,0.0,0.4095892909972463,,,,,,sub-046,1,stroop_test,,
,,,,,,,,,,,,,,,,,,,,,,,,,,,,,,,,,,,,,,,,,,,,,,,,,,,,,,,,,,,,,,,,,,,,,,,,,,,,,,,,,,,,,,,,,,,,,,,,,,,,,,373.28789762500674,373.3016058329959,378.2970956250065,378.286599250001,sub-046,1,stroop_test,,
