wordCTK,colorCTK,corrAnsCTK,congruentCTK,thisN,thisTrialN,thisRepN,keyResp_CTK.keys,keyResp_CTK.corr,keyResp_CTK.rt,keyResp_CTK.duration,wordPractice,colorPractice,corrAnsPractice,congruentPractice,respPractice.keys,respPractice.corr,respPractice.rt,respPractice.duration,word,color,corrAns,congruent,keyResp_test_run.keys,keyResp_test_run.corr,keyResp_test_run.rt,keyResp_test_run.duration,trials_CTK.thisRepN,trials_CTK.thisTrialN,trials_CTK.thisN,trials_CTK.thisIndex,trials_practice.thisRepN,trials_practice.thisTrialN,trials_practice.thisN,trials_practice.thisIndex,trials_test.thisRepN,trials_test.thisTrialN,trials_test.thisN,trials_test.thisIndex,thisRow.t,notes,instruction.started,instr_text.started,instr_image.started,instr_resp.started,instruction.stopped,instr_resp.keys,instr_resp.rt,instr_resp.duration,instr_color_to_key.started,instr_ctk.started,resp_ctk.started,instr_color_to_key.stopped,resp_ctk.keys,resp_ctk.rt,resp_ctk.duration,ITI.started,fixcross.started,fixcross.stopped,ITI.stopped,color_to_key_run.started,stimulus_CTK.started,keyResp_CTK.started,color_to_key_run.stopped,trials_CTK.keyResp_CTK.keys,trials_CTK.keyResp_CTK.corr,trials_CTK.keyResp_CTK.rt,trials_CTK.keyResp_CTK.duration,instr_practice.started,instr_practice_text.started,instr_practice_resp.started,instr_practice.stopped,instr_practice_resp.keys,instr_practice_resp.rt,instr_practice_resp.duration,practice_run.started,stimulus_practice.started,respPractice.started,practice_run.stopped,trials_practice.respPractice.keys,trials_practice.respPractice.corr,trials_practice.respPractice.rt,trials_practice.respPractice.duration,feedback.started,textFeedback.started,textFeedback.stopped,feedback.stopped,instr_test.started,instr_test_text.started,instr_test_resp.started,instr_test.stopped,instr_test_resp.keys,instr_test_resp.rt,instr_test_resp.duration,test_run.started,stimulus_test_run.started,keyResp_test_run.started,test_run.stopped,trials_test.keyResp_test_run.keys,trials_test.keyResp_test_run.corr,trials_test.keyResp_test_run.rt,trials_test.keyResp_test_run.duration,goodbye.started,textGoodbye.started,textGoodbye.stopped,goodbye.stopped,participant,session,expName,frameRate,Unnamed: 113
,,,,,,,,,,,,,,,,,,,,,,,,,,,,,,,,,,,,,,,,,0.0074040999998032,0.0153925000004164,0.0153925000004164,0.0153925000004164,24.284699400000136,space,24.26143240000056,,,,,,,,,,,,,,,,,,,,,,,,,,,,,,,,,,,,,,,,,,,,,,,,,,,,,,,,,,,sub-140,3,stroop_test,119.24806937290587,
,,,,,,,,,,,,,,,,,,,,,,,,,,,,,,,,,,,,,,,,,,,,,,,,,24.2847769,24.289771400000063,24.289771400000063,26.79101859999992,space,2.4955649000003177,,,,,,,,,,,,,,,,,,,,,,,,,,,,,,,,,,,,,,,,,,,,,,,,,,,,sub-140,3,stroop_test,119.24806937290587,
test,red,r,1.0,0.0,0.0,0.0,r,1.0,1.751854000000094,,,,,,,,,,,,,,,,,,0.0,0.0,0.0,0.0,,,,,,,,,26.810697900000378,,,,,,,,,,,,,,,,,26.799760900000365,27.13730730000043,27.93036769999981,27.92155770000045,27.92620420000003,27.93036769999981,27.93036769999981,29.68970290000016,r,1.0,1.751854000000094,,,,,,,,,,,,,,,,,,,,,,,,,,,,,,,,,,,,,,,,sub-140,3,stroop_test,119.24806937290587,
test,yellow,g,1.0,1.0,1.0,0.0,g,1.0,0.9928500000005442,,,,,,,,,,,,,,,,,,0.0,1.0,1.0,1.0,,,,,,,,,29.696823000000222,,,,,,,,,,,,,,,,,29.68999340000028,30.48869569999988,31.28044239999963,31.27261480000016,31.27302059999965,31.28044239999963,31.28044239999963,32.28159270000015,g,1.0,0.9928500000005442,,,,,,,,,,,,,,,,,,,,,,,,,,,,,,,,,,,,,,,,sub-140,3,stroop_test,119.24806937290587,
test,blue,b,1.0,2.0,2.0,0.0,b,1.0,0.5443890999995347,,,,,,,,,,,,,,,,,,0.0,2.0,2.0,2.0,,,,,,,,,32.28927290000047,,,,,,,,,,,,,,,,,32.28186989999995,33.48076779999974,34.271711600000344,34.26475380000011,34.26515029999973,34.271711600000344,34.271711600000344,34.82345859999987,b,1.0,0.5443890999995347,,,,,,,,,,,,,,,,,,,,,,,,,,,,,,,,,,,,,,,,sub-140,3,stroop_test,119.24806937290587,
test,blue,b,1.0,3.0,0.0,1.0,b,1.0,0.5974458000000595,,,,,,,,,,,,,,,,,,1.0,0.0,3.0,2.0,,,,,,,,,34.830563299999994,,,,,,,,,,,,,,,,,34.82383149999987,35.62231249999968,36.4137082999996,36.40585809999993,36.406246499999725,36.4137082999996,36.4137082999996,37.0146464999998,b,1.0,0.5974458000000595,,,,,,,,,,,,,,,,,,,,,,,,,,,,,,,,,,,,,,,,sub-140,3,stroop_test,119.24806937290587,
test,red,r,1.0,4.0,1.0,1.0,r,1.0,0.461935799999992,,,,,,,,,,,,,,,,,,1.0,1.0,4.0,0.0,,,,,,,,,37.02302659999987,,,,,,,,,,,,,,,,,37.014916000000085,38.21366269999999,39.00509870000042,38.99746950000008,38.99788929999977,39.00509870000042,39.00509870000042,39.47350129999995,r,1.0,0.461935799999992,,,,,,,,,,,,,,,,,,,,,,,,,,,,,,,,,,,,,,,,sub-140,3,stroop_test,119.24806937290587,
test,yellow,g,1.0,5.0,2.0,1.0,g,1.0,0.6561462999998184,,,,,,,,,,,,,,,,,,1.0,2.0,5.0,1.0,,,,,,,,,39.48058639999999,,,,,,,,,,,,,,,,,39.4737611999999,39.82218310000008,40.61371109999982,40.60599610000008,40.6064193000002,40.61371109999982,40.61371109999982,41.27283929999976,g,1.0,0.6561462999998184,,,,,,,,,,,,,,,,,,,,,,,,,,,,,,,,,,,,,,,,sub-140,3,stroop_test,119.24806937290587,
test,yellow,g,1.0,6.0,0.0,2.0,g,1.0,0.4771799000000101,,,,,,,,,,,,,,,,,,2.0,0.0,6.0,1.0,,,,,,,,,41.28078980000009,,,,,,,,,,,,,,,,,41.273103399999854,42.06364020000001,42.855146400000194,42.84877950000009,42.84939649999978,42.855146400000194,42.855146400000194,43.33965939999962,g,1.0,0.4771799000000101,,,,,,,,,,,,,,,,,,,,,,,,,,,,,,,,,,,,,,,,sub-140,3,stroop_test,119.24806937290587,
test,red,r,1.0,7.0,1.0,2.0,r,1.0,0.596153299999969,,,,,,,,,,,,,,,,,,2.0,1.0,7.0,0.0,,,,,,,,,43.3472813999997,,,,,,,,,,,,,,,,,43.33994749999965,44.5309344999996,45.32208939999964,45.31413960000009,45.31453810000039,45.32208939999964,45.32208939999964,45.92278820000047,r,1.0,0.596153299999969,,,,,,,,,,,,,,,,,,,,,,,,,,,,,,,,,,,,,,,,sub-140,3,stroop_test,119.24806937290587,
test,blue,b,1.0,8.0,2.0,2.0,b,1.0,0.5386295000007522,,,,,,,,,,,,,,,,,,2.0,2.0,8.0,2.0,,,,,,,,,45.93053210000016,,,,,,,,,,,,,,,,,45.923058299999866,46.71435490000022,47.505468100000144,47.49754279999979,47.49795119999999,47.505468100000144,47.505468100000144,48.04787120000037,b,1.0,0.5386295000007522,,,,,,,,,,,,,,,,,,,,,,,,,,,,,,,,,,,,,,,,sub-140,3,stroop_test,119.24806937290587,
test,blue,b,1.0,9.0,0.0,3.0,b,1.0,0.403669300000729,,,,,,,,,,,,,,,,,,3.0,0.0,9.0,2.0,,,,,,,,,48.055496400000266,,,,,,,,,,,,,,,,,48.04813009999998,48.388853800000106,49.18036459999985,49.17247740000039,49.172881000000416,49.18036459999985,49.18036459999985,49.59015249999993,b,1.0,0.403669300000729,,,,,,,,,,,,,,,,,,,,,,,,,,,,,,,,,,,,,,,,sub-140,3,stroop_test,119.24806937290587,
test,red,r,1.0,10.0,1.0,3.0,r,1.0,0.680427399999644,,,,,,,,,,,,,,,,,,3.0,1.0,10.0,0.0,,,,,,,,,49.59721749999972,,,,,,,,,,,,,,,,,49.59042380000028,50.78882840000006,51.5804963999999,51.572478500000216,51.57288260000041,51.5804963999999,51.5804963999999,52.26471820000006,r,1.0,0.680427399999644,,,,,,,,,,,,,,,,,,,,,,,,,,,,,,,,,,,,,,,,sub-140,3,stroop_test,119.24806937290587,
test,yellow,g,1.0,11.0,2.0,3.0,g,1.0,0.535058399999798,,,,,,,,,,,,,,,,,,3.0,2.0,11.0,1.0,,,,,,,,,52.27228389999982,,,,,,,,,,,,,,,,,52.26499990000048,53.06363049999982,53.85533099999975,53.84828649999963,53.84870239999964,53.85533099999975,53.85533099999975,54.39789720000044,g,1.0,0.535058399999798,,,,,,,,,,,,,,,,,,,,,,,,,,,,,,,,,,,,,,,,sub-140,3,stroop_test,119.24806937290587,
,,,,,,,,,,,,,,,,,,,,,,,,,,,,,,,,,,,,,,,,,,,,,,,,,,,,,,,,,,,,,,,,,,,,54.39803050000046,54.40544339999997,54.40544339999997,56.831214400000135,space,2.421190800000659,,,,,,,,,,,,,,,,,,,,,,,,,,,,,,,,,sub-140,3,stroop_test,119.24806937290587,
,,,,0.0,0.0,0.0,,,,,blau,blue,b,1.0,b,1.0,0.4603050999994593,,,,,,,,,,,,,,0.0,0.0,0.0,5.0,,,,,56.85115330000008,,,,,,,,,,,,,,,,,56.83901830000013,57.17602069999976,57.96837359999972,57.96011910000016,,,,,,,,,,,,,,,,57.9650416000004,57.96837359999972,57.96837359999972,58.43660559999989,b,1.0,0.4603050999994593,,58.44264120000025,58.44679580000047,59.43896870000026,59.43110710000019,,,,,,,,,,,,,,,,,,,,sub-140,3,stroop_test,119.24806937290587,
,,,,1.0,1.0,0.0,,,,,gelb,yellow,g,1.0,g,1.0,0.5696033000003808,,,,,,,,,,,,,,0.0,1.0,1.0,10.0,,,,,59.43896870000026,,,,,,,,,,,,,,,,,59.43148130000009,59.78094169999986,60.57179470000028,60.56453359999978,,,,,,,,,,,,,,,,60.56707329999972,60.57179470000028,60.57179470000028,61.14824669999962,g,1.0,0.5696033000003808,,61.148730500000056,61.15584849999959,62.14692949999972,62.139234500000384,,,,,,,,,,,,,,,,,,,,sub-140,3,stroop_test,119.24806937290587,
,,,,2.0,2.0,0.0,,,,,rot,yellow,g,0.0,g,1.0,0.7071871000007377,,,,,,,,,,,,,,0.0,2.0,2.0,3.0,,,,,62.14692949999972,,,,,,,,,,,,,,,,,62.13963530000001,62.2471716,63.038505800000166,63.03089110000019,,,,,,,,,,,,,,,,63.034288699999706,63.038505800000166,63.038505800000166,63.747919499999625,g,1.0,0.7071871000007377,,63.74833190000027,63.75519989999975,64.74709569999959,64.73923970000033,,,,,,,,,,,,,,,,,,,,sub-140,3,stroop_test,119.24806937290587,
,,,,3.0,3.0,0.0,,,,,blau,blue,b,1.0,b,1.0,0.5118849000000409,,,,,,,,,,,,,,0.0,3.0,3.0,6.0,,,,,64.74709569999959,,,,,,,,,,,,,,,,,64.73954690000028,65.93894629999977,66.72977489999994,66.7224612,,,,,,,,,,,,,,,,66.7248013999997,66.72977489999994,66.72977489999994,67.24856559999989,b,1.0,0.5118849000000409,,67.24899540000024,67.2556053999997,68.24710340000001,68.23915560000023,,,,,,,,,,,,,,,,,,,,sub-140,3,stroop_test,119.24806937290587,
,,,,4.0,4.0,0.0,,,,,rot,blue,b,0.0,b,1.0,0.7946011999993061,,,,,,,,,,,,,,0.0,4.0,4.0,2.0,,,,,68.24710340000001,,,,,,,,,,,,,,,,,68.2394204000002,68.59721449999961,69.38859279999997,69.3808683999996,,,,,,,,,,,,,,,,69.38312659999974,69.38859279999997,69.38859279999997,70.18994620000012,b,1.0,0.7946011999993061,,70.19037170000047,70.19770229999995,71.18901540000024,71.18138220000037,,,,,,,,,,,,,,,,,,,,sub-140,3,stroop_test,119.24806937290587,
,,,,5.0,5.0,0.0,,,,,blau,yellow,g,0.0,g,1.0,1.1935077000007368,,,,,,,,,,,,,,0.0,5.0,5.0,7.0,,,,,71.18901540000024,,,,,,,,,,,,,,,,,71.18171359999997,71.98871150000014,72.78023010000015,72.77249540000048,,,,,,,,,,,,,,,,72.7758259000002,72.78023010000015,72.78023010000015,73.98168840000017,g,1.0,1.1935077000007368,,73.98214139999982,73.98831700000028,74.98057049999989,74.9735628999997,,,,,,,,,,,,,,,,,,,,sub-140,3,stroop_test,119.24806937290587,
,,,,6.0,6.0,0.0,,,,,rot,red,r,1.0,r,1.0,0.7872480000005453,,,,,,,,,,,,,,0.0,6.0,6.0,1.0,,,,,74.98057049999989,,,,,,,,,,,,,,,,,74.97383609999997,75.33032209999965,76.12160180000046,76.11435869999968,,,,,,,,,,,,,,,,76.11663930000032,76.12160180000046,76.12160180000046,76.91498539999975,r,1.0,0.7872480000005453,,76.91540910000003,76.92259250000006,77.91392470000028,77.90587500000038,,,,,,,,,,,,,,,,,,,,sub-140,3,stroop_test,119.24806937290587,
,,,,7.0,7.0,0.0,,,,,gelb,yellow,g,1.0,g,1.0,0.4715821999998297,,,,,,,,,,,,,,0.0,7.0,7.0,11.0,,,,,77.91392470000028,,,,,,,,,,,,,,,,,77.90614410000035,78.01384310000049,78.80531330000031,78.79760230000011,,,,,,,,,,,,,,,,78.80129800000032,78.80531330000031,78.80531330000031,79.28139060000012,g,1.0,0.4715821999998297,,79.28181500000028,79.28889549999985,80.28049250000004,80.27241520000007,,,,,,,,,,,,,,,,,,,,sub-140,3,stroop_test,119.24806937290587,
,,,,8.0,8.0,0.0,,,,,gelb,blue,b,0.0,b,1.0,0.329564499999833,,,,,,,,,,,,,,0.0,8.0,8.0,9.0,,,,,80.28049250000004,,,,,,,,,,,,,,,,,80.27268029999959,80.62236829999983,81.41406370000004,81.40626220000013,,,,,,,,,,,,,,,,81.40664879999986,81.41406370000004,81.41406370000004,81.74815310000031,b,1.0,0.329564499999833,,81.74861320000036,81.75528329999997,82.74758050000037,82.7399131000002,,,,,,,,,,,,,,,,,,,,sub-140,3,stroop_test,119.24806937290587,
,,,,9.0,9.0,0.0,,,,,rot,red,r,1.0,r,1.0,0.6763707999998587,,,,,,,,,,,,,,0.0,9.0,9.0,0.0,,,,,82.74758050000037,,,,,,,,,,,,,,,,,82.7403333000002,83.93893050000042,84.7299122000004,84.72279020000042,,,,,,,,,,,,,,,,84.72523430000001,84.7299122000004,84.7299122000004,85.41447080000034,r,1.0,0.6763707999998587,,85.41496840000036,85.42192609999984,86.41427279999971,86.40620459999991,,,,,,,,,,,,,,,,,,,,sub-140,3,stroop_test,119.24806937290587,
,,,,10.0,10.0,0.0,,,,,blau,red,r,0.0,r,1.0,0.6001145999998698,,,,,,,,,,,,,,0.0,10.0,10.0,4.0,,,,,86.41427279999971,,,,,,,,,,,,,,,,,86.40646459999971,86.75594369999999,87.54692760000034,87.53942900000038,,,,,,,,,,,,,,,,87.54236469999978,87.54692760000034,87.54692760000034,88.14882670000043,r,1.0,0.6001145999998698,,88.14931780000006,88.15509569999995,89.14734510000017,89.13955100000021,,,,,,,,,,,,,,,,,,,,sub-140,3,stroop_test,119.24806937290587,
,,,,11.0,11.0,0.0,,,,,gelb,red,r,0.0,r,1.0,0.3827285999996093,,,,,,,,,,,,,,0.0,11.0,11.0,8.0,,,,,89.14734510000017,,,,,,,,,,,,,,,,,89.13981899999999,89.24708540000029,90.0385212000001,90.03135339999972,,,,,,,,,,,,,,,,90.03458690000025,90.0385212000001,90.0385212000001,90.42342519999966,r,1.0,0.3827285999996093,,90.42407869999988,90.42999729999974,91.42228630000044,91.41445759999988,,,,,,,,,,,,,,,,,,,,sub-140,3,stroop_test,119.24806937290587,
,,,,12.0,0.0,1.0,,,,,rot,red,r,1.0,r,1.0,0.4530706000005011,,,,,,,,,,,,,,1.0,0.0,12.0,0.0,,,,,91.42228630000044,,,,,,,,,,,,,,,,,91.4147912999997,91.51419309999984,92.3054130999999,92.29793770000016,,,,,,,,,,,,,,,,92.30025490000024,92.3054130999999,92.3054130999999,92.76552100000026,r,1.0,0.4530706000005011,,92.76595030000044,92.77228449999984,93.76396769999974,93.75651350000044,,,,,,,,,,,,,,,,,,,,sub-140,3,stroop_test,119.24806937290587,
,,,,13.0,1.0,1.0,,,,,blau,red,r,0.0,r,1.0,0.9757190000000264,,,,,,,,,,,,,,1.0,1.0,13.0,4.0,,,,,93.76396769999974,,,,,,,,,,,,,,,,,93.75692499999968,94.5637101000002,95.35539810000046,95.3476528000001,,,,,,,,,,,,,,,,95.3496728,95.35539810000046,95.35539810000046,96.3398514999999,r,1.0,0.9757190000000264,,96.34029939999982,96.34697340000002,97.33894280000004,97.33115139999973,,,,,,,,,,,,,,,,,,,,sub-140,3,stroop_test,119.24806937290587,
,,,,14.0,2.0,1.0,,,,,gelb,yellow,g,1.0,g,1.0,0.7145299000003433,,,,,,,,,,,,,,1.0,2.0,14.0,11.0,,,,,97.33894280000004,,,,,,,,,,,,,,,,,97.33141520000028,97.43050690000018,98.22191959999964,98.21447739999984,,,,,,,,,,,,,,,,98.21753790000002,98.22191959999964,98.22191959999964,98.9401452000002,g,1.0,0.7145299000003433,,98.9407497000002,98.94715890000045,99.93872060000012,99.93160119999992,,,,,,,,,,,,,,,,,,,,sub-140,3,stroop_test,119.24806937290587,
,,,,15.0,3.0,1.0,,,,,rot,red,r,1.0,r,1.0,0.5376623000001928,,,,,,,,,,,,,,1.0,3.0,15.0,1.0,,,,,99.93872060000012,,,,,,,,,,,,,,,,,99.9318787000002,101.13043060000018,101.92200729999968,101.91441680000024,,,,,,,,,,,,,,,,101.91671399999996,101.92200729999968,101.92200729999968,102.4650058999996,r,1.0,0.5376623000001928,,102.4654191999998,102.47280460000002,103.46387890000004,103.45632709999973,,,,,,,,,,,,,,,,,,,,sub-140,3,stroop_test,119.24806937290587,
,,,,16.0,4.0,1.0,,,,,gelb,blue,b,0.0,b,1.0,0.6183456999997361,,,,,,,,,,,,,,1.0,4.0,16.0,9.0,,,,,103.46387890000004,,,,,,,,,,,,,,,,,103.45675850000045,103.56401449999976,104.35650330000044,104.34899349999978,,,,,,,,,,,,,,,,104.35216240000044,104.35650330000044,104.35650330000044,104.9836604000002,b,1.0,0.6183456999997361,,104.98407990000032,104.98945809999988,105.98170560000015,105.97411910000028,,,,,,,,,,,,,,,,,,,,sub-140,3,stroop_test,119.24806937290587,
,,,,17.0,5.0,1.0,,,,,blau,blue,b,1.0,b,1.0,0.5094673999992665,,,,,,,,,,,,,,1.0,5.0,17.0,5.0,,,,,105.98170560000015,,,,,,,,,,,,,,,,,105.9744010000004,106.33181839999996,107.12300700000014,107.11635579999984,,,,,,,,,,,,,,,,107.11843450000016,107.12300700000014,107.12300700000014,107.64097610000044,b,1.0,0.5094673999992665,,107.6414003,107.64810300000045,108.64001819999976,108.6320956999998,,,,,,,,,,,,,,,,,,,,sub-140,3,stroop_test,119.24806937290587,
,,,,18.0,6.0,1.0,,,,,gelb,yellow,g,1.0,g,1.0,0.6323082999997496,,,,,,,,,,,,,,1.0,6.0,18.0,10.0,,,,,108.64001819999976,,,,,,,,,,,,,,,,,108.63235910000004,109.43985750000049,110.23131620000004,110.22421200000008,,,,,,,,,,,,,,,,110.22742769999968,110.23131620000004,110.23131620000004,110.86583820000033,g,1.0,0.6323082999997496,,110.86626950000029,110.8733156999997,111.86517000000003,111.85704420000002,,,,,,,,,,,,,,,,,,,,sub-140,3,stroop_test,119.24806937290587,
,,,,19.0,7.0,1.0,,,,,rot,blue,b,0.0,b,1.0,0.7481627999995908,,,,,,,,,,,,,,1.0,7.0,19.0,2.0,,,,,111.86517000000003,,,,,,,,,,,,,,,,,111.85738599999968,112.20673239999996,112.99842809999971,112.99134349999986,,,,,,,,,,,,,,,,112.9941243000003,112.99842809999971,112.99842809999971,113.74932919999992,b,1.0,0.7481627999995908,,113.74995839999974,113.75643909999962,114.7484783,114.74105109999982,,,,,,,,,,,,,,,,,,,,sub-140,3,stroop_test,119.24806937290587,
,,,,20.0,8.0,1.0,,,,,gelb,red,r,0.0,r,1.0,0.5657876000004762,,,,,,,,,,,,,,1.0,8.0,20.0,8.0,,,,,114.7484783,,,,,,,,,,,,,,,,,114.74141229999988,115.94079429999964,116.73217709999972,116.72456220000004,,,,,,,,,,,,,,,,116.72720320000008,116.73217709999972,116.73217709999972,117.29992880000007,r,1.0,0.5657876000004762,,117.3005976000004,117.3065571999996,118.2989375999996,118.29197920000024,,,,,,,,,,,,,,,,,,,,sub-140,3,stroop_test,119.24806937290587,
,,,,21.0,9.0,1.0,,,,,blau,blue,b,1.0,b,1.0,0.560953199999858,,,,,,,,,,,,,,1.0,9.0,21.0,6.0,,,,,118.2989375999996,,,,,,,,,,,,,,,,,118.29226310000011,119.09871920000025,119.89003909999974,119.88226089999988,,,,,,,,,,,,,,,,119.8849148999998,119.89003909999974,119.89003909999974,120.45804769999997,b,1.0,0.560953199999858,,120.45847130000038,120.46562999999968,121.4571549000002,121.44920269999966,,,,,,,,,,,,,,,,,,,,sub-140,3,stroop_test,119.24806937290587,
,,,,22.0,10.0,1.0,,,,,blau,yellow,g,0.0,g,1.0,0.6063743000004251,,,,,,,,,,,,,,1.0,10.0,22.0,7.0,,,,,121.4571549000002,,,,,,,,,,,,,,,,,121.44964429999982,121.55681970000025,122.34847480000008,122.34169930000007,,,,,,,,,,,,,,,,122.34212949999984,122.34847480000008,122.34847480000008,122.95804729999963,g,1.0,0.6063743000004251,,122.95858250000038,122.96543660000044,123.95698189999985,123.94925599999988,,,,,,,,,,,,,,,,,,,,sub-140,3,stroop_test,119.24806937290587,
,,,,23.0,11.0,1.0,,,,,rot,yellow,g,0.0,g,1.0,0.7851786000001084,,,,,,,,,,,,,,1.0,11.0,23.0,3.0,,,,,123.95698189999985,,,,,,,,,,,,,,,,,123.94952809999997,124.74857059999977,125.54082579999977,125.53328489999969,,,,,,,,,,,,,,,,125.5359269999999,125.54082579999977,125.54082579999977,126.33415719999994,g,1.0,0.7851786000001084,,126.33469390000027,126.34062449999963,127.3324990000001,127.32524860000012,,,,,,,,,,,,,,,,,,,,sub-140,3,stroop_test,119.24806937290587,
,,,,,,,,,,,,,,,,,,,,,,,,,,,,,,,,,,,,,,,,,,,,,,,,,,,,,,,,,,,,,,,,,,,,,,,,,,,,,,,,,,,,,,,127.32536439999969,127.3324990000001,127.3324990000001,128.46732429999977,space,1.1335828999999649,,,,,,,,,,,,,,sub-140,3,stroop_test,119.24806937290587,
,,,,0.0,0.0,0.0,,,,,,,,,,,,,gelb,yellow,g,1.0,g,1.0,0.4738199000003078,,,,,,,,,,0.0,0.0,0.0,10.0,128.48635060000015,,,,,,,,,,,,,,,,,128.4761079,128.81300780000038,129.60473790000017,129.5970653000004,,,,,,,,,,,,,,,,,,,,,,,,,,,,,,,,,,,129.59958900000038,129.60473790000017,129.60473790000017,130.08089010000003,g,1.0,0.4738199000003078,,,,,,sub-140,3,stroop_test,119.24806937290587,
,,,,1.0,1.0,0.0,,,,,,,,,,,,,rot,yellow,g,0.0,g,1.0,0.5518326000001252,,,,,,,,,,0.0,1.0,1.0,3.0,130.08808820000013,,,,,,,,,,,,,,,,,130.08119390000047,130.1717821000002,130.96346489999996,130.9553810999996,,,,,,,,,,,,,,,,,,,,,,,,,,,,,,,,,,,130.95892000000003,130.96346489999996,130.96346489999996,131.52281709999988,g,1.0,0.5518326000001252,,,,,,sub-140,3,stroop_test,119.24806937290587,
,,,,2.0,2.0,0.0,,,,,,,,,,,,,gelb,blue,b,0.0,b,1.0,0.4942896000002292,,,,,,,,,,0.0,2.0,2.0,9.0,131.5301585999996,,,,,,,,,,,,,,,,,131.52311569999983,132.32183609999993,133.11453849999998,133.1065308999996,,,,,,,,,,,,,,,,,,,,,,,,,,,,,,,,,,,133.1094492000002,133.11453849999998,133.11453849999998,133.6156643000004,b,1.0,0.4942896000002292,,,,,,sub-140,3,stroop_test,119.24806937290587,
,,,,3.0,3.0,0.0,,,,,,,,,,,,,gelb,red,r,0.0,r,1.0,0.5791356999998243,,,,,,,,,,0.0,3.0,3.0,8.0,133.62271940000028,,,,,,,,,,,,,,,,,133.61611220000032,134.4152253000002,135.2063023999999,135.1984822000004,,,,,,,,,,,,,,,,,,,,,,,,,,,,,,,,,,,135.19889729999977,135.2063023999999,135.2063023999999,135.7911769000002,r,1.0,0.5791356999998243,,,,,,sub-140,3,stroop_test,119.24806937290587,
,,,,4.0,4.0,0.0,,,,,,,,,,,,,rot,blue,b,0.0,b,1.0,0.8322671000005357,,,,,,,,,,0.0,4.0,4.0,2.0,135.79809079999995,,,,,,,,,,,,,,,,,135.7914748000003,136.1396703999999,136.93099710000024,136.92361710000023,,,,,,,,,,,,,,,,,,,,,,,,,,,,,,,,,,,136.9260532999997,136.93099710000024,136.93099710000024,137.76577319999978,b,1.0,0.8322671000005357,,,,,,sub-140,3,stroop_test,119.24806937290587,
,,,,5.0,5.0,0.0,,,,,,,,,,,,,gelb,yellow,g,1.0,g,1.0,0.5696686999999656,,,,,,,,,,0.0,5.0,5.0,11.0,137.77370280000014,,,,,,,,,,,,,,,,,137.7660877999997,138.56439330000012,139.35629770000014,139.34856899999977,,,,,,,,,,,,,,,,,,,,,,,,,,,,,,,,,,,139.3517770999997,139.35629770000014,139.35629770000014,139.9344547999999,g,1.0,0.5696686999999656,,,,,,sub-140,3,stroop_test,119.24806937290587,
,,,,6.0,6.0,0.0,,,,,,,,,,,,,rot,red,r,1.0,r,1.0,0.4590702999994391,,,,,,,,,,0.0,6.0,6.0,1.0,139.93954910000048,,,,,,,,,,,,,,,,,139.93477760000042,140.73135710000042,141.5240715,141.51584300000013,,,,,,,,,,,,,,,,,,,,,,,,,,,,,,,,,,,141.51979250000022,141.5240715,141.5240715,141.9918577999997,r,1.0,0.4590702999994391,,,,,,sub-140,3,stroop_test,119.24806937290587,
,,,,7.0,7.0,0.0,,,,,,,,,,,,,blau,blue,b,1.0,b,1.0,0.4262410000001182,,,,,,,,,,0.0,7.0,7.0,5.0,141.99877319999996,,,,,,,,,,,,,,,,,141.9921604000001,142.34052510000038,143.13274079999974,143.1253112000004,,,,,,,,,,,,,,,,,,,,,,,,,,,,,,,,,,,143.12756650000028,143.13274079999974,143.13274079999974,143.5668985000002,b,1.0,0.4262410000001182,,,,,,sub-140,3,stroop_test,119.24806937290587,
,,,,8.0,8.0,0.0,,,,,,,,,,,,,blau,red,r,0.0,r,1.0,0.5711565999999948,,,,,,,,,,0.0,8.0,8.0,4.0,143.57421820000036,,,,,,,,,,,,,,,,,143.56722030000037,144.75833779999994,145.55740630000037,145.54985279999983,,,,,,,,,,,,,,,,,,,,,,,,,,,,,,,,,,,145.5503093999996,145.55740630000037,145.55740630000037,146.13358150000022,r,1.0,0.5711565999999948,,,,,,sub-140,3,stroop_test,119.24806937290587,
,,,,9.0,9.0,0.0,,,,,,,,,,,,,blau,yellow,g,0.0,g,1.0,0.531852500000241,,,,,,,,,,0.0,9.0,9.0,7.0,146.14057479999974,,,,,,,,,,,,,,,,,146.1340519000005,147.3325476,148.12401090000003,148.1168944000001,,,,,,,,,,,,,,,,,,,,,,,,,,,,,,,,,,,148.1173122,148.12401090000003,148.12401090000003,148.6583601000002,g,1.0,0.531852500000241,,,,,,sub-140,3,stroop_test,119.24806937290587,
,,,,10.0,10.0,0.0,,,,,,,,,,,,,rot,red,r,1.0,r,1.0,0.652285799999845,,,,,,,,,,0.0,10.0,10.0,0.0,148.6658236000003,,,,,,,,,,,,,,,,,148.6586583999997,148.7492255999996,149.5407111000004,149.53358089999983,,,,,,,,,,,,,,,,,,,,,,,,,,,,,,,,,,,149.53609810000034,149.5407111000004,149.5407111000004,150.20099039999968,r,1.0,0.652285799999845,,,,,,sub-140,3,stroop_test,119.24806937290587,
,,,,11.0,11.0,0.0,,,,,,,,,,,,,blau,blue,b,1.0,b,1.0,0.589458200000081,,,,,,,,,,0.0,11.0,11.0,6.0,150.20778009999958,,,,,,,,,,,,,,,,,150.20129300000008,151.39108510000003,152.18233690000034,152.17485980000038,,,,,,,,,,,,,,,,,,,,,,,,,,,,,,,,,,,152.1769143000001,152.18233690000034,152.18233690000034,152.77504669999962,b,1.0,0.589458200000081,,,,,,sub-140,3,stroop_test,119.24806937290587,
,,,,12.0,0.0,1.0,,,,,,,,,,,,,rot,red,r,1.0,g,0.0,0.4954692999999679,,,,,,,,,,1.0,0.0,12.0,0.0,152.7827441999998,,,,,,,,,,,,,,,,,152.77534360000027,153.5734413999999,154.36428890000025,154.35719450000033,,,,,,,,,,,,,,,,,,,,,,,,,,,,,,,,,,,154.35970120000002,154.36428890000025,154.36428890000025,154.86624610000035,g,0.0,0.4954692999999679,,,,,,sub-140,3,stroop_test,119.24806937290587,
,,,,13.0,1.0,1.0,,,,,,,,,,,,,gelb,red,r,0.0,r,1.0,0.7476477000000159,,,,,,,,,,1.0,1.0,13.0,8.0,154.87321380000049,,,,,,,,,,,,,,,,,154.86654309999994,154.9650289000001,155.7565383000001,155.74890609999966,,,,,,,,,,,,,,,,,,,,,,,,,,,,,,,,,,,155.75199880000037,155.7565383000001,155.7565383000001,156.50783049999973,r,1.0,0.7476477000000159,,,,,,sub-140,3,stroop_test,119.24806937290587,
,,,,14.0,2.0,1.0,,,,,,,,,,,,,gelb,yellow,g,1.0,g,1.0,0.5739569999996093,,,,,,,,,,1.0,2.0,14.0,10.0,156.51484559999972,,,,,,,,,,,,,,,,,156.50827240000035,157.70669830000045,158.49824350000017,158.4906959,,,,,,,,,,,,,,,,,,,,,,,,,,,,,,,,,,,158.49120589999984,158.49824350000017,158.49824350000017,159.07416809999995,g,1.0,0.5739569999996093,,,,,,sub-140,3,stroop_test,119.24806937290587,
,,,,15.0,3.0,1.0,,,,,,,,,,,,,blau,blue,b,1.0,b,1.0,0.478303799999594,,,,,,,,,,1.0,3.0,15.0,5.0,159.08212149999963,,,,,,,,,,,,,,,,,159.07447020000018,160.2658067000002,161.0559962999996,161.0489193000003,,,,,,,,,,,,,,,,,,,,,,,,,,,,,,,,,,,161.0509963000004,161.0559962999996,161.0559962999996,161.54119530000025,b,1.0,0.478303799999594,,,,,,sub-140,3,stroop_test,119.24806937290587,
,,,,16.0,4.0,1.0,,,,,,,,,,,,,blau,yellow,g,0.0,g,1.0,1.339176800000132,,,,,,,,,,1.0,4.0,16.0,7.0,161.54822690000037,,,,,,,,,,,,,,,,,161.5415578000002,161.64004110000042,162.43148709999969,162.42426539999997,,,,,,,,,,,,,,,,,,,,,,,,,,,,,,,,,,,162.42479509999976,162.43148709999969,162.43148709999969,163.77433240000028,g,1.0,1.339176800000132,,,,,,sub-140,3,stroop_test,119.24806937290587,
,,,,17.0,5.0,1.0,,,,,,,,,,,,,blau,red,r,0.0,r,1.0,0.6268800999996529,,,,,,,,,,1.0,5.0,17.0,4.0,163.7816499999999,,,,,,,,,,,,,,,,,163.7746258999996,164.12346640000032,164.9150055,164.90713890000006,,,,,,,,,,,,,,,,,,,,,,,,,,,,,,,,,,,164.90753479999967,164.9150055,164.9150055,165.54937040000004,r,1.0,0.6268800999996529,,,,,,sub-140,3,stroop_test,119.24806937290587,
,,,,18.0,6.0,1.0,,,,,,,,,,,,,gelb,yellow,g,1.0,g,1.0,0.4945474000005561,,,,,,,,,,1.0,6.0,18.0,11.0,165.55672890000005,,,,,,,,,,,,,,,,,165.5496659999999,166.3484894000003,167.1398446000003,167.1324934000004,,,,,,,,,,,,,,,,,,,,,,,,,,,,,,,,,,,167.13479559999996,167.1398446000003,167.1398446000003,167.64101240000036,g,1.0,0.4945474000005561,,,,,,sub-140,3,stroop_test,119.24806937290587,
,,,,19.0,7.0,1.0,,,,,,,,,,,,,rot,yellow,g,0.0,g,1.0,0.6319249000007403,,,,,,,,,,1.0,7.0,19.0,3.0,167.64830600000005,,,,,,,,,,,,,,,,,167.64136589999998,168.83998299999985,169.63241240000025,169.62512320000042,,,,,,,,,,,,,,,,,,,,,,,,,,,,,,,,,,,169.62835189999987,169.63241240000025,169.63241240000025,170.26675090000026,g,1.0,0.6319249000007403,,,,,,sub-140,3,stroop_test,119.24806937290587,
,,,,20.0,8.0,1.0,,,,,,,,,,,,,gelb,blue,b,0.0,b,1.0,0.4921642999997857,,,,,,,,,,1.0,8.0,20.0,9.0,170.27415980000023,,,,,,,,,,,,,,,,,170.2670492999996,170.35765139999967,171.1491814000001,171.141756,,,,,,,,,,,,,,,,,,,,,,,,,,,,,,,,,,,171.14409799999976,171.1491814000001,171.1491814000001,171.64284690000022,b,1.0,0.4921642999997857,,,,,,sub-140,3,stroop_test,119.24806937290587,
,,,,21.0,9.0,1.0,,,,,,,,,,,,,rot,red,r,1.0,r,1.0,0.8929730999998355,,,,,,,,,,1.0,9.0,21.0,1.0,171.64946390000023,,,,,,,,,,,,,,,,,171.64315270000043,172.4408400000002,173.23236220000035,173.22497680000015,,,,,,,,,,,,,,,,,,,,,,,,,,,,,,,,,,,173.2279171999999,173.23236220000035,173.23236220000035,174.13393759999963,r,1.0,0.8929730999998355,,,,,,sub-140,3,stroop_test,119.24806937290587,
,,,,22.0,10.0,1.0,,,,,,,,,,,,,blau,blue,b,1.0,b,1.0,0.5625143999995998,,,,,,,,,,1.0,10.0,22.0,6.0,174.1411119000004,,,,,,,,,,,,,,,,,174.13423570000032,174.2250666,175.01552700000047,175.0083857999998,,,,,,,,,,,,,,,,,,,,,,,,,,,,,,,,,,,175.0104148999999,175.01552700000047,175.01552700000047,175.58356319999984,b,1.0,0.5625143999995998,,,,,,sub-140,3,stroop_test,119.24806937290587,
,,,,23.0,11.0,1.0,,,,,,,,,,,,,rot,blue,b,0.0,b,1.0,0.6512173999999504,,,,,,,,,,1.0,11.0,23.0,2.0,175.5908687000001,,,,,,,,,,,,,,,,,175.5838620000004,175.6827905,176.47400730000027,176.46666900000037,,,,,,,,,,,,,,,,,,,,,,,,,,,,,,,,,,,176.46896610000022,176.47400730000027,176.47400730000027,177.13398080000024,b,1.0,0.6512173999999504,,,,,,sub-140,3,stroop_test,119.24806937290587,
,,,,24.0,0.0,2.0,,,,,,,,,,,,,rot,blue,b,0.0,b,1.0,0.4965695999999298,,,,,,,,,,2.0,0.0,24.0,2.0,177.1415334000003,,,,,,,,,,,,,,,,,177.13428149999982,178.3342802999996,179.1331037,179.12490809999963,,,,,,,,,,,,,,,,,,,,,,,,,,,,,,,,,,,179.12530609999976,179.1331037,179.1331037,179.6330707999996,b,1.0,0.4965695999999298,,,,,,sub-140,3,stroop_test,119.24806937290587,
,,,,25.0,1.0,2.0,,,,,,,,,,,,,blau,blue,b,1.0,b,1.0,0.4319718000006105,,,,,,,,,,2.0,1.0,25.0,6.0,179.64102730000013,,,,,,,,,,,,,,,,,179.63336270000036,179.7243109000001,180.5155267,180.50830419999969,,,,,,,,,,,,,,,,,,,,,,,,,,,,,,,,,,,180.5103185999997,180.5155267,180.5155267,180.95009759999996,b,1.0,0.4319718000006105,,,,,,sub-140,3,stroop_test,119.24806937290587,
,,,,26.0,2.0,2.0,,,,,,,,,,,,,gelb,yellow,g,1.0,g,1.0,0.4777195999995456,,,,,,,,,,2.0,2.0,26.0,10.0,180.95770470000025,,,,,,,,,,,,,,,,,180.95039309999996,181.74087899999995,182.5322855000004,182.52519699999996,,,,,,,,,,,,,,,,,,,,,,,,,,,,,,,,,,,182.5283370999996,182.5322855000004,182.5322855000004,183.01716000000036,g,1.0,0.4777195999995456,,,,,,sub-140,3,stroop_test,119.24806937290587,
,,,,27.0,3.0,2.0,,,,,,,,,,,,,rot,yellow,g,0.0,g,1.0,0.4359948999999687,,,,,,,,,,2.0,3.0,27.0,3.0,183.0243063999997,,,,,,,,,,,,,,,,,183.01749819999984,183.11605469999995,183.9081409999999,183.90012519999985,,,,,,,,,,,,,,,,,,,,,,,,,,,,,,,,,,,183.9032626999997,183.9081409999999,183.9081409999999,184.3507651,g,1.0,0.4359948999999687,,,,,,sub-140,3,stroop_test,119.24806937290587,
,,,,28.0,4.0,2.0,,,,,,,,,,,,,gelb,yellow,g,1.0,g,1.0,0.4764697999999043,,,,,,,,,,2.0,4.0,28.0,11.0,184.3582784,,,,,,,,,,,,,,,,,184.35105730000032,185.14988449999964,185.9407368000002,185.9337601999996,,,,,,,,,,,,,,,,,,,,,,,,,,,,,,,,,,,185.93619860000035,185.9407368000002,185.9407368000002,186.42639080000023,g,1.0,0.4764697999999043,,,,,,sub-140,3,stroop_test,119.24806937290587,
,,,,29.0,5.0,2.0,,,,,,,,,,,,,blau,yellow,g,0.0,g,1.0,0.4594660000002477,,,,,,,,,,2.0,5.0,29.0,7.0,186.43330249999963,,,,,,,,,,,,,,,,,186.42668810000032,186.52479409999975,187.3161609999997,187.30875560000004,,,,,,,,,,,,,,,,,,,,,,,,,,,,,,,,,,,187.3107418999998,187.3161609999997,187.3161609999997,187.78403460000027,g,1.0,0.4594660000002477,,,,,,sub-140,3,stroop_test,119.24806937290587,
,,,,30.0,6.0,2.0,,,,,,,,,,,,,rot,red,r,1.0,r,1.0,0.5943170000000464,,,,,,,,,,2.0,6.0,30.0,1.0,187.79143879999992,,,,,,,,,,,,,,,,,187.7843340999998,188.5748505000001,189.36607790000016,189.3585347999997,,,,,,,,,,,,,,,,,,,,,,,,,,,,,,,,,,,189.36175869999988,189.36607790000016,189.36607790000016,189.96771050000007,r,1.0,0.5943170000000464,,,,,,sub-140,3,stroop_test,119.24806937290587,
,,,,31.0,7.0,2.0,,,,,,,,,,,,,blau,red,r,0.0,r,1.0,0.4724462000003768,,,,,,,,,,2.0,7.0,31.0,4.0,189.97467310000047,,,,,,,,,,,,,,,,,189.9680012999997,190.05858259999968,190.8496224999999,190.8425202999997,,,,,,,,,,,,,,,,,,,,,,,,,,,,,,,,,,,190.8446481000001,190.8496224999999,190.8496224999999,191.32549709999967,r,1.0,0.4724462000003768,,,,,,sub-140,3,stroop_test,119.24806937290587,
,,,,32.0,8.0,2.0,,,,,,,,,,,,,blau,blue,b,1.0,b,1.0,0.6152130999998917,,,,,,,,,,2.0,8.0,32.0,5.0,191.33351310000037,,,,,,,,,,,,,,,,,191.32579220000025,192.11683429999997,192.90805350000028,192.90022930000032,,,,,,,,,,,,,,,,,,,,,,,,,,,,,,,,,,,192.90061090000015,192.90805350000028,192.90805350000028,193.5255634000005,b,1.0,0.6152130999998917,,,,,,sub-140,3,stroop_test,119.24806937290587,
,,,,33.0,9.0,2.0,,,,,,,,,,,,,gelb,blue,b,0.0,b,1.0,0.4550354000002699,,,,,,,,,,2.0,9.0,33.0,9.0,193.5331073999996,,,,,,,,,,,,,,,,,193.52585809999985,194.31648330000007,195.10835120000047,195.10087019999992,,,,,,,,,,,,,,,,,,,,,,,,,,,,,,,,,,,195.1036600999996,195.10835120000047,195.10835120000047,195.5674740000004,b,1.0,0.4550354000002699,,,,,,sub-140,3,stroop_test,119.24806937290587,
,,,,34.0,10.0,2.0,,,,,,,,,,,,,rot,red,r,1.0,g,0.0,0.6585807000001296,,,,,,,,,,2.0,10.0,34.0,0.0,195.5753762000004,,,,,,,,,,,,,,,,,195.56777020000027,196.3585135000003,197.1497972999996,197.14296410000043,,,,,,,,,,,,,,,,,,,,,,,,,,,,,,,,,,,197.14583529999985,197.1497972999996,197.1497972999996,197.8100088000001,g,0.0,0.6585807000001296,,,,,,sub-140,3,stroop_test,119.24806937290587,
,,,,35.0,11.0,2.0,,,,,,,,,,,,,gelb,red,r,0.0,r,1.0,0.8203271000002132,,,,,,,,,,2.0,11.0,35.0,8.0,197.81683239999984,,,,,,,,,,,,,,,,,197.8102998000004,199.00843760000043,199.7998608999997,199.7930650999997,,,,,,,,,,,,,,,,,,,,,,,,,,,,,,,,,,,199.7954090000003,199.7998608999997,199.7998608999997,200.62607490000028,r,1.0,0.8203271000002132,,,,,,sub-140,3,stroop_test,119.24806937290587,
,,,,36.0,0.0,3.0,,,,,,,,,,,,,gelb,yellow,g,1.0,g,1.0,0.690050500000325,,,,,,,,,,3.0,0.0,36.0,10.0,200.63361480000003,,,,,,,,,,,,,,,,,200.62639149999995,201.8180015999997,202.61743810000007,202.6092676999997,,,,,,,,,,,,,,,,,,,,,,,,,,,,,,,,,,,202.60991490000012,202.61743810000007,202.61743810000007,203.30981299999985,g,1.0,0.690050500000325,,,,,,sub-140,3,stroop_test,119.24806937290587,
,,,,37.0,1.0,3.0,,,,,,,,,,,,,blau,red,r,0.0,r,1.0,0.6098119999996925,,,,,,,,,,3.0,1.0,37.0,4.0,203.31671340000048,,,,,,,,,,,,,,,,,203.3102511999996,204.5085442999998,205.29973690000045,205.29307979999976,,,,,,,,,,,,,,,,,,,,,,,,,,,,,,,,,,,205.29554749999988,205.29973690000045,205.29973690000045,205.91799199999969,r,1.0,0.6098119999996925,,,,,,sub-140,3,stroop_test,119.24806937290587,
,,,,38.0,2.0,3.0,,,,,,,,,,,,,rot,red,r,1.0,r,1.0,0.4897617999995418,,,,,,,,,,3.0,2.0,38.0,0.0,205.9252574000002,,,,,,,,,,,,,,,,,205.9182806999997,206.2668364000001,207.05828089999977,207.05193419999975,,,,,,,,,,,,,,,,,,,,,,,,,,,,,,,,,,,207.05424649999983,207.05828089999977,207.05828089999977,207.5513007,r,1.0,0.4897617999995418,,,,,,sub-140,3,stroop_test,119.24806937290587,
,,,,39.0,3.0,3.0,,,,,,,,,,,,,gelb,yellow,g,1.0,g,1.0,0.4974032000000079,,,,,,,,,,3.0,3.0,39.0,11.0,207.5583760999998,,,,,,,,,,,,,,,,,207.55172700000003,207.65011890000005,208.4417486000002,208.43435640000007,,,,,,,,,,,,,,,,,,,,,,,,,,,,,,,,,,,208.43717360000028,208.4417486000002,208.4417486000002,208.9426678,g,1.0,0.4974032000000079,,,,,,sub-140,3,stroop_test,119.24806937290587,
,,,,40.0,4.0,3.0,,,,,,,,,,,,,blau,blue,b,1.0,b,1.0,0.4409898000003522,,,,,,,,,,3.0,4.0,40.0,6.0,208.95015270000025,,,,,,,,,,,,,,,,,208.9429575000004,209.7334839000005,210.5247851000004,210.51761119999992,,,,,,,,,,,,,,,,,,,,,,,,,,,,,,,,,,,210.5196416999997,210.5247851000004,210.5247851000004,210.96804059999977,b,1.0,0.4409898000003522,,,,,,sub-140,3,stroop_test,119.24806937290587,
,,,,41.0,5.0,3.0,,,,,,,,,,,,,blau,yellow,g,0.0,g,1.0,0.8774630999996589,,,,,,,,,,3.0,5.0,41.0,7.0,210.97620069999996,,,,,,,,,,,,,,,,,210.96839720000025,211.3167186999999,212.1080995000002,212.10220779999963,,,,,,,,,,,,,,,,,,,,,,,,,,,,,,,,,,,212.10284109999972,212.1080995000002,212.1080995000002,212.9930205999999,g,1.0,0.8774630999996589,,,,,,sub-140,3,stroop_test,119.24806937290587,
,,,,42.0,6.0,3.0,,,,,,,,,,,,,gelb,blue,b,0.0,b,1.0,0.5381473000006736,,,,,,,,,,3.0,6.0,42.0,9.0,213.00029840000025,,,,,,,,,,,,,,,,,212.9933649000004,214.19222499999975,214.98335000000043,214.97605870000007,,,,,,,,,,,,,,,,,,,,,,,,,,,,,,,,,,,214.97834020000028,214.98335000000043,214.98335000000043,215.52764370000023,b,1.0,0.5381473000006736,,,,,,sub-140,3,stroop_test,119.24806937290587,
,,,,43.0,7.0,3.0,,,,,,,,,,,,,rot,red,r,1.0,r,1.0,0.5212627000000793,,,,,,,,,,3.0,7.0,43.0,1.0,215.5335039000001,,,,,,,,,,,,,,,,,215.5279793,216.3253962999997,217.1162981999996,217.1087623000003,,,,,,,,,,,,,,,,,,,,,,,,,,,,,,,,,,,217.1112525999997,217.1162981999996,217.1162981999996,217.64344489999985,r,1.0,0.5212627000000793,,,,,,sub-140,3,stroop_test,119.24806937290587,
,,,,44.0,8.0,3.0,,,,,,,,,,,,,rot,blue,b,0.0,b,1.0,0.5524711999996725,,,,,,,,,,3.0,8.0,44.0,2.0,217.6504662999996,,,,,,,,,,,,,,,,,217.64379720000036,217.99205410000013,218.7833625000003,218.7760518000005,,,,,,,,,,,,,,,,,,,,,,,,,,,,,,,,,,,218.7765706999999,218.7833625000003,218.7833625000003,219.34270449999983,b,1.0,0.5524711999996725,,,,,,sub-140,3,stroop_test,119.24806937290587,
,,,,45.0,9.0,3.0,,,,,,,,,,,,,rot,yellow,g,0.0,g,1.0,0.5732230000003256,,,,,,,,,,3.0,9.0,45.0,3.0,219.35012519999964,,,,,,,,,,,,,,,,,219.34299800000008,219.6837986999999,220.4750786000004,220.4675662,,,,,,,,,,,,,,,,,,,,,,,,,,,,,,,,,,,220.4679993,220.4750786000004,220.4750786000004,221.05101449999984,g,1.0,0.5732230000003256,,,,,,sub-140,3,stroop_test,119.24806937290587,
,,,,46.0,10.0,3.0,,,,,,,,,,,,,gelb,red,r,0.0,r,1.0,0.9743177000000288,,,,,,,,,,3.0,10.0,46.0,8.0,221.05873520000023,,,,,,,,,,,,,,,,,221.0513049000001,221.39202750000004,222.1829048,222.1756621000004,,,,,,,,,,,,,,,,,,,,,,,,,,,,,,,,,,,222.1779987,222.1829048,222.1829048,223.15967040000032,r,1.0,0.9743177000000288,,,,,,sub-140,3,stroop_test,119.24806937290587,
,,,,47.0,11.0,3.0,,,,,,,,,,,,,blau,blue,b,1.0,b,1.0,0.5055634999998802,,,,,,,,,,3.0,11.0,47.0,5.0,223.16743560000032,,,,,,,,,,,,,,,,,223.1599879000005,224.3588026999996,225.14996810000048,225.14287669999976,,,,,,,,,,,,,,,,,,,,,,,,,,,,,,,,,,,225.14593520000017,225.14996810000048,225.14996810000048,225.65947779999988,b,1.0,0.5055634999998802,,,,,,sub-140,3,stroop_test,119.24806937290587,
,,,,48.0,0.0,4.0,,,,,,,,,,,,,gelb,yellow,g,1.0,g,1.0,0.5636389000001145,,,,,,,,,,4.0,0.0,48.0,11.0,225.66710440000043,,,,,,,,,,,,,,,,,225.65979380000044,226.8508036000003,227.6423861000003,227.63505619999975,,,,,,,,,,,,,,,,,,,,,,,,,,,,,,,,,,,227.63739369999985,227.6423861000003,227.6423861000003,228.20975400000043,g,1.0,0.5636389000001145,,,,,,sub-140,3,stroop_test,119.24806937290587,
,,,,49.0,1.0,4.0,,,,,,,,,,,,,blau,red,r,0.0,r,1.0,0.7330379000004541,,,,,,,,,,4.0,1.0,49.0,4.0,228.2173302000001,,,,,,,,,,,,,,,,,228.21004220000032,229.40063089999967,230.19212530000004,230.1852687999999,,,,,,,,,,,,,,,,,,,,,,,,,,,,,,,,,,,230.18732960000037,230.19212530000004,230.19212530000004,230.92677009999989,r,1.0,0.7330379000004541,,,,,,sub-140,3,stroop_test,119.24806937290587,
,,,,50.0,2.0,4.0,,,,,,,,,,,,,blau,blue,b,1.0,b,1.0,0.4331763000000137,,,,,,,,,,4.0,2.0,50.0,6.0,230.93400240000028,,,,,,,,,,,,,,,,,230.9270604000003,231.7179661,232.5089856000004,232.50133499999995,,,,,,,,,,,,,,,,,,,,,,,,,,,,,,,,,,,232.5017232,232.5089856000004,232.5089856000004,232.94402439999976,b,1.0,0.4331763000000137,,,,,,sub-140,3,stroop_test,119.24806937290587,
,,,,51.0,3.0,4.0,,,,,,,,,,,,,blau,blue,b,1.0,r,0.0,0.4650377999996635,,,,,,,,,,4.0,3.0,51.0,5.0,232.95112020000036,,,,,,,,,,,,,,,,,232.94434929999989,233.74238830000013,234.53474780000036,234.52638660000048,,,,,,,,,,,,,,,,,,,,,,,,,,,,,,,,,,,234.5267924,234.53474780000036,234.53474780000036,235.00192719999995,r,0.0,0.4650377999996635,,,,,,sub-140,3,stroop_test,119.24806937290587,
,,,,52.0,4.0,4.0,,,,,,,,,,,,,gelb,red,r,0.0,r,1.0,0.6043503999999302,,,,,,,,,,4.0,4.0,52.0,8.0,235.00918050000016,,,,,,,,,,,,,,,,,235.0022319,235.1009796999997,235.89359349999995,235.88599859999977,,,,,,,,,,,,,,,,,,,,,,,,,,,,,,,,,,,235.88951329999963,235.89359349999995,235.89359349999995,236.5030072,r,1.0,0.6043503999999302,,,,,,sub-140,3,stroop_test,119.24806937290587,
,,,,53.0,5.0,4.0,,,,,,,,,,,,,rot,blue,b,0.0,b,1.0,0.5882160999999542,,,,,,,,,,4.0,5.0,53.0,2.0,236.51051590000043,,,,,,,,,,,,,,,,,236.5033002,237.6938999000004,238.48548980000032,238.47877530000005,,,,,,,,,,,,,,,,,,,,,,,,,,,,,,,,,,,238.48137440000028,238.48548980000032,238.48548980000032,239.0782767999999,b,1.0,0.5882160999999542,,,,,,sub-140,3,stroop_test,119.24806937290587,
,,,,54.0,6.0,4.0,,,,,,,,,,,,,gelb,blue,b,0.0,b,1.0,3.038454600000477,,,,,,,,,,4.0,6.0,54.0,9.0,239.08572689999983,,,,,,,,,,,,,,,,,239.0785691000001,240.2689706000001,241.06036769999992,241.0529292000001,,,,,,,,,,,,,,,,,,,,,,,,,,,,,,,,,,,241.05572709999976,241.06036769999992,241.06036769999992,244.10342949999995,b,1.0,3.038454600000477,,,,,,sub-140,3,stroop_test,119.24806937290587,
,,,,55.0,7.0,4.0,,,,,,,,,,,,,blau,yellow,g,0.0,g,1.0,0.8624951000001602,,,,,,,,,,4.0,7.0,55.0,7.0,244.1107431999999,,,,,,,,,,,,,,,,,244.10374729999967,244.89396880000004,245.68514479999976,245.6780332999997,,,,,,,,,,,,,,,,,,,,,,,,,,,,,,,,,,,245.6800884000004,245.68514479999976,245.68514479999976,246.55327409999973,g,1.0,0.8624951000001602,,,,,,sub-140,3,stroop_test,119.24806937290587,
,,,,56.0,8.0,4.0,,,,,,,,,,,,,gelb,yellow,g,1.0,g,1.0,0.4390745000000606,,,,,,,,,,4.0,8.0,56.0,10.0,246.5605446,,,,,,,,,,,,,,,,,246.55360399999967,246.9023582,247.69356960000005,247.68671650000036,,,,,,,,,,,,,,,,,,,,,,,,,,,,,,,,,,,247.68917969999984,247.69356960000005,247.69356960000005,248.1368162999997,g,1.0,0.4390745000000606,,,,,,sub-140,3,stroop_test,119.24806937290587,
,,,,57.0,9.0,4.0,,,,,,,,,,,,,rot,red,r,1.0,r,1.0,0.3812661000001753,,,,,,,,,,4.0,9.0,57.0,0.0,248.1441235000002,,,,,,,,,,,,,,,,,248.13734589999967,248.4854591000003,249.2769220999999,249.26963200000048,,,,,,,,,,,,,,,,,,,,,,,,,,,,,,,,,,,249.2721707999999,249.2769220999999,249.2769220999999,249.6627344999997,r,1.0,0.3812661000001753,,,,,,sub-140,3,stroop_test,119.24806937290587,
,,,,58.0,10.0,4.0,,,,,,,,,,,,,rot,yellow,g,0.0,g,1.0,0.511226099999476,,,,,,,,,,4.0,10.0,58.0,3.0,249.6685127000001,,,,,,,,,,,,,,,,,249.66333190000023,249.76066770000037,250.55264499999976,250.54484159999996,,,,,,,,,,,,,,,,,,,,,,,,,,,,,,,,,,,250.5452439000001,250.55264499999976,250.55264499999976,251.07003199999963,g,1.0,0.511226099999476,,,,,,sub-140,3,stroop_test,119.24806937290587,
,,,,59.0,11.0,4.0,,,,,,,,,,,,,rot,red,r,1.0,r,1.0,0.4146260999996229,,,,,,,,,,4.0,11.0,59.0,1.0,251.0774946000001,,,,,,,,,,,,,,,,,251.07034010000007,251.1688108999997,251.96057269999983,251.95276259999991,,,,,,,,,,,,,,,,,,,,,,,,,,,,,,,,,,,251.9533333999998,251.96057269999983,251.96057269999983,252.3780995999996,r,1.0,0.4146260999996229,,,,,,sub-140,3,stroop_test,119.24806937290587,
,,,,60.0,0.0,5.0,,,,,,,,,,,,,blau,red,r,0.0,r,1.0,0.6525234000000637,,,,,,,,,,5.0,0.0,60.0,4.0,252.38586029999988,,,,,,,,,,,,,,,,,252.3783844999998,252.4689631000001,253.2603436999998,253.2532511999998,,,,,,,,,,,,,,,,,,,,,,,,,,,,,,,,,,,253.25564779999968,253.2603436999998,253.2603436999998,253.9202328000001,r,1.0,0.6525234000000637,,,,,,sub-140,3,stroop_test,119.24806937290587,
,,,,61.0,1.0,5.0,,,,,,,,,,,,,gelb,red,r,0.0,r,1.0,0.626720899999782,,,,,,,,,,5.0,1.0,61.0,8.0,253.92735410000023,,,,,,,,,,,,,,,,,253.92051879999963,255.1109255000001,255.9020876000004,255.8945537999998,,,,,,,,,,,,,,,,,,,,,,,,,,,,,,,,,,,255.8974995999997,255.9020876000004,255.9020876000004,256.53680110000005,r,1.0,0.626720899999782,,,,,,sub-140,3,stroop_test,119.24806937290587,
,,,,62.0,2.0,5.0,,,,,,,,,,,,,rot,blue,b,0.0,b,1.0,0.5359772000001612,,,,,,,,,,5.0,2.0,62.0,2.0,256.5438148000003,,,,,,,,,,,,,,,,,256.53709009999966,256.6366889000001,257.42723810000007,257.4197854000004,,,,,,,,,,,,,,,,,,,,,,,,,,,,,,,,,,,257.4222343000001,257.42723810000007,257.42723810000007,257.97018519999983,b,1.0,0.5359772000001612,,,,,,sub-140,3,stroop_test,119.24806937290587,
,,,,63.0,3.0,5.0,,,,,,,,,,,,,gelb,yellow,g,1.0,g,1.0,0.641743299999689,,,,,,,,,,5.0,3.0,63.0,11.0,257.9776257000003,,,,,,,,,,,,,,,,,257.9704843999998,259.16070930000024,259.9517386999996,259.9444435000005,,,,,,,,,,,,,,,,,,,,,,,,,,,,,,,,,,,259.9470302999998,259.9517386999996,259.9517386999996,260.59524799999963,g,1.0,0.641743299999689,,,,,,sub-140,3,stroop_test,119.24806937290587,
,,,,64.0,4.0,5.0,,,,,,,,,,,,,blau,yellow,g,0.0,g,1.0,0.6094425000001138,,,,,,,,,,5.0,4.0,64.0,7.0,260.6023455000004,,,,,,,,,,,,,,,,,260.5955449000003,261.78571850000026,262.5772069000004,262.56979779999983,,,,,,,,,,,,,,,,,,,,,,,,,,,,,,,,,,,262.5718883,262.5772069000004,262.5772069000004,263.18825110000034,g,1.0,0.6094425000001138,,,,,,sub-140,3,stroop_test,119.24806937290587,
,,,,65.0,5.0,5.0,,,,,,,,,,,,,rot,red,r,1.0,r,1.0,0.5222094999999172,,,,,,,,,,5.0,5.0,65.0,1.0,263.19351220000044,,,,,,,,,,,,,,,,,263.1886078999996,264.3857820000003,265.17714479999995,265.17042109999966,,,,,,,,,,,,,,,,,,,,,,,,,,,,,,,,,,,265.17271080000046,265.17714479999995,265.17714479999995,265.70315709999977,r,1.0,0.5222094999999172,,,,,,sub-140,3,stroop_test,119.24806937290587,
,,,,66.0,6.0,5.0,,,,,,,,,,,,,rot,red,r,1.0,r,1.0,0.4220519999998942,,,,,,,,,,5.0,6.0,66.0,0.0,265.71154970000043,,,,,,,,,,,,,,,,,265.7034522000004,266.8948626000001,267.68559280000045,267.6784618000001,,,,,,,,,,,,,,,,,,,,,,,,,,,,,,,,,,,267.6794071000004,267.68559280000045,267.68559280000045,268.1121799000002,r,1.0,0.4220519999998942,,,,,,sub-140,3,stroop_test,119.24806937290587,
,,,,67.0,7.0,5.0,,,,,,,,,,,,,blau,blue,b,1.0,b,1.0,0.5847748999995019,,,,,,,,,,5.0,7.0,67.0,6.0,268.1195305000001,,,,,,,,,,,,,,,,,268.1124743999999,268.4606807,269.2520875,269.2448083,,,,,,,,,,,,,,,,,,,,,,,,,,,,,,,,,,,269.24742570000035,269.2520875,269.2520875,269.8453458000004,b,1.0,0.5847748999995019,,,,,,sub-140,3,stroop_test,119.24806937290587,
,,,,68.0,8.0,5.0,,,,,,,,,,,,,rot,yellow,g,0.0,g,1.0,0.5669797000000472,,,,,,,,,,5.0,8.0,68.0,3.0,269.8525031999998,,,,,,,,,,,,,,,,,269.8456650999997,269.9439545000005,270.7354697999999,270.72807699999976,,,,,,,,,,,,,,,,,,,,,,,,,,,,,,,,,,,270.7304132999998,270.7354697999999,270.7354697999999,271.30379790000006,g,1.0,0.5669797000000472,,,,,,sub-140,3,stroop_test,119.24806937290587,
,,,,69.0,9.0,5.0,,,,,,,,,,,,,gelb,yellow,g,1.0,g,1.0,0.4312207000002672,,,,,,,,,,5.0,9.0,69.0,10.0,271.3106464000002,,,,,,,,,,,,,,,,,271.3041089999997,272.5031630000003,273.29468819999965,273.28739440000027,,,,,,,,,,,,,,,,,,,,,,,,,,,,,,,,,,,273.29049659999964,273.29468819999965,273.29468819999965,273.72904000000017,g,1.0,0.4312207000002672,,,,,,sub-140,3,stroop_test,119.24806937290587,
,,,,70.0,10.0,5.0,,,,,,,,,,,,,blau,blue,b,1.0,b,1.0,0.5922673999994004,,,,,,,,,,5.0,10.0,70.0,5.0,273.7364196999997,,,,,,,,,,,,,,,,,273.72934199999963,274.0781871999998,274.8696511999997,274.8622919999998,,,,,,,,,,,,,,,,,,,,,,,,,,,,,,,,,,,274.8645150000002,274.8696511999997,274.8696511999997,275.4635897999997,b,1.0,0.5922673999994004,,,,,,sub-140,3,stroop_test,119.24806937290587,
,,,,71.0,11.0,5.0,,,,,,,,,,,,,gelb,blue,b,0.0,b,1.0,1.1258602999996583,,,,,,,,,,5.0,11.0,71.0,9.0,275.4699620000001,,,,,,,,,,,,,,,,,275.4639008000004,275.56209750000016,276.3528487000003,276.3457642000003,,,,,,,,,,,,,,,,,,,,,,,,,,,,,,,,,,,276.34810000000016,276.3528487000003,276.3528487000003,277.4807873,b,1.0,1.1258602999996583,,,,,,sub-140,3,stroop_test,119.24806937290587,
,,,,72.0,0.0,6.0,,,,,,,,,,,,,blau,blue,b,1.0,b,1.0,0.6614793999997346,,,,,,,,,,6.0,0.0,72.0,5.0,277.48631750000004,,,,,,,,,,,,,,,,,277.4810914,277.82803950000016,278.61981319999995,278.6136041,,,,,,,,,,,,,,,,,,,,,,,,,,,,,,,,,,,278.61565450000035,278.61981319999995,278.61981319999995,279.2874020999998,b,1.0,0.6614793999997346,,,,,,sub-140,3,stroop_test,119.24806937290587,
,,,,73.0,1.0,6.0,,,,,,,,,,,,,rot,blue,b,0.0,b,1.0,0.7702965999997105,,,,,,,,,,6.0,1.0,73.0,2.0,279.29530030000024,,,,,,,,,,,,,,,,,279.28769900000043,279.3867618000004,280.1777884000003,280.1704913000003,,,,,,,,,,,,,,,,,,,,,,,,,,,,,,,,,,,280.1732493999998,280.1777884000003,280.1777884000003,280.9542422000004,b,1.0,0.7702965999997105,,,,,,sub-140,3,stroop_test,119.24806937290587,
,,,,74.0,2.0,6.0,,,,,,,,,,,,,blau,red,r,0.0,r,1.0,0.5539666000004217,,,,,,,,,,6.0,2.0,74.0,4.0,280.96174559999963,,,,,,,,,,,,,,,,,280.95456829999966,281.3032234000002,282.0943973000003,282.0867798999998,,,,,,,,,,,,,,,,,,,,,,,,,,,,,,,,,,,282.0891330000004,282.0943973000003,282.0943973000003,282.6541460999997,r,1.0,0.5539666000004217,,,,,,sub-140,3,stroop_test,119.24806937290587,
,,,,75.0,3.0,6.0,,,,,,,,,,,,,gelb,red,r,0.0,r,1.0,0.406930199999806,,,,,,,,,,6.0,3.0,75.0,8.0,282.66163140000026,,,,,,,,,,,,,,,,,282.6544537,282.7448768000004,283.5362905000002,283.52912149999975,,,,,,,,,,,,,,,,,,,,,,,,,,,,,,,,,,,283.5317943,283.5362905000002,283.5362905000002,283.94560530000035,r,1.0,0.406930199999806,,,,,,sub-140,3,stroop_test,119.24806937290587,
,,,,76.0,4.0,6.0,,,,,,,,,,,,,gelb,yellow,g,1.0,g,1.0,0.5266178000001673,,,,,,,,,,6.0,4.0,76.0,10.0,283.95342749999963,,,,,,,,,,,,,,,,,283.9458971000004,284.73683960000017,285.5281308000003,285.5206710000002,,,,,,,,,,,,,,,,,,,,,,,,,,,,,,,,,,,285.5211717000002,285.5281308000003,285.5281308000003,286.0635218999996,g,1.0,0.5266178000001673,,,,,,sub-140,3,stroop_test,119.24806937290587,
,,,,77.0,5.0,6.0,,,,,,,,,,,,,blau,yellow,g,0.0,g,1.0,0.3927049000003535,,,,,,,,,,6.0,5.0,77.0,7.0,286.0700962000001,,,,,,,,,,,,,,,,,286.06384270000035,286.1529929999997,286.9447519000005,286.9374514000001,,,,,,,,,,,,,,,,,,,,,,,,,,,,,,,,,,,286.9397306999999,286.9447519000005,286.9447519000005,287.3465894000001,g,1.0,0.3927049000003535,,,,,,sub-140,3,stroop_test,119.24806937290587,
,,,,78.0,6.0,6.0,,,,,,,,,,,,,gelb,blue,b,0.0,b,1.0,0.4907548999999562,,,,,,,,,,6.0,6.0,78.0,9.0,287.3532266000002,,,,,,,,,,,,,,,,,287.34706579999965,288.5453986000002,289.3362182000001,289.32882549999977,,,,,,,,,,,,,,,,,,,,,,,,,,,,,,,,,,,289.3311548000001,289.3362182000001,289.3362182000001,289.8291498999997,b,1.0,0.4907548999999562,,,,,,sub-140,3,stroop_test,119.24806937290587,
,,,,79.0,7.0,6.0,,,,,,,,,,,,,gelb,yellow,g,1.0,g,1.0,0.5464113999996698,,,,,,,,,,6.0,7.0,79.0,11.0,289.83652450000045,,,,,,,,,,,,,,,,,289.8294493000003,290.16998330000024,290.9615738000002,290.95373350000045,,,,,,,,,,,,,,,,,,,,,,,,,,,,,,,,,,,290.95429930000046,290.9615738000002,290.9615738000002,291.5125555000004,g,1.0,0.5464113999996698,,,,,,sub-140,3,stroop_test,119.24806937290587,
,,,,80.0,8.0,6.0,,,,,,,,,,,,,rot,red,r,1.0,r,1.0,0.3691437000006772,,,,,,,,,,6.0,8.0,80.0,0.0,291.51989609999964,,,,,,,,,,,,,,,,,291.51292230000035,291.8535198,292.64496710000003,292.6375343,,,,,,,,,,,,,,,,,,,,,,,,,,,,,,,,,,,292.64097969999966,292.64496710000003,292.64496710000003,293.02111500000046,r,1.0,0.3691437000006772,,,,,,sub-140,3,stroop_test,119.24806937290587,
,,,,81.0,9.0,6.0,,,,,,,,,,,,,blau,blue,b,1.0,b,1.0,0.4691225000005943,,,,,,,,,,6.0,9.0,81.0,6.0,293.02843269999994,,,,,,,,,,,,,,,,,293.02141200000005,293.12079040000026,293.9114319999999,293.90366280000035,,,,,,,,,,,,,,,,,,,,,,,,,,,,,,,,,,,293.90569479999976,293.9114319999999,293.9114319999999,294.3884009000003,b,1.0,0.4691225000005943,,,,,,sub-140,3,stroop_test,119.24806937290587,
,,,,82.0,10.0,6.0,,,,,,,,,,,,,rot,red,r,1.0,r,1.0,1.0996537999999418,,,,,,,,,,6.0,10.0,82.0,1.0,294.3948954999996,,,,,,,,,,,,,,,,,294.38872270000047,295.5867293000001,296.3781128999999,296.37071509999987,,,,,,,,,,,,,,,,,,,,,,,,,,,,,,,,,,,296.3735591000004,296.3781128999999,296.3781128999999,297.4796016,r,1.0,1.0996537999999418,,,,,,sub-140,3,stroop_test,119.24806937290587,
,,,,83.0,11.0,6.0,,,,,,,,,,,,,rot,yellow,g,0.0,g,1.0,0.403249500000129,,,,,,,,,,6.0,11.0,83.0,3.0,297.48703680000017,,,,,,,,,,,,,,,,,297.4800015999999,297.8282780999998,298.61993919999986,298.61258439999983,,,,,,,,,,,,,,,,,,,,,,,,,,,,,,,,,,,298.61316330000045,298.61993919999986,298.61993919999986,299.0294442000004,g,1.0,0.403249500000129,,,,,,sub-140,3,stroop_test,119.24806937290587,
,,,,84.0,0.0,7.0,,,,,,,,,,,,,rot,red,r,1.0,r,1.0,0.3938136000006125,,,,,,,,,,7.0,0.0,84.0,1.0,299.0369037999999,,,,,,,,,,,,,,,,,299.0297418,299.8284902000005,300.61975919999986,300.61345230000006,,,,,,,,,,,,,,,,,,,,,,,,,,,,,,,,,,,300.61386459999994,300.61975919999986,300.61975919999986,301.02128790000006,r,1.0,0.3938136000006125,,,,,,sub-140,3,stroop_test,119.24806937290587,
,,,,85.0,1.0,7.0,,,,,,,,,,,,,blau,red,r,0.0,r,1.0,1.003384399999959,,,,,,,,,,7.0,1.0,85.0,4.0,301.02876840000044,,,,,,,,,,,,,,,,,301.0215868000005,301.11185600000044,301.9035544999997,301.8967991999998,,,,,,,,,,,,,,,,,,,,,,,,,,,,,,,,,,,301.8995229000002,301.9035544999997,301.9035544999997,302.9141891999998,r,1.0,1.003384399999959,,,,,,sub-140,3,stroop_test,119.24806937290587,
,,,,86.0,2.0,7.0,,,,,,,,,,,,,blau,blue,b,1.0,b,1.0,0.6589978000001793,,,,,,,,,,7.0,2.0,86.0,5.0,302.9202652000004,,,,,,,,,,,,,,,,,302.91466070000024,303.71191,304.50387469999987,304.4961866000003,,,,,,,,,,,,,,,,,,,,,,,,,,,,,,,,,,,304.4966010999997,304.50387469999987,304.50387469999987,305.17187360000025,b,1.0,0.6589978000001793,,,,,,sub-140,3,stroop_test,119.24806937290587,
,,,,87.0,3.0,7.0,,,,,,,,,,,,,blau,yellow,g,0.0,g,1.0,0.8420559999995021,,,,,,,,,,7.0,3.0,87.0,7.0,305.1790629999996,,,,,,,,,,,,,,,,,305.1721739000004,306.37050739999995,307.1624613000004,307.15433529999973,,,,,,,,,,,,,,,,,,,,,,,,,,,,,,,,,,,307.15496110000004,307.1624613000004,307.1624613000004,308.01287800000046,g,1.0,0.8420559999995021,,,,,,sub-140,3,stroop_test,119.24806937290587,
,,,,88.0,4.0,7.0,,,,,,,,,,,,,gelb,red,r,0.0,r,1.0,0.9235650999999052,,,,,,,,,,7.0,4.0,88.0,8.0,308.0204541000003,,,,,,,,,,,,,,,,,308.01333760000034,308.1038288,308.89574059999995,308.8891358999999,,,,,,,,,,,,,,,,,,,,,,,,,,,,,,,,,,,308.89161820000027,308.89574059999995,308.89574059999995,309.8218047999999,r,1.0,0.9235650999999052,,,,,,sub-140,3,stroop_test,119.24806937290587,
,,,,89.0,5.0,7.0,,,,,,,,,,,,,gelb,yellow,g,1.0,g,1.0,0.4923807000004672,,,,,,,,,,7.0,5.0,89.0,11.0,309.8297070999997,,,,,,,,,,,,,,,,,309.82210229999964,310.6132592000004,311.4043450999998,311.39636020000034,,,,,,,,,,,,,,,,,,,,,,,,,,,,,,,,,,,311.39676059999965,311.4043450999998,311.4043450999998,311.9058593999998,g,1.0,0.4923807000004672,,,,,,sub-140,3,stroop_test,119.24806937290587,
,,,,90.0,6.0,7.0,,,,,,,,,,,,,gelb,yellow,g,1.0,g,1.0,0.334675199999765,,,,,,,,,,7.0,6.0,90.0,10.0,311.91260429999966,,,,,,,,,,,,,,,,,311.90619140000035,312.7040987999999,313.4963877,313.4891669999997,,,,,,,,,,,,,,,,,,,,,,,,,,,,,,,,,,,313.4895781000005,313.4963877,313.4963877,313.8387425000001,g,1.0,0.334675199999765,,,,,,sub-140,3,stroop_test,119.24806937290587,
,,,,91.0,7.0,7.0,,,,,,,,,,,,,rot,blue,b,0.0,b,1.0,0.5265638000000763,,,,,,,,,,7.0,7.0,91.0,2.0,313.8460095999999,,,,,,,,,,,,,,,,,313.8390366000003,315.0374770999997,315.8289875999999,315.8214675999998,,,,,,,,,,,,,,,,,,,,,,,,,,,,,,,,,,,315.8243177000004,315.8289875999999,315.8289875999999,316.3635667999997,b,1.0,0.5265638000000763,,,,,,sub-140,3,stroop_test,119.24806937290587,
,,,,92.0,8.0,7.0,,,,,,,,,,,,,rot,yellow,g,0.0,g,1.0,0.5591082000000824,,,,,,,,,,7.0,8.0,92.0,3.0,316.37098909999986,,,,,,,,,,,,,,,,,316.3638732999998,317.15433099999973,317.9460165999999,317.9379982999999,,,,,,,,,,,,,,,,,,,,,,,,,,,,,,,,,,,317.9384270999999,317.9460165999999,317.9460165999999,318.51358210000035,g,1.0,0.5591082000000824,,,,,,sub-140,3,stroop_test,119.24806937290587,
,,,,93.0,9.0,7.0,,,,,,,,,,,,,blau,blue,b,1.0,b,1.0,0.6055515999996715,,,,,,,,,,7.0,9.0,93.0,6.0,318.52081240000007,,,,,,,,,,,,,,,,,318.5140580999996,319.70421590000024,320.49657019999995,320.4882127999999,,,,,,,,,,,,,,,,,,,,,,,,,,,,,,,,,,,320.4905080999997,320.49657019999995,320.49657019999995,321.10525099999995,b,1.0,0.6055515999996715,,,,,,sub-140,3,stroop_test,119.24806937290587,
,,,,94.0,10.0,7.0,,,,,,,,,,,,,rot,red,r,1.0,r,1.0,0.5066562000001795,,,,,,,,,,7.0,10.0,94.0,0.0,321.11303729999963,,,,,,,,,,,,,,,,,321.1055458000001,321.8958851999996,322.6874926999999,322.6803337000001,,,,,,,,,,,,,,,,,,,,,,,,,,,,,,,,,,,322.68264550000004,322.6874926999999,322.6874926999999,323.1970633000001,r,1.0,0.5066562000001795,,,,,,sub-140,3,stroop_test,119.24806937290587,
,,,,95.0,11.0,7.0,,,,,,,,,,,,,gelb,blue,b,0.0,b,1.0,0.6743386999996801,,,,,,,,,,7.0,11.0,95.0,9.0,323.20441310000024,,,,,,,,,,,,,,,,,323.19749800000045,323.9959337,324.7889279000001,324.77970540000024,,,,,,,,,,,,,,,,,,,,,,,,,,,,,,,,,,,324.78326860000016,324.7889279000001,324.7889279000001,325.4653913000002,b,1.0,0.6743386999996801,,,,,,sub-140,3,stroop_test,119.24806937290587,
,,,,96.0,0.0,8.0,,,,,,,,,,,,,gelb,yellow,g,1.0,g,1.0,0.6901526999999987,,,,,,,,,,8.0,0.0,96.0,10.0,325.47220780000043,,,,,,,,,,,,,,,,,325.4657256999999,325.5638207000002,326.3555336999998,326.3478323999998,,,,,,,,,,,,,,,,,,,,,,,,,,,,,,,,,,,326.3482866000004,326.3555336999998,326.3555336999998,327.0477802000005,g,1.0,0.6901526999999987,,,,,,sub-140,3,stroop_test,119.24806937290587,
,,,,97.0,1.0,8.0,,,,,,,,,,,,,blau,blue,b,1.0,b,1.0,0.4472932000007859,,,,,,,,,,8.0,1.0,97.0,5.0,327.0558179,,,,,,,,,,,,,,,,,327.04808909999974,328.2386403999999,329.0301255000004,329.0231021999998,,,,,,,,,,,,,,,,,,,,,,,,,,,,,,,,,,,329.0252526000004,329.0301255000004,329.0301255000004,329.4815129999997,b,1.0,0.4472932000007859,,,,,,sub-140,3,stroop_test,119.24806937290587,
,,,,98.0,2.0,8.0,,,,,,,,,,,,,gelb,yellow,g,1.0,g,1.0,0.7839065000007395,,,,,,,,,,8.0,2.0,98.0,11.0,329.4889153000004,,,,,,,,,,,,,,,,,329.4818172000005,330.27233830000023,331.0632206,331.05586310000035,,,,,,,,,,,,,,,,,,,,,,,,,,,,,,,,,,,331.0588708000005,331.0632206,331.0632206,331.84867099999974,g,1.0,0.7839065000007395,,,,,,sub-140,3,stroop_test,119.24806937290587,
,,,,99.0,3.0,8.0,,,,,,,,,,,,,rot,red,r,1.0,r,1.0,0.4005191999995077,,,,,,,,,,8.0,3.0,99.0,0.0,331.85556520000046,,,,,,,,,,,,,,,,,331.84897329999967,331.9469417,332.7385167000002,332.7318951999996,,,,,,,,,,,,,,,,,,,,,,,,,,,,,,,,,,,332.7342655000002,332.7385167000002,332.7385167000002,333.1403830999998,r,1.0,0.4005191999995077,,,,,,sub-140,3,stroop_test,119.24806937290587,
,,,,100.0,4.0,8.0,,,,,,,,,,,,,blau,blue,b,1.0,b,1.0,0.4494595000005574,,,,,,,,,,8.0,4.0,100.0,6.0,333.1474902,,,,,,,,,,,,,,,,,333.14067160000013,333.4889082,334.2798921000003,334.27262450000035,,,,,,,,,,,,,,,,,,,,,,,,,,,,,,,,,,,334.27506110000013,334.2798921000003,334.2798921000003,334.7310539,b,1.0,0.4494595000005574,,,,,,sub-140,3,stroop_test,119.24806937290587,
,,,,101.0,5.0,8.0,,,,,,,,,,,,,gelb,red,r,0.0,r,1.0,1.25624869999956,,,,,,,,,,8.0,5.0,101.0,8.0,334.73877679999987,,,,,,,,,,,,,,,,,334.7313406000003,334.8228822000001,335.61329529999966,335.606116,,,,,,,,,,,,,,,,,,,,,,,,,,,,,,,,,,,335.6084473000001,335.61329529999966,335.61329529999966,336.87319320000006,r,1.0,1.25624869999956,,,,,,sub-140,3,stroop_test,119.24806937290587,
,,,,102.0,6.0,8.0,,,,,,,,,,,,,rot,red,r,1.0,r,1.0,0.431473100000403,,,,,,,,,,8.0,6.0,102.0,1.0,336.8803842999996,,,,,,,,,,,,,,,,,336.8735144000002,337.2226023000003,338.0131854000001,338.0060378999997,,,,,,,,,,,,,,,,,,,,,,,,,,,,,,,,,,,338.00849879999987,338.0131854000001,338.0131854000001,338.4482705999999,r,1.0,0.431473100000403,,,,,,sub-140,3,stroop_test,119.24806937290587,
,,,,103.0,7.0,8.0,,,,,,,,,,,,,blau,yellow,g,0.0,g,1.0,1.059886899999583,,,,,,,,,,8.0,7.0,103.0,7.0,338.4556954,,,,,,,,,,,,,,,,,338.44875909999973,339.64733160000014,340.4387521999997,340.43110179999985,,,,,,,,,,,,,,,,,,,,,,,,,,,,,,,,,,,340.43464810000023,340.4387521999997,340.4387521999997,341.50647579999986,g,1.0,1.059886899999583,,,,,,sub-140,3,stroop_test,119.24806937290587,
,,,,104.0,8.0,8.0,,,,,,,,,,,,,blau,red,r,0.0,r,1.0,0.5757056000002194,,,,,,,,,,8.0,8.0,104.0,4.0,341.5138482000002,,,,,,,,,,,,,,,,,341.50678440000047,341.84734370000024,342.63898320000044,342.63147970000045,,,,,,,,,,,,,,,,,,,,,,,,,,,,,,,,,,,342.6319192000001,342.63898320000044,342.63898320000044,343.2229477000001,r,1.0,0.5757056000002194,,,,,,sub-140,3,stroop_test,119.24806937290587,
,,,,105.0,9.0,8.0,,,,,,,,,,,,,rot,yellow,g,0.0,g,1.0,0.6630230999999185,,,,,,,,,,8.0,9.0,105.0,3.0,343.23034780000035,,,,,,,,,,,,,,,,,343.2233847999996,343.3142662,344.1052643000003,344.0974202999996,,,,,,,,,,,,,,,,,,,,,,,,,,,,,,,,,,,344.1011897999997,344.1052643000003,344.1052643000003,344.7734246,g,1.0,0.6630230999999185,,,,,,sub-140,3,stroop_test,119.24806937290587,
,,,,106.0,10.0,8.0,,,,,,,,,,,,,gelb,blue,b,0.0,b,1.0,0.4809037999993961,,,,,,,,,,8.0,10.0,106.0,9.0,344.78058109999984,,,,,,,,,,,,,,,,,344.7737497999997,345.12227129999974,345.9132966999996,345.9062750000003,,,,,,,,,,,,,,,,,,,,,,,,,,,,,,,,,,,345.9088148999999,345.9132966999996,345.9132966999996,346.3982808999999,b,1.0,0.4809037999993961,,,,,,sub-140,3,stroop_test,119.24806937290587,
,,,,107.0,11.0,8.0,,,,,,,,,,,,,rot,blue,b,0.0,b,1.0,0.7774705000001632,,,,,,,,,,8.0,11.0,107.0,2.0,346.4054908999997,,,,,,,,,,,,,,,,,346.3985948,346.49786159999985,347.2883941,347.28095630000007,,,,,,,,,,,,,,,,,,,,,,,,,,,,,,,,,,,347.2832477000002,347.2883941,347.2883941,348.07332490000044,b,1.0,0.7774705000001632,,,,,,sub-140,3,stroop_test,119.24806937290587,
,,,,108.0,0.0,9.0,,,,,,,,,,,,,gelb,yellow,g,1.0,g,1.0,0.5059858000004169,,,,,,,,,,9.0,0.0,108.0,10.0,348.0809908000001,,,,,,,,,,,,,,,,,348.0736235000004,348.8720874999999,349.6634885000003,349.6559508,,,,,,,,,,,,,,,,,,,,,,,,,,,,,,,,,,,349.6591122,349.6634885000003,349.6634885000003,350.17301080000016,g,1.0,0.5059858000004169,,,,,,sub-140,3,stroop_test,119.24806937290587,
,,,,109.0,1.0,9.0,,,,,,,,,,,,,blau,red,r,0.0,r,1.0,0.8685931999998502,,,,,,,,,,9.0,1.0,109.0,4.0,350.18076010000004,,,,,,,,,,,,,,,,,350.1733199,351.36435280000023,352.15535980000004,352.1481479000004,,,,,,,,,,,,,,,,,,,,,,,,,,,,,,,,,,,352.1510637000001,352.15535980000004,352.15535980000004,353.0313277000005,r,1.0,0.8685931999998502,,,,,,sub-140,3,stroop_test,119.24806937290587,
,,,,110.0,2.0,9.0,,,,,,,,,,,,,gelb,red,r,0.0,r,1.0,0.4985293999998248,,,,,,,,,,9.0,2.0,110.0,8.0,353.03894670000045,,,,,,,,,,,,,,,,,353.0316364999999,354.2222447000004,355.0136040999996,355.0065850000001,,,,,,,,,,,,,,,,,,,,,,,,,,,,,,,,,,,355.0090031,355.0136040999996,355.0136040999996,355.5148400999997,r,1.0,0.4985293999998248,,,,,,sub-140,3,stroop_test,119.24806937290587,
,,,,111.0,3.0,9.0,,,,,,,,,,,,,rot,red,r,1.0,r,1.0,0.432742999999391,,,,,,,,,,9.0,3.0,111.0,1.0,355.52223950000007,,,,,,,,,,,,,,,,,355.5151365000001,355.6138291999996,356.4053482999998,356.39756659999966,,,,,,,,,,,,,,,,,,,,,,,,,,,,,,,,,,,356.39986359999966,356.4053482999998,356.4053482999998,356.8402454999996,r,1.0,0.432742999999391,,,,,,sub-140,3,stroop_test,119.24806937290587,
,,,,112.0,4.0,9.0,,,,,,,,,,,,,rot,yellow,g,0.0,g,1.0,0.5091985999997632,,,,,,,,,,9.0,4.0,112.0,3.0,356.8471833000003,,,,,,,,,,,,,,,,,356.84068060000027,356.9305069000002,357.72233359999973,357.7147396999999,,,,,,,,,,,,,,,,,,,,,,,,,,,,,,,,,,,357.7153449999996,357.72233359999973,357.72233359999973,358.23991990000013,g,1.0,0.5091985999997632,,,,,,sub-140,3,stroop_test,119.24806937290587,
,,,,113.0,5.0,9.0,,,,,,,,,,,,,blau,blue,b,1.0,b,1.0,0.4441710999999486,,,,,,,,,,9.0,5.0,113.0,5.0,358.2473429000001,,,,,,,,,,,,,,,,,358.24022890000015,358.33107329999984,359.1218412999997,359.11426329999995,,,,,,,,,,,,,,,,,,,,,,,,,,,,,,,,,,,359.1163041,359.1218412999997,359.1218412999997,359.57388939999964,b,1.0,0.4441710999999486,,,,,,sub-140,3,stroop_test,119.24806937290587,
,,,,114.0,6.0,9.0,,,,,,,,,,,,,blau,blue,b,1.0,b,1.0,0.4548314000003302,,,,,,,,,,9.0,6.0,114.0,6.0,359.58004770000025,,,,,,,,,,,,,,,,,359.5743101999997,359.6638026999999,360.4571396000001,360.4479516000001,,,,,,,,,,,,,,,,,,,,,,,,,,,,,,,,,,,360.44844920000014,360.4571396000001,360.4571396000001,360.91493439999977,b,1.0,0.4548314000003302,,,,,,sub-140,3,stroop_test,119.24806937290587,
,,,,115.0,7.0,9.0,,,,,,,,,,,,,blau,yellow,g,0.0,g,1.0,0.4966020000001663,,,,,,,,,,9.0,7.0,115.0,7.0,360.9227603999998,,,,,,,,,,,,,,,,,360.91523320000033,362.10579119999966,362.89703139999983,362.8892483,,,,,,,,,,,,,,,,,,,,,,,,,,,,,,,,,,,362.8897268999999,362.89703139999983,362.89703139999983,363.39881030000015,g,1.0,0.4966020000001663,,,,,,sub-140,3,stroop_test,119.24806937290587,
,,,,116.0,8.0,9.0,,,,,,,,,,,,,gelb,blue,b,0.0,b,1.0,1.373196100000314,,,,,,,,,,9.0,8.0,116.0,9.0,363.405761,,,,,,,,,,,,,,,,,363.3992882000002,364.5971872999999,365.3887797999996,365.3814892999999,,,,,,,,,,,,,,,,,,,,,,,,,,,,,,,,,,,365.3837887999998,365.3887797999996,365.3887797999996,366.76484249999976,b,1.0,1.373196100000314,,,,,,sub-140,3,stroop_test,119.24806937290587,
,,,,117.0,9.0,9.0,,,,,,,,,,,,,rot,red,r,1.0,r,1.0,0.6010052999999971,,,,,,,,,,9.0,9.0,117.0,0.0,366.7720682999998,,,,,,,,,,,,,,,,,366.7652535999996,367.5555497000005,368.3469937,368.3394558999999,,,,,,,,,,,,,,,,,,,,,,,,,,,,,,,,,,,368.34212320000006,368.3469937,368.3469937,368.9566261999999,r,1.0,0.6010052999999971,,,,,,sub-140,3,stroop_test,119.24806937290587,
,,,,118.0,10.0,9.0,,,,,,,,,,,,,gelb,yellow,g,1.0,g,1.0,0.5931820000005246,,,,,,,,,,9.0,10.0,118.0,11.0,368.9647541000004,,,,,,,,,,,,,,,,,368.95691499999975,369.3057732999996,370.0969302000003,370.0895397000004,,,,,,,,,,,,,,,,,,,,,,,,,,,,,,,,,,,370.0920512000002,370.0969302000003,370.0969302000003,370.6984749000003,g,1.0,0.5931820000005246,,,,,,sub-140,3,stroop_test,119.24806937290587,
,,,,119.0,11.0,9.0,,,,,,,,,,,,,rot,blue,b,0.0,b,1.0,0.6939007000000856,,,,,,,,,,9.0,11.0,119.0,2.0,370.7056831,,,,,,,,,,,,,,,,,370.69894230000045,371.4975289000004,372.28845420000016,372.2815335000005,,,,,,,,,,,,,,,,,,,,,,,,,,,,,,,,,,,372.28390300000046,372.28845420000016,372.28845420000016,372.99052980000033,b,1.0,0.6939007000000856,,,,,,sub-140,3,stroop_test,119.24806937290587,
,,,,,,,,,,,,,,,,,,,,,,,,,,,,,,,,,,,,,,,,,,,,,,,,,,,,,,,,,,,,,,,,,,,,,,,,,,,,,,,,,,,,,,,,,,,,,,,,,,,,,,372.9906891999999,372.9972622000005,377.9897383999996,377.9812613000004,sub-140,3,stroop_test,119.24806937290587,
