wordCTK,colorCTK,corrAnsCTK,congruentCTK,thisN,thisTrialN,thisRepN,keyResp_CTK.keys,keyResp_CTK.corr,keyResp_CTK.rt,keyResp_CTK.duration,wordPractice,colorPractice,corrAnsPractice,congruentPractice,respPractice.keys,respPractice.corr,respPractice.rt,respPractice.duration,word,color,corrAns,congruent,keyResp_test_run.keys,keyResp_test_run.corr,keyResp_test_run.rt,keyResp_test_run.duration,trials_CTK.thisRepN,trials_CTK.thisTrialN,trials_CTK.thisN,trials_CTK.thisIndex,trials_practice.thisRepN,trials_practice.thisTrialN,trials_practice.thisN,trials_practice.thisIndex,trials_test.thisRepN,trials_test.thisTrialN,trials_test.thisN,trials_test.thisIndex,thisRow.t,notes,instruction.started,instr_text.started,instr_image.started,instr_resp.started,instruction.stopped,instr_resp.keys,instr_resp.rt,instr_resp.duration,instr_color_to_key.started,instr_ctk.started,resp_ctk.started,instr_color_to_key.stopped,resp_ctk.keys,resp_ctk.rt,resp_ctk.duration,ITI.started,fixcross.started,fixcross.stopped,ITI.stopped,color_to_key_run.started,stimulus_CTK.started,keyResp_CTK.started,color_to_key_run.stopped,trials_CTK.keyResp_CTK.keys,trials_CTK.keyResp_CTK.corr,trials_CTK.keyResp_CTK.rt,trials_CTK.keyResp_CTK.duration,instr_practice.started,instr_practice_text.started,instr_practice_resp.started,instr_practice.stopped,instr_practice_resp.keys,instr_practice_resp.rt,instr_practice_resp.duration,practice_run.started,stimulus_practice.started,respPractice.started,practice_run.stopped,trials_practice.respPractice.keys,trials_practice.respPractice.corr,trials_practice.respPractice.rt,trials_practice.respPractice.duration,feedback.started,textFeedback.started,feedback.stopped,textFeedback.stopped,instr_test.started,instr_test_text.started,instr_test_resp.started,instr_test.stopped,instr_test_resp.keys,instr_test_resp.rt,instr_test_resp.duration,test_run.started,stimulus_test_run.started,keyResp_test_run.started,test_run.stopped,trials_test.keyResp_test_run.keys,trials_test.keyResp_test_run.corr,trials_test.keyResp_test_run.rt,trials_test.keyResp_test_run.duration,goodbye.started,textGoodbye.started,textGoodbye.stopped,goodbye.stopped,participant,session,expName,frameRate,Unnamed: 113
,,,,,,,,,,,,,,,,,,,,,,,,,,,,,,,,,,,,,,,,,0.0050472000148147,0.0679960999405011,0.0679960999405011,0.0679960999405011,60.18316309992224,space,60.11262320005335,,,,,,,,,,,,,,,,,,,,,,,,,,,,,,,,,,,,,,,,,,,,,,,,,,,,,,,,,,,sub-195,1,stroop_test,60.05681374493553,
,,,,,,,,,,,,,,,,,,,,,,,,,,,,,,,,,,,,,,,,,,,,,,,,,60.18331029999536,60.1955530999694,60.1955530999694,70.30450730002485,space,10.097408800036646,,,,,,,,,,,,,,,,,,,,,,,,,,,,,,,,,,,,,,,,,,,,,,,,,,,,sub-195,1,stroop_test,60.05681374493553,
test,yellow,g,1.0,0.0,0.0,0.0,g,1.0,1.4164853000547737,,,,,,,,,,,,,,,,,,0.0,0.0,0.0,1.0,,,,,,,,,70.33904729993083,,,,,,,,,,,,,,,,,70.32975169993006,70.41880400001537,71.2753085999284,71.20377959997859,71.26381819997914,71.2753085999284,71.2753085999284,72.70616619999055,g,1.0,1.4164853000547737,,,,,,,,,,,,,,,,,,,,,,,,,,,,,,,,,,,,,,,,sub-195,1,stroop_test,60.05681374493553,
test,red,r,1.0,1.0,1.0,0.0,r,1.0,1.4713406999362633,,,,,,,,,,,,,,,,,,0.0,1.0,1.0,0.0,,,,,,,,,72.72027109994087,,,,,,,,,,,,,,,,,72.70682500000112,72.82037219998892,73.62096339999698,73.6055249000201,73.60651149996556,73.62096339999698,73.62096339999698,75.1077475999482,r,1.0,1.4713406999362633,,,,,,,,,,,,,,,,,,,,,,,,,,,,,,,,,,,,,,,,sub-195,1,stroop_test,60.05681374493553,
test,blue,b,1.0,2.0,2.0,0.0,b,1.0,0.8894177000038326,,,,,,,,,,,,,,,,,,0.0,2.0,2.0,2.0,,,,,,,,,75.1218847000273,,,,,,,,,,,,,,,,,75.10840989998542,75.47226209996734,76.27271739998832,76.25747960002627,76.25849099992774,76.27271739998832,76.27271739998832,77.17571300000418,b,1.0,0.8894177000038326,,,,,,,,,,,,,,,,,,,,,,,,,,,,,,,,,,,,,,,,sub-195,1,stroop_test,60.05681374493553,
test,blue,b,1.0,3.0,0.0,1.0,b,1.0,0.9016393999336288,,,,,,,,,,,,,,,,,,1.0,0.0,3.0,2.0,,,,,,,,,77.18986599997152,,,,,,,,,,,,,,,,,77.17634779994842,77.5400665999623,78.34063019999303,78.32536969997454,78.32633820001502,78.34063019999303,78.34063019999303,79.26019179995637,b,1.0,0.9016393999336288,,,,,,,,,,,,,,,,,,,,,,,,,,,,,,,,,,,,,,,,sub-195,1,stroop_test,60.05681374493553,
test,yellow,g,1.0,4.0,1.0,1.0,g,1.0,1.0571420000633225,,,,,,,,,,,,,,,,,,1.0,1.0,4.0,1.0,,,,,,,,,79.27486200002022,,,,,,,,,,,,,,,,,79.26078379992396,80.47574399993755,81.27629419998266,81.26067879993934,81.26168370002415,81.27629419998266,81.27629419998266,82.34574349992909,g,1.0,1.0571420000633225,,,,,,,,,,,,,,,,,,,,,,,,,,,,,,,,,,,,,,,,sub-195,1,stroop_test,60.05681374493553,
test,red,r,1.0,5.0,2.0,1.0,r,1.0,0.750706100021489,,,,,,,,,,,,,,,,,,1.0,2.0,5.0,0.0,,,,,,,,,82.36028669995721,,,,,,,,,,,,,,,,,82.34638419991825,82.46037689992227,83.26077369996347,83.24540669994894,83.24631939991377,83.26077369996347,83.26077369996347,84.01414849993307,r,1.0,0.750706100021489,,,,,,,,,,,,,,,,,,,,,,,,,,,,,,,,,,,,,,,,sub-195,1,stroop_test,60.05681374493553,
test,blue,b,1.0,6.0,0.0,2.0,b,1.0,0.7840093000559136,,,,,,,,,,,,,,,,,,2.0,0.0,6.0,2.0,,,,,,,,,84.02790779992938,,,,,,,,,,,,,,,,,84.01473850000184,84.37840879999567,85.17875909991562,85.16331340000033,85.16420759994071,85.17875909991562,85.17875909991562,85.96529259998351,b,1.0,0.7840093000559136,,,,,,,,,,,,,,,,,,,,,,,,,,,,,,,,,,,,,,,,sub-195,1,stroop_test,60.05681374493553,
test,red,r,1.0,7.0,1.0,2.0,r,1.0,0.9220298998989164,,,,,,,,,,,,,,,,,,2.0,1.0,7.0,0.0,,,,,,,,,85.97929109993856,,,,,,,,,,,,,,,,,85.96599149995018,86.77992729994003,87.58049959992059,87.56504639994819,87.56603729992639,87.58049959992059,87.58049959992059,88.51683279999997,r,1.0,0.9220298998989164,,,,,,,,,,,,,,,,,,,,,,,,,,,,,,,,,,,,,,,,sub-195,1,stroop_test,60.05681374493553,
test,yellow,g,1.0,8.0,2.0,2.0,g,1.0,0.6113396000582725,,,,,,,,,,,,,,,,,,2.0,2.0,8.0,1.0,,,,,,,,,88.53104969998822,,,,,,,,,,,,,,,,,88.51750289998017,88.63136979995761,89.4316779000219,89.4163855999941,89.41772869997658,89.4316779000219,89.4316779000219,90.05137719993945,g,1.0,0.6113396000582725,,,,,,,,,,,,,,,,,,,,,,,,,,,,,,,,,,,,,,,,sub-195,1,stroop_test,60.05681374493553,
test,blue,b,1.0,9.0,0.0,3.0,b,1.0,0.7655721999472007,,,,,,,,,,,,,,,,,,3.0,0.0,9.0,2.0,,,,,,,,,90.06536240002606,,,,,,,,,,,,,,,,,90.05197829997633,90.86604679992888,91.66668419993948,91.65085320000072,91.65190279996024,91.66668419993948,91.66668419993948,92.43619449995458,b,1.0,0.7655721999472007,,,,,,,,,,,,,,,,,,,,,,,,,,,,,,,,,,,,,,,,sub-195,1,stroop_test,60.05681374493553,
test,red,r,1.0,10.0,1.0,3.0,r,1.0,1.0113926000194624,,,,,,,,,,,,,,,,,,3.0,1.0,10.0,0.0,,,,,,,,,92.45027059991844,,,,,,,,,,,,,,,,,92.43684099998792,93.65108819992749,94.45166030002292,94.4364285999909,94.4375457999995,94.45166030002292,94.45166030002292,95.47145189996807,r,1.0,1.0113926000194624,,,,,,,,,,,,,,,,,,,,,,,,,,,,,,,,,,,,,,,,sub-195,1,stroop_test,60.05681374493553,
test,yellow,g,1.0,11.0,2.0,3.0,g,1.0,0.7348263000603765,,,,,,,,,,,,,,,,,,3.0,2.0,11.0,1.0,,,,,,,,,95.48599129996728,,,,,,,,,,,,,,,,,95.47209319996182,95.58596369996668,96.3867458999157,96.371063199942,96.37219609995373,96.3867458999157,96.3867458999157,97.13932469999418,g,1.0,0.7348263000603765,,,,,,,,,,,,,,,,,,,,,,,,,,,,,,,,,,,,,,,,sub-195,1,stroop_test,60.05681374493553,
,,,,,,,,,,,,,,,,,,,,,,,,,,,,,,,,,,,,,,,,,,,,,,,,,,,,,,,,,,,,,,,,,,,,97.139631500002,97.1539982999675,97.1539982999675,106.413014599937,space,9.247745999949984,,,,,,,,,,,,,,,,,,,,,,,,,,,,,,,,,sub-195,1,stroop_test,60.05681374493553,
,,,,0.0,0.0,0.0,,,,,gelb,yellow,g,1.0,g,1.0,1.110569600015879,,,,,,,,,,,,,,0.0,0.0,0.0,10.0,,,,,106.441905100015,,,,,,,,,,,,,,,,,106.43455329991411,107.22752059996128,108.0721266999608,108.01226639992092,,,,,,,,,,,,,,,,108.06000359996688,108.0721266999608,108.0721266999608,109.19782350002788,g,1.0,1.110569600015879,,109.22208219999447,109.23526719992516,110.21309289999772,,,,,,,,,,,,,,,,,,,,,sub-195,1,stroop_test,60.05681374493553,
,,,,1.0,1.0,0.0,,,,,gelb,yellow,g,1.0,g,1.0,1.1292007999727502,,,,,,,,,,,,,,0.0,1.0,1.0,11.0,,,,,110.22915639996064,,,,,,,,,,,,,,,,,110.21405159996355,111.01330639992376,111.81388739997055,111.79846600000748,,,,,,,,,,,,,,,,111.79948669997977,111.81388739997055,111.81388739997055,112.95032800000628,g,1.0,1.1292007999727502,,112.95139609999023,112.9647241999628,113.95003850001376,113.96526630001608,,,,,,,,,,,,,,,,,,,,sub-195,1,stroop_test,60.05681374493553,
,,,,2.0,2.0,0.0,,,,,gelb,red,r,0.0,r,1.0,1.116429700050503,,,,,,,,,,,,,,0.0,2.0,2.0,8.0,,,,,113.96526630001608,,,,,,,,,,,,,,,,,113.9506653000135,114.31535329995675,115.1160474999342,115.1005735999206,,,,,,,,,,,,,,,,115.10157769999932,115.1160474999342,115.1160474999342,116.23619879991747,r,1.0,1.116429700050503,,116.237290799967,116.2502048999304,117.23531120002735,117.25076209998224,,,,,,,,,,,,,,,,,,,,sub-195,1,stroop_test,60.05681374493553,
,,,,3.0,3.0,0.0,,,,,gelb,blue,b,0.0,b,1.0,0.8304419999476522,,,,,,,,,,,,,,0.0,3.0,3.0,9.0,,,,,117.25076209998224,,,,,,,,,,,,,,,,,117.23592559993268,118.45161490002648,119.25219349993858,119.23656839993782,,,,,,,,,,,,,,,,119.2375526999822,119.25219349993858,119.25219349993858,120.0883469999535,b,1.0,0.8304419999476522,,120.08940880000593,120.10286189999896,121.08792510000058,121.10336760000791,,,,,,,,,,,,,,,,,,,,sub-195,1,stroop_test,60.05681374493553,
,,,,4.0,4.0,0.0,,,,,rot,yellow,g,0.0,g,1.0,0.8886315999552608,,,,,,,,,,,,,,0.0,4.0,4.0,3.0,,,,,121.10336760000791,,,,,,,,,,,,,,,,,121.08864939992782,122.28739299997687,123.09544339997228,123.0728051000042,,,,,,,,,,,,,,,,123.08438229991587,123.09544339997228,123.09544339997228,123.99143779999577,g,1.0,0.8886315999552608,,123.99258149997333,124.005477199913,124.99069389991928,125.0062574999174,,,,,,,,,,,,,,,,,,,,sub-195,1,stroop_test,60.05681374493553,
,,,,5.0,5.0,0.0,,,,,rot,red,r,1.0,r,1.0,0.8049498000182211,,,,,,,,,,,,,,0.0,5.0,5.0,0.0,,,,,125.0062574999174,,,,,,,,,,,,,,,,,124.9913500000257,126.20692109991796,127.00749240000732,126.99211989995092,,,,,,,,,,,,,,,,126.99308909999672,127.00749240000732,127.00749240000732,127.82693380001,r,1.0,0.8049498000182211,,127.82792349997908,127.84145680000074,128.82693500001915,128.84185289999004,,,,,,,,,,,,,,,,,,,,sub-195,1,stroop_test,60.05681374493553,
,,,,6.0,6.0,0.0,,,,,rot,blue,b,0.0,b,1.0,0.6059561999281868,,,,,,,,,,,,,,0.0,6.0,6.0,2.0,,,,,128.84185289999004,,,,,,,,,,,,,,,,,128.82764549995773,130.02642389992252,130.82690450001974,130.81145329994615,,,,,,,,,,,,,,,,130.81249959999695,130.82690450001974,130.82690450001974,131.44605129992124,b,1.0,0.6059561999281868,,131.4471347000217,131.46063470002264,132.44584820000455,132.4611961999908,,,,,,,,,,,,,,,,,,,,sub-195,1,stroop_test,60.05681374493553,
,,,,7.0,7.0,0.0,,,,,rot,red,r,1.0,r,1.0,0.8403842999832705,,,,,,,,,,,,,,0.0,7.0,7.0,1.0,,,,,132.4611961999908,,,,,,,,,,,,,,,,,132.4464760000119,132.81147029995918,133.6121769999154,133.59642870002426,,,,,,,,,,,,,,,,133.59807339997496,133.6121769999154,133.6121769999154,134.4649813999422,r,1.0,0.8403842999832705,,134.46594189992177,134.4795038999291,135.4647192999255,135.47990379994735,,,,,,,,,,,,,,,,,,,,sub-195,1,stroop_test,60.05681374493553,
,,,,8.0,8.0,0.0,,,,,blau,blue,b,1.0,b,1.0,0.953710800036788,,,,,,,,,,,,,,0.0,8.0,8.0,6.0,,,,,135.47990379994735,,,,,,,,,,,,,,,,,135.46538609999698,136.2805816999171,137.14930219994858,137.0655795999337,,,,,,,,,,,,,,,,137.08300179999787,137.14930219994858,137.14930219994858,138.11764399998356,b,1.0,0.953710800036788,,138.11869699996896,138.1320013999939,139.11723219999112,139.13257169991266,,,,,,,,,,,,,,,,,,,,sub-195,1,stroop_test,60.05681374493553,
,,,,9.0,9.0,0.0,,,,,blau,blue,b,1.0,b,1.0,0.5500482000643387,,,,,,,,,,,,,,0.0,9.0,9.0,5.0,,,,,139.13257169991266,,,,,,,,,,,,,,,,,139.1178760000039,139.48287079995498,140.28337840002496,140.26793710002676,,,,,,,,,,,,,,,,140.26892820000648,140.28337840002496,140.28337840002496,140.83636600000318,b,1.0,0.5500482000643387,,140.8374476999743,140.85025839996524,141.83593559998553,141.85076129995286,,,,,,,,,,,,,,,,,,,,sub-195,1,stroop_test,60.05681374493553,
,,,,10.0,10.0,0.0,,,,,blau,red,r,0.0,r,1.0,1.0213188000489026,,,,,,,,,,,,,,0.0,10.0,10.0,4.0,,,,,141.85076129995286,,,,,,,,,,,,,,,,,141.8366292999126,142.2011133999331,143.0018654000014,142.98639759991784,,,,,,,,,,,,,,,,142.98739709996153,143.0018654000014,143.0018654000014,144.03828739991877,r,1.0,1.0213188000489026,,144.03932879993226,144.05249649996404,145.03792789997533,145.0530267999275,,,,,,,,,,,,,,,,,,,,sub-195,1,stroop_test,60.05681374493553,
,,,,11.0,11.0,0.0,,,,,blau,yellow,g,0.0,g,1.0,0.889981499989517,,,,,,,,,,,,,,0.0,11.0,11.0,7.0,,,,,145.0530267999275,,,,,,,,,,,,,,,,,145.03855049994309,145.40345360001083,146.20391809998546,146.18860069999937,,,,,,,,,,,,,,,,146.18962790002115,146.20391809998546,146.20391809998546,147.10694490000606,g,1.0,0.889981499989517,,147.10807810002007,147.1214702000143,148.10668229998555,148.1219785999274,,,,,,,,,,,,,,,,,,,,sub-195,1,stroop_test,60.05681374493553,
,,,,12.0,0.0,1.0,,,,,blau,blue,b,1.0,b,1.0,1.010219700052403,,,,,,,,,,,,,,1.0,0.0,12.0,6.0,,,,,148.1219785999274,,,,,,,,,,,,,,,,,148.1073185999412,148.47235649998763,149.2729611999821,149.2571098000044,,,,,,,,,,,,,,,,149.25813319999725,149.2729611999821,149.2729611999821,150.2927368999226,b,1.0,1.010219700052403,,150.2937950999476,150.30679269996472,151.29232240002602,151.30736099998467,,,,,,,,,,,,,,,,,,,,sub-195,1,stroop_test,60.05681374493553,
,,,,13.0,1.0,1.0,,,,,rot,blue,b,0.0,b,1.0,2.0110077999997884,,,,,,,,,,,,,,1.0,1.0,13.0,2.0,,,,,151.30736099998467,,,,,,,,,,,,,,,,,151.29293080000207,151.40751940000337,152.2122874999186,152.19284769997466,,,,,,,,,,,,,,,,152.20066249999218,152.2122874999186,152.2122874999186,154.22832250001375,b,1.0,2.0110077999997884,,154.2293191999197,154.24289539991878,155.22834289993625,155.24351559998468,,,,,,,,,,,,,,,,,,,,sub-195,1,stroop_test,60.05681374493553,
,,,,14.0,2.0,1.0,,,,,gelb,yellow,g,1.0,g,1.0,0.9661042999941856,,,,,,,,,,,,,,1.0,2.0,14.0,11.0,,,,,155.24351559998468,,,,,,,,,,,,,,,,,155.22897960001137,156.04413719999138,156.84728019998877,156.82925629999954,,,,,,,,,,,,,,,,156.83641450002324,156.84728019998877,156.84728019998877,157.83097599993926,g,1.0,0.9661042999941856,,157.83211590000428,157.8454483000096,158.8308326000115,158.8459571999265,,,,,,,,,,,,,,,,,,,,sub-195,1,stroop_test,60.05681374493553,
,,,,15.0,3.0,1.0,,,,,gelb,red,r,0.0,r,1.0,1.277804399956949,,,,,,,,,,,,,,1.0,3.0,15.0,8.0,,,,,158.8459571999265,,,,,,,,,,,,,,,,,158.83147889992688,158.94628829997964,159.7466302999528,159.731098499964,,,,,,,,,,,,,,,,159.73208739992697,159.7466302999528,159.7466302999528,161.0332259000279,r,1.0,1.277804399956949,,161.0343194999732,161.04759029997513,162.03298199991696,162.04818299994804,,,,,,,,,,,,,,,,,,,,sub-195,1,stroop_test,60.05681374493553,
,,,,16.0,4.0,1.0,,,,,gelb,yellow,g,1.0,g,1.0,1.2049177000299096,,,,,,,,,,,,,,1.0,4.0,16.0,10.0,,,,,162.04818299994804,,,,,,,,,,,,,,,,,162.03364799998235,162.14841169991996,162.94897779996973,162.9334718999453,,,,,,,,,,,,,,,,162.9344952999381,162.94897779996973,162.94897779996973,164.1686532999156,g,1.0,1.2049177000299096,,164.16981799993664,164.18322000000626,165.16829649999272,165.1838355999207,,,,,,,,,,,,,,,,,,,,sub-195,1,stroop_test,60.05681374493553,
,,,,17.0,5.0,1.0,,,,,blau,blue,b,1.0,b,1.0,0.7960942999925464,,,,,,,,,,,,,,1.0,5.0,17.0,5.0,,,,,165.1838355999207,,,,,,,,,,,,,,,,,165.16894639993552,165.53407039993908,166.3384729999816,166.31892280001193,,,,,,,,,,,,,,,,166.3270592999179,166.3384729999816,166.3384729999816,167.13751699996646,b,1.0,0.7960942999925464,,167.13855479995254,167.1519615999423,168.1370224999264,168.15242569998372,,,,,,,,,,,,,,,,,,,,sub-195,1,stroop_test,60.05681374493553,
,,,,18.0,6.0,1.0,,,,,blau,yellow,g,0.0,g,1.0,1.6306887000100687,,,,,,,,,,,,,,1.0,6.0,18.0,7.0,,,,,168.15242569998372,,,,,,,,,,,,,,,,,168.137659,168.5027426999295,169.30335880001076,169.28778839996085,,,,,,,,,,,,,,,,169.28880490001757,169.30335880001076,169.30335880001076,170.94022140000015,g,1.0,1.6306887000100687,,170.94129149999935,170.9544286999153,171.93967340001836,171.95500219997484,,,,,,,,,,,,,,,,,,,,sub-195,1,stroop_test,60.05681374493553,
,,,,19.0,7.0,1.0,,,,,rot,red,r,1.0,r,1.0,1.0859419000335038,,,,,,,,,,,,,,1.0,7.0,19.0,1.0,,,,,171.95500219997484,,,,,,,,,,,,,,,,,171.9402707000263,172.30544549995102,173.10886389994994,173.09036539995577,,,,,,,,,,,,,,,,173.09786099998746,173.10886389994994,173.10886389994994,174.2090795999393,r,1.0,1.0859419000335038,,174.21016140002757,174.22307649999857,175.2087281999411,175.22363949997816,,,,,,,,,,,,,,,,,,,,sub-195,1,stroop_test,60.05681374493553,
,,,,20.0,8.0,1.0,,,,,rot,red,r,1.0,r,1.0,0.8555874999146909,,,,,,,,,,,,,,1.0,8.0,20.0,0.0,,,,,175.22363949997816,,,,,,,,,,,,,,,,,175.20934439997654,176.40829559997655,177.20861630002037,177.19355740002356,,,,,,,,,,,,,,,,177.19475149991922,177.20861630002037,177.20861630002037,178.0782007999951,r,1.0,0.8555874999146909,,178.07933819992468,178.09277300001122,179.07788300001994,179.09333269996569,,,,,,,,,,,,,,,,,,,,sub-195,1,stroop_test,60.05681374493553,
,,,,21.0,9.0,1.0,,,,,blau,red,r,0.0,r,1.0,1.4774003999773413,,,,,,,,,,,,,,1.0,9.0,21.0,4.0,,,,,179.09333269996569,,,,,,,,,,,,,,,,,179.07855789992027,179.44332439999562,180.2470884999493,180.22839379997455,,,,,,,,,,,,,,,,180.23566769994795,180.2470884999493,180.2470884999493,181.73074539995287,r,1.0,1.4774003999773413,,181.73180059995505,181.7450943000149,182.7305036999751,182.7458330999361,,,,,,,,,,,,,,,,,,,,sub-195,1,stroop_test,60.05681374493553,
,,,,22.0,10.0,1.0,,,,,rot,yellow,g,0.0,g,1.0,1.4332185999955982,,,,,,,,,,,,,,1.0,10.0,22.0,3.0,,,,,182.7458330999361,,,,,,,,,,,,,,,,,182.7311548999278,183.54634809994604,184.35118619992863,184.3312679999508,,,,,,,,,,,,,,,,184.33913139998916,184.35118619992863,184.35118619992863,185.8003299999982,g,1.0,1.4332185999955982,,185.80149420001544,185.8146499999566,186.80005379999056,186.81518859998323,,,,,,,,,,,,,,,,,,,,sub-195,1,stroop_test,60.05681374493553,
,,,,23.0,11.0,1.0,,,,,gelb,blue,b,0.0,b,1.0,1.5136008999543265,,,,,,,,,,,,,,1.0,11.0,23.0,9.0,,,,,186.81518859998323,,,,,,,,,,,,,,,,,186.80067469994535,187.16552849998695,187.96990319993347,187.95055069995576,,,,,,,,,,,,,,,,187.9590016999282,187.96990319993347,187.96990319993347,189.48626919998787,b,1.0,1.5136008999543265,,189.48733979999088,189.50059960002545,190.48575669992715,190.50150519993625,,,,,,,,,,,,,,,,,,,,sub-195,1,stroop_test,60.05681374493553,
,,,,,,,,,,,,,,,,,,,,,,,,,,,,,,,,,,,,,,,,,,,,,,,,,,,,,,,,,,,,,,,,,,,,,,,,,,,,,,,,,,,,,,,190.4860320999287,190.50150519993625,190.50150519993625,197.17510579992089,space,6.663389299996197,,,,,,,,,,,,,,sub-195,1,stroop_test,60.05681374493553,
,,,,0.0,0.0,0.0,,,,,,,,,,,,,blau,blue,b,1.0,b,1.0,1.113192499964498,,,,,,,,,,0.0,0.0,0.0,6.0,197.20624610001687,,,,,,,,,,,,,,,,,197.1989454999566,197.2888987999177,198.09198669996115,198.0743325999938,,,,,,,,,,,,,,,,,,,,,,,,,,,,,,,,,,,198.08146999997552,198.09198669996115,198.09198669996115,199.20965460001025,b,1.0,1.113192499964498,,,,,,sub-195,1,stroop_test,60.05681374493553,
,,,,1.0,1.0,0.0,,,,,,,,,,,,,rot,blue,b,0.0,b,1.0,1.2761359999421984,,,,,,,,,,0.0,1.0,1.0,2.0,199.2235668000067,,,,,,,,,,,,,,,,,199.21042449993547,200.02446119999516,200.82929459994196,200.80932999996003,,,,,,,,,,,,,,,,,,,,,,,,,,,,,,,,,,,200.81701389991213,200.82929459994196,200.82929459994196,202.1114297999302,b,1.0,1.2761359999421984,,,,,,sub-195,1,stroop_test,60.05681374493553,
,,,,2.0,2.0,0.0,,,,,,,,,,,,,gelb,blue,b,0.0,b,1.0,0.8257356999674812,,,,,,,,,,0.0,2.0,2.0,9.0,202.1257356000133,,,,,,,,,,,,,,,,,202.11214659991677,202.4759514000034,203.27936459996272,203.26108690002,,,,,,,,,,,,,,,,,,,,,,,,,,,,,,,,,,,203.2682399000041,203.27936459996272,203.27936459996272,204.1128472000128,b,1.0,0.8257356999674812,,,,,,sub-195,1,stroop_test,60.05681374493553,
,,,,3.0,3.0,0.0,,,,,,,,,,,,,gelb,yellow,g,1.0,g,1.0,1.0066735000582412,,,,,,,,,,0.0,3.0,3.0,10.0,204.1272249999456,,,,,,,,,,,,,,,,,204.1136221999768,204.2272662000032,205.02778449992184,205.0122824999271,,,,,,,,,,,,,,,,,,,,,,,,,,,,,,,,,,,205.0132117000176,205.02778449992184,205.02778449992184,206.0472152999137,g,1.0,1.0066735000582412,,,,,,sub-195,1,stroop_test,60.05681374493553,
,,,,4.0,4.0,0.0,,,,,,,,,,,,,rot,yellow,g,0.0,g,1.0,0.509203499997966,,,,,,,,,,0.0,4.0,4.0,3.0,206.0617004999658,,,,,,,,,,,,,,,,,206.0479864999652,206.1618836999405,206.9668498999672,206.94671749998813,,,,,,,,,,,,,,,,,,,,,,,,,,,,,,,,,,,206.9553086999804,206.9668498999672,206.9668498999672,207.4817742999876,g,1.0,0.509203499997966,,,,,,sub-195,1,stroop_test,60.05681374493553,
,,,,5.0,5.0,0.0,,,,,,,,,,,,,rot,red,r,1.0,r,1.0,1.1077672999817878,,,,,,,,,,0.0,5.0,5.0,0.0,207.4960102000041,,,,,,,,,,,,,,,,,207.48250429995824,207.5960444000084,208.3965621999232,208.38133419991937,,,,,,,,,,,,,,,,,,,,,,,,,,,,,,,,,,,208.38236789999064,208.3965621999232,208.3965621999232,209.5163320999127,r,1.0,1.1077672999817878,,,,,,sub-195,1,stroop_test,60.05681374493553,
,,,,6.0,6.0,0.0,,,,,,,,,,,,,blau,red,r,0.0,r,1.0,1.3401849999791011,,,,,,,,,,0.0,6.0,6.0,4.0,209.53074620000552,,,,,,,,,,,,,,,,,209.51703260000795,209.63082229997963,210.43512399995237,210.4162192000076,,,,,,,,,,,,,,,,,,,,,,,,,,,,,,,,,,,210.42376099992543,210.43512399995237,210.43512399995237,211.78487279999536,r,1.0,1.3401849999791011,,,,,,sub-195,1,stroop_test,60.05681374493553,
,,,,7.0,7.0,0.0,,,,,,,,,,,,,blau,blue,b,1.0,b,1.0,1.755359600065276,,,,,,,,,,0.0,7.0,7.0,5.0,211.79889759991784,,,,,,,,,,,,,,,,,211.78563449997452,212.1492247999413,212.9497013000073,212.9345308999764,,,,,,,,,,,,,,,,,,,,,,,,,,,,,,,,,,,212.9354567999253,212.9497013000073,212.9497013000073,214.72004139993803,b,1.0,1.755359600065276,,,,,,sub-195,1,stroop_test,60.05681374493553,
,,,,8.0,8.0,0.0,,,,,,,,,,,,,rot,red,r,1.0,r,1.0,1.284671799978241,,,,,,,,,,0.0,8.0,8.0,1.0,214.7343261999777,,,,,,,,,,,,,,,,,214.7207752999384,214.83440409996547,215.63987089996223,215.6196672000224,,,,,,,,,,,,,,,,,,,,,,,,,,,,,,,,,,,215.62781059998088,215.63987089996223,215.63987089996223,216.93820109998344,r,1.0,1.284671799978241,,,,,,sub-195,1,stroop_test,60.05681374493553,
,,,,9.0,9.0,0.0,,,,,,,,,,,,,blau,yellow,g,0.0,g,1.0,1.1896061999723315,,,,,,,,,,0.0,9.0,9.0,7.0,216.95229739998467,,,,,,,,,,,,,,,,,216.9389693000121,217.3026734999148,218.10495609999637,218.08785579993852,,,,,,,,,,,,,,,,,,,,,,,,,,,,,,,,,,,218.09451879991684,218.10495609999637,218.10495609999637,219.30658789991867,g,1.0,1.1896061999723315,,,,,,sub-195,1,stroop_test,60.05681374493553,
,,,,10.0,10.0,0.0,,,,,,,,,,,,,gelb,red,r,0.0,r,1.0,1.4017750000348317,,,,,,,,,,0.0,10.0,10.0,8.0,219.3207813999616,,,,,,,,,,,,,,,,,219.30738499993456,219.42104649997785,220.2238799999468,220.20577759994197,,,,,,,,,,,,,,,,,,,,,,,,,,,,,,,,,,,220.212818,220.2238799999468,220.2238799999468,221.64151999994647,r,1.0,1.4017750000348317,,,,,,sub-195,1,stroop_test,60.05681374493553,
,,,,11.0,11.0,0.0,,,,,,,,,,,,,gelb,yellow,g,1.0,g,1.0,1.2086792000336573,,,,,,,,,,0.0,11.0,11.0,11.0,221.6556650999701,,,,,,,,,,,,,,,,,221.6422736999812,221.75588269997388,222.55627489998005,222.54112639999948,,,,,,,,,,,,,,,,,,,,,,,,,,,,,,,,,,,222.54216950002592,222.55627489998005,222.55627489998005,223.77654599992093,g,1.0,1.2086792000336573,,,,,,sub-195,1,stroop_test,60.05681374493553,
,,,,12.0,0.0,1.0,,,,,,,,,,,,,blau,blue,b,1.0,b,1.0,0.9408294999739156,,,,,,,,,,1.0,0.0,12.0,6.0,223.79059839993715,,,,,,,,,,,,,,,,,223.77728609996848,223.89077359996736,224.6951478000265,224.67595439997967,,,,,,,,,,,,,,,,,,,,,,,,,,,,,,,,,,,224.6839494999731,224.6951478000265,224.6951478000265,225.64433319994717,b,1.0,0.9408294999739156,,,,,,sub-195,1,stroop_test,60.05681374493553,
,,,,13.0,1.0,1.0,,,,,,,,,,,,,blau,yellow,g,0.0,g,1.0,1.015397199895233,,,,,,,,,,1.0,1.0,13.0,7.0,225.6583930000197,,,,,,,,,,,,,,,,,225.64506429992616,226.85931269999128,227.6597763999598,227.64460509992205,,,,,,,,,,,,,,,,,,,,,,,,,,,,,,,,,,,227.6456562000094,227.6597763999598,227.6597763999598,228.6797743999632,g,1.0,1.015397199895233,,,,,,sub-195,1,stroop_test,60.05681374493553,
,,,,14.0,2.0,1.0,,,,,,,,,,,,,gelb,yellow,g,1.0,g,1.0,0.9580913999816404,,,,,,,,,,1.0,2.0,14.0,11.0,228.69398009998255,,,,,,,,,,,,,,,,,228.6805046999361,229.0443510999903,229.8479765999364,229.8294048999669,,,,,,,,,,,,,,,,,,,,,,,,,,,,,,,,,,,229.8368738000281,229.8479765999364,229.8479765999364,230.81440349994227,g,1.0,0.9580913999816404,,,,,,sub-195,1,stroop_test,60.05681374493553,
,,,,15.0,3.0,1.0,,,,,,,,,,,,,gelb,yellow,g,1.0,g,1.0,0.9541635999921708,,,,,,,,,,1.0,3.0,15.0,10.0,230.82886949996464,,,,,,,,,,,,,,,,,230.81513549992812,232.0296772000147,232.83016000001223,232.814643300022,,,,,,,,,,,,,,,,,,,,,,,,,,,,,,,,,,,232.81567849998828,232.83016000001223,232.83016000001223,233.8000031999545,g,1.0,0.9541635999921708,,,,,,sub-195,1,stroop_test,60.05681374493553,
,,,,16.0,4.0,1.0,,,,,,,,,,,,,blau,blue,b,1.0,b,1.0,1.0965293999761343,,,,,,,,,,1.0,4.0,16.0,5.0,233.814020199934,,,,,,,,,,,,,,,,,233.8007590000052,234.61449609999545,235.417973499978,235.39988209994044,,,,,,,,,,,,,,,,,,,,,,,,,,,,,,,,,,,235.40677869995125,235.417973499978,235.417973499978,236.51830879994668,b,1.0,1.0965293999761343,,,,,,sub-195,1,stroop_test,60.05681374493553,
,,,,17.0,5.0,1.0,,,,,,,,,,,,,rot,yellow,g,0.0,g,1.0,1.0880477000027895,,,,,,,,,,1.0,5.0,17.0,3.0,236.53280269994863,,,,,,,,,,,,,,,,,236.5190491999965,236.632853899966,237.4376763999462,237.41779500001576,,,,,,,,,,,,,,,,,,,,,,,,,,,,,,,,,,,237.42560880002569,237.4376763999462,237.4376763999462,238.53635449998544,g,1.0,1.0880477000027895,,,,,,sub-195,1,stroop_test,60.05681374493553,
,,,,18.0,6.0,1.0,,,,,,,,,,,,,rot,blue,b,0.0,b,1.0,0.8455957999685779,,,,,,,,,,1.0,6.0,18.0,2.0,238.5505881999852,,,,,,,,,,,,,,,,,238.5370920000132,239.35142139997333,240.1518163000001,240.13652559998445,,,,,,,,,,,,,,,,,,,,,,,,,,,,,,,,,,,240.13749869994356,240.1518163000001,240.1518163000001,241.00498219998556,b,1.0,0.8455957999685779,,,,,,sub-195,1,stroop_test,60.05681374493553,
,,,,19.0,7.0,1.0,,,,,,,,,,,,,rot,red,r,1.0,r,1.0,0.5351168001070619,,,,,,,,,,1.0,7.0,19.0,0.0,241.01888510002755,,,,,,,,,,,,,,,,,241.0057200000156,242.21967919997405,243.0202735000057,243.00488309992943,,,,,,,,,,,,,,,,,,,,,,,,,,,,,,,,,,,243.00587039999664,243.0202735000057,243.0202735000057,243.57279559993185,r,1.0,0.5351168001070619,,,,,,sub-195,1,stroop_test,60.05681374493553,
,,,,20.0,8.0,1.0,,,,,,,,,,,,,gelb,red,r,0.0,r,1.0,0.7349135000258684,,,,,,,,,,1.0,8.0,20.0,8.0,243.58742509991865,,,,,,,,,,,,,,,,,243.5735172999557,243.93784749996848,244.7412487999536,244.7227503999602,,,,,,,,,,,,,,,,,,,,,,,,,,,,,,,,,,,244.73018790001515,244.7412487999536,244.7412487999536,245.4913732999703,r,1.0,0.7349135000258684,,,,,,sub-195,1,stroop_test,60.05681374493553,
,,,,21.0,9.0,1.0,,,,,,,,,,,,,rot,red,r,1.0,r,1.0,0.6560037999879569,,,,,,,,,,1.0,9.0,21.0,1.0,245.5053732999368,,,,,,,,,,,,,,,,,245.49219919997267,245.60551909997596,246.41018839995377,246.39076330000532,,,,,,,,,,,,,,,,,,,,,,,,,,,,,,,,,,,246.39922309992835,246.41018839995377,246.41018839995377,247.07558029994837,r,1.0,0.6560037999879569,,,,,,sub-195,1,stroop_test,60.05681374493553,
,,,,22.0,10.0,1.0,,,,,,,,,,,,,blau,red,r,0.0,r,1.0,1.5920129000442105,,,,,,,,,,1.0,10.0,22.0,4.0,247.08994630002417,,,,,,,,,,,,,,,,,247.0763632999733,247.8905818000203,248.69349480001256,248.6755227999529,,,,,,,,,,,,,,,,,,,,,,,,,,,,,,,,,,,248.68248449999373,248.69349480001256,248.69349480001256,250.29473099997267,r,1.0,1.5920129000442105,,,,,,sub-195,1,stroop_test,60.05681374493553,
,,,,23.0,11.0,1.0,,,,,,,,,,,,,gelb,blue,b,0.0,b,1.0,1.213597199996002,,,,,,,,,,1.0,11.0,23.0,9.0,250.3087410000153,,,,,,,,,,,,,,,,,250.29542360000775,250.40884589997583,251.2120828999905,251.1940697999671,,,,,,,,,,,,,,,,,,,,,,,,,,,,,,,,,,,251.2013042999897,251.2120828999905,251.2120828999905,252.42937479994723,b,1.0,1.213597199996002,,,,,,sub-195,1,stroop_test,60.05681374493553,
,,,,24.0,0.0,2.0,,,,,,,,,,,,,gelb,yellow,g,1.0,g,1.0,0.962483700015582,,,,,,,,,,2.0,0.0,24.0,10.0,252.44366280001125,,,,,,,,,,,,,,,,,252.43016129999887,252.5438607999822,253.34430629992855,253.32865419995505,,,,,,,,,,,,,,,,,,,,,,,,,,,,,,,,,,,253.32966159994248,253.34430629992855,253.34430629992855,254.3141807999928,g,1.0,0.962483700015582,,,,,,sub-195,1,stroop_test,60.05681374493553,
,,,,25.0,1.0,2.0,,,,,,,,,,,,,gelb,red,r,0.0,r,1.0,1.1075816999655217,,,,,,,,,,2.0,1.0,25.0,8.0,254.3279482999351,,,,,,,,,,,,,,,,,254.31492409994823,255.1288224000018,255.92929999995977,255.9138088999316,,,,,,,,,,,,,,,,,,,,,,,,,,,,,,,,,,,255.91478759993333,255.92929999995977,255.92929999995977,257.0492647999199,r,1.0,1.1075816999655217,,,,,,sub-195,1,stroop_test,60.05681374493553,
,,,,26.0,2.0,2.0,,,,,,,,,,,,,blau,blue,b,1.0,b,1.0,0.959871600032784,,,,,,,,,,2.0,2.0,26.0,5.0,257.06336549995467,,,,,,,,,,,,,,,,,257.04991569998674,257.41380159999244,258.2169960999163,258.19896169996355,,,,,,,,,,,,,,,,,,,,,,,,,,,,,,,,,,,258.2061960999854,258.2169960999163,258.2169960999163,259.1841818999965,b,1.0,0.959871600032784,,,,,,sub-195,1,stroop_test,60.05681374493553,
,,,,27.0,3.0,2.0,,,,,,,,,,,,,rot,red,r,1.0,r,1.0,1.0528079000068828,,,,,,,,,,2.0,3.0,27.0,1.0,259.1981087999884,,,,,,,,,,,,,,,,,259.1849157999968,259.2983295000158,260.1026268999558,260.0832196000265,,,,,,,,,,,,,,,,,,,,,,,,,,,,,,,,,,,260.0909789999714,260.1026268999558,260.1026268999558,261.16865060001146,r,1.0,1.0528079000068828,,,,,,sub-195,1,stroop_test,60.05681374493553,
,,,,28.0,4.0,2.0,,,,,,,,,,,,,gelb,yellow,g,1.0,g,1.0,0.8293218999169767,,,,,,,,,,2.0,4.0,28.0,11.0,261.18267689994536,,,,,,,,,,,,,,,,,261.169341599918,261.5330323999515,262.3367170999991,262.3181439000182,,,,,,,,,,,,,,,,,,,,,,,,,,,,,,,,,,,262.3259598999284,262.3367170999991,262.3367170999991,263.1701306999894,g,1.0,0.8293218999169767,,,,,,sub-195,1,stroop_test,60.05681374493553,
,,,,29.0,5.0,2.0,,,,,,,,,,,,,gelb,blue,b,0.0,b,1.0,0.970069900038652,,,,,,,,,,2.0,5.0,29.0,9.0,263.1840972999344,,,,,,,,,,,,,,,,,263.1709818999516,263.9847547999816,264.7853075999301,264.7699564999202,,,,,,,,,,,,,,,,,,,,,,,,,,,,,,,,,,,264.7709070999408,264.7853075999301,264.7853075999301,265.7718639000086,b,1.0,0.970069900038652,,,,,,sub-195,1,stroop_test,60.05681374493553,
,,,,30.0,6.0,2.0,,,,,,,,,,,,,blau,yellow,g,0.0,g,1.0,1.1253395000239834,,,,,,,,,,2.0,6.0,30.0,7.0,265.78580890002195,,,,,,,,,,,,,,,,,265.7726246999809,266.98713439994026,267.79075859999284,267.77223040000536,,,,,,,,,,,,,,,,,,,,,,,,,,,,,,,,,,,267.7796235999558,267.79075859999284,267.79075859999284,268.9241931999568,g,1.0,1.1253395000239834,,,,,,sub-195,1,stroop_test,60.05681374493553,
,,,,31.0,7.0,2.0,,,,,,,,,,,,,rot,blue,b,0.0,b,1.0,1.4452624999685213,,,,,,,,,,2.0,7.0,31.0,2.0,268.9380403999239,,,,,,,,,,,,,,,,,268.92493919993285,269.03816410002764,269.84145629999693,269.8234075999353,,,,,,,,,,,,,,,,,,,,,,,,,,,,,,,,,,,269.830682199914,269.84145629999693,269.84145629999693,271.2920984999509,b,1.0,1.4452624999685213,,,,,,sub-195,1,stroop_test,60.05681374493553,
,,,,32.0,8.0,2.0,,,,,,,,,,,,,blau,blue,b,1.0,b,1.0,1.3140214999439197,,,,,,,,,,2.0,8.0,32.0,6.0,271.3065169999609,,,,,,,,,,,,,,,,,271.29287519992795,271.65677280002274,272.4616150999209,272.4420957999537,,,,,,,,,,,,,,,,,,,,,,,,,,,,,,,,,,,272.4496148999315,272.4616150999209,272.4616150999209,273.7779558999464,b,1.0,1.3140214999439197,,,,,,sub-195,1,stroop_test,60.05681374493553,
,,,,33.0,9.0,2.0,,,,,,,,,,,,,rot,yellow,g,0.0,g,1.0,0.9192708999617024,,,,,,,,,,2.0,9.0,33.0,3.0,273.7915680999868,,,,,,,,,,,,,,,,,273.77868769993074,274.99225080001634,275.79670700000133,275.7775633999845,,,,,,,,,,,,,,,,,,,,,,,,,,,,,,,,,,,275.7851134999655,275.79670700000133,275.79670700000133,276.7294444999425,g,1.0,0.9192708999617024,,,,,,sub-195,1,stroop_test,60.05681374493553,
,,,,34.0,10.0,2.0,,,,,,,,,,,,,blau,red,r,0.0,r,1.0,0.9278068999992684,,,,,,,,,,2.0,10.0,34.0,4.0,276.7434441000223,,,,,,,,,,,,,,,,,276.7301784999436,277.0939026999986,277.89820139994845,277.8789445000002,,,,,,,,,,,,,,,,,,,,,,,,,,,,,,,,,,,277.88677270000335,277.89820139994845,277.89820139994845,278.83109709993005,r,1.0,0.9278068999992684,,,,,,sub-195,1,stroop_test,60.05681374493553,
,,,,35.0,11.0,2.0,,,,,,,,,,,,,rot,red,r,1.0,r,1.0,0.8258750999812037,,,,,,,,,,2.0,11.0,35.0,0.0,278.84494979993906,,,,,,,,,,,,,,,,,278.83190150000155,279.6453681999119,280.4509688999969,280.4312291999813,,,,,,,,,,,,,,,,,,,,,,,,,,,,,,,,,,,280.43893579998985,280.4509688999969,280.4509688999969,281.282458200003,r,1.0,0.8258750999812037,,,,,,sub-195,1,stroop_test,60.05681374493553,
,,,,36.0,0.0,3.0,,,,,,,,,,,,,blau,yellow,g,0.0,g,1.0,1.178331199917011,,,,,,,,,,3.0,0.0,36.0,7.0,281.29661359998863,,,,,,,,,,,,,,,,,281.2832479999633,281.64697220001835,282.4497170000104,282.4322272000136,,,,,,,,,,,,,,,,,,,,,,,,,,,,,,,,,,,282.43896499997936,282.4497170000104,282.4497170000104,283.63409820001107,g,1.0,1.178331199917011,,,,,,sub-195,1,stroop_test,60.05681374493553,
,,,,37.0,1.0,3.0,,,,,,,,,,,,,gelb,yellow,g,1.0,g,1.0,0.8167254999279976,,,,,,,,,,3.0,1.0,37.0,10.0,283.64807410002686,,,,,,,,,,,,,,,,,283.63481670001056,283.74828059994616,284.55100209999364,284.5335944999242,,,,,,,,,,,,,,,,,,,,,,,,,,,,,,,,,,,284.54085889994167,284.55100209999364,284.55100209999364,285.38508009992074,g,1.0,0.8167254999279976,,,,,,sub-195,1,stroop_test,60.05681374493553,
,,,,38.0,2.0,3.0,,,,,,,,,,,,,rot,red,r,1.0,r,1.0,0.8158487000036985,,,,,,,,,,3.0,2.0,38.0,0.0,285.3994050999172,,,,,,,,,,,,,,,,,285.3858508999692,286.5999004999176,287.4003821000224,287.3847115000244,,,,,,,,,,,,,,,,,,,,,,,,,,,,,,,,,,,287.39099739992525,287.4003821000224,287.4003821000224,288.21945520001464,r,1.0,0.8158487000036985,,,,,,sub-195,1,stroop_test,60.05681374493553,
,,,,39.0,3.0,3.0,,,,,,,,,,,,,blau,blue,b,1.0,b,1.0,0.9087655999464914,,,,,,,,,,3.0,3.0,39.0,6.0,288.2345961999381,,,,,,,,,,,,,,,,,288.2199108999921,289.0349976000143,289.83766129997093,289.81976019998547,,,,,,,,,,,,,,,,,,,,,,,,,,,,,,,,,,,289.828159699915,289.83766129997093,289.83766129997093,290.7551841000095,b,1.0,0.9087655999464914,,,,,,sub-195,1,stroop_test,60.05681374493553,
,,,,40.0,4.0,3.0,,,,,,,,,,,,,gelb,red,r,0.0,r,1.0,1.1445934999501333,,,,,,,,,,3.0,4.0,40.0,8.0,290.76940589991864,,,,,,,,,,,,,,,,,290.7560129999183,290.86945789994206,291.67194389994256,291.6546927000163,,,,,,,,,,,,,,,,,,,,,,,,,,,,,,,,,,,291.66243389993906,291.67194389994256,291.67194389994256,292.821967799915,r,1.0,1.1445934999501333,,,,,,sub-195,1,stroop_test,60.05681374493553,
,,,,41.0,5.0,3.0,,,,,,,,,,,,,rot,yellow,g,0.0,g,1.0,1.039256399963051,,,,,,,,,,3.0,5.0,41.0,3.0,292.83755019993987,,,,,,,,,,,,,,,,,292.8224279999268,294.0216020999942,294.84775289997924,294.8331154999323,,,,,,,,,,,,,,,,,,,,,,,,,,,,,,,,,,,294.8386191999307,294.84775289997924,294.84775289997924,295.89115759998094,g,1.0,1.039256399963051,,,,,,sub-195,1,stroop_test,60.05681374493553,
,,,,42.0,6.0,3.0,,,,,,,,,,,,,gelb,yellow,g,1.0,g,1.0,0.8489653000142425,,,,,,,,,,3.0,6.0,42.0,11.0,295.906312200008,,,,,,,,,,,,,,,,,295.8916530000279,296.0064593999414,296.80733129999135,296.7909014999168,,,,,,,,,,,,,,,,,,,,,,,,,,,,,,,,,,,296.7952788999537,296.80733129999135,296.80733129999135,297.6595189999789,g,1.0,0.8489653000142425,,,,,,sub-195,1,stroop_test,60.05681374493553,
,,,,43.0,7.0,3.0,,,,,,,,,,,,,blau,red,r,0.0,r,1.0,1.1524362999480218,,,,,,,,,,3.0,7.0,43.0,4.0,297.6742763000075,,,,,,,,,,,,,,,,,297.65996570000425,298.02445149992127,298.8251428999938,298.80935919994954,,,,,,,,,,,,,,,,,,,,,,,,,,,,,,,,,,,298.81416810001247,298.8251428999938,298.8251428999938,299.99457079998683,r,1.0,1.1524362999480218,,,,,,sub-195,1,stroop_test,60.05681374493553,
,,,,44.0,8.0,3.0,,,,,,,,,,,,,gelb,blue,b,0.0,b,1.0,1.124641599948518,,,,,,,,,,3.0,8.0,44.0,9.0,300.0094052000204,,,,,,,,,,,,,,,,,299.99532729992643,301.2104251999408,302.0121947999578,301.9953535000095,,,,,,,,,,,,,,,,,,,,,,,,,,,,,,,,,,,302.0017522999551,302.0121947999578,302.0121947999578,303.1474214999471,b,1.0,1.124641599948518,,,,,,sub-195,1,stroop_test,60.05681374493553,
,,,,45.0,9.0,3.0,,,,,,,,,,,,,blau,blue,b,1.0,b,1.0,0.8800831999396905,,,,,,,,,,3.0,9.0,45.0,5.0,303.1618641000241,,,,,,,,,,,,,,,,,303.1481668999186,303.5120249999454,304.31672230002005,304.29723909997847,,,,,,,,,,,,,,,,,,,,,,,,,,,,,,,,,,,304.3051102999598,304.31672230002005,304.31672230002005,305.1994614999276,b,1.0,0.8800831999396905,,,,,,sub-195,1,stroop_test,60.05681374493553,
,,,,46.0,10.0,3.0,,,,,,,,,,,,,rot,red,r,1.0,r,1.0,1.2394416999304667,,,,,,,,,,3.0,10.0,46.0,1.0,305.2129832999781,,,,,,,,,,,,,,,,,305.2005056999624,305.31304779998027,306.11835160001647,306.09832719992846,,,,,,,,,,,,,,,,,,,,,,,,,,,,,,,,,,,306.1064637999516,306.11835160001647,306.11835160001647,307.36741369997617,r,1.0,1.2394416999304667,,,,,,sub-195,1,stroop_test,60.05681374493553,
,,,,47.0,11.0,3.0,,,,,,,,,,,,,rot,blue,b,0.0,b,1.0,1.296071800054051,,,,,,,,,,3.0,11.0,47.0,2.0,307.3810663999757,,,,,,,,,,,,,,,,,307.3681175999809,307.4812327999389,308.2819818999851,308.26650609995704,,,,,,,,,,,,,,,,,,,,,,,,,,,,,,,,,,,308.2674696999602,308.2819818999851,308.2819818999851,309.58525849995203,b,1.0,1.296071800054051,,,,,,sub-195,1,stroop_test,60.05681374493553,
,,,,48.0,0.0,4.0,,,,,,,,,,,,,rot,red,r,1.0,r,1.0,1.1465804999461398,,,,,,,,,,4.0,0.0,48.0,0.0,309.5995190999238,,,,,,,,,,,,,,,,,309.5862752000103,310.40003060002346,311.20070399995893,311.18502929992974,,,,,,,,,,,,,,,,,,,,,,,,,,,,,,,,,,,311.1860531999264,311.20070399995893,311.20070399995893,312.3538850999903,r,1.0,1.1465804999461398,,,,,,sub-195,1,stroop_test,60.05681374493553,
,,,,49.0,1.0,4.0,,,,,,,,,,,,,rot,red,r,1.0,r,1.0,0.8774994000559673,,,,,,,,,,4.0,1.0,49.0,1.0,312.3681581999408,,,,,,,,,,,,,,,,,312.35469840001315,312.4681262000231,313.268871499924,313.2536390000023,,,,,,,,,,,,,,,,,,,,,,,,,,,,,,,,,,,313.25472470000386,313.268871499924,313.268871499924,314.1546957999235,r,1.0,0.8774994000559673,,,,,,sub-195,1,stroop_test,60.05681374493553,
,,,,50.0,2.0,4.0,,,,,,,,,,,,,blau,blue,b,1.0,b,1.0,1.083698799950071,,,,,,,,,,4.0,2.0,50.0,5.0,314.1692998999497,,,,,,,,,,,,,,,,,314.1553979999153,314.2694313999964,315.07262280001305,315.0545798999956,,,,,,,,,,,,,,,,,,,,,,,,,,,,,,,,,,,315.0618797999341,315.07262280001305,315.07262280001305,316.1731256999774,b,1.0,1.083698799950071,,,,,,sub-195,1,stroop_test,60.05681374493553,
,,,,51.0,3.0,4.0,,,,,,,,,,,,,blau,blue,b,1.0,b,1.0,0.7985340999439359,,,,,,,,,,4.0,3.0,51.0,6.0,316.1871861999389,,,,,,,,,,,,,,,,,316.17389289999846,316.987586400006,317.78827429993544,317.77304180001374,,,,,,,,,,,,,,,,,,,,,,,,,,,,,,,,,,,317.7740622999845,317.78827429993544,317.78827429993544,318.59154860000126,b,1.0,0.7985340999439359,,,,,,sub-195,1,stroop_test,60.05681374493553,
,,,,52.0,4.0,4.0,,,,,,,,,,,,,gelb,red,r,0.0,r,1.0,0.8178189999889582,,,,,,,,,,4.0,4.0,52.0,8.0,318.60574849997647,,,,,,,,,,,,,,,,,318.5922856000252,319.4062088999199,320.20847720000893,320.1912006000057,,,,,,,,,,,,,,,,,,,,,,,,,,,,,,,,,,,320.1979079999728,320.20847720000893,320.20847720000893,321.04268690000754,r,1.0,0.8178189999889582,,,,,,sub-195,1,stroop_test,60.05681374493553,
,,,,53.0,5.0,4.0,,,,,,,,,,,,,gelb,blue,b,0.0,b,1.0,0.9405216999584808,,,,,,,,,,4.0,5.0,53.0,9.0,321.05728710000403,,,,,,,,,,,,,,,,,321.04336319991853,321.1575862999307,321.95795690000523,321.9425315000117,,,,,,,,,,,,,,,,,,,,,,,,,,,,,,,,,,,321.9435282999184,321.95795690000523,321.95795690000523,322.9108896999387,b,1.0,0.9405216999584808,,,,,,sub-195,1,stroop_test,60.05681374493553,
,,,,54.0,6.0,4.0,,,,,,,,,,,,,blau,yellow,g,0.0,g,1.0,0.7342570999171585,,,,,,,,,,4.0,6.0,54.0,7.0,322.9253490000265,,,,,,,,,,,,,,,,,322.911550299963,323.7260871999897,324.5331946000224,324.5110838999972,,,,,,,,,,,,,,,,,,,,,,,,,,,,,,,,,,,324.52182679995894,324.5331946000224,324.5331946000224,325.2789879000047,g,1.0,0.7342570999171585,,,,,,sub-195,1,stroop_test,60.05681374493553,
,,,,55.0,7.0,4.0,,,,,,,,,,,,,rot,yellow,g,0.0,g,1.0,0.8429978999774903,,,,,,,,,,4.0,7.0,55.0,3.0,325.2934547999175,,,,,,,,,,,,,,,,,325.2796516999369,326.49428410001565,327.2946845999686,327.2791989999823,,,,,,,,,,,,,,,,,,,,,,,,,,,,,,,,,,,327.28488319995813,327.2946845999686,327.2946845999686,328.1477548999246,g,1.0,0.8429978999774903,,,,,,sub-195,1,stroop_test,60.05681374493553,
,,,,56.0,8.0,4.0,,,,,,,,,,,,,rot,blue,b,0.0,b,1.0,1.0458361000055447,,,,,,,,,,4.0,8.0,56.0,2.0,328.16213609999977,,,,,,,,,,,,,,,,,328.14859719993547,328.5125331999734,329.31322429992724,329.29740109993145,,,,,,,,,,,,,,,,,,,,,,,,,,,,,,,,,,,329.2984501000028,329.31322429992724,329.31322429992724,330.3663653000258,b,1.0,1.0458361000055447,,,,,,sub-195,1,stroop_test,60.05681374493553,
,,,,57.0,9.0,4.0,,,,,,,,,,,,,gelb,yellow,g,1.0,g,1.0,0.8021669000154361,,,,,,,,,,4.0,9.0,57.0,11.0,330.3804559999844,,,,,,,,,,,,,,,,,330.36710739997216,330.48050069995224,331.2851287999656,331.2659141999902,,,,,,,,,,,,,,,,,,,,,,,,,,,,,,,,,,,331.27339539991226,331.2851287999656,331.2851287999656,332.1004504999146,g,1.0,0.8021669000154361,,,,,,sub-195,1,stroop_test,60.05681374493553,
,,,,58.0,10.0,4.0,,,,,,,,,,,,,blau,red,r,0.0,r,1.0,0.8212269999785349,,,,,,,,,,4.0,10.0,58.0,4.0,332.11483909992967,,,,,,,,,,,,,,,,,332.1011934999842,332.91551329998765,333.71741769998334,333.7004127999535,,,,,,,,,,,,,,,,,,,,,,,,,,,,,,,,,,,333.706826300011,333.71741769998334,333.71741769998334,334.5521438999567,r,1.0,0.8212269999785349,,,,,,sub-195,1,stroop_test,60.05681374493553,
,,,,59.0,11.0,4.0,,,,,,,,,,,,,gelb,yellow,g,1.0,g,1.0,0.7564899000572041,,,,,,,,,,4.0,11.0,59.0,10.0,334.56666150002275,,,,,,,,,,,,,,,,,334.552887699916,335.7675144999521,336.57092039997224,336.55242510000244,,,,,,,,,,,,,,,,,,,,,,,,,,,,,,,,,,,336.56009139993694,336.57092039997224,336.57092039997224,337.3377254999941,g,1.0,0.7564899000572041,,,,,,sub-195,1,stroop_test,60.05681374493553,
,,,,60.0,0.0,5.0,,,,,,,,,,,,,gelb,blue,b,0.0,b,1.0,0.7648622998967767,,,,,,,,,,5.0,0.0,60.0,9.0,337.3517259999644,,,,,,,,,,,,,,,,,337.3384485999122,337.7019728999585,338.50265569996554,338.48748789995443,,,,,,,,,,,,,,,,,,,,,,,,,,,,,,,,,,,338.48845599999186,338.50265569996554,338.50265569996554,339.2723540000152,b,1.0,0.7648622998967767,,,,,,sub-195,1,stroop_test,60.05681374493553,
,,,,61.0,1.0,5.0,,,,,,,,,,,,,rot,yellow,g,0.0,r,0.0,1.107694900012575,,,,,,,,,,5.0,1.0,61.0,3.0,339.28663679992314,,,,,,,,,,,,,,,,,339.2730684999842,339.63695949991234,340.4410152999917,340.4217021999648,,,,,,,,,,,,,,,,,,,,,,,,,,,,,,,,,,,340.4297694999259,340.4410152999917,340.4410152999917,341.5567895999411,r,0.0,1.107694900012575,,,,,,sub-195,1,stroop_test,60.05681374493553,
,,,,62.0,2.0,5.0,,,,,,,,,,,,,blau,blue,b,1.0,b,1.0,2.493557000067085,,,,,,,,,,5.0,2.0,62.0,6.0,341.5713991000084,,,,,,,,,,,,,,,,,341.5574895999161,341.6716508999234,342.4745808999287,342.4565995999146,,,,,,,,,,,,,,,,,,,,,,,,,,,,,,,,,,,342.4635524000041,342.4745808999287,342.4745808999287,344.97625269996934,b,1.0,2.493557000067085,,,,,,sub-195,1,stroop_test,60.05681374493553,
,,,,63.0,3.0,5.0,,,,,,,,,,,,,blau,yellow,g,0.0,g,1.0,2.015984900062904,,,,,,,,,,5.0,3.0,63.0,7.0,344.9903796999715,,,,,,,,,,,,,,,,,344.97697169997264,345.7911750000203,346.591611300013,346.5762422999833,,,,,,,,,,,,,,,,,,,,,,,,,,,,,,,,,,,346.577252499992,346.591611300013,346.591611300013,348.6120671000099,g,1.0,2.015984900062904,,,,,,sub-195,1,stroop_test,60.05681374493553,
,,,,64.0,4.0,5.0,,,,,,,,,,,,,gelb,red,r,0.0,r,1.0,1.2485583999659866,,,,,,,,,,5.0,4.0,64.0,8.0,348.6261882999679,,,,,,,,,,,,,,,,,348.61284800001886,348.9767052999232,349.7794849999482,349.7614941999782,,,,,,,,,,,,,,,,,,,,,,,,,,,,,,,,,,,349.76898049993906,349.7794849999482,349.7794849999482,351.03092930000275,r,1.0,1.2485583999659866,,,,,,sub-195,1,stroop_test,60.05681374493553,
,,,,65.0,5.0,5.0,,,,,,,,,,,,,rot,blue,b,0.0,b,1.0,1.8688650000840423,,,,,,,,,,5.0,5.0,65.0,2.0,351.04455739993136,,,,,,,,,,,,,,,,,351.03166620002594,351.3948001000099,352.1989742999431,352.18017169996165,,,,,,,,,,,,,,,,,,,,,,,,,,,,,,,,,,,352.1879475999158,352.1989742999431,352.1989742999431,354.0824566999217,b,1.0,1.8688650000840423,,,,,,sub-195,1,stroop_test,60.05681374493553,
,,,,66.0,6.0,5.0,,,,,,,,,,,,,gelb,yellow,g,1.0,g,1.0,1.2002471000887454,,,,,,,,,,5.0,6.0,66.0,11.0,354.09682739991695,,,,,,,,,,,,,,,,,354.0832552999491,354.19676949991845,354.99717639992014,354.98129649995826,,,,,,,,,,,,,,,,,,,,,,,,,,,,,,,,,,,354.987027999945,354.99717639992014,354.99717639992014,356.200940300012,g,1.0,1.2002471000887454,,,,,,sub-195,1,stroop_test,60.05681374493553,
,,,,67.0,7.0,5.0,,,,,,,,,,,,,gelb,yellow,g,1.0,g,1.0,1.3630129999946805,,,,,,,,,,5.0,7.0,67.0,10.0,356.21460770000704,,,,,,,,,,,,,,,,,356.20165559998713,357.0153381000273,357.81580149999354,357.80062589992303,,,,,,,,,,,,,,,,,,,,,,,,,,,,,,,,,,,357.80170940002427,357.81580149999354,357.81580149999354,359.1860346000176,g,1.0,1.3630129999946805,,,,,,sub-195,1,stroop_test,60.05681374493553,
,,,,68.0,8.0,5.0,,,,,,,,,,,,,blau,red,r,0.0,r,1.0,1.442461199942045,,,,,,,,,,5.0,8.0,68.0,4.0,359.20022889995016,,,,,,,,,,,,,,,,,359.1868002000265,360.4011754000094,361.20590409997385,361.1860772999935,,,,,,,,,,,,,,,,,,,,,,,,,,,,,,,,,,,361.1948105000192,361.20590409997385,361.20590409997385,362.65503949997947,r,1.0,1.442461199942045,,,,,,sub-195,1,stroop_test,60.05681374493553,
,,,,69.0,9.0,5.0,,,,,,,,,,,,,blau,blue,b,1.0,b,1.0,0.848064300022088,,,,,,,,,,5.0,9.0,69.0,5.0,362.6690438999794,,,,,,,,,,,,,,,,,362.6557522999356,363.4696516999975,364.2701977000106,364.2551211999962,,,,,,,,,,,,,,,,,,,,,,,,,,,,,,,,,,,364.2560715000145,364.2701977000106,364.2701977000106,365.123189899954,b,1.0,0.848064300022088,,,,,,sub-195,1,stroop_test,60.05681374493553,
,,,,70.0,10.0,5.0,,,,,,,,,,,,,rot,red,r,1.0,r,1.0,1.2885459000244737,,,,,,,,,,5.0,10.0,70.0,1.0,365.1375593999401,,,,,,,,,,,,,,,,,365.1239119999809,365.2376966999145,366.0418181999121,366.0225310999667,,,,,,,,,,,,,,,,,,,,,,,,,,,,,,,,,,,366.0301281999564,366.0418181999121,366.0418181999121,367.3411523000104,r,1.0,1.2885459000244737,,,,,,sub-195,1,stroop_test,60.05681374493553,
,,,,71.0,11.0,5.0,,,,,,,,,,,,,rot,red,r,1.0,r,1.0,0.8412853000918403,,,,,,,,,,5.0,11.0,71.0,0.0,367.3557420999277,,,,,,,,,,,,,,,,,367.3418027999578,368.5567459999584,369.3572213000152,369.3418703000061,,,,,,,,,,,,,,,,,,,,,,,,,,,,,,,,,,,369.3427841999801,369.3572213000152,369.3572213000152,370.2100929999724,r,1.0,0.8412853000918403,,,,,,sub-195,1,stroop_test,60.05681374493553,
,,,,72.0,0.0,6.0,,,,,,,,,,,,,blau,red,r,0.0,r,1.0,0.9694582000374794,,,,,,,,,,6.0,0.0,72.0,4.0,370.2242818999802,,,,,,,,,,,,,,,,,370.21079009992536,371.4251416999614,372.23031799995806,372.210445899982,,,,,,,,,,,,,,,,,,,,,,,,,,,,,,,,,,,372.21928979991935,372.23031799995806,372.23031799995806,373.2122926999582,r,1.0,0.9694582000374794,,,,,,sub-195,1,stroop_test,60.05681374493553,
,,,,73.0,1.0,6.0,,,,,,,,,,,,,rot,red,r,1.0,r,1.0,0.7067301000934094,,,,,,,,,,6.0,1.0,73.0,1.0,373.22619369998574,,,,,,,,,,,,,,,,,373.2132213999285,374.0269214999862,374.8317680999171,374.8121791000012,,,,,,,,,,,,,,,,,,,,,,,,,,,,,,,,,,,374.8195932999952,374.8317680999171,374.8317680999171,375.547320600017,r,1.0,0.7067301000934094,,,,,,sub-195,1,stroop_test,60.05681374493553,
,,,,74.0,2.0,6.0,,,,,,,,,,,,,gelb,yellow,g,1.0,g,1.0,0.9501407000934704,,,,,,,,,,6.0,2.0,74.0,10.0,375.5614140999969,,,,,,,,,,,,,,,,,375.5480709000258,375.911802800023,376.7185856999131,376.6968340999447,,,,,,,,,,,,,,,,,,,,,,,,,,,,,,,,,,,376.7078070999123,376.7185856999131,376.7185856999131,377.68179469998,g,1.0,0.9501407000934704,,,,,,sub-195,1,stroop_test,60.05681374493553,
,,,,75.0,3.0,6.0,,,,,,,,,,,,,rot,yellow,g,0.0,g,1.0,0.7576835999498144,,,,,,,,,,6.0,3.0,75.0,3.0,377.6962104999693,,,,,,,,,,,,,,,,,377.6825830999296,378.0465135999257,378.85079599998426,378.83144119998906,,,,,,,,,,,,,,,,,,,,,,,,,,,,,,,,,,,378.8400806999998,378.85079599998426,378.85079599998426,379.6166872999165,g,1.0,0.7576835999498144,,,,,,sub-195,1,stroop_test,60.05681374493553,
,,,,76.0,4.0,6.0,,,,,,,,,,,,,blau,yellow,g,0.0,g,1.0,0.6947644000174478,,,,,,,,,,6.0,4.0,76.0,7.0,379.63062039995566,,,,,,,,,,,,,,,,,379.6173758999212,380.8315957000013,381.6336137999315,381.61681889998727,,,,,,,,,,,,,,,,,,,,,,,,,,,,,,,,,,,381.6233824000228,381.6336137999315,381.6336137999315,382.33537589991465,g,1.0,0.6947644000174478,,,,,,sub-195,1,stroop_test,60.05681374493553,
,,,,77.0,5.0,6.0,,,,,,,,,,,,,blau,blue,b,1.0,b,1.0,0.6982862999429926,,,,,,,,,,6.0,5.0,77.0,6.0,382.3493573999731,,,,,,,,,,,,,,,,,382.3361257999204,383.1500902000116,383.95064259995706,383.9352078000084,,,,,,,,,,,,,,,,,,,,,,,,,,,,,,,,,,,383.936214699992,383.95064259995706,383.95064259995706,384.65364289993886,b,1.0,0.6982862999429926,,,,,,sub-195,1,stroop_test,60.05681374493553,
,,,,78.0,6.0,6.0,,,,,,,,,,,,,blau,blue,b,1.0,b,1.0,0.5508479999843985,,,,,,,,,,6.0,6.0,78.0,5.0,384.667672200012,,,,,,,,,,,,,,,,,384.65439189993776,384.7679276999552,385.5684136999771,385.5529500999255,,,,,,,,,,,,,,,,,,,,,,,,,,,,,,,,,,,385.5540338999126,385.5684136999771,385.5684136999771,386.1214806999778,b,1.0,0.5508479999843985,,,,,,sub-195,1,stroop_test,60.05681374493553,
,,,,79.0,7.0,6.0,,,,,,,,,,,,,gelb,yellow,g,1.0,g,1.0,1.0800935999723151,,,,,,,,,,6.0,7.0,79.0,11.0,386.13510289997794,,,,,,,,,,,,,,,,,386.1222084999317,386.4854281999869,387.2889817999676,387.270873399917,,,,,,,,,,,,,,,,,,,,,,,,,,,,,,,,,,,387.2782552000135,387.2889817999676,387.2889817999676,388.3709728999529,g,1.0,1.0800935999723151,,,,,,sub-195,1,stroop_test,60.05681374493553,
,,,,80.0,8.0,6.0,,,,,,,,,,,,,gelb,blue,b,0.0,b,1.0,1.3974250999744982,,,,,,,,,,6.0,8.0,80.0,9.0,388.386240700027,,,,,,,,,,,,,,,,,388.3713405999588,389.5710982999299,390.3717315000249,390.3558437000029,,,,,,,,,,,,,,,,,,,,,,,,,,,,,,,,,,,390.3567844999488,390.3717315000249,390.3717315000249,391.77503759996034,b,1.0,1.3974250999744982,,,,,,sub-195,1,stroop_test,60.05681374493553,
,,,,81.0,9.0,6.0,,,,,,,,,,,,,rot,blue,b,0.0,b,1.0,0.7834869000362232,,,,,,,,,,6.0,9.0,81.0,2.0,391.7891340999631,,,,,,,,,,,,,,,,,391.7758073000005,392.13936639996246,392.9448624999495,392.9246618999168,,,,,,,,,,,,,,,,,,,,,,,,,,,,,,,,,,,392.93296359991655,392.9448624999495,392.9448624999495,393.7427957999753,b,1.0,0.7834869000362232,,,,,,sub-195,1,stroop_test,60.05681374493553,
,,,,82.0,10.0,6.0,,,,,,,,,,,,,rot,red,r,1.0,r,1.0,0.9398197999689728,,,,,,,,,,6.0,10.0,82.0,0.0,393.75721599999815,,,,,,,,,,,,,,,,,393.7435078999261,394.9580657000188,395.75857669999823,395.7429165999638,,,,,,,,,,,,,,,,,,,,,,,,,,,,,,,,,,,395.7439459000016,395.75857669999823,395.75857669999823,396.7116373999743,r,1.0,0.9398197999689728,,,,,,sub-195,1,stroop_test,60.05681374493553,
,,,,83.0,11.0,6.0,,,,,,,,,,,,,gelb,red,r,0.0,r,1.0,0.4905527000082657,,,,,,,,,,6.0,11.0,83.0,8.0,396.7260010999162,,,,,,,,,,,,,,,,,396.7123229999561,397.5266535999253,398.32931679999456,398.3116403999738,,,,,,,,,,,,,,,,,,,,,,,,,,,,,,,,,,,398.3186978999293,398.32931679999456,398.32931679999456,398.8299323000247,r,1.0,0.4905527000082657,,,,,,sub-195,1,stroop_test,60.05681374493553,
,,,,84.0,0.0,7.0,,,,,,,,,,,,,rot,blue,b,0.0,b,1.0,1.3798652000259608,,,,,,,,,,7.0,0.0,84.0,2.0,398.8438557999907,,,,,,,,,,,,,,,,,398.8306560999481,400.044781900011,400.84969279996585,400.8299271999858,,,,,,,,,,,,,,,,,,,,,,,,,,,,,,,,,,,400.8380963000236,400.84969279996585,400.84969279996585,402.2324321999913,b,1.0,1.3798652000259608,,,,,,sub-195,1,stroop_test,60.05681374493553,
,,,,85.0,1.0,7.0,,,,,,,,,,,,,blau,yellow,g,0.0,g,1.0,1.5612601999891922,,,,,,,,,,7.0,1.0,85.0,7.0,402.24627160001546,,,,,,,,,,,,,,,,,402.23315009998623,402.34649099991657,403.1487258999841,403.13174739992246,,,,,,,,,,,,,,,,,,,,,,,,,,,,,,,,,,,403.1384818999795,403.1487258999841,403.1487258999841,404.7172246000264,g,1.0,1.5612601999891922,,,,,,sub-195,1,stroop_test,60.05681374493553,
,,,,86.0,2.0,7.0,,,,,,,,,,,,,gelb,yellow,g,1.0,g,1.0,0.794562799972482,,,,,,,,,,7.0,2.0,86.0,10.0,404.731473300024,,,,,,,,,,,,,,,,,404.7179981999798,405.5319887999213,406.335081600002,406.3172096000053,,,,,,,,,,,,,,,,,,,,,,,,,,,,,,,,,,,406.3242218999658,406.335081600002,406.335081600002,407.13550929992925,g,1.0,0.794562799972482,,,,,,sub-195,1,stroop_test,60.05681374493553,
,,,,87.0,3.0,7.0,,,,,,,,,,,,,blau,blue,b,1.0,b,1.0,0.8855333999963477,,,,,,,,,,7.0,3.0,87.0,5.0,407.1496484000236,,,,,,,,,,,,,,,,,407.13621999998577,407.4998918999918,408.3039022999583,408.2851974000223,,,,,,,,,,,,,,,,,,,,,,,,,,,,,,,,,,,408.2927148999879,408.3039022999583,408.3039022999583,409.2035897999304,b,1.0,0.8855333999963477,,,,,,sub-195,1,stroop_test,60.05681374493553,
,,,,88.0,4.0,7.0,,,,,,,,,,,,,gelb,red,r,0.0,r,1.0,1.0496270000003278,,,,,,,,,,7.0,4.0,88.0,8.0,409.2177396999905,,,,,,,,,,,,,,,,,409.2043649000116,409.5681434000144,410.3999083000235,410.35315610002726,,,,,,,,,,,,,,,,,,,,,,,,,,,,,,,,,,,410.3597164999228,410.3999083000235,410.3999083000235,411.4551799999317,r,1.0,1.0496270000003278,,,,,,sub-195,1,stroop_test,60.05681374493553,
,,,,89.0,5.0,7.0,,,,,,,,,,,,,rot,yellow,g,0.0,g,1.0,1.001082599977963,,,,,,,,,,7.0,5.0,89.0,3.0,411.4692764999345,,,,,,,,,,,,,,,,,411.455913099926,411.5693044000072,412.40830160002224,412.3547431000042,,,,,,,,,,,,,,,,,,,,,,,,,,,,,,,,,,,412.3630906000035,412.40830160002224,412.40830160002224,413.423172299983,g,1.0,1.001082599977963,,,,,,sub-195,1,stroop_test,60.05681374493553,
,,,,90.0,6.0,7.0,,,,,,,,,,,,,gelb,yellow,g,1.0,g,1.0,0.7124455999583006,,,,,,,,,,7.0,6.0,90.0,11.0,413.4372225999832,,,,,,,,,,,,,,,,,413.4239470999455,413.7876275000162,414.5882081999444,414.5725659999298,,,,,,,,,,,,,,,,,,,,,,,,,,,,,,,,,,,414.578422499937,414.5882081999444,414.5882081999444,415.308036500006,g,1.0,0.7124455999583006,,,,,,sub-195,1,stroop_test,60.05681374493553,
,,,,91.0,7.0,7.0,,,,,,,,,,,,,rot,red,r,1.0,r,1.0,1.0807485999539497,,,,,,,,,,7.0,7.0,91.0,0.0,415.32199069997296,,,,,,,,,,,,,,,,,415.3087686999934,415.4222747000167,416.2285437999526,416.2072911999421,,,,,,,,,,,,,,,,,,,,,,,,,,,,,,,,,,,416.2157680999953,416.2285437999526,416.2285437999526,417.3257944999496,r,1.0,1.0807485999539497,,,,,,sub-195,1,stroop_test,60.05681374493553,
,,,,92.0,8.0,7.0,,,,,,,,,,,,,gelb,blue,b,0.0,b,1.0,0.8647544999839738,,,,,,,,,,7.0,8.0,92.0,9.0,417.3399663999444,,,,,,,,,,,,,,,,,417.32646459992975,418.1406279000221,418.9744762999471,418.9258513000095,,,,,,,,,,,,,,,,,,,,,,,,,,,,,,,,,,,418.9626303999685,418.9744762999471,418.9744762999471,419.8444261000259,b,1.0,0.8647544999839738,,,,,,sub-195,1,stroop_test,60.05681374493553,
,,,,93.0,9.0,7.0,,,,,,,,,,,,,blau,blue,b,1.0,b,1.0,0.8081193999387324,,,,,,,,,,7.0,9.0,93.0,6.0,419.8583700999152,,,,,,,,,,,,,,,,,419.8451555999927,419.9584444999928,420.7610683999956,420.7437156999949,,,,,,,,,,,,,,,,,,,,,,,,,,,,,,,,,,,420.7504152000183,420.7610683999956,420.7610683999956,421.578743299935,b,1.0,0.8081193999387324,,,,,,sub-195,1,stroop_test,60.05681374493553,
,,,,94.0,10.0,7.0,,,,,,,,,,,,,blau,red,r,0.0,r,1.0,1.3176554999081418,,,,,,,,,,7.0,10.0,94.0,4.0,421.593119099969,,,,,,,,,,,,,,,,,421.5794783999445,421.6931198999519,422.49359460000414,422.4782264999813,,,,,,,,,,,,,,,,,,,,,,,,,,,,,,,,,,,422.4792382000014,422.49359460000414,422.49359460000414,423.8137479999568,r,1.0,1.3176554999081418,,,,,,sub-195,1,stroop_test,60.05681374493553,
,,,,95.0,11.0,7.0,,,,,,,,,,,,,rot,red,r,1.0,r,1.0,0.9360760999843478,,,,,,,,,,7.0,11.0,95.0,1.0,423.8279313999228,,,,,,,,,,,,,,,,,423.8145021999953,424.1781303000171,424.9833141999552,424.9630003999919,,,,,,,,,,,,,,,,,,,,,,,,,,,,,,,,,,,424.9722475999733,424.9833141999552,424.9833141999552,425.93185439996887,r,1.0,0.9360760999843478,,,,,,sub-195,1,stroop_test,60.05681374493553,
,,,,96.0,0.0,8.0,,,,,,,,,,,,,blau,yellow,g,0.0,g,1.0,1.030991300009191,,,,,,,,,,8.0,0.0,96.0,7.0,425.9460140999872,,,,,,,,,,,,,,,,,425.9325905999867,426.0460914999712,426.8486812999472,426.8311811999884,,,,,,,,,,,,,,,,,,,,,,,,,,,,,,,,,,,426.8382760999957,426.8486812999472,426.8486812999472,427.8832785999402,g,1.0,1.030991300009191,,,,,,sub-195,1,stroop_test,60.05681374493553,
,,,,97.0,1.0,8.0,,,,,,,,,,,,,rot,yellow,g,0.0,g,1.0,0.8475778000429273,,,,,,,,,,8.0,1.0,97.0,3.0,427.89728889998514,,,,,,,,,,,,,,,,,427.8840101999231,429.0982883999823,429.9024374999572,429.88332179992,,,,,,,,,,,,,,,,,,,,,,,,,,,,,,,,,,,429.8907029000111,429.9024374999572,429.9024374999572,430.75213169993367,g,1.0,0.8475778000429273,,,,,,sub-195,1,stroop_test,60.05681374493553,
,,,,98.0,2.0,8.0,,,,,,,,,,,,,blau,red,r,0.0,r,1.0,1.7413556999526918,,,,,,,,,,8.0,2.0,98.0,4.0,430.765731499996,,,,,,,,,,,,,,,,,430.752797299996,431.5663498999784,432.3691943999147,432.35172539995983,,,,,,,,,,,,,,,,,,,,,,,,,,,,,,,,,,,432.3582389999647,432.3691943999147,432.3691943999147,434.120930199977,r,1.0,1.7413556999526918,,,,,,sub-195,1,stroop_test,60.05681374493553,
,,,,99.0,3.0,8.0,,,,,,,,,,,,,gelb,yellow,g,1.0,g,1.0,1.151551700080745,,,,,,,,,,8.0,3.0,99.0,10.0,434.13488139992114,,,,,,,,,,,,,,,,,434.1216796999797,434.2351351999678,435.0378290999215,435.01998669991735,,,,,,,,,,,,,,,,,,,,,,,,,,,,,,,,,,,435.0268697999418,435.0378290999215,435.0378290999215,436.20548210002016,g,1.0,1.151551700080745,,,,,,sub-195,1,stroop_test,60.05681374493553,
,,,,100.0,4.0,8.0,,,,,,,,,,,,,blau,blue,b,1.0,b,1.0,0.8873635000782087,,,,,,,,,,8.0,4.0,100.0,6.0,436.2194634999614,,,,,,,,,,,,,,,,,436.2061713999137,436.3196777999401,437.1531886999728,437.10484609997366,,,,,,,,,,,,,,,,,,,,,,,,,,,,,,,,,,,437.14161679998506,437.1531886999728,437.1531886999728,438.0565434999298,b,1.0,0.8873635000782087,,,,,,sub-195,1,stroop_test,60.05681374493553,
,,,,101.0,5.0,8.0,,,,,,,,,,,,,gelb,red,r,0.0,r,1.0,1.6230135000078008,,,,,,,,,,8.0,5.0,101.0,8.0,438.07092989992816,,,,,,,,,,,,,,,,,438.057309399941,438.4214065999258,439.22678559995256,439.2063298999565,,,,,,,,,,,,,,,,,,,,,,,,,,,,,,,,,,,439.215242199949,439.22678559995256,439.22678559995256,440.8591042999178,r,1.0,1.6230135000078008,,,,,,sub-195,1,stroop_test,60.05681374493553,
,,,,102.0,6.0,8.0,,,,,,,,,,,,,blau,blue,b,1.0,b,1.0,0.8430178000126034,,,,,,,,,,8.0,6.0,102.0,5.0,440.8729412999237,,,,,,,,,,,,,,,,,440.8598468999844,441.2232791000279,442.0263700999785,442.0083694999339,,,,,,,,,,,,,,,,,,,,,,,,,,,,,,,,,,,442.0154529999709,442.0263700999785,442.0263700999785,442.8768918999704,b,1.0,0.8430178000126034,,,,,,sub-195,1,stroop_test,60.05681374493553,
,,,,103.0,7.0,8.0,,,,,,,,,,,,,gelb,yellow,g,1.0,g,1.0,0.6857277000090107,,,,,,,,,,8.0,7.0,103.0,11.0,442.8909242999507,,,,,,,,,,,,,,,,,442.8776141999988,443.2410605999176,444.044389699935,444.0264224000275,,,,,,,,,,,,,,,,,,,,,,,,,,,,,,,,,,,444.0335017999169,444.044389699935,444.044389699935,444.7442279999377,g,1.0,0.6857277000090107,,,,,,sub-195,1,stroop_test,60.05681374493553,
,,,,104.0,8.0,8.0,,,,,,,,,,,,,rot,red,r,1.0,r,1.0,0.6161029000068083,,,,,,,,,,8.0,8.0,104.0,1.0,444.7590016999748,,,,,,,,,,,,,,,,,444.7449143999256,445.95994460000657,446.763973299996,446.7447375999764,,,,,,,,,,,,,,,,,,,,,,,,,,,,,,,,,,,446.7523674999829,446.763973299996,446.763973299996,447.39633130002767,r,1.0,0.6161029000068083,,,,,,sub-195,1,stroop_test,60.05681374493553,
,,,,105.0,9.0,8.0,,,,,,,,,,,,,rot,blue,b,0.0,b,1.0,1.3191535000223666,,,,,,,,,,8.0,9.0,105.0,2.0,447.4106063999934,,,,,,,,,,,,,,,,,447.3970098999562,447.7611693999497,448.56152370001655,448.5459498999408,,,,,,,,,,,,,,,,,,,,,,,,,,,,,,,,,,,448.54694569995627,448.56152370001655,448.56152370001655,449.8979218999157,b,1.0,1.3191535000223666,,,,,,sub-195,1,stroop_test,60.05681374493553,
,,,,106.0,10.0,8.0,,,,,,,,,,,,,rot,red,r,1.0,r,1.0,1.1874457999365404,,,,,,,,,,8.0,10.0,106.0,0.0,449.9125020999927,,,,,,,,,,,,,,,,,449.8986730999313,450.0125128999353,450.8131168999244,450.7974729000125,,,,,,,,,,,,,,,,,,,,,,,,,,,,,,,,,,,450.7984462999739,450.8131168999244,450.8131168999244,452.01627579994965,r,1.0,1.1874457999365404,,,,,,sub-195,1,stroop_test,60.05681374493553,
,,,,107.0,11.0,8.0,,,,,,,,,,,,,gelb,blue,b,0.0,b,1.0,1.3477809999603778,,,,,,,,,,8.0,11.0,107.0,9.0,452.0306727999123,,,,,,,,,,,,,,,,,452.017014299985,452.8311544000171,453.63424289994873,453.6163626000052,,,,,,,,,,,,,,,,,,,,,,,,,,,,,,,,,,,453.6236826999812,453.63424289994873,453.63424289994873,454.985190999927,b,1.0,1.3477809999603778,,,,,,sub-195,1,stroop_test,60.05681374493553,
,,,,108.0,0.0,9.0,,,,,,,,,,,,,rot,red,r,1.0,r,1.0,1.3062679999275133,,,,,,,,,,9.0,0.0,108.0,0.0,454.9990676000016,,,,,,,,,,,,,,,,,454.9859698999208,455.0992131999228,455.9055073999334,455.8844850999303,,,,,,,,,,,,,,,,,,,,,,,,,,,,,,,,,,,455.8934373999946,455.9055073999334,455.9055073999334,457.2198468999704,r,1.0,1.3062679999275133,,,,,,sub-195,1,stroop_test,60.05681374493553,
,,,,109.0,1.0,9.0,,,,,,,,,,,,,rot,blue,b,0.0,b,1.0,1.5551359000382945,,,,,,,,,,9.0,1.0,109.0,2.0,457.23401549994014,,,,,,,,,,,,,,,,,457.2207954999758,457.3343351000221,458.1348853999516,458.119413599954,,,,,,,,,,,,,,,,,,,,,,,,,,,,,,,,,,,458.1204690999584,458.1348853999516,458.1348853999516,459.7046988999937,b,1.0,1.5551359000382945,,,,,,sub-195,1,stroop_test,60.05681374493553,
,,,,110.0,2.0,9.0,,,,,,,,,,,,,blau,yellow,g,0.0,g,1.0,1.618640000000596,,,,,,,,,,9.0,2.0,110.0,7.0,459.71913039998617,,,,,,,,,,,,,,,,,459.7053786999313,460.51973009994254,461.32285899994895,461.3047389999265,,,,,,,,,,,,,,,,,,,,,,,,,,,,,,,,,,,461.3118211999536,461.32285899994895,461.32285899994895,462.9572164999554,g,1.0,1.618640000000596,,,,,,sub-195,1,stroop_test,60.05681374493553,
,,,,111.0,3.0,9.0,,,,,,,,,,,,,gelb,yellow,g,1.0,g,1.0,1.0048336999025196,,,,,,,,,,9.0,3.0,111.0,10.0,462.9714478999376,,,,,,,,,,,,,,,,,462.9579489999451,463.3218214999652,464.12525749998167,464.10666960000526,,,,,,,,,,,,,,,,,,,,,,,,,,,,,,,,,,,464.114561000024,464.12525749998167,464.12525749998167,465.14230479998514,g,1.0,1.0048336999025196,,,,,,sub-195,1,stroop_test,60.05681374493553,
,,,,112.0,4.0,9.0,,,,,,,,,,,,,blau,blue,b,1.0,b,1.0,1.0609769999282437,,,,,,,,,,9.0,4.0,112.0,6.0,465.1559112999821,,,,,,,,,,,,,,,,,465.14319219999015,465.2560297999298,466.0592573999893,466.0415414000163,,,,,,,,,,,,,,,,,,,,,,,,,,,,,,,,,,,466.0484048000071,466.0592573999893,466.0592573999893,467.1266405999195,b,1.0,1.0609769999282437,,,,,,sub-195,1,stroop_test,60.05681374493553,
,,,,113.0,5.0,9.0,,,,,,,,,,,,,gelb,blue,b,0.0,b,1.0,0.8151804999215528,,,,,,,,,,9.0,5.0,113.0,9.0,467.1408723000204,,,,,,,,,,,,,,,,,467.1274030000204,467.2410889000166,468.0449048000155,468.02626009995583,,,,,,,,,,,,,,,,,,,,,,,,,,,,,,,,,,,468.0336189999944,468.0449048000155,468.0449048000155,468.8776564999717,b,1.0,0.8151804999215528,,,,,,sub-195,1,stroop_test,60.05681374493553,
,,,,114.0,6.0,9.0,,,,,,,,,,,,,gelb,yellow,g,1.0,g,1.0,0.777447099913843,,,,,,,,,,9.0,6.0,114.0,11.0,468.89214120002,,,,,,,,,,,,,,,,,468.878452999983,468.9922081999248,469.7929157000035,469.7775420999387,,,,,,,,,,,,,,,,,,,,,,,,,,,,,,,,,,,469.7785728999879,469.7929157000035,469.7929157000035,470.5790065999609,g,1.0,0.777447099913843,,,,,,sub-195,1,stroop_test,60.05681374493553,
,,,,115.0,7.0,9.0,,,,,,,,,,,,,gelb,red,r,0.0,r,1.0,0.9265187999699264,,,,,,,,,,9.0,7.0,115.0,8.0,470.5932501999196,,,,,,,,,,,,,,,,,470.57969199994113,470.94356489996426,471.7442290999461,471.72886059992015,,,,,,,,,,,,,,,,,,,,,,,,,,,,,,,,,,,471.7298698999221,471.7442290999461,471.7442290999461,472.68053010001313,r,1.0,0.9265187999699264,,,,,,sub-195,1,stroop_test,60.05681374493553,
,,,,116.0,8.0,9.0,,,,,,,,,,,,,rot,yellow,g,0.0,g,1.0,1.940860600094311,,,,,,,,,,9.0,8.0,116.0,3.0,472.6947532999329,,,,,,,,,,,,,,,,,472.6812752999831,473.0451601999812,473.85004179994576,473.83012219995726,,,,,,,,,,,,,,,,,,,,,,,,,,,,,,,,,,,473.83866669994313,473.85004179994576,473.85004179994576,475.7990210999269,g,1.0,1.940860600094311,,,,,,sub-195,1,stroop_test,60.05681374493553,
,,,,117.0,9.0,9.0,,,,,,,,,,,,,blau,blue,b,1.0,b,1.0,0.8339337999932468,,,,,,,,,,9.0,9.0,117.0,5.0,475.8133793999441,,,,,,,,,,,,,,,,,475.7996912000235,477.01434729993343,477.81693979993,477.7996117000002,,,,,,,,,,,,,,,,,,,,,,,,,,,,,,,,,,,477.80657269991934,477.81693979993,477.81693979993,478.6678228999954,b,1.0,0.8339337999932468,,,,,,sub-195,1,stroop_test,60.05681374493553,
,,,,118.0,10.0,9.0,,,,,,,,,,,,,blau,red,r,0.0,r,1.0,1.547189199947752,,,,,,,,,,9.0,10.0,118.0,4.0,478.6820898000151,,,,,,,,,,,,,,,,,478.6685716999928,478.7822069999529,479.5830262999516,479.5673625000054,,,,,,,,,,,,,,,,,,,,,,,,,,,,,,,,,,,479.5683470999357,479.5830262999516,479.5830262999516,481.1362098000245,r,1.0,1.547189199947752,,,,,,sub-195,1,stroop_test,60.05681374493553,
,,,,119.0,11.0,9.0,,,,,,,,,,,,,rot,red,r,1.0,r,1.0,0.8153563999803737,,,,,,,,,,9.0,11.0,119.0,1.0,481.1505202000262,,,,,,,,,,,,,,,,,481.1369254000019,481.5009010999929,482.3055000000168,482.2859867999796,,,,,,,,,,,,,,,,,,,,,,,,,,,,,,,,,,,482.2937281000195,482.3055000000168,482.3055000000168,483.13773720001336,r,1.0,0.8153563999803737,,,,,,sub-195,1,stroop_test,60.05681374493553,
,,,,,,,,,,,,,,,,,,,,,,,,,,,,,,,,,,,,,,,,,,,,,,,,,,,,,,,,,,,,,,,,,,,,,,,,,,,,,,,,,,,,,,,,,,,,,,,,,,,,,,483.1380953999469,483.15231879998464,488.1534353999887,488.1383426999673,sub-195,1,stroop_test,60.05681374493553,
