direction,corrAns,thisN,thisTrialN,thisRepN,respDots.keys,respDots.corr,respDots.rt,respDots.duration,randomInstr,respRandomInstr.keys,respRandomInstr.rt,respRandomInstr.duration,practice_trials.thisRepN,practice_trials.thisTrialN,practice_trials.thisN,practice_trials.thisIndex,instr_trials.thisRepN,instr_trials.thisTrialN,instr_trials.thisN,instr_trials.thisIndex,test_trials.thisRepN,test_trials.thisTrialN,test_trials.thisN,test_trials.thisIndex,thisRow.t,notes,general_instruction.started,textGeneralInstr.started,respGeneralInstr.started,general_instruction.stopped,respGeneralInstr.keys,respGeneralInstr.rt,respGeneralInstr.duration,ITI.started,fixcross.started,fixcross.stopped,ITI.stopped,dots.started,backgroundDots.started,stimulusDots.started,respDots.started,stimulusDots.stopped,dots.stopped,practice_trials.respDots.keys,practice_trials.respDots.corr,practice_trials.respDots.rt,practice_trials.respDots.duration,feedback.started,textFeedback.started,feedback.stopped,textFeedback.stopped,info.started,textInfo.started,keyRespInfo.started,info.stopped,keyRespInfo.keys,keyRespInfo.rt,keyRespInfo.duration,test_instruction.started,textTestInstr.started,respTestInstr.started,test_instruction.stopped,respTestInstr.keys,respTestInstr.rt,respTestInstr.duration,random_instruction.started,textRandomInstr.started,respRandomInstr.started,random_instruction.stopped,instr_trials.respRandomInstr.keys,instr_trials.respRandomInstr.rt,instr_trials.respRandomInstr.duration,test_trials.respDots.keys,test_trials.respDots.corr,test_trials.respDots.rt,test_trials.respDots.duration,goodbye.started,textGoodbye.started,goodbye.stopped,participant,session,expName,frameRate,Unnamed: 87
,,,,,,,,,,,,,,,,,,,,,,,,,,,0.0158661660098005,0.0322630000009667,0.0322630000009667,26.363985333009623,space,26.293814749995363,,,,,,,,,,,,,,,,,,,,,,,,,,,,,,,,,,,,,,,,,,,,,,,,sub-106,1,random_dot,,
left,left,0.0,0.0,0.0,right,0.0,6.671213042005547,,,,,,0.0,0.0,0.0,0.0,,,,,,,,,26.405773500009676,,,,,,,,,26.38747637500637,27.563251833009417,28.39368054100487,28.35645245799969,28.3568885410059,28.39368054100487,28.39368054100487,28.39368054100487,33.36093691599672,35.07213520799996,right,0.0,6.671213042005547,,35.08022112499748,35.14410225000756,35.58573412500846,,,,,,,,,,,,,,,,,,,,,,,,,,,,,,sub-106,1,random_dot,,
right,right,1.0,1.0,0.0,left,0.0,3.2860609580093296,,,,,,0.0,1.0,1.0,1.0,,,,,,,,,35.59001708299911,,,,,,,,,35.58604700000433,36.36571662500501,37.16587799999979,37.15932025000802,37.15973075000511,37.16587799999979,37.16587799999979,37.16587799999979,,40.46394616599719,left,0.0,3.2860609580093296,,40.46405258300365,40.47096562500519,40.95458483300172,40.95961116600665,,,,,,,,,,,,,,,,,,,,,,,,,,,,,sub-106,1,random_dot,,
right,right,2.0,0.0,1.0,right,1.0,5.167304834001698,,,,,,1.0,0.0,2.0,1.0,,,,,,,,,40.95961116600665,,,,,,,,,40.95493649999844,41.06562141599716,41.86043104100099,41.84846058300173,41.848798708000686,41.86043104100099,41.86043104100099,41.86043104100099,46.83480354100175,47.0417772080109,right,1.0,5.167304834001698,,47.04695916600758,47.0543875000003,47.54192795800918,,,,,,,,,,,,,,,,,,,,,,,,,,,,,,sub-106,1,random_dot,,
left,left,3.0,1.0,1.0,left,1.0,5.871994875007658,,,,,,1.0,1.0,3.0,0.0,,,,,,,,,47.55416391600738,,,,,,,,,47.542325290996814,48.34604508300254,49.15107362500567,49.14449587500712,49.14496029099973,49.15107362500567,49.15107362500567,49.15107362500567,54.13222233300621,55.02683304100356,left,1.0,5.871994875007658,,55.02700779100997,55.0350341660087,55.52794937499857,,,,,,,,,,,,,,,,,,,,,,,,,,,,,,sub-106,1,random_dot,,
left,left,4.0,0.0,2.0,left,1.0,4.503480541010504,,,,,,2.0,0.0,4.0,0.0,,,,,,,,,55.53223487500509,,,,,,,,,55.528301750004175,56.31741395800782,57.11751262500184,57.109680583002046,57.11034374999872,57.11751262500184,57.11751262500184,57.11751262500184,,61.62392087500484,left,1.0,4.503480541010504,,61.62403141600953,61.640022749998025,62.124472458002856,,,,,,,,,,,,,,,,,,,,,,,,,,,,,,sub-106,1,random_dot,,
right,right,5.0,1.0,2.0,left,0.0,3.5045366669946816,,,,,,2.0,1.0,5.0,1.0,,,,,,,,,62.127912750002,,,,,,,,,62.12485429100343,62.46935008300352,63.26391395799874,63.256780374998925,63.25721333301044,63.26391395799874,63.26391395799874,63.26391395799874,,66.78333150000253,left,0.0,3.5045366669946816,,66.7865796249971,66.79355816599855,67.28326437500073,67.28915079100989,,,,,,,,,,,,,,,,,,,,,,,,,,,,,sub-106,1,random_dot,,
right,right,6.0,0.0,3.0,right,1.0,3.780700500006788,,,,,,3.0,0.0,6.0,1.0,,,,,,,,,67.28915079100989,,,,,,,,,67.28362316600396,67.37159791600425,68.17171337500622,68.16165295800602,68.16207145800581,68.17171337500622,68.17171337500622,68.17171337500622,,71.95481041600578,right,1.0,3.780700500006788,,71.95748550001008,71.96424604101048,72.4559972499992,,,,,,,,,,,,,,,,,,,,,,,,,,,,,,sub-106,1,random_dot,,
left,left,7.0,1.0,3.0,left,1.0,3.7353578750044103,,,,,,3.0,1.0,7.0,0.0,,,,,,,,,72.46038600000611,,,,,,,,,72.45630900000106,72.81234666600358,73.61412029100757,73.6073682080023,73.60779920800996,73.61412029100757,73.61412029100757,73.61412029100757,,77.36143929100945,left,1.0,3.7353578750044103,,77.36153695800749,77.36805362500309,77.86329429100442,,,,,,,,,,,,,,,,,,,,,,,,,,,,,,sub-106,1,random_dot,,
right,right,8.0,0.0,4.0,left,0.0,2.025517125002807,,,,,,4.0,0.0,8.0,1.0,,,,,,,,,77.86947212500672,,,,,,,,,77.86404212500202,78.6605920830043,79.46251770800154,79.45489583299786,79.45590558300319,79.46251770800154,79.46251770800154,79.46251770800154,,81.49181395799678,left,0.0,2.025517125002807,,81.49395104100404,81.50086270800966,81.98418158300046,81.98872529099754,,,,,,,,,,,,,,,,,,,,,,,,,,,,,sub-106,1,random_dot,,
left,left,9.0,1.0,4.0,right,0.0,2.761704083008226,,,,,,4.0,1.0,9.0,0.0,,,,,,,,,81.98872529099754,,,,,,,,,81.98455112500233,82.35838845800026,83.1532430829975,83.14644633300486,83.14691487500386,83.1532430829975,83.1532430829975,83.1532430829975,,85.92531849999796,right,0.0,2.761704083008226,,85.92543004101026,85.93173087500327,86.42348333299742,86.42815525000333,,,,,,,,,,,,,,,,,,,,,,,,,,,,,sub-106,1,random_dot,,
right,right,10.0,0.0,5.0,left,0.0,2.80409104199498,,,,,,5.0,0.0,10.0,1.0,,,,,,,,,86.42815525000333,,,,,,,,,86.42386041600548,87.61400500001037,88.41826933300763,88.409495083004,88.4105768330046,88.41826933300763,88.41826933300763,88.41826933300763,,91.22408441599693,left,0.0,2.80409104199498,,91.22419358300976,91.23092675000952,91.71570316600264,91.719061374999,,,,,,,,,,,,,,,,,,,,,,,,,,,,,sub-106,1,random_dot,,
left,left,11.0,1.0,5.0,right,0.0,3.3616364579938818,,,,,,5.0,1.0,11.0,0.0,,,,,,,,,91.719061374999,,,,,,,,,91.71604687500805,92.06911816600768,92.86514604100375,92.8520422080037,92.85244562500156,92.86514604100375,92.86514604100375,92.86514604100375,,96.23020566599736,right,0.0,3.3616364579938818,,96.23031716600237,96.23611374999746,96.73157383300712,,,,,,,,,,,,,,,,,,,,,,,,,,,,,,sub-106,1,random_dot,,
left,left,12.0,0.0,6.0,right,0.0,2.4343352089927066,,,,,,6.0,0.0,12.0,0.0,,,,,,,,,96.75376379099907,,,,,,,,,96.73193525000534,96.82720187499945,97.62678200000664,97.620415915997,97.62082829100837,97.62678200000664,97.62678200000664,97.62678200000664,,100.07104754100146,right,0.0,2.4343352089927066,,100.07114812500367,100.07702654101011,100.5646742079989,100.5722857080109,,,,,,,,,,,,,,,,,,,,,,,,,,,,,sub-106,1,random_dot,,
right,right,13.0,1.0,6.0,right,1.0,4.961467333996552,,,,,,6.0,1.0,13.0,1.0,,,,,,,,,100.5722857080109,,,,,,,,,100.56570241600276,101.7681945410004,102.56558612499794,102.55927766600507,102.55966170800092,102.56558612499794,102.56558612499794,102.56558612499794,,107.53815512500296,right,1.0,4.961467333996552,,107.5407406660088,107.54754437500378,108.03692433300604,108.04181854100898,,,,,,,,,,,,,,,,,,,,,,,,,,,,,sub-106,1,random_dot,,
left,left,14.0,0.0,7.0,right,0.0,3.651331458997447,,,,,,7.0,0.0,14.0,0.0,,,,,,,,,108.04181854100898,,,,,,,,,108.03749724999945,109.25467016600304,110.04606295800475,110.03814658299962,110.03858358300933,110.04606295800475,110.04606295800475,110.04606295800475,,113.69921187500586,right,0.0,3.651331458997447,,113.70186191600806,113.70802329100844,114.20035383300274,,,,,,,,,,,,,,,,,,,,,,,,,,,,,,sub-106,1,random_dot,,
right,right,15.0,1.0,7.0,left,0.0,3.3435384589975,,,,,,7.0,1.0,15.0,1.0,,,,,,,,,114.20652616600272,,,,,,,,,114.20103545799792,115.3884421249968,116.186294833009,116.17283224999846,116.17318550001072,116.186294833009,116.186294833009,116.186294833009,,119.5340572080022,left,0.0,3.3435384589975,,119.53414629100008,119.5408550830034,120.02562658301032,120.03105691600648,,,,,,,,,,,,,,,,,,,,,,,,,,,,,sub-106,1,random_dot,,
left,left,16.0,0.0,8.0,left,1.0,2.6196345839998685,,,,,,8.0,0.0,16.0,0.0,,,,,,,,,120.03105691600648,,,,,,,,,120.02653750000172,120.82926929100358,121.61928445800731,121.61246079100238,121.61287541600176,121.61928445800731,121.61928445800731,121.61928445800731,,124.24884145800024,left,1.0,2.6196345839998685,,124.25137941600406,124.25813133300107,124.74604958300188,124.750517708002,,,,,,,,,,,,,,,,,,,,,,,,,,,,,sub-106,1,random_dot,,
right,right,17.0,1.0,8.0,right,1.0,2.2869468749995576,,,,,,8.0,1.0,17.0,1.0,,,,,,,,,124.750517708002,,,,,,,,,124.74636950000422,125.10029041599772,125.90236633300084,125.8955512500106,125.8959912499995,125.90236633300084,125.90236633300084,125.90236633300084,,128.19123195800057,right,1.0,2.2869468749995576,,128.19135741599894,128.19832454100833,128.68234970800404,128.6877451659966,,,,,,,,,,,,,,,,,,,,,,,,,,,,,sub-106,1,random_dot,,
left,left,18.0,0.0,9.0,right,0.0,1.3038372500013793,,,,,,9.0,0.0,18.0,0.0,,,,,,,,,128.6877451659966,,,,,,,,,128.68289404100506,129.48621208300756,130.29540258299676,130.28908516600495,130.28970424999716,130.29540258299676,130.29540258299676,130.29540258299676,,131.60541108300094,right,0.0,1.3038372500013793,,131.60799466600292,131.61517920800543,132.11565712500305,,,,,,,,,,,,,,,,,,,,,,,,,,,,,,sub-106,1,random_dot,,
right,right,19.0,1.0,9.0,left,0.0,3.6245395420119166,,,,,,9.0,1.0,19.0,1.0,,,,,,,,,132.12315100000706,,,,,,,,,132.11621737500536,132.447614040997,133.2396568749973,133.23382354099886,133.23425012500957,133.2396568749973,133.2396568749973,133.2396568749973,,136.86717166600283,left,0.0,3.6245395420119166,,136.86725950000982,136.87917341600405,137.36575799999991,137.37266058300156,,,,,,,,,,,,,,,,,,,,,,,,,,,,,sub-106,1,random_dot,,
,,,,,,,,,,,,,,,,,,,,,,,,,,,,,,,,,,,,,,,,,,,,,,,,,,,,137.36590895800327,137.37266058300156,137.37266058300156,145.5260256659967,space,8.144071875009104,,,,,,,,,,,,,,,,,,,,,,,sub-106,1,random_dot,,
,,,,,,,,,,,,,,,,,,,,,,,,,,,,,,,,,,,,,,,,,,,,,,,,,,,,,,,,,,,145.52611800000886,145.53627608300303,145.53627608300303,156.48144645799766,space,10.926615915988805,,,,,,,,,,,,,,,,sub-106,1,random_dot,,
right,right,0.0,0.0,0.0,right,1.0,4.372558000002755,,accuracy,space,4.593612333002966,,,,,,0.0,0.0,0.0,0.0,0.0,0.0,0.0,1.0,161.12035016600566,,,,,,,,,161.11255466600414,162.311871583006,163.11467037499824,163.10687620801036,163.10780729100225,163.11467037499824,163.11467037499824,163.11467037499824,,167.4941181250033,,,,,,,,,,,,,,,,,,,,,,,156.49984083299933,156.5064160830079,156.5064160830079,161.10429699999804,space,4.593612333002966,,right,1.0,4.372558000002755,,,,,sub-106,1,random_dot,,
left,left,1.0,1.0,0.0,left,1.0,3.690390791991376,,accuracy,space,4.593612333002966,,,,,,0.0,0.0,0.0,0.0,0.0,1.0,1.0,0.0,167.5043488329975,,,,,,,,,167.49449412499962,167.59448162499757,168.3847263330099,168.3779275410052,168.37834820800344,168.3847263330099,168.3847263330099,168.3847263330099,,172.0773769160005,,,,,,,,,,,,,,,,,,,,,,,,,,,,,,left,1.0,3.690390791991376,,,,,sub-106,1,random_dot,,
left,left,2.0,0.0,1.0,left,1.0,3.331821540996316,,accuracy,space,4.593612333002966,,,,,,0.0,0.0,0.0,0.0,1.0,0.0,2.0,0.0,172.08820062500308,,,,,,,,,172.07769575000566,172.4278279160062,173.22342587501043,173.21648429099878,173.2169112910051,173.22342587501043,173.22342587501043,173.22342587501043,,176.57505233300617,,,,,,,,,,,,,,,,,,,,,,,,,,,,,,left,1.0,3.331821540996316,,,,,sub-106,1,random_dot,,
right,right,3.0,1.0,1.0,right,1.0,2.0443136670073727,,accuracy,space,4.593612333002966,,,,,,0.0,0.0,0.0,0.0,1.0,1.0,3.0,1.0,176.58222937500975,,,,,,,,,176.57559245800076,176.9250163329998,177.72402204100217,177.71563062501082,177.71639195800526,177.72402204100217,177.72402204100217,177.72402204100217,,179.77157295800862,,,,,,,,,,,,,,,,,,,,,,,,,,,,,,right,1.0,2.0443136670073727,,,,,sub-106,1,random_dot,,
left,left,4.0,0.0,2.0,left,1.0,2.2245802079996797,,accuracy,space,4.593612333002966,,,,,,0.0,0.0,0.0,0.0,2.0,0.0,4.0,0.0,179.777551666004,,,,,,,,,179.77191437500005,180.57173645800503,181.37215212499723,181.3642577910068,181.365164791001,181.37215212499723,181.37215212499723,181.37215212499723,,183.60568612501083,,,,,,,,,,,,,,,,,,,,,,,,,,,,,,left,1.0,2.2245802079996797,,,,,sub-106,1,random_dot,,
right,right,5.0,1.0,2.0,right,1.0,2.450117667001905,,accuracy,space,4.593612333002966,,,,,,0.0,0.0,0.0,0.0,2.0,1.0,5.0,1.0,183.61228458301048,,,,,,,,,183.60603429100595,184.4203742910031,185.21808595799664,185.21130683300728,185.21172074999777,185.21808595799664,185.21808595799664,185.21808595799664,,187.6701736660034,,,,,,,,,,,,,,,,,,,,,,,,,,,,,,right,1.0,2.450117667001905,,,,,sub-106,1,random_dot,,
left,left,6.0,0.0,3.0,left,1.0,2.587483625000459,,accuracy,space,4.593612333002966,,,,,,0.0,0.0,0.0,0.0,3.0,0.0,6.0,0.0,187.676963291,,,,,,,,,187.6705195000104,188.8724181660073,189.6713491660048,189.6650562499999,189.66546537500108,189.6713491660048,189.6713491660048,189.6713491660048,,192.2615440410009,,,,,,,,,,,,,,,,,,,,,,,,,,,,,,left,1.0,2.587483625000459,,,,,sub-106,1,random_dot,,
right,right,7.0,1.0,3.0,right,1.0,1.7435380419919966,,accuracy,space,4.593612333002966,,,,,,0.0,0.0,0.0,0.0,3.0,1.0,7.0,1.0,192.2736105410004,,,,,,,,,192.26187120800023,192.35942083300324,193.15698833300848,193.149959708011,193.15037583300727,193.15698833300848,193.15698833300848,193.15698833300848,,194.9077848750021,,,,,,,,,,,,,,,,,,,,,,,,,,,,,,right,1.0,1.7435380419919966,,,,,sub-106,1,random_dot,,
left,left,8.0,0.0,4.0,left,1.0,0.8904315840045456,,accuracy,space,4.593612333002966,,,,,,0.0,0.0,0.0,0.0,4.0,0.0,8.0,0.0,194.91433829099697,,,,,,,,,194.9081868330104,195.02355933299987,195.8151018750068,195.808786374997,195.8092311250075,195.8151018750068,195.8151018750068,195.8151018750068,,196.72247200000857,,,,,,,,,,,,,,,,,,,,,,,,,,,,,,left,1.0,0.8904315840045456,,,,,sub-106,1,random_dot,,
right,right,9.0,1.0,4.0,right,1.0,0.7948408339871094,,accuracy,space,4.593612333002966,,,,,,0.0,0.0,0.0,0.0,4.0,1.0,9.0,1.0,196.7293106660072,,,,,,,,,196.7229431250016,197.5097694580036,198.3064286660083,198.3010180410056,198.3014388750016,198.3064286660083,198.3064286660083,198.3064286660083,,199.1127194160072,,,,,,,,,,,,,,,,,,,,,,,,,,,,,,right,1.0,0.7948408339871094,,,,,sub-106,1,random_dot,,
left,left,10.0,0.0,5.0,left,1.0,1.2192673340032345,,accuracy,space,4.593612333002966,,,,,,0.0,0.0,0.0,0.0,5.0,0.0,10.0,0.0,199.11873658299737,,,,,,,,,199.1131489160034,200.3065658330015,201.1066505409981,201.0926482500072,201.09304258300108,201.1066505409981,201.1066505409981,201.1066505409981,,202.33804504100408,,,,,,,,,,,,,,,,,,,,,,,,,,,,,,left,1.0,1.2192673340032345,,,,,sub-106,1,random_dot,,
right,right,11.0,1.0,5.0,right,1.0,1.275817375004408,,accuracy,space,4.593612333002966,,,,,,0.0,0.0,0.0,0.0,5.0,1.0,11.0,1.0,202.34390983299815,,,,,,,,,202.3384773750004,203.13011445800657,203.92306012500197,203.9160873329965,203.9165096250072,203.92306012500197,203.92306012500197,203.92306012500197,,205.2014662500005,,,,,,,,,,,,,,,,,,,,,,,,,,,,,,right,1.0,1.275817375004408,,,,,sub-106,1,random_dot,,
left,left,12.0,0.0,6.0,left,1.0,0.7870042499998817,,accuracy,space,4.593612333002966,,,,,,0.0,0.0,0.0,0.0,6.0,0.0,12.0,0.0,205.20870629099957,,,,,,,,,205.2019202500087,205.5412477080099,206.34182924999917,206.3354778330104,206.33587491601065,206.34182924999917,206.34182924999917,206.34182924999917,,207.1377260410081,,,,,,,,,,,,,,,,,,,,,,,,,,,,,,left,1.0,0.7870042499998817,,,,,sub-106,1,random_dot,,
right,right,13.0,1.0,6.0,right,1.0,1.240962750001927,,accuracy,space,4.593612333002966,,,,,,0.0,0.0,0.0,0.0,6.0,1.0,13.0,1.0,207.1441839580075,,,,,,,,,207.1380088750011,208.33608387500863,209.13877616600075,209.13163779099705,209.13207325000255,209.13877616600075,209.13877616600075,209.13877616600075,,210.3841029160103,,,,,,,,,,,,,,,,,,,,,,,,,,,,,,right,1.0,1.240962750001927,,,,,sub-106,1,random_dot,,
right,right,14.0,0.0,7.0,right,1.0,1.1746617909957422,,accuracy,space,4.593612333002966,,,,,,0.0,0.0,0.0,0.0,7.0,0.0,14.0,1.0,210.3950669580081,,,,,,,,,210.38442216601103,210.48191279100135,211.2771224160097,211.2700256660028,211.27045550000912,211.2771224160097,211.2771224160097,211.2771224160097,,212.45438279100927,,,,,,,,,,,,,,,,,,,,,,,,,,,,,,right,1.0,1.1746617909957422,,,,,sub-106,1,random_dot,,
left,left,15.0,1.0,7.0,left,1.0,1.7917115410091355,,accuracy,space,4.593612333002966,,,,,,0.0,0.0,0.0,0.0,7.0,1.0,15.0,0.0,212.4611428750068,,,,,,,,,212.45471662499767,212.7962110829976,213.58834129100435,213.5820988750056,213.5825176660001,213.58834129100435,213.58834129100435,213.58834129100435,,215.4019120830053,,,,,,,,,,,,,,,,,,,,,,,,,,,,,,left,1.0,1.7917115410091355,,,,,sub-106,1,random_dot,,
right,right,16.0,0.0,8.0,right,1.0,1.0833036669937428,,accuracy,space,4.593612333002966,,,,,,0.0,0.0,0.0,0.0,8.0,0.0,16.0,1.0,215.40868083300305,,,,,,,,,215.4023345410096,215.7461565410049,216.5486546660104,216.5415090000024,216.54193645800115,216.5486546660104,216.5486546660104,216.5486546660104,,217.6339514160063,,,,,,,,,,,,,,,,,,,,,,,,,,,,,,right,1.0,1.0833036669937428,,,,,sub-106,1,random_dot,,
left,left,17.0,1.0,8.0,left,1.0,0.8936320840002736,,accuracy,space,4.593612333002966,,,,,,0.0,0.0,0.0,0.0,8.0,1.0,17.0,0.0,217.64016558299767,,,,,,,,,217.63437225000237,218.82738862500992,219.62495120801032,219.61858758299783,219.61904237500855,219.62495120801032,219.62495120801032,219.62495120801032,,220.52086287499696,,,,,,,,,,,,,,,,,,,,,,,,,,,,,,left,1.0,0.8936320840002736,,,,,sub-106,1,random_dot,,
right,right,18.0,0.0,9.0,right,1.0,0.637026791999233,,accuracy,space,4.593612333002966,,,,,,0.0,0.0,0.0,0.0,9.0,0.0,18.0,1.0,220.5277545410063,,,,,,,,,220.52133808301005,220.88927887500904,221.69090633300948,221.6834545830061,221.68409962501028,221.69090633300948,221.69090633300948,221.69090633300948,,222.32956945800103,,,,,,,,,,,,,,,,,,,,,,,,,,,,,,right,1.0,0.637026791999233,,,,,sub-106,1,random_dot,,
left,left,19.0,1.0,9.0,left,1.0,0.6537302080105292,,accuracy,space,4.593612333002966,,,,,,0.0,0.0,0.0,0.0,9.0,1.0,19.0,0.0,222.3363614580012,,,,,,,,,222.32997116600745,222.4353843749996,223.2371119580057,223.23090570799832,223.23129204100405,223.2371119580057,223.2371119580057,223.2371119580057,,223.8965379160072,,,,,,,,,,,,,,,,,,,,,,,,,,,,,,left,1.0,0.6537302080105292,,,,,sub-106,1,random_dot,,
left,left,20.0,0.0,10.0,right,0.0,0.9695263749890728,,accuracy,space,4.593612333002966,,,,,,0.0,0.0,0.0,0.0,10.0,0.0,20.0,0.0,223.9032565000089,,,,,,,,,223.8969078750088,224.00848720800423,224.8016097910004,224.7950915830006,224.79551541600085,224.8016097910004,224.8016097910004,224.8016097910004,,225.774386582998,,,,,,,,,,,,,,,,,,,,,,,,,,,,,,right,0.0,0.9695263749890728,,,,,sub-106,1,random_dot,,
right,right,21.0,1.0,10.0,right,1.0,1.4413928330031922,,accuracy,space,4.593612333002966,,,,,,0.0,0.0,0.0,0.0,10.0,1.0,21.0,1.0,225.7809280000074,,,,,,,,,225.7747989580093,226.57189558300888,227.36293958300664,227.35657129100585,227.3569979580061,227.36293958300664,227.36293958300664,227.36293958300664,,228.81221099999675,,,,,,,,,,,,,,,,,,,,,,,,,,,,,,right,1.0,1.4413928330031922,,,,,sub-106,1,random_dot,,
right,right,22.0,0.0,11.0,right,1.0,0.6185638750030193,,accuracy,space,4.593612333002966,,,,,,0.0,0.0,0.0,0.0,11.0,0.0,22.0,1.0,228.8173983330053,,,,,,,,,228.81257970799925,230.01240662499916,230.8020192910044,230.79582029100857,230.79624437500024,230.8020192910044,230.8020192910044,230.8020192910044,,231.4257920000091,,,,,,,,,,,,,,,,,,,,,,,,,,,,,,right,1.0,0.6185638750030193,,,,,sub-106,1,random_dot,,
left,left,23.0,1.0,11.0,left,1.0,0.9127721249969908,,accuracy,space,4.593612333002966,,,,,,0.0,0.0,0.0,0.0,11.0,1.0,23.0,0.0,231.4322317909973,,,,,,,,,231.42609079100657,231.5283079159999,232.3272270000016,232.31420329101093,232.3145700410096,232.3272270000016,232.3272270000016,232.3272270000016,,233.2506717910001,,,,,,,,,,,,,,,,,,,,,,,,,,,,,,left,1.0,0.9127721249969908,,,,,sub-106,1,random_dot,,
left,left,24.0,0.0,12.0,left,1.0,0.7568474579893518,,accuracy,space,4.593612333002966,,,,,,0.0,0.0,0.0,0.0,12.0,0.0,24.0,0.0,233.25640329100133,,,,,,,,,233.25109437500944,234.0443234580016,234.8438639579981,234.83731645799708,234.8377542500093,234.8438639579981,234.8438639579981,234.8438639579981,,235.60596025000268,,,,,,,,,,,,,,,,,,,,,,,,,,,,,,left,1.0,0.7568474579893518,,,,,sub-106,1,random_dot,,
right,right,25.0,1.0,12.0,right,1.0,0.5520212080009514,,accuracy,space,4.593612333002966,,,,,,0.0,0.0,0.0,0.0,12.0,1.0,25.0,1.0,235.6126150409982,,,,,,,,,235.60628241600352,236.4023542500072,237.19245558300463,237.18612675000625,237.18653775000712,237.19245558300463,237.19245558300463,237.19245558300463,,237.74610683300125,,,,,,,,,,,,,,,,,,,,,,,,,,,,,,right,1.0,0.5520212080009514,,,,,sub-106,1,random_dot,,
left,left,26.0,0.0,13.0,left,1.0,0.4668552920047659,,accuracy,space,4.593612333002966,,,,,,0.0,0.0,0.0,0.0,13.0,0.0,26.0,0.0,237.75200416600276,,,,,,,,,237.74643487500725,238.09321595799705,238.90858829100037,238.88631879100285,238.8866833330103,238.90858829100037,238.90858829100037,238.90858829100037,,239.37978462500905,,,,,,,,,,,,,,,,,,,,,,,,,,,,,,left,1.0,0.4668552920047659,,,,,sub-106,1,random_dot,,
right,right,27.0,1.0,13.0,right,1.0,0.5115924169949722,,accuracy,space,4.593612333002966,,,,,,0.0,0.0,0.0,0.0,13.0,1.0,27.0,1.0,239.3862010830053,,,,,,,,,239.3800728750066,239.72502287500535,240.5155399159994,240.5086212910101,240.50946683299844,240.5155399159994,240.5155399159994,240.5155399159994,,241.03387912501057,,,,,,,,,,,,,,,,,,,,,,,,,,,,,,right,1.0,0.5115924169949722,,,,,sub-106,1,random_dot,,
right,right,28.0,0.0,14.0,right,1.0,0.629646875007893,,accuracy,space,4.593612333002966,,,,,,0.0,0.0,0.0,0.0,14.0,0.0,28.0,1.0,241.03972416601027,,,,,,,,,241.0342270830006,241.12183829100104,241.91647725000803,241.90870887500927,241.9095085410081,241.91647725000803,241.91647725000803,241.91647725000803,,242.55454125000688,,,,,,,,,,,,,,,,,,,,,,,,,,,,,,right,1.0,0.629646875007893,,,,,sub-106,1,random_dot,,
left,left,29.0,1.0,14.0,left,1.0,0.5957230829953915,,accuracy,space,4.593612333002966,,,,,,0.0,0.0,0.0,0.0,14.0,1.0,29.0,0.0,242.56596629100383,,,,,,,,,242.55482658300025,242.9188076249993,243.72126320800453,243.71353208299843,243.714412833011,243.72126320800453,243.72126320800453,243.72126320800453,,244.3224652909994,,,,,,,,,,,,,,,,,,,,,,,,,,,,,,left,1.0,0.5957230829953915,,,,,sub-106,1,random_dot,,
left,left,30.0,0.0,15.0,right,0.0,0.3806299169955309,,accuracy,space,4.593612333002966,,,,,,0.0,0.0,0.0,0.0,15.0,0.0,30.0,0.0,244.3287273330061,,,,,,,,,244.32277862500632,245.1128890000109,245.92731725001067,245.90633433300536,245.90671095800644,245.92731725001067,245.92731725001067,245.92731725001067,,246.31087250000564,,,,,,,,,,,,,,,,,,,,,,,,,,,,,,right,0.0,0.3806299169955309,,,,,sub-106,1,random_dot,,
right,right,31.0,1.0,15.0,right,1.0,0.7603062919952208,,accuracy,space,4.593612333002966,,,,,,0.0,0.0,0.0,0.0,15.0,1.0,31.0,1.0,246.32368883299927,,,,,,,,,246.31119145800767,246.67772354099725,247.49015599999984,247.46946733300865,247.46983445801013,247.49015599999984,247.49015599999984,247.49015599999984,,248.26665404099916,,,,,,,,,,,,,,,,,,,,,,,,,,,,,,right,1.0,0.7603062919952208,,,,,sub-106,1,random_dot,,
right,right,32.0,0.0,16.0,right,1.0,0.7657170830061659,,accuracy,space,4.593612333002966,,,,,,0.0,0.0,0.0,0.0,16.0,0.0,32.0,1.0,248.27361287499664,,,,,,,,,248.2670972909982,249.4744399159972,250.26876466600515,250.26188804100093,250.26248362500337,250.26876466600515,250.26876466600515,250.26876466600515,,251.0468025000009,,,,,,,,,,,,,,,,,,,,,,,,,,,,,,right,1.0,0.7657170830061659,,,,,sub-106,1,random_dot,,
left,left,33.0,1.0,16.0,left,1.0,0.592453833000036,,accuracy,space,4.593612333002966,,,,,,0.0,0.0,0.0,0.0,16.0,1.0,33.0,0.0,251.05317574999933,,,,,,,,,251.0472132910072,251.40161129100304,252.2037226660032,252.18734324999969,252.1877501660056,252.2037226660032,252.2037226660032,252.2037226660032,,252.7976897500048,,,,,,,,,,,,,,,,,,,,,,,,,,,,,,left,1.0,0.592453833000036,,,,,sub-106,1,random_dot,,
right,right,34.0,0.0,17.0,right,1.0,0.6547641670040321,,accuracy,space,4.593612333002966,,,,,,0.0,0.0,0.0,0.0,17.0,0.0,34.0,1.0,252.80422270800045,,,,,,,,,252.7981084580097,254.00457925000228,254.81150854101,254.7900527500024,254.7904239580093,254.81150854101,254.81150854101,254.81150854101,,255.47400720800212,,,,,,,,,,,,,,,,,,,,,,,,,,,,,,right,1.0,0.6547641670040321,,,,,sub-106,1,random_dot,,
left,left,35.0,1.0,17.0,left,1.0,0.5474793750036042,,accuracy,space,4.593612333002966,,,,,,0.0,0.0,0.0,0.0,17.0,1.0,35.0,0.0,255.4825176250015,,,,,,,,,255.47432675000164,255.57799962500576,256.3811073329998,256.37436625000555,256.374792290997,256.3811073329998,256.3811073329998,256.3811073329998,,256.93846341600874,,,,,,,,,,,,,,,,,,,,,,,,,,,,,,left,1.0,0.5474793750036042,,,,,sub-106,1,random_dot,,
left,left,36.0,0.0,18.0,left,1.0,0.7486769170063781,,accuracy,space,4.593612333002966,,,,,,0.0,0.0,0.0,0.0,18.0,0.0,36.0,0.0,256.94422983301047,,,,,,,,,256.9388362910104,257.27585529100907,258.0773003330105,258.0705934580037,258.0710196250002,258.0773003330105,258.0773003330105,258.0773003330105,,258.8276962910022,,,,,,,,,,,,,,,,,,,,,,,,,,,,,,left,1.0,0.7486769170063781,,,,,sub-106,1,random_dot,,
right,right,37.0,1.0,18.0,right,1.0,0.4925047920114593,,accuracy,space,4.593612333002966,,,,,,0.0,0.0,0.0,0.0,18.0,1.0,37.0,1.0,258.8406112500088,,,,,,,,,258.827999333007,258.94367708300706,259.738440458008,259.7312267500092,259.73201100000006,259.738440458008,259.738440458008,259.738440458008,,260.2328925830079,,,,,,,,,,,,,,,,,,,,,,,,,,,,,,right,1.0,0.4925047920114593,,,,,sub-106,1,random_dot,,
left,left,38.0,0.0,19.0,left,1.0,0.5620653749938356,,accuracy,space,4.593612333002966,,,,,,0.0,0.0,0.0,0.0,19.0,0.0,38.0,0.0,260.23941483300587,,,,,,,,,260.2332982910011,261.0253661250026,261.818361291007,261.8113652500033,261.81180054100696,261.818361291007,261.818361291007,261.818361291007,,262.383843625008,,,,,,,,,,,,,,,,,,,,,,,,,,,,,,left,1.0,0.5620653749938356,,,,,sub-106,1,random_dot,,
right,right,39.0,1.0,19.0,right,1.0,0.4754113749950193,,accuracy,space,4.593612333002966,,,,,,0.0,0.0,0.0,0.0,19.0,1.0,39.0,1.0,262.3904197079973,,,,,,,,,262.38421299999754,263.1839647910092,263.9888084160048,263.9804280829994,263.9812874580093,263.9888084160048,263.9888084160048,263.9888084160048,,264.48029737500474,,,,,,,,,,,,,,,,,,,,,,,,,,,,,,right,1.0,0.4754113749950193,,,,,sub-106,1,random_dot,,
left,left,40.0,0.0,20.0,left,1.0,0.4768068330013193,,accuracy,space,4.593612333002966,,,,,,0.0,0.0,0.0,0.0,20.0,0.0,40.0,0.0,264.4869276660029,,,,,,,,,264.48067750000337,264.568400958,265.3630780410021,265.3562544580054,265.35660841599747,265.3630780410021,265.3630780410021,265.3630780410021,,265.8629236249981,,,,,,,,,,,,,,,,,,,,,,,,,,,,,,left,1.0,0.4768068330013193,,,,,sub-106,1,random_dot,,
right,right,41.0,1.0,20.0,right,1.0,0.4690415419900091,,accuracy,space,4.593612333002966,,,,,,0.0,0.0,0.0,0.0,20.0,1.0,41.0,1.0,265.86724791600136,,,,,,,,,265.8632339160104,266.655406291,267.4520810410031,267.445414916001,267.4458177500055,267.4520810410031,267.4520810410031,267.4520810410031,,267.9280264160043,,,,,,,,,,,,,,,,,,,,,,,,,,,,,,right,1.0,0.4690415419900091,,,,,sub-106,1,random_dot,,
left,left,42.0,0.0,21.0,left,1.0,0.5097444580023875,,accuracy,space,4.593612333002966,,,,,,0.0,0.0,0.0,0.0,21.0,0.0,42.0,0.0,267.94803654099815,,,,,,,,,267.9283057080029,268.0270532499999,268.8235411659989,268.8101591660088,268.81056025,268.8235411659989,268.8235411659989,268.8235411659989,,269.37550870800624,,,,,,,,,,,,,,,,,,,,,,,,,,,,,,left,1.0,0.5097444580023875,,,,,sub-106,1,random_dot,,
right,right,43.0,1.0,21.0,right,1.0,0.5680905839981278,,accuracy,space,4.593612333002966,,,,,,0.0,0.0,0.0,0.0,21.0,1.0,43.0,1.0,269.3783712500008,,,,,,,,,269.3757572080067,270.5733546660049,271.3730896659981,271.36153904099774,271.3619722500007,271.3730896659981,271.3730896659981,271.3730896659981,,271.9440376660059,,,,,,,,,,,,,,,,,,,,,,,,,,,,,,right,1.0,0.5680905839981278,,,,,sub-106,1,random_dot,,
left,left,44.0,0.0,22.0,left,1.0,0.4486852080008248,,accuracy,space,4.593612333002966,,,,,,0.0,0.0,0.0,0.0,22.0,0.0,44.0,0.0,271.9546206660016,,,,,,,,,271.9443313750089,272.74417425000865,273.5446587080078,273.53743366600247,273.5381564999989,273.5446587080078,273.5446587080078,273.5446587080078,,274.0010005829972,,,,,,,,,,,,,,,,,,,,,,,,,,,,,,left,1.0,0.4486852080008248,,,,,sub-106,1,random_dot,,
right,right,45.0,1.0,22.0,right,1.0,0.6418787080037873,,accuracy,space,4.593612333002966,,,,,,0.0,0.0,0.0,0.0,22.0,1.0,45.0,1.0,274.0073918749986,,,,,,,,,274.0013565830013,274.33920233300887,275.12934574999963,275.1233205830067,275.1236630830099,275.12934574999963,275.12934574999963,275.12934574999963,,275.7884673750086,,,,,,,,,,,,,,,,,,,,,,,,,,,,,,right,1.0,0.6418787080037873,,,,,sub-106,1,random_dot,,
left,left,46.0,0.0,23.0,left,1.0,0.5977642090001609,,accuracy,space,4.593612333002966,,,,,,0.0,0.0,0.0,0.0,23.0,0.0,46.0,0.0,275.79528912500245,,,,,,,,,275.7888941660058,276.9881962080108,277.7804382500035,277.77206404099707,277.7730171250005,277.7804382500035,277.7804382500035,277.7804382500035,,278.3885252909968,,,,,,,,,,,,,,,,,,,,,,,,,,,,,,left,1.0,0.5977642090001609,,,,,sub-106,1,random_dot,,
right,right,47.0,1.0,23.0,right,1.0,0.560408165998524,,accuracy,space,4.593612333002966,,,,,,0.0,0.0,0.0,0.0,23.0,1.0,47.0,1.0,278.3946802499995,,,,,,,,,278.3888817499974,279.1772665410099,279.97774225000467,279.9706716250075,279.97107862500707,279.97774225000467,279.97774225000467,279.97774225000467,,280.541644958008,,,,,,,,,,,,,,,,,,,,,,,,,,,,,,right,1.0,0.560408165998524,,,,,sub-106,1,random_dot,,
left,left,48.0,0.0,24.0,left,1.0,0.4783415410056477,,accuracy,space,4.593612333002966,,,,,,0.0,0.0,0.0,0.0,24.0,0.0,48.0,0.0,280.5513282910106,,,,,,,,,280.54208958300296,281.33691491599893,282.13454879100027,282.1213020830037,282.1216920000006,282.13454879100027,282.13454879100027,282.13454879100027,,282.62305108300643,,,,,,,,,,,,,,,,,,,,,,,,,,,,,,left,1.0,0.4783415410056477,,,,,sub-106,1,random_dot,,
right,right,49.0,1.0,24.0,right,1.0,0.6274670419952599,,accuracy,space,4.593612333002966,,,,,,0.0,0.0,0.0,0.0,24.0,1.0,49.0,1.0,282.63001708300726,,,,,,,,,282.6235395830008,282.7097099579987,283.5056881250057,283.49553166600526,283.49593566601106,283.5056881250057,283.5056881250057,283.5056881250057,,284.14148904100875,,,,,,,,,,,,,,,,,,,,,,,,,,,,,,right,1.0,0.6274670419952599,,,,,sub-106,1,random_dot,,
left,left,50.0,0.0,25.0,left,1.0,0.4566017909965012,,accuracy,space,4.593612333002966,,,,,,0.0,0.0,0.0,0.0,25.0,0.0,50.0,0.0,284.14591587500763,,,,,,,,,284.1418020410056,284.2388535000064,285.0453375409997,285.02273508301005,285.02314854100405,285.0453375409997,285.0453375409997,285.0453375409997,,285.5120819580043,,,,,,,,,,,,,,,,,,,,,,,,,,,,,,left,1.0,0.4566017909965012,,,,,sub-106,1,random_dot,,
right,right,51.0,1.0,25.0,right,1.0,0.4935093329986557,,accuracy,space,4.593612333002966,,,,,,0.0,0.0,0.0,0.0,25.0,1.0,51.0,1.0,285.5185132500046,,,,,,,,,285.5125342079991,286.3092431660043,287.1061810000101,287.098850082999,287.0992830830073,287.1061810000101,287.1061810000101,287.1061810000101,,287.6078705000109,,,,,,,,,,,,,,,,,,,,,,,,,,,,,,right,1.0,0.4935093329986557,,,,,sub-106,1,random_dot,,
right,right,52.0,0.0,26.0,right,1.0,0.8033549590036273,,accuracy,space,4.593612333002966,,,,,,0.0,0.0,0.0,0.0,26.0,0.0,52.0,1.0,287.61455504100013,,,,,,,,,287.6083296249999,288.41716662500403,289.2189077910007,289.21139612499974,289.2121770829981,289.2189077910007,289.2189077910007,289.2189077910007,,290.02726004100987,,,,,,,,,,,,,,,,,,,,,,,,,,,,,,right,1.0,0.8033549590036273,,,,,sub-106,1,random_dot,,
left,left,53.0,1.0,26.0,left,1.0,0.458287208006368,,accuracy,space,4.593612333002966,,,,,,0.0,0.0,0.0,0.0,26.0,1.0,53.0,0.0,290.03258133299823,,,,,,,,,290.0275754160102,290.3853501660051,291.184986207998,291.17781687500246,291.17825058300514,291.184986207998,291.184986207998,291.184986207998,,291.66284854100377,,,,,,,,,,,,,,,,,,,,,,,,,,,,,,left,1.0,0.458287208006368,,,,,sub-106,1,random_dot,,
right,right,54.0,0.0,27.0,right,1.0,0.5966473750013392,,accuracy,space,4.593612333002966,,,,,,0.0,0.0,0.0,0.0,27.0,0.0,54.0,1.0,291.6695812499965,,,,,,,,,291.66331066600105,292.8598883750092,293.6535430829972,293.6479459999973,293.6482774580072,293.6535430829972,293.6535430829972,293.6535430829972,,294.2589691660105,,,,,,,,,,,,,,,,,,,,,,,,,,,,,,right,1.0,0.5966473750013392,,,,,sub-106,1,random_dot,,
left,left,55.0,1.0,27.0,left,1.0,0.5401734159968328,,accuracy,space,4.593612333002966,,,,,,0.0,0.0,0.0,0.0,27.0,1.0,55.0,0.0,294.2657337910059,,,,,,,,,294.2593316660059,294.3649696250068,295.17544525000267,295.1679051250103,295.1687713749998,295.17544525000267,295.17544525000267,295.17544525000267,,295.71919204099686,,,,,,,,,,,,,,,,,,,,,,,,,,,,,,left,1.0,0.5401734159968328,,,,,sub-106,1,random_dot,,
left,left,56.0,0.0,28.0,left,1.0,0.7355800829973305,,accuracy,space,4.593612333002966,,,,,,0.0,0.0,0.0,0.0,28.0,0.0,56.0,0.0,295.7255086660007,,,,,,,,,295.719478583007,296.5183033330104,297.3192387080053,297.31276641599834,297.3131858330016,297.3192387080053,297.3192387080053,297.3192387080053,,298.0565944160044,,,,,,,,,,,,,,,,,,,,,,,,,,,,,,left,1.0,0.7355800829973305,,,,,sub-106,1,random_dot,,
right,right,57.0,1.0,28.0,right,1.0,0.4976821250020293,,accuracy,space,4.593612333002966,,,,,,0.0,0.0,0.0,0.0,28.0,1.0,57.0,1.0,298.0634088329971,,,,,,,,,298.0570148330007,298.41287187499984,299.2072305000038,299.20064566600195,299.20107470800576,299.2072305000038,299.2072305000038,299.2072305000038,,299.7125083330029,,,,,,,,,,,,,,,,,,,,,,,,,,,,,,right,1.0,0.4976821250020293,,,,,sub-106,1,random_dot,,
left,left,58.0,0.0,29.0,left,1.0,0.4824384170060511,,accuracy,space,4.593612333002966,,,,,,0.0,0.0,0.0,0.0,29.0,0.0,58.0,0.0,299.71933125000214,,,,,,,,,299.71289824999985,300.51223108300474,301.306882416,301.3006679579994,301.301120958,301.306882416,301.306882416,301.306882416,,301.79768845799845,,,,,,,,,,,,,,,,,,,,,,,,,,,,,,left,1.0,0.4824384170060511,,,,,sub-106,1,random_dot,,
right,right,59.0,1.0,29.0,right,1.0,0.4386391250009183,,accuracy,space,4.593612333002966,,,,,,0.0,0.0,0.0,0.0,29.0,1.0,59.0,1.0,301.8019628330076,,,,,,,,,301.7980039579997,302.60750208300306,303.4160775830096,303.409284333,303.4096929579973,303.4160775830096,303.4160775830096,303.4160775830096,,303.871448165999,,,,,,,,,,,,,,,,,,,,,,,,,,,,,,right,1.0,0.4386391250009183,,,,,sub-106,1,random_dot,,
,,0.0,0.0,0.0,,,,,accuracy,space,4.593612333002966,,,,,,0.0,0.0,0.0,0.0,,,,,,,,,,,,,,,,,,,,,,,,,,,,,,,,,,,,,,,,,,,,,,,,,,,,,,,,,,,,sub-106,1,random_dot,,
left,left,0.0,0.0,0.0,left,1.0,0.5717872500099475,,speed,space,5.6767262919893255,,,,,,0.0,1.0,1.0,1.0,0.0,0.0,0.0,0.0,309.59275104101107,,,,,,,,,309.5882870830101,309.92392862500856,310.72275125001033,310.71503354099696,310.71606254100334,310.72275125001033,310.72275125001033,310.72275125001033,,311.3007492500037,,,,,,,,,,,,,,,,,,,,,,,303.8846347080107,303.8916692500061,303.8916692500061,309.58047408300627,space,5.6767262919893255,,left,1.0,0.5717872500099475,,,,,sub-106,1,random_dot,,
right,right,1.0,1.0,0.0,right,1.0,0.4534042500017676,,speed,space,5.6767262919893255,,,,,,0.0,1.0,1.0,1.0,0.0,1.0,1.0,1.0,311.3049655830109,,,,,,,,,311.30097062500136,311.4065910000063,312.2032715410023,312.1959543330013,312.19639366600313,312.2032715410023,312.2032715410023,312.2032715410023,,312.6584513749985,,,,,,,,,,,,,,,,,,,,,,,,,,,,,,right,1.0,0.4534042500017676,,,,,sub-106,1,random_dot,,
left,left,2.0,0.0,1.0,left,1.0,0.3972884590039029,,speed,space,5.6767262919893255,,,,,,0.0,1.0,1.0,1.0,1.0,0.0,2.0,0.0,312.66498079099983,,,,,,,,,312.6588616250083,313.0068619579979,313.8022419580084,313.7949962499988,313.7957750830101,313.8022419580084,313.8022419580084,313.8022419580084,,314.2090844159975,,,,,,,,,,,,,,,,,,,,,,,,,,,,,,left,1.0,0.3972884590039029,,,,,sub-106,1,random_dot,,
right,right,3.0,1.0,1.0,right,1.0,0.4186959579965332,,speed,space,5.6767262919893255,,,,,,0.0,1.0,1.0,1.0,1.0,1.0,3.0,1.0,314.2152402080101,,,,,,,,,314.20949875000224,315.4222897080035,316.22569241600286,316.219225000008,316.2196223330102,316.22569241600286,316.22569241600286,316.22569241600286,,316.64611270801106,,,,,,,,,,,,,,,,,,,,,,,,,,,,,,right,1.0,0.4186959579965332,,,,,sub-106,1,random_dot,,
right,right,4.0,0.0,2.0,left,0.0,0.3653875839954708,,speed,space,5.6767262919893255,,,,,,0.0,1.0,1.0,1.0,2.0,0.0,4.0,1.0,316.6583339159988,,,,,,,,,316.64641625000513,317.83825862500817,318.63458791600715,318.6268571660039,318.6276118750102,318.63458791600715,318.63458791600715,318.63458791600715,,319.0081999160029,,,,,,,,,,,,,,,,,,,,,,,,,,,,,,left,0.0,0.3653875839954708,,,,,sub-106,1,random_dot,,
left,left,5.0,1.0,2.0,left,1.0,0.5967951250058832,,speed,space,5.6767262919893255,,,,,,0.0,1.0,1.0,1.0,2.0,1.0,5.0,0.0,319.0142865000089,,,,,,,,,319.0085180000024,319.37516070800484,320.1741294579988,320.16727462499694,320.16772208300245,320.1741294579988,320.1741294579988,320.1741294579988,,320.77255487500224,,,,,,,,,,,,,,,,,,,,,,,,,,,,,,left,1.0,0.5967951250058832,,,,,sub-106,1,random_dot,,
right,right,6.0,0.0,3.0,right,1.0,0.4136649580032099,,speed,space,5.6767262919893255,,,,,,0.0,1.0,1.0,1.0,3.0,0.0,6.0,1.0,320.7793975000095,,,,,,,,,320.7728811660054,321.112109624999,321.92763262501103,321.907289625,321.9076493750036,321.92763262501103,321.92763262501103,321.92763262501103,,322.346861833008,,,,,,,,,,,,,,,,,,,,,,,,,,,,,,right,1.0,0.4136649580032099,,,,,sub-106,1,random_dot,,
left,left,7.0,1.0,3.0,left,1.0,0.4339567919960245,,speed,space,5.6767262919893255,,,,,,0.0,1.0,1.0,1.0,3.0,1.0,7.0,0.0,322.35317908300203,,,,,,,,,322.34715666600096,323.13579133299936,323.93460287500056,323.9280682079989,323.9288632910029,323.93460287500056,323.93460287500056,323.93460287500056,,324.37099016600405,,,,,,,,,,,,,,,,,,,,,,,,,,,,,,left,1.0,0.4339567919960245,,,,,sub-106,1,random_dot,,
left,left,8.0,0.0,4.0,left,1.0,0.5788602079992415,,speed,space,5.6767262919893255,,,,,,0.0,1.0,1.0,1.0,4.0,0.0,8.0,0.0,324.37751712500176,,,,,,,,,324.3714182499971,324.4683805000095,325.2594968330086,325.25302404099784,325.25340616599715,325.2594968330086,325.2594968330086,325.2594968330086,,325.8419912500103,,,,,,,,,,,,,,,,,,,,,,,,,,,,,,left,1.0,0.5788602079992415,,,,,sub-106,1,random_dot,,
right,right,9.0,1.0,4.0,right,1.0,0.5823052499908954,,speed,space,5.6767262919893255,,,,,,0.0,1.0,1.0,1.0,4.0,1.0,9.0,1.0,325.8480065409967,,,,,,,,,325.842407832999,326.633733708004,327.4312177910033,327.42464595800266,327.4250547499978,327.4312177910033,327.4312177910033,327.4312177910033,,328.01530166600423,,,,,,,,,,,,,,,,,,,,,,,,,,,,,,right,1.0,0.5823052499908954,,,,,sub-106,1,random_dot,,
right,right,10.0,0.0,5.0,right,1.0,0.5817729579866864,,speed,space,5.6767262919893255,,,,,,0.0,1.0,1.0,1.0,5.0,0.0,10.0,1.0,328.02109562500846,,,,,,,,,328.01560733299993,328.36498679099896,329.15981137500785,329.1487986660068,329.1491722909996,329.15981137500785,329.15981137500785,329.15981137500785,,329.747331999999,,,,,,,,,,,,,,,,,,,,,,,,,,,,,,right,1.0,0.5817729579866864,,,,,sub-106,1,random_dot,,
left,left,11.0,1.0,5.0,left,1.0,0.5170655830006581,,speed,space,5.6767262919893255,,,,,,0.0,1.0,1.0,1.0,5.0,1.0,11.0,0.0,329.75419820800016,,,,,,,,,329.747704333,330.9529624160059,331.74812883300183,331.74061229100334,331.7412537909986,331.74812883300183,331.74812883300183,331.74812883300183,,332.27030883300176,,,,,,,,,,,,,,,,,,,,,,,,,,,,,,left,1.0,0.5170655830006581,,,,,sub-106,1,random_dot,,
right,right,12.0,0.0,6.0,right,1.0,0.4471811249968596,,speed,space,5.6767262919893255,,,,,,0.0,1.0,1.0,1.0,6.0,0.0,12.0,1.0,332.2771484160039,,,,,,,,,332.27070320800703,333.4772787910042,334.2676707500068,334.2613833750074,334.26180341599684,334.2676707500068,334.2676707500068,334.2676707500068,,334.72227399999974,,,,,,,,,,,,,,,,,,,,,,,,,,,,,,right,1.0,0.4471811249968596,,,,,sub-106,1,random_dot,,
left,left,13.0,1.0,6.0,left,1.0,0.4905090410029515,,speed,space,5.6767262919893255,,,,,,0.0,1.0,1.0,1.0,6.0,1.0,13.0,0.0,334.7287897500064,,,,,,,,,334.72258204100945,335.5098270830058,336.3006098330079,336.29417279100744,336.2946226659988,336.3006098330079,336.3006098330079,336.3006098330079,,336.8004439580109,,,,,,,,,,,,,,,,,,,,,,,,,,,,,,left,1.0,0.4905090410029515,,,,,sub-106,1,random_dot,,
right,right,14.0,0.0,7.0,right,1.0,0.4748661659978097,,speed,space,5.6767262919893255,,,,,,0.0,1.0,1.0,1.0,7.0,0.0,14.0,1.0,336.8066938330012,,,,,,,,,336.80081549999886,337.98923754099815,338.7869000830105,338.7802230410016,338.78063420800027,338.7869000830105,338.7869000830105,338.7869000830105,,339.266882750002,,,,,,,,,,,,,,,,,,,,,,,,,,,,,,right,1.0,0.4748661659978097,,,,,sub-106,1,random_dot,,
left,left,15.0,1.0,7.0,left,1.0,0.5008935830119299,,speed,space,5.6767262919893255,,,,,,0.0,1.0,1.0,1.0,7.0,1.0,15.0,0.0,339.2771443750098,,,,,,,,,339.26724524999736,339.3677625410055,340.16835645800165,340.1620789160079,340.1624642079987,340.16835645800165,340.16835645800165,340.16835645800165,,340.67238204099704,,,,,,,,,,,,,,,,,,,,,,,,,,,,,,left,1.0,0.5008935830119299,,,,,sub-106,1,random_dot,,
left,left,16.0,0.0,8.0,left,1.0,1.1492601669888245,,speed,space,5.6767262919893255,,,,,,0.0,1.0,1.0,1.0,8.0,0.0,16.0,0.0,340.6793483329966,,,,,,,,,340.6727350000001,340.769544625,341.5646505830082,341.5578622080065,341.5582956660073,341.5646505830082,341.5646505830082,341.5646505830082,,342.7248822499969,,,,,,,,,,,,,,,,,,,,,,,,,,,,,,left,1.0,1.1492601669888245,,,,,sub-106,1,random_dot,,
right,right,17.0,1.0,8.0,right,1.0,0.4217812080023577,,speed,space,5.6767262919893255,,,,,,0.0,1.0,1.0,1.0,8.0,1.0,17.0,1.0,342.7316732909967,,,,,,,,,342.7252553750004,343.9143122910027,344.7280825830094,344.70686062501045,344.7072854580037,344.7280825830094,344.7280825830094,344.7280825830094,,345.1575821250008,,,,,,,,,,,,,,,,,,,,,,,,,,,,,,right,1.0,0.4217812080023577,,,,,sub-106,1,random_dot,,
right,right,18.0,0.0,9.0,left,0.0,0.3569947920041159,,speed,space,5.6767262919893255,,,,,,0.0,1.0,1.0,1.0,9.0,0.0,18.0,1.0,345.1654187910026,,,,,,,,,345.1578955830046,345.2458242080029,346.0472721660044,346.04079216600803,346.04120700000203,346.0472721660044,346.0472721660044,346.0472721660044,,346.4201552500017,,,,,,,,,,,,,,,,,,,,,,,,,,,,,,left,0.0,0.3569947920041159,,,,,sub-106,1,random_dot,,
left,left,19.0,1.0,9.0,left,1.0,0.5878269579989137,,speed,space,5.6767262919893255,,,,,,0.0,1.0,1.0,1.0,9.0,1.0,19.0,0.0,346.42676833301084,,,,,,,,,346.4204787500057,347.6265442080039,348.41882845800137,348.41337024999666,348.41375466600584,348.41882845800137,348.41882845800137,348.41882845800137,,349.00944075000007,,,,,,,,,,,,,,,,,,,,,,,,,,,,,,left,1.0,0.5878269579989137,,,,,sub-106,1,random_dot,,
left,left,20.0,0.0,10.0,left,1.0,0.8317427919973852,,speed,space,5.6767262919893255,,,,,,0.0,1.0,1.0,1.0,10.0,0.0,20.0,0.0,349.0189462499984,,,,,,,,,349.0097647500079,349.8072030409967,350.60282887500944,350.59041474999685,350.5908307500067,350.60282887500944,350.60282887500944,350.60282887500944,,351.43711387499934,,,,,,,,,,,,,,,,,,,,,,,,,,,,,,left,1.0,0.8317427919973852,,,,,sub-106,1,random_dot,,
right,right,21.0,1.0,10.0,right,1.0,0.9665523750009016,,speed,space,5.6767262919893255,,,,,,0.0,1.0,1.0,1.0,10.0,1.0,21.0,1.0,351.4437032499991,,,,,,,,,351.4375247910066,351.5349065409973,352.3255196250102,352.31851466601074,352.3192995830032,352.3255196250102,352.3255196250102,352.3255196250102,,353.30352466600016,,,,,,,,,,,,,,,,,,,,,,,,,,,,,,right,1.0,0.9665523750009016,,,,,sub-106,1,random_dot,,
right,right,22.0,0.0,11.0,right,1.0,0.8154464580002241,,speed,space,5.6767262919893255,,,,,,0.0,1.0,1.0,1.0,11.0,0.0,22.0,1.0,353.30988516600337,,,,,,,,,353.30402325000614,354.493243541001,355.2908269160107,355.2830970000068,355.28374620800605,355.2908269160107,355.2908269160107,355.2908269160107,,356.12196041599964,,,,,,,,,,,,,,,,,,,,,,,,,,,,,,right,1.0,0.8154464580002241,,,,,sub-106,1,random_dot,,
left,left,23.0,1.0,11.0,left,1.0,0.5238935000088532,,speed,space,5.6767262919893255,,,,,,0.0,1.0,1.0,1.0,11.0,1.0,23.0,0.0,356.1287786660105,,,,,,,,,356.1223910830013,357.3143830409972,358.1067957500054,358.09926245801034,358.0999706660077,358.1067957500054,358.1067957500054,358.1067957500054,,358.6422935830051,,,,,,,,,,,,,,,,,,,,,,,,,,,,,,left,1.0,0.5238935000088532,,,,,sub-106,1,random_dot,,
left,left,24.0,0.0,12.0,left,1.0,0.8319032919971505,,speed,space,5.6767262919893255,,,,,,0.0,1.0,1.0,1.0,12.0,0.0,24.0,0.0,358.6483437080024,,,,,,,,,358.64273108300404,358.73009012499824,359.5230918330053,359.5153971250111,359.516091041005,359.5230918330053,359.5230918330053,359.5230918330053,,360.3569539160089,,,,,,,,,,,,,,,,,,,,,,,,,,,,,,left,1.0,0.8319032919971505,,,,,sub-106,1,random_dot,,
right,right,25.0,1.0,12.0,right,1.0,0.6481262919987785,,speed,space,5.6767262919893255,,,,,,0.0,1.0,1.0,1.0,12.0,1.0,25.0,1.0,360.3647737080028,,,,,,,,,360.3572645410022,361.1476420000108,361.9427168330003,361.93625091599824,361.93665379101,361.9427168330003,361.9427168330003,361.9427168330003,,362.60188766600913,,,,,,,,,,,,,,,,,,,,,,,,,,,,,,right,1.0,0.6481262919987785,,,,,sub-106,1,random_dot,,
right,right,26.0,0.0,13.0,right,1.0,0.5790055419929558,,speed,space,5.6767262919893255,,,,,,0.0,1.0,1.0,1.0,13.0,0.0,26.0,1.0,362.6058144160052,,,,,,,,,362.6020890829968,362.68905470799655,363.4852559160063,363.4723635410046,363.472705416003,363.4852559160063,363.4852559160063,363.4852559160063,,364.0681855830044,,,,,,,,,,,,,,,,,,,,,,,,,,,,,,right,1.0,0.5790055419929558,,,,,sub-106,1,random_dot,,
left,left,27.0,1.0,13.0,left,1.0,0.5918247090012301,,speed,space,5.6767262919893255,,,,,,0.0,1.0,1.0,1.0,13.0,1.0,27.0,0.0,364.0749915000051,,,,,,,,,364.0685511659976,364.1572297079984,364.95513450000726,364.9476681250089,364.948449500007,364.95513450000726,364.95513450000726,364.95513450000726,,365.5547234999976,,,,,,,,,,,,,,,,,,,,,,,,,,,,,,left,1.0,0.5918247090012301,,,,,sub-106,1,random_dot,,
left,left,28.0,0.0,14.0,left,1.0,0.5369516250066226,,speed,space,5.6767262919893255,,,,,,0.0,1.0,1.0,1.0,14.0,0.0,28.0,0.0,365.5613890000095,,,,,,,,,365.555028666,366.7617867079971,367.5606472910004,367.5544027080032,367.55479904099775,367.5606472910004,367.5606472910004,367.5606472910004,,368.10171937500127,,,,,,,,,,,,,,,,,,,,,,,,,,,,,,left,1.0,0.5369516250066226,,,,,sub-106,1,random_dot,,
right,right,29.0,1.0,14.0,right,1.0,0.4990440000110538,,speed,space,5.6767262919893255,,,,,,0.0,1.0,1.0,1.0,14.0,1.0,29.0,1.0,368.10736025001097,,,,,,,,,368.10199658300553,369.2928091659997,370.09669108300295,370.0892522500071,370.0901621250087,370.09669108300295,370.09669108300295,370.09669108300295,,370.60094400000526,,,,,,,,,,,,,,,,,,,,,,,,,,,,,,right,1.0,0.4990440000110538,,,,,sub-106,1,random_dot,,
left,left,30.0,0.0,15.0,left,1.0,0.5559501250099856,,speed,space,5.6767262919893255,,,,,,0.0,1.0,1.0,1.0,15.0,0.0,30.0,0.0,370.60744245800015,,,,,,,,,370.6012485829997,371.7948828329973,372.5905879580096,372.5780131250067,372.5784269160067,372.5905879580096,372.5905879580096,372.5905879580096,,373.1484653750085,,,,,,,,,,,,,,,,,,,,,,,,,,,,,,left,1.0,0.5559501250099856,,,,,sub-106,1,random_dot,,
right,right,31.0,1.0,15.0,right,1.0,0.5816645000013523,,speed,space,5.6767262919893255,,,,,,0.0,1.0,1.0,1.0,15.0,1.0,31.0,1.0,373.1615296250093,,,,,,,,,373.1487556659995,373.2655461250106,374.0563237500028,374.0495971659984,374.0500125830004,374.0563237500028,374.0563237500028,374.0563237500028,,374.645867750005,,,,,,,,,,,,,,,,,,,,,,,,,,,,,,right,1.0,0.5816645000013523,,,,,sub-106,1,random_dot,,
right,right,32.0,0.0,16.0,right,1.0,0.9222149170091144,,speed,space,5.6767262919893255,,,,,,0.0,1.0,1.0,1.0,16.0,0.0,32.0,1.0,374.6542971250019,,,,,,,,,374.6461785410065,375.4354841250024,376.2316659580101,376.2184950829978,376.21894120800425,376.2316659580101,376.2316659580101,376.2316659580101,,377.1714053750038,,,,,,,,,,,,,,,,,,,,,,,,,,,,,,right,1.0,0.9222149170091144,,,,,sub-106,1,random_dot,,
left,left,33.0,1.0,16.0,left,1.0,0.6189975419983966,,speed,space,5.6767262919893255,,,,,,0.0,1.0,1.0,1.0,16.0,1.0,33.0,0.0,377.17838754100376,,,,,,,,,377.171901958005,377.27529554101056,378.0691322909988,378.06276625000464,378.06321000000753,378.0691322909988,378.0691322909988,378.0691322909988,,378.6935677080037,,,,,,,,,,,,,,,,,,,,,,,,,,,,,,left,1.0,0.6189975419983966,,,,,sub-106,1,random_dot,,
left,left,34.0,0.0,17.0,left,1.0,0.6077861249941634,,speed,space,5.6767262919893255,,,,,,0.0,1.0,1.0,1.0,17.0,0.0,34.0,0.0,378.69949358300073,,,,,,,,,378.6939977910079,378.78014441599953,379.5736850410031,379.5674845000031,379.5679296660092,379.5736850410031,379.5736850410031,379.5736850410031,,380.1832731250033,,,,,,,,,,,,,,,,,,,,,,,,,,,,,,left,1.0,0.6077861249941634,,,,,sub-106,1,random_dot,,
right,right,35.0,1.0,17.0,right,1.0,0.5219318339950405,,speed,space,5.6767262919893255,,,,,,0.0,1.0,1.0,1.0,17.0,1.0,35.0,1.0,380.1900921250053,,,,,,,,,380.1837081660051,381.38370620799833,382.1874579580035,382.1801224160008,382.180977875003,382.1874579580035,382.1874579580035,382.1874579580035,,382.7108770409977,,,,,,,,,,,,,,,,,,,,,,,,,,,,,,right,1.0,0.5219318339950405,,,,,sub-106,1,random_dot,,
left,left,36.0,0.0,18.0,left,1.0,0.6195699999952922,,speed,space,5.6767262919893255,,,,,,0.0,1.0,1.0,1.0,18.0,0.0,36.0,0.0,382.7243635830091,,,,,,,,,382.7111671250023,383.51184824999655,384.30850820800697,384.3021922909975,384.3026077079994,384.30850820800697,384.30850820800697,384.30850820800697,,384.9378927080106,,,,,,,,,,,,,,,,,,,,,,,,,,,,,,left,1.0,0.6195699999952922,,,,,sub-106,1,random_dot,,
right,right,37.0,1.0,18.0,right,1.0,0.5428003749984782,,speed,space,5.6767262919893255,,,,,,0.0,1.0,1.0,1.0,18.0,1.0,37.0,1.0,384.944680540997,,,,,,,,,384.9381782910059,385.7368468750065,386.5547452080064,386.5315805830032,386.532017333011,386.5547452080064,386.5547452080064,386.5547452080064,,387.1068974160007,,,,,,,,,,,,,,,,,,,,,,,,,,,,,,right,1.0,0.5428003749984782,,,,,sub-106,1,random_dot,,
right,right,38.0,0.0,19.0,right,1.0,0.8099010000005364,,speed,space,5.6767262919893255,,,,,,0.0,1.0,1.0,1.0,19.0,0.0,38.0,1.0,387.11401104100514,,,,,,,,,387.1072582500056,387.4456721660099,388.2471274999989,388.24077225000656,388.2411790830083,388.2471274999989,388.2471274999989,388.2471274999989,,389.0679144580063,,,,,,,,,,,,,,,,,,,,,,,,,,,,,,right,1.0,0.8099010000005364,,,,,sub-106,1,random_dot,,
left,left,39.0,1.0,19.0,left,1.0,0.5437313750007888,,speed,space,5.6767262919893255,,,,,,0.0,1.0,1.0,1.0,19.0,1.0,39.0,0.0,389.0735253330058,,,,,,,,,389.068335916003,389.8550300409988,390.65012879100686,390.6434969160037,390.64462620799895,390.65012879100686,390.65012879100686,390.65012879100686,,391.2001407909993,,,,,,,,,,,,,,,,,,,,,,,,,,,,,,left,1.0,0.5437313750007888,,,,,sub-106,1,random_dot,,
right,right,40.0,0.0,20.0,right,1.0,0.5682741250057006,,speed,space,5.6767262919893255,,,,,,0.0,1.0,1.0,1.0,20.0,0.0,40.0,1.0,391.20712812501006,,,,,,,,,391.20061654099845,391.2882157080021,392.0824847909971,392.07619887500186,392.0765777909983,392.0824847909971,392.0824847909971,392.0824847909971,,392.6672518330015,,,,,,,,,,,,,,,,,,,,,,,,,,,,,,right,1.0,0.5682741250057006,,,,,sub-106,1,random_dot,,
left,left,41.0,1.0,20.0,left,1.0,0.6300632500060601,,speed,space,5.6767262919893255,,,,,,0.0,1.0,1.0,1.0,20.0,1.0,41.0,0.0,392.6741947499977,,,,,,,,,392.6676683749975,393.4752068329981,394.2773032910045,394.2697505410033,394.2705420830025,394.2773032910045,394.2773032910045,394.2773032910045,,394.91485529100464,,,,,,,,,,,,,,,,,,,,,,,,,,,,,,left,1.0,0.6300632500060601,,,,,sub-106,1,random_dot,,
right,right,42.0,0.0,21.0,right,1.0,0.4503537499986123,,speed,space,5.6767262919893255,,,,,,0.0,1.0,1.0,1.0,21.0,0.0,42.0,1.0,394.92158925000695,,,,,,,,,394.91523600000073,395.26970583300863,396.0644190000021,396.0579508750088,396.058381750001,396.0644190000021,396.0644190000021,396.0644190000021,,396.5169926660019,,,,,,,,,,,,,,,,,,,,,,,,,,,,,,right,1.0,0.4503537499986123,,,,,sub-106,1,random_dot,,
left,left,43.0,1.0,21.0,left,1.0,0.5205832500068936,,speed,space,5.6767262919893255,,,,,,0.0,1.0,1.0,1.0,21.0,1.0,43.0,0.0,396.5269263750088,,,,,,,,,396.51732666599855,397.7332281660056,398.5316519580083,398.5245821249992,398.52502025000285,398.5316519580083,398.5316519580083,398.5316519580083,,399.05399462500645,,,,,,,,,,,,,,,,,,,,,,,,,,,,,,left,1.0,0.5205832500068936,,,,,sub-106,1,random_dot,,
right,right,44.0,0.0,22.0,right,1.0,0.4669171249988721,,speed,space,5.6767262919893255,,,,,,0.0,1.0,1.0,1.0,22.0,0.0,44.0,1.0,399.0607957500033,,,,,,,,,399.05442558300274,399.4067003750097,400.2163835000101,400.19510566600366,400.19547625001,400.2163835000101,400.2163835000101,400.2163835000101,,400.6996523330017,,,,,,,,,,,,,,,,,,,,,,,,,,,,,,right,1.0,0.4669171249988721,,,,,sub-106,1,random_dot,,
left,left,45.0,1.0,22.0,left,1.0,0.4726977499958593,,speed,space,5.6767262919893255,,,,,,0.0,1.0,1.0,1.0,22.0,1.0,45.0,0.0,400.706196625004,,,,,,,,,400.70000087500375,400.8086436660087,401.6104216250096,401.60517320800864,401.60558870800014,401.6104216250096,401.6104216250096,401.6104216250096,,402.0884054580092,,,,,,,,,,,,,,,,,,,,,,,,,,,,,,left,1.0,0.4726977499958593,,,,,sub-106,1,random_dot,,
left,left,46.0,0.0,23.0,left,1.0,0.6338663329952396,,speed,space,5.6767262919893255,,,,,,0.0,1.0,1.0,1.0,23.0,0.0,46.0,0.0,402.0952300830104,,,,,,,,,402.0887710000097,402.1971515000041,403.00010108300194,402.99293533300806,402.9936411250092,403.00010108300194,403.00010108300194,403.00010108300194,,403.6359158330015,,,,,,,,,,,,,,,,,,,,,,,,,,,,,,left,1.0,0.6338663329952396,,,,,sub-106,1,random_dot,,
right,right,47.0,1.0,23.0,right,1.0,0.59695829199336,,speed,space,5.6767262919893255,,,,,,0.0,1.0,1.0,1.0,23.0,1.0,47.0,1.0,403.6428035830031,,,,,,,,,403.6362497500086,404.84393429099873,405.6432867080002,405.6363908330095,405.6368281250034,405.6432867080002,405.6432867080002,405.6432867080002,,406.2498337500001,,,,,,,,,,,,,,,,,,,,,,,,,,,,,,right,1.0,0.59695829199336,,,,,sub-106,1,random_dot,,
left,left,48.0,0.0,24.0,left,1.0,0.4932858749962179,,speed,space,5.6767262919893255,,,,,,0.0,1.0,1.0,1.0,24.0,0.0,48.0,0.0,406.25608762500633,,,,,,,,,406.25012720799714,407.0471392080072,407.8484033749992,407.84099416600657,407.8414134580089,407.8484033749992,407.8484033749992,407.8484033749992,,408.36279108301096,,,,,,,,,,,,,,,,,,,,,,,,,,,,,,left,1.0,0.4932858749962179,,,,,sub-106,1,random_dot,,
right,right,49.0,1.0,24.0,right,1.0,0.5191732910025166,,speed,space,5.6767262919893255,,,,,,0.0,1.0,1.0,1.0,24.0,1.0,49.0,1.0,408.3693510000012,,,,,,,,,408.3631411660026,409.56364904101065,410.36640333299874,410.3595092500036,410.3604145830032,410.36640333299874,410.36640333299874,410.36640333299874,,410.8970847500023,,,,,,,,,,,,,,,,,,,,,,,,,,,,,,right,1.0,0.5191732910025166,,,,,sub-106,1,random_dot,,
right,right,50.0,0.0,25.0,right,1.0,0.6210096670110943,,speed,space,5.6767262919893255,,,,,,0.0,1.0,1.0,1.0,25.0,0.0,50.0,1.0,410.9031499999983,,,,,,,,,410.8974562910007,411.2363857500022,412.0266002080025,412.019652832998,412.020093500003,412.0266002080025,412.0266002080025,412.0266002080025,,412.6495248330029,,,,,,,,,,,,,,,,,,,,,,,,,,,,,,right,1.0,0.6210096670110943,,,,,sub-106,1,random_dot,,
left,left,51.0,1.0,25.0,left,1.0,0.552137083010166,,speed,space,5.6767262919893255,,,,,,0.0,1.0,1.0,1.0,25.0,1.0,51.0,0.0,412.6572302910063,,,,,,,,,412.6499239160039,412.9988518750033,413.7936084160028,413.7865590410074,413.786987790998,413.7936084160028,413.7936084160028,413.7936084160028,,414.3623864580004,,,,,,,,,,,,,,,,,,,,,,,,,,,,,,left,1.0,0.552137083010166,,,,,sub-106,1,random_dot,,
right,right,52.0,0.0,26.0,right,1.0,0.5128376670036232,,speed,space,5.6767262919893255,,,,,,0.0,1.0,1.0,1.0,26.0,0.0,52.0,1.0,414.3693145830039,,,,,,,,,414.3628597909992,414.70956883300096,415.5093312079989,415.503203500004,415.5037191660085,415.5093312079989,415.5093312079989,415.5093312079989,,416.0290912500059,,,,,,,,,,,,,,,,,,,,,,,,,,,,,,right,1.0,0.5128376670036232,,,,,sub-106,1,random_dot,,
left,left,53.0,1.0,26.0,left,1.0,0.580669000002672,,speed,space,5.6767262919893255,,,,,,0.0,1.0,1.0,1.0,26.0,1.0,53.0,0.0,416.0357472500036,,,,,,,,,416.0294740410027,416.13152525000623,416.9320547500101,416.91719004100014,416.9175902910065,416.9320547500101,416.9320547500101,416.9320547500101,,417.52207200000703,,,,,,,,,,,,,,,,,,,,,,,,,,,,,,left,1.0,0.580669000002672,,,,,sub-106,1,random_dot,,
left,left,54.0,0.0,27.0,left,1.0,0.7898616669990588,,speed,space,5.6767262919893255,,,,,,0.0,1.0,1.0,1.0,27.0,0.0,54.0,0.0,417.527958125007,,,,,,,,,417.5224425000051,417.86469266600034,418.6564507500007,418.6495087910007,418.64992683300807,418.6564507500007,418.6564507500007,418.6564507500007,,419.4718472500099,,,,,,,,,,,,,,,,,,,,,,,,,,,,,,left,1.0,0.7898616669990588,,,,,sub-106,1,random_dot,,
right,right,55.0,1.0,27.0,right,1.0,0.6278376659902278,,speed,space,5.6767262919893255,,,,,,0.0,1.0,1.0,1.0,27.0,1.0,55.0,1.0,419.4752596250037,,,,,,,,,419.4721755409992,420.6613325409999,421.4560143749986,421.4456899580109,421.4460760410002,421.4560143749986,421.4560143749986,421.4560143749986,,422.0863537910045,,,,,,,,,,,,,,,,,,,,,,,,,,,,,,right,1.0,0.6278376659902278,,,,,sub-106,1,random_dot,,
right,right,56.0,0.0,28.0,right,1.0,0.6610627080081031,,speed,space,5.6767262919893255,,,,,,0.0,1.0,1.0,1.0,28.0,0.0,56.0,1.0,422.0980970000092,,,,,,,,,422.08674483301,422.1777094580029,422.9876509580063,422.9804797079996,422.9814034580049,422.9876509580063,422.9876509580063,422.9876509580063,,423.65471783300745,,,,,,,,,,,,,,,,,,,,,,,,,,,,,,right,1.0,0.6610627080081031,,,,,sub-106,1,random_dot,,
left,left,57.0,1.0,28.0,left,1.0,0.6114787080005044,,speed,space,5.6767262919893255,,,,,,0.0,1.0,1.0,1.0,28.0,1.0,57.0,0.0,423.6611750000011,,,,,,,,,423.6552075829968,424.0059410000104,424.8137832909997,424.8061439580051,424.8071132080077,424.8137832909997,424.8137832909997,424.8137832909997,,425.4383734160074,,,,,,,,,,,,,,,,,,,,,,,,,,,,,,left,1.0,0.6114787080005044,,,,,sub-106,1,random_dot,,
right,right,58.0,0.0,29.0,right,1.0,0.5840122920053545,,speed,space,5.6767262919893255,,,,,,0.0,1.0,1.0,1.0,29.0,0.0,58.0,1.0,425.4445235000021,,,,,,,,,425.4387657500047,426.6271327499999,427.441222791007,427.419220249998,427.41964504100906,427.441222791007,427.441222791007,427.441222791007,,428.03284070800873,,,,,,,,,,,,,,,,,,,,,,,,,,,,,,right,1.0,0.5840122920053545,,,,,sub-106,1,random_dot,,
left,left,59.0,1.0,29.0,left,1.0,0.5934883750014706,,speed,space,5.6767262919893255,,,,,,0.0,1.0,1.0,1.0,29.0,1.0,59.0,0.0,428.03723300001,,,,,,,,,428.0331436249981,428.82332162500825,429.6208028330002,429.6074986250024,429.60792908300937,429.6208028330002,429.6208028330002,429.6208028330002,,430.2169540830073,,,,,,,,,,,,,,,,,,,,,,,,,,,,,,left,1.0,0.5934883750014706,,,,,sub-106,1,random_dot,,
,,1.0,1.0,0.0,,,,,speed,space,5.6767262919893255,,,,,,0.0,1.0,1.0,1.0,,,,,,,,,,,,,,,,,,,,,,,,,,,,,,,,,,,,,,,,,,,,,,,,,,,,,,,,,,,,sub-106,1,random_dot,,
,,,,,,,,,,,,,,,,,,,,,,,,,,,,,,,,,,,,,,,,,,,,,,,,,,,,,,,,,,,,,,,,,,,,,,,,,,,,,430.2207437080069,430.2270339160023,435.22691995800415,sub-106,1,random_dot,,
