direction,corrAns,randomInstr,practice_trials.thisRepN,practice_trials.thisTrialN,practice_trials.thisN,practice_trials.thisIndex,instr_trials.thisRepN,instr_trials.thisTrialN,instr_trials.thisN,instr_trials.thisIndex,test_trials.thisRepN,test_trials.thisTrialN,test_trials.thisN,test_trials.thisIndex,thisRow.t,notes,general_instruction.started,textGeneralInstr.started,respGeneralInstr.started,general_instruction.stopped,respGeneralInstr.keys,respGeneralInstr.rt,respGeneralInstr.duration,ITI.started,fixcross.started,fixcross.stopped,ITI.stopped,dots.started,backgroundDots.started,stimulusDots.started,respDots.started,stimulusDots.stopped,dots.stopped,respDots.keys,respDots.corr,respDots.rt,respDots.duration,feedback.started,textFeedback.started,feedback.stopped,textFeedback.stopped,info.started,textInfo.started,keyRespInfo.started,info.stopped,keyRespInfo.keys,keyRespInfo.rt,keyRespInfo.duration,test_instruction.started,textTestInstr.started,respTestInstr.started,test_instruction.stopped,respTestInstr.keys,respTestInstr.rt,respTestInstr.duration,random_instruction.started,textRandomInstr.started,respRandomInstr.started,random_instruction.stopped,respRandomInstr.keys,respRandomInstr.rt,respRandomInstr.duration,goodbye.started,textGoodbye.started,textGoodbye.stopped,goodbye.stopped,participant,session,expName,frameRate,Unnamed: 74
,,,,,,,,,,,,,,,,,0.0090846999082714,0.0243410000111907,0.0243410000111907,19.38998520001769,space,54.725691500119865,,,,,,,,,,,,,,,,,,,,,,,,,,,,,,,,,,,,,,,,,,,,,sub-034,1.0,random_dot,60.01554396259124,
right,right,,0.0,0.0,0.0,1.0,,,,,,,,,19.45991929993033,,,,,,,,,19.453923899913207,19.506050599971783,20.31101159984246,20.289652599953115,20.289677599910647,20.31101159984246,20.31101159984246,20.31101159984246,25.28831319999881,25.45656579989009,right,1.0,40.51098300004378,,25.45789199997671,25.473580199992284,25.97182559990324,,,,,,,,,,,,,,,,,,,,,,,,,,,sub-034,1.0,random_dot,60.01554396259124,
left,left,,0.0,1.0,1.0,0.0,,,,,,,,,25.98836459987797,,,,,,,,,25.972262399969622,26.77136010001413,27.571604599943385,27.555310299852863,27.55533259990625,27.571604599943385,27.571604599943385,27.571604599943385,32.57085540005937,38.3876340999268,left,1.0,46.17013790016063,,38.38814929989167,38.4031704000663,38.8870264000725,38.90326419984922,,,,,,,,,,,,,,,,,,,,,,,,,,sub-034,1.0,random_dot,60.01554396259124,
right,right,,1.0,0.0,2.0,1.0,,,,,,,,,38.90326419984922,,,,,,,,,38.88739569997415,40.103287799982354,40.90301460004412,40.88812620006502,40.8881516000256,40.90301460004412,40.90301460004412,40.90301460004412,,44.75391049985774,right,1.0,39.20145209995098,,44.75454710004851,44.76926900004037,45.25319519988261,45.26936489995569,,,,,,,,,,,,,,,,,,,,,,,,,,sub-034,1.0,random_dot,60.01554396259124,
left,left,,1.0,1.0,3.0,0.0,,,,,,,,,45.26936489995569,,,,,,,,,45.25367489992641,46.06914409995079,46.8690470000729,46.8528133998625,46.85283500002697,46.8690470000729,46.8690470000729,46.8690470000729,,50.669326399918646,left,1.0,39.15788630000316,,50.669810799881816,50.68523249984719,51.16905079991557,51.18514349986799,,,,,,,,,,,,,,,,,,,,,,,,,,sub-034,1.0,random_dot,60.01554396259124,
left,left,,2.0,0.0,4.0,0.0,,,,,,,,,51.18514349986799,,,,,,,,,51.16950670001097,52.38500489993021,53.18471579998732,53.16885640006512,53.16887819999829,53.18471579998732,53.18471579998732,53.18471579998732,,57.635266199940816,left,1.0,39.81436560023576,,57.63577589998022,57.6507333999034,58.13483390002512,58.15093160001561,,,,,,,,,,,,,,,,,,,,,,,,,,sub-034,1.0,random_dot,60.01554396259124,
right,right,,2.0,1.0,5.0,1.0,,,,,,,,,58.15093160001561,,,,,,,,,58.13523199991323,58.95055889990181,59.75049649993889,59.734465199988335,59.734486599918455,59.75049649993889,59.75049649993889,59.75049649993889,,61.16819039988332,right,1.0,36.78154830005951,,61.16872329986654,61.18388079991564,61.66837259987369,61.68416439997964,,,,,,,,,,,,,,,,,,,,,,,,,,sub-034,1.0,random_dot,60.01554396259124,
left,left,,3.0,0.0,6.0,0.0,,,,,,,,,61.68416439997964,,,,,,,,,61.668983599869534,62.88424340006896,63.68377749994397,63.66800049995072,63.66801799996756,63.68377749994397,63.68377749994397,63.68377749994397,,64.56775759998709,left,1.0,36.24798390013166,,64.5682238000445,64.58319430006668,65.06714309984818,65.08302529994398,,,,,,,,,,,,,,,,,,,,,,,,,,sub-034,1.0,random_dot,60.01554396259124,
right,right,,3.0,1.0,7.0,1.0,,,,,,,,,65.08302529994398,,,,,,,,,65.06752609997056,65.18322409992106,65.98310329997912,65.96708029997535,65.96710180002265,65.98310329997912,65.98310329997912,65.98310329997912,,66.81733729992993,right,1.0,36.19419000018388,,66.81781039992347,66.83295030007139,67.31700879987329,67.33297799993306,,,,,,,,,,,,,,,,,,,,,,,,,,sub-034,1.0,random_dot,60.01554396259124,
left,left,,4.0,0.0,8.0,0.0,,,,,,,,,67.33297799993306,,,,,,,,,67.3174053998664,67.68296099989675,68.48291849996895,68.46678170002997,68.46680249995552,68.48291849996895,68.48291849996895,68.48291849996895,,69.40054779988714,left,1.0,36.27642409992404,,69.40111660002731,69.41614579991437,69.89986480004154,69.91588309989311,,,,,,,,,,,,,,,,,,,,,,,,,,sub-034,1.0,random_dot,60.01554396259124,
right,right,,4.0,1.0,9.0,1.0,,,,,,,,,69.91588309989311,,,,,,,,,69.90021530003287,71.11847670003772,71.93247979995795,71.91625280003063,71.91627179994248,71.93247979995795,71.93247979995795,71.93247979995795,,72.61721709999256,right,1.0,36.04680850007571,,72.61790059995838,72.63258049986325,73.11613669991493,73.13236339995638,,,,,,,,,,,,,,,,,,,,,,,,,,sub-034,1.0,random_dot,60.01554396259124,
right,right,,5.0,0.0,10.0,1.0,,,,,,,,,73.13236339995638,,,,,,,,,73.11650869995356,73.93199909990653,74.73199269990437,74.71615069988184,74.71617270004936,74.73199269990437,74.73199269990437,74.73199269990437,,75.34992199996486,left,0.0,35.96927429991774,,75.35050769988447,75.36542409984395,75.8492217999883,75.86517019988969,,,,,,,,,,,,,,,,,,,,,,,,,,sub-034,1.0,random_dot,60.01554396259124,
left,left,,5.0,1.0,11.0,0.0,,,,,,,,,75.86517019988969,,,,,,,,,75.84965480002575,76.66527109988965,77.46493689995259,77.44889090000652,77.44891020003706,77.46493689995259,77.46493689995259,77.46493689995259,,78.44934499985538,left,1.0,36.34429460018873,,78.44979029987007,78.4646906000562,78.94915920007043,78.96497679990716,,,,,,,,,,,,,,,,,,,,,,,,,,sub-034,1.0,random_dot,60.01554396259124,
right,right,,6.0,0.0,12.0,1.0,,,,,,,,,78.96497679990716,,,,,,,,,78.94962719990872,79.06508189998567,79.86469989991747,79.84848099993542,79.8484974000603,79.86469989991747,79.86469989991747,79.86469989991747,,80.61571280006319,right,1.0,36.11150630004704,,80.61622900003567,80.63138019992039,81.11522029992193,81.13121080002747,,,,,,,,,,,,,,,,,,,,,,,,,,sub-034,1.0,random_dot,60.01554396259124,
left,left,,6.0,1.0,13.0,0.0,,,,,,,,,81.13121080002747,,,,,,,,,81.11561949993484,82.33098419988528,83.13114849990234,83.11508499993943,83.11510729999281,83.13114849990234,83.13114849990234,83.13114849990234,,83.71522699994966,left,1.0,35.9421936001163,,83.71577590005472,83.73084979993291,84.21477989992127,84.2309699000325,,,,,,,,,,,,,,,,,,,,,,,,,,sub-034,1.0,random_dot,60.01554396259124,
right,right,,7.0,0.0,14.0,1.0,,,,,,,,,84.2309699000325,,,,,,,,,84.21517980005592,84.58072460000403,85.38096589990892,85.36502809985541,85.36505370005034,85.38096589990892,85.38096589990892,85.38096589990892,,85.99833570001647,right,1.0,35.982465900015086,,85.9988162999507,86.01395009993576,86.49790579988621,86.51393259991892,,,,,,,,,,,,,,,,,,,,,,,,,,sub-034,1.0,random_dot,60.01554396259124,
left,left,,7.0,1.0,15.0,0.0,,,,,,,,,86.51393259991892,,,,,,,,,86.49832329992205,86.86377499997616,87.66377460001968,87.6477898999583,87.64781009987928,87.66377460001968,87.66377460001968,87.66377460001968,,88.16473719989881,left,1.0,35.862174900015816,,88.16527080000378,88.18047600006685,88.66458250000142,88.68048189999536,,,,,,,,,,,,,,,,,,,,,,,,,,sub-034,1.0,random_dot,60.01554396259124,
left,left,,8.0,0.0,16.0,0.0,,,,,,,,,88.68048189999536,,,,,,,,,88.66504619992338,89.48040560004301,90.28024269989692,90.26420259987935,90.26422549993733,90.28024269989692,90.28024269989692,90.28024269989692,,91.18115939991549,left,1.0,36.26526300003752,,91.18178800004534,91.1967394000385,91.68049880000764,91.6965258999262,,,,,,,,,,,,,,,,,,,,,,,,,,sub-034,1.0,random_dot,60.01554396259124,
right,right,,8.0,1.0,17.0,1.0,,,,,,,,,91.6965258999262,,,,,,,,,91.6808867000509,91.79663260001688,92.59651770000346,92.58051129989326,92.58053519995885,92.59651770000346,92.59651770000346,92.59651770000346,,93.34789299988188,right,1.0,36.114434299990535,,93.34853610000572,93.36325659998693,93.84719870006666,93.86300989985466,,,,,,,,,,,,,,,,,,,,,,,,,,sub-034,1.0,random_dot,60.01554396259124,
right,right,,9.0,0.0,18.0,1.0,,,,,,,,,93.86300989985466,,,,,,,,,93.84764779987744,93.96321960003117,94.7627886000555,94.7467455000151,94.7467644000426,94.7627886000555,94.7627886000555,94.7627886000555,,95.54729969985785,left,0.0,36.14471300016157,,95.5479025999084,95.56266260007396,96.04691609996372,96.06284300005063,,,,,,,,,,,,,,,,,,,,,,,,,,sub-034,1.0,random_dot,60.01554396259124,
left,left,,9.0,1.0,19.0,0.0,,,,,,,,,96.06284300005063,,,,,,,,,96.04736099997535,96.41256690002048,97.21304719988257,97.19725720002316,97.19728860002942,97.21304719988257,97.21304719988257,97.21304719988257,,98.24678899999708,left,1.0,36.395310800056905,,98.24732919991948,98.26240579993464,98.7463509000372,98.76234829984604,,,,,,,,,,,,,,,,,,,,,,,,,,sub-034,1.0,random_dot,60.01554396259124,
,,,,,,,,,,,,,,,,,,,,,,,,,,,,,,,,,,,,,,,,,,98.74641310004516,98.76234829984604,98.76234829984604,102.07977809989823,space,38.67779239988886,,,,,,,,,,,,,,,,,,,,sub-034,1.0,random_dot,60.01554396259124,
,,,,,,,,,,,,,,,,,,,,,,,,,,,,,,,,,,,,,,,,,,,,,,,,,102.07981249992736,102.09519529994576,102.09519529994576,108.49547789990902,space,41.761684299912304,,,,,,,,,,,,,sub-034,1.0,random_dot,60.01554396259124,
left,left,accuracy,,,,,0.0,0.0,0.0,0.0,0.0,0.0,0.0,0.0,114.2438417999074,,,,,,,,,114.23567409999669,114.59379750001244,115.3936767000705,115.37748600007036,115.37750719999894,115.3936767000705,115.3936767000705,115.3936767000705,,116.34459559991956,left,1.0,36.30263819987886,,,,,,,,,,,,,,,,,,,,108.50265119993128,108.52476769988424,108.52476769988424,114.22836799989454,space,41.05621870001778,,,,,,sub-034,1.0,random_dot,60.01554396259124,
right,right,accuracy,,,,,0.0,0.0,0.0,0.0,0.0,1.0,1.0,1.0,116.36009359988384,,,,,,,,,116.3459232999012,117.16013529989868,117.9597604998853,117.94387019984424,117.94388979999349,117.9597604998853,117.9597604998853,117.9597604998853,,118.91071359999478,right,1.0,36.30272739985958,,,,,,,,,,,,,,,,,,,,,,,,,,,,,,,sub-034,1.0,random_dot,60.01554396259124,
left,left,accuracy,,,,,0.0,0.0,0.0,0.0,1.0,0.0,2.0,0.0,118.92640180001035,,,,,,,,,118.9117217999883,120.12638689996676,120.92627669987267,120.90997430006972,120.90999239985833,120.92627669987267,120.92627669987267,120.92627669987267,,121.92704700003378,left,1.0,36.3604697000701,,,,,,,,,,,,,,,,,,,,,,,,,,,,,,,sub-034,1.0,random_dot,60.01554396259124,
right,right,accuracy,,,,,0.0,0.0,0.0,0.0,1.0,1.0,3.0,1.0,121.94262079987676,,,,,,,,,121.92797399987468,122.29266089992598,123.09259309992194,123.07636959990488,123.07638949993998,123.09259309992194,123.09259309992194,123.09259309992194,,124.1435185999144,right,1.0,36.40732860006392,,,,,,,,,,,,,,,,,,,,,,,,,,,,,,,sub-034,1.0,random_dot,60.01554396259124,
left,left,accuracy,,,,,0.0,0.0,0.0,0.0,2.0,0.0,4.0,0.0,124.15919879986905,,,,,,,,,124.14452519989572,124.25898539996706,125.05903090001084,125.04284129990263,125.0428627000656,125.05903090001084,125.05903090001084,125.05903090001084,,126.02658529998736,left,1.0,36.32632969995029,,,,,,,,,,,,,,,,,,,,,,,,,,,,,,,sub-034,1.0,random_dot,60.01554396259124,
right,right,accuracy,,,,,0.0,0.0,0.0,0.0,2.0,1.0,5.0,1.0,126.04229000001214,,,,,,,,,126.0276691999752,127.24188979994506,128.0420871998649,128.02575469994918,128.02577439998277,128.0420871998649,128.0420871998649,128.0420871998649,,130.1260869000107,right,1.0,37.44177819998004,,,,,,,,,,,,,,,,,,,,,,,,,,,,,,,sub-034,1.0,random_dot,60.01554396259124,
right,right,accuracy,,,,,0.0,0.0,0.0,0.0,3.0,0.0,6.0,1.0,130.1418216000311,,,,,,,,,130.12721859989688,130.49176559993066,131.29143409989774,131.27547480002977,131.27549919998273,131.29143409989774,131.29143409989774,131.29143409989774,,132.05908589996395,left,0.0,36.12368720001541,,,,,,,,,,,,,,,,,,,,,,,,,,,,,,,sub-034,1.0,random_dot,60.01554396259124,
left,left,accuracy,,,,,0.0,0.0,0.0,0.0,3.0,1.0,7.0,0.0,132.074779599905,,,,,,,,,132.06015629996546,132.87462499993853,133.67444920004343,133.65853050001897,133.65854989993386,133.67444920004343,133.67444920004343,133.67444920004343,,134.39225429994983,left,1.0,36.07852300000377,,,,,,,,,,,,,,,,,,,,,,,,,,,,,,,sub-034,1.0,random_dot,60.01554396259124,
left,left,accuracy,,,,,0.0,0.0,0.0,0.0,4.0,0.0,8.0,0.0,134.40782369999215,,,,,,,,,134.39329899987206,135.60770839988254,136.4077161999885,136.39168039988726,136.3917026000563,136.4077161999885,136.4077161999885,136.4077161999885,,137.5754221000243,left,1.0,36.51917549991049,,,,,,,,,,,,,,,,,,,,,,,,,,,,,,,sub-034,1.0,random_dot,60.01554396259124,
right,right,accuracy,,,,,0.0,0.0,0.0,0.0,4.0,1.0,9.0,1.0,137.5908550999593,,,,,,,,,137.57673539989628,138.79053110000677,139.59063980006613,139.5748010999523,139.57482580002397,139.59063980006613,139.59063980006613,139.59063980006613,,140.3913950000424,right,1.0,36.15715350001119,,,,,,,,,,,,,,,,,,,,,,,,,,,,,,,sub-034,1.0,random_dot,60.01554396259124,
right,right,accuracy,,,,,0.0,0.0,0.0,0.0,5.0,0.0,10.0,1.0,140.40702140005305,,,,,,,,,140.39248250005767,141.60675779986195,142.40697859995998,142.3910278999247,142.39105179999024,142.40697859995998,142.40697859995998,142.40697859995998,,143.60779979988,right,1.0,36.55689889984205,,,,,,,,,,,,,,,,,,,,,,,,,,,,,,,sub-034,1.0,random_dot,60.01554396259124,
left,left,accuracy,,,,,0.0,0.0,0.0,0.0,5.0,1.0,11.0,0.0,143.62298460002057,,,,,,,,,143.60865279985592,143.97305909986608,144.77313199988566,144.75719469995238,144.75721389986575,144.77313199988566,144.77313199988566,144.77313199988566,,145.490865400061,left,1.0,36.0815508000087,,,,,,,,,,,,,,,,,,,,,,,,,,,,,,,sub-034,1.0,random_dot,60.01554396259124,
left,left,accuracy,,,,,0.0,0.0,0.0,0.0,6.0,0.0,12.0,0.0,145.50625799992122,,,,,,,,,145.49184009991586,146.70650349999778,147.50607879995368,147.49015059997328,147.4901719999034,147.50607879995368,147.50607879995368,147.50607879995368,,148.55733179999515,left,1.0,36.4028483000584,,,,,,,,,,,,,,,,,,,,,,,,,,,,,,,sub-034,1.0,random_dot,60.01554396259124,
right,right,accuracy,,,,,0.0,0.0,0.0,0.0,6.0,1.0,13.0,1.0,148.5727637000382,,,,,,,,,148.55847669998184,149.7724431999959,150.57260559988208,150.5569261999335,150.55695239990018,150.57260559988208,150.57260559988208,150.57260559988208,,151.88985370006412,right,1.0,36.68095510010608,,,,,,,,,,,,,,,,,,,,,,,,,,,,,,,sub-034,1.0,random_dot,60.01554396259124,
right,right,accuracy,,,,,0.0,0.0,0.0,0.0,7.0,0.0,14.0,1.0,151.9056820999831,,,,,,,,,151.89080099994317,152.70539829996414,153.50539269996807,153.4893225999549,153.48934309999458,153.50539269996807,153.50539269996807,153.50539269996807,,155.78956019994803,right,1.0,37.63625829992816,,,,,,,,,,,,,,,,,,,,,,,,,,,,,,,sub-034,1.0,random_dot,60.01554396259124,
left,left,accuracy,,,,,0.0,0.0,0.0,0.0,7.0,1.0,15.0,0.0,155.80511369998567,,,,,,,,,155.7906563000288,156.6049275000114,157.40501359989867,157.38925949996337,157.38928669993766,157.40501359989867,157.40501359989867,157.40501359989867,,158.25584429991432,left,1.0,36.21572900004685,,,,,,,,,,,,,,,,,,,,,,,,,,,,,,,sub-034,1.0,random_dot,60.01554396259124,
left,left,accuracy,,,,,0.0,0.0,0.0,0.0,8.0,0.0,16.0,0.0,158.27146889991127,,,,,,,,,158.25692209997214,158.37144550005905,159.1713759000413,159.15584959997796,159.15586639987305,159.1713759000413,159.1713759000413,159.1713759000413,,160.12248379993252,left,1.0,36.30270659993403,,,,,,,,,,,,,,,,,,,,,,,,,,,,,,,sub-034,1.0,random_dot,60.01554396259124,
right,right,accuracy,,,,,0.0,0.0,0.0,0.0,8.0,1.0,17.0,1.0,160.13812809996307,,,,,,,,,160.1236951998435,160.48764249985106,161.28786060004495,161.2717937999405,161.27181409997866,161.28786060004495,161.28786060004495,161.28786060004495,,161.9721494000405,right,1.0,36.04117699991912,,,,,,,,,,,,,,,,,,,,,,,,,,,,,,,sub-034,1.0,random_dot,60.01554396259124,
left,left,accuracy,,,,,0.0,0.0,0.0,0.0,9.0,0.0,18.0,0.0,161.98761720000766,,,,,,,,,161.97323250002228,163.18762709992006,163.987371499883,163.97137110005133,163.97139049996622,163.987371499883,163.987371499883,163.987371499883,,164.92159929987974,left,1.0,36.29787570005283,,,,,,,,,,,,,,,,,,,,,,,,,,,,,,,sub-034,1.0,random_dot,60.01554396259124,
right,right,accuracy,,,,,0.0,0.0,0.0,0.0,9.0,1.0,19.0,1.0,164.9372749000322,,,,,,,,,164.92262830003165,165.73712299996987,166.53709340002388,166.52100889990106,166.52102679992095,166.53709340002388,166.53709340002388,166.53709340002388,,167.37152639986016,right,1.0,36.1869156002067,,,,,,,,,,,,,,,,,,,,,,,,,,,,,,,sub-034,1.0,random_dot,60.01554396259124,
right,right,accuracy,,,,,0.0,0.0,0.0,0.0,10.0,0.0,20.0,1.0,167.38721790001728,,,,,,,,,167.372281299904,167.48737449990583,168.28677599993534,168.27085829991847,168.2708787000738,168.28677599993534,168.28677599993534,168.28677599993534,,169.77153289993294,right,1.0,36.850984200136736,,,,,,,,,,,,,,,,,,,,,,,,,,,,,,,sub-034,1.0,random_dot,60.01554396259124,
left,left,accuracy,,,,,0.0,0.0,0.0,0.0,10.0,1.0,21.0,0.0,169.78665699996054,,,,,,,,,169.77262929989956,170.98646169994026,171.78633849998005,171.77045199996792,171.77047029999085,171.78633849998005,171.78633849998005,171.78633849998005,,172.45383969997056,left,1.0,36.03077170019969,,,,,,,,,,,,,,,,,,,,,,,,,,,,,,,sub-034,1.0,random_dot,60.01554396259124,
right,right,accuracy,,,,,0.0,0.0,0.0,0.0,11.0,0.0,22.0,1.0,172.46947799995542,,,,,,,,,172.4548088000156,172.5697238999419,173.36950040003285,173.35366779984906,173.35368880000897,173.36950040003285,173.36950040003285,173.36950040003285,,175.0208825999871,right,1.0,37.01288449997082,,,,,,,,,,,,,,,,,,,,,,,,,,,,,,,sub-034,1.0,random_dot,60.01554396259124,
left,left,accuracy,,,,,0.0,0.0,0.0,0.0,11.0,1.0,23.0,0.0,175.03627899987623,,,,,,,,,175.02199619985186,176.23571839998476,177.03601769986562,177.02000400004908,177.02002679998986,177.03601769986562,177.03601769986562,177.03601769986562,,177.6702731999103,left,1.0,35.989068400114775,,,,,,,,,,,,,,,,,,,,,,,,,,,,,,,sub-034,1.0,random_dot,60.01554396259124,
left,left,accuracy,,,,,0.0,0.0,0.0,0.0,12.0,0.0,24.0,0.0,177.68580339988694,,,,,,,,,177.67147429985926,178.4857800998725,179.28542079986073,179.2692058000248,179.26922270003706,179.28542079986073,179.28542079986073,179.28542079986073,,180.03641900001094,left,1.0,36.10513400007039,,,,,,,,,,,,,,,,,,,,,,,,,,,,,,,sub-034,1.0,random_dot,60.01554396259124,
right,right,accuracy,,,,,0.0,0.0,0.0,0.0,12.0,1.0,25.0,1.0,180.0520261998754,,,,,,,,,180.03746709995903,181.2517478999216,182.0517358998768,182.0358430000488,182.03586339997128,182.0517358998768,182.0517358998768,182.0517358998768,,182.9192617000081,right,1.0,36.21997320000082,,,,,,,,,,,,,,,,,,,,,,,,,,,,,,,sub-034,1.0,random_dot,60.01554396259124,
left,left,accuracy,,,,,0.0,0.0,0.0,0.0,13.0,0.0,26.0,0.0,182.93499089987017,,,,,,,,,182.92031519999728,183.73451379989277,184.53502569999543,184.5189236998558,184.51894659991376,184.53502569999543,184.53502569999543,184.53502569999543,,185.3859043000266,left,1.0,36.208211299963295,,,,,,,,,,,,,,,,,,,,,,,,,,,,,,,sub-034,1.0,random_dot,60.01554396259124,
right,right,accuracy,,,,,0.0,0.0,0.0,0.0,13.0,1.0,27.0,1.0,185.40156869986092,,,,,,,,,185.38711820007305,185.5015895999968,186.3014098999556,186.2854929000605,186.28551599988717,186.3014098999556,186.3014098999556,186.3014098999556,,187.6358834998682,right,1.0,36.68491890002042,,,,,,,,,,,,,,,,,,,,,,,,,,,,,,,sub-034,1.0,random_dot,60.01554396259124,
right,right,accuracy,,,,,0.0,0.0,0.0,0.0,14.0,0.0,28.0,1.0,187.6512006998528,,,,,,,,,187.6371547000017,188.45080960006453,189.2507447998505,189.235317699844,189.2353345998563,189.2507447998505,189.2507447998505,189.2507447998505,,190.10234039998613,right,1.0,36.21414930000901,,,,,,,,,,,,,,,,,,,,,,,,,,,,,,,sub-034,1.0,random_dot,60.01554396259124,
left,left,accuracy,,,,,0.0,0.0,0.0,0.0,14.0,1.0,29.0,0.0,190.11749950004744,,,,,,,,,190.1037699999288,190.46721879998225,191.2676546999719,191.2520228999201,191.2520540999249,191.2676546999719,191.2676546999719,191.2676546999719,,192.21866229991429,left,1.0,36.30238040001132,,,,,,,,,,,,,,,,,,,,,,,,,,,,,,,sub-034,1.0,random_dot,60.01554396259124,
right,right,accuracy,,,,,0.0,0.0,0.0,0.0,15.0,0.0,30.0,1.0,192.23411499988288,,,,,,,,,192.2200138999615,193.4336826999206,194.23354529985227,194.2175576998852,194.2175773000345,194.23354529985227,194.23354529985227,194.23354529985227,,195.0849276999943,right,1.0,36.21760520013049,,,,,,,,,,,,,,,,,,,,,,,,,,,,,,,sub-034,1.0,random_dot,60.01554396259124,
left,left,accuracy,,,,,0.0,0.0,0.0,0.0,15.0,1.0,31.0,0.0,195.100208299933,,,,,,,,,195.0860331999138,195.4499733999837,196.2502669999376,196.2342021998484,196.23422940005548,196.2502669999376,196.2502669999376,196.2502669999376,,197.2513039999176,left,1.0,36.35254390002228,,,,,,,,,,,,,,,,,,,,,,,,,,,,,,,sub-034,1.0,random_dot,60.01554396259124,
right,right,accuracy,,,,,0.0,0.0,0.0,0.0,16.0,0.0,32.0,1.0,197.26678090007044,,,,,,,,,197.25261659990065,198.0664951999206,198.8665735998657,198.8504399000667,198.850462900009,198.8665735998657,198.8665735998657,198.8665735998657,,199.80100199999288,right,1.0,36.29224200011231,,,,,,,,,,,,,,,,,,,,,,,,,,,,,,,sub-034,1.0,random_dot,60.01554396259124,
left,left,accuracy,,,,,0.0,0.0,0.0,0.0,16.0,1.0,33.0,0.0,199.8161822999828,,,,,,,,,199.8022561999969,200.61599719990045,201.4160291000735,201.39998240000568,201.40000359993428,201.4160291000735,201.4160291000735,201.4160291000735,,202.90048930002376,left,1.0,36.846562900114805,,,,,,,,,,,,,,,,,,,,,,,,,,,,,,,sub-034,1.0,random_dot,60.01554396259124,
left,left,accuracy,,,,,0.0,0.0,0.0,0.0,17.0,0.0,34.0,0.0,202.91596929985096,,,,,,,,,202.90157600003292,203.7155225998722,204.51586239994504,204.4998449999839,204.49986870004795,204.51586239994504,204.51586239994504,204.51586239994504,,205.51643029996197,left,1.0,36.35216730018146,,,,,,,,,,,,,,,,,,,,,,,,,,,,,,,sub-034,1.0,random_dot,60.01554396259124,
right,right,accuracy,,,,,0.0,0.0,0.0,0.0,17.0,1.0,35.0,1.0,205.5322614000179,,,,,,,,,205.5174708999693,206.7319191999268,207.53201940003785,207.5158392000012,207.51586010004397,207.53201940003785,207.53201940003785,207.53201940003785,,208.36629879986867,right,1.0,36.19213359989226,,,,,,,,,,,,,,,,,,,,,,,,,,,,,,,sub-034,1.0,random_dot,60.01554396259124,
right,right,accuracy,,,,,0.0,0.0,0.0,0.0,18.0,0.0,36.0,1.0,208.38174169999547,,,,,,,,,208.3673920999281,209.58161980006844,210.38171069999223,210.36576489987783,210.3657877999358,210.38171069999223,210.38171069999223,210.38171069999223,,212.13258079998195,right,1.0,37.10210509994067,,,,,,,,,,,,,,,,,,,,,,,,,,,,,,,sub-034,1.0,random_dot,60.01554396259124,
left,left,accuracy,,,,,0.0,0.0,0.0,0.0,18.0,1.0,37.0,0.0,212.14821020001543,,,,,,,,,212.133836499881,212.24805879988708,213.0479625998996,213.03193339984864,213.0319568000268,213.0479625998996,213.0479625998996,213.0479625998996,,214.29855369986035,left,1.0,36.60605120006949,,,,,,,,,,,,,,,,,,,,,,,,,,,,,,,sub-034,1.0,random_dot,60.01554396259124,
right,right,accuracy,,,,,0.0,0.0,0.0,0.0,19.0,0.0,38.0,1.0,214.3143143998459,,,,,,,,,214.29951260006052,214.4143413999118,215.21417349996045,215.1982352999039,215.19825619994663,215.21417349996045,215.21417349996045,215.21417349996045,,216.6652168999426,right,1.0,36.8133066999726,,,,,,,,,,,,,,,,,,,,,,,,,,,,,,,sub-034,1.0,random_dot,60.01554396259124,
left,left,accuracy,,,,,0.0,0.0,0.0,0.0,19.0,1.0,39.0,0.0,216.680663399864,,,,,,,,,216.6663134999108,217.48069839994423,218.28080219984983,218.26474029989916,218.2647664998658,218.28080219984983,218.28080219984983,218.28080219984983,,220.2147220999468,left,1.0,37.29963569995016,,,,,,,,,,,,,,,,,,,,,,,,,,,,,,,sub-034,1.0,random_dot,60.01554396259124,
left,left,accuracy,,,,,0.0,0.0,0.0,0.0,20.0,0.0,40.0,0.0,220.2304111998528,,,,,,,,,220.2158605000004,221.03033239999783,221.83028959995136,221.81413369998336,221.8141570000444,221.83028959995136,221.83028959995136,221.83028959995136,,223.5306879000273,left,1.0,37.05585679993965,,,,,,,,,,,,,,,,,,,,,,,,,,,,,,,sub-034,1.0,random_dot,60.01554396259124,
right,right,accuracy,,,,,0.0,0.0,0.0,0.0,20.0,1.0,41.0,1.0,223.54650599998425,,,,,,,,,223.53162349993363,223.6466301998589,224.4467023999896,224.43073959997852,224.43076599994677,224.4467023999896,224.4467023999896,224.4467023999896,,226.96378330001608,right,1.0,37.87293409998529,,,,,,,,,,,,,,,,,,,,,,,,,,,,,,,sub-034,1.0,random_dot,60.01554396259124,
right,right,accuracy,,,,,0.0,0.0,0.0,0.0,21.0,0.0,42.0,1.0,226.9793348000385,,,,,,,,,226.96476310002615,227.77912619989365,228.57911879988387,228.56308509991504,228.5631035999395,228.57911879988387,228.57911879988387,228.57911879988387,,229.48033719998784,right,1.0,36.25635000015609,,,,,,,,,,,,,,,,,,,,,,,,,,,,,,,sub-034,1.0,random_dot,60.01554396259124,
left,left,accuracy,,,,,0.0,0.0,0.0,0.0,21.0,1.0,43.0,0.0,229.4957719000522,,,,,,,,,229.48158070002685,229.84574700007212,230.6455180000048,230.62954559992068,230.6295659998432,230.6455180000048,230.6455180000048,230.6455180000048,,232.0962163999211,left,1.0,36.80541600007564,,,,,,,,,,,,,,,,,,,,,,,,,,,,,,,sub-034,1.0,random_dot,60.01554396259124,
right,right,accuracy,,,,,0.0,0.0,0.0,0.0,22.0,0.0,44.0,1.0,232.11201929999515,,,,,,,,,232.0972936998587,232.911944600055,233.7117755999789,233.6959056998603,233.695921999868,233.7117755999789,233.7117755999789,233.7117755999789,,238.378989999881,right,1.0,40.018179200124,,,,,,,,,,,,,,,,,,,,,,,,,,,,,,,sub-034,1.0,random_dot,60.01554396259124,
left,left,accuracy,,,,,0.0,0.0,0.0,0.0,22.0,1.0,45.0,0.0,238.3945722000208,,,,,,,,,238.3800854999572,239.59452859987505,240.39434270001948,240.37848169985227,240.37850199989043,240.39434270001948,240.39434270001948,240.39434270001948,,242.195468199905,left,1.0,37.1660783002153,,,,,,,,,,,,,,,,,,,,,,,,,,,,,,,sub-034,1.0,random_dot,60.01554396259124,
right,right,accuracy,,,,,0.0,0.0,0.0,0.0,23.0,0.0,46.0,1.0,242.2107561000157,,,,,,,,,242.1966080998536,243.0106212999672,243.81073129992,243.79488849989136,243.7949115999509,243.81073129992,243.81073129992,243.81073129992,248.81024380004965,253.04385189991444,left,0.0,44.5847034000326,,,,,,,,,,,,,,,,,,,,,,,,,,,,,,,sub-034,1.0,random_dot,60.01554396259124,
left,left,accuracy,,,,,0.0,0.0,0.0,0.0,23.0,1.0,47.0,0.0,253.05957420007329,,,,,,,,,253.0449121000711,254.259434199892,255.05930790002455,255.0434455999639,255.04346790001728,255.05930790002455,255.05930790002455,255.05930790002455,,255.94335299986412,left,1.0,36.24712539999746,,,,,,,,,,,,,,,,,,,,,,,,,,,,,,,sub-034,1.0,random_dot,60.01554396259124,
right,right,accuracy,,,,,0.0,0.0,0.0,0.0,24.0,0.0,48.0,1.0,255.9590153999161,,,,,,,,,255.9443393999245,257.15906179999,257.95876919990405,257.942819399992,257.94283999991603,257.95876919990405,257.95876919990405,257.95876919990405,,259.093252700055,right,1.0,36.49948240024969,,,,,,,,,,,,,,,,,,,,,,,,,,,,,,,sub-034,1.0,random_dot,60.01554396259124,
left,left,accuracy,,,,,0.0,0.0,0.0,0.0,24.0,1.0,49.0,0.0,259.1086051999592,,,,,,,,,259.0943501999136,260.3084412000608,261.10851949988864,261.0925521999597,261.09257630002685,261.10851949988864,261.10851949988864,261.10851949988864,,262.1926669999957,left,1.0,36.435370800085366,,,,,,,,,,,,,,,,,,,,,,,,,,,,,,,sub-034,1.0,random_dot,60.01554396259124,
right,right,accuracy,,,,,0.0,0.0,0.0,0.0,25.0,0.0,50.0,1.0,262.2082430999726,,,,,,,,,262.1937611999456,262.30820870003663,263.1080630000215,263.09194760001265,263.0919657999184,263.1080630000215,263.1080630000215,263.1080630000215,,264.1256971000694,right,1.0,36.371838100021705,,,,,,,,,,,,,,,,,,,,,,,,,,,,,,,sub-034,1.0,random_dot,60.01554396259124,
left,left,accuracy,,,,,0.0,0.0,0.0,0.0,25.0,1.0,51.0,0.0,264.14126849989407,,,,,,,,,264.12676570005715,264.24133099988103,265.0411970999557,265.02555530006066,265.02557830000296,265.0411970999557,265.0411970999557,265.0411970999557,,265.9259337000549,left,1.0,36.242994599975646,,,,,,,,,,,,,,,,,,,,,,,,,,,,,,,sub-034,1.0,random_dot,60.01554396259124,
left,left,accuracy,,,,,0.0,0.0,0.0,0.0,26.0,0.0,52.0,0.0,265.9414621000178,,,,,,,,,265.9273703000508,267.1409628998954,267.9408859999385,267.92483789986,267.92486030003056,267.9408859999385,267.9408859999385,267.9408859999385,,268.6918321000412,left,1.0,36.10338329989463,,,,,,,,,,,,,,,,,,,,,,,,,,,,,,,sub-034,1.0,random_dot,60.01554396259124,
right,right,accuracy,,,,,0.0,0.0,0.0,0.0,26.0,1.0,53.0,1.0,268.7075805000495,,,,,,,,,268.6929615000263,269.5073376998771,270.30738410004415,270.2914775998797,270.2915053998586,270.30738410004415,270.30738410004415,270.30738410004415,,271.1753260998521,right,1.0,36.22423950000666,,,,,,,,,,,,,,,,,,,,,,,,,,,,,,,sub-034,1.0,random_dot,60.01554396259124,
left,left,accuracy,,,,,0.0,0.0,0.0,0.0,27.0,0.0,54.0,0.0,271.19075719988905,,,,,,,,,271.1767033999786,272.3904986998532,273.1903335999232,273.1742616998963,273.1742849999573,273.1903335999232,273.1903335999232,273.1903335999232,,273.941334299976,left,1.0,36.10910609993152,,,,,,,,,,,,,,,,,,,,,,,,,,,,,,,sub-034,1.0,random_dot,60.01554396259124,
right,right,accuracy,,,,,0.0,0.0,0.0,0.0,27.0,1.0,55.0,1.0,273.95684670004994,,,,,,,,,273.9424993998837,274.05705929989927,274.8567053999286,274.84057840006426,274.8405957999639,274.8567053999286,274.8567053999286,274.8567053999286,,276.0575882999692,left,0.0,36.55573140014894,,,,,,,,,,,,,,,,,,,,,,,,,,,,,,,sub-034,1.0,random_dot,60.01554396259124,
right,right,accuracy,,,,,0.0,0.0,0.0,0.0,28.0,0.0,56.0,1.0,276.07311949995346,,,,,,,,,276.05867349985056,276.87336129997857,277.6729977000505,277.6571712999139,277.65721129998565,277.6729977000505,277.6729977000505,277.6729977000505,,279.3744427000638,right,1.0,37.0644714999944,,,,,,,,,,,,,,,,,,,,,,,,,,,,,,,sub-034,1.0,random_dot,60.01554396259124,
left,left,accuracy,,,,,0.0,0.0,0.0,0.0,28.0,1.0,57.0,0.0,279.38970689987764,,,,,,,,,279.37576079997234,280.18942559999414,280.9894894999452,280.9735405999236,280.97356499987654,280.9894894999452,280.9894894999452,280.9894894999452,,285.27314289985225,left,1.0,39.63994969986379,,,,,,,,,,,,,,,,,,,,,,,,,,,,,,,sub-034,1.0,random_dot,60.01554396259124,
right,right,accuracy,,,,,0.0,0.0,0.0,0.0,29.0,0.0,58.0,1.0,285.2888424999546,,,,,,,,,285.2743253998924,285.6387364000548,286.43858699989505,286.4225079000462,286.4225274999626,286.43858699989505,286.43858699989505,286.43858699989505,,287.28940650005825,right,1.0,36.20917519996874,,,,,,,,,,,,,,,,,,,,,,,,,,,,,,,sub-034,1.0,random_dot,60.01554396259124,
left,left,accuracy,,,,,0.0,0.0,0.0,0.0,29.0,1.0,59.0,0.0,287.3049816000276,,,,,,,,,287.2904870000202,287.40505840000696,288.2051285998896,288.18901810003445,288.1890378999524,288.2051285998896,288.2051285998896,288.2051285998896,,289.1057180999778,left,1.0,36.26190689997748,,,,,,,,,,,,,,,,,,,,,,,,,,,,,,,sub-034,1.0,random_dot,60.01554396259124,
,,accuracy,,,,,0.0,0.0,0.0,0.0,,,,,,,,,,,,,,,,,,,,,,,,,,,,,,,,,,,,,,,,,,,,,,,,,,,,,,,,,sub-034,1.0,random_dot,60.01554396259124,
right,right,speed,,,,,0.0,1.0,1.0,1.0,0.0,0.0,0.0,1.0,294.287808699999,,,,,,,,,294.2800853999797,294.3875647999812,295.1877760000061,295.1712821999099,295.1713083998766,295.1877760000061,295.1877760000061,295.1877760000061,,295.7881394000724,right,1.0,35.96411200007424,,,,,,,,,,,,,,,,,,,,289.1067325000185,289.12175079993904,289.12175079993904,294.2721116000321,space,40.51171389990486,,,,,,sub-034,1.0,random_dot,60.01554396259124,
left,left,speed,,,,,0.0,1.0,1.0,1.0,0.0,1.0,1.0,0.0,295.80390549986623,,,,,,,,,295.789299499942,296.6039106999524,297.40377540001646,297.3878120998852,297.3878319999203,297.40377540001646,297.40377540001646,297.40377540001646,,297.7881324000191,left,1.0,35.738255499862134,,,,,,,,,,,,,,,,,,,,,,,,,,,,,,,sub-034,1.0,random_dot,60.01554396259124,
right,right,speed,,,,,0.0,1.0,1.0,1.0,1.0,0.0,2.0,1.0,297.8037288999185,,,,,,,,,297.7891851000022,299.0037771000061,299.8035770999268,299.7874865999911,299.78750950004905,299.8035770999268,299.8035770999268,299.8035770999268,,300.45495899999514,right,1.0,36.01727250008844,,,,,,,,,,,,,,,,,,,,,,,,,,,,,,,sub-034,1.0,random_dot,60.01554396259124,
left,left,speed,,,,,0.0,1.0,1.0,1.0,1.0,1.0,3.0,0.0,300.47024369984865,,,,,,,,,300.4561328999698,300.5702245999128,301.3701659999788,301.35410519992,301.35412779985927,301.3701659999788,301.3701659999788,301.3701659999788,,301.90432469989173,left,1.0,35.88714829995297,,,,,,,,,,,,,,,,,,,,,,,,,,,,,,,sub-034,1.0,random_dot,60.01554396259124,
left,left,speed,,,,,0.0,1.0,1.0,1.0,2.0,0.0,4.0,0.0,301.91988059994765,,,,,,,,,301.90516890003346,303.1200659000315,303.9197392000351,303.90458990004845,303.90462170005776,303.9197392000351,303.9197392000351,303.9197392000351,,304.5540781999007,left,1.0,35.99628039984964,,,,,,,,,,,,,,,,,,,,,,,,,,,,,,,sub-034,1.0,random_dot,60.01554396259124,
right,right,speed,,,,,0.0,1.0,1.0,1.0,2.0,1.0,5.0,1.0,304.5694955000654,,,,,,,,,304.55490830005147,304.91949009988457,305.7199333999306,305.7035813999828,305.7036097999662,305.7199333999306,305.7199333999306,305.7199333999306,,306.186989299953,right,1.0,35.817459599813446,,,,,,,,,,,,,,,,,,,,,,,,,,,,,,,sub-034,1.0,random_dot,60.01554396259124,
left,left,speed,,,,,0.0,1.0,1.0,1.0,3.0,0.0,6.0,0.0,306.20285940007307,,,,,,,,,306.18766309996136,307.40245589986444,308.20240399986506,308.18650479987264,308.18652289989404,308.20240399986506,308.20240399986506,308.20240399986506,,308.6867124999408,left,1.0,35.8448680001311,,,,,,,,,,,,,,,,,,,,,,,,,,,,,,,sub-034,1.0,random_dot,60.01554396259124,
right,right,speed,,,,,0.0,1.0,1.0,1.0,3.0,1.0,7.0,1.0,308.702362800017,,,,,,,,,308.68766719987616,309.502196099842,310.30211120005697,310.28608420002274,310.28609970002435,310.30211120005697,310.30211120005697,310.30211120005697,,310.6859683999792,right,1.0,35.737239700043574,,,,,,,,,,,,,,,,,,,,,,,,,,,,,,,sub-034,1.0,random_dot,60.01554396259124,
right,right,speed,,,,,0.0,1.0,1.0,1.0,4.0,0.0,8.0,1.0,310.7022522999905,,,,,,,,,310.6867539000232,311.9019490999636,312.7017705999315,312.6858864999376,312.68590039992705,312.7017705999315,312.7017705999315,312.7017705999315,,313.2025657000486,left,0.0,35.85899760015309,,,,,,,,,,,,,,,,,,,,,,,,,,,,,,,sub-034,1.0,random_dot,60.01554396259124,
left,left,speed,,,,,0.0,1.0,1.0,1.0,4.0,1.0,9.0,0.0,313.21863140002824,,,,,,,,,313.2033728999086,313.3019148998428,314.1018198998645,314.08543520001695,314.08544939989224,314.1018198998645,314.1018198998645,314.1018198998645,,315.0360175999813,right,0.0,36.29404680011794,,,,,,,,,,,,,,,,,,,,,,,,,,,,,,,sub-034,1.0,random_dot,60.01554396259124,
left,left,speed,,,,,0.0,1.0,1.0,1.0,5.0,0.0,10.0,0.0,315.05151310004294,,,,,,,,,315.03703340003267,315.1517139999196,315.9539510998875,315.9389269000385,315.939001099905,315.9539510998875,315.9539510998875,315.9539510998875,,317.21965119987726,left,1.0,36.61659209989011,,,,,,,,,,,,,,,,,,,,,,,,,,,,,,,sub-034,1.0,random_dot,60.01554396259124,
right,right,speed,,,,,0.0,1.0,1.0,1.0,5.0,1.0,11.0,1.0,317.2351005000528,,,,,,,,,317.22101729991846,318.43442830001004,319.23428560001776,319.21804969990626,319.2180647000205,319.23428560001776,319.23428560001776,319.23428560001776,,319.7020677998662,left,0.0,35.82189720007591,,,,,,,,,,,,,,,,,,,,,,,,,,,,,,,sub-034,1.0,random_dot,60.01554396259124,
right,right,speed,,,,,0.0,1.0,1.0,1.0,6.0,0.0,12.0,1.0,319.7175960999448,,,,,,,,,319.703189099906,319.8177694999613,320.6175132000353,320.60161999985576,320.6016345999669,320.6175132000353,320.6175132000353,320.6175132000353,,321.3018521000631,right,1.0,36.03563089994714,,,,,,,,,,,,,,,,,,,,,,,,,,,,,,,sub-034,1.0,random_dot,60.01554396259124,
left,left,speed,,,,,0.0,1.0,1.0,1.0,6.0,1.0,13.0,0.0,321.31747030001134,,,,,,,,,321.3029908000026,322.11735129985027,322.91742839990184,322.9015033999458,322.9015305999201,322.91742839990184,322.91742839990184,322.91742839990184,,323.63439160003327,right,0.0,36.07205109996721,,,,,,,,,,,,,,,,,,,,,,,,,,,,,,,sub-034,1.0,random_dot,60.01554396259124,
left,left,speed,,,,,0.0,1.0,1.0,1.0,7.0,0.0,14.0,0.0,323.6509074999485,,,,,,,,,323.635136900004,324.85059499996714,325.64999129995704,325.633864399977,325.6338785998523,325.64999129995704,325.64999129995704,325.64999129995704,,326.3179576999973,left,1.0,36.03436190006323,,,,,,,,,,,,,,,,,,,,,,,,,,,,,,,sub-034,1.0,random_dot,60.01554396259124,
right,right,speed,,,,,0.0,1.0,1.0,1.0,7.0,1.0,15.0,1.0,326.3334814000409,,,,,,,,,326.3189505999908,327.1334056998603,327.9333150999155,327.91692360001616,327.91694019990973,327.9333150999155,327.9333150999155,327.9333150999155,,328.6509556998499,right,1.0,36.0804942001123,,,,,,,,,,,,,,,,,,,,,,,,,,,,,,,sub-034,1.0,random_dot,60.01554396259124,
left,left,speed,,,,,0.0,1.0,1.0,1.0,8.0,0.0,16.0,0.0,328.666536499979,,,,,,,,,328.6520481999032,329.4665979000274,330.2664504998829,330.2504734999966,330.25049660005607,330.2664504998829,330.2664504998829,330.2664504998829,,330.8343646998983,left,1.0,35.91808019997552,,,,,,,,,,,,,,,,,,,,,,,,,,,,,,,sub-034,1.0,random_dot,60.01554396259124,
right,right,speed,,,,,0.0,1.0,1.0,1.0,8.0,1.0,17.0,1.0,330.84984549996443,,,,,,,,,330.83557539992034,331.19967420003377,331.9997181999497,331.98408119985834,331.9841128999833,331.9997181999497,331.9997181999497,331.9997181999497,,332.5339207998477,right,1.0,35.88484050007537,,,,,,,,,,,,,,,,,,,,,,,,,,,,,,,sub-034,1.0,random_dot,60.01554396259124,
left,left,speed,,,,,0.0,1.0,1.0,1.0,9.0,0.0,18.0,0.0,332.5494150999002,,,,,,,,,332.5351056999061,332.8997525998857,333.6991681999061,333.683344299905,333.6833643000573,333.6991681999061,333.6991681999061,333.6991681999061,,334.1667927999515,left,1.0,35.821481900056824,,,,,,,,,,,,,,,,,,,,,,,,,,,,,,,sub-034,1.0,random_dot,60.01554396259124,
right,right,speed,,,,,0.0,1.0,1.0,1.0,9.0,1.0,19.0,1.0,334.1826084998902,,,,,,,,,334.1678639999591,335.3823523998726,336.1822856999934,336.1663180999458,336.16634249989875,336.1822856999934,336.1822856999934,336.1822856999934,,336.73355369991623,right,1.0,35.91636499995366,,,,,,,,,,,,,,,,,,,,,,,,,,,,,,,sub-034,1.0,random_dot,60.01554396259124,
left,left,speed,,,,,0.0,1.0,1.0,1.0,10.0,0.0,20.0,0.0,336.74904619995505,,,,,,,,,336.7347919999156,337.0996220000088,337.8998634999152,337.8840435000602,337.88408560003154,337.8998634999152,337.8998634999152,337.8998634999152,,338.61630919994786,left,1.0,36.076872899895534,,,,,,,,,,,,,,,,,,,,,,,,,,,,,,,sub-034,1.0,random_dot,60.01554396259124,
right,right,speed,,,,,0.0,1.0,1.0,1.0,10.0,1.0,21.0,1.0,338.63188449991867,,,,,,,,,338.6173970999662,338.7319279999938,339.53182679996826,339.51573530002497,339.51575580006465,339.53182679996826,339.53182679996826,339.53182679996826,,340.4992420999333,right,1.0,36.32931499998085,,,,,,,,,,,,,,,,,,,,,,,,,,,,,,,sub-034,1.0,random_dot,60.01554396259124,
right,right,speed,,,,,0.0,1.0,1.0,1.0,11.0,0.0,22.0,1.0,340.5149819999933,,,,,,,,,340.5000762999989,341.3148809999693,342.11481099994853,342.09876299998723,342.0987815000117,342.11481099994853,342.11481099994853,342.11481099994853,,342.9828150998801,right,1.0,36.23291700007394,,,,,,,,,,,,,,,,,,,,,,,,,,,,,,,sub-034,1.0,random_dot,60.01554396259124,
left,left,speed,,,,,0.0,1.0,1.0,1.0,11.0,1.0,23.0,0.0,342.9980136998929,,,,,,,,,342.9840452000499,343.098249200033,343.89800809999,343.8821663998533,343.8821892000269,343.89800809999,343.89800809999,343.89800809999,,344.5321961999871,left,1.0,35.985838199965656,,,,,,,,,,,,,,,,,,,,,,,,,,,,,,,sub-034,1.0,random_dot,60.01554396259124,
left,left,speed,,,,,0.0,1.0,1.0,1.0,12.0,0.0,24.0,0.0,344.5477505999152,,,,,,,,,344.53313699993305,344.89773229998536,345.6976492998656,345.6817087000236,345.68172829994,345.6976492998656,345.6976492998656,345.6976492998656,,346.4819232998416,right,0.0,36.13546850020066,,,,,,,,,,,,,,,,,,,,,,,,,,,,,,,sub-034,1.0,random_dot,60.01554396259124,
right,right,speed,,,,,0.0,1.0,1.0,1.0,12.0,1.0,25.0,1.0,346.49749900004826,,,,,,,,,346.4828534000553,346.5976982000284,347.39762030006386,347.38166259997524,347.3816911999602,347.39762030006386,347.39762030006386,347.39762030006386,,348.13175780000165,right,1.0,36.08660310017876,,,,,,,,,,,,,,,,,,,,,,,,,,,,,,,sub-034,1.0,random_dot,60.01554396259124,
right,right,speed,,,,,0.0,1.0,1.0,1.0,13.0,0.0,26.0,1.0,348.1475396999158,,,,,,,,,348.1328894000035,349.34709830000065,350.14725649985485,350.1312440999318,350.13126489985734,350.14725649985485,350.14725649985485,350.14725649985485,,350.731751000043,right,1.0,35.944268100196496,,,,,,,,,,,,,,,,,,,,,,,,,,,,,,,sub-034,1.0,random_dot,60.01554396259124,
left,left,speed,,,,,0.0,1.0,1.0,1.0,13.0,1.0,27.0,0.0,350.7470859999303,,,,,,,,,350.73288440005854,351.546647900017,352.3468092000112,352.33082649996504,352.3308446998708,352.3468092000112,352.3468092000112,352.3468092000112,,352.9482366000302,left,1.0,35.9527302000206,,,,,,,,,,,,,,,,,,,,,,,,,,,,,,,sub-034,1.0,random_dot,60.01554396259124,
left,left,speed,,,,,0.0,1.0,1.0,1.0,14.0,0.0,28.0,0.0,352.9636945000384,,,,,,,,,352.9494435999077,353.0635549998842,353.8633152998518,353.847599899862,353.847622100031,353.8633152998518,353.8633152998518,353.8633152998518,,354.6810989000369,right,0.0,36.182931900024414,,,,,,,,,,,,,,,,,,,,,,,,,,,,,,,sub-034,1.0,random_dot,60.01554396259124,
right,right,speed,,,,,0.0,1.0,1.0,1.0,14.0,1.0,29.0,1.0,354.69668489997275,,,,,,,,,354.68227429990657,355.8963494999334,356.6962224000599,356.68042530003004,356.68044639984146,356.6962224000599,356.6962224000599,356.6962224000599,,357.8970286999829,left,0.0,36.55239710002206,,,,,,,,,,,,,,,,,,,,,,,,,,,,,,,sub-034,1.0,random_dot,60.01554396259124,
left,left,speed,,,,,0.0,1.0,1.0,1.0,15.0,0.0,30.0,0.0,357.9129890999757,,,,,,,,,357.8980266998988,359.1125365998596,359.91240989998914,359.89646199997514,359.896480999887,359.91240989998914,359.91240989998914,359.91240989998914,,360.56333809997886,right,0.0,36.01071900012903,,,,,,,,,,,,,,,,,,,,,,,,,,,,,,,sub-034,1.0,random_dot,60.01554396259124,
right,right,speed,,,,,0.0,1.0,1.0,1.0,15.0,1.0,31.0,1.0,360.579105099896,,,,,,,,,360.5643175998703,360.6792092998512,361.479036899982,361.4634205000475,361.4634424999822,361.479036899982,361.479036899982,361.479036899982,,362.096566400025,right,1.0,35.98156589991413,,,,,,,,,,,,,,,,,,,,,,,,,,,,,,,sub-034,1.0,random_dot,60.01554396259124,
right,right,speed,,,,,0.0,1.0,1.0,1.0,16.0,0.0,32.0,1.0,362.1121561999898,,,,,,,,,362.0974536000285,363.3121435998473,364.11221409984864,364.09617340005934,364.0961955999956,364.11221409984864,364.11221409984864,364.11221409984864,,364.7960848000366,right,1.0,36.04015030013397,,,,,,,,,,,,,,,,,,,,,,,,,,,,,,,sub-034,1.0,random_dot,60.01554396259124,
left,left,speed,,,,,0.0,1.0,1.0,1.0,16.0,1.0,33.0,0.0,364.8137282000389,,,,,,,,,364.7969440000597,366.01176050002687,366.8118724999949,366.7959383998532,366.7959622999188,366.8118724999949,366.8118724999949,366.8118724999949,,367.56286569987424,right,0.0,36.11120539996773,,,,,,,,,,,,,,,,,,,,,,,,,,,,,,,sub-034,1.0,random_dot,60.01554396259124,
right,right,speed,,,,,0.0,1.0,1.0,1.0,17.0,0.0,34.0,1.0,367.5783756000456,,,,,,,,,367.5641530998983,367.6782426000573,368.4782773000188,368.4621423999779,368.4621649000328,368.4782773000188,368.4782773000188,368.4782773000188,,369.2792519000359,right,1.0,36.15595030016266,,,,,,,,,,,,,,,,,,,,,,,,,,,,,,,sub-034,1.0,random_dot,60.01554396259124,
left,left,speed,,,,,0.0,1.0,1.0,1.0,17.0,1.0,35.0,0.0,369.29486300004646,,,,,,,,,369.2804330999497,369.6446656999178,370.4445827000309,370.4287751999218,370.4288091000635,370.4445827000309,370.4445827000309,370.4445827000309,,371.512225799961,right,0.0,36.42282110010274,,,,,,,,,,,,,,,,,,,,,,,,,,,,,,,sub-034,1.0,random_dot,60.01554396259124,
left,left,speed,,,,,0.0,1.0,1.0,1.0,18.0,0.0,36.0,0.0,371.5276841998566,,,,,,,,,371.5133507000282,372.7275300999172,373.5274805999361,373.51167589984834,373.511695999885,373.5274805999361,373.5274805999361,373.5274805999361,,374.378443100024,left,1.0,36.21050180005841,,,,,,,,,,,,,,,,,,,,,,,,,,,,,,,sub-034,1.0,random_dot,60.01554396259124,
right,right,speed,,,,,0.0,1.0,1.0,1.0,18.0,1.0,37.0,1.0,374.3941730998922,,,,,,,,,374.3794851999264,374.7439313998912,375.5437789999414,375.5278600000311,375.5278801999521,375.5437789999414,375.5437789999414,375.5437789999414,,376.1446872998495,right,1.0,35.95247390004806,,,,,,,,,,,,,,,,,,,,,,,,,,,,,,,sub-034,1.0,random_dot,60.01554396259124,
left,left,speed,,,,,0.0,1.0,1.0,1.0,19.0,0.0,38.0,0.0,376.1605878998525,,,,,,,,,376.14576989994384,377.3603316999506,378.1604019999504,378.144314999925,378.1443362999708,378.1604019999504,378.1604019999504,378.1604019999504,,378.81133820000105,right,0.0,36.01579979993403,,,,,,,,,,,,,,,,,,,,,,,,,,,,,,,sub-034,1.0,random_dot,60.01554396259124,
right,right,speed,,,,,0.0,1.0,1.0,1.0,19.0,1.0,39.0,1.0,378.8270230998751,,,,,,,,,378.8124627999496,379.6267810999416,380.4266039999202,380.4103069000412,380.4103226999287,380.4266039999202,380.4266039999202,380.4266039999202,,381.5108904999215,left,0.0,36.44403939996846,,,,,,,,,,,,,,,,,,,,,,,,,,,,,,,sub-034,1.0,random_dot,60.01554396259124,
left,left,speed,,,,,0.0,1.0,1.0,1.0,20.0,0.0,40.0,0.0,381.5265144999139,,,,,,,,,381.5119747000281,381.6267093999777,382.42652129987255,382.4103246999439,382.4103451999836,382.42652129987255,382.42652129987255,382.42652129987255,,383.294131499948,right,0.0,36.23353620013222,,,,,,,,,,,,,,,,,,,,,,,,,,,,,,,sub-034,1.0,random_dot,60.01554396259124,
right,right,speed,,,,,0.0,1.0,1.0,1.0,20.0,1.0,41.0,1.0,383.30959439999424,,,,,,,,,383.2952203999739,383.4097336998675,384.2096722999122,384.1936220000498,384.19364439998753,384.2096722999122,384.2096722999122,384.2096722999122,,384.91083729988895,left,0.0,36.06389950006269,,,,,,,,,,,,,,,,,,,,,,,,,,,,,,,sub-034,1.0,random_dot,60.01554396259124,
right,right,speed,,,,,0.0,1.0,1.0,1.0,21.0,0.0,42.0,1.0,384.92603489989415,,,,,,,,,384.91204399988055,385.0259469000157,385.8259337998461,385.8097740998492,385.8097906999756,385.8259337998461,385.8259337998461,385.8259337998461,,386.5932246998418,right,1.0,36.12314090016298,,,,,,,,,,,,,,,,,,,,,,,,,,,,,,,sub-034,1.0,random_dot,60.01554396259124,
left,left,speed,,,,,0.0,1.0,1.0,1.0,21.0,1.0,43.0,0.0,386.60928740003146,,,,,,,,,386.5940852998756,386.95911929989234,387.7590079999063,387.7432219998445,387.7432531998493,387.7590079999063,387.7590079999063,387.7590079999063,,388.6932004999835,left,1.0,36.29387050005607,,,,,,,,,,,,,,,,,,,,,,,,,,,,,,,sub-034,1.0,random_dot,60.01554396259124,
left,left,speed,,,,,0.0,1.0,1.0,1.0,22.0,0.0,44.0,0.0,388.7090086999815,,,,,,,,,388.69425749988295,389.0588710999582,389.8590591999237,389.8429886999074,389.84302000002936,389.8590591999237,389.8590591999237,389.8590591999237,,391.17628620006144,right,0.0,36.66894600004889,,,,,,,,,,,,,,,,,,,,,,,,,,,,,,,sub-034,1.0,random_dot,60.01554396259124,
right,right,speed,,,,,0.0,1.0,1.0,1.0,22.0,1.0,45.0,1.0,391.1918430000078,,,,,,,,,391.1771609999705,391.9915856998414,392.7919770998415,392.7760065998882,392.77602849993855,392.7919770998415,392.7919770998415,392.7919770998415,,393.4761210998986,right,1.0,36.04921240010299,,,,,,,,,,,,,,,,,,,,,,,,,,,,,,,sub-034,1.0,random_dot,60.01554396259124,
right,right,speed,,,,,0.0,1.0,1.0,1.0,23.0,0.0,46.0,1.0,393.4915390999522,,,,,,,,,393.47713080002,394.691446099896,395.4913610999938,395.4754061999265,395.4754255998414,395.4913610999938,395.4913610999938,395.4913610999938,,396.8922341999132,right,1.0,36.7660602000542,,,,,,,,,,,,,,,,,,,,,,,,,,,,,,,sub-034,1.0,random_dot,60.01554396259124,
left,left,speed,,,,,0.0,1.0,1.0,1.0,23.0,1.0,47.0,0.0,396.9078406000044,,,,,,,,,396.89327110000886,397.707693599863,398.50779549987055,398.49198010005057,398.49200619990006,398.50779549987055,398.50779549987055,398.50779549987055,,399.1259087000508,left,1.0,35.98073370009661,,,,,,,,,,,,,,,,,,,,,,,,,,,,,,,sub-034,1.0,random_dot,60.01554396259124,
left,left,speed,,,,,0.0,1.0,1.0,1.0,24.0,0.0,48.0,0.0,399.1410906999372,,,,,,,,,399.1273043998517,400.34073259984143,401.1406200998463,401.12443269998766,401.1244461999741,401.1406200998463,401.1406200998463,401.1406200998463,,402.208247799892,left,1.0,36.42342039989308,,,,,,,,,,,,,,,,,,,,,,,,,,,,,,,sub-034,1.0,random_dot,60.01554396259124,
right,right,speed,,,,,0.0,1.0,1.0,1.0,24.0,1.0,49.0,1.0,402.2241263999604,,,,,,,,,402.2093517000321,403.023861899972,403.82354760007,403.8075592999812,403.807577499887,403.82354760007,403.82354760007,403.82354760007,,404.4244768000208,right,1.0,35.95744920009747,,,,,,,,,,,,,,,,,,,,,,,,,,,,,,,sub-034,1.0,random_dot,60.01554396259124,
left,left,speed,,,,,0.0,1.0,1.0,1.0,25.0,0.0,50.0,0.0,404.440181999933,,,,,,,,,404.4255393999629,405.640113200061,406.4394711998757,406.4238368999213,406.4238533000462,406.4394711998757,406.4394711998757,406.4394711998757,,407.0744385998696,left,1.0,35.986559400102124,,,,,,,,,,,,,,,,,,,,,,,,,,,,,,,sub-034,1.0,random_dot,60.01554396259124,
right,right,speed,,,,,0.0,1.0,1.0,1.0,25.0,1.0,51.0,1.0,407.0899958999362,,,,,,,,,407.0755244998727,407.889819300035,408.6899411999621,408.6737573000137,408.6737794999499,408.6899411999621,408.6899411999621,408.6899411999621,,409.4571303999983,right,1.0,36.132732700090855,,,,,,,,,,,,,,,,,,,,,,,,,,,,,,,sub-034,1.0,random_dot,60.01554396259124,
right,right,speed,,,,,0.0,1.0,1.0,1.0,26.0,0.0,52.0,1.0,409.4729607999325,,,,,,,,,409.4581722998992,410.272998200031,411.0728050000034,411.0568089999724,411.05682729999535,411.0728050000034,411.0728050000034,411.0728050000034,,411.7237326998729,right,1.0,36.00497330003418,,,,,,,,,,,,,,,,,,,,,,,,,,,,,,,sub-034,1.0,random_dot,60.01554396259124,
left,left,speed,,,,,0.0,1.0,1.0,1.0,26.0,1.0,53.0,0.0,411.73915280005895,,,,,,,,,411.7248147998471,412.5392038000282,413.3393142998684,413.3231252999976,413.3231478000525,413.3393142998684,413.3393142998684,413.3393142998684,,414.1237218999304,left,1.0,36.14108650013805,,,,,,,,,,,,,,,,,,,,,,,,,,,,,,,sub-034,1.0,random_dot,60.01554396259124,
left,left,speed,,,,,0.0,1.0,1.0,1.0,27.0,0.0,54.0,0.0,414.1392242999282,,,,,,,,,414.12500449991785,414.4890407999046,415.2890594999772,415.2729090999346,415.272931399988,415.2890594999772,415.2890594999772,415.2890594999772,,416.1395835999865,right,0.0,36.210374700138345,,,,,,,,,,,,,,,,,,,,,,,,,,,,,,,sub-034,1.0,random_dot,60.01554396259124,
right,right,speed,,,,,0.0,1.0,1.0,1.0,27.0,1.0,55.0,1.0,416.1554147999268,,,,,,,,,416.1405032000039,416.9555464000441,417.7553280999418,417.73930509993806,417.73932579997927,417.7553280999418,417.7553280999418,417.7553280999418,,418.8562976999674,right,1.0,36.461171800037846,,,,,,,,,,,,,,,,,,,,,,,,,,,,,,,sub-034,1.0,random_dot,60.01554396259124,
right,right,speed,,,,,0.0,1.0,1.0,1.0,28.0,0.0,56.0,1.0,418.871698099887,,,,,,,,,418.85737119987607,420.0716262999922,420.8718240999151,420.8558441998903,420.8558709998615,420.8718240999151,420.8718240999151,420.8718240999151,,422.0226048999466,right,1.0,36.50715960003436,,,,,,,,,,,,,,,,,,,,,,,,,,,,,,,sub-034,1.0,random_dot,60.01554396259124,
left,left,speed,,,,,0.0,1.0,1.0,1.0,28.0,1.0,57.0,0.0,422.0383079999592,,,,,,,,,422.0239271998871,422.3880675998517,423.1879874998704,423.1719394000247,423.1719601000659,423.1879874998704,423.1879874998704,423.1879874998704,,423.9890337998513,left,1.0,36.16074439999648,,,,,,,,,,,,,,,,,,,,,,,,,,,,,,,sub-034,1.0,random_dot,60.01554396259124,
left,left,speed,,,,,0.0,1.0,1.0,1.0,29.0,0.0,58.0,0.0,424.00453460006975,,,,,,,,,423.9900984999258,424.1045788999181,424.9043211999815,424.8881462998688,424.8881624999922,424.9043211999815,424.9043211999815,424.9043211999815,,425.9052259000018,left,1.0,36.35178440017626,,,,,,,,,,,,,,,,,,,,,,,,,,,,,,,sub-034,1.0,random_dot,60.01554396259124,
right,right,speed,,,,,0.0,1.0,1.0,1.0,29.0,1.0,59.0,1.0,425.9208412000444,,,,,,,,,425.90626049996354,427.1205559999216,427.9207365999464,427.9045033999719,427.90452370001,427.9207365999464,427.9207365999464,427.9207365999464,,428.6548395999707,right,1.0,36.09570539998822,,,,,,,,,,,,,,,,,,,,,,,,,,,,,,,sub-034,1.0,random_dot,60.01554396259124,
,,speed,,,,,0.0,1.0,1.0,1.0,,,,,,,,,,,,,,,,,,,,,,,,,,,,,,,,,,,,,,,,,,,,,,,,,,,,,,,,,sub-034,1.0,random_dot,60.01554396259124,
,,,,,,,,,,,,,,,,,,,,,,,,,,,,,,,,,,,,,,,,,,,,,,,,,,,,,,,,,,,,,,,428.65564129990526,428.6703351000324,433.6700156999286,433.65373239992186,sub-034,,,,
