wordCTK,colorCTK,corrAnsCTK,congruentCTK,thisN,thisTrialN,thisRepN,keyResp_CTK.keys,keyResp_CTK.corr,keyResp_CTK.rt,keyResp_CTK.duration,wordPractice,colorPractice,corrAnsPractice,congruentPractice,respPractice.keys,respPractice.corr,respPractice.rt,respPractice.duration,word,color,corrAns,congruent,keyResp_test_run.keys,keyResp_test_run.corr,keyResp_test_run.rt,keyResp_test_run.duration,trials_CTK.thisRepN,trials_CTK.thisTrialN,trials_CTK.thisN,trials_CTK.thisIndex,trials_practice.thisRepN,trials_practice.thisTrialN,trials_practice.thisN,trials_practice.thisIndex,trials_test.thisRepN,trials_test.thisTrialN,trials_test.thisN,trials_test.thisIndex,thisRow.t,notes,instruction.started,instr_text.started,instr_image.started,instr_resp.started,instruction.stopped,instr_resp.keys,instr_resp.rt,instr_resp.duration,instr_color_to_key.started,instr_ctk.started,resp_ctk.started,instr_color_to_key.stopped,resp_ctk.keys,resp_ctk.rt,resp_ctk.duration,ITI.started,fixcross.started,fixcross.stopped,ITI.stopped,color_to_key_run.started,stimulus_CTK.started,keyResp_CTK.started,color_to_key_run.stopped,trials_CTK.keyResp_CTK.keys,trials_CTK.keyResp_CTK.corr,trials_CTK.keyResp_CTK.rt,trials_CTK.keyResp_CTK.duration,instr_practice.started,instr_practice_text.started,instr_practice_resp.started,instr_practice.stopped,instr_practice_resp.keys,instr_practice_resp.rt,instr_practice_resp.duration,practice_run.started,stimulus_practice.started,respPractice.started,practice_run.stopped,trials_practice.respPractice.keys,trials_practice.respPractice.corr,trials_practice.respPractice.rt,trials_practice.respPractice.duration,feedback.started,textFeedback.started,feedback.stopped,textFeedback.stopped,instr_test.started,instr_test_text.started,instr_test_resp.started,instr_test.stopped,instr_test_resp.keys,instr_test_resp.rt,instr_test_resp.duration,test_run.started,stimulus_test_run.started,keyResp_test_run.started,test_run.stopped,trials_test.keyResp_test_run.keys,trials_test.keyResp_test_run.corr,trials_test.keyResp_test_run.rt,trials_test.keyResp_test_run.duration,goodbye.started,textGoodbye.started,goodbye.stopped,participant,session,expName,frameRate,Unnamed: 112
,,,,,,,,,,,,,,,,,,,,,,,,,,,,,,,,,,,,,,,,,0.0085102919838391,0.0146969589986838,0.0146969589986838,0.0146969589986838,40.52888866700232,space,40.50486924999859,,,,,,,,,,,,,,,,,,,,,,,,,,,,,,,,,,,,,,,,,,,,,,,,,,,,,,,,,,sub-095,1,stroop_test,,
,,,,,,,,,,,,,,,,,,,,,,,,,,,,,,,,,,,,,,,,,,,,,,,,,40.5289783749613,40.54288349999115,40.54288349999115,45.21456216694787,space,4.668699458008632,,,,,,,,,,,,,,,,,,,,,,,,,,,,,,,,,,,,,,,,,,,,,,,,,,,sub-095,1,stroop_test,,
test,red,r,1.0,0.0,0.0,0.0,r,1.0,1.1293409159989096,,,,,,,,,,,,,,,,,,0.0,0.0,0.0,0.0,,,,,,,,,45.246264083951246,,,,,,,,,,,,,,,,,45.23301583400462,46.009826458990574,46.80945745896315,46.7950906669721,46.80260737496428,46.80945745896315,46.80945745896315,47.94672841695137,r,1.0,1.1293409159989096,,,,,,,,,,,,,,,,,,,,,,,,,,,,,,,,,,,,,,,sub-095,1,stroop_test,,
test,blue,b,1.0,1.0,1.0,0.0,b,1.0,0.5658931250218302,,,,,,,,,,,,,,,,,,0.0,1.0,1.0,2.0,,,,,,,,,47.956938999996055,,,,,,,,,,,,,,,,,47.94734779198188,48.74458708398743,49.536407791951206,49.52864524995675,49.52939441695344,49.536407791951206,49.536407791951206,50.11316879198421,b,1.0,0.5658931250218302,,,,,,,,,,,,,,,,,,,,,,,,,,,,,,,,,,,,,,,sub-095,1,stroop_test,,
test,yellow,g,1.0,2.0,2.0,0.0,g,1.0,0.5469409170327708,,,,,,,,,,,,,,,,,,0.0,2.0,2.0,1.0,,,,,,,,,50.12323591695167,,,,,,,,,,,,,,,,,50.11376112495782,50.21121395897353,51.00276937498711,50.99526620894903,50.996026334003545,51.00276937498711,51.00276937498711,51.552455624972936,g,1.0,0.5469409170327708,,,,,,,,,,,,,,,,,,,,,,,,,,,,,,,,,,,,,,,sub-095,1,stroop_test,,
test,blue,b,1.0,3.0,0.0,1.0,b,1.0,0.6214255419909023,,,,,,,,,,,,,,,,,,1.0,0.0,3.0,2.0,,,,,,,,,51.56272320897551,,,,,,,,,,,,,,,,,51.55295145895798,52.35061212495202,53.14295041695004,53.13457837497117,53.13515558396466,53.14295041695004,53.14295041695004,53.769637166988105,b,1.0,0.6214255419909023,,,,,,,,,,,,,,,,,,,,,,,,,,,,,,,,,,,,,,,sub-095,1,stroop_test,,
test,yellow,g,1.0,4.0,1.0,1.0,g,1.0,0.5562800409970805,,,,,,,,,,,,,,,,,,1.0,1.0,4.0,1.0,,,,,,,,,53.77996249997523,,,,,,,,,,,,,,,,,53.77014237496769,53.867240458959714,54.659872208954766,54.65068124997197,54.651258083991706,54.659872208954766,54.659872208954766,55.219262874976266,g,1.0,0.5562800409970805,,,,,,,,,,,,,,,,,,,,,,,,,,,,,,,,,,,,,,,sub-095,1,stroop_test,,
test,red,r,1.0,5.0,2.0,1.0,r,1.0,0.3758757920004427,,,,,,,,,,,,,,,,,,1.0,2.0,5.0,0.0,,,,,,,,,55.22942045895616,,,,,,,,,,,,,,,,,55.21971304196632,55.567562916956376,56.3597290419857,56.35069987497991,56.351288124977145,56.3597290419857,56.3597290419857,56.7463331669569,r,1.0,0.3758757920004427,,,,,,,,,,,,,,,,,,,,,,,,,,,,,,,,,,,,,,,sub-095,1,stroop_test,,
test,yellow,g,1.0,6.0,0.0,2.0,g,1.0,0.5919515829882585,,,,,,,,,,,,,,,,,,2.0,0.0,6.0,1.0,,,,,,,,,56.75626537494827,,,,,,,,,,,,,,,,,56.74683724995703,57.94439591700211,58.73625324998284,58.72852412494831,58.729271374992095,58.73625324998284,58.73625324998284,59.33114433399169,g,1.0,0.5919515829882585,,,,,,,,,,,,,,,,,,,,,,,,,,,,,,,,,,,,,,,sub-095,1,stroop_test,,
test,blue,b,1.0,7.0,1.0,2.0,b,1.0,0.4081892090034671,,,,,,,,,,,,,,,,,,2.0,1.0,7.0,2.0,,,,,,,,,59.34128112497274,,,,,,,,,,,,,,,,,59.33181320899166,59.67771945899585,60.47024633397814,60.46190691698576,60.46266374998959,60.47024633397814,60.47024633397814,60.89150245895144,b,1.0,0.4081892090034671,,,,,,,,,,,,,,,,,,,,,,,,,,,,,,,,,,,,,,,sub-095,1,stroop_test,,
test,red,r,1.0,8.0,2.0,2.0,r,1.0,0.8646879579755478,,,,,,,,,,,,,,,,,,2.0,2.0,8.0,0.0,,,,,,,,,60.8954023749684,,,,,,,,,,,,,,,,,60.89182929199888,61.68427991698263,62.47625016700477,62.46796574996552,62.46854179195361,62.47625016700477,62.47625016700477,63.34633854200365,r,1.0,0.8646879579755478,,,,,,,,,,,,,,,,,,,,,,,,,,,,,,,,,,,,,,,sub-095,1,stroop_test,,
test,yellow,g,1.0,9.0,0.0,3.0,g,1.0,0.5604284169967286,,,,,,,,,,,,,,,,,,3.0,0.0,9.0,1.0,,,,,,,,,63.35791595897172,,,,,,,,,,,,,,,,,63.34700604196405,64.1443757090019,64.93580037495121,64.92832249996718,64.92899229197064,64.93580037495121,64.93580037495121,65.50137383397669,g,1.0,0.5604284169967286,,,,,,,,,,,,,,,,,,,,,,,,,,,,,,,,,,,,,,,sub-095,1,stroop_test,,
test,red,r,1.0,10.0,1.0,3.0,r,1.0,0.5315395410289057,,,,,,,,,,,,,,,,,,3.0,1.0,10.0,0.0,,,,,,,,,65.52749908395344,,,,,,,,,,,,,,,,,65.50173945899587,65.85054404195398,66.64286637498299,66.63445945899002,66.63504533399828,66.64286637498299,66.64286637498299,67.17975174996536,r,1.0,0.5315395410289057,,,,,,,,,,,,,,,,,,,,,,,,,,,,,,,,,,,,,,,sub-095,1,stroop_test,,
test,blue,b,1.0,11.0,2.0,3.0,b,1.0,0.5131687080138363,,,,,,,,,,,,,,,,,,3.0,2.0,11.0,2.0,,,,,,,,,67.19062179198954,,,,,,,,,,,,,,,,,67.18044379196363,68.37763462495059,69.16962937498465,69.16172958398238,69.16248479200294,69.16962937498465,69.16962937498465,69.68595837499015,b,1.0,0.5131687080138363,,,,,,,,,,,,,,,,,,,,,,,,,,,,,,,,,,,,,,,sub-095,1,stroop_test,,
,,,,,,,,,,,,,,,,,,,,,,,,,,,,,,,,,,,,,,,,,,,,,,,,,,,,,,,,,,,,,,,,,,,,69.68617641698802,69.69825337495422,69.69825337495422,77.99631229200168,space,8.288947959023062,,,,,,,,,,,,,,,,,,,,,,,,,,,,,,,,sub-095,1,stroop_test,,
,,,,0.0,0.0,0.0,,,,,blau,yellow,g,0.0,g,1.0,1.5514238340547308,,,,,,,,,,,,,,0.0,0.0,0.0,7.0,,,,,78.01931812497787,,,,,,,,,,,,,,,,,78.0121134169749,79.19400904199574,79.9932455419912,79.97835095896153,,,,,,,,,,,,,,,,79.98623554199003,79.9932455419912,79.9932455419912,81.54792770900531,g,1.0,1.5514238340547308,,81.55711137497565,81.56558183400193,82.54947708395775,,,,,,,,,,,,,,,,,,,,sub-095,1,stroop_test,,
,,,,1.0,1.0,0.0,,,,,gelb,yellow,g,1.0,g,1.0,0.5132968749967404,,,,,,,,,,,,,,0.0,1.0,1.0,11.0,,,,,82.5609151669778,,,,,,,,,,,,,,,,,82.54993783397367,83.34420316695469,84.13893541699508,84.1281497089658,,,,,,,,,,,,,,,,84.1321125839604,84.13893541699508,84.13893541699508,84.66290104197105,g,1.0,0.5132968749967404,,84.6637328339857,84.6743882499868,85.66166641697055,85.6672122500022,,,,,,,,,,,,,,,,,,,sub-095,1,stroop_test,,
,,,,2.0,2.0,0.0,,,,,blau,red,r,0.0,r,1.0,0.6772686669719405,,,,,,,,,,,,,,0.0,2.0,2.0,4.0,,,,,85.6672122500022,,,,,,,,,,,,,,,,,85.66217329195933,86.4607597499853,87.25557212496642,87.24482124997303,,,,,,,,,,,,,,,,87.24867399997311,87.25557212496642,87.25557212496642,87.93544629198732,r,1.0,0.6772686669719405,,87.93614583398448,87.94786691700574,88.93334104196401,88.94406862498727,,,,,,,,,,,,,,,,,,,sub-095,1,stroop_test,,
,,,,3.0,3.0,0.0,,,,,rot,yellow,g,0.0,g,1.0,0.5815607089898549,,,,,,,,,,,,,,0.0,3.0,3.0,3.0,,,,,88.94406862498727,,,,,,,,,,,,,,,,,88.93373454199173,89.28354954195675,90.07962899998527,90.06668187497417,,,,,,,,,,,,,,,,90.07213587500156,90.07962899998527,90.07962899998527,90.66395262494916,g,1.0,0.5815607089898549,,90.66484337497968,90.6758020419511,91.66163816698828,91.66732766700444,,,,,,,,,,,,,,,,,,,sub-095,1,stroop_test,,
,,,,4.0,4.0,0.0,,,,,gelb,yellow,g,1.0,g,1.0,0.4336087079718709,,,,,,,,,,,,,,0.0,4.0,4.0,10.0,,,,,91.66732766700444,,,,,,,,,,,,,,,,,91.66216624999652,92.86072770896136,93.6560279589612,93.6447860839544,,,,,,,,,,,,,,,,93.64915733400268,93.6560279589612,93.6560279589612,94.09497816697694,g,1.0,0.4336087079718709,,94.09552045899908,94.10381337499712,95.09473874996183,95.10029324999778,,,,,,,,,,,,,,,,,,,sub-095,1,stroop_test,,
,,,,5.0,5.0,0.0,,,,,rot,red,r,1.0,r,1.0,0.5085008750320412,,,,,,,,,,,,,,0.0,5.0,5.0,1.0,,,,,95.10029324999778,,,,,,,,,,,,,,,,,95.0952735839528,95.44414116698316,96.24107579200064,96.2280643749982,,,,,,,,,,,,,,,,96.23374066699762,96.24107579200064,96.24107579200064,96.7521400419646,r,1.0,0.5085008750320412,,96.75294887495691,96.76557745895116,97.75071666698204,97.76070266700115,,,,,,,,,,,,,,,,,,,sub-095,1,stroop_test,,
,,,,6.0,6.0,0.0,,,,,rot,red,r,1.0,r,1.0,0.5123517080210149,,,,,,,,,,,,,,0.0,6.0,6.0,0.0,,,,,97.76070266700115,,,,,,,,,,,,,,,,,97.75112008396536,98.95010224997532,99.7526837089681,99.74471945897676,,,,,,,,,,,,,,,,99.74545566696906,99.7526837089681,99.7526837089681,100.26829562499188,r,1.0,0.5123517080210149,,100.26902462495492,100.2810995419859,101.26618350000354,101.27730474999407,,,,,,,,,,,,,,,,,,,sub-095,1,stroop_test,,
,,,,7.0,7.0,0.0,,,,,rot,blue,b,0.0,b,1.0,0.7055792090250179,,,,,,,,,,,,,,0.0,7.0,7.0,2.0,,,,,101.27730474999407,,,,,,,,,,,,,,,,,101.2665969170048,101.36670120898634,102.15907816699472,102.15068433398848,,,,,,,,,,,,,,,,102.1512539999676,102.15907816699472,102.15907816699472,102.86894116696205,b,1.0,0.7055792090250179,,102.86974974995246,102.880953416985,103.86711974994978,103.87722824997036,,,,,,,,,,,,,,,,,,,sub-095,1,stroop_test,,
,,,,8.0,8.0,0.0,,,,,gelb,red,r,0.0,r,1.0,0.8022841250058264,,,,,,,,,,,,,,0.0,8.0,8.0,8.0,,,,,103.87722824997036,,,,,,,,,,,,,,,,,103.86753179196968,105.06698220898396,105.86242824996587,105.8510891670012,,,,,,,,,,,,,,,,105.85477887495654,105.86242824996587,105.86242824996587,106.66844908398345,r,1.0,0.8022841250058264,,106.66919629200127,106.68112679198384,107.66686124994884,107.6771907499642,,,,,,,,,,,,,,,,,,,sub-095,1,stroop_test,,
,,,,9.0,9.0,0.0,,,,,blau,blue,b,1.0,b,1.0,0.5608631250215694,,,,,,,,,,,,,,0.0,9.0,9.0,6.0,,,,,107.6771907499642,,,,,,,,,,,,,,,,,107.66729874996236,107.76672354195034,108.56203724996884,108.55064641695937,,,,,,,,,,,,,,,,108.55432079196908,108.56203724996884,108.56203724996884,109.12918499996886,b,1.0,0.5608631250215694,,109.13015091698615,109.13963041699026,110.12820454197936,110.13394158397568,,,,,,,,,,,,,,,,,,,sub-095,1,stroop_test,,
,,,,10.0,10.0,0.0,,,,,blau,blue,b,1.0,b,1.0,0.4751008750172332,,,,,,,,,,,,,,0.0,10.0,10.0,5.0,,,,,110.13394158397568,,,,,,,,,,,,,,,,,110.1287468749797,110.4772727919626,111.26903262495762,111.26137108396506,,,,,,,,,,,,,,,,111.26212412497262,111.26903262495762,111.26903262495762,111.74670012498972,b,1.0,0.4751008750172332,,111.74778245895868,111.75877474999288,112.7443268339848,112.74990291695576,,,,,,,,,,,,,,,,,,,sub-095,1,stroop_test,,
,,,,11.0,11.0,0.0,,,,,gelb,blue,b,0.0,b,1.0,0.5450610420084558,,,,,,,,,,,,,,0.0,11.0,11.0,9.0,,,,,112.74990291695576,,,,,,,,,,,,,,,,,112.7447558339918,113.54399529198416,114.3396386669483,114.32795712497318,,,,,,,,,,,,,,,,114.33250412496272,114.3396386669483,114.3396386669483,114.8956872089766,b,1.0,0.5450610420084558,,114.89666979195316,114.9076698749559,115.89437274995726,115.8997961669811,,,,,,,,,,,,,,,,,,,sub-095,1,stroop_test,,
,,,,12.0,0.0,1.0,,,,,gelb,yellow,g,1.0,g,1.0,0.5087389170075767,,,,,,,,,,,,,,1.0,0.0,12.0,11.0,,,,,115.8997961669811,,,,,,,,,,,,,,,,,115.89480283396551,116.24385949998396,117.0351100419648,117.02787583397004,,,,,,,,,,,,,,,,117.0284717499744,117.0351100419648,117.0351100419648,117.5463042089832,g,1.0,0.5087389170075767,,117.54735474998596,117.55829887499569,118.5447547090007,118.55054329195993,,,,,,,,,,,,,,,,,,,sub-095,1,stroop_test,,
,,,,13.0,1.0,1.0,,,,,blau,blue,b,1.0,b,1.0,0.4804381669964641,,,,,,,,,,,,,,1.0,1.0,13.0,5.0,,,,,118.55054329195993,,,,,,,,,,,,,,,,,118.54529029194964,119.34386395895854,120.1391112919664,120.12780037499031,,,,,,,,,,,,,,,,120.13213454198558,120.1391112919664,120.1391112919664,120.62957620900124,b,1.0,0.4804381669964641,,120.63051183399512,120.64167537499452,121.62778766697738,121.63348391698672,,,,,,,,,,,,,,,,,,,sub-095,1,stroop_test,,
,,,,14.0,2.0,1.0,,,,,rot,red,r,1.0,r,1.0,0.4907435420318506,,,,,,,,,,,,,,1.0,2.0,14.0,0.0,,,,,121.63348391698672,,,,,,,,,,,,,,,,,121.62825704197166,122.42706366698258,123.22342108399609,123.21111783396918,,,,,,,,,,,,,,,,123.21630691696193,123.22342108399609,123.22342108399609,123.71882316697156,r,1.0,0.4907435420318506,,123.71962016698672,123.73115908395266,124.71653508394957,124.72696145897498,,,,,,,,,,,,,,,,,,,sub-095,1,stroop_test,,
,,,,15.0,3.0,1.0,,,,,blau,yellow,g,0.0,g,1.0,0.5802341249655001,,,,,,,,,,,,,,1.0,3.0,15.0,7.0,,,,,124.72696145897498,,,,,,,,,,,,,,,,,124.71693912497722,124.81746483396272,125.62254241696792,125.61116708396004,,,,,,,,,,,,,,,,125.61566208396108,125.62254241696792,125.62254241696792,126.21234941697912,g,1.0,0.5802341249655001,,126.21325295895804,126.22429908398772,127.21116633398924,127.21703566698125,,,,,,,,,,,,,,,,,,,sub-095,1,stroop_test,,
,,,,16.0,4.0,1.0,,,,,gelb,yellow,g,1.0,g,1.0,0.4619646659702994,,,,,,,,,,,,,,1.0,4.0,16.0,10.0,,,,,127.21703566698125,,,,,,,,,,,,,,,,,127.21169479197124,128.0103580419673,128.80539629195118,128.79434079199564,,,,,,,,,,,,,,,,128.79829449998215,128.80539629195118,128.80539629195118,129.27877874998376,g,1.0,0.4619646659702994,,129.27975645900003,129.29218049999326,130.27783241699217,130.28331699996488,,,,,,,,,,,,,,,,,,,sub-095,1,stroop_test,,
,,,,17.0,5.0,1.0,,,,,rot,yellow,g,0.0,g,1.0,0.5374621250084601,,,,,,,,,,,,,,1.0,5.0,17.0,3.0,,,,,130.28331699996488,,,,,,,,,,,,,,,,,130.27825799997663,131.47693816700485,132.27308687497862,132.26097158394987,,,,,,,,,,,,,,,,132.2655734999571,132.27308687497862,132.27308687497862,132.81311658397317,g,1.0,0.5374621250084601,,132.81421604199568,132.8260932089761,133.81102437496884,133.81640858395258,,,,,,,,,,,,,,,,,,,sub-095,1,stroop_test,,
,,,,18.0,6.0,1.0,,,,,gelb,red,r,0.0,r,1.0,0.7744176249834709,,,,,,,,,,,,,,1.0,6.0,18.0,8.0,,,,,133.81640858395258,,,,,,,,,,,,,,,,,133.81143445899943,134.6103232089663,135.40658645896474,135.39451541699236,,,,,,,,,,,,,,,,135.3991572089726,135.40658645896474,135.40658645896474,136.18535708397394,r,1.0,0.7744176249834709,,136.18612299999222,136.19748366699787,137.18380808399525,137.19354633399053,,,,,,,,,,,,,,,,,,,sub-095,1,stroop_test,,
,,,,19.0,7.0,1.0,,,,,gelb,blue,b,0.0,b,1.0,0.575277834024746,,,,,,,,,,,,,,1.0,7.0,19.0,9.0,,,,,137.19354633399053,,,,,,,,,,,,,,,,,137.18420545896515,137.53302799997618,138.32545866695,138.31717204197776,,,,,,,,,,,,,,,,138.31779958395057,138.32545866695,138.32545866695,138.91246445896104,b,1.0,0.575277834024746,,138.91351570899133,138.9250639169477,139.91095133399358,139.91667229199084,,,,,,,,,,,,,,,,,,,sub-095,1,stroop_test,,
,,,,20.0,8.0,1.0,,,,,blau,red,r,0.0,r,1.0,0.5049013330135494,,,,,,,,,,,,,,1.0,8.0,20.0,4.0,,,,,139.91667229199084,,,,,,,,,,,,,,,,,139.91147479199572,141.11006429197732,141.90571974997874,141.8942876670044,,,,,,,,,,,,,,,,141.89846779196523,141.90571974997874,141.90571974997874,142.41380820894847,r,1.0,0.5049013330135494,,142.41481758398004,142.4264329589787,143.4108145419741,143.4160093749524,,,,,,,,,,,,,,,,,,,sub-095,1,stroop_test,,
,,,,21.0,9.0,1.0,,,,,rot,red,r,1.0,r,1.0,0.6536544999689795,,,,,,,,,,,,,,1.0,9.0,21.0,1.0,,,,,143.4160093749524,,,,,,,,,,,,,,,,,143.4112281249836,143.7601114169811,144.55703599995468,144.54425970895682,,,,,,,,,,,,,,,,144.5498077920056,144.55703599995468,144.55703599995468,145.21382162498776,r,1.0,0.6536544999689795,,145.2148377499543,145.22671295900363,146.21084379195236,146.21630245895358,,,,,,,,,,,,,,,,,,,sub-095,1,stroop_test,,
,,,,22.0,10.0,1.0,,,,,rot,blue,b,0.0,b,1.0,0.6861329160165042,,,,,,,,,,,,,,1.0,10.0,22.0,2.0,,,,,146.21630245895358,,,,,,,,,,,,,,,,,146.21136133396067,147.0101166249951,147.80172579200007,147.79419741698075,,,,,,,,,,,,,,,,147.79493458400248,147.80172579200007,147.80172579200007,148.49547158397036,b,1.0,0.6861329160165042,,148.49643770896364,148.50835170899518,149.4942658749642,149.4997247499996,,,,,,,,,,,,,,,,,,,sub-095,1,stroop_test,,
,,,,23.0,11.0,1.0,,,,,blau,blue,b,1.0,b,1.0,0.5711192499729805,,,,,,,,,,,,,,1.0,11.0,23.0,6.0,,,,,149.4997247499996,,,,,,,,,,,,,,,,,149.49477770895464,150.6933815839584,151.48925866698846,151.4775845419499,,,,,,,,,,,,,,,,151.48216562496964,151.48925866698846,151.48925866698846,152.06291670899373,b,1.0,0.5711192499729805,,152.06396029196912,152.07571374997497,153.06098974996712,153.06880912499037,,,,,,,,,,,,,,,,,,,sub-095,1,stroop_test,,
,,,,,,,,,,,,,,,,,,,,,,,,,,,,,,,,,,,,,,,,,,,,,,,,,,,,,,,,,,,,,,,,,,,,,,,,,,,,,,,,,,,,,,,153.0612082919688,153.06880912499037,153.06880912499037,157.54149983398383,space,4.458425750024617,,,,,,,,,,,,,sub-095,1,stroop_test,,
,,,,0.0,0.0,0.0,,,,,,,,,,,,,gelb,yellow,g,1.0,g,1.0,0.5817882079863921,,,,,,,,,,0.0,0.0,0.0,11.0,157.55927045899443,,,,,,,,,,,,,,,,,157.55475270899478,157.88262591697276,158.69300154194934,158.66656854195753,,,,,,,,,,,,,,,,,,,,,,,,,,,,,,,,,,,158.67023220896954,158.69300154194934,158.69300154194934,159.2790934589575,g,1.0,0.5817882079863921,,,,,sub-095,1,stroop_test,,
,,,,1.0,1.0,0.0,,,,,,,,,,,,,gelb,yellow,g,1.0,g,1.0,0.4758037499850616,,,,,,,,,,0.0,1.0,1.0,10.0,159.29073612496722,,,,,,,,,,,,,,,,,159.27977704198565,159.37661079195095,160.1675735419849,160.16048566700192,,,,,,,,,,,,,,,,,,,,,,,,,,,,,,,,,,,160.1610876249615,160.1675735419849,160.1675735419849,160.64642187498976,g,1.0,0.4758037499850616,,,,,sub-095,1,stroop_test,,
,,,,2.0,2.0,0.0,,,,,,,,,,,,,rot,yellow,g,0.0,g,1.0,1.172149582998827,,,,,,,,,,0.0,2.0,2.0,3.0,160.657955667004,,,,,,,,,,,,,,,,,160.64714341697982,161.84332508395892,162.63977675000206,162.62740733398823,,,,,,,,,,,,,,,,,,,,,,,,,,,,,,,,,,,162.63201624999056,162.63977675000206,162.63977675000206,163.81796016695444,g,1.0,1.172149582998827,,,,,sub-095,1,stroop_test,,
,,,,3.0,3.0,0.0,,,,,,,,,,,,,rot,red,r,1.0,r,1.0,0.5684406670043245,,,,,,,,,,0.0,3.0,3.0,0.0,163.82882408396108,,,,,,,,,,,,,,,,,163.81853404198773,164.6162196249934,165.40837687498424,165.4000501249684,,,,,,,,,,,,,,,,,,,,,,,,,,,,,,,,,,,165.40063691698015,165.40837687498424,165.40837687498424,165.9796300419839,r,1.0,0.5684406670043245,,,,,sub-095,1,stroop_test,,
,,,,4.0,4.0,0.0,,,,,,,,,,,,,gelb,red,r,0.0,r,1.0,0.6215513750212267,,,,,,,,,,0.0,4.0,4.0,8.0,165.99070670898072,,,,,,,,,,,,,,,,,165.9804575839662,166.0765039169928,166.8725808750023,166.86046537494985,,,,,,,,,,,,,,,,,,,,,,,,,,,,,,,,,,,166.86556687497068,166.8725808750023,166.8725808750023,167.50869879196398,r,1.0,0.6215513750212267,,,,,sub-095,1,stroop_test,,
,,,,5.0,5.0,0.0,,,,,,,,,,,,,rot,blue,b,0.0,b,1.0,0.5207811670261435,,,,,,,,,,0.0,5.0,5.0,2.0,167.5128430419718,,,,,,,,,,,,,,,,,167.5092204589746,167.598809374962,168.3948323339573,168.38317112496588,,,,,,,,,,,,,,,,,,,,,,,,,,,,,,,,,,,168.38673920900328,168.3948323339573,168.3948323339573,168.9179979589535,b,1.0,0.5207811670261435,,,,,sub-095,1,stroop_test,,
,,,,6.0,6.0,0.0,,,,,,,,,,,,,blau,blue,b,1.0,b,1.0,0.4338368339813314,,,,,,,,,,0.0,6.0,6.0,6.0,168.929023374978,,,,,,,,,,,,,,,,,168.9186037919717,169.26612745894818,170.0613425420015,170.049780500005,,,,,,,,,,,,,,,,,,,,,,,,,,,,,,,,,,,170.05339499999536,170.0613425420015,170.0613425420015,170.50160954199964,b,1.0,0.4338368339813314,,,,,sub-095,1,stroop_test,,
,,,,7.0,7.0,0.0,,,,,,,,,,,,,blau,yellow,g,0.0,g,1.0,0.4067324170027859,,,,,,,,,,0.0,7.0,7.0,7.0,170.51234141696477,,,,,,,,,,,,,,,,,170.50215895898873,170.59873237495776,171.39163987495704,171.38339829200413,,,,,,,,,,,,,,,,,,,,,,,,,,,,,,,,,,,171.3839943339699,171.39163987495704,171.39163987495704,171.8012295839726,g,1.0,0.4067324170027859,,,,,sub-095,1,stroop_test,,
,,,,8.0,8.0,0.0,,,,,,,,,,,,,blau,blue,b,1.0,b,1.0,0.5376050410559401,,,,,,,,,,0.0,8.0,8.0,5.0,171.8121108749765,,,,,,,,,,,,,,,,,171.80172358395066,172.14987174997805,172.94162087497534,172.93314616696443,,,,,,,,,,,,,,,,,,,,,,,,,,,,,,,,,,,172.9337204999756,172.94162087497534,172.94162087497534,173.48507908399915,b,1.0,0.5376050410559401,,,,,sub-095,1,stroop_test,,
,,,,9.0,9.0,0.0,,,,,,,,,,,,,rot,red,r,1.0,r,1.0,0.5117501250351779,,,,,,,,,,0.0,9.0,9.0,1.0,173.4955892500002,,,,,,,,,,,,,,,,,173.48563258396462,173.83248237497173,174.62797062494792,174.61634883395163,,,,,,,,,,,,,,,,,,,,,,,,,,,,,,,,,,,174.619871999952,174.62797062494792,174.62797062494792,175.14509949996136,r,1.0,0.5117501250351779,,,,,sub-095,1,stroop_test,,
,,,,10.0,10.0,0.0,,,,,,,,,,,,,blau,red,r,0.0,r,1.0,0.5538562919828109,,,,,,,,,,0.0,10.0,10.0,4.0,175.15611120895483,,,,,,,,,,,,,,,,,175.14573437499348,175.24313083395828,176.03967195894802,176.02746625000145,,,,,,,,,,,,,,,,,,,,,,,,,,,,,,,,,,,176.032261833956,176.03967195894802,176.03967195894802,176.59619854198536,r,1.0,0.5538562919828109,,,,,sub-095,1,stroop_test,,
,,,,11.0,11.0,0.0,,,,,,,,,,,,,gelb,blue,b,0.0,b,1.0,0.4462236669496633,,,,,,,,,,0.0,11.0,11.0,9.0,176.60832124995068,,,,,,,,,,,,,,,,,176.59706912498223,177.7931709169643,178.58846358396113,178.57708145899232,,,,,,,,,,,,,,,,,,,,,,,,,,,,,,,,,,,178.58118824998382,178.58846358396113,178.58846358396113,179.04500641697086,b,1.0,0.4462236669496633,,,,,sub-095,1,stroop_test,,
,,,,12.0,0.0,1.0,,,,,,,,,,,,,blau,red,r,0.0,r,1.0,0.5933439580257982,,,,,,,,,,1.0,0.0,12.0,4.0,179.0557477090042,,,,,,,,,,,,,,,,,179.04572637495585,179.842928249971,180.6405601250008,180.62724854197583,,,,,,,,,,,,,,,,,,,,,,,,,,,,,,,,,,,180.63336162496125,180.6405601250008,180.6405601250008,181.24498862499604,r,1.0,0.5933439580257982,,,,,sub-095,1,stroop_test,,
,,,,13.0,1.0,1.0,,,,,,,,,,,,,gelb,red,r,0.0,r,1.0,0.4552115420228801,,,,,,,,,,1.0,1.0,13.0,8.0,181.25580949999855,,,,,,,,,,,,,,,,,181.24569895898455,181.34299066697716,182.13802774995565,182.1269724169979,,,,,,,,,,,,,,,,,,,,,,,,,,,,,,,,,,,182.1310306249652,182.13802774995565,182.13802774995565,182.5959178750054,r,1.0,0.4552115420228801,,,,,sub-095,1,stroop_test,,
,,,,14.0,2.0,1.0,,,,,,,,,,,,,rot,blue,b,0.0,b,1.0,0.5329234999953769,,,,,,,,,,1.0,2.0,14.0,2.0,182.60705125000092,,,,,,,,,,,,,,,,,182.59669133397983,182.94314370898064,183.73820987495128,183.7270442089648,,,,,,,,,,,,,,,,,,,,,,,,,,,,,,,,,,,183.73088020895372,183.73820987495128,183.73820987495128,184.2783347920049,b,1.0,0.5329234999953769,,,,,sub-095,1,stroop_test,,
,,,,15.0,3.0,1.0,,,,,,,,,,,,,blau,blue,b,1.0,b,1.0,0.4325276659801602,,,,,,,,,,1.0,3.0,15.0,5.0,184.28884954197565,,,,,,,,,,,,,,,,,184.27897258399756,185.0762895419612,185.8717634169734,185.8603287499864,,,,,,,,,,,,,,,,,,,,,,,,,,,,,,,,,,,185.86485087499025,185.8717634169734,185.8717634169734,186.31165674998192,b,1.0,0.4325276659801602,,,,,sub-095,1,stroop_test,,
,,,,16.0,4.0,1.0,,,,,,,,,,,,,gelb,blue,b,0.0,b,1.0,0.5330289169796742,,,,,,,,,,1.0,4.0,16.0,9.0,186.32252395898104,,,,,,,,,,,,,,,,,186.31231141695756,186.4095496669761,187.2054346249788,187.193785499956,,,,,,,,,,,,,,,,,,,,,,,,,,,,,,,,,,,187.19834091694796,187.2054346249788,187.2054346249788,187.74523287499323,b,1.0,0.5330289169796742,,,,,sub-095,1,stroop_test,,
,,,,17.0,5.0,1.0,,,,,,,,,,,,,rot,red,r,1.0,r,1.0,0.5147031249944121,,,,,,,,,,1.0,5.0,17.0,1.0,187.7558769999887,,,,,,,,,,,,,,,,,187.7459382499801,187.8429172919714,188.63814774999628,188.6270084589487,,,,,,,,,,,,,,,,,,,,,,,,,,,,,,,,,,,188.63093291700352,188.63814774999628,188.63814774999628,189.16168679198017,r,1.0,0.5147031249944121,,,,,sub-095,1,stroop_test,,
,,,,18.0,6.0,1.0,,,,,,,,,,,,,gelb,yellow,g,1.0,g,1.0,0.518877790949773,,,,,,,,,,1.0,6.0,18.0,11.0,189.17243112495635,,,,,,,,,,,,,,,,,189.1624060839531,190.3596630419488,191.15451124997344,191.14358862495283,,,,,,,,,,,,,,,,,,,,,,,,,,,,,,,,,,,191.14743562496733,191.15451124997344,191.15451124997344,191.6782295839512,g,1.0,0.518877790949773,,,,,sub-095,1,stroop_test,,
,,,,19.0,7.0,1.0,,,,,,,,,,,,,gelb,yellow,g,1.0,g,1.0,0.3712757080211304,,,,,,,,,,1.0,7.0,19.0,10.0,191.68884575000263,,,,,,,,,,,,,,,,,191.67890837497544,192.02633045898983,192.81837270897813,192.81030558398925,,,,,,,,,,,,,,,,,,,,,,,,,,,,,,,,,,,192.81105679197933,192.81837270897813,192.81837270897813,193.19498804199972,g,1.0,0.3712757080211304,,,,,sub-095,1,stroop_test,,
,,,,20.0,8.0,1.0,,,,,,,,,,,,,rot,red,r,1.0,r,1.0,0.4820224170107394,,,,,,,,,,1.0,8.0,20.0,0.0,193.20580012496796,,,,,,,,,,,,,,,,,193.1957238339819,194.39288637496065,195.1920295839664,195.17690420895812,,,,,,,,,,,,,,,,,,,,,,,,,,,,,,,,,,,195.1850254589808,195.1920295839664,195.1920295839664,195.67811204196187,r,1.0,0.4820224170107394,,,,,sub-095,1,stroop_test,,
,,,,21.0,9.0,1.0,,,,,,,,,,,,,rot,yellow,g,0.0,g,1.0,0.5599989159964025,,,,,,,,,,1.0,9.0,21.0,3.0,195.68845820898423,,,,,,,,,,,,,,,,,195.6787193749915,196.026228541974,196.8172214590013,196.8101497919997,,,,,,,,,,,,,,,,,,,,,,,,,,,,,,,,,,,196.81075645895908,196.8172214590013,196.8172214590013,197.3892832499696,g,1.0,0.5599989159964025,,,,,sub-095,1,stroop_test,,
,,,,22.0,10.0,1.0,,,,,,,,,,,,,blau,yellow,g,0.0,g,1.0,0.6098642910365015,,,,,,,,,,1.0,10.0,22.0,7.0,197.3950342919561,,,,,,,,,,,,,,,,,197.3898542499519,198.5822989589651,199.37765533395577,199.36603666696465,,,,,,,,,,,,,,,,,,,,,,,,,,,,,,,,,,,199.36970029195072,199.37765533395577,199.37765533395577,199.99484783399384,g,1.0,0.6098642910365015,,,,,sub-095,1,stroop_test,,
,,,,23.0,11.0,1.0,,,,,,,,,,,,,blau,blue,b,1.0,b,1.0,0.6431247090222314,,,,,,,,,,1.0,11.0,23.0,6.0,200.00565920898225,,,,,,,,,,,,,,,,,199.9955236249953,200.3428181670024,201.13436354196165,201.127078874968,,,,,,,,,,,,,,,,,,,,,,,,,,,,,,,,,,,201.1276742499904,201.13436354196165,201.13436354196165,201.78940499998865,b,1.0,0.6431247090222314,,,,,sub-095,1,stroop_test,,
,,,,24.0,0.0,2.0,,,,,,,,,,,,,rot,red,r,1.0,r,1.0,0.419372416974511,,,,,,,,,,2.0,0.0,24.0,1.0,201.79482329200252,,,,,,,,,,,,,,,,,201.78991929197215,202.9827787919785,203.77750654198465,203.76599149999677,,,,,,,,,,,,,,,,,,,,,,,,,,,,,,,,,,,203.76952945895027,203.77750654198465,203.77750654198465,204.2006004999857,r,1.0,0.419372416974511,,,,,sub-095,1,stroop_test,,
,,,,25.0,1.0,2.0,,,,,,,,,,,,,gelb,yellow,g,1.0,g,1.0,0.559302415989805,,,,,,,,,,2.0,1.0,25.0,11.0,204.21146029199008,,,,,,,,,,,,,,,,,204.20114566700067,205.39876916696085,206.1926701249904,206.18200587498723,,,,,,,,,,,,,,,,,,,,,,,,,,,,,,,,,,,206.18568416696507,206.1926701249904,206.1926701249904,206.76145983400056,g,1.0,0.559302415989805,,,,,sub-095,1,stroop_test,,
,,,,26.0,2.0,2.0,,,,,,,,,,,,,rot,yellow,g,0.0,g,1.0,0.6215765419765376,,,,,,,,,,2.0,2.0,26.0,3.0,206.77230695897012,,,,,,,,,,,,,,,,,206.76218433398756,207.5594566669897,208.3556349999853,208.34368495899253,,,,,,,,,,,,,,,,,,,,,,,,,,,,,,,,,,,208.3483377089724,208.3556349999853,208.3556349999853,208.98894370900237,g,1.0,0.6215765419765376,,,,,sub-095,1,stroop_test,,
,,,,27.0,3.0,2.0,,,,,,,,,,,,,gelb,yellow,g,1.0,g,1.0,0.5348254999844357,,,,,,,,,,2.0,3.0,27.0,10.0,208.99468249996423,,,,,,,,,,,,,,,,,208.98949954198903,209.08217983396025,209.892383917002,209.865722833958,,,,,,,,,,,,,,,,,,,,,,,,,,,,,,,,,,,209.86937766696792,209.892383917002,209.892383917002,210.4336224999861,g,1.0,0.5348254999844357,,,,,sub-095,1,stroop_test,,
,,,,28.0,4.0,2.0,,,,,,,,,,,,,rot,blue,b,0.0,b,1.0,1.1815845420351252,,,,,,,,,,2.0,4.0,28.0,2.0,210.4446824589977,,,,,,,,,,,,,,,,,210.43417437496828,211.63215933396717,212.42789412499403,212.4152086249669,,,,,,,,,,,,,,,,,,,,,,,,,,,,,,,,,,,212.42016262497052,212.42789412499403,212.42789412499403,213.6120657499996,b,1.0,1.1815845420351252,,,,,sub-095,1,stroop_test,,
,,,,29.0,5.0,2.0,,,,,,,,,,,,,gelb,blue,b,0.0,b,1.0,0.571774291980546,,,,,,,,,,2.0,5.0,29.0,9.0,213.62321766698733,,,,,,,,,,,,,,,,,213.61283420899417,213.7093504999648,214.5050978749641,214.49351333396044,,,,,,,,,,,,,,,,,,,,,,,,,,,,,,,,,,,214.49758691695752,214.5050978749641,214.5050978749641,215.09202691697283,b,1.0,0.571774291980546,,,,,sub-095,1,stroop_test,,
,,,,30.0,6.0,2.0,,,,,,,,,,,,,gelb,red,r,0.0,r,1.0,0.3263383340090513,,,,,,,,,,2.0,6.0,30.0,8.0,215.0966786670033,,,,,,,,,,,,,,,,,215.0924773339648,215.43184849998212,216.2244521249668,216.2161796669825,,,,,,,,,,,,,,,,,,,,,,,,,,,,,,,,,,,216.21676649997244,216.2244521249668,216.2244521249668,216.56130174995636,r,1.0,0.3263383340090513,,,,,sub-095,1,stroop_test,,
,,,,31.0,7.0,2.0,,,,,,,,,,,,,blau,blue,b,1.0,b,1.0,0.5779511249857023,,,,,,,,,,2.0,7.0,31.0,6.0,216.5724402499618,,,,,,,,,,,,,,,,,216.5619996250025,216.6593902499881,217.4551106669824,217.44345487497048,,,,,,,,,,,,,,,,,,,,,,,,,,,,,,,,,,,217.4480420000036,217.4551106669824,217.4551106669824,218.04483320895812,b,1.0,0.5779511249857023,,,,,sub-095,1,stroop_test,,
,,,,32.0,8.0,2.0,,,,,,,,,,,,,blau,yellow,g,0.0,g,1.0,0.3787520420155488,,,,,,,,,,2.0,8.0,32.0,7.0,218.0560007089516,,,,,,,,,,,,,,,,,218.04561849997845,218.8426021249616,219.6346229169867,219.62672249996103,,,,,,,,,,,,,,,,,,,,,,,,,,,,,,,,,,,219.62734024995007,219.6346229169867,219.6346229169867,220.01713462499904,g,1.0,0.3787520420155488,,,,,sub-095,1,stroop_test,,
,,,,33.0,9.0,2.0,,,,,,,,,,,,,blau,red,r,0.0,r,1.0,0.7734408340184018,,,,,,,,,,2.0,9.0,33.0,4.0,220.02815404196733,,,,,,,,,,,,,,,,,220.01768458395964,220.11508258397225,220.9077532920055,220.89935574994888,,,,,,,,,,,,,,,,,,,,,,,,,,,,,,,,,,,220.899960583949,220.9077532920055,220.9077532920055,221.68374566698915,r,1.0,0.7734408340184018,,,,,sub-095,1,stroop_test,,
,,,,34.0,10.0,2.0,,,,,,,,,,,,,blau,blue,b,1.0,b,1.0,0.6419782500015572,,,,,,,,,,2.0,10.0,34.0,5.0,221.69475558400157,,,,,,,,,,,,,,,,,221.6843340419582,222.03258916694904,222.8243866669945,222.81575604196405,,,,,,,,,,,,,,,,,,,,,,,,,,,,,,,,,,,222.81633404199965,222.8243866669945,222.8243866669945,223.4779920839937,b,1.0,0.6419782500015572,,,,,sub-095,1,stroop_test,,
,,,,35.0,11.0,2.0,,,,,,,,,,,,,rot,red,r,1.0,r,1.0,0.4591678339638747,,,,,,,,,,2.0,11.0,35.0,0.0,223.48923841695068,,,,,,,,,,,,,,,,,223.47874708398007,224.2759422090021,225.07182670896876,225.05998120899312,,,,,,,,,,,,,,,,,,,,,,,,,,,,,,,,,,,225.06450062495423,225.07182670896876,225.07182670896876,225.53375508397585,r,1.0,0.4591678339638747,,,,,sub-095,1,stroop_test,,
,,,,36.0,0.0,3.0,,,,,,,,,,,,,rot,red,r,1.0,r,1.0,0.5299217500141822,,,,,,,,,,3.0,0.0,36.0,0.0,225.54501129197888,,,,,,,,,,,,,,,,,225.53436016698836,226.33269733400084,227.1346369169769,227.12678416696144,,,,,,,,,,,,,,,,,,,,,,,,,,,,,,,,,,,227.1275579590001,227.1346369169769,227.1346369169769,227.6675265840022,r,1.0,0.5299217500141822,,,,,sub-095,1,stroop_test,,
,,,,37.0,1.0,3.0,,,,,,,,,,,,,rot,blue,b,0.0,b,1.0,0.6870765420026146,,,,,,,,,,3.0,1.0,37.0,2.0,227.6778980839881,,,,,,,,,,,,,,,,,227.66808708396275,227.7647407499608,228.55887591699135,228.54820254194783,,,,,,,,,,,,,,,,,,,,,,,,,,,,,,,,,,,228.5487682919484,228.55887591699135,228.55887591699135,229.25057304196525,b,1.0,0.6870765420026146,,,,,sub-095,1,stroop_test,,
,,,,38.0,2.0,3.0,,,,,,,,,,,,,gelb,yellow,g,1.0,g,1.0,0.3220112500130199,,,,,,,,,,3.0,2.0,38.0,11.0,229.26122383394977,,,,,,,,,,,,,,,,,229.25112008396536,229.34110962500563,230.13792587496573,230.12640254199505,,,,,,,,,,,,,,,,,,,,,,,,,,,,,,,,,,,230.13068591698536,230.13792587496573,230.13792587496573,230.4736429589684,g,1.0,0.3220112500130199,,,,,sub-095,1,stroop_test,,
,,,,39.0,3.0,3.0,,,,,,,,,,,,,blau,yellow,g,0.0,g,1.0,0.4588756249868311,,,,,,,,,,3.0,3.0,39.0,7.0,230.4776865419699,,,,,,,,,,,,,,,,,230.47412766696647,230.81534858397208,231.61093941697615,231.59876683395123,,,,,,,,,,,,,,,,,,,,,,,,,,,,,,,,,,,231.6038632499985,231.61093941697615,231.61093941697615,232.07776408398055,g,1.0,0.4588756249868311,,,,,sub-095,1,stroop_test,,
,,,,40.0,4.0,3.0,,,,,,,,,,,,,rot,red,r,1.0,r,1.0,0.4719589169835672,,,,,,,,,,3.0,4.0,40.0,1.0,232.08867124997775,,,,,,,,,,,,,,,,,232.0784088749788,233.2757174589788,234.071479583974,234.0598899169709,,,,,,,,,,,,,,,,,,,,,,,,,,,,,,,,,,,234.06429404194927,234.071479583974,234.071479583974,234.55507899995428,r,1.0,0.4719589169835672,,,,,sub-095,1,stroop_test,,
,,,,41.0,5.0,3.0,,,,,,,,,,,,,blau,blue,b,1.0,b,1.0,0.4338232090231031,,,,,,,,,,3.0,5.0,41.0,5.0,234.56056195899143,,,,,,,,,,,,,,,,,234.55556745897047,235.748948374996,236.55886950000425,236.5321864169673,,,,,,,,,,,,,,,,,,,,,,,,,,,,,,,,,,,236.53590462496504,236.55886950000425,236.55886950000425,236.9956814589677,b,1.0,0.4338232090231031,,,,,sub-095,1,stroop_test,,
,,,,42.0,6.0,3.0,,,,,,,,,,,,,gelb,blue,b,0.0,b,1.0,0.580552416970022,,,,,,,,,,3.0,6.0,42.0,9.0,237.00661362498067,,,,,,,,,,,,,,,,,236.996456999972,237.79222254198976,238.5884463749826,238.5765123749734,,,,,,,,,,,,,,,,,,,,,,,,,,,,,,,,,,,238.58125433395617,238.5884463749826,238.5884463749826,239.1778022919898,b,1.0,0.580552416970022,,,,,sub-095,1,stroop_test,,
,,,,43.0,7.0,3.0,,,,,,,,,,,,,gelb,red,r,0.0,r,1.0,0.4684012919897213,,,,,,,,,,3.0,7.0,43.0,8.0,239.1886837919592,,,,,,,,,,,,,,,,,239.17854104196888,239.2742002919549,240.06760291696992,240.05983662500512,,,,,,,,,,,,,,,,,,,,,,,,,,,,,,,,,,,240.06061416695596,240.06760291696992,240.06760291696992,240.5443774999585,r,1.0,0.4684012919897213,,,,,sub-095,1,stroop_test,,
,,,,44.0,8.0,3.0,,,,,,,,,,,,,blau,blue,b,1.0,b,1.0,0.5715055839973502,,,,,,,,,,3.0,8.0,44.0,6.0,240.55535054195207,,,,,,,,,,,,,,,,,240.54509416699875,241.7426414169604,242.5378355839639,242.5263954169932,,,,,,,,,,,,,,,,,,,,,,,,,,,,,,,,,,,242.53064824995815,242.5378355839639,242.5378355839639,243.1118934589904,b,1.0,0.5715055839973502,,,,,sub-095,1,stroop_test,,
,,,,45.0,9.0,3.0,,,,,,,,,,,,,blau,red,r,0.0,r,1.0,0.4867326659732498,,,,,,,,,,3.0,9.0,45.0,4.0,243.1226698340033,,,,,,,,,,,,,,,,,243.11265249998544,243.20898779196432,244.00104824994924,243.99310204200447,,,,,,,,,,,,,,,,,,,,,,,,,,,,,,,,,,,243.99384583398933,244.00104824994924,244.00104824994924,244.49451312498425,r,1.0,0.4867326659732498,,,,,sub-095,1,stroop_test,,
,,,,46.0,10.0,3.0,,,,,,,,,,,,,rot,yellow,g,0.0,g,1.0,0.37892137496965,,,,,,,,,,3.0,10.0,46.0,3.0,244.5052808339824,,,,,,,,,,,,,,,,,244.49521904200083,245.29228087497177,246.0884729999816,246.07634299999336,,,,,,,,,,,,,,,,,,,,,,,,,,,,,,,,,,,246.08096183399903,246.0884729999816,246.0884729999816,246.47725862497464,g,1.0,0.37892137496965,,,,,sub-095,1,stroop_test,,
,,,,47.0,11.0,3.0,,,,,,,,,,,,,gelb,yellow,g,1.0,g,1.0,0.3359224579762667,,,,,,,,,,3.0,11.0,47.0,10.0,246.48572645895183,,,,,,,,,,,,,,,,,246.4777327089687,246.8256026249728,247.6231442499557,247.60978958394844,,,,,,,,,,,,,,,,,,,,,,,,,,,,,,,,,,,247.61607437499333,247.6231442499557,247.6231442499557,247.96159616694783,g,1.0,0.3359224579762667,,,,,sub-095,1,stroop_test,,
,,,,48.0,0.0,4.0,,,,,,,,,,,,,blau,yellow,g,0.0,g,1.0,0.2752213749918155,,,,,,,,,,4.0,0.0,48.0,7.0,247.9709696669597,,,,,,,,,,,,,,,,,247.96230262500467,248.75916937500008,249.5549955839524,249.5431386669516,,,,,,,,,,,,,,,,,,,,,,,,,,,,,,,,,,,249.54770458396524,249.5549955839524,249.5549955839524,249.8332402499509,g,1.0,0.2752213749918155,,,,,sub-095,1,stroop_test,,
,,,,49.0,1.0,4.0,,,,,,,,,,,,,rot,red,r,1.0,r,1.0,0.3282541669905185,,,,,,,,,,4.0,1.0,49.0,0.0,249.84086491697235,,,,,,,,,,,,,,,,,249.8336455419776,250.18283666699423,250.98789637495065,250.9762623339775,,,,,,,,,,,,,,,,,,,,,,,,,,,,,,,,,,,250.98050037497887,250.98789637495065,250.98789637495065,251.32760808395687,r,1.0,0.3282541669905185,,,,,sub-095,1,stroop_test,,
,,,,50.0,2.0,4.0,,,,,,,,,,,,,blau,blue,b,1.0,b,1.0,0.3716235419851728,,,,,,,,,,4.0,2.0,50.0,5.0,251.33715133398076,,,,,,,,,,,,,,,,,251.32831258396615,251.42559737496777,252.221245875,252.20967316697352,,,,,,,,,,,,,,,,,,,,,,,,,,,,,,,,,,,252.2141076249536,252.221245875,252.221245875,252.60522662498988,b,1.0,0.3716235419851728,,,,,sub-095,1,stroop_test,,
,,,,51.0,3.0,4.0,,,,,,,,,,,,,gelb,red,r,0.0,r,1.0,0.5135580000351183,,,,,,,,,,4.0,3.0,51.0,8.0,252.6104738749564,,,,,,,,,,,,,,,,,252.6056311249849,253.79800833394984,254.59168933395995,254.58153999998467,,,,,,,,,,,,,,,,,,,,,,,,,,,,,,,,,,,254.5848271249561,254.59168933395995,254.59168933395995,255.1104867089889,r,1.0,0.5135580000351183,,,,,sub-095,1,stroop_test,,
,,,,52.0,4.0,4.0,,,,,,,,,,,,,rot,yellow,g,0.0,g,1.0,0.5491929999552667,,,,,,,,,,4.0,4.0,52.0,3.0,255.1193396669696,,,,,,,,,,,,,,,,,255.11102524999296,255.4587487499812,256.2540107499808,256.24286187498365,,,,,,,,,,,,,,,,,,,,,,,,,,,,,,,,,,,256.24673783394974,256.2540107499808,256.2540107499808,256.81076849997044,g,1.0,0.5491929999552667,,,,,sub-095,1,stroop_test,,
,,,,53.0,5.0,4.0,,,,,,,,,,,,,blau,red,r,0.0,r,1.0,0.5708309159963392,,,,,,,,,,4.0,5.0,53.0,4.0,256.8205942089553,,,,,,,,,,,,,,,,,256.81141374999424,258.00872920895927,258.80472670897143,258.793173833983,,,,,,,,,,,,,,,,,,,,,,,,,,,,,,,,,,,258.79749733395875,258.80472670897143,258.80472670897143,259.3778372919769,r,1.0,0.5708309159963392,,,,,sub-095,1,stroop_test,,
,,,,54.0,6.0,4.0,,,,,,,,,,,,,rot,red,r,1.0,r,1.0,0.4985122499638237,,,,,,,,,,4.0,6.0,54.0,1.0,259.38651595899137,,,,,,,,,,,,,,,,,259.37854016700294,260.17552470898954,260.973329667002,260.9596459589666,,,,,,,,,,,,,,,,,,,,,,,,,,,,,,,,,,,260.9658072919701,260.973329667002,260.973329667002,261.477429208986,r,1.0,0.4985122499638237,,,,,sub-095,1,stroop_test,,
,,,,55.0,7.0,4.0,,,,,,,,,,,,,blau,blue,b,1.0,b,1.0,0.4378274170449003,,,,,,,,,,4.0,7.0,55.0,6.0,261.4875561249792,,,,,,,,,,,,,,,,,261.4781086249859,262.27541970898164,263.0713981669978,263.05983470898354,,,,,,,,,,,,,,,,,,,,,,,,,,,,,,,,,,,263.0642714169808,263.0713981669978,263.0713981669978,263.51194758398924,b,1.0,0.4378274170449003,,,,,sub-095,1,stroop_test,,
,,,,56.0,8.0,4.0,,,,,,,,,,,,,gelb,yellow,g,1.0,r,0.0,0.3954367500264197,,,,,,,,,,4.0,8.0,56.0,11.0,263.52211083396105,,,,,,,,,,,,,,,,,263.51277762500104,264.70886724995216,265.5043625839753,265.4929347089492,,,,,,,,,,,,,,,,,,,,,,,,,,,,,,,,,,,265.49747766699875,265.5043625839753,265.5043625839753,265.910453208955,r,0.0,0.3954367500264197,,,,,sub-095,1,stroop_test,,
,,,,57.0,9.0,4.0,,,,,,,,,,,,,rot,blue,b,0.0,b,1.0,0.7517425420228392,,,,,,,,,,4.0,9.0,57.0,2.0,265.9156980839907,,,,,,,,,,,,,,,,,265.91088891698746,266.70883479196345,267.50414941698546,267.49280237499624,,,,,,,,,,,,,,,,,,,,,,,,,,,,,,,,,,,267.4968228339567,267.50414941698546,267.50414941698546,268.26075433398364,b,1.0,0.7517425420228392,,,,,sub-095,1,stroop_test,,
,,,,58.0,10.0,4.0,,,,,,,,,,,,,gelb,blue,b,0.0,b,1.0,0.6069465840118937,,,,,,,,,,4.0,10.0,58.0,9.0,268.2703433339484,,,,,,,,,,,,,,,,,268.2614267919562,268.60876783396816,269.4045271249488,269.39306216698606,,,,,,,,,,,,,,,,,,,,,,,,,,,,,,,,,,,269.3975192089565,269.4045271249488,269.4045271249488,270.0167461249512,b,1.0,0.6069465840118937,,,,,sub-095,1,stroop_test,,
,,,,59.0,11.0,4.0,,,,,,,,,,,,,gelb,yellow,g,1.0,r,0.0,0.485719499993138,,,,,,,,,,4.0,11.0,59.0,10.0,270.027360624983,,,,,,,,,,,,,,,,,270.01728829200147,270.1144020420033,270.90718595898943,270.8984333339613,,,,,,,,,,,,,,,,,,,,,,,,,,,,,,,,,,,270.8990043340018,270.90718595898943,270.90718595898943,271.39670766697964,r,0.0,0.485719499993138,,,,,sub-095,1,stroop_test,,
,,,,60.0,0.0,5.0,,,,,,,,,,,,,blau,yellow,g,0.0,g,1.0,0.5954729170189239,,,,,,,,,,5.0,0.0,60.0,7.0,271.40682520897826,,,,,,,,,,,,,,,,,271.39743854198605,271.7420012090006,272.5371942499769,272.52604949998204,,,,,,,,,,,,,,,,,,,,,,,,,,,,,,,,,,,272.53020383400144,272.5371942499769,272.5371942499769,273.1439651249675,g,1.0,0.5954729170189239,,,,,sub-095,1,stroop_test,,
,,,,61.0,1.0,5.0,,,,,,,,,,,,,rot,yellow,g,0.0,g,1.0,0.5016239159740508,,,,,,,,,,5.0,1.0,61.0,3.0,273.15384624997387,,,,,,,,,,,,,,,,,273.1446419999702,273.4920548339724,274.2871160839568,274.2759730419493,,,,,,,,,,,,,,,,,,,,,,,,,,,,,,,,,,,274.2799442919786,274.2871160839568,274.2871160839568,274.79419808398234,g,1.0,0.5016239159740508,,,,,sub-095,1,stroop_test,,
,,,,62.0,2.0,5.0,,,,,,,,,,,,,blau,blue,b,1.0,b,1.0,0.5528531660092995,,,,,,,,,,5.0,2.0,62.0,5.0,274.80624579195864,,,,,,,,,,,,,,,,,274.795054666989,274.8920003339881,275.68941329198424,275.67609258397715,,,,,,,,,,,,,,,,,,,,,,,,,,,,,,,,,,,275.682398624951,275.68941329198424,275.68941329198424,276.2455873339786,b,1.0,0.5528531660092995,,,,,sub-095,1,stroop_test,,
,,,,63.0,3.0,5.0,,,,,,,,,,,,,blau,red,r,0.0,r,1.0,0.4196226659696549,,,,,,,,,,5.0,3.0,63.0,4.0,276.2573625840014,,,,,,,,,,,,,,,,,276.24641041696304,276.5918774169986,277.38393912499305,277.3761252089753,,,,,,,,,,,,,,,,,,,,,,,,,,,,,,,,,,,277.37691258400446,277.38393912499305,277.38393912499305,277.8107160839718,r,1.0,0.4196226659696549,,,,,sub-095,1,stroop_test,,
,,,,64.0,4.0,5.0,,,,,,,,,,,,,rot,red,r,1.0,r,1.0,0.5889033749699593,,,,,,,,,,5.0,4.0,64.0,0.0,277.8224283749587,,,,,,,,,,,,,,,,,277.81145341700176,278.6086989589967,279.40461183397565,279.3927545839688,,,,,,,,,,,,,,,,,,,,,,,,,,,,,,,,,,,279.3972395839519,279.40461183397565,279.40461183397565,280.0001076249755,r,1.0,0.5889033749699593,,,,,sub-095,1,stroop_test,,
,,,,65.0,5.0,5.0,,,,,,,,,,,,,gelb,blue,b,0.0,b,1.0,0.4872225419967435,,,,,,,,,,5.0,5.0,65.0,9.0,280.01116412499687,,,,,,,,,,,,,,,,,280.00070291699376,281.1982053339598,282.0082995839766,281.9812389589497,,,,,,,,,,,,,,,,,,,,,,,,,,,,,,,,,,,281.9849068339681,282.0082995839766,282.0082995839766,282.4998417499592,b,1.0,0.4872225419967435,,,,,sub-095,1,stroop_test,,
,,,,66.0,6.0,5.0,,,,,,,,,,,,,blau,blue,b,1.0,b,1.0,0.4637437080382369,,,,,,,,,,5.0,6.0,66.0,6.0,282.5108505419921,,,,,,,,,,,,,,,,,282.50043920899043,283.2980188339716,284.1082018750021,284.0815126669477,,,,,,,,,,,,,,,,,,,,,,,,,,,,,,,,,,,284.08521979197394,284.1082018750021,284.1082018750021,284.5770364589989,b,1.0,0.4637437080382369,,,,,sub-095,1,stroop_test,,
,,,,67.0,7.0,5.0,,,,,,,,,,,,,gelb,red,r,0.0,r,1.0,0.2976256670081056,,,,,,,,,,5.0,7.0,67.0,8.0,284.58604649995686,,,,,,,,,,,,,,,,,284.5776908340049,285.77529133396456,286.5703363339999,286.5591954590054,,,,,,,,,,,,,,,,,,,,,,,,,,,,,,,,,,,286.56322995899245,286.5703363339999,286.5703363339999,286.8770297499723,r,1.0,0.2976256670081056,,,,,sub-095,1,stroop_test,,
,,,,68.0,8.0,5.0,,,,,,,,,,,,,rot,red,r,1.0,r,1.0,0.5298562500393018,,,,,,,,,,5.0,8.0,68.0,1.0,286.88618129194947,,,,,,,,,,,,,,,,,286.8776087089791,288.0752102499828,288.8712852089666,288.85929629195016,,,,,,,,,,,,,,,,,,,,,,,,,,,,,,,,,,,288.8636367499712,288.8712852089666,288.8712852089666,289.410688916978,r,1.0,0.5298562500393018,,,,,sub-095,1,stroop_test,,
,,,,69.0,9.0,5.0,,,,,,,,,,,,,rot,blue,b,0.0,b,1.0,0.6647647080244496,,,,,,,,,,5.0,9.0,69.0,2.0,289.4206446669996,,,,,,,,,,,,,,,,,289.4114422919811,289.758456749958,290.5502823339775,290.5426836249535,,,,,,,,,,,,,,,,,,,,,,,,,,,,,,,,,,,290.543454833969,290.5502823339775,290.5502823339775,291.22763229196426,b,1.0,0.6647647080244496,,,,,sub-095,1,stroop_test,,
,,,,70.0,10.0,5.0,,,,,,,,,,,,,gelb,yellow,g,1.0,g,1.0,0.3245406249770894,,,,,,,,,,5.0,10.0,70.0,10.0,291.24180254200473,,,,,,,,,,,,,,,,,291.22804729198106,292.02510099997744,292.82179145899136,292.80903841694817,,,,,,,,,,,,,,,,,,,,,,,,,,,,,,,,,,,292.81496204197174,292.82179145899136,292.82179145899136,293.149403666961,g,1.0,0.3245406249770894,,,,,sub-095,1,stroop_test,,
,,,,71.0,11.0,5.0,,,,,,,,,,,,,gelb,yellow,g,1.0,g,1.0,0.4268431249656714,,,,,,,,,,5.0,11.0,71.0,11.0,293.1599746669526,,,,,,,,,,,,,,,,,293.149951874977,293.2479561669752,294.0402307919576,294.03197341697523,,,,,,,,,,,,,,,,,,,,,,,,,,,,,,,,,,,294.032553499972,294.0402307919576,294.0402307919576,294.47711183398496,g,1.0,0.4268431249656714,,,,,sub-095,1,stroop_test,,
,,,,72.0,0.0,6.0,,,,,,,,,,,,,blau,red,r,0.0,r,1.0,0.5120899999747053,,,,,,,,,,6.0,0.0,72.0,4.0,294.4872260419652,,,,,,,,,,,,,,,,,294.47780758398585,295.67513999994844,296.47018887498416,296.4590207919828,,,,,,,,,,,,,,,,,,,,,,,,,,,,,,,,,,,296.46302374999505,296.47018887498416,296.47018887498416,296.9946966669522,r,1.0,0.5120899999747053,,,,,sub-095,1,stroop_test,,
,,,,73.0,1.0,6.0,,,,,,,,,,,,,rot,blue,b,0.0,b,1.0,0.4099340829998255,,,,,,,,,,6.0,1.0,73.0,2.0,297.00838770897826,,,,,,,,,,,,,,,,,296.99509962496813,297.0916901669698,297.88800887495745,297.87588570895605,,,,,,,,,,,,,,,,,,,,,,,,,,,,,,,,,,,297.8805227089906,297.88800887495745,297.88800887495745,298.3004937089863,b,1.0,0.4099340829998255,,,,,sub-095,1,stroop_test,,
,,,,74.0,2.0,6.0,,,,,,,,,,,,,rot,red,r,1.0,r,1.0,0.382569000008516,,,,,,,,,,6.0,2.0,74.0,0.0,298.31068125000456,,,,,,,,,,,,,,,,,298.30127516697394,299.4982272919733,300.3004270839738,300.29270837496733,,,,,,,,,,,,,,,,,,,,,,,,,,,,,,,,,,,300.29349020897644,300.3004270839738,300.3004270839738,300.69430074997945,r,1.0,0.382569000008516,,,,,sub-095,1,stroop_test,,
,,,,75.0,3.0,6.0,,,,,,,,,,,,,gelb,blue,b,0.0,b,1.0,0.6924585840315558,,,,,,,,,,6.0,3.0,75.0,9.0,300.7045100419782,,,,,,,,,,,,,,,,,300.6950859169592,300.7917036669678,301.5869352919981,301.57563358399784,,,,,,,,,,,,,,,,,,,,,,,,,,,,,,,,,,,301.5797083340003,301.5869352919981,301.5869352919981,302.2831072089612,b,1.0,0.6924585840315558,,,,,sub-095,1,stroop_test,,
,,,,76.0,4.0,6.0,,,,,,,,,,,,,rot,yellow,g,0.0,g,1.0,0.4653403750271536,,,,,,,,,,6.0,4.0,76.0,3.0,302.29333379195305,,,,,,,,,,,,,,,,,302.28366729198024,302.3806590419845,303.1765305000008,303.1647684999625,,,,,,,,,,,,,,,,,,,,,,,,,,,,,,,,,,,303.1683442919748,303.1765305000008,303.1765305000008,303.6443382499856,g,1.0,0.4653403750271536,,,,,sub-095,1,stroop_test,,
,,,,77.0,5.0,6.0,,,,,,,,,,,,,gelb,yellow,g,1.0,g,1.0,0.4388795410050079,,,,,,,,,,6.0,5.0,77.0,11.0,303.6545795839629,,,,,,,,,,,,,,,,,303.6451322089997,304.4416903340025,305.2367310419795,305.225580792001,,,,,,,,,,,,,,,,,,,,,,,,,,,,,,,,,,,305.2296568339807,305.2367310419795,305.2367310419795,305.6885059589986,g,1.0,0.4388795410050079,,,,,sub-095,1,stroop_test,,
,,,,78.0,6.0,6.0,,,,,,,,,,,,,blau,yellow,g,0.0,g,1.0,0.4574747920269146,,,,,,,,,,6.0,6.0,78.0,7.0,305.6928899589693,,,,,,,,,,,,,,,,,305.6889563339646,306.03106966696214,306.8269563749782,306.81487695896067,,,,,,,,,,,,,,,,,,,,,,,,,,,,,,,,,,,306.8199874589918,306.8269563749782,306.8269563749782,307.2937602919992,g,1.0,0.4574747920269146,,,,,sub-095,1,stroop_test,,
,,,,79.0,7.0,6.0,,,,,,,,,,,,,gelb,yellow,g,1.0,g,1.0,0.5207726669614203,,,,,,,,,,6.0,7.0,79.0,10.0,307.30423804197926,,,,,,,,,,,,,,,,,307.2944774169591,307.39166916697286,308.1877000419772,308.1758497089613,,,,,,,,,,,,,,,,,,,,,,,,,,,,,,,,,,,308.1803752499982,308.1877000419772,308.1877000419772,308.7112295840052,g,1.0,0.5207726669614203,,,,,sub-095,1,stroop_test,,
,,,,80.0,8.0,6.0,,,,,,,,,,,,,blau,blue,b,1.0,b,1.0,0.5388694579596631,,,,,,,,,,6.0,8.0,80.0,6.0,308.7217826669803,,,,,,,,,,,,,,,,,308.712018124992,309.90825370897073,310.7037244999665,310.69231254199985,,,,,,,,,,,,,,,,,,,,,,,,,,,,,,,,,,,310.6966709999833,310.7037244999665,310.7037244999665,311.2537795419921,b,1.0,0.5388694579596631,,,,,sub-095,1,stroop_test,,
,,,,81.0,9.0,6.0,,,,,,,,,,,,,rot,red,r,1.0,r,1.0,0.4819369169999845,,,,,,,,,,6.0,9.0,81.0,1.0,311.2599696249817,,,,,,,,,,,,,,,,,311.2543309999746,312.04787291696994,312.8433294169954,312.8314861669787,,,,,,,,,,,,,,,,,,,,,,,,,,,,,,,,,,,312.8352390420041,312.8433294169954,312.8433294169954,313.32777062495006,r,1.0,0.4819369169999845,,,,,sub-095,1,stroop_test,,
,,,,82.0,10.0,6.0,,,,,,,,,,,,,blau,blue,b,1.0,b,1.0,0.5231904170359485,,,,,,,,,,6.0,10.0,82.0,5.0,313.3376371669583,,,,,,,,,,,,,,,,,313.3284838339896,314.12487775000045,314.9203399999533,314.9089485000004,,,,,,,,,,,,,,,,,,,,,,,,,,,,,,,,,,,314.9133195419563,314.9203399999533,314.9203399999533,315.44941620895406,b,1.0,0.5231904170359485,,,,,sub-095,1,stroop_test,,
,,,,83.0,11.0,6.0,,,,,,,,,,,,,gelb,red,r,0.0,r,1.0,0.4367052910383791,,,,,,,,,,6.0,11.0,83.0,8.0,315.45959124999354,,,,,,,,,,,,,,,,,315.4499972919584,315.798476499971,316.60404970898526,316.59236308396794,,,,,,,,,,,,,,,,,,,,,,,,,,,,,,,,,,,316.5970542919822,316.60404970898526,316.60404970898526,317.0426862089662,r,1.0,0.4367052910383791,,,,,sub-095,1,stroop_test,,
,,,,84.0,0.0,7.0,,,,,,,,,,,,,gelb,blue,b,0.0,b,1.0,0.7198815000010654,,,,,,,,,,7.0,0.0,84.0,9.0,317.04999241698533,,,,,,,,,,,,,,,,,317.0430560839595,318.24156024999684,319.03410820895806,319.0259159169509,,,,,,,,,,,,,,,,,,,,,,,,,,,,,,,,,,,319.02668120898306,319.03410820895806,319.03410820895806,319.7604007089976,b,1.0,0.7198815000010654,,,,,sub-095,1,stroop_test,,
,,,,85.0,1.0,7.0,,,,,,,,,,,,,rot,red,r,1.0,r,1.0,0.7153113330132328,,,,,,,,,,7.0,1.0,85.0,1.0,319.7695038749953,,,,,,,,,,,,,,,,,319.7611058339826,319.85810608399333,320.65335979196243,320.6420391249703,,,,,,,,,,,,,,,,,,,,,,,,,,,,,,,,,,,320.6459791249945,320.65335979196243,320.65335979196243,321.37691158399684,r,1.0,0.7153113330132328,,,,,sub-095,1,stroop_test,,
,,,,86.0,2.0,7.0,,,,,,,,,,,,,blau,blue,b,1.0,b,1.0,0.3640176250482909,,,,,,,,,,7.0,2.0,86.0,5.0,321.3867808749783,,,,,,,,,,,,,,,,,321.3776114169741,322.5748668339802,323.3717287919717,323.35885145899374,,,,,,,,,,,,,,,,,,,,,,,,,,,,,,,,,,,323.3647129169549,323.3717287919717,323.3717287919717,323.7412619999959,b,1.0,0.3640176250482909,,,,,sub-095,1,stroop_test,,
,,,,87.0,3.0,7.0,,,,,,,,,,,,,gelb,red,r,0.0,b,0.0,0.4937919590156525,,,,,,,,,,7.0,3.0,87.0,8.0,323.7485419999575,,,,,,,,,,,,,,,,,323.74159679195145,324.93186783394776,325.73647462495137,325.72540270898025,,,,,,,,,,,,,,,,,,,,,,,,,,,,,,,,,,,325.72942408395465,325.73647462495137,325.73647462495137,326.243309124955,b,0.0,0.4937919590156525,,,,,sub-095,1,stroop_test,,
,,,,88.0,4.0,7.0,,,,,,,,,,,,,blau,yellow,g,0.0,g,1.0,0.5684095410397276,,,,,,,,,,7.0,4.0,88.0,7.0,326.25260524998885,,,,,,,,,,,,,,,,,326.2438926670002,326.59144024999114,327.3872240839992,327.37542770896107,,,,,,,,,,,,,,,,,,,,,,,,,,,,,,,,,,,327.37986962497234,327.3872240839992,327.3872240839992,327.95959399995627,g,1.0,0.5684095410397276,,,,,sub-095,1,stroop_test,,
,,,,89.0,5.0,7.0,,,,,,,,,,,,,rot,blue,b,0.0,b,1.0,0.5747984999907203,,,,,,,,,,7.0,5.0,89.0,2.0,327.9683124999865,,,,,,,,,,,,,,,,,327.96020308398874,329.15810958395014,329.95377733395435,329.9421748750028,,,,,,,,,,,,,,,,,,,,,,,,,,,,,,,,,,,329.94648291700287,329.95377733395435,329.95377733395435,330.5341446669772,b,1.0,0.5747984999907203,,,,,sub-095,1,stroop_test,,
,,,,90.0,6.0,7.0,,,,,,,,,,,,,blau,red,r,0.0,r,1.0,0.4541828340152278,,,,,,,,,,7.0,6.0,90.0,4.0,330.54390470898943,,,,,,,,,,,,,,,,,330.5346957919537,330.6309556249762,331.4261369589949,331.41448870894965,,,,,,,,,,,,,,,,,,,,,,,,,,,,,,,,,,,331.41826966695953,331.4261369589949,331.4261369589949,331.88273037498584,r,1.0,0.4541828340152278,,,,,sub-095,1,stroop_test,,
,,,,91.0,7.0,7.0,,,,,,,,,,,,,rot,red,r,1.0,r,1.0,0.5057103339931928,,,,,,,,,,7.0,7.0,91.0,0.0,331.892672166985,,,,,,,,,,,,,,,,,331.8832683749497,333.0815567499958,333.8873409589869,333.87546708399896,,,,,,,,,,,,,,,,,,,,,,,,,,,,,,,,,,,333.8800825839862,333.8873409589869,333.8873409589869,334.39992904197425,r,1.0,0.5057103339931928,,,,,sub-095,1,stroop_test,,
,,,,92.0,8.0,7.0,,,,,,,,,,,,,rot,yellow,g,0.0,g,1.0,0.5107205000240356,,,,,,,,,,7.0,8.0,92.0,3.0,334.4101288339589,,,,,,,,,,,,,,,,,334.4004615839804,335.1975872499752,335.9983972499613,335.9919914169586,,,,,,,,,,,,,,,,,,,,,,,,,,,,,,,,,,,335.9925032919855,335.9983972499613,335.9983972499613,336.5156738749938,g,1.0,0.5107205000240356,,,,,sub-095,1,stroop_test,,
,,,,93.0,9.0,7.0,,,,,,,,,,,,,gelb,yellow,g,1.0,g,1.0,0.4452709169709123,,,,,,,,,,7.0,9.0,93.0,10.0,336.5262479999801,,,,,,,,,,,,,,,,,336.5162202499924,337.3142499589594,338.12440499995137,338.097549750004,,,,,,,,,,,,,,,,,,,,,,,,,,,,,,,,,,,338.10127874999307,338.12440499995137,338.12440499995137,338.5765384589904,g,1.0,0.4452709169709123,,,,,sub-095,1,stroop_test,,
,,,,94.0,10.0,7.0,,,,,,,,,,,,,gelb,yellow,g,1.0,g,1.0,0.3645623329794034,,,,,,,,,,7.0,10.0,94.0,11.0,338.5870624999516,,,,,,,,,,,,,,,,,338.57722229196224,338.9247323749587,339.71664825000335,339.7089591249824,,,,,,,,,,,,,,,,,,,,,,,,,,,,,,,,,,,339.7097212499939,339.71664825000335,339.71664825000335,340.09102387499297,g,1.0,0.3645623329794034,,,,,sub-095,1,stroop_test,,
,,,,95.0,11.0,7.0,,,,,,,,,,,,,blau,blue,b,1.0,b,1.0,0.4868102500331588,,,,,,,,,,7.0,11.0,95.0,6.0,340.0955299169873,,,,,,,,,,,,,,,,,340.0914227499743,340.4307128749788,341.22653020895086,341.214571666962,,,,,,,,,,,,,,,,,,,,,,,,,,,,,,,,,,,341.219377041969,341.22653020895086,341.22653020895086,341.71595904196147,b,1.0,0.4868102500331588,,,,,sub-095,1,stroop_test,,
,,,,96.0,0.0,8.0,,,,,,,,,,,,,gelb,yellow,g,1.0,g,1.0,0.5998803749680519,,,,,,,,,,8.0,0.0,96.0,10.0,341.7266911249608,,,,,,,,,,,,,,,,,341.71654591697734,342.51483691699104,343.3208459999878,343.3087865419802,,,,,,,,,,,,,,,,,,,,,,,,,,,,,,,,,,,343.3134902919992,343.3208459999878,343.3208459999878,343.92648558400106,g,1.0,0.5998803749680519,,,,,sub-095,1,stroop_test,,
,,,,97.0,1.0,8.0,,,,,,,,,,,,,rot,red,r,1.0,r,1.0,0.3772671669721603,,,,,,,,,,8.0,1.0,97.0,0.0,343.9364443749655,,,,,,,,,,,,,,,,,343.92711291695014,344.0245869589853,344.82023912499426,344.80851041700225,,,,,,,,,,,,,,,,,,,,,,,,,,,,,,,,,,,344.8125214589527,344.82023912499426,344.82023912499426,345.20773824997013,r,1.0,0.3772671669721603,,,,,sub-095,1,stroop_test,,
,,,,98.0,2.0,8.0,,,,,,,,,,,,,blau,red,r,0.0,r,1.0,0.7264850829960778,,,,,,,,,,8.0,2.0,98.0,4.0,345.21148037497187,,,,,,,,,,,,,,,,,345.20810829196125,345.9973757919506,346.7925335419713,346.7810549999704,,,,,,,,,,,,,,,,,,,,,,,,,,,,,,,,,,,346.7846949999803,346.7925335419713,346.7925335419713,347.5264989589923,r,1.0,0.7264850829960778,,,,,sub-095,1,stroop_test,,
,,,,99.0,3.0,8.0,,,,,,,,,,,,,rot,yellow,g,0.0,g,1.0,0.4089424170088023,,,,,,,,,,8.0,3.0,99.0,3.0,347.535174583958,,,,,,,,,,,,,,,,,347.5270727919997,347.624521916965,348.4206544999616,348.4087687919964,,,,,,,,,,,,,,,,,,,,,,,,,,,,,,,,,,,348.4134192499914,348.4206544999616,348.4206544999616,348.8323717919993,g,1.0,0.4089424170088023,,,,,sub-095,1,stroop_test,,
,,,,100.0,4.0,8.0,,,,,,,,,,,,,gelb,blue,b,0.0,b,1.0,0.483985083992593,,,,,,,,,,8.0,4.0,100.0,9.0,348.8423854589928,,,,,,,,,,,,,,,,,348.83290483395103,349.1806741249748,349.9908119169995,349.9641232499853,,,,,,,,,,,,,,,,,,,,,,,,,,,,,,,,,,,349.96778224996524,349.9908119169995,349.9908119169995,350.47767724998994,b,1.0,0.483985083992593,,,,,sub-095,1,stroop_test,,
,,,,101.0,5.0,8.0,,,,,,,,,,,,,blau,blue,b,1.0,b,1.0,0.3723796660196967,,,,,,,,,,8.0,5.0,101.0,5.0,350.48767412500456,,,,,,,,,,,,,,,,,350.4783547089901,351.6744878339814,352.47017208399484,352.4585756669985,,,,,,,,,,,,,,,,,,,,,,,,,,,,,,,,,,,352.4630701249698,352.47017208399484,352.47017208399484,352.848874416959,b,1.0,0.3723796660196967,,,,,sub-095,1,stroop_test,,
,,,,102.0,6.0,8.0,,,,,,,,,,,,,blau,blue,b,1.0,b,1.0,0.401610582950525,,,,,,,,,,8.0,6.0,102.0,6.0,352.8595121249673,,,,,,,,,,,,,,,,,352.8494085839484,353.6473636250012,354.4400323749869,354.4305203749682,,,,,,,,,,,,,,,,,,,,,,,,,,,,,,,,,,,354.4311011249665,354.4400323749869,354.4400323749869,354.8445403749938,b,1.0,0.401610582950525,,,,,sub-095,1,stroop_test,,
,,,,103.0,7.0,8.0,,,,,,,,,,,,,gelb,red,r,0.0,r,1.0,0.3588865420315414,,,,,,,,,,8.0,7.0,103.0,8.0,354.8542606669944,,,,,,,,,,,,,,,,,354.8452658749884,354.94102737499634,355.73792966699693,355.7252982920036,,,,,,,,,,,,,,,,,,,,,,,,,,,,,,,,,,,355.73114458395867,355.73792966699693,355.73792966699693,356.09929487499176,r,1.0,0.3588865420315414,,,,,sub-095,1,stroop_test,,
,,,,104.0,8.0,8.0,,,,,,,,,,,,,gelb,yellow,g,1.0,g,1.0,0.3184967499691993,,,,,,,,,,8.0,8.0,104.0,11.0,356.1093573339749,,,,,,,,,,,,,,,,,356.0999211249873,356.1968164169812,356.9896691250033,356.9807400839636,,,,,,,,,,,,,,,,,,,,,,,,,,,,,,,,,,,356.9813299590023,356.9896691250033,356.9896691250033,357.3106071249931,g,1.0,0.3184967499691993,,,,,sub-095,1,stroop_test,,
,,,,105.0,9.0,8.0,,,,,,,,,,,,,rot,red,r,1.0,r,1.0,0.3908127920003608,,,,,,,,,,8.0,9.0,105.0,1.0,357.32051987497834,,,,,,,,,,,,,,,,,357.31130195898004,357.4077234169817,358.20304870896507,358.1916654589586,,,,,,,,,,,,,,,,,,,,,,,,,,,,,,,,,,,358.1956343749771,358.20304870896507,358.20304870896507,358.5991276249988,r,1.0,0.3908127920003608,,,,,sub-095,1,stroop_test,,
,,,,106.0,10.0,8.0,,,,,,,,,,,,,blau,yellow,g,0.0,b,0.0,0.637688499991782,,,,,,,,,,8.0,10.0,106.0,7.0,358.6091055839788,,,,,,,,,,,,,,,,,358.5996913749841,358.9479875419638,359.75354162498843,359.74188337498344,,,,,,,,,,,,,,,,,,,,,,,,,,,,,,,,,,,359.74648541695205,359.75354162498843,359.75354162498843,360.39396104199113,b,0.0,0.637688499991782,,,,,sub-095,1,stroop_test,,
,,,,107.0,11.0,8.0,,,,,,,,,,,,,rot,blue,b,0.0,b,1.0,0.8392984580132179,,,,,,,,,,8.0,11.0,107.0,2.0,360.4036694999668,,,,,,,,,,,,,,,,,360.3946525839856,360.49138637498254,361.28684683400206,361.2752806249773,,,,,,,,,,,,,,,,,,,,,,,,,,,,,,,,,,,361.2796248339582,361.28684683400206,361.28684683400206,362.131772291963,b,1.0,0.8392984580132179,,,,,sub-095,1,stroop_test,,
,,,,108.0,0.0,9.0,,,,,,,,,,,,,blau,blue,b,1.0,b,1.0,0.5534705420141108,,,,,,,,,,9.0,0.0,108.0,5.0,362.142345166998,,,,,,,,,,,,,,,,,362.1323024169542,363.3302560839802,364.1258872089674,364.11419883399503,,,,,,,,,,,,,,,,,,,,,,,,,,,,,,,,,,,364.1178662919556,364.1258872089674,364.1258872089674,364.6823372920044,b,1.0,0.5534705420141108,,,,,sub-095,1,stroop_test,,
,,,,109.0,1.0,9.0,,,,,,,,,,,,,gelb,blue,b,0.0,b,1.0,0.6454934159992263,,,,,,,,,,9.0,1.0,109.0,9.0,364.6922886669636,,,,,,,,,,,,,,,,,364.68285695899976,365.88051170896506,366.6759757919936,366.6644709589891,,,,,,,,,,,,,,,,,,,,,,,,,,,,,,,,,,,366.66819987498457,366.6759757919936,366.6759757919936,367.3262182089966,b,1.0,0.6454934159992263,,,,,sub-095,1,stroop_test,,
,,,,110.0,2.0,9.0,,,,,,,,,,,,,rot,blue,b,0.0,b,1.0,0.4214310829993337,,,,,,,,,,9.0,2.0,110.0,2.0,367.33634924999205,,,,,,,,,,,,,,,,,367.3268319999916,367.424312374962,368.2200114169973,368.2083785839495,,,,,,,,,,,,,,,,,,,,,,,,,,,,,,,,,,,368.2128040419775,368.2200114169973,368.2200114169973,368.64398133399663,b,1.0,0.4214310829993337,,,,,sub-095,1,stroop_test,,
,,,,111.0,3.0,9.0,,,,,,,,,,,,,gelb,yellow,g,1.0,g,1.0,0.6369909580098465,,,,,,,,,,9.0,3.0,111.0,10.0,368.6534872089978,,,,,,,,,,,,,,,,,368.64472529198974,369.8409394999617,370.6374982499983,370.6250705839484,,,,,,,,,,,,,,,,,,,,,,,,,,,,,,,,,,,370.6305077919969,370.6374982499983,370.6374982499983,371.2769529169891,g,1.0,0.6369909580098465,,,,,sub-095,1,stroop_test,,
,,,,112.0,4.0,9.0,,,,,,,,,,,,,rot,yellow,g,0.0,g,1.0,0.9394437500159256,,,,,,,,,,9.0,4.0,112.0,3.0,371.2871811669902,,,,,,,,,,,,,,,,,371.277597749955,371.6242725419579,372.41955995897297,372.4081856249832,,,,,,,,,,,,,,,,,,,,,,,,,,,,,,,,,,,372.4123027919559,372.41955995897297,372.41955995897297,373.3657574999961,g,1.0,0.9394437500159256,,,,,sub-095,1,stroop_test,,
,,,,113.0,5.0,9.0,,,,,,,,,,,,,blau,red,r,0.0,r,1.0,0.4803268340183422,,,,,,,,,,9.0,5.0,113.0,4.0,373.3760437499732,,,,,,,,,,,,,,,,,373.3662917089532,374.5649397089728,375.3691485839663,375.3581794589991,,,,,,,,,,,,,,,,,,,,,,,,,,,,,,,,,,,375.3622338749701,375.3691485839663,375.3691485839663,375.8594165419927,r,1.0,0.4803268340183422,,,,,sub-095,1,stroop_test,,
,,,,114.0,6.0,9.0,,,,,,,,,,,,,rot,red,r,1.0,r,1.0,0.5321887090103701,,,,,,,,,,9.0,6.0,114.0,1.0,375.8696932919556,,,,,,,,,,,,,,,,,375.8600904169725,376.65755383396754,377.4530841249507,377.4416528339498,,,,,,,,,,,,,,,,,,,,,,,,,,,,,,,,,,,377.44566262495937,377.4530841249507,377.4530841249507,377.9927668749588,r,1.0,0.5321887090103701,,,,,sub-095,1,stroop_test,,
,,,,115.0,7.0,9.0,,,,,,,,,,,,,rot,red,r,1.0,r,1.0,0.6046997079974972,,,,,,,,,,9.0,7.0,115.0,0.0,378.0030075419927,,,,,,,,,,,,,,,,,377.99337283399655,378.0907022089814,378.8828569999896,378.8749958749977,,,,,,,,,,,,,,,,,,,,,,,,,,,,,,,,,,,378.87579962494783,378.8828569999896,378.8828569999896,379.49304549995577,r,1.0,0.6046997079974972,,,,,sub-095,1,stroop_test,,
,,,,116.0,8.0,9.0,,,,,,,,,,,,,gelb,red,r,0.0,r,1.0,0.3387909170123748,,,,,,,,,,9.0,8.0,116.0,8.0,379.5035124169663,,,,,,,,,,,,,,,,,379.4937890839647,380.2909624169697,381.0856817919994,381.07463991700206,,,,,,,,,,,,,,,,,,,,,,,,,,,,,,,,,,,381.0784813749488,381.0856817919994,381.0856817919994,381.42689750000136,r,1.0,0.3387909170123748,,,,,sub-095,1,stroop_test,,
,,,,117.0,9.0,9.0,,,,,,,,,,,,,blau,blue,b,1.0,g,0.0,0.4813148750108666,,,,,,,,,,9.0,9.0,117.0,6.0,381.437322999991,,,,,,,,,,,,,,,,,381.4276196669671,381.5241115419776,382.32048749999376,382.3084131249925,,,,,,,,,,,,,,,,,,,,,,,,,,,,,,,,,,,382.313224249985,382.32048749999376,382.32048749999376,382.8095802089665,g,0.0,0.4813148750108666,,,,,sub-095,1,stroop_test,,
,,,,118.0,10.0,9.0,,,,,,,,,,,,,blau,yellow,g,0.0,g,1.0,0.491776833019685,,,,,,,,,,9.0,10.0,118.0,7.0,382.8199262089911,,,,,,,,,,,,,,,,,382.8102522919653,384.00743249995867,384.799239416956,384.79149654199136,,,,,,,,,,,,,,,,,,,,,,,,,,,,,,,,,,,384.7922624169733,384.799239416956,384.799239416956,385.2944753749762,g,1.0,0.491776833019685,,,,,sub-095,1,stroop_test,,
,,,,119.0,11.0,9.0,,,,,,,,,,,,,gelb,yellow,g,1.0,g,1.0,0.3387789159896783,,,,,,,,,,9.0,11.0,119.0,11.0,385.305125541985,,,,,,,,,,,,,,,,,385.2952098749811,385.6407752919477,386.43974224996055,386.4247967499541,,,,,,,,,,,,,,,,,,,,,,,,,,,,,,,,,,,386.43279291695217,386.43974224996055,386.43974224996055,386.7818112089881,g,1.0,0.3387789159896783,,,,,sub-095,1,stroop_test,,
,,,,,,,,,,,,,,,,,,,,,,,,,,,,,,,,,,,,,,,,,,,,,,,,,,,,,,,,,,,,,,,,,,,,,,,,,,,,,,,,,,,,,,,,,,,,,,,,,,,,,,386.7820092089824,386.807024708949,391.7907584999921,sub-095,1,stroop_test,,
