wordCTK,colorCTK,corrAnsCTK,congruentCTK,thisN,thisTrialN,thisRepN,keyResp_CTK.keys,keyResp_CTK.corr,keyResp_CTK.rt,keyResp_CTK.duration,wordPractice,colorPractice,corrAnsPractice,congruentPractice,respPractice.keys,respPractice.corr,respPractice.rt,respPractice.duration,word,color,corrAns,congruent,keyResp_test_run.keys,keyResp_test_run.corr,keyResp_test_run.rt,keyResp_test_run.duration,trials_CTK.thisRepN,trials_CTK.thisTrialN,trials_CTK.thisN,trials_CTK.thisIndex,trials_practice.thisRepN,trials_practice.thisTrialN,trials_practice.thisN,trials_practice.thisIndex,trials_test.thisRepN,trials_test.thisTrialN,trials_test.thisN,trials_test.thisIndex,thisRow.t,notes,instruction.started,instr_text.started,instr_image.started,instr_resp.started,instruction.stopped,instr_resp.keys,instr_resp.rt,instr_resp.duration,instr_color_to_key.started,instr_ctk.started,resp_ctk.started,instr_color_to_key.stopped,resp_ctk.keys,resp_ctk.rt,resp_ctk.duration,ITI.started,fixcross.started,fixcross.stopped,ITI.stopped,color_to_key_run.started,stimulus_CTK.started,keyResp_CTK.started,color_to_key_run.stopped,trials_CTK.keyResp_CTK.keys,trials_CTK.keyResp_CTK.corr,trials_CTK.keyResp_CTK.rt,trials_CTK.keyResp_CTK.duration,instr_practice.started,instr_practice_text.started,instr_practice_resp.started,instr_practice.stopped,instr_practice_resp.keys,instr_practice_resp.rt,instr_practice_resp.duration,practice_run.started,stimulus_practice.started,respPractice.started,practice_run.stopped,trials_practice.respPractice.keys,trials_practice.respPractice.corr,trials_practice.respPractice.rt,trials_practice.respPractice.duration,feedback.started,textFeedback.started,feedback.stopped,textFeedback.stopped,instr_test.started,instr_test_text.started,instr_test_resp.started,instr_test.stopped,instr_test_resp.keys,instr_test_resp.rt,instr_test_resp.duration,test_run.started,stimulus_test_run.started,keyResp_test_run.started,test_run.stopped,trials_test.keyResp_test_run.keys,trials_test.keyResp_test_run.corr,trials_test.keyResp_test_run.rt,trials_test.keyResp_test_run.duration,goodbye.started,textGoodbye.started,textGoodbye.stopped,goodbye.stopped,participant,session,expName,frameRate,Unnamed: 113
,,,,,,,,,,,,,,,,,,,,,,,,,,,,,,,,,,,,,,,,,0.0084553749984479,0.0155042079968552,0.0155042079968552,0.0155042079968552,22.090876957998265,space,22.044883957998536,,,,,,,,,,,,,,,,,,,,,,,,,,,,,,,,,,,,,,,,,,,,,,,,,,,,,,,,,,,sub-034,1,stroop_test,,
,,,,,,,,,,,,,,,,,,,,,,,,,,,,,,,,,,,,,,,,,,,,,,,,,22.09094116599954,22.107333999996627,22.107333999996627,26.747236332998,space,4.634908832998917,,,,,,,,,,,,,,,,,,,,,,,,,,,,,,,,,,,,,,,,,,,,,,,,,,,,sub-034,1,stroop_test,,
test,red,r,1.0,0.0,0.0,0.0,r,1.0,0.5292969580004865,,,,,,,,,,,,,,,,,,0.0,0.0,0.0,0.0,,,,,,,,,26.773016999999527,,,,,,,,,,,,,,,,,26.76072458299677,27.955912957997494,28.75527704099659,28.73962962499718,28.74719841600017,28.75527704099659,28.75527704099659,29.29091329099901,r,1.0,0.5292969580004865,,,,,,,,,,,,,,,,,,,,,,,,,,,,,,,,,,,,,,,,sub-034,1,stroop_test,,
test,yellow,g,1.0,1.0,1.0,0.0,g,1.0,0.5704229170005419,,,,,,,,,,,,,,,,,,0.0,1.0,1.0,1.0,,,,,,,,,29.301062790997094,,,,,,,,,,,,,,,,,29.291460582997388,30.08891649999714,30.880509249996976,30.87274124999749,30.87335866599824,30.880509249996976,30.880509249996976,31.45831787499992,g,1.0,0.5704229170005419,,,,,,,,,,,,,,,,,,,,,,,,,,,,,,,,,,,,,,,,sub-034,1,stroop_test,,
test,blue,b,1.0,2.0,2.0,0.0,b,1.0,0.6348159999979543,,,,,,,,,,,,,,,,,,0.0,2.0,2.0,2.0,,,,,,,,,31.468945790998987,,,,,,,,,,,,,,,,,31.45891870799824,32.65550266599894,33.44848762499896,33.439911333000055,33.44088829099928,33.44848762499896,33.44848762499896,34.091119082997466,b,1.0,0.6348159999979543,,,,,,,,,,,,,,,,,,,,,,,,,,,,,,,,,,,,,,,,sub-034,1,stroop_test,,
test,red,r,1.0,3.0,0.0,1.0,r,1.0,0.6158752919982362,,,,,,,,,,,,,,,,,,1.0,0.0,3.0,0.0,,,,,,,,,34.101240457999666,,,,,,,,,,,,,,,,,34.09164162500019,34.438898082997184,35.23113249999733,35.22318024999913,35.224050082997564,35.23113249999733,35.23113249999733,35.85755249999784,r,1.0,0.6158752919982362,,,,,,,,,,,,,,,,,,,,,,,,,,,,,,,,,,,,,,,,sub-034,1,stroop_test,,
test,yellow,g,1.0,4.0,1.0,1.0,g,1.0,0.5834525840000424,,,,,,,,,,,,,,,,,,1.0,1.0,4.0,1.0,,,,,,,,,35.86786049999864,,,,,,,,,,,,,,,,,35.85809020799934,36.65548937499989,37.44910174999677,37.44003691599937,37.441102624998166,37.44910174999677,37.44910174999677,38.04050716599886,g,1.0,0.5834525840000424,,,,,,,,,,,,,,,,,,,,,,,,,,,,,,,,,,,,,,,,sub-034,1,stroop_test,,
test,blue,b,1.0,5.0,2.0,1.0,b,1.0,0.6813084589994105,,,,,,,,,,,,,,,,,,1.0,2.0,5.0,2.0,,,,,,,,,38.05075220799699,,,,,,,,,,,,,,,,,38.04103624999698,38.13896783299788,38.93116112499774,38.92293395799789,38.92381083299915,38.93116112499774,38.93116112499774,39.625710540996806,b,1.0,0.6813084589994105,,,,,,,,,,,,,,,,,,,,,,,,,,,,,,,,,,,,,,,,sub-034,1,stroop_test,,
test,red,r,1.0,6.0,0.0,2.0,r,1.0,0.5242017919990758,,,,,,,,,,,,,,,,,,2.0,0.0,6.0,0.0,,,,,,,,,39.63893437499792,,,,,,,,,,,,,,,,,39.62606429099833,39.72259762499744,40.51448758299739,40.506192415999976,40.50702470799661,40.51448758299739,40.51448758299739,41.040931540999736,r,1.0,0.5242017919990758,,,,,,,,,,,,,,,,,,,,,,,,,,,,,,,,,,,,,,,,sub-034,1,stroop_test,,
test,blue,b,1.0,7.0,1.0,2.0,b,1.0,0.5636628749998636,,,,,,,,,,,,,,,,,,2.0,1.0,7.0,2.0,,,,,,,,,41.05013866599984,,,,,,,,,,,,,,,,,41.041434707996814,41.13881895799932,41.93158220799887,41.92313470799854,41.924189582998224,41.93158220799887,41.93158220799887,42.49787341599949,b,1.0,0.5636628749998636,,,,,,,,,,,,,,,,,,,,,,,,,,,,,,,,,,,,,,,,sub-034,1,stroop_test,,
test,yellow,g,1.0,8.0,2.0,2.0,g,1.0,0.4983837499967194,,,,,,,,,,,,,,,,,,2.0,2.0,8.0,1.0,,,,,,,,,42.50845904099697,,,,,,,,,,,,,,,,,42.49840808299996,42.59622241599936,43.387802665998606,43.37924062499951,43.37980554099704,43.387802665998606,43.387802665998606,43.89188149999973,g,1.0,0.4983837499967194,,,,,,,,,,,,,,,,,,,,,,,,,,,,,,,,,,,,,,,,sub-034,1,stroop_test,,
test,blue,b,1.0,9.0,0.0,3.0,b,1.0,0.768613208001625,,,,,,,,,,,,,,,,,,3.0,0.0,9.0,2.0,,,,,,,,,43.902350999997,,,,,,,,,,,,,,,,,43.89251866599807,43.98914279099699,44.78117983299671,44.77303949999987,44.77396499999668,44.78117983299671,44.78117983299671,45.55763891599781,b,1.0,0.768613208001625,,,,,,,,,,,,,,,,,,,,,,,,,,,,,,,,,,,,,,,,sub-034,1,stroop_test,,
test,yellow,g,1.0,10.0,1.0,3.0,g,1.0,0.9835027920016728,,,,,,,,,,,,,,,,,,3.0,1.0,10.0,1.0,,,,,,,,,45.56785208299698,,,,,,,,,,,,,,,,,45.55817141599982,45.90540683299696,46.69678616599776,46.68945162499949,46.69014858299852,46.69678616599776,46.69678616599776,47.691657707997365,g,1.0,0.9835027920016728,,,,,,,,,,,,,,,,,,,,,,,,,,,,,,,,,,,,,,,,sub-034,1,stroop_test,,
test,red,r,1.0,11.0,2.0,3.0,r,1.0,0.5327727910007525,,,,,,,,,,,,,,,,,,3.0,2.0,11.0,0.0,,,,,,,,,47.70233941599872,,,,,,,,,,,,,,,,,47.69226595799773,47.78893333299857,48.58045595799922,48.572656290998566,48.57323158299914,48.58045595799922,48.58045595799922,49.12502774999666,r,1.0,0.5327727910007525,,,,,,,,,,,,,,,,,,,,,,,,,,,,,,,,,,,,,,,,sub-034,1,stroop_test,,
,,,,,,,,,,,,,,,,,,,,,,,,,,,,,,,,,,,,,,,,,,,,,,,,,,,,,,,,,,,,,,,,,,,,49.12530558299841,49.13825604099839,49.13825604099839,55.54194187499888,space,6.400948709000659,,,,,,,,,,,,,,,,,,,,,,,,,,,,,,,,,sub-034,1,stroop_test,,
,,,,0.0,0.0,0.0,,,,,rot,red,r,1.0,r,1.0,0.5938450409994402,,,,,,,,,,,,,,0.0,0.0,0.0,1.0,,,,,55.56458716599809,,,,,,,,,,,,,,,,,55.55659679099699,56.73892691599758,57.5403227909992,57.52328458299962,,,,,,,,,,,,,,,,57.52968983299797,57.5403227909992,57.5403227909992,58.14099391599666,r,1.0,0.5938450409994402,,58.148693707997154,58.15781254099784,59.14573574999668,,,,,,,,,,,,,,,,,,,,,sub-034,1,stroop_test,,
,,,,1.0,1.0,0.0,,,,,gelb,yellow,g,1.0,g,1.0,0.3859280419965216,,,,,,,,,,,,,,0.0,1.0,1.0,10.0,,,,,59.15580079099891,,,,,,,,,,,,,,,,,59.14618716599944,59.93898070799696,60.736507290999725,60.7228187499968,,,,,,,,,,,,,,,,60.72881987499932,60.736507290999725,60.736507290999725,61.12533458299731,g,1.0,0.3859280419965216,,61.1261283749991,61.13677458299935,62.122947124997154,62.12910004099831,,,,,,,,,,,,,,,,,,,,sub-034,1,stroop_test,,
,,,,2.0,2.0,0.0,,,,,gelb,blue,b,0.0,b,1.0,0.4373577920014213,,,,,,,,,,,,,,0.0,2.0,2.0,9.0,,,,,62.12910004099831,,,,,,,,,,,,,,,,,62.12340454099831,62.47235858299973,63.264102624998486,63.256187707997015,,,,,,,,,,,,,,,,63.2568617500001,63.264102624998486,63.264102624998486,63.707736458,b,1.0,0.4373577920014213,,63.70851070799836,63.71990758299944,64.70632366599966,64.71297887499895,,,,,,,,,,,,,,,,,,,,sub-034,1,stroop_test,,
,,,,3.0,3.0,0.0,,,,,rot,red,r,1.0,r,1.0,0.3398713749993476,,,,,,,,,,,,,,0.0,3.0,3.0,0.0,,,,,64.71297887499895,,,,,,,,,,,,,,,,,64.70690137499696,65.05579370799751,65.85547904099803,65.84008316600011,,,,,,,,,,,,,,,,65.84467112499988,65.85547904099803,65.85547904099803,66.20796524999969,r,1.0,0.3398713749993476,,66.20904329099722,66.22042058299849,67.20664270799898,67.21333070799665,,,,,,,,,,,,,,,,,,,,sub-034,1,stroop_test,,
,,,,4.0,4.0,0.0,,,,,blau,blue,b,1.0,b,1.0,0.5249164999986533,,,,,,,,,,,,,,0.0,4.0,4.0,5.0,,,,,67.21333070799665,,,,,,,,,,,,,,,,,67.20735345799767,67.5556821249993,68.35399220799809,68.34004966599969,,,,,,,,,,,,,,,,68.34628233299736,68.35399220799809,68.35399220799809,68.88158958299755,b,1.0,0.5249164999986533,,68.88239162499667,68.8936538329981,69.88000729099804,69.88720829099839,,,,,,,,,,,,,,,,,,,,sub-034,1,stroop_test,,
,,,,5.0,5.0,0.0,,,,,blau,yellow,g,0.0,g,1.0,0.60855299999821,,,,,,,,,,,,,,0.0,5.0,5.0,7.0,,,,,69.88720829099839,,,,,,,,,,,,,,,,,69.88042045799739,70.67949908299852,71.47196849999818,71.4634195409999,,,,,,,,,,,,,,,,71.46406274999754,71.47196849999818,71.47196849999818,72.0916676659981,g,1.0,0.60855299999821,,72.09251949999816,72.10456945799888,73.0895506659981,73.09585904099731,,,,,,,,,,,,,,,,,,,,sub-034,1,stroop_test,,
,,,,6.0,6.0,0.0,,,,,blau,blue,b,1.0,b,1.0,0.5817197500000475,,,,,,,,,,,,,,0.0,6.0,6.0,6.0,,,,,73.09585904099731,,,,,,,,,,,,,,,,,73.09002129099827,73.43917195799804,74.23093470799722,74.22279058299682,,,,,,,,,,,,,,,,74.22344666599747,74.23093470799722,74.23093470799722,74.82589412499874,b,1.0,0.5817197500000475,,74.82643995799663,74.8391130409982,75.82316604099833,75.82974741599901,,,,,,,,,,,,,,,,,,,,sub-034,1,stroop_test,,
,,,,7.0,7.0,0.0,,,,,gelb,red,r,0.0,r,1.0,0.4322872499978984,,,,,,,,,,,,,,0.0,7.0,7.0,8.0,,,,,75.82974741599901,,,,,,,,,,,,,,,,,75.82374841599812,76.1723797079976,76.969200790998,76.95685637499992,,,,,,,,,,,,,,,,76.96161095799835,76.969200790998,76.969200790998,77.40833045799809,r,1.0,0.4322872499978984,,77.40919083299741,77.42071524999847,78.40637474999676,78.41293879099976,,,,,,,,,,,,,,,,,,,,sub-034,1,stroop_test,,
,,,,8.0,8.0,0.0,,,,,rot,yellow,g,0.0,g,1.0,0.5916086670004006,,,,,,,,,,,,,,0.0,8.0,8.0,3.0,,,,,78.41293879099976,,,,,,,,,,,,,,,,,78.40708104099758,78.50572437499795,79.30399949999992,79.28959920799753,,,,,,,,,,,,,,,,79.29356862499844,79.30399949999992,79.30399949999992,79.89833349999753,g,1.0,0.5916086670004006,,79.89912629099854,79.91055824999785,80.89677474999917,80.90573058299924,,,,,,,,,,,,,,,,,,,,sub-034,1,stroop_test,,
,,,,9.0,9.0,0.0,,,,,blau,red,r,0.0,r,1.0,0.7406614169995009,,,,,,,,,,,,,,0.0,9.0,9.0,4.0,,,,,80.90573058299924,,,,,,,,,,,,,,,,,80.89711204099876,82.09617670799707,82.89144020799722,82.8795629999986,,,,,,,,,,,,,,,,82.88313441599894,82.89144020799722,82.89144020799722,83.6413761249969,r,1.0,0.7406614169995009,,83.64214241599984,83.65369487499993,84.64001395800005,84.6466204999997,,,,,,,,,,,,,,,,,,,,sub-034,1,stroop_test,,
,,,,10.0,10.0,0.0,,,,,gelb,yellow,g,1.0,g,1.0,0.515627457996743,,,,,,,,,,,,,,0.0,10.0,10.0,11.0,,,,,84.6466204999997,,,,,,,,,,,,,,,,,84.64066287499736,85.43909654099843,86.23567883299984,86.2235714999988,,,,,,,,,,,,,,,,86.22803058299905,86.23567883299984,86.23567883299984,86.758168999997,g,1.0,0.515627457996743,,86.75897879100012,86.77022816599856,87.75652287499906,87.76302308300001,,,,,,,,,,,,,,,,,,,,sub-034,1,stroop_test,,
,,,,11.0,11.0,0.0,,,,,rot,blue,b,0.0,b,1.0,0.6332581660026335,,,,,,,,,,,,,,0.0,11.0,11.0,2.0,,,,,87.76302308300001,,,,,,,,,,,,,,,,,87.7571025829966,88.1053839999986,88.90330616599749,88.88957795799797,,,,,,,,,,,,,,,,88.89301120799792,88.90330616599749,88.90330616599749,89.54114512500018,b,1.0,0.6332581660026335,,89.54192458299804,89.55322974999945,90.53798441599793,90.54422533299658,,,,,,,,,,,,,,,,,,,,sub-034,1,stroop_test,,
,,,,12.0,0.0,1.0,,,,,gelb,blue,b,0.0,b,1.0,0.6321894159991643,,,,,,,,,,,,,,1.0,0.0,12.0,9.0,,,,,90.54422533299658,,,,,,,,,,,,,,,,,90.53837224999734,90.63923779099788,91.43444520799676,91.42251020799812,,,,,,,,,,,,,,,,91.4266075409978,91.43444520799676,91.43444520799676,92.07442366599936,b,1.0,0.6321894159991643,,92.07521687499684,92.08638966599756,93.07331087499917,93.0802432499986,,,,,,,,,,,,,,,,,,,,sub-034,1,stroop_test,,
,,,,13.0,1.0,1.0,,,,,blau,red,r,0.0,r,1.0,0.502593250002974,,,,,,,,,,,,,,1.0,1.0,13.0,4.0,,,,,93.0802432499986,,,,,,,,,,,,,,,,,93.07405558299796,94.2726291250001,95.06939487499768,95.05670454099892,,,,,,,,,,,,,,,,95.06191104099707,95.06939487499768,95.06939487499768,95.57917783299854,r,1.0,0.502593250002974,,95.57998979100012,95.59200020799835,96.5793477499974,96.58907529099815,,,,,,,,,,,,,,,,,,,,sub-034,1,stroop_test,,
,,,,14.0,2.0,1.0,,,,,gelb,yellow,g,1.0,g,1.0,0.3581941670017841,,,,,,,,,,,,,,1.0,2.0,14.0,11.0,,,,,96.58907529099815,,,,,,,,,,,,,,,,,96.57981250000012,97.3799251249984,98.17442241599927,98.16315941599896,,,,,,,,,,,,,,,,98.16637262499717,98.17442241599927,98.17442241599927,98.54144316599924,g,1.0,0.3581941670017841,,98.54225324999788,98.55349408299662,99.539769832998,99.54607420799948,,,,,,,,,,,,,,,,,,,,sub-034,1,stroop_test,,
,,,,15.0,3.0,1.0,,,,,blau,blue,b,1.0,b,1.0,0.629032916000142,,,,,,,,,,,,,,1.0,3.0,15.0,5.0,,,,,99.54607420799948,,,,,,,,,,,,,,,,,99.54034629099988,99.88907883299908,100.68473254099808,100.67325929099752,,,,,,,,,,,,,,,,100.67731474999891,100.68473254099808,100.68473254099808,101.32472520800002,b,1.0,0.629032916000142,,101.3254899579988,101.33674808299838,102.32319154099967,102.32995733299686,,,,,,,,,,,,,,,,,,,,sub-034,1,stroop_test,,
,,,,16.0,4.0,1.0,,,,,rot,red,r,1.0,r,1.0,0.3525427909989957,,,,,,,,,,,,,,1.0,4.0,16.0,0.0,,,,,102.32995733299686,,,,,,,,,,,,,,,,,102.32381829099904,102.6724720409984,103.4721182079993,103.4566273749988,,,,,,,,,,,,,,,,103.46099974999744,103.4721182079993,103.4721182079993,103.83203433299786,r,1.0,0.3525427909989957,,103.83281995799916,103.84430787499878,104.82961387499743,104.83849824999923,,,,,,,,,,,,,,,,,,,,sub-034,1,stroop_test,,
,,,,17.0,5.0,1.0,,,,,gelb,red,r,0.0,g,0.0,0.5440384590001486,,,,,,,,,,,,,,1.0,5.0,17.0,8.0,,,,,104.83849824999923,,,,,,,,,,,,,,,,,104.83007799999903,104.92979149999884,105.72501220799676,105.71329762499954,,,,,,,,,,,,,,,,105.71694637499968,105.72501220799676,105.72501220799676,106.27472179100003,g,0.0,0.5440384590001486,,106.2801744999997,106.29155462499692,107.27870858299866,,,,,,,,,,,,,,,,,,,,,sub-034,1,stroop_test,,
,,,,18.0,6.0,1.0,,,,,gelb,yellow,g,1.0,g,1.0,0.7007625410005858,,,,,,,,,,,,,,1.0,6.0,18.0,10.0,,,,,107.28915033299928,,,,,,,,,,,,,,,,,107.27914224999768,108.47248020799816,109.2645038749979,109.2563184999999,,,,,,,,,,,,,,,,109.25702495799852,109.2645038749979,109.2645038749979,109.9733228749974,g,1.0,0.7007625410005858,,109.97748166599922,109.98899741599962,110.97320495799796,110.9798093749996,,,,,,,,,,,,,,,,,,,,sub-034,1,stroop_test,,
,,,,19.0,7.0,1.0,,,,,rot,yellow,g,0.0,g,1.0,0.778052415997081,,,,,,,,,,,,,,1.0,7.0,19.0,3.0,,,,,110.9798093749996,,,,,,,,,,,,,,,,,110.97381174999828,111.32240595799884,112.1229640829988,112.10696824999832,,,,,,,,,,,,,,,,112.11197874999924,112.1229640829988,112.1229640829988,112.90779691599892,g,1.0,0.778052415997081,,112.90860145799888,112.9199591659999,113.90634154099826,113.9122949579978,,,,,,,,,,,,,,,,,,,,sub-034,1,stroop_test,,
,,,,20.0,8.0,1.0,,,,,rot,blue,b,0.0,b,1.0,0.5700942500006931,,,,,,,,,,,,,,1.0,8.0,20.0,2.0,,,,,113.9122949579978,,,,,,,,,,,,,,,,,113.90670170799784,114.00600225000017,114.79886616599832,114.7899470409975,,,,,,,,,,,,,,,,114.7909122079982,114.79886616599832,114.79886616599832,115.37592437499916,b,1.0,0.5700942500006931,,115.37674816599974,115.38881379099983,116.3733087499968,116.3799247499992,,,,,,,,,,,,,,,,,,,,sub-034,1,stroop_test,,
,,,,21.0,9.0,1.0,,,,,rot,red,r,1.0,r,1.0,0.3086185419997491,,,,,,,,,,,,,,1.0,9.0,21.0,1.0,,,,,116.3799247499992,,,,,,,,,,,,,,,,,116.3738993329971,116.72245454099902,117.51406183299696,117.50628683299874,,,,,,,,,,,,,,,,117.50680895799816,117.51406183299696,117.51406183299696,117.82577258299716,r,1.0,0.3086185419997491,,117.82667220799704,117.83848274999764,118.82325641599893,118.82954520799832,,,,,,,,,,,,,,,,,,,,sub-034,1,stroop_test,,
,,,,22.0,10.0,1.0,,,,,blau,blue,b,1.0,b,1.0,0.4987415840005269,,,,,,,,,,,,,,1.0,10.0,22.0,6.0,,,,,118.82954520799832,,,,,,,,,,,,,,,,,118.82377054099923,119.62243487500018,120.4186158329976,120.40670504099762,,,,,,,,,,,,,,,,120.41112220799914,120.4186158329976,120.4186158329976,120.9252706249972,b,1.0,0.4987415840005269,,120.92604545799986,120.93740958299897,121.92365833299846,121.9300186659966,,,,,,,,,,,,,,,,,,,,sub-034,1,stroop_test,,
,,,,23.0,11.0,1.0,,,,,blau,yellow,g,0.0,g,1.0,0.4668031250002968,,,,,,,,,,,,,,1.0,11.0,23.0,7.0,,,,,121.9300186659966,,,,,,,,,,,,,,,,,121.92426658299884,122.27259520799998,123.06572249999954,123.05675899999916,,,,,,,,,,,,,,,,123.05776587499712,123.06572249999954,123.06572249999954,123.54063366599804,g,1.0,0.4668031250002968,,123.54156866599806,123.55272091599907,124.53980441599924,124.5486167909985,,,,,,,,,,,,,,,,,,,,sub-034,1,stroop_test,,
,,,,,,,,,,,,,,,,,,,,,,,,,,,,,,,,,,,,,,,,,,,,,,,,,,,,,,,,,,,,,,,,,,,,,,,,,,,,,,,,,,,,,,,124.5400431659982,124.5486167909985,124.5486167909985,128.7150762079982,space,4.163719750002201,,,,,,,,,,,,,,sub-034,1,stroop_test,,
,,,,0.0,0.0,0.0,,,,,,,,,,,,,blau,yellow,g,0.0,g,1.0,0.6431305420010176,,,,,,,,,,0.0,0.0,0.0,7.0,128.73751312499735,,,,,,,,,,,,,,,,,128.7296454999996,129.91237916599857,130.70833479099747,130.6961895409986,,,,,,,,,,,,,,,,,,,,,,,,,,,,,,,,,,,130.70014874999833,130.70833479099747,130.70833479099747,131.3580108749993,g,1.0,0.6431305420010176,,,,,,sub-034,1,stroop_test,,
,,,,1.0,1.0,0.0,,,,,,,,,,,,,blau,red,r,0.0,r,1.0,0.6084212499990826,,,,,,,,,,0.0,1.0,1.0,4.0,131.36784466599784,,,,,,,,,,,,,,,,,131.35858774999724,131.45565645799795,132.24853945799987,132.23978916599663,,,,,,,,,,,,,,,,,,,,,,,,,,,,,,,,,,,132.24073524999767,132.24853945799987,132.24853945799987,132.86461083299946,r,1.0,0.6084212499990826,,,,,,sub-034,1,stroop_test,,
,,,,2.0,2.0,0.0,,,,,,,,,,,,,blau,blue,b,1.0,b,1.0,0.5842960829977528,,,,,,,,,,0.0,2.0,2.0,5.0,132.87554937499954,,,,,,,,,,,,,,,,,132.86520845799896,133.21288837499742,134.00413612499688,133.99570137499904,,,,,,,,,,,,,,,,,,,,,,,,,,,,,,,,,,,133.9962334999982,134.00413612499688,134.00413612499688,134.5955209579988,b,1.0,0.5842960829977528,,,,,,sub-034,1,stroop_test,,
,,,,3.0,3.0,0.0,,,,,,,,,,,,,gelb,yellow,g,1.0,g,1.0,0.5974225829995703,,,,,,,,,,0.0,3.0,3.0,10.0,134.606631249997,,,,,,,,,,,,,,,,,134.59610820799935,135.7891991659999,136.58438533299704,136.57300112499797,,,,,,,,,,,,,,,,,,,,,,,,,,,,,,,,,,,136.57676016599726,136.58438533299704,136.58438533299704,137.19195558299907,g,1.0,0.5974225829995703,,,,,,sub-034,1,stroop_test,,
,,,,4.0,4.0,0.0,,,,,,,,,,,,,rot,blue,b,0.0,b,1.0,0.6867068750034377,,,,,,,,,,0.0,4.0,4.0,2.0,137.20242299999882,,,,,,,,,,,,,,,,,137.1926145829966,138.389205665997,139.18914412499726,139.1734445000002,,,,,,,,,,,,,,,,,,,,,,,,,,,,,,,,,,,139.178325957997,139.18914412499726,139.18914412499726,139.88098191599784,b,1.0,0.6867068750034377,,,,,,sub-034,1,stroop_test,,
,,,,5.0,5.0,0.0,,,,,,,,,,,,,gelb,red,r,0.0,r,1.0,0.3944153750016994,,,,,,,,,,0.0,5.0,5.0,8.0,139.89197120799872,,,,,,,,,,,,,,,,,139.88157429099738,141.07925266599705,141.87461233299837,141.86293516599835,,,,,,,,,,,,,,,,,,,,,,,,,,,,,,,,,,,141.8664993329985,141.87461233299837,141.87461233299837,142.2760747909997,r,1.0,0.3944153750016994,,,,,,sub-034,1,stroop_test,,
,,,,6.0,6.0,0.0,,,,,,,,,,,,,rot,red,r,1.0,r,1.0,0.5230058329980238,,,,,,,,,,0.0,6.0,6.0,1.0,142.28687524999987,,,,,,,,,,,,,,,,,142.27675308299877,143.4726159999991,144.27201562499977,144.25683954099804,,,,,,,,,,,,,,,,,,,,,,,,,,,,,,,,,,,144.2612237909998,144.27201562499977,144.27201562499977,144.7989427499997,r,1.0,0.5230058329980238,,,,,,sub-034,1,stroop_test,,
,,,,7.0,7.0,0.0,,,,,,,,,,,,,blau,blue,b,1.0,b,1.0,0.6343438750009227,,,,,,,,,,0.0,7.0,7.0,6.0,144.80915024999922,,,,,,,,,,,,,,,,,144.7995474579984,144.8963184159984,145.692176499997,145.68032074999792,,,,,,,,,,,,,,,,,,,,,,,,,,,,,,,,,,,145.68386524999733,145.692176499997,145.692176499997,146.33075591599845,b,1.0,0.6343438750009227,,,,,,sub-034,1,stroop_test,,
,,,,8.0,8.0,0.0,,,,,,,,,,,,,rot,yellow,g,0.0,g,1.0,0.3779817079994245,,,,,,,,,,0.0,8.0,8.0,3.0,146.34164216599677,,,,,,,,,,,,,,,,,146.33133679099774,146.67984324999998,147.48678341599953,147.4730300409974,,,,,,,,,,,,,,,,,,,,,,,,,,,,,,,,,,,147.47630749999735,147.48678341599953,147.48678341599953,147.87429245800013,g,1.0,0.3779817079994245,,,,,,sub-034,1,stroop_test,,
,,,,9.0,9.0,0.0,,,,,,,,,,,,,gelb,blue,b,0.0,b,1.0,1.1098326669998642,,,,,,,,,,0.0,9.0,9.0,9.0,147.88471862499864,,,,,,,,,,,,,,,,,147.87490245799927,147.97251733299709,148.76781091599696,148.75649445799718,,,,,,,,,,,,,,,,,,,,,,,,,,,,,,,,,,,148.7602766659984,148.76781091599696,148.76781091599696,149.8836765829983,b,1.0,1.1098326669998642,,,,,,sub-034,1,stroop_test,,
,,,,10.0,10.0,0.0,,,,,,,,,,,,,gelb,yellow,g,1.0,g,1.0,0.9791422080015764,,,,,,,,,,0.0,10.0,10.0,11.0,149.89450899999792,,,,,,,,,,,,,,,,,149.88426074999734,151.0796652909994,151.88220379099948,151.87344720799956,,,,,,,,,,,,,,,,,,,,,,,,,,,,,,,,,,,151.87446979099695,151.88220379099948,151.88220379099948,152.86449812499995,g,1.0,0.9791422080015764,,,,,,sub-034,1,stroop_test,,
,,,,11.0,11.0,0.0,,,,,,,,,,,,,rot,red,r,1.0,r,1.0,0.4324731249980686,,,,,,,,,,0.0,11.0,11.0,0.0,152.87537762499778,,,,,,,,,,,,,,,,,152.86507462499867,153.6624039999988,154.46007316599935,154.44600358299795,,,,,,,,,,,,,,,,,,,,,,,,,,,,,,,,,,,154.45057412499955,154.46007316599935,154.46007316599935,154.89804566599923,r,1.0,0.4324731249980686,,,,,,sub-034,1,stroop_test,,
,,,,12.0,0.0,1.0,,,,,,,,,,,,,rot,yellow,g,0.0,g,1.0,1.2011419170012232,,,,,,,,,,1.0,0.0,12.0,3.0,154.90894608300005,,,,,,,,,,,,,,,,,154.89863420799884,154.99652141600018,155.78822670799855,155.77945462499702,,,,,,,,,,,,,,,,,,,,,,,,,,,,,,,,,,,155.7801348329995,155.78822670799855,155.78822670799855,156.99676783299947,g,1.0,1.2011419170012232,,,,,,sub-034,1,stroop_test,,
,,,,13.0,1.0,1.0,,,,,,,,,,,,,gelb,yellow,g,1.0,g,1.0,0.6002683749975404,,,,,,,,,,1.0,1.0,13.0,10.0,157.00779766599953,,,,,,,,,,,,,,,,,156.99735441599842,158.19572366599823,159.00560183299967,158.97880691599858,,,,,,,,,,,,,,,,,,,,,,,,,,,,,,,,,,,158.98213045800003,159.00560183299967,159.00560183299967,159.60876499999722,g,1.0,0.6002683749975404,,,,,,sub-034,1,stroop_test,,
,,,,14.0,2.0,1.0,,,,,,,,,,,,,gelb,yellow,g,1.0,g,1.0,0.3746607079992827,,,,,,,,,,1.0,2.0,14.0,11.0,159.61930824999945,,,,,,,,,,,,,,,,,159.60943674999726,160.40612245800003,161.19887762500002,161.1902272499974,,,,,,,,,,,,,,,,,,,,,,,,,,,,,,,,,,,161.19128545799686,161.19887762500002,161.19887762500002,161.58651208299852,g,1.0,0.3746607079992827,,,,,,sub-034,1,stroop_test,,
,,,,15.0,3.0,1.0,,,,,,,,,,,,,blau,red,r,0.0,r,1.0,0.2881790829997044,,,,,,,,,,1.0,3.0,15.0,4.0,161.59225441599847,,,,,,,,,,,,,,,,,161.58720083299704,162.77943849999792,163.57507049999913,163.56344312500005,,,,,,,,,,,,,,,,,,,,,,,,,,,,,,,,,,,163.56701141599842,163.57507049999913,163.57507049999913,163.87639195799784,r,1.0,0.2881790829997044,,,,,,sub-034,1,stroop_test,,
,,,,16.0,4.0,1.0,,,,,,,,,,,,,rot,blue,b,0.0,b,1.0,0.3789737500010233,,,,,,,,,,1.0,4.0,16.0,2.0,163.8893581659977,,,,,,,,,,,,,,,,,163.876803207997,164.22267162499702,165.02246683299745,165.00668983299693,,,,,,,,,,,,,,,,,,,,,,,,,,,,,,,,,,,165.01141654099774,165.02246683299745,165.02246683299745,165.40794858299705,b,1.0,0.3789737500010233,,,,,,sub-034,1,stroop_test,,
,,,,17.0,5.0,1.0,,,,,,,,,,,,,gelb,red,r,0.0,r,1.0,0.2742177919972164,,,,,,,,,,1.0,5.0,17.0,8.0,165.41832783299833,,,,,,,,,,,,,,,,,165.40860845799762,166.6059182079989,167.40173641599904,167.38997933299834,,,,,,,,,,,,,,,,,,,,,,,,,,,,,,,,,,,167.39426512499995,167.40173641599904,167.40173641599904,167.68204541599698,r,1.0,0.2742177919972164,,,,,,sub-034,1,stroop_test,,
,,,,18.0,6.0,1.0,,,,,,,,,,,,,blau,yellow,g,0.0,g,1.0,0.4317146250032238,,,,,,,,,,1.0,6.0,18.0,7.0,167.69239529100014,,,,,,,,,,,,,,,,,167.68268033299682,168.02957724999942,168.8248471659972,168.81334183299987,,,,,,,,,,,,,,,,,,,,,,,,,,,,,,,,,,,168.8167327079973,168.8248471659972,168.8248471659972,169.269579374999,g,1.0,0.4317146250032238,,,,,,sub-034,1,stroop_test,,
,,,,19.0,7.0,1.0,,,,,,,,,,,,,rot,red,r,1.0,g,0.0,0.440179667002667,,,,,,,,,,1.0,7.0,19.0,1.0,169.27512191599817,,,,,,,,,,,,,,,,,169.27001908300008,169.61269645799985,170.4093899579966,170.39581412499683,,,,,,,,,,,,,,,,,,,,,,,,,,,,,,,,,,,170.39939024999694,170.4093899579966,170.4093899579966,170.85776116599664,g,0.0,0.440179667002667,,,,,,sub-034,1,stroop_test,,
,,,,20.0,8.0,1.0,,,,,,,,,,,,,blau,blue,b,1.0,b,1.0,1.2091142079989368,,,,,,,,,,1.0,8.0,20.0,5.0,170.86813895799787,,,,,,,,,,,,,,,,,170.8583590829985,170.95600687499973,171.7520074999993,171.739855541,,,,,,,,,,,,,,,,,,,,,,,,,,,,,,,,,,,171.7445653750001,171.7520074999993,171.7520074999993,172.96433712499856,b,1.0,1.2091142079989368,,,,,,sub-034,1,stroop_test,,
,,,,21.0,9.0,1.0,,,,,,,,,,,,,gelb,blue,b,0.0,b,1.0,0.5461375000013504,,,,,,,,,,1.0,9.0,21.0,9.0,172.97522091599967,,,,,,,,,,,,,,,,,172.96494858299775,173.31313954099824,174.11812758299857,174.10663141599798,,,,,,,,,,,,,,,,,,,,,,,,,,,,,,,,,,,174.11015733299791,174.11812758299857,174.11812758299857,174.67507145799755,b,1.0,0.5461375000013504,,,,,,sub-034,1,stroop_test,,
,,,,22.0,10.0,1.0,,,,,,,,,,,,,blau,blue,b,1.0,b,1.0,0.499108874999365,,,,,,,,,,1.0,10.0,22.0,6.0,174.68556674999854,,,,,,,,,,,,,,,,,174.67566074999922,174.77240749999692,175.56897220799874,175.55699970799833,,,,,,,,,,,,,,,,,,,,,,,,,,,,,,,,,,,175.56136470799902,175.56897220799874,175.56897220799874,176.07594420799796,b,1.0,0.499108874999365,,,,,,sub-034,1,stroop_test,,
,,,,23.0,11.0,1.0,,,,,,,,,,,,,rot,red,r,1.0,r,1.0,0.3269977919990197,,,,,,,,,,1.0,11.0,23.0,0.0,176.08658874999674,,,,,,,,,,,,,,,,,176.07661712499976,177.27276645799793,178.07036420799705,178.05679787499685,,,,,,,,,,,,,,,,,,,,,,,,,,,,,,,,,,,178.06008799999836,178.07036420799705,178.07036420799705,178.41047012499985,r,1.0,0.3269977919990197,,,,,,sub-034,1,stroop_test,,
,,,,24.0,0.0,2.0,,,,,,,,,,,,,rot,blue,b,0.0,b,1.0,0.6786770840008103,,,,,,,,,,2.0,0.0,24.0,2.0,178.4228035829983,,,,,,,,,,,,,,,,,178.4109529999987,178.75580741599697,179.5477708749968,179.5399448749995,,,,,,,,,,,,,,,,,,,,,,,,,,,,,,,,,,,179.5405078329968,179.5477708749968,179.5477708749968,180.23182112499853,b,1.0,0.6786770840008103,,,,,,sub-034,1,stroop_test,,
,,,,25.0,1.0,2.0,,,,,,,,,,,,,blau,blue,b,1.0,b,1.0,0.4262180410005385,,,,,,,,,,2.0,1.0,25.0,6.0,180.24238299999703,,,,,,,,,,,,,,,,,180.23241033299928,181.03000462499767,181.8255424579984,181.81362833299863,,,,,,,,,,,,,,,,,,,,,,,,,,,,,,,,,,,181.8175117909996,181.8255424579984,181.8255424579984,182.2595369159972,b,1.0,0.4262180410005385,,,,,,sub-034,1,stroop_test,,
,,,,26.0,2.0,2.0,,,,,,,,,,,,,blau,yellow,g,0.0,g,1.0,0.4858214169980783,,,,,,,,,,2.0,2.0,26.0,7.0,182.27021649999733,,,,,,,,,,,,,,,,,182.2602119999974,182.3559371249976,183.14906054099995,183.14031212499685,,,,,,,,,,,,,,,,,,,,,,,,,,,,,,,,,,,183.1413144159997,183.14906054099995,183.14906054099995,183.64166179099996,g,1.0,0.4858214169980783,,,,,,sub-034,1,stroop_test,,
,,,,27.0,3.0,2.0,,,,,,,,,,,,,gelb,red,r,0.0,r,1.0,0.8138210409997555,,,,,,,,,,2.0,3.0,27.0,8.0,183.65225020799696,,,,,,,,,,,,,,,,,183.6423387499999,183.9895744159985,184.7863668749997,184.7736318749994,,,,,,,,,,,,,,,,,,,,,,,,,,,,,,,,,,,184.77849079099903,184.7863668749997,184.7863668749997,185.60618095799876,r,1.0,0.8138210409997555,,,,,,sub-034,1,stroop_test,,
,,,,28.0,4.0,2.0,,,,,,,,,,,,,rot,yellow,g,0.0,g,1.0,0.4124236250027024,,,,,,,,,,2.0,4.0,28.0,3.0,185.616429791,,,,,,,,,,,,,,,,,185.6067677499996,186.3964907499976,187.1941582499967,187.179762249998,,,,,,,,,,,,,,,,,,,,,,,,,,,,,,,,,,,187.18442537499868,187.1941582499967,187.1941582499967,187.61917541599905,g,1.0,0.4124236250027024,,,,,,sub-034,1,stroop_test,,
,,,,29.0,5.0,2.0,,,,,,,,,,,,,rot,red,r,1.0,r,1.0,0.5973152089973155,,,,,,,,,,2.0,5.0,29.0,0.0,187.62526824999804,,,,,,,,,,,,,,,,,187.61960033299687,188.81312079099732,189.6148824999982,189.6066226249968,,,,,,,,,,,,,,,,,,,,,,,,,,,,,,,,,,,189.6073087079967,189.6148824999982,189.6148824999982,190.2146778329989,r,1.0,0.5973152089973155,,,,,,sub-034,1,stroop_test,,
,,,,30.0,6.0,2.0,,,,,,,,,,,,,gelb,blue,b,0.0,b,1.0,0.4566000409977278,,,,,,,,,,2.0,6.0,30.0,9.0,190.2254859579989,,,,,,,,,,,,,,,,,190.2152685000001,190.5620988749979,191.35772079099843,191.34606641599748,,,,,,,,,,,,,,,,,,,,,,,,,,,,,,,,,,,191.3494762079972,191.35772079099843,191.35772079099843,191.8227904159976,b,1.0,0.4566000409977278,,,,,,sub-034,1,stroop_test,,
,,,,31.0,7.0,2.0,,,,,,,,,,,,,blau,blue,b,1.0,b,1.0,0.5308104590003495,,,,,,,,,,2.0,7.0,31.0,5.0,191.8329759159969,,,,,,,,,,,,,,,,,191.82337566599745,192.61193979099696,193.40900162499747,193.39735999999905,,,,,,,,,,,,,,,,,,,,,,,,,,,,,,,,,,,193.40072066599896,193.40900162499747,193.40900162499747,193.94297958300007,b,1.0,0.5308104590003495,,,,,,sub-034,1,stroop_test,,
,,,,32.0,8.0,2.0,,,,,,,,,,,,,gelb,yellow,g,1.0,g,1.0,0.7711470419999387,,,,,,,,,,2.0,8.0,32.0,10.0,193.9536821249967,,,,,,,,,,,,,,,,,193.9436598329994,194.28940812499783,195.08557437499985,195.07374287499988,,,,,,,,,,,,,,,,,,,,,,,,,,,,,,,,,,,195.0779808749976,195.08557437499985,195.08557437499985,195.8697375829979,g,1.0,0.7711470419999387,,,,,,sub-034,1,stroop_test,,
,,,,33.0,9.0,2.0,,,,,,,,,,,,,blau,red,r,0.0,r,1.0,0.8518174170021666,,,,,,,,,,2.0,9.0,33.0,4.0,195.8753987909986,,,,,,,,,,,,,,,,,195.8701725409992,197.06248829099783,197.8580930409989,197.84629912499804,,,,,,,,,,,,,,,,,,,,,,,,,,,,,,,,,,,197.85004620799737,197.8580930409989,197.8580930409989,198.71473087499908,r,1.0,0.8518174170021666,,,,,,sub-034,1,stroop_test,,
,,,,34.0,10.0,2.0,,,,,,,,,,,,,rot,red,r,1.0,r,1.0,0.5465934999992896,,,,,,,,,,2.0,10.0,34.0,1.0,198.72590866599785,,,,,,,,,,,,,,,,,198.7153089579988,199.91329112499807,200.7101124159999,200.69691979099665,,,,,,,,,,,,,,,,,,,,,,,,,,,,,,,,,,,200.7005397499997,200.7101124159999,200.7101124159999,201.2600743749972,r,1.0,0.5465934999992896,,,,,,sub-034,1,stroop_test,,
,,,,35.0,11.0,2.0,,,,,,,,,,,,,gelb,yellow,g,1.0,g,1.0,0.6165968749992317,,,,,,,,,,2.0,11.0,35.0,11.0,201.27050487499943,,,,,,,,,,,,,,,,,201.2606593749988,202.05608649999704,202.85201258300003,202.84028416599904,,,,,,,,,,,,,,,,,,,,,,,,,,,,,,,,,,,202.84410599999683,202.85201258300003,202.85201258300003,203.475350040997,g,1.0,0.6165968749992317,,,,,,sub-034,1,stroop_test,,
,,,,36.0,0.0,3.0,,,,,,,,,,,,,gelb,yellow,g,1.0,g,1.0,0.660947207998106,,,,,,,,,,3.0,0.0,36.0,11.0,203.4859300829994,,,,,,,,,,,,,,,,,203.4760104999987,203.8227960409968,204.61505212499836,204.6066792499987,,,,,,,,,,,,,,,,,,,,,,,,,,,,,,,,,,,204.60737487499864,204.61505212499836,204.61505212499836,205.2811990409973,g,1.0,0.660947207998106,,,,,,sub-034,1,stroop_test,,
,,,,37.0,1.0,3.0,,,,,,,,,,,,,blau,red,r,0.0,r,1.0,0.8245773329981603,,,,,,,,,,3.0,1.0,37.0,4.0,205.29211437499907,,,,,,,,,,,,,,,,,205.2817793329996,206.07935766599985,206.87540279099997,206.86284449999948,,,,,,,,,,,,,,,,,,,,,,,,,,,,,,,,,,,206.86705312499907,206.87540279099997,206.87540279099997,207.7084933749975,r,1.0,0.8245773329981603,,,,,,sub-034,1,stroop_test,,
,,,,38.0,2.0,3.0,,,,,,,,,,,,,gelb,yellow,g,1.0,g,1.0,0.5328354999983276,,,,,,,,,,3.0,2.0,38.0,10.0,207.71909266599687,,,,,,,,,,,,,,,,,207.70907616600016,207.80618379099903,208.60239199999705,208.59049487499945,,,,,,,,,,,,,,,,,,,,,,,,,,,,,,,,,,,208.5946571659988,208.60239199999705,208.60239199999705,209.14257624999664,g,1.0,0.5328354999983276,,,,,,sub-034,1,stroop_test,,
,,,,39.0,3.0,3.0,,,,,,,,,,,,,blau,blue,b,1.0,b,1.0,0.3575147920018935,,,,,,,,,,3.0,3.0,39.0,5.0,209.15324045799932,,,,,,,,,,,,,,,,,209.14324058299823,209.93953812499967,210.7362861249967,210.72393937499876,,,,,,,,,,,,,,,,,,,,,,,,,,,,,,,,,,,210.72875729099903,210.7362861249967,210.7362861249967,211.09605287500017,b,1.0,0.3575147920018935,,,,,,sub-034,1,stroop_test,,
,,,,40.0,4.0,3.0,,,,,,,,,,,,,gelb,red,r,0.0,g,0.0,0.6117240410021623,,,,,,,,,,3.0,4.0,40.0,8.0,211.1069253749993,,,,,,,,,,,,,,,,,211.09663870799704,211.8896596659979,212.68508533299973,212.6734648749989,,,,,,,,,,,,,,,,,,,,,,,,,,,,,,,,,,,212.6774320409968,212.68508533299973,212.68508533299973,213.2994171249993,g,0.0,0.6117240410021623,,,,,,sub-034,1,stroop_test,,
,,,,41.0,5.0,3.0,,,,,,,,,,,,,rot,red,r,1.0,r,1.0,0.8303541249988484,,,,,,,,,,3.0,5.0,41.0,0.0,213.3095352499986,,,,,,,,,,,,,,,,,213.3000033749995,213.39597316599972,214.19331212499677,214.1802002909972,,,,,,,,,,,,,,,,,,,,,,,,,,,,,,,,,,,214.18374237499663,214.19331212499677,214.19331212499677,215.0273513329994,r,1.0,0.8303541249988484,,,,,,sub-034,1,stroop_test,,
,,,,42.0,6.0,3.0,,,,,,,,,,,,,rot,yellow,g,0.0,g,1.0,0.946887334001076,,,,,,,,,,3.0,6.0,42.0,3.0,215.03784304099827,,,,,,,,,,,,,,,,,215.02794016599728,215.1230862079974,215.91571879099865,215.90739462499917,,,,,,,,,,,,,,,,,,,,,,,,,,,,,,,,,,,215.9083766249969,215.91571879099865,215.91571879099865,216.8658100829998,g,1.0,0.946887334001076,,,,,,sub-034,1,stroop_test,,
,,,,43.0,7.0,3.0,,,,,,,,,,,,,blau,yellow,g,0.0,g,1.0,0.5910402499976044,,,,,,,,,,3.0,7.0,43.0,7.0,216.87587179099864,,,,,,,,,,,,,,,,,216.86640204099967,217.2132627079991,218.00930075,217.99734983300004,,,,,,,,,,,,,,,,,,,,,,,,,,,,,,,,,,,218.00126524999723,218.00930075,218.00930075,218.60875349999696,g,1.0,0.5910402499976044,,,,,,sub-034,1,stroop_test,,
,,,,44.0,8.0,3.0,,,,,,,,,,,,,gelb,blue,b,0.0,b,1.0,0.592396624997491,,,,,,,,,,3.0,8.0,44.0,9.0,218.62022849999997,,,,,,,,,,,,,,,,,218.60945262499808,219.40625379099947,220.20107820799967,220.1900572499981,,,,,,,,,,,,,,,,,,,,,,,,,,,,,,,,,,,220.1935546659988,220.20107820799967,220.20107820799967,220.79849837499933,b,1.0,0.592396624997491,,,,,,sub-034,1,stroop_test,,
,,,,45.0,9.0,3.0,,,,,,,,,,,,,blau,blue,b,1.0,b,1.0,0.5607017910006107,,,,,,,,,,3.0,9.0,45.0,6.0,220.80916024999897,,,,,,,,,,,,,,,,,220.7990787909985,221.99666266599888,222.79268562499783,222.78044274999772,,,,,,,,,,,,,,,,,,,,,,,,,,,,,,,,,,,222.7850448749996,222.79268562499783,222.79268562499783,223.35840774999812,b,1.0,0.5607017910006107,,,,,,sub-034,1,stroop_test,,
,,,,46.0,10.0,3.0,,,,,,,,,,,,,rot,blue,b,0.0,b,1.0,0.3711545829974056,,,,,,,,,,3.0,10.0,46.0,2.0,223.36905070799912,,,,,,,,,,,,,,,,,223.3589950409987,224.1563112909971,224.95520454099824,224.9400839579976,,,,,,,,,,,,,,,,,,,,,,,,,,,,,,,,,,,224.94433929099975,224.95520454099824,224.95520454099824,225.33173220800015,b,1.0,0.3711545829974056,,,,,,sub-034,1,stroop_test,,
,,,,47.0,11.0,3.0,,,,,,,,,,,,,rot,red,r,1.0,r,1.0,0.569949082997482,,,,,,,,,,3.0,11.0,47.0,1.0,225.34270945800017,,,,,,,,,,,,,,,,,225.3323200829982,225.43232137499945,226.23147345799956,226.22340654099756,,,,,,,,,,,,,,,,,,,,,,,,,,,,,,,,,,,226.2241027909986,226.23147345799956,226.23147345799956,226.808344582998,r,1.0,0.569949082997482,,,,,,sub-034,1,stroop_test,,
,,,,48.0,0.0,4.0,,,,,,,,,,,,,rot,yellow,g,0.0,g,1.0,0.3571748750000552,,,,,,,,,,4.0,0.0,48.0,3.0,226.8185172079975,,,,,,,,,,,,,,,,,226.80891541599703,227.60627320799904,228.39914945799683,228.3906332499973,,,,,,,,,,,,,,,,,,,,,,,,,,,,,,,,,,,228.39168599999903,228.39914945799683,228.39914945799683,228.75907624999672,g,1.0,0.3571748750000552,,,,,,sub-034,1,stroop_test,,
,,,,49.0,1.0,4.0,,,,,,,,,,,,,blau,blue,b,1.0,b,1.0,0.6109433329984313,,,,,,,,,,4.0,1.0,49.0,5.0,228.76964470799797,,,,,,,,,,,,,,,,,228.75971470799777,229.95618424999705,230.75208854099765,230.7402979159997,,,,,,,,,,,,,,,,,,,,,,,,,,,,,,,,,,,230.7446075409971,230.75208854099765,230.75208854099765,231.36567941599787,b,1.0,0.6109433329984313,,,,,,sub-034,1,stroop_test,,
,,,,50.0,2.0,4.0,,,,,,,,,,,,,rot,red,r,1.0,r,1.0,0.8042127920016355,,,,,,,,,,4.0,2.0,50.0,1.0,231.3759624159975,,,,,,,,,,,,,,,,,231.36625512499813,232.16319349999685,232.96007087499677,232.94694616599736,,,,,,,,,,,,,,,,,,,,,,,,,,,,,,,,,,,232.95026495799905,232.96007087499677,232.96007087499677,233.77433149999703,r,1.0,0.8042127920016355,,,,,,sub-034,1,stroop_test,,
,,,,51.0,3.0,4.0,,,,,,,,,,,,,rot,red,r,1.0,r,1.0,0.507142999998905,,,,,,,,,,4.0,3.0,51.0,0.0,233.7847079579988,,,,,,,,,,,,,,,,,233.7749346249984,234.9728772499984,235.76603195799908,235.75734862499667,,,,,,,,,,,,,,,,,,,,,,,,,,,,,,,,,,,235.75835258299776,235.76603195799908,235.76603195799908,236.27639374999853,r,1.0,0.507142999998905,,,,,,sub-034,1,stroop_test,,
,,,,52.0,4.0,4.0,,,,,,,,,,,,,blau,red,r,0.0,r,1.0,0.510028541997599,,,,,,,,,,4.0,4.0,52.0,4.0,236.28666099999828,,,,,,,,,,,,,,,,,236.276986416,237.47280449999744,238.26867512499663,238.25690991599916,,,,,,,,,,,,,,,,,,,,,,,,,,,,,,,,,,,238.2607513749972,238.26867512499663,238.26867512499663,238.78131579099863,r,1.0,0.510028541997599,,,,,,sub-034,1,stroop_test,,
,,,,53.0,5.0,4.0,,,,,,,,,,,,,gelb,red,r,0.0,r,1.0,0.5063908749980328,,,,,,,,,,4.0,5.0,53.0,8.0,238.7923029579979,,,,,,,,,,,,,,,,,238.7819273749992,239.9801404159989,240.7754022499976,240.76339124999868,,,,,,,,,,,,,,,,,,,,,,,,,,,,,,,,,,,240.7672620829981,240.7754022499976,240.7754022499976,241.29090387499676,r,1.0,0.5063908749980328,,,,,,sub-034,1,stroop_test,,
,,,,54.0,6.0,4.0,,,,,,,,,,,,,rot,blue,b,0.0,b,1.0,0.828902166998887,,,,,,,,,,4.0,6.0,54.0,2.0,241.3013100829994,,,,,,,,,,,,,,,,,241.2914836249984,241.38951858299697,242.1907061249985,242.1733813749997,,,,,,,,,,,,,,,,,,,,,,,,,,,,,,,,,,,242.18013391599743,242.1907061249985,242.1907061249985,243.02535524999985,b,1.0,0.828902166998887,,,,,,sub-034,1,stroop_test,,
,,,,55.0,7.0,4.0,,,,,,,,,,,,,blau,blue,b,1.0,b,1.0,0.3967987920004816,,,,,,,,,,4.0,7.0,55.0,6.0,243.0359770409996,,,,,,,,,,,,,,,,,243.02603174999967,243.37292124999655,244.1692410830001,244.15743524999925,,,,,,,,,,,,,,,,,,,,,,,,,,,,,,,,,,,244.1618483329985,244.1692410830001,244.1692410830001,244.5753053749977,b,1.0,0.3967987920004816,,,,,,sub-034,1,stroop_test,,
,,,,56.0,8.0,4.0,,,,,,,,,,,,,gelb,yellow,g,1.0,g,1.0,0.5269527909986209,,,,,,,,,,4.0,8.0,56.0,10.0,244.5858477499969,,,,,,,,,,,,,,,,,244.57588283299992,245.3730713329969,246.1690789159984,246.15712774999704,,,,,,,,,,,,,,,,,,,,,,,,,,,,,,,,,,,246.1614684159977,246.1690789159984,246.1690789159984,246.69831687499757,g,1.0,0.5269527909986209,,,,,,sub-034,1,stroop_test,,
,,,,57.0,9.0,4.0,,,,,,,,,,,,,gelb,blue,b,0.0,b,1.0,0.9504792090010596,,,,,,,,,,4.0,9.0,57.0,9.0,246.7093302079993,,,,,,,,,,,,,,,,,246.69890962499997,247.0468631249969,247.83919441599937,247.83040383299883,,,,,,,,,,,,,,,,,,,,,,,,,,,,,,,,,,,247.83103799999665,247.83919441599937,247.83919441599937,248.79253304099984,b,1.0,0.9504792090010596,,,,,,sub-034,1,stroop_test,,
,,,,58.0,10.0,4.0,,,,,,,,,,,,,gelb,yellow,g,1.0,g,1.0,0.6297728329991514,,,,,,,,,,4.0,10.0,58.0,11.0,248.80290133299783,,,,,,,,,,,,,,,,,248.79311162500017,248.8893185829984,249.68245091599965,249.6738705409989,,,,,,,,,,,,,,,,,,,,,,,,,,,,,,,,,,,249.6748466659992,249.68245091599965,249.68245091599965,250.31515099999888,g,1.0,0.6297728329991514,,,,,,sub-034,1,stroop_test,,
,,,,59.0,11.0,4.0,,,,,,,,,,,,,blau,yellow,g,0.0,g,1.0,1.4085862499996438,,,,,,,,,,4.0,11.0,59.0,7.0,250.326081332998,,,,,,,,,,,,,,,,,250.31575924999925,250.66343124999912,251.4586497909986,251.4471793329976,,,,,,,,,,,,,,,,,,,,,,,,,,,,,,,,,,,251.4507731249978,251.4586497909986,251.4586497909986,252.8749593749999,g,1.0,1.4085862499996438,,,,,,sub-034,1,stroop_test,,
,,,,60.0,0.0,5.0,,,,,,,,,,,,,gelb,yellow,g,1.0,g,1.0,0.9106050830014284,,,,,,,,,,5.0,0.0,60.0,10.0,252.8853042909977,,,,,,,,,,,,,,,,,252.87559091599903,253.6729468329977,254.470147582997,254.45717333299763,,,,,,,,,,,,,,,,,,,,,,,,,,,,,,,,,,,254.4618264579985,254.470147582997,254.470147582997,255.383410208,g,1.0,0.9106050830014284,,,,,,sub-034,1,stroop_test,,
,,,,61.0,1.0,5.0,,,,,,,,,,,,,gelb,red,r,0.0,r,1.0,0.9900182079982188,,,,,,,,,,5.0,1.0,61.0,8.0,255.394268707998,,,,,,,,,,,,,,,,,255.38398637499995,255.72945279099804,256.5212369999972,256.51338479100014,,,,,,,,,,,,,,,,,,,,,,,,,,,,,,,,,,,256.51387458299723,256.5212369999972,256.5212369999972,257.5153264579967,r,1.0,0.9900182079982188,,,,,,sub-034,1,stroop_test,,
,,,,62.0,2.0,5.0,,,,,,,,,,,,,blau,red,r,0.0,r,1.0,0.6053192910003418,,,,,,,,,,5.0,2.0,62.0,4.0,257.5259338750002,,,,,,,,,,,,,,,,,257.5159074160001,258.313611415997,259.1083907909997,259.0966484579985,,,,,,,,,,,,,,,,,,,,,,,,,,,,,,,,,,,259.10009129099853,259.1083907909997,259.1083907909997,259.72524283299936,r,1.0,0.6053192910003418,,,,,,sub-034,1,stroop_test,,
,,,,63.0,3.0,5.0,,,,,,,,,,,,,rot,red,r,1.0,r,1.0,0.545660333998967,,,,,,,,,,5.0,3.0,63.0,0.0,259.7358009999989,,,,,,,,,,,,,,,,,259.7258274579981,260.5230460829989,261.3232024159988,261.3071218329969,,,,,,,,,,,,,,,,,,,,,,,,,,,,,,,,,,,261.31239083299806,261.3232024159988,261.3232024159988,261.8749373749997,r,1.0,0.545660333998967,,,,,,sub-034,1,stroop_test,,
,,,,64.0,4.0,5.0,,,,,,,,,,,,,gelb,blue,b,0.0,b,1.0,0.4819179999976768,,,,,,,,,,5.0,4.0,64.0,9.0,261.8853497909986,,,,,,,,,,,,,,,,,261.8755290829977,262.22290087500005,263.01832279099835,263.006929332998,,,,,,,,,,,,,,,,,,,,,,,,,,,,,,,,,,,263.01067883299766,263.01832279099835,263.01832279099835,263.50888124999983,b,1.0,0.4819179999976768,,,,,,sub-034,1,stroop_test,,
,,,,65.0,5.0,5.0,,,,,,,,,,,,,rot,red,r,1.0,r,1.0,0.5048387079987151,,,,,,,,,,5.0,5.0,65.0,1.0,263.51910491599847,,,,,,,,,,,,,,,,,263.5094815409975,264.3064003749969,265.1055763749973,265.090536290998,,,,,,,,,,,,,,,,,,,,,,,,,,,,,,,,,,,265.09459074999904,265.1055763749973,265.1055763749973,265.61566200000016,r,1.0,0.5048387079987151,,,,,,sub-034,1,stroop_test,,
,,,,66.0,6.0,5.0,,,,,,,,,,,,,blau,blue,b,1.0,b,1.0,0.6262341670008027,,,,,,,,,,5.0,6.0,66.0,6.0,265.6260183329978,,,,,,,,,,,,,,,,,265.61626445799993,265.712333624997,266.5094458329986,266.49727433299995,,,,,,,,,,,,,,,,,,,,,,,,,,,,,,,,,,,266.50097804100005,266.5094458329986,266.5094458329986,267.1418067909981,b,1.0,0.6262341670008027,,,,,,sub-034,1,stroop_test,,
,,,,67.0,7.0,5.0,,,,,,,,,,,,,rot,yellow,g,0.0,g,1.0,0.7629672920011217,,,,,,,,,,5.0,7.0,67.0,3.0,267.15209808299915,,,,,,,,,,,,,,,,,267.1423940829991,267.4896843329989,268.28911170799984,268.27392991599845,,,,,,,,,,,,,,,,,,,,,,,,,,,,,,,,,,,268.278226082999,268.28911170799984,268.28911170799984,269.057470249998,g,1.0,0.7629672920011217,,,,,,sub-034,1,stroop_test,,
,,,,68.0,8.0,5.0,,,,,,,,,,,,,rot,blue,b,0.0,b,1.0,0.5087981249998847,,,,,,,,,,5.0,8.0,68.0,2.0,269.06791933299974,,,,,,,,,,,,,,,,,269.05804024999816,269.4063446250002,270.19817029099795,270.1902700409992,,,,,,,,,,,,,,,,,,,,,,,,,,,,,,,,,,,270.1909468329977,270.19817029099795,270.19817029099795,270.71085579099963,b,1.0,0.5087981249998847,,,,,,sub-034,1,stroop_test,,
,,,,69.0,9.0,5.0,,,,,,,,,,,,,blau,yellow,g,0.0,g,1.0,0.8153792500015697,,,,,,,,,,5.0,9.0,69.0,7.0,270.7213544999977,,,,,,,,,,,,,,,,,270.7114689159971,271.50628916599817,272.30265391599823,272.2906187499975,,,,,,,,,,,,,,,,,,,,,,,,,,,,,,,,,,,272.29521937499885,272.30265391599823,272.30265391599823,273.126483582997,g,1.0,0.8153792500015697,,,,,,sub-034,1,stroop_test,,
,,,,70.0,10.0,5.0,,,,,,,,,,,,,gelb,yellow,g,1.0,g,1.0,0.5036053330004506,,,,,,,,,,5.0,10.0,70.0,11.0,273.13701441599915,,,,,,,,,,,,,,,,,273.12715124999886,274.32292420799786,275.1191204579991,275.10722774999886,,,,,,,,,,,,,,,,,,,,,,,,,,,,,,,,,,,275.11151312499715,275.1191204579991,275.1191204579991,275.6294004159972,g,1.0,0.5036053330004506,,,,,,sub-034,1,stroop_test,,
,,,,71.0,11.0,5.0,,,,,,,,,,,,,blau,blue,b,1.0,b,1.0,0.4411406660001375,,,,,,,,,,5.0,11.0,71.0,5.0,275.6404862909985,,,,,,,,,,,,,,,,,275.62998341599814,275.97314937499686,276.7696039579969,276.75673362499947,,,,,,,,,,,,,,,,,,,,,,,,,,,,,,,,,,,276.762048624998,276.7696039579969,276.7696039579969,277.21398124999905,b,1.0,0.4411406660001375,,,,,,sub-034,1,stroop_test,,
,,,,72.0,0.0,6.0,,,,,,,,,,,,,blau,blue,b,1.0,b,1.0,0.5679324169977917,,,,,,,,,,6.0,0.0,72.0,6.0,277.2250537079999,,,,,,,,,,,,,,,,,277.2145689159988,278.413816207998,279.205828457998,279.1973482079993,,,,,,,,,,,,,,,,,,,,,,,,,,,,,,,,,,,279.1979892499985,279.205828457998,279.205828457998,279.787723999998,b,1.0,0.5679324169977917,,,,,,sub-034,1,stroop_test,,
,,,,73.0,1.0,6.0,,,,,,,,,,,,,gelb,yellow,g,1.0,g,1.0,0.7778496669998276,,,,,,,,,,6.0,1.0,73.0,10.0,279.7934106249995,,,,,,,,,,,,,,,,,279.7881464999992,280.58058541599894,281.38544341599845,281.37371749999875,,,,,,,,,,,,,,,,,,,,,,,,,,,,,,,,,,,281.37793474999853,281.38544341599845,281.38544341599845,282.1663407909982,g,1.0,0.7778496669998276,,,,,,sub-034,1,stroop_test,,
,,,,74.0,2.0,6.0,,,,,,,,,,,,,rot,yellow,g,0.0,g,1.0,0.4808911250001983,,,,,,,,,,6.0,2.0,74.0,3.0,282.1762448749978,,,,,,,,,,,,,,,,,282.1669545829973,282.5134514579986,283.31021624999994,283.2975107079983,,,,,,,,,,,,,,,,,,,,,,,,,,,,,,,,,,,283.3008212079985,283.31021624999994,283.31021624999994,283.7988520409999,g,1.0,0.4808911250001983,,,,,,sub-034,1,stroop_test,,
,,,,75.0,3.0,6.0,,,,,,,,,,,,,rot,blue,b,0.0,b,1.0,0.6857517919997917,,,,,,,,,,6.0,3.0,75.0,2.0,283.8095341659973,,,,,,,,,,,,,,,,,283.799436082998,284.99658141599866,285.7984357079986,285.7902354999969,,,,,,,,,,,,,,,,,,,,,,,,,,,,,,,,,,,285.79089104099694,285.7984357079986,285.7984357079986,286.49181770799987,b,1.0,0.6857517919997917,,,,,,sub-034,1,stroop_test,,
,,,,76.0,4.0,6.0,,,,,,,,,,,,,rot,red,r,1.0,r,1.0,0.6294950839983358,,,,,,,,,,6.0,4.0,76.0,1.0,286.50235599999723,,,,,,,,,,,,,,,,,286.49241991599774,286.8396138749995,287.6325585409977,287.624156291,,,,,,,,,,,,,,,,,,,,,,,,,,,,,,,,,,,287.6251597079972,287.6325585409977,287.6325585409977,288.2649590410001,r,1.0,0.6294950839983358,,,,,,sub-034,1,stroop_test,,
,,,,77.0,5.0,6.0,,,,,,,,,,,,,gelb,red,r,0.0,r,1.0,0.4649218330014264,,,,,,,,,,6.0,5.0,77.0,8.0,288.2758085829992,,,,,,,,,,,,,,,,,288.2655767079996,289.0631914159967,289.8585237909974,289.8469154159975,,,,,,,,,,,,,,,,,,,,,,,,,,,,,,,,,,,289.85035787499874,289.8585237909974,289.8585237909974,290.32671470799687,r,1.0,0.4649218330014264,,,,,,sub-034,1,stroop_test,,
,,,,78.0,6.0,6.0,,,,,,,,,,,,,blau,blue,b,1.0,b,1.0,0.6433396249994985,,,,,,,,,,6.0,6.0,78.0,5.0,290.3372949579971,,,,,,,,,,,,,,,,,290.327344082998,290.4229438329967,291.21820008299983,291.2070116249997,,,,,,,,,,,,,,,,,,,,,,,,,,,,,,,,,,,291.21080833299857,291.21820008299983,291.21820008299983,291.8658559999967,b,1.0,0.6433396249994985,,,,,,sub-034,1,stroop_test,,
,,,,79.0,7.0,6.0,,,,,,,,,,,,,rot,red,r,1.0,r,1.0,0.5636893750015588,,,,,,,,,,6.0,7.0,79.0,0.0,291.87620612499813,,,,,,,,,,,,,,,,,291.8665257499997,292.66441404099896,293.4728981659973,293.4573127079966,,,,,,,,,,,,,,,,,,,,,,,,,,,,,,,,,,,293.4621126249985,293.4728981659973,293.4728981659973,294.0421422909967,r,1.0,0.5636893750015588,,,,,,sub-034,1,stroop_test,,
,,,,80.0,8.0,6.0,,,,,,,,,,,,,gelb,yellow,g,1.0,g,1.0,0.3626796659991669,,,,,,,,,,6.0,8.0,80.0,11.0,294.05254979099846,,,,,,,,,,,,,,,,,294.0427362909977,294.8398215829984,295.6358619999992,295.6234621249969,,,,,,,,,,,,,,,,,,,,,,,,,,,,,,,,,,,295.6281884579985,295.6358619999992,295.6358619999992,296.008969915998,g,1.0,0.3626796659991669,,,,,,sub-034,1,stroop_test,,
,,,,81.0,9.0,6.0,,,,,,,,,,,,,blau,yellow,g,0.0,g,1.0,0.6495942090004974,,,,,,,,,,6.0,9.0,81.0,7.0,296.0195279999971,,,,,,,,,,,,,,,,,296.0096265409993,296.80632183299895,297.6013243749985,297.59033445800014,,,,,,,,,,,,,,,,,,,,,,,,,,,,,,,,,,,297.59384212499936,297.6013243749985,297.6013243749985,298.2592958749992,g,1.0,0.6495942090004974,,,,,,sub-034,1,stroop_test,,
,,,,82.0,10.0,6.0,,,,,,,,,,,,,blau,red,r,0.0,r,1.0,0.8243575840024278,,,,,,,,,,6.0,10.0,82.0,4.0,298.2700559999976,,,,,,,,,,,,,,,,,298.25996499999746,298.35584616599954,299.1489144579973,299.1405711249972,,,,,,,,,,,,,,,,,,,,,,,,,,,,,,,,,,,299.141557166,299.1489144579973,299.1489144579973,299.9762029579979,r,1.0,0.8243575840024278,,,,,,sub-034,1,stroop_test,,
,,,,83.0,11.0,6.0,,,,,,,,,,,,,gelb,blue,b,0.0,b,1.0,0.8156299580004998,,,,,,,,,,6.0,11.0,83.0,9.0,299.9864892079968,,,,,,,,,,,,,,,,,299.9767896659978,300.77305999999953,301.5676432499968,301.556860875,,,,,,,,,,,,,,,,,,,,,,,,,,,,,,,,,,,301.5601160829974,301.5676432499968,301.5676432499968,302.3913642499974,b,1.0,0.8156299580004998,,,,,,sub-034,1,stroop_test,,
,,,,84.0,0.0,7.0,,,,,,,,,,,,,blau,yellow,g,0.0,g,1.0,1.0209019590001844,,,,,,,,,,7.0,0.0,84.0,7.0,302.401788332998,,,,,,,,,,,,,,,,,302.3920108329985,302.7398266659984,303.53598541599786,303.52395599999727,,,,,,,,,,,,,,,,,,,,,,,,,,,,,,,,,,,303.5285551249981,303.53598541599786,303.53598541599786,304.56952712499697,g,1.0,1.0209019590001844,,,,,,sub-034,1,stroop_test,,
,,,,85.0,1.0,7.0,,,,,,,,,,,,,rot,blue,b,0.0,b,1.0,0.6545375830028206,,,,,,,,,,7.0,1.0,85.0,2.0,304.575621041,,,,,,,,,,,,,,,,,304.56996641599835,305.7634989580001,306.56021387500004,306.5466099999976,,,,,,,,,,,,,,,,,,,,,,,,,,,,,,,,,,,306.550273957997,306.56021387500004,306.56021387500004,307.22523641599764,b,1.0,0.6545375830028206,,,,,,sub-034,1,stroop_test,,
,,,,86.0,2.0,7.0,,,,,,,,,,,,,gelb,yellow,g,1.0,g,1.0,0.5451382499995816,,,,,,,,,,7.0,2.0,86.0,11.0,307.2355097079999,,,,,,,,,,,,,,,,,307.2258156249991,308.02302470799987,308.8186638749976,308.8070148329971,,,,,,,,,,,,,,,,,,,,,,,,,,,,,,,,,,,308.8112420829966,308.8186638749976,308.8186638749976,309.37675883299744,g,1.0,0.5451382499995816,,,,,,sub-034,1,stroop_test,,
,,,,87.0,3.0,7.0,,,,,,,,,,,,,rot,red,r,1.0,r,1.0,0.358471167000971,,,,,,,,,,7.0,3.0,87.0,0.0,309.38974791599685,,,,,,,,,,,,,,,,,309.37715929099795,310.5732182499996,311.3723767079973,311.3569159580002,,,,,,,,,,,,,,,,,,,,,,,,,,,,,,,,,,,311.36150179099786,311.3723767079973,311.3723767079973,311.7435674159969,r,1.0,0.358471167000971,,,,,,sub-034,1,stroop_test,,
,,,,88.0,4.0,7.0,,,,,,,,,,,,,blau,red,r,0.0,r,1.0,0.5911966250023397,,,,,,,,,,7.0,4.0,88.0,4.0,311.7565331249971,,,,,,,,,,,,,,,,,311.7439792499972,312.5397510829971,313.336800582998,313.3241055409999,,,,,,,,,,,,,,,,,,,,,,,,,,,,,,,,,,,313.3293406249977,313.336800582998,313.336800582998,313.93165795799723,r,1.0,0.5911966250023397,,,,,,sub-034,1,stroop_test,,
,,,,89.0,5.0,7.0,,,,,,,,,,,,,rot,yellow,g,0.0,g,1.0,0.8134574169998814,,,,,,,,,,7.0,5.0,89.0,3.0,313.94262075000006,,,,,,,,,,,,,,,,,313.93224174999705,314.2800088329968,315.0766749579998,315.063432166,,,,,,,,,,,,,,,,,,,,,,,,,,,,,,,,,,,315.06672066600004,315.0766749579998,315.0766749579998,315.90322683299746,g,1.0,0.8134574169998814,,,,,,sub-034,1,stroop_test,,
,,,,90.0,6.0,7.0,,,,,,,,,,,,,gelb,yellow,g,1.0,g,1.0,0.5722768750019895,,,,,,,,,,7.0,6.0,90.0,10.0,315.90908504099934,,,,,,,,,,,,,,,,,315.90373974999966,316.6968951659983,317.5012494579969,317.4902883329996,,,,,,,,,,,,,,,,,,,,,,,,,,,,,,,,,,,317.4936576659966,317.5012494579969,317.5012494579969,318.076399374997,g,1.0,0.5722768750019895,,,,,,sub-034,1,stroop_test,,
,,,,91.0,7.0,7.0,,,,,,,,,,,,,gelb,blue,b,0.0,b,1.0,0.7157032920003985,,,,,,,,,,7.0,7.0,91.0,9.0,318.08673933299724,,,,,,,,,,,,,,,,,318.07698612499735,319.2731165829973,320.06518879099895,320.0568884159984,,,,,,,,,,,,,,,,,,,,,,,,,,,,,,,,,,,320.05774008299704,320.06518879099895,320.06518879099895,320.7916401659968,b,1.0,0.7157032920003985,,,,,,sub-034,1,stroop_test,,
,,,,92.0,8.0,7.0,,,,,,,,,,,,,gelb,red,r,0.0,r,1.0,0.7111622500015073,,,,,,,,,,7.0,8.0,92.0,8.0,320.8019278749998,,,,,,,,,,,,,,,,,320.7922448329992,321.9899110829974,322.78306699999666,322.7744192909995,,,,,,,,,,,,,,,,,,,,,,,,,,,,,,,,,,,322.77547774999766,322.78306699999666,322.78306699999666,323.4993587499994,r,1.0,0.7111622500015073,,,,,,sub-034,1,stroop_test,,
,,,,93.0,9.0,7.0,,,,,,,,,,,,,blau,blue,b,1.0,b,1.0,0.7842999169988616,,,,,,,,,,7.0,9.0,93.0,6.0,323.50954341599936,,,,,,,,,,,,,,,,,323.4999624999982,323.5990905829967,324.40280479099965,324.39086754099844,,,,,,,,,,,,,,,,,,,,,,,,,,,,,,,,,,,324.3951939159997,324.40280479099965,324.40280479099965,325.19023966599707,b,1.0,0.7842999169988616,,,,,,sub-034,1,stroop_test,,
,,,,94.0,10.0,7.0,,,,,,,,,,,,,blau,blue,b,1.0,b,1.0,0.6026864999985264,,,,,,,,,,7.0,10.0,94.0,5.0,325.20040012499885,,,,,,,,,,,,,,,,,325.1908400409993,325.2793485000002,326.0715932079984,326.0633677909973,,,,,,,,,,,,,,,,,,,,,,,,,,,,,,,,,,,326.0639632909988,326.0715932079984,326.0715932079984,326.6816073329974,b,1.0,0.6026864999985264,,,,,,sub-034,1,stroop_test,,
,,,,95.0,11.0,7.0,,,,,,,,,,,,,rot,red,r,1.0,r,1.0,0.6161522500005958,,,,,,,,,,7.0,11.0,95.0,1.0,326.7058273749972,,,,,,,,,,,,,,,,,326.6821656659995,327.4804488749978,328.2770199999977,328.2635447499997,,,,,,,,,,,,,,,,,,,,,,,,,,,,,,,,,,,328.26745504099745,328.2770199999977,328.2770199999977,328.8981897079975,r,1.0,0.6161522500005958,,,,,,sub-034,1,stroop_test,,
,,,,96.0,0.0,8.0,,,,,,,,,,,,,gelb,blue,b,0.0,b,1.0,0.6481705420010258,,,,,,,,,,8.0,0.0,96.0,9.0,328.90871354099727,,,,,,,,,,,,,,,,,328.89876329099934,329.6973522909975,330.49288949999755,330.48070299999745,,,,,,,,,,,,,,,,,,,,,,,,,,,,,,,,,,,330.4847122079991,330.49288949999755,330.49288949999755,331.1551407909974,b,1.0,0.6481705420010258,,,,,,sub-034,1,stroop_test,,
,,,,97.0,1.0,8.0,,,,,,,,,,,,,rot,blue,b,0.0,b,1.0,0.5588681249973888,,,,,,,,,,8.0,1.0,97.0,2.0,331.1609502909996,,,,,,,,,,,,,,,,,331.15550004099714,331.24700487500013,332.0445367499997,332.03049941599966,,,,,,,,,,,,,,,,,,,,,,,,,,,,,,,,,,,332.0342919579998,332.0445367499997,332.0445367499997,332.6090668329998,b,1.0,0.5588681249973888,,,,,,sub-034,1,stroop_test,,
,,,,98.0,2.0,8.0,,,,,,,,,,,,,blau,yellow,g,0.0,g,1.0,1.268526625000959,,,,,,,,,,8.0,2.0,98.0,7.0,332.619604083,,,,,,,,,,,,,,,,,332.60968520799725,332.7066106659986,333.5014635829976,333.49050808299944,,,,,,,,,,,,,,,,,,,,,,,,,,,,,,,,,,,333.4935558749967,333.5014635829976,333.5014635829976,334.77574012499826,g,1.0,1.268526625000959,,,,,,sub-034,1,stroop_test,,
,,,,99.0,3.0,8.0,,,,,,,,,,,,,rot,red,r,1.0,r,1.0,0.4768284589990799,,,,,,,,,,8.0,3.0,99.0,1.0,334.7864833329986,,,,,,,,,,,,,,,,,334.7763810409997,334.87159162499665,335.6735937079975,335.6581371659995,,,,,,,,,,,,,,,,,,,,,,,,,,,,,,,,,,,335.6623493749976,335.6735937079975,335.6735937079975,336.1591224160002,r,1.0,0.4768284589990799,,,,,,sub-034,1,stroop_test,,
,,,,100.0,4.0,8.0,,,,,,,,,,,,,rot,red,r,1.0,r,1.0,0.3807285000002594,,,,,,,,,,8.0,4.0,100.0,0.0,336.1694613749969,,,,,,,,,,,,,,,,,336.1596902079982,336.2565226249972,337.0494552499986,337.04061974999786,,,,,,,,,,,,,,,,,,,,,,,,,,,,,,,,,,,337.04162608299885,337.0494552499986,337.0494552499986,337.4324612909986,r,1.0,0.3807285000002594,,,,,,sub-034,1,stroop_test,,
,,,,101.0,5.0,8.0,,,,,,,,,,,,,blau,red,r,0.0,g,0.0,0.4464054580021184,,,,,,,,,,8.0,5.0,101.0,4.0,337.44298270799845,,,,,,,,,,,,,,,,,337.4330388749986,337.7801685409977,338.5857174999983,338.573891582997,,,,,,,,,,,,,,,,,,,,,,,,,,,,,,,,,,,338.57808904099875,338.5857174999983,338.5857174999983,339.04186704099993,g,0.0,0.4464054580021184,,,,,,sub-034,1,stroop_test,,
,,,,102.0,6.0,8.0,,,,,,,,,,,,,gelb,yellow,g,1.0,g,1.0,0.6149087920020975,,,,,,,,,,8.0,6.0,102.0,11.0,339.0524025829982,,,,,,,,,,,,,,,,,339.0424621659986,340.23987320800006,341.0365392909989,341.02430391599773,,,,,,,,,,,,,,,,,,,,,,,,,,,,,,,,,,,341.02844308299973,341.0365392909989,341.0365392909989,341.6586069579971,g,1.0,0.6149087920020975,,,,,,sub-034,1,stroop_test,,
,,,,103.0,7.0,8.0,,,,,,,,,,,,,gelb,yellow,g,1.0,g,1.0,0.5001856669987319,,,,,,,,,,8.0,7.0,103.0,10.0,341.6695022499989,,,,,,,,,,,,,,,,,341.6591950410002,342.0066385409991,342.7969615410002,342.79077083299853,,,,,,,,,,,,,,,,,,,,,,,,,,,,,,,,,,,342.791173374997,342.7969615410002,342.7969615410002,343.30024033299924,g,1.0,0.5001856669987319,,,,,,sub-034,1,stroop_test,,
,,,,104.0,8.0,8.0,,,,,,,,,,,,,gelb,red,r,0.0,r,1.0,1.1957177920012327,,,,,,,,,,8.0,8.0,104.0,8.0,343.31131454099886,,,,,,,,,,,,,,,,,343.3008075409998,343.40048037499946,344.1973494999984,344.1902752909991,,,,,,,,,,,,,,,,,,,,,,,,,,,,,,,,,,,344.1907480409973,344.1973494999984,344.1973494999984,345.3981952079994,r,1.0,1.1957177920012327,,,,,,sub-034,1,stroop_test,,
,,,,105.0,9.0,8.0,,,,,,,,,,,,,blau,blue,b,1.0,b,1.0,1.202953707997949,,,,,,,,,,8.0,9.0,105.0,5.0,345.42268079099813,,,,,,,,,,,,,,,,,345.39873433299726,346.59721858299963,347.3922977080001,347.3807105829983,,,,,,,,,,,,,,,,,,,,,,,,,,,,,,,,,,,347.3841494579974,347.3922977080001,347.3922977080001,348.59936770799686,b,1.0,1.202953707997949,,,,,,sub-034,1,stroop_test,,
,,,,106.0,10.0,8.0,,,,,,,,,,,,,blau,blue,b,1.0,b,1.0,0.4528526249996503,,,,,,,,,,8.0,10.0,106.0,6.0,348.60973708299935,,,,,,,,,,,,,,,,,348.59995100000015,349.7966840409972,350.5898669999988,350.58109741599765,,,,,,,,,,,,,,,,,,,,,,,,,,,,,,,,,,,350.58170925000013,350.5898669999988,350.5898669999988,351.0481283329973,b,1.0,0.4528526249996503,,,,,,sub-034,1,stroop_test,,
,,,,107.0,11.0,8.0,,,,,,,,,,,,,rot,yellow,g,0.0,g,1.0,1.145411374996911,,,,,,,,,,8.0,11.0,107.0,3.0,351.05881779099946,,,,,,,,,,,,,,,,,351.0486992499973,351.3963577499999,352.1951393749987,352.1809946659996,,,,,,,,,,,,,,,,,,,,,,,,,,,,,,,,,,,352.1854192909996,352.1951393749987,352.1951393749987,353.34334204100014,g,1.0,1.145411374996911,,,,,,sub-034,1,stroop_test,,
,,,,108.0,0.0,9.0,,,,,,,,,,,,,gelb,yellow,g,1.0,g,1.0,0.4792247090008459,,,,,,,,,,9.0,0.0,108.0,10.0,353.3538429579967,,,,,,,,,,,,,,,,,353.3439411660001,353.43972649999705,354.23623874999976,354.2242835409997,,,,,,,,,,,,,,,,,,,,,,,,,,,,,,,,,,,354.22877724999853,354.23623874999976,354.23623874999976,354.7253309159969,g,1.0,0.4792247090008459,,,,,,sub-034,1,stroop_test,,
,,,,109.0,1.0,9.0,,,,,,,,,,,,,rot,red,r,1.0,r,1.0,0.6512477079995733,,,,,,,,,,9.0,1.0,109.0,1.0,354.73602070799825,,,,,,,,,,,,,,,,,354.7260037909982,354.82346658299866,355.6224680409978,355.60749041599775,,,,,,,,,,,,,,,,,,,,,,,,,,,,,,,,,,,355.6116376659993,355.6224680409978,355.6224680409978,356.2768719159976,r,1.0,0.6512477079995733,,,,,,sub-034,1,stroop_test,,
,,,,110.0,2.0,9.0,,,,,,,,,,,,,blau,blue,b,1.0,b,1.0,0.5541269999994256,,,,,,,,,,9.0,2.0,110.0,5.0,356.2874262079968,,,,,,,,,,,,,,,,,356.2775547079982,356.6233389579975,357.4195825829993,357.40759649999745,,,,,,,,,,,,,,,,,,,,,,,,,,,,,,,,,,,357.41196541599857,357.4195825829993,357.4195825829993,357.98676741599775,b,1.0,0.5541269999994256,,,,,,sub-034,1,stroop_test,,
,,,,111.0,3.0,9.0,,,,,,,,,,,,,rot,blue,b,0.0,b,1.0,0.7063768329971936,,,,,,,,,,9.0,3.0,111.0,2.0,357.992535207999,,,,,,,,,,,,,,,,,357.9872238749995,358.3309402909981,359.13975245799884,359.12412270799905,,,,,,,,,,,,,,,,,,,,,,,,,,,,,,,,,,,359.1287384999996,359.13975245799884,359.13975245799884,359.8494393330002,b,1.0,0.7063768329971936,,,,,,sub-034,1,stroop_test,,
,,,,112.0,4.0,9.0,,,,,,,,,,,,,gelb,blue,b,0.0,b,1.0,0.4255412079983216,,,,,,,,,,9.0,4.0,112.0,9.0,359.859736082999,,,,,,,,,,,,,,,,,359.85002520799753,360.1970967499983,360.9923765409985,360.9808490409996,,,,,,,,,,,,,,,,,,,,,,,,,,,,,,,,,,,360.984400333,360.9923765409985,360.9923765409985,361.42569433300014,b,1.0,0.4255412079983216,,,,,,sub-034,1,stroop_test,,
,,,,113.0,5.0,9.0,,,,,,,,,,,,,blau,yellow,g,0.0,g,1.0,0.5289502500017988,,,,,,,,,,9.0,5.0,113.0,7.0,361.4362977499986,,,,,,,,,,,,,,,,,361.4263820829983,362.2233216249988,363.01921804099766,363.0074628749972,,,,,,,,,,,,,,,,,,,,,,,,,,,,,,,,,,,363.0116919159991,363.01921804099766,363.01921804099766,363.55904183299936,g,1.0,0.5289502500017988,,,,,,sub-034,1,stroop_test,,
,,,,114.0,6.0,9.0,,,,,,,,,,,,,gelb,red,r,0.0,r,1.0,0.3656875830019999,,,,,,,,,,9.0,6.0,114.0,8.0,363.5695304159999,,,,,,,,,,,,,,,,,363.5596242079992,363.6568737499984,364.4586657499967,364.4457776659983,,,,,,,,,,,,,,,,,,,,,,,,,,,,,,,,,,,364.4502594579972,364.4586657499967,364.4586657499967,364.8320484999968,r,1.0,0.3656875830019999,,,,,,sub-034,1,stroop_test,,
,,,,115.0,7.0,9.0,,,,,,,,,,,,,gelb,yellow,g,1.0,g,1.0,0.6065589579993684,,,,,,,,,,9.0,7.0,115.0,11.0,364.84296929099946,,,,,,,,,,,,,,,,,364.8326435409981,364.9297573329968,365.7229096249976,365.7142365,,,,,,,,,,,,,,,,,,,,,,,,,,,,,,,,,,,365.7148642909997,365.7229096249976,365.7229096249976,366.3321984999966,g,1.0,0.6065589579993684,,,,,,sub-034,1,stroop_test,,
,,,,116.0,8.0,9.0,,,,,,,,,,,,,blau,blue,b,1.0,b,1.0,0.5786153339977318,,,,,,,,,,9.0,8.0,116.0,6.0,366.343093665997,,,,,,,,,,,,,,,,,366.3328066249997,367.530549957999,368.3255539999991,368.31420104099743,,,,,,,,,,,,,,,,,,,,,,,,,,,,,,,,,,,368.31744183299816,368.3255539999991,368.3255539999991,368.90907270800017,b,1.0,0.5786153339977318,,,,,,sub-034,1,stroop_test,,
,,,,117.0,9.0,9.0,,,,,,,,,,,,,blau,red,r,0.0,r,1.0,0.5211046670010546,,,,,,,,,,9.0,9.0,117.0,4.0,368.9197609160001,,,,,,,,,,,,,,,,,368.9097471249988,369.2568784999967,370.0490636659997,370.0407819579996,,,,,,,,,,,,,,,,,,,,,,,,,,,,,,,,,,,370.04152387499926,370.0490636659997,370.0490636659997,370.57650270799786,r,1.0,0.5211046670010546,,,,,,sub-034,1,stroop_test,,
,,,,118.0,10.0,9.0,,,,,,,,,,,,,rot,yellow,g,0.0,g,1.0,0.329495959002088,,,,,,,,,,9.0,10.0,118.0,3.0,370.58726475,,,,,,,,,,,,,,,,,370.5771809159996,371.3736402079994,372.1728229159999,372.1577509159979,,,,,,,,,,,,,,,,,,,,,,,,,,,,,,,,,,,372.1619416249996,372.1728229159999,372.1728229159999,372.5096445409981,g,1.0,0.329495959002088,,,,,,sub-034,1,stroop_test,,
,,,,119.0,11.0,9.0,,,,,,,,,,,,,rot,red,r,1.0,r,1.0,0.8582781250006519,,,,,,,,,,9.0,11.0,119.0,0.0,372.5203351659984,,,,,,,,,,,,,,,,,372.5103116659993,372.60690008299935,373.3986903749974,373.39057104099993,,,,,,,,,,,,,,,,,,,,,,,,,,,,,,,,,,,373.3914225409972,373.3986903749974,373.3986903749974,374.2698838749966,r,1.0,0.8582781250006519,,,,,,sub-034,1,stroop_test,,
,,,,,,,,,,,,,,,,,,,,,,,,,,,,,,,,,,,,,,,,,,,,,,,,,,,,,,,,,,,,,,,,,,,,,,,,,,,,,,,,,,,,,,,,,,,,,,,,,,,,,,374.2700856659976,374.2779958329993,379.2733655409975,379.2643233749986,sub-034,1,stroop_test,,
