direction,corrAns,thisN,thisTrialN,thisRepN,respDots.keys,respDots.corr,respDots.rt,respDots.duration,randomInstr,respRandomInstr.keys,respRandomInstr.rt,respRandomInstr.duration,practice_trials.thisRepN,practice_trials.thisTrialN,practice_trials.thisN,practice_trials.thisIndex,instr_trials.thisRepN,instr_trials.thisTrialN,instr_trials.thisN,instr_trials.thisIndex,test_trials.thisRepN,test_trials.thisTrialN,test_trials.thisN,test_trials.thisIndex,thisRow.t,notes,general_instruction.started,textGeneralInstr.started,respGeneralInstr.started,general_instruction.stopped,respGeneralInstr.keys,respGeneralInstr.rt,respGeneralInstr.duration,ITI.started,fixcross.started,fixcross.stopped,ITI.stopped,dots.started,backgroundDots.started,stimulusDots.started,respDots.started,dots.stopped,practice_trials.respDots.keys,practice_trials.respDots.corr,practice_trials.respDots.rt,practice_trials.respDots.duration,feedback.started,textFeedback.started,feedback.stopped,textFeedback.stopped,info.started,textInfo.started,keyRespInfo.started,info.stopped,keyRespInfo.keys,keyRespInfo.rt,keyRespInfo.duration,test_instruction.started,textTestInstr.started,respTestInstr.started,test_instruction.stopped,respTestInstr.keys,respTestInstr.rt,respTestInstr.duration,random_instruction.started,textRandomInstr.started,respRandomInstr.started,random_instruction.stopped,instr_trials.respRandomInstr.keys,instr_trials.respRandomInstr.rt,instr_trials.respRandomInstr.duration,test_trials.respDots.keys,test_trials.respDots.corr,test_trials.respDots.rt,test_trials.respDots.duration,stimulusDots.stopped,goodbye.started,textGoodbye.started,goodbye.stopped,participant,session,expName,frameRate,Unnamed: 87
,,,,,,,,,,,,,,,,,,,,,,,,,,,0.0154919999986304,0.0265195829997537,0.0265195829997537,14.928445582998393,space,14.86269029200048,,,,,,,,,,,,,,,,,,,,,,,,,,,,,,,,,,,,,,,,,,,,,,,,sub-117,1,random_dot,121.33161446847797,
left,left,0.0,0.0,0.0,left,1.0,1.2394365000000107,,,,,,0.0,0.0,0.0,0.0,,,,,,,,,14.948815666997689,,,,,,,,,14.93712854199839,16.12415366699861,16.928719125000498,16.91307479199895,16.91359329199986,16.928719125000498,16.928719125000498,16.928719125000498,18.17308483300076,left,1.0,1.2394365000000107,,18.181206249999377,18.1912182499982,18.67849616699823,,,,,,,,,,,,,,,,,,,,,,,,,,,,,,,sub-117,1,random_dot,121.33161446847797,
right,right,1.0,1.0,0.0,right,1.0,1.116564500000095,,,,,,0.0,1.0,1.0,1.0,,,,,,,,,18.688596042000427,,,,,,,,,18.679024166998715,19.872870499999408,20.66616795799928,20.65635279200069,20.656981374999305,20.66616795799928,20.66616795799928,20.66616795799928,21.789899957999296,right,1.0,1.116564500000095,,21.79000950000045,21.79820724999809,22.289460207997763,22.295661416999792,,,,,,,,,,,,,,,,,,,,,,,,,,,,,,sub-117,1,random_dot,121.33161446847797,
right,right,2.0,0.0,1.0,left,0.0,1.1186983330007934,,,,,,1.0,0.0,2.0,1.0,,,,,,,,,22.295661416999792,,,,,,,,,22.28981337499863,23.488371749997896,24.282594416999927,24.27309279199835,24.27370645799965,24.282594416999927,24.282594416999927,24.282594416999927,25.40666804200009,left,0.0,1.1186983330007934,,25.4124899999988,25.420621249999385,25.906419791997905,25.91323837500022,,,,,,,,,,,,,,,,,,,,,,,,,,,,,,sub-117,1,random_dot,121.33161446847797,
left,left,3.0,1.0,1.0,left,1.0,1.6369127500001923,,,,,,1.0,1.0,3.0,0.0,,,,,,,,,25.91323837500022,,,,,,,,,25.906890250000288,26.00538199999937,26.79731195799832,26.789338250000583,26.789734750000207,26.79731195799832,26.79731195799832,26.79731195799832,28.438460417000897,left,1.0,1.6369127500001923,,28.44126929199774,28.45651012500093,28.93889320800008,,,,,,,,,,,,,,,,,,,,,,,,,,,,,,,sub-117,1,random_dot,121.33161446847797,
right,right,4.0,0.0,2.0,right,1.0,2.2004544160008663,,,,,,2.0,0.0,4.0,1.0,,,,,,,,,28.944694750000053,,,,,,,,,28.939279957998224,29.02848366699982,29.821578082999626,29.812777582999843,29.81326408300083,29.821578082999626,29.821578082999626,29.821578082999626,32.03127741699791,right,1.0,2.2004544160008663,,32.0313832920001,32.054955083000095,32.53879712499838,,,,,,,,,,,,,,,,,,,,,,,,,,,,,,,sub-117,1,random_dot,121.33161446847797,
left,left,5.0,1.0,2.0,left,1.0,1.4783128750023025,,,,,,2.0,1.0,5.0,0.0,,,,,,,,,32.54542462500103,,,,,,,,,32.53922812499877,33.72867191700061,34.520025792000524,34.512378291998175,34.51276645799953,34.520025792000524,34.520025792000524,34.520025792000524,36.005945958000666,left,1.0,1.4783128750023025,,36.00605799999903,36.01277633299833,36.4960530419994,36.50450249999994,,,,,,,,,,,,,,,,,,,,,,,,,,,,,,sub-117,1,random_dot,121.33161446847797,
right,right,6.0,0.0,3.0,right,1.0,1.1342901250027353,,,,,,3.0,0.0,6.0,1.0,,,,,,,,,36.50450249999994,,,,,,,,,36.49646583299909,37.304563875000895,38.09663233299944,38.0888302079984,38.0893892919994,38.09663233299944,38.09663233299944,38.09663233299944,39.23412462499982,right,1.0,1.1342901250027353,,39.23426904200096,39.24578370800009,39.738921374999336,,,,,,,,,,,,,,,,,,,,,,,,,,,,,,,sub-117,1,random_dot,121.33161446847797,
left,left,7.0,1.0,3.0,left,1.0,1.556086458000209,,,,,,3.0,1.0,7.0,0.0,,,,,,,,,39.745456582997576,,,,,,,,,39.7393697080006,40.52910383299968,41.32093954199809,41.31248174999928,41.31291712500024,41.32093954199809,41.32093954199809,41.32093954199809,42.89323424999748,left,1.0,1.556086458000209,,42.89337674999842,42.90427562499826,43.38941287499984,43.39527191699744,,,,,,,,,,,,,,,,,,,,,,,,,,,,,,sub-117,1,random_dot,121.33161446847797,
left,left,8.0,0.0,4.0,left,1.0,1.7508410829977947,,,,,,4.0,0.0,8.0,0.0,,,,,,,,,43.39527191699744,,,,,,,,,43.38980970799821,43.73873749999984,44.53272208300041,44.52307237499917,44.523665875000006,44.53272208300041,44.53272208300041,44.53272208300041,46.29319908300022,left,1.0,1.7508410829977947,,46.29331666700091,46.30498537499807,46.79050237499905,46.79650754199975,,,,,,,,,,,,,,,,,,,,,,,,,,,,,,sub-117,1,random_dot,121.33161446847797,
right,right,9.0,1.0,4.0,right,1.0,2.1187467080017086,,,,,,4.0,1.0,9.0,1.0,,,,,,,,,46.79650754199975,,,,,,,,,46.79084837499977,46.889435041997785,47.68258570800026,47.67292466700019,47.67353262499819,47.68258570800026,47.68258570800026,47.68258570800026,49.810016542000085,right,1.0,2.1187467080017086,,49.81012258299961,49.82048408300034,50.30621533299927,50.31253529199967,,,,,,,,,,,,,,,,,,,,,,,,,,,,,,sub-117,1,random_dot,121.33161446847797,
left,left,10.0,0.0,5.0,right,0.0,2.351004166001076,,,,,,5.0,0.0,10.0,0.0,,,,,,,,,50.31253529199967,,,,,,,,,50.30662424999901,50.40478429200084,51.19863366699792,51.18955387499955,51.19003191699812,51.19863366699792,51.19863366699792,51.19863366699792,53.55856379199759,right,0.0,2.351004166001076,,53.56155037499775,53.5712948750006,54.05620829200052,54.06215758300095,,,,,,,,,,,,,,,,,,,,,,,,,,,,,,sub-117,1,random_dot,121.33161446847797,
right,right,11.0,1.0,5.0,left,0.0,1.0744840830011526,,,,,,5.0,1.0,11.0,1.0,,,,,,,,,54.06215758300095,,,,,,,,,54.05661870800032,54.85531708299823,55.64828587499869,55.63938316699932,55.63982983299866,55.64828587499869,55.64828587499869,55.64828587499869,56.74037341700023,left,0.0,1.0744840830011526,,56.74052350000056,56.75478862499949,57.23936933299774,57.24543608299791,,,,,,,,,,,,,,,,,,,,,,,,,,,,,,sub-117,1,random_dot,121.33161446847797,
left,left,12.0,0.0,6.0,right,0.0,1.780253166998591,,,,,,6.0,0.0,12.0,0.0,,,,,,,,,57.24543608299791,,,,,,,,,57.239742750000005,57.587508207998326,58.38087920799808,58.37219854199793,58.37268504199892,58.38087920799808,58.38087920799808,58.38087920799808,60.16802679199827,right,0.0,1.780253166998591,,60.16823908299921,60.178977167000994,60.672468832999584,,,,,,,,,,,,,,,,,,,,,,,,,,,,,,,sub-117,1,random_dot,121.33161446847797,
right,right,13.0,1.0,6.0,right,1.0,1.3025781670003198,,,,,,6.0,1.0,13.0,1.0,,,,,,,,,60.67901499999789,,,,,,,,,60.6729416249982,61.46352295799807,62.2598501249995,62.24724849999984,62.2478635419975,62.2598501249995,62.2598501249995,62.2598501249995,63.574541499998304,right,1.0,1.3025781670003198,,63.57887991700045,63.59058854199975,64.07652570799837,,,,,,,,,,,,,,,,,,,,,,,,,,,,,,,sub-117,1,random_dot,121.33161446847797,
left,left,14.0,0.0,7.0,left,1.0,2.036392999998497,,,,,,7.0,0.0,14.0,0.0,,,,,,,,,64.08855783299805,,,,,,,,,64.07687729199824,65.27182524999807,66.06481391700072,66.05538874999911,66.05599583299772,66.06481391700072,66.06481391700072,66.06481391700072,68.10871383300037,left,1.0,2.036392999998497,,68.10885420799968,68.1173111249991,68.60554133299956,68.61218591699799,,,,,,,,,,,,,,,,,,,,,,,,,,,,,,sub-117,1,random_dot,121.33161446847797,
right,right,15.0,1.0,7.0,left,0.0,1.342297791998135,,,,,,7.0,1.0,15.0,1.0,,,,,,,,,68.61218591699799,,,,,,,,,68.60615770799996,69.40426454199769,70.19746679200034,70.18858433299829,70.18905137500042,70.19746679200034,70.19746679200034,70.19746679200034,71.55523054199875,left,0.0,1.342297791998135,,71.55856079200021,71.56534816699786,72.0561306669988,,,,,,,,,,,,,,,,,,,,,,,,,,,,,,,sub-117,1,random_dot,121.33161446847797,
right,right,16.0,0.0,8.0,left,0.0,3.0578923339999164,,,,,,8.0,0.0,16.0,1.0,,,,,,,,,72.06178012500095,,,,,,,,,72.05649862499922,72.8454313330003,73.6373542500005,73.62865558299745,73.62913212499916,73.6373542500005,73.6373542500005,73.6373542500005,76.69900029199925,left,0.0,3.0578923339999164,,76.69914112499828,76.70979287500086,77.19561124999746,77.20514320800066,,,,,,,,,,,,,,,,,,,,,,,,,,,,,,sub-117,1,random_dot,121.33161446847797,
left,left,17.0,1.0,8.0,right,0.0,2.46039966600074,,,,,,8.0,1.0,17.0,0.0,,,,,,,,,77.20514320800066,,,,,,,,,77.19596179200016,77.99665762500081,78.79673804199774,78.78794487499908,78.78847749999841,78.79673804199774,78.79673804199774,78.79673804199774,81.26415199999974,right,0.0,2.46039966600074,,81.26425970799755,81.28823099999863,81.77105662499889,,,,,,,,,,,,,,,,,,,,,,,,,,,,,,,sub-117,1,random_dot,121.33161446847797,
right,right,18.0,0.0,9.0,right,1.0,2.209322582999448,,,,,,9.0,0.0,18.0,1.0,,,,,,,,,81.77772800000093,,,,,,,,,81.77159533300073,82.96280795799976,83.75510624999879,83.7462889999988,83.74675820799894,83.75510624999879,83.75510624999879,83.75510624999879,85.97355845799757,right,1.0,2.209322582999448,,85.97861274999741,85.9897246670007,86.4777839169983,,,,,,,,,,,,,,,,,,,,,,,,,,,,,,,sub-117,1,random_dot,121.33161446847797,
left,left,19.0,1.0,9.0,left,1.0,2.650167792002321,,,,,,9.0,1.0,19.0,0.0,,,,,,,,,86.48928091699781,,,,,,,,,86.47823070799859,86.8162568330008,87.6258216669994,87.60849537499962,87.60932920800042,87.6258216669994,87.6258216669994,87.6258216669994,90.28501537500053,left,1.0,2.650167792002321,,90.28520391699932,90.29619483299756,90.78072633299962,90.79295012500006,,,,,,,,,,,,,,,,,,,,,,,,,,,,,,sub-117,1,random_dot,121.33161446847797,
,,,,,,,,,,,,,,,,,,,,,,,,,,,,,,,,,,,,,,,,,,,,,,,,,,,90.78085799999826,90.79295012500006,90.79295012500006,94.78196899999966,space,3.9858454999994137,,,,,,,,,,,,,,,,,,,,,,,,sub-117,1,random_dot,121.33161446847797,
,,,,,,,,,,,,,,,,,,,,,,,,,,,,,,,,,,,,,,,,,,,,,,,,,,,,,,,,,,94.78207970799848,94.7937908749991,94.7937908749991,100.782877499998,space,5.97032400000171,,,,,,,,,,,,,,,,,sub-117,1,random_dot,121.33161446847797,
left,left,0.0,0.0,0.0,left,1.0,2.6009031659996253,,accuracy,space,2.6974616660008905,,,,,,0.0,0.0,0.0,0.0,0.0,0.0,0.0,0.0,103.55602712499967,,,,,,,,,103.54773025000031,104.73850829200092,105.53175758299768,105.52284170799976,105.5233449999978,105.53175758299768,105.53175758299768,105.53175758299768,108.14444379199996,,,,,,,,,,,,,,,,,,,,,,,100.82290312499754,100.83306412499952,100.83306412499952,103.5402772919988,space,2.6974616660008905,,left,1.0,2.6009031659996253,,,,,,sub-117,1,random_dot,121.33161446847797,
right,right,1.0,1.0,0.0,right,1.0,2.4943817090024822,,accuracy,space,2.6974616660008905,,,,,,0.0,0.0,0.0,0.0,0.0,1.0,1.0,1.0,108.15628666699922,,,,,,,,,108.144862000001,108.2466107500004,109.0485554170009,109.03951645800043,109.03998166699968,109.0485554170009,109.0485554170009,109.0485554170009,111.54760866699873,,,,,,,,,,,,,,,,,,,,,,,,,,,,,,right,1.0,2.4943817090024822,,,,,,sub-117,1,random_dot,121.33161446847797,
left,left,2.0,0.0,1.0,left,1.0,3.1324340410028526,,accuracy,space,2.6974616660008905,,,,,,0.0,0.0,0.0,0.0,1.0,0.0,2.0,0.0,111.57579554199764,,,,,,,,,111.54798183299864,112.7459537499999,113.54881212499822,113.53945200000088,113.53992791699784,113.54881212499822,113.54881212499822,113.54881212499822,116.68365966700004,,,,,,,,,,,,,,,,,,,,,,,,,,,,,,left,1.0,3.1324340410028526,,,,,,sub-117,1,random_dot,121.33161446847797,
right,right,3.0,1.0,1.0,left,0.0,1.97547904199746,,accuracy,space,2.6974616660008905,,,,,,0.0,0.0,0.0,0.0,1.0,1.0,3.0,1.0,116.6927643329982,,,,,,,,,116.68403929199847,117.87929866699778,118.67168729200056,118.66306245799932,118.66358562499954,118.67168729200056,118.67168729200056,118.67168729200056,120.65059462499994,,,,,,,,,,,,,,,,,,,,,,,,,,,,,,left,0.0,1.97547904199746,,,,,,sub-117,1,random_dot,121.33161446847797,
right,right,4.0,0.0,2.0,left,0.0,2.760398708000139,,accuracy,space,2.6974616660008905,,,,,,0.0,0.0,0.0,0.0,2.0,0.0,4.0,1.0,120.65965649999998,,,,,,,,,120.65095941699838,120.74834266700054,121.54695537500083,121.53800287500052,121.53851299999953,121.54695537500083,121.54695537500083,121.54695537500083,124.3126915419998,,,,,,,,,,,,,,,,,,,,,,,,,,,,,,left,0.0,2.760398708000139,,,,,,sub-117,1,random_dot,121.33161446847797,
left,left,5.0,1.0,2.0,left,1.0,2.496551249998447,,accuracy,space,2.6974616660008905,,,,,,0.0,0.0,0.0,0.0,2.0,1.0,5.0,0.0,124.3203512500004,,,,,,,,,124.31307345800089,125.1128640829993,125.91527354199934,125.90630945799784,125.90680054199764,125.91527354199934,125.91527354199934,125.91527354199934,128.42324412499875,,,,,,,,,,,,,,,,,,,,,,,,,,,,,,left,1.0,2.496551249998447,,,,,,sub-117,1,random_dot,121.33161446847797,
left,left,6.0,0.0,3.0,left,1.0,2.3941778339976736,,accuracy,space,2.6974616660008905,,,,,,0.0,0.0,0.0,0.0,3.0,0.0,6.0,0.0,128.4385176249998,,,,,,,,,128.423788125001,129.22202495799866,130.0150669579998,130.00587487499797,130.00634945799902,130.0150669579998,130.0150669579998,130.0150669579998,132.4142885000001,,,,,,,,,,,,,,,,,,,,,,,,,,,,,,left,1.0,2.3941778339976736,,,,,,sub-117,1,random_dot,121.33161446847797,
right,right,7.0,1.0,3.0,right,1.0,2.403938291001396,,accuracy,space,2.6974616660008905,,,,,,0.0,0.0,0.0,0.0,3.0,1.0,7.0,1.0,132.4382306669977,,,,,,,,,132.41476820800017,132.51293929199892,133.31425379199936,133.30589250000048,133.3063020419977,133.31425379199936,133.31425379199936,133.31425379199936,135.72885533299996,,,,,,,,,,,,,,,,,,,,,,,,,,,,,,right,1.0,2.403938291001396,,,,,,sub-117,1,random_dot,121.33161446847797,
right,right,8.0,0.0,4.0,left,0.0,2.568496750001941,,accuracy,space,2.6974616660008905,,,,,,0.0,0.0,0.0,0.0,4.0,0.0,8.0,1.0,135.74175837499934,,,,,,,,,135.7292164169994,135.82553704199745,136.62032508300035,136.61228870799823,136.61267724999925,136.62032508300035,136.62032508300035,136.62032508300035,139.192722374999,,,,,,,,,,,,,,,,,,,,,,,,,,,,,,left,0.0,2.568496750001941,,,,,,sub-117,1,random_dot,121.33161446847797,
left,left,9.0,1.0,4.0,right,0.0,3.949715416998515,,accuracy,space,2.6974616660008905,,,,,,0.0,0.0,0.0,0.0,4.0,1.0,9.0,0.0,139.2010505420003,,,,,,,,,139.19318170800034,139.9874342080002,140.78263624999818,140.7729001250009,140.7733850830009,140.78263624999818,140.78263624999818,140.78263624999818,144.74172308299967,,,,,,,,,,,,,,,,,,,,,,,,,,,,,,right,0.0,3.949715416998515,,,,,,sub-117,1,random_dot,121.33161446847797,
right,right,10.0,0.0,5.0,left,0.0,4.377432332999888,,accuracy,space,2.6974616660008905,,,,,,0.0,0.0,0.0,0.0,5.0,0.0,10.0,1.0,144.74944400000095,,,,,,,,,144.74208070799796,144.83863966699937,145.63252204200035,145.6234436249979,145.62391133299752,145.63252204200035,145.63252204200035,145.63252204200035,150.01943091700014,,,,,,,,,,,,,,,,,,,,,,,,,,,,,,left,0.0,4.377432332999888,,,,,,sub-117,1,random_dot,121.33161446847797,
left,left,11.0,1.0,5.0,left,1.0,3.742486291997921,,accuracy,space,2.6974616660008905,,,,,,0.0,0.0,0.0,0.0,5.0,1.0,11.0,0.0,150.02761074999944,,,,,,,,,150.0198524999978,150.11225762499816,150.91520037499868,150.90605008299826,150.90653595799813,150.91520037499868,150.91520037499868,150.91520037499868,154.66103312499763,,,,,,,,,,,,,,,,,,,,,,,,,,,,,,left,1.0,3.742486291997921,,,,,,sub-117,1,random_dot,121.33161446847797,
right,right,12.0,0.0,6.0,right,1.0,2.203265708001709,,accuracy,space,2.6974616660008905,,,,,,0.0,0.0,0.0,0.0,6.0,0.0,12.0,1.0,154.67387591700026,,,,,,,,,154.661399042001,155.86038304199974,156.6627951249975,156.64536416699775,156.64591875000042,156.6627951249975,156.6627951249975,156.6627951249975,158.87430420799865,,,,,,,,,,,,,,,,,,,,,,,,,,,,,,right,1.0,2.203265708001709,,,,,,sub-117,1,random_dot,121.33161446847797,
left,left,13.0,1.0,6.0,left,1.0,4.483383124999818,,accuracy,space,2.6974616660008905,,,,,,0.0,0.0,0.0,0.0,6.0,1.0,13.0,0.0,158.88538970800073,,,,,,,,,158.87504395799988,158.97202908300096,159.78855741699954,159.76332508300038,159.7639322920004,159.78855741699954,159.78855741699954,159.78855741699954,164.27938220799842,,,,,,,,,,,,,,,,,,,,,,,,,,,,,,left,1.0,4.483383124999818,,,,,,sub-117,1,random_dot,121.33161446847797,
left,left,14.0,0.0,7.0,left,1.0,1.1097377499972936,,accuracy,space,2.6974616660008905,,,,,,0.0,0.0,0.0,0.0,7.0,0.0,14.0,0.0,164.2876628749982,,,,,,,,,164.27974337499836,165.47918687499987,166.27191887499794,166.26272224999775,166.26320058299825,166.27191887499794,166.27191887499794,166.27191887499794,167.39137879199916,,,,,,,,,,,,,,,,,,,,,,,,,,,,,,left,1.0,1.1097377499972936,,,,,,sub-117,1,random_dot,121.33161446847797,
right,right,15.0,1.0,7.0,right,1.0,1.285376208001253,,accuracy,space,2.6974616660008905,,,,,,0.0,0.0,0.0,0.0,7.0,1.0,15.0,1.0,167.398568624998,,,,,,,,,167.39169462499922,168.18745712500095,168.98180566700103,168.97263945799932,168.9731274170008,168.98180566700103,168.98180566700103,168.98180566700103,170.27668458300104,,,,,,,,,,,,,,,,,,,,,,,,,,,,,,right,1.0,1.285376208001253,,,,,,sub-117,1,random_dot,121.33161446847797,
right,right,16.0,0.0,8.0,left,0.0,1.656354165999801,,accuracy,space,2.6974616660008905,,,,,,0.0,0.0,0.0,0.0,8.0,0.0,16.0,1.0,170.28896816699853,,,,,,,,,170.27740987499783,170.3714064579981,171.16407445799996,171.15518991700085,171.15567687499788,171.16407445799996,171.16407445799996,171.16407445799996,172.8241952919998,,,,,,,,,,,,,,,,,,,,,,,,,,,,,,left,0.0,1.656354165999801,,,,,,sub-117,1,random_dot,121.33161446847797,
left,left,17.0,1.0,8.0,right,0.0,2.782086457998957,,accuracy,space,2.6974616660008905,,,,,,0.0,0.0,0.0,0.0,8.0,1.0,17.0,0.0,172.83492266699977,,,,,,,,,172.8248155000001,172.9216948329995,173.71499279199998,173.70608937499856,173.70655783300026,173.71499279199998,173.71499279199998,173.71499279199998,176.50670683299904,,,,,,,,,,,,,,,,,,,,,,,,,,,,,,right,0.0,2.782086457998957,,,,,,sub-117,1,random_dot,121.33161446847797,
right,right,18.0,0.0,9.0,left,0.0,1.7057962090002547,,accuracy,space,2.6974616660008905,,,,,,0.0,0.0,0.0,0.0,9.0,0.0,18.0,1.0,176.51485491700078,,,,,,,,,176.50709908299905,176.60534633299903,177.39841850000084,177.38935812499767,177.3898370829993,177.39841850000084,177.39841850000084,177.39841850000084,179.111238417001,,,,,,,,,,,,,,,,,,,,,,,,,,,,,,left,0.0,1.7057962090002547,,,,,,sub-117,1,random_dot,121.33161446847797,
left,left,19.0,1.0,9.0,left,1.0,3.749930624999251,,accuracy,space,2.6974616660008905,,,,,,0.0,0.0,0.0,0.0,9.0,1.0,19.0,0.0,179.1240904999977,,,,,,,,,179.1116896249987,180.30536279199805,181.09776433300067,181.08866970799863,181.0891598329981,181.09776433300067,181.09776433300067,181.09776433300067,184.85024350000091,,,,,,,,,,,,,,,,,,,,,,,,,,,,,,left,1.0,3.749930624999251,,,,,,sub-117,1,random_dot,121.33161446847797,
left,left,20.0,0.0,10.0,right,0.0,1.983708875002776,,accuracy,space,2.6974616660008905,,,,,,0.0,0.0,0.0,0.0,10.0,0.0,20.0,0.0,184.85945974999777,,,,,,,,,184.8506098750004,185.6460834579993,186.4487052919976,186.43950508299892,186.44000541700007,186.4487052919976,186.4487052919976,186.4487052919976,188.4409793329978,,,,,,,,,,,,,,,,,,,,,,,,,,,,,,right,0.0,1.983708875002776,,,,,,sub-117,1,random_dot,121.33161446847797,
right,right,21.0,1.0,10.0,right,1.0,13.725393542001257,,accuracy,space,2.6974616660008905,,,,,,0.0,0.0,0.0,0.0,10.0,1.0,21.0,1.0,188.4486902919998,,,,,,,,,188.44135712500065,189.63868229199943,190.43195874999947,190.4226874169981,190.42315787500047,190.43195874999947,190.43195874999947,190.43195874999947,204.16039491699848,,,,,,,,,,,,,,,,,,,,,,,,,,,,,,right,1.0,13.725393542001257,,195.4113763329988,,,,sub-117,1,random_dot,121.33161446847797,
right,right,22.0,0.0,11.0,left,0.0,2.414044458997523,,accuracy,space,2.6974616660008905,,,,,,0.0,0.0,0.0,0.0,11.0,0.0,22.0,1.0,204.1728685829985,,,,,,,,,204.16120062499976,205.35503058299943,206.14831933299865,206.13940820800053,206.1398980419981,206.14831933299865,206.14831933299865,206.14831933299865,208.5657328749985,,,,,,,,,,,,,,,,,,,,,,,,,,,,,,left,0.0,2.414044458997523,,,,,,sub-117,1,random_dot,121.33161446847797,
left,left,23.0,1.0,11.0,left,1.0,3.674298750000162,,accuracy,space,2.6974616660008905,,,,,,0.0,0.0,0.0,0.0,11.0,1.0,23.0,0.0,208.57639949999796,,,,,,,,,208.566202375001,209.3628455830003,210.16575683299743,210.1562517499988,210.15686291699967,210.16575683299743,210.16575683299743,210.16575683299743,213.84414412499973,,,,,,,,,,,,,,,,,,,,,,,,,,,,,,left,1.0,3.674298750000162,,,,,,sub-117,1,random_dot,121.33161446847797,
left,left,24.0,0.0,12.0,right,0.0,2.654012792001595,,accuracy,space,2.6974616660008905,,,,,,0.0,0.0,0.0,0.0,12.0,0.0,24.0,0.0,213.8536182079988,,,,,,,,,213.84454712499792,215.03715379200003,215.83233158299845,215.82260754199888,215.8230699169981,215.83233158299845,215.83233158299845,215.83233158299845,218.49006050000023,,,,,,,,,,,,,,,,,,,,,,,,,,,,,,right,0.0,2.654012792001595,,,,,,sub-117,1,random_dot,121.33161446847797,
right,right,25.0,1.0,12.0,left,0.0,4.273863374997745,,accuracy,space,2.6974616660008905,,,,,,0.0,0.0,0.0,0.0,12.0,1.0,25.0,1.0,218.50536937499783,,,,,,,,,218.49071020799963,219.2872432080003,220.08408054199757,220.07351270800064,220.074142999998,220.08408054199757,220.08408054199757,220.08408054199757,224.36423300000024,,,,,,,,,,,,,,,,,,,,,,,,,,,,,,left,0.0,4.273863374997745,,,,,,sub-117,1,random_dot,121.33161446847797,
right,right,26.0,0.0,13.0,right,1.0,2.401509166000324,,accuracy,space,2.6974616660008905,,,,,,0.0,0.0,0.0,0.0,13.0,0.0,26.0,1.0,224.38804850000088,,,,,,,,,224.36459912499777,224.711986667,225.5046235829977,225.4957104579989,225.49617254199984,225.5046235829977,225.5046235829977,225.5046235829977,227.90862387499877,,,,,,,,,,,,,,,,,,,,,,,,,,,,,,right,1.0,2.401509166000324,,,,,,sub-117,1,random_dot,121.33161446847797,
left,left,27.0,1.0,13.0,right,0.0,3.1170804590001358,,accuracy,space,2.6974616660008905,,,,,,0.0,0.0,0.0,0.0,13.0,1.0,27.0,0.0,227.9162710419987,,,,,,,,,227.90898212499812,228.70432445799813,229.49667129199952,229.48782650000064,229.4883327919997,229.49667129199952,229.49667129199952,229.49667129199952,232.62211741699863,,,,,,,,,,,,,,,,,,,,,,,,,,,,,,right,0.0,3.1170804590001358,,,,,,sub-117,1,random_dot,121.33161446847797,
left,left,28.0,0.0,14.0,left,1.0,5.0069668750002165,,accuracy,space,2.6974616660008905,,,,,,0.0,0.0,0.0,0.0,14.0,0.0,28.0,0.0,232.63014091700097,,,,,,,,,232.6224762919992,232.96332862499912,233.7656553749985,233.7562989580001,233.7569059999987,233.7656553749985,233.7656553749985,233.7656553749985,238.77495912499944,,,,,,,,,,,,,,,,,,,,,,,,,,,,,,left,1.0,5.0069668750002165,,238.7462811669975,,,,sub-117,1,random_dot,121.33161446847797,
right,right,29.0,1.0,14.0,right,1.0,3.650220666997484,,accuracy,space,2.6974616660008905,,,,,,0.0,0.0,0.0,0.0,14.0,1.0,29.0,1.0,238.7834050419988,,,,,,,,,238.77542325000104,239.12197345800087,239.914972999999,239.90601145799883,239.9064911249989,239.914972999999,239.914972999999,239.914972999999,243.57160441700037,,,,,,,,,,,,,,,,,,,,,,,,,,,,,,right,1.0,3.650220666997484,,,,,,sub-117,1,random_dot,121.33161446847797,
right,right,30.0,0.0,15.0,right,1.0,4.516482499999256,,accuracy,space,2.6974616660008905,,,,,,0.0,0.0,0.0,0.0,15.0,0.0,30.0,1.0,243.5793999999987,,,,,,,,,243.5719592079986,244.7625220000009,245.55550304200003,245.5463534579976,245.54686779199983,245.55550304200003,245.55550304200003,245.55550304200003,250.07677474999943,,,,,,,,,,,,,,,,,,,,,,,,,,,,,,right,1.0,4.516482499999256,,,,,,sub-117,1,random_dot,121.33161446847797,
left,left,31.0,1.0,15.0,left,1.0,4.297960249998141,,accuracy,space,2.6974616660008905,,,,,,0.0,0.0,0.0,0.0,15.0,1.0,31.0,0.0,250.09014312499855,,,,,,,,,250.07713133300055,250.4220307079995,251.2150577079992,251.20606849999967,251.20655429199903,251.2150577079992,251.2150577079992,251.2150577079992,255.5155956669987,,,,,,,,,,,,,,,,,,,,,,,,,,,,,,left,1.0,4.297960249998141,,,,,,sub-117,1,random_dot,121.33161446847797,
right,right,32.0,0.0,16.0,right,1.0,0.7578030000004219,,accuracy,space,2.6974616660008905,,,,,,0.0,0.0,0.0,0.0,16.0,0.0,32.0,1.0,255.52588970799843,,,,,,,,,255.51596066699855,255.6153662079996,256.41364666699883,256.4049313329997,256.405432167001,256.41364666699883,256.41364666699883,256.41364666699883,257.17593574999773,,,,,,,,,,,,,,,,,,,,,,,,,,,,,,right,1.0,0.7578030000004219,,,,,,sub-117,1,random_dot,121.33161446847797,
left,left,33.0,1.0,16.0,left,1.0,1.5511331659981806,,accuracy,space,2.6974616660008905,,,,,,0.0,0.0,0.0,0.0,16.0,1.0,33.0,0.0,257.1895935419998,,,,,,,,,257.1765009999981,257.52109133299746,258.3153034169991,258.3063622499976,258.30684395799835,258.3153034169991,258.3153034169991,258.3153034169991,259.8765458329981,,,,,,,,,,,,,,,,,,,,,,,,,,,,,,left,1.0,1.5511331659981806,,,,,,sub-117,1,random_dot,121.33161446847797,
right,right,34.0,0.0,17.0,left,0.0,1.6619878330020583,,accuracy,space,2.6974616660008905,,,,,,0.0,0.0,0.0,0.0,17.0,0.0,34.0,1.0,259.89050770799804,,,,,,,,,259.87732675000007,261.07036037500075,261.8645340000003,261.85598995799955,261.85642799999914,261.8645340000003,261.8645340000003,261.8645340000003,263.5305126669992,,,,,,,,,,,,,,,,,,,,,,,,,,,,,,left,0.0,1.6619878330020583,,,,,,sub-117,1,random_dot,121.33161446847797,
left,left,35.0,1.0,17.0,left,1.0,3.256945166998776,,accuracy,space,2.6974616660008905,,,,,,0.0,0.0,0.0,0.0,17.0,1.0,35.0,0.0,263.5434247919984,,,,,,,,,263.53087604199754,263.62698804200045,264.4212577920007,264.41281958299805,264.41330387500057,264.4212577920007,264.4212577920007,264.4212577920007,267.68034199999965,,,,,,,,,,,,,,,,,,,,,,,,,,,,,,left,1.0,3.256945166998776,,,,,,sub-117,1,random_dot,121.33161446847797,
right,right,36.0,0.0,18.0,right,1.0,2.9827474579979025,,accuracy,space,2.6974616660008905,,,,,,0.0,0.0,0.0,0.0,18.0,0.0,36.0,1.0,267.6885873329993,,,,,,,,,267.68070545799856,267.78010399999766,268.5826023749978,268.5729403330006,268.57357537499774,268.5826023749978,268.5826023749978,268.5826023749978,271.5757459999986,,,,,,,,,,,,,,,,,,,,,,,,,,,,,,right,1.0,2.9827474579979025,,,,,,sub-117,1,random_dot,121.33161446847797,
left,left,37.0,1.0,18.0,left,1.0,2.895045875000505,,accuracy,space,2.6974616660008905,,,,,,0.0,0.0,0.0,0.0,18.0,1.0,37.0,0.0,271.583711457999,,,,,,,,,271.5761062499987,271.67328237499896,272.4707040829999,272.46219341699907,272.4626317080001,272.4707040829999,272.4707040829999,272.4707040829999,275.377514374999,,,,,,,,,,,,,,,,,,,,,,,,,,,,,,left,1.0,2.895045875000505,,,,,,sub-117,1,random_dot,121.33161446847797,
right,right,38.0,0.0,19.0,right,1.0,2.4709157079996658,,accuracy,space,2.6974616660008905,,,,,,0.0,0.0,0.0,0.0,19.0,0.0,38.0,1.0,275.3899890419998,,,,,,,,,275.3778806249975,276.18256066699905,276.981068541998,276.9724444169988,276.9728822500001,276.981068541998,276.981068541998,276.981068541998,279.4580919580003,,,,,,,,,,,,,,,,,,,,,,,,,,,,,,right,1.0,2.4709157079996658,,,,,,sub-117,1,random_dot,121.33161446847797,
left,left,39.0,1.0,19.0,left,1.0,4.13980037500005,,accuracy,space,2.6974616660008905,,,,,,0.0,0.0,0.0,0.0,19.0,1.0,39.0,0.0,279.4676527499978,,,,,,,,,279.4585338750003,279.8051438750008,280.59900687499976,280.5897010000008,280.5901901670004,280.59900687499976,280.59900687499976,280.59900687499976,284.74107662499955,,,,,,,,,,,,,,,,,,,,,,,,,,,,,,left,1.0,4.13980037500005,,,,,,sub-117,1,random_dot,121.33161446847797,
left,left,40.0,0.0,20.0,right,0.0,1.2022100840003986,,accuracy,space,2.6974616660008905,,,,,,0.0,0.0,0.0,0.0,20.0,0.0,40.0,0.0,284.75001670799975,,,,,,,,,284.7417889169992,284.8386338749988,285.63778662500044,285.627333542001,285.62789662499927,285.63778662500044,285.63778662500044,285.63778662500044,286.8504760830001,,,,,,,,,,,,,,,,,,,,,,,,,,,,,,right,0.0,1.2022100840003986,,,,,,sub-117,1,random_dot,121.33161446847797,
right,right,41.0,1.0,20.0,left,0.0,2.5691686249992927,,accuracy,space,2.6974616660008905,,,,,,0.0,0.0,0.0,0.0,20.0,1.0,41.0,1.0,286.86915662499814,,,,,,,,,286.85214245799943,288.0462497080007,288.8477365830004,288.8386957500006,288.8391758750004,288.8477365830004,288.8477365830004,288.8477365830004,291.4266193330004,,,,,,,,,,,,,,,,,,,,,,,,,,,,,,left,0.0,2.5691686249992927,,,,,,sub-117,1,random_dot,121.33161446847797,
right,right,42.0,0.0,21.0,right,1.0,1.8363917499991655,,accuracy,space,2.6974616660008905,,,,,,0.0,0.0,0.0,0.0,21.0,0.0,42.0,1.0,291.44006395799806,,,,,,,,,291.42700524999964,291.52189524999994,292.3150139999998,292.30589662499915,292.3064437920002,292.3150139999998,292.3150139999998,292.3150139999998,294.15623525000046,,,,,,,,,,,,,,,,,,,,,,,,,,,,,,right,1.0,1.8363917499991655,,,,,,sub-117,1,random_dot,121.33161446847797,
left,left,43.0,1.0,21.0,right,0.0,3.933897499999148,,accuracy,space,2.6974616660008905,,,,,,0.0,0.0,0.0,0.0,21.0,1.0,43.0,0.0,294.1618618329994,,,,,,,,,294.156594125001,295.3552998749983,296.1542974999975,296.14395199999854,296.1444152080003,296.1542974999975,296.1542974999975,296.1542974999975,300.08987262499795,,,,,,,,,,,,,,,,,,,,,,,,,,,,,,right,0.0,3.933897499999148,,,,,,sub-117,1,random_dot,121.33161446847797,
right,right,44.0,0.0,22.0,right,1.0,1.4699384580017067,,accuracy,space,2.6974616660008905,,,,,,0.0,0.0,0.0,0.0,22.0,0.0,44.0,1.0,300.0956325419975,,,,,,,,,300.09028399999806,300.88823570800014,301.6875639169993,301.67758041699926,301.6780345419975,301.6875639169993,301.6875639169993,301.6875639169993,303.165726332998,,,,,,,,,,,,,,,,,,,,,,,,,,,,,,right,1.0,1.4699384580017067,,,,,,sub-117,1,random_dot,121.33161446847797,
left,left,45.0,1.0,22.0,left,1.0,3.368863457999396,,accuracy,space,2.6974616660008905,,,,,,0.0,0.0,0.0,0.0,22.0,1.0,45.0,0.0,303.1763422080003,,,,,,,,,303.16615233300035,303.2596822499981,304.05554333300097,304.04587495799933,304.0462442499993,304.05554333300097,304.05554333300097,304.05554333300097,307.4292242499978,,,,,,,,,,,,,,,,,,,,,,,,,,,,,,left,1.0,3.368863457999396,,,,,,sub-117,1,random_dot,121.33161446847797,
left,left,46.0,0.0,23.0,right,0.0,4.210367583000334,,accuracy,space,2.6974616660008905,,,,,,0.0,0.0,0.0,0.0,23.0,0.0,46.0,0.0,307.4425763750005,,,,,,,,,307.4296861670009,308.62045195799874,309.41711991699776,309.40829412499806,309.4087346669985,309.41711991699776,309.41711991699776,309.41711991699776,313.6307454579983,,,,,,,,,,,,,,,,,,,,,,,,,,,,,,right,0.0,4.210367583000334,,,,,,sub-117,1,random_dot,121.33161446847797,
right,right,47.0,1.0,23.0,left,0.0,3.275732291000168,,accuracy,space,2.6974616660008905,,,,,,0.0,0.0,0.0,0.0,23.0,1.0,47.0,1.0,313.65474254199944,,,,,,,,,313.6311067919996,313.97970429199995,314.7821697500003,314.772672916999,314.7731731249987,314.7821697500003,314.7821697500003,314.7821697500003,318.06054816699907,,,,,,,,,,,,,,,,,,,,,,,,,,,,,,left,0.0,3.275732291000168,,,,,,sub-117,1,random_dot,121.33161446847797,
right,right,48.0,0.0,24.0,right,1.0,4.393383208000159,,accuracy,space,2.6974616660008905,,,,,,0.0,0.0,0.0,0.0,24.0,0.0,48.0,1.0,318.07557716700103,,,,,,,,,318.0611894579997,318.8544057500003,319.6484187499991,319.639244916998,319.6397297500007,319.6484187499991,319.6484187499991,319.6484187499991,324.04429833299946,,,,,,,,,,,,,,,,,,,,,,,,,,,,,,right,1.0,4.393383208000159,,,,,,sub-117,1,random_dot,121.33161446847797,
left,left,49.0,1.0,24.0,right,0.0,2.661572791999788,,accuracy,space,2.6974616660008905,,,,,,0.0,0.0,0.0,0.0,24.0,1.0,49.0,0.0,324.05681204199936,,,,,,,,,324.04483295799946,324.38855174999844,325.1816547499984,325.1725671669992,325.17307204199824,325.1816547499984,325.1816547499984,325.1816547499984,327.8461365830008,,,,,,,,,,,,,,,,,,,,,,,,,,,,,,right,0.0,2.661572791999788,,,,,,sub-117,1,random_dot,121.33161446847797,
right,right,50.0,0.0,25.0,left,0.0,3.658950624998397,,accuracy,space,2.6974616660008905,,,,,,0.0,0.0,0.0,0.0,25.0,0.0,50.0,1.0,327.86060050000015,,,,,,,,,327.8465090419995,328.19576866699936,328.987019917,328.9792779579984,328.9796482499987,328.987019917,328.987019917,328.987019917,332.6570142919991,,,,,,,,,,,,,,,,,,,,,,,,,,,,,,left,0.0,3.658950624998397,,,,,,sub-117,1,random_dot,121.33161446847797,
left,left,51.0,1.0,25.0,left,1.0,3.5095530840008,,accuracy,space,2.6974616660008905,,,,,,0.0,0.0,0.0,0.0,25.0,1.0,51.0,0.0,332.66646441699777,,,,,,,,,332.65766874999827,333.453671583,334.2478720420004,334.23918458299886,334.2396504169992,334.2478720420004,334.2478720420004,334.2478720420004,337.7616117920006,,,,,,,,,,,,,,,,,,,,,,,,,,,,,,left,1.0,3.5095530840008,,,,,,sub-117,1,random_dot,121.33161446847797,
left,left,52.0,0.0,26.0,left,1.0,4.9593151660010335,,accuracy,space,2.6974616660008905,,,,,,0.0,0.0,0.0,0.0,26.0,0.0,52.0,0.0,337.7742508329975,,,,,,,,,337.7624073749976,338.95993966699825,339.7551260830005,339.7460386249986,339.7465018330004,339.7551260830005,339.7551260830005,339.7551260830005,344.71767787499994,,,,,,,,,,,,,,,,,,,,,,,,,,,,,,left,1.0,4.9593151660010335,,,,,,sub-117,1,random_dot,121.33161446847797,
right,right,53.0,1.0,26.0,right,1.0,5.491184124999563,,accuracy,space,2.6974616660008905,,,,,,0.0,0.0,0.0,0.0,26.0,1.0,53.0,1.0,344.72588195799835,,,,,,,,,344.71829933299887,345.5133265000004,346.31467354199776,346.3059952500007,346.30645512499905,346.31467354199776,346.31467354199776,346.31467354199776,351.8111718750006,,,,,,,,,,,,,,,,,,,,,,,,,,,,,,right,1.0,5.491184124999563,,351.2958531250006,,,,sub-117,1,random_dot,121.33161446847797,
left,left,54.0,0.0,27.0,left,1.0,2.26053366600172,,accuracy,space,2.6974616660008905,,,,,,0.0,0.0,0.0,0.0,27.0,0.0,54.0,0.0,351.8260680419989,,,,,,,,,351.8116567500001,352.1550083330003,352.9484291669978,352.9392802919974,352.93974374999743,352.9484291669978,352.9484291669978,352.9484291669978,355.21160645800046,,,,,,,,,,,,,,,,,,,,,,,,,,,,,,left,1.0,2.26053366600172,,,,,,sub-117,1,random_dot,121.33161446847797,
right,right,55.0,1.0,27.0,left,0.0,2.791942708001443,,accuracy,space,2.6974616660008905,,,,,,0.0,0.0,0.0,0.0,27.0,1.0,55.0,1.0,355.2245078749984,,,,,,,,,355.21198616699985,356.4041271669994,357.1988459999993,357.18942787500055,357.1898960420003,357.1988459999993,357.1988459999993,357.1988459999993,360.00639733299977,,,,,,,,,,,,,,,,,,,,,,,,,,,,,,left,0.0,2.791942708001443,,,,,,sub-117,1,random_dot,121.33161446847797,
left,left,56.0,0.0,28.0,left,1.0,2.4309349590002967,,accuracy,space,2.6974616660008905,,,,,,0.0,0.0,0.0,0.0,28.0,0.0,56.0,0.0,360.0131963749991,,,,,,,,,360.0069615829998,360.80437249999886,361.6006249169986,361.59120891699786,361.5917143749976,361.6006249169986,361.6006249169986,361.6006249169986,364.03410962499765,,,,,,,,,,,,,,,,,,,,,,,,,,,,,,left,1.0,2.4309349590002967,,,,,,sub-117,1,random_dot,121.33161446847797,
right,right,57.0,1.0,28.0,right,1.0,1.536780083002668,,accuracy,space,2.6974616660008905,,,,,,0.0,0.0,0.0,0.0,28.0,1.0,57.0,1.0,364.04325733299993,,,,,,,,,364.0347365419984,364.8292122919993,365.6310127079996,365.6221354169975,365.6226489580004,365.6310127079996,365.6310127079996,365.6310127079996,367.18166929200015,,,,,,,,,,,,,,,,,,,,,,,,,,,,,,right,1.0,1.536780083002668,,,,,,sub-117,1,random_dot,121.33161446847797,
left,left,58.0,0.0,29.0,left,1.0,3.5678157920010563,,accuracy,space,2.6974616660008905,,,,,,0.0,0.0,0.0,0.0,29.0,0.0,58.0,0.0,367.1981647499997,,,,,,,,,367.1820243750008,367.9793057919997,368.7827902499994,368.7733682500002,368.7739770829976,368.7827902499994,368.7827902499994,368.7827902499994,372.3562033329981,,,,,,,,,,,,,,,,,,,,,,,,,,,,,,left,1.0,3.5678157920010563,,,,,,sub-117,1,random_dot,121.33161446847797,
right,right,59.0,1.0,29.0,left,0.0,3.4375719999989087,,accuracy,space,2.6974616660008905,,,,,,0.0,0.0,0.0,0.0,29.0,1.0,59.0,1.0,372.366792124998,,,,,,,,,372.3568122079996,372.45510187499895,373.2473031669979,373.239077541999,373.2394615829981,373.2473031669979,373.2473031669979,373.2473031669979,376.6919847919999,,,,,,,,,,,,,,,,,,,,,,,,,,,,,,left,0.0,3.4375719999989087,,,,,,sub-117,1,random_dot,121.33161446847797,
,,0.0,0.0,0.0,,,,,accuracy,space,2.6974616660008905,,,,,,0.0,0.0,0.0,0.0,,,,,,,,,,,,,,,,,,,,,,,,,,,,,,,,,,,,,,,,,,,,,,,,,,,,,,,,,,,,sub-117,1,random_dot,121.33161446847797,
left,left,0.0,0.0,0.0,left,1.0,1.3029256250010803,,speed,space,796.7479387089988,,,,,,0.0,1.0,1.0,1.0,0.0,0.0,0.0,0.0,1173.491278499998,,,,,,,,,1173.4817770829975,1174.6696762499996,1175.4632187079987,1175.4544661250002,1175.4549279999992,1175.4632187079987,1175.4632187079987,1175.4632187079987,1176.7734516669989,,,,,,,,,,,,,,,,,,,,,,,376.7074391249989,376.7156670000004,376.7156670000004,1173.4732693749977,space,796.7479387089988,,left,1.0,1.3029256250010803,,,,,,sub-117,1,random_dot,121.33161446847797,
right,right,1.0,1.0,0.0,right,1.0,0.9724501250020694,,speed,space,796.7479387089988,,,,,,0.0,1.0,1.0,1.0,0.0,1.0,1.0,1.0,1176.784123292,,,,,,,,,1176.7739314579994,1176.8714276669998,1177.6648348329982,1177.654725583001,1177.6553150830005,1177.6648348329982,1177.6648348329982,1177.6648348329982,1178.6406926669988,,,,,,,,,,,,,,,,,,,,,,,,,,,,,,right,1.0,0.9724501250020694,,,,,,sub-117,1,random_dot,121.33161446847797,
left,left,2.0,0.0,1.0,right,0.0,0.8480786660002195,,speed,space,796.7479387089988,,,,,,0.0,1.0,1.0,1.0,1.0,0.0,2.0,0.0,1178.6520130419997,,,,,,,,,1178.641363499999,1179.8373283330002,1180.6326741249975,1180.6236530419992,1180.6241394169992,1180.6326741249975,1180.6326741249975,1180.6326741249975,1181.4914312500005,,,,,,,,,,,,,,,,,,,,,,,,,,,,,,right,0.0,0.8480786660002195,,,,,,sub-117,1,random_dot,121.33161446847797,
right,right,3.0,1.0,1.0,left,0.0,0.8962140000003274,,speed,space,796.7479387089988,,,,,,0.0,1.0,1.0,1.0,1.0,1.0,3.0,1.0,1181.504122792001,,,,,,,,,1181.492400332998,1181.8402751249996,1182.640983082998,1182.6278189580007,1182.628319542,1182.640983082998,1182.640983082998,1182.640983082998,1183.5427037499976,,,,,,,,,,,,,,,,,,,,,,,,,,,,,,left,0.0,0.8962140000003274,,,,,,sub-117,1,random_dot,121.33161446847797,
left,left,4.0,0.0,2.0,left,1.0,0.9795225839989145,,speed,space,796.7479387089988,,,,,,0.0,1.0,1.0,1.0,2.0,0.0,4.0,0.0,1183.5566464170006,,,,,,,,,1183.5431237919984,1184.339474458,1185.1380484580004,1185.128581582998,1185.129073917,1185.1380484580004,1185.1380484580004,1185.1380484580004,1186.1232734580008,,,,,,,,,,,,,,,,,,,,,,,,,,,,,,left,1.0,0.9795225839989145,,,,,,sub-117,1,random_dot,121.33161446847797,
right,right,5.0,1.0,2.0,left,0.0,1.3099937090009917,,speed,space,796.7479387089988,,,,,,0.0,1.0,1.0,1.0,2.0,1.0,5.0,1.0,1186.1320842919995,,,,,,,,,1186.1238192079982,1186.221266749999,1187.0161736249977,1187.007674542001,1187.0081108749982,1187.0161736249977,1187.0161736249977,1187.0161736249977,1188.330384375,,,,,,,,,,,,,,,,,,,,,,,,,,,,,,left,0.0,1.3099937090009917,,,,,,sub-117,1,random_dot,121.33161446847797,
left,left,6.0,0.0,3.0,right,0.0,1.0087061249978433,,speed,space,796.7479387089988,,,,,,0.0,1.0,1.0,1.0,3.0,0.0,6.0,0.0,1188.3539734170008,,,,,,,,,1188.3307448749983,1188.4278813749988,1189.219544749998,1189.2110614169978,1189.2114317919986,1189.219544749998,1189.219544749998,1189.219544749998,1190.242931000001,,,,,,,,,,,,,,,,,,,,,,,,,,,,,,right,0.0,1.0087061249978433,,,,,,sub-117,1,random_dot,121.33161446847797,
right,right,7.0,1.0,3.0,left,0.0,0.9764686669986986,,speed,space,796.7479387089988,,,,,,0.0,1.0,1.0,1.0,3.0,1.0,7.0,1.0,1190.254798124999,,,,,,,,,1190.2434373750002,1191.4367918749997,1192.2311393329985,1192.221757457999,1192.222243166998,1192.2311393329985,1192.2311393329985,1192.2311393329985,1193.2108761669988,,,,,,,,,,,,,,,,,,,,,,,,,,,,,,left,0.0,0.9764686669986986,,,,,,sub-117,1,random_dot,121.33161446847797,
left,left,8.0,0.0,4.0,left,1.0,1.937419249999948,,speed,space,796.7479387089988,,,,,,0.0,1.0,1.0,1.0,4.0,0.0,8.0,0.0,1193.2255536669982,,,,,,,,,1193.2113182499995,1194.004093083,1194.7976501669982,1194.7884501669978,1194.7889393330006,1194.7976501669982,1194.7976501669982,1194.7976501669982,1196.743338207998,,,,,,,,,,,,,,,,,,,,,,,,,,,,,,left,1.0,1.937419249999948,,,,,,sub-117,1,random_dot,121.33161446847797,
right,right,9.0,1.0,4.0,right,1.0,1.8724352499993984,,speed,space,796.7479387089988,,,,,,0.0,1.0,1.0,1.0,4.0,1.0,9.0,1.0,1196.7551501669986,,,,,,,,,1196.7437055419978,1197.537665374999,1198.3310797919985,1198.3218322499995,1198.322291458,1198.3310797919985,1198.3310797919985,1198.3310797919985,1200.208983042001,,,,,,,,,,,,,,,,,,,,,,,,,,,,,,right,1.0,1.8724352499993984,,,,,,sub-117,1,random_dot,121.33161446847797,
right,right,10.0,0.0,5.0,right,1.0,1.1739499579998665,,speed,space,796.7479387089988,,,,,,0.0,1.0,1.0,1.0,5.0,0.0,10.0,1.0,1200.2167584169983,,,,,,,,,1200.2093339579988,1201.4035920829992,1202.1980304579993,1202.188995083001,1202.1894926669993,1202.1980304579993,1202.1980304579993,1202.1980304579993,1203.3798675830003,,,,,,,,,,,,,,,,,,,,,,,,,,,,,,right,1.0,1.1739499579998665,,,,,,sub-117,1,random_dot,121.33161446847797,
left,left,11.0,1.0,5.0,right,0.0,1.5210707500009448,,speed,space,796.7479387089988,,,,,,0.0,1.0,1.0,1.0,5.0,1.0,11.0,0.0,1203.404013332998,,,,,,,,,1203.3802459580002,1204.5892092079994,1205.4048628749988,1205.3792783749996,1205.3797747079989,1205.4048628749988,1205.4048628749988,1205.4048628749988,1206.9407456669978,,,,,,,,,,,,,,,,,,,,,,,,,,,,,,right,0.0,1.5210707500009448,,,,,,sub-117,1,random_dot,121.33161446847797,
right,right,12.0,0.0,6.0,left,0.0,0.9603864580021764,,speed,space,796.7479387089988,,,,,,0.0,1.0,1.0,1.0,6.0,0.0,12.0,1.0,1206.953087957998,,,,,,,,,1206.941689416999,1208.1383823750002,1208.936966833,1208.928260124998,1208.9287089169993,1208.936966833,1208.936966833,1208.936966833,1209.9152785829974,,,,,,,,,,,,,,,,,,,,,,,,,,,,,,left,0.0,0.9603864580021764,,,,,,sub-117,1,random_dot,121.33161446847797,
left,left,13.0,1.0,6.0,left,1.0,3.3919802500022342,,speed,space,796.7479387089988,,,,,,0.0,1.0,1.0,1.0,6.0,1.0,13.0,0.0,1209.9279914170002,,,,,,,,,1209.9157792919978,1210.021743292,1210.814398874998,1210.805352083,1210.805855374998,1210.814398874998,1210.814398874998,1210.814398874998,1214.211283124998,,,,,,,,,,,,,,,,,,,,,,,,,,,,,,left,1.0,3.3919802500022342,,,,,,sub-117,1,random_dot,121.33161446847797,
right,right,14.0,0.0,7.0,left,0.0,1.3539597089984454,,speed,space,796.7479387089988,,,,,,0.0,1.0,1.0,1.0,7.0,0.0,14.0,1.0,1214.221056041999,,,,,,,,,1214.2116499170006,1214.3028197919994,1215.0976697919978,1215.088749374998,1215.089223957999,1215.0976697919978,1215.0976697919978,1215.0976697919978,1216.4618677079998,,,,,,,,,,,,,,,,,,,,,,,,,,,,,,left,0.0,1.3539597089984454,,,,,,sub-117,1,random_dot,121.33161446847797,
left,left,15.0,1.0,7.0,right,0.0,2.400568375000148,,speed,space,796.7479387089988,,,,,,0.0,1.0,1.0,1.0,7.0,1.0,15.0,0.0,1216.477189833,,,,,,,,,1216.462329916998,1217.6617574579975,1218.4541437499977,1218.4451060419997,1218.445585041998,1218.4541437499977,1218.4541437499977,1218.4541437499977,1220.8569164170003,,,,,,,,,,,,,,,,,,,,,,,,,,,,,,right,0.0,2.400568375000148,,,,,,sub-117,1,random_dot,121.33161446847797,
left,left,16.0,0.0,8.0,left,1.0,0.6993946670008881,,speed,space,796.7479387089988,,,,,,0.0,1.0,1.0,1.0,8.0,0.0,16.0,0.0,1220.8647775829995,,,,,,,,,1220.857275792001,1222.054447167,1222.8478749999997,1222.8385640419983,1222.839093374998,1222.8478749999997,1222.8478749999997,1222.8478749999997,1223.562864167001,,,,,,,,,,,,,,,,,,,,,,,,,,,,,,left,1.0,0.6993946670008881,,,,,,sub-117,1,random_dot,121.33161446847797,
right,right,17.0,1.0,8.0,right,1.0,1.6113814579985046,,speed,space,796.7479387089988,,,,,,0.0,1.0,1.0,1.0,8.0,1.0,17.0,1.0,1223.577126917,,,,,,,,,1223.5633199580006,1224.761695582998,1225.564143042,1225.5552512920003,1225.5557260419992,1225.564143042,1225.564143042,1225.564143042,1227.1798804579994,,,,,,,,,,,,,,,,,,,,,,,,,,,,,,right,1.0,1.6113814579985046,,,,,,sub-117,1,random_dot,121.33161446847797,
right,right,18.0,0.0,9.0,right,1.0,1.2928984579993994,,speed,space,796.7479387089988,,,,,,0.0,1.0,1.0,1.0,9.0,0.0,18.0,1.0,1227.192200333,,,,,,,,,1227.1804762499996,1228.3739520419986,1229.1708865830003,1229.1618678329978,1229.162354,1229.1708865830003,1229.1708865830003,1229.1708865830003,1230.4763221249996,,,,,,,,,,,,,,,,,,,,,,,,,,,,,,right,1.0,1.2928984579993994,,,,,,sub-117,1,random_dot,121.33161446847797,
left,left,19.0,1.0,9.0,left,1.0,1.3708658750001632,,speed,space,796.7479387089988,,,,,,0.0,1.0,1.0,1.0,9.0,1.0,19.0,0.0,1230.4890054999996,,,,,,,,,1230.4766779169986,1231.6696002079989,1232.4628842919992,1232.4539279579983,1232.4544611249985,1232.4628842919992,1232.4628842919992,1232.4628842919992,1233.8417724579997,,,,,,,,,,,,,,,,,,,,,,,,,,,,,,left,1.0,1.3708658750001632,,,,,,sub-117,1,random_dot,121.33161446847797,
left,left,20.0,0.0,10.0,left,1.0,2.626482915999077,,speed,space,796.7479387089988,,,,,,0.0,1.0,1.0,1.0,10.0,0.0,20.0,0.0,1233.8495429579998,,,,,,,,,1233.8421620419977,1233.9394876669976,1234.7378678749992,1234.7289906669976,1234.7294932080003,1234.7378678749992,1234.7378678749992,1234.7378678749992,1237.3730887919992,,,,,,,,,,,,,,,,,,,,,,,,,,,,,,left,1.0,2.626482915999077,,,,,,sub-117,1,random_dot,121.33161446847797,
right,right,21.0,1.0,10.0,right,1.0,1.978283458000078,,speed,space,796.7479387089988,,,,,,0.0,1.0,1.0,1.0,10.0,1.0,21.0,1.0,1237.3878335829977,,,,,,,,,1237.3736668329984,1237.721373583001,1238.5201528750003,1238.5103862920005,1238.510854166998,1238.5201528750003,1238.5201528750003,1238.5201528750003,1240.5081785830007,,,,,,,,,,,,,,,,,,,,,,,,,,,,,,right,1.0,1.978283458000078,,,,,,sub-117,1,random_dot,121.33161446847797,
right,right,22.0,0.0,11.0,right,1.0,0.977233207999234,,speed,space,796.7479387089988,,,,,,0.0,1.0,1.0,1.0,11.0,0.0,22.0,1.0,1240.5210926670006,,,,,,,,,1240.5089339999977,1240.607290625001,1241.404928707998,1241.3953293749985,1241.3958317079996,1241.404928707998,1241.404928707998,1241.404928707998,1242.3892385830004,,,,,,,,,,,,,,,,,,,,,,,,,,,,,,right,1.0,0.977233207999234,,,,,,sub-117,1,random_dot,121.33161446847797,
left,left,23.0,1.0,11.0,right,0.0,1.49909370900059,,speed,space,796.7479387089988,,,,,,0.0,1.0,1.0,1.0,11.0,1.0,23.0,0.0,1242.401582750001,,,,,,,,,1242.390030999999,1243.58769475,1244.3831864999993,1244.3750141249984,1244.3754483329976,1244.3831864999993,1244.3831864999993,1244.3831864999993,1245.888168458001,,,,,,,,,,,,,,,,,,,,,,,,,,,,,,right,0.0,1.49909370900059,,,,,,sub-117,1,random_dot,121.33161446847797,
left,left,24.0,0.0,12.0,right,0.0,3.7218523339979583,,speed,space,796.7479387089988,,,,,,0.0,1.0,1.0,1.0,12.0,0.0,24.0,0.0,1245.896313833,,,,,,,,,1245.8885646669987,1246.2275506669976,1247.0198129169985,1247.0117732500005,1247.0121920419988,1247.0198129169985,1247.0198129169985,1247.0198129169985,1250.7441367079991,,,,,,,,,,,,,,,,,,,,,,,,,,,,,,right,0.0,3.7218523339979583,,,,,,sub-117,1,random_dot,121.33161446847797,
right,right,25.0,1.0,12.0,left,0.0,2.624332041999878,,speed,space,796.7479387089988,,,,,,0.0,1.0,1.0,1.0,12.0,1.0,25.0,1.0,1250.7577637079994,,,,,,,,,1250.7446983749978,1251.5377415830008,1252.3310847920002,1252.3218944170003,1252.3223732080005,1252.3310847920002,1252.3310847920002,1252.3310847920002,1254.964230499998,,,,,,,,,,,,,,,,,,,,,,,,,,,,,,left,0.0,2.624332041999878,,,,,,sub-117,1,random_dot,121.33161446847797,
left,left,26.0,0.0,13.0,right,0.0,1.9436968750014785,,speed,space,796.7479387089988,,,,,,0.0,1.0,1.0,1.0,13.0,0.0,26.0,0.0,1254.9728465419976,,,,,,,,,1254.9646038749995,1255.0612653749995,1255.853137957998,1255.8444059579997,1255.84488375,1255.853137957998,1255.853137957998,1255.853137957998,1257.810967041998,,,,,,,,,,,,,,,,,,,,,,,,,,,,,,right,0.0,1.9436968750014785,,,,,,sub-117,1,random_dot,121.33161446847797,
right,right,27.0,1.0,13.0,left,0.0,2.0519002499968337,,speed,space,796.7479387089988,,,,,,0.0,1.0,1.0,1.0,13.0,1.0,27.0,1.0,1257.8248905830003,,,,,,,,,1257.8114836249988,1258.1535016249982,1258.9473213749989,1258.9385043750008,1258.9389751249985,1258.9473213749989,1258.9473213749989,1258.9473213749989,1261.0229493330007,,,,,,,,,,,,,,,,,,,,,,,,,,,,,,left,0.0,2.0519002499968337,,,,,,sub-117,1,random_dot,121.33161446847797,
left,left,28.0,0.0,14.0,right,0.0,1.8662131250021048,,speed,space,796.7479387089988,,,,,,0.0,1.0,1.0,1.0,14.0,0.0,28.0,0.0,1261.0379267919998,,,,,,,,,1261.023485499998,1261.8196700000008,1262.6262620419984,1262.6116712080002,1262.613188416999,1262.6262620419984,1262.6262620419984,1262.6262620419984,1264.5103160420003,,,,,,,,,,,,,,,,,,,,,,,,,,,,,,right,0.0,1.8662131250021048,,,,,,sub-117,1,random_dot,121.33161446847797,
right,right,29.0,1.0,14.0,right,1.0,2.7940846249985043,,speed,space,796.7479387089988,,,,,,0.0,1.0,1.0,1.0,14.0,1.0,29.0,1.0,1264.5303276669983,,,,,,,,,1264.511837041999,1265.703718875,1266.4977452499988,1266.4885368329997,1266.4889907079996,1266.4977452499988,1266.4977452499988,1266.4977452499988,1269.2957310419988,,,,,,,,,,,,,,,,,,,,,,,,,,,,,,right,1.0,2.7940846249985043,,,,,,sub-117,1,random_dot,121.33161446847797,
left,left,30.0,0.0,15.0,left,1.0,2.9851779169985093,,speed,space,796.7479387089988,,,,,,0.0,1.0,1.0,1.0,15.0,0.0,30.0,0.0,1269.303877708,,,,,,,,,1269.29609575,1269.3945025829998,1270.1879742919991,1270.179158832998,1270.1796280419985,1270.1879742919991,1270.1879742919991,1270.1879742919991,1273.1899394579996,,,,,,,,,,,,,,,,,,,,,,,,,,,,,,left,1.0,2.9851779169985093,,,,,,sub-117,1,random_dot,121.33161446847797,
right,right,31.0,1.0,15.0,left,0.0,2.923993625001458,,speed,space,796.7479387089988,,,,,,0.0,1.0,1.0,1.0,15.0,1.0,31.0,1.0,1273.1998741669995,,,,,,,,,1273.1906524170008,1273.5363187500006,1274.3313419170008,1274.3219984579991,1274.3224882079994,1274.3313419170008,1274.3313419170008,1274.3313419170008,1277.2731937079989,,,,,,,,,,,,,,,,,,,,,,,,,,,,,,left,0.0,2.923993625001458,,,,,,sub-117,1,random_dot,121.33161446847797,
left,left,32.0,0.0,16.0,right,0.0,1.4988837919991056,,speed,space,796.7479387089988,,,,,,0.0,1.0,1.0,1.0,16.0,0.0,32.0,0.0,1277.287899791998,,,,,,,,,1277.2738367499987,1278.0711205419975,1278.8637842079988,1278.8550962080008,1278.855569291998,1278.8637842079988,1278.8637842079988,1278.8637842079988,1280.3729581250009,,,,,,,,,,,,,,,,,,,,,,,,,,,,,,right,0.0,1.4988837919991056,,,,,,sub-117,1,random_dot,121.33161446847797,
right,right,33.0,1.0,16.0,left,0.0,2.1036074580006243,,speed,space,796.7479387089988,,,,,,0.0,1.0,1.0,1.0,16.0,1.0,33.0,1.0,1280.3815174999982,,,,,,,,,1280.3734895419984,1280.471094083001,1281.288446999999,1281.2736230829978,1281.2745205829997,1281.288446999999,1281.288446999999,1281.288446999999,1283.3940615829997,,,,,,,,,,,,,,,,,,,,,,,,,,,,,,left,0.0,2.1036074580006243,,,,,,sub-117,1,random_dot,121.33161446847797,
left,left,34.0,0.0,17.0,right,0.0,1.1854460419999668,,speed,space,796.7479387089988,,,,,,0.0,1.0,1.0,1.0,17.0,0.0,34.0,0.0,1283.4042079579997,,,,,,,,,1283.3944353330007,1283.73685175,1284.5312646249986,1284.521919750001,1284.5224182919992,1284.5312646249986,1284.5312646249986,1284.5312646249986,1285.7341672500006,,,,,,,,,,,,,,,,,,,,,,,,,,,,,,right,0.0,1.1854460419999668,,,,,,sub-117,1,random_dot,121.33161446847797,
right,right,35.0,1.0,17.0,left,0.0,2.7834240839983977,,speed,space,796.7479387089988,,,,,,0.0,1.0,1.0,1.0,17.0,1.0,35.0,1.0,1285.7476956669998,,,,,,,,,1285.7346846670007,1286.0783909579986,1286.8702160829998,1286.8618164580002,1286.8622920829985,1286.8702160829998,1286.8702160829998,1286.8702160829998,1289.667124167001,,,,,,,,,,,,,,,,,,,,,,,,,,,,,,left,0.0,2.7834240839983977,,,,,,sub-117,1,random_dot,121.33161446847797,
right,right,36.0,0.0,18.0,right,1.0,0.8433575419985573,,speed,space,796.7479387089988,,,,,,0.0,1.0,1.0,1.0,18.0,0.0,36.0,1.0,1289.6812104579983,,,,,,,,,1289.6675032079984,1290.0144323749992,1290.813761166999,1290.805019957999,1290.8054745419977,1290.813761166999,1290.813761166999,1290.813761166999,1291.6598284579995,,,,,,,,,,,,,,,,,,,,,,,,,,,,,,right,1.0,0.8433575419985573,,,,,,sub-117,1,random_dot,121.33161446847797,
left,left,37.0,1.0,18.0,right,0.0,1.78634829099974,,speed,space,796.7479387089988,,,,,,0.0,1.0,1.0,1.0,18.0,1.0,37.0,0.0,1291.6731084169987,,,,,,,,,1291.6602409999978,1291.756347333001,1292.5530857919985,1292.5446190420007,1292.5450025829996,1292.5530857919985,1292.5530857919985,1292.5530857919985,1294.342135750001,,,,,,,,,,,,,,,,,,,,,,,,,,,,,,right,0.0,1.78634829099974,,,,,,sub-117,1,random_dot,121.33161446847797,
left,left,38.0,0.0,19.0,right,0.0,2.7413361669969163,,speed,space,796.7479387089988,,,,,,0.0,1.0,1.0,1.0,19.0,0.0,38.0,0.0,1294.355810541998,,,,,,,,,1294.3426809579978,1294.688095417001,1295.4815673329977,1295.4727375000002,1295.4733157080009,1295.4815673329977,1295.4815673329977,1295.4815673329977,1298.231635707998,,,,,,,,,,,,,,,,,,,,,,,,,,,,,,right,0.0,2.7413361669969163,,,,,,sub-117,1,random_dot,121.33161446847797,
right,right,39.0,1.0,19.0,left,0.0,2.1098820000006526,,speed,space,796.7479387089988,,,,,,0.0,1.0,1.0,1.0,19.0,1.0,39.0,1.0,1298.2421103749984,,,,,,,,,1298.2321654999978,1298.5778834579978,1299.3817170830007,1299.3635332079975,1299.3643240829988,1299.3817170830007,1299.3817170830007,1299.3817170830007,1301.5068421670005,,,,,,,,,,,,,,,,,,,,,,,,,,,,,,left,0.0,2.1098820000006526,,,,,,sub-117,1,random_dot,121.33161446847797,
left,left,40.0,0.0,20.0,right,0.0,1.1025535840017255,,speed,space,796.7479387089988,,,,,,0.0,1.0,1.0,1.0,20.0,0.0,40.0,0.0,1301.5179439169988,,,,,,,,,1301.5076018750003,1301.8545356249997,1302.6567532499976,1302.6416032499983,1302.6421185830004,1302.6567532499976,1302.6567532499976,1302.6567532499976,1303.7654845830002,,,,,,,,,,,,,,,,,,,,,,,,,,,,,,right,0.0,1.1025535840017255,,,,,,sub-117,1,random_dot,121.33161446847797,
right,right,41.0,1.0,20.0,right,1.0,3.058299917000113,,speed,space,796.7479387089988,,,,,,0.0,1.0,1.0,1.0,20.0,1.0,41.0,1.0,1303.775330624998,,,,,,,,,1303.765844666999,1304.1241126249988,1304.921148333,1304.9123049169975,1304.9127945420005,1304.921148333,1304.921148333,1304.921148333,1307.992666667,,,,,,,,,,,,,,,,,,,,,,,,,,,,,,right,1.0,3.058299917000113,,,,,,sub-117,1,random_dot,121.33161446847797,
left,left,42.0,0.0,21.0,left,1.0,1.5309456659997522,,speed,space,796.7479387089988,,,,,,0.0,1.0,1.0,1.0,21.0,0.0,42.0,0.0,1308.0073174579993,,,,,,,,,1307.9931158750005,1309.1863100419978,1309.9815301669987,1309.972404791999,1309.972891333,1309.9815301669987,1309.9815301669987,1309.9815301669987,1311.515408291998,,,,,,,,,,,,,,,,,,,,,,,,,,,,,,left,1.0,1.5309456659997522,,,,,,sub-117,1,random_dot,121.33161446847797,
right,right,43.0,1.0,21.0,left,0.0,1.5464835000020685,,speed,space,796.7479387089988,,,,,,0.0,1.0,1.0,1.0,21.0,1.0,43.0,1.0,1311.5279015829983,,,,,,,,,1311.5159437500006,1312.311789542,1313.104310625,1313.0953263329975,1313.095835125001,1313.104310625,1313.104310625,1313.104310625,1314.660441707998,,,,,,,,,,,,,,,,,,,,,,,,,,,,,,left,0.0,1.5464835000020685,,,,,,sub-117,1,random_dot,121.33161446847797,
right,right,44.0,0.0,22.0,left,0.0,1.0689774579986988,,speed,space,796.7479387089988,,,,,,0.0,1.0,1.0,1.0,22.0,0.0,44.0,1.0,1314.6742604579997,,,,,,,,,1314.6609309999983,1315.8541385419994,1316.6490851669987,1316.640823166999,1316.6411967919994,1316.6490851669987,1316.6490851669987,1316.6490851669987,1317.742752667,,,,,,,,,,,,,,,,,,,,,,,,,,,,,,left,0.0,1.0689774579986988,,,,,,sub-117,1,random_dot,121.33161446847797,
left,left,45.0,1.0,22.0,left,1.0,1.2748571659976733,,speed,space,796.7479387089988,,,,,,0.0,1.0,1.0,1.0,22.0,1.0,45.0,0.0,1317.757902082998,,,,,,,,,1317.74338,1318.537161666998,1319.3300784169987,1319.3210752919986,1319.3215708749997,1319.3300784169987,1319.3300784169987,1319.3300784169987,1320.614104166998,,,,,,,,,,,,,,,,,,,,,,,,,,,,,,left,1.0,1.2748571659976733,,,,,,sub-117,1,random_dot,121.33161446847797,
right,right,46.0,0.0,23.0,right,1.0,3.6082101249994594,,speed,space,796.7479387089988,,,,,,0.0,1.0,1.0,1.0,23.0,0.0,46.0,1.0,1320.6266607500002,,,,,,,,,1320.614569999998,1320.7108027079994,1321.5105250829984,1321.499074667001,1321.4995464169988,1321.5105250829984,1321.5105250829984,1321.5105250829984,1325.121914416999,,,,,,,,,,,,,,,,,,,,,,,,,,,,,,right,1.0,3.6082101249994594,,,,,,sub-117,1,random_dot,121.33161446847797,
left,left,47.0,1.0,23.0,right,0.0,2.5647003749982105,,speed,space,796.7479387089988,,,,,,0.0,1.0,1.0,1.0,23.0,1.0,47.0,0.0,1325.127571375,,,,,,,,,1325.1222856249988,1325.9121929169996,1326.7125471670006,1326.7037350419996,1326.704260082999,1326.7125471670006,1326.7125471670006,1326.7125471670006,1329.282493957999,,,,,,,,,,,,,,,,,,,,,,,,,,,,,,right,0.0,2.5647003749982105,,,,,,sub-117,1,random_dot,121.33161446847797,
right,right,48.0,0.0,24.0,right,1.0,1.089655584000866,,speed,space,796.7479387089988,,,,,,0.0,1.0,1.0,1.0,24.0,0.0,48.0,1.0,1329.2923439999977,,,,,,,,,1329.2831309169997,1330.0785995829974,1330.8808982499977,1330.8719223749977,1330.8724052079997,1330.8808982499977,1330.8808982499977,1330.8808982499977,1331.9768100420006,,,,,,,,,,,,,,,,,,,,,,,,,,,,,,right,1.0,1.089655584000866,,,,,,sub-117,1,random_dot,121.33161446847797,
left,left,49.0,1.0,24.0,left,1.0,1.8638364170001296,,speed,space,796.7479387089988,,,,,,0.0,1.0,1.0,1.0,24.0,1.0,49.0,0.0,1331.989539708,,,,,,,,,1331.9771644169996,1333.170382207998,1333.9625767079997,1333.9536649580004,1333.9542015000006,1333.9625767079997,1333.9625767079997,1333.9625767079997,1335.8321969169992,,,,,,,,,,,,,,,,,,,,,,,,,,,,,,left,1.0,1.8638364170001296,,,,,,sub-117,1,random_dot,121.33161446847797,
right,right,50.0,0.0,25.0,left,0.0,2.1886806660004368,,speed,space,796.7479387089988,,,,,,0.0,1.0,1.0,1.0,25.0,0.0,50.0,1.0,1335.8421332500002,,,,,,,,,1335.832565124998,1337.028336416999,1337.828733082999,1337.8213566669983,1337.8216734169982,1337.828733082999,1337.828733082999,1337.828733082999,1340.027208042,,,,,,,,,,,,,,,,,,,,,,,,,,,,,,left,0.0,2.1886806660004368,,,,,,sub-117,1,random_dot,121.33161446847797,
left,left,51.0,1.0,25.0,left,1.0,1.677325667002151,,speed,space,796.7479387089988,,,,,,0.0,1.0,1.0,1.0,25.0,1.0,51.0,0.0,1340.0408912079984,,,,,,,,,1340.0276540829982,1340.8201016249986,1341.6142086670006,1341.6051834169994,1341.6056785,1341.6142086670006,1341.6142086670006,1341.6142086670006,1343.2967482079985,,,,,,,,,,,,,,,,,,,,,,,,,,,,,,left,1.0,1.677325667002151,,,,,,sub-117,1,random_dot,121.33161446847797,
right,right,52.0,0.0,26.0,left,0.0,1.6575207499990938,,speed,space,796.7479387089988,,,,,,0.0,1.0,1.0,1.0,26.0,0.0,52.0,1.0,1343.3205917919986,,,,,,,,,1343.2971033329995,1344.0950190830008,1344.8979079169983,1344.888765874999,1344.8892553330006,1344.8979079169983,1344.8979079169983,1344.8979079169983,1346.5584763749976,,,,,,,,,,,,,,,,,,,,,,,,,,,,,,left,0.0,1.6575207499990938,,,,,,sub-117,1,random_dot,121.33161446847797,
left,left,53.0,1.0,26.0,left,1.0,1.4374053749997984,,speed,space,796.7479387089988,,,,,,0.0,1.0,1.0,1.0,26.0,1.0,53.0,0.0,1346.566754749998,,,,,,,,,1346.5588569579995,1346.6544611249992,1347.4479236669977,1347.4386435829983,1347.4391649999998,1347.4479236669977,1347.4479236669977,1347.4479236669977,1348.8929727079994,,,,,,,,,,,,,,,,,,,,,,,,,,,,,,left,1.0,1.4374053749997984,,,,,,sub-117,1,random_dot,121.33161446847797,
right,right,54.0,0.0,27.0,left,0.0,1.408665875002043,,speed,space,796.7479387089988,,,,,,0.0,1.0,1.0,1.0,27.0,0.0,54.0,1.0,1348.9050705829975,,,,,,,,,1348.8934384169988,1349.686579917001,1350.481463791999,1350.471933875,1350.4725242079985,1350.481463791999,1350.481463791999,1350.481463791999,1351.8941052499977,,,,,,,,,,,,,,,,,,,,,,,,,,,,,,left,0.0,1.408665875002043,,,,,,sub-117,1,random_dot,121.33161446847797,
left,left,55.0,1.0,27.0,left,1.0,0.8119609579989628,,speed,space,796.7479387089988,,,,,,0.0,1.0,1.0,1.0,27.0,1.0,55.0,0.0,1351.9069143749985,,,,,,,,,1351.8950073749984,1351.991237667,1352.7892379170007,1352.7777378329993,1352.7780309169975,1352.7892379170007,1352.7892379170007,1352.7892379170007,1353.6077650829975,,,,,,,,,,,,,,,,,,,,,,,,,,,,,,left,1.0,0.8119609579989628,,,,,,sub-117,1,random_dot,121.33161446847797,
left,left,56.0,0.0,28.0,left,1.0,2.509939083996869,,speed,space,796.7479387089988,,,,,,0.0,1.0,1.0,1.0,28.0,0.0,56.0,0.0,1353.6156604169992,,,,,,,,,1353.608132166999,1353.7067631669995,1354.5041962920004,1354.4954117499983,1354.4958914999988,1354.5041962920004,1354.5041962920004,1354.5041962920004,1357.0236323749996,,,,,,,,,,,,,,,,,,,,,,,,,,,,,,left,1.0,2.509939083996869,,,,,,sub-117,1,random_dot,121.33161446847797,
right,right,57.0,1.0,28.0,right,1.0,1.874980667002092,,speed,space,796.7479387089988,,,,,,0.0,1.0,1.0,1.0,28.0,1.0,57.0,1.0,1357.034770457998,,,,,,,,,1357.0244111249997,1357.8202440829991,1358.6134852079997,1358.604975457998,1358.6054112499987,1358.6134852079997,1358.6134852079997,1358.6134852079997,1360.493150041999,,,,,,,,,,,,,,,,,,,,,,,,,,,,,,right,1.0,1.874980667002092,,,,,,sub-117,1,random_dot,121.33161446847797,
left,left,58.0,0.0,29.0,right,0.0,1.4991807910009811,,speed,space,796.7479387089988,,,,,,0.0,1.0,1.0,1.0,29.0,0.0,58.0,0.0,1360.504453666999,,,,,,,,,1360.4938844169992,1360.8378653750003,1361.6388417499984,1361.6286118749997,1361.6292122919986,1361.6388417499984,1361.6388417499984,1361.6388417499984,1363.1469307080006,,,,,,,,,,,,,,,,,,,,,,,,,,,,,,right,0.0,1.4991807910009811,,,,,,sub-117,1,random_dot,121.33161446847797,
right,right,59.0,1.0,29.0,right,1.0,2.570413292000012,,speed,space,796.7479387089988,,,,,,0.0,1.0,1.0,1.0,29.0,1.0,59.0,1.0,1363.1586616669993,,,,,,,,,1363.1473570419985,1364.3454026670006,1365.1472634579986,1365.138014832999,1365.1384977919988,1365.1472634579986,1365.1472634579986,1365.1472634579986,1367.7222639579995,,,,,,,,,,,,,,,,,,,,,,,,,,,,,,right,1.0,2.570413292000012,,,,,,sub-117,1,random_dot,121.33161446847797,
,,1.0,1.0,0.0,,,,,speed,space,796.7479387089988,,,,,,0.0,1.0,1.0,1.0,,,,,,,,,,,,,,,,,,,,,,,,,,,,,,,,,,,,,,,,,,,,,,,,,,,,,,,,,,,,sub-117,1,random_dot,121.33161446847797,
,,,,,,,,,,,,,,,,,,,,,,,,,,,,,,,,,,,,,,,,,,,,,,,,,,,,,,,,,,,,,,,,,,,,,,,,,,,,,1367.7290711249989,1367.7381462919984,1372.724431625,sub-117,1,random_dot,121.33161446847797,
