direction,corrAns,randomInstr,practice_trials.thisRepN,practice_trials.thisTrialN,practice_trials.thisN,practice_trials.thisIndex,instr_trials.thisRepN,instr_trials.thisTrialN,instr_trials.thisN,instr_trials.thisIndex,test_trials.thisRepN,test_trials.thisTrialN,test_trials.thisN,test_trials.thisIndex,thisRow.t,notes,general_instruction.started,textGeneralInstr.started,respGeneralInstr.started,general_instruction.stopped,respGeneralInstr.keys,respGeneralInstr.rt,respGeneralInstr.duration,ITI.started,fixcross.started,fixcross.stopped,ITI.stopped,dots.started,backgroundDots.started,stimulusDots.started,respDots.started,stimulusDots.stopped,dots.stopped,respDots.keys,respDots.corr,respDots.rt,respDots.duration,feedback.started,textFeedback.started,feedback.stopped,textFeedback.stopped,info.started,textInfo.started,keyRespInfo.started,info.stopped,keyRespInfo.keys,keyRespInfo.rt,keyRespInfo.duration,test_instruction.started,textTestInstr.started,respTestInstr.started,test_instruction.stopped,respTestInstr.keys,respTestInstr.rt,respTestInstr.duration,random_instruction.started,textRandomInstr.started,respRandomInstr.started,random_instruction.stopped,respRandomInstr.keys,respRandomInstr.rt,respRandomInstr.duration,goodbye.started,textGoodbye.started,goodbye.stopped,participant,session,expName,frameRate,Unnamed: 73
,,,,,,,,,,,,,,,,,0.005429400014691,0.0143210000242106,0.0143210000242106,11.34474329999648,space,37.53072819998488,,,,,,,,,,,,,,,,,,,,,,,,,,,,,,,,,,,,,,,,,,,,sub-024,1.0,random_dot,60.08871496876529,
left,left,,0.0,0.0,0.0,0.0,,,,,,,,,11.424334799987264,,,,,,,,,11.418464499991387,11.440506100014318,12.257455700018909,12.23979020002298,12.239807199977804,12.257455700018909,12.257455700018909,12.257455700018909,17.252583599998616,18.37017309997464,left,1.0,32.31026349996682,,18.37298300000839,18.39433530002134,18.88385109999217,,,,,,,,,,,,,,,,,,,,,,,,,,sub-024,1.0,random_dot,60.08871496876529,
right,right,,0.0,1.0,1.0,1.0,,,,,,,,,18.90052470000228,,,,,,,,,18.884938500006683,20.08271489996696,20.882735899998806,20.865861299971584,20.865891599969476,20.882735899998806,20.882735899998806,20.882735899998806,25.877940899983518,26.4301231999998,right,1.0,31.747333299950697,,26.431867000006605,26.44316720002098,26.92711099999724,26.942805400001816,,,,,,,,,,,,,,,,,,,,,,,,,sub-024,1.0,random_dot,60.08871496876529,
right,right,,1.0,0.0,2.0,1.0,,,,,,,,,26.942805400001816,,,,,,,,,26.92783070000587,27.74207769997884,28.542258100002076,28.52616140001919,28.52621669997461,28.542258100002076,28.542258100002076,28.542258100002076,,31.673235499998555,left,0.0,29.328639100014698,,31.673804400023077,31.68790879996959,32.17137399996864,32.187337499985006,,,,,,,,,,,,,,,,,,,,,,,,,sub-024,1.0,random_dot,60.08871496876529,
left,left,,1.0,1.0,3.0,0.0,,,,,,,,,32.187337499985006,,,,,,,,,32.17169270000886,32.98667920002481,33.78706439997768,33.77040239999769,33.770441700005904,33.78706439997768,33.78706439997768,33.78706439997768,,36.068937100004405,left,1.0,28.477475099964067,,36.069422199972905,36.08419119997416,36.5688846000121,36.58394669997506,,,,,,,,,,,,,,,,,,,,,,,,,sub-024,1.0,random_dot,60.08871496876529,
left,left,,2.0,0.0,4.0,0.0,,,,,,,,,36.58394669997506,,,,,,,,,36.57009170000674,37.383032499987166,38.19956679997267,38.18269490002422,38.18272929999512,38.19956679997267,38.19956679997267,38.19956679997267,,40.25045019999379,right,0.0,28.251527899934445,,40.25196079997113,40.26676279999083,40.76367229997413,,,,,,,,,,,,,,,,,,,,,,,,,,sub-024,1.0,random_dot,60.08871496876529,
right,right,,2.0,1.0,5.0,1.0,,,,,,,,,40.780026699998416,,,,,,,,,40.764730700000655,41.961706799978856,42.76232350000646,42.74521159997676,42.74524650000967,42.76232350000646,42.76232350000646,42.76232350000646,,46.07799229997909,right,1.0,29.50730549998116,,46.07953250000719,46.09370829997352,46.59162879997166,,,,,,,,,,,,,,,,,,,,,,,,,,sub-024,1.0,random_dot,60.08871496876529,
left,left,,3.0,0.0,6.0,0.0,,,,,,,,,46.60786230000667,,,,,,,,,46.59289450000506,47.39004999998724,48.19069459999446,48.174716699984856,48.17478130001109,48.19069459999446,48.19069459999446,48.19069459999446,,49.841244900017045,left,1.0,27.852734299958684,,49.84258150000824,49.85463780001737,50.33923719997984,50.35455300001195,,,,,,,,,,,,,,,,,,,,,,,,,sub-024,1.0,random_dot,60.08871496876529,
right,right,,3.0,1.0,7.0,1.0,,,,,,,,,50.35455300001195,,,,,,,,,50.34047629998531,50.70395830000052,51.504140999983065,51.48814859997947,51.48821109998971,51.504140999983065,51.504140999983065,51.504140999983065,56.49931400001515,56.58557519997703,left,0.0,31.279013699968345,,56.58716340002138,56.60320000001229,57.098298500000965,,,,,,,,,,,,,,,,,,,,,,,,,,sub-024,1.0,random_dot,60.08871496876529,
left,left,,4.0,0.0,8.0,0.0,,,,,,,,,57.1145741000073,,,,,,,,,57.09951249998994,57.44787420000648,58.24784099997487,58.2317447999958,58.23180810001213,58.24784099997487,58.24784099997487,58.24784099997487,,59.098806599969976,left,1.0,27.05409410002176,,59.09976750001079,59.11274319997756,59.59740249998868,59.61228260002099,,,,,,,,,,,,,,,,,,,,,,,,,sub-024,1.0,random_dot,60.08871496876529,
right,right,,4.0,1.0,9.0,1.0,,,,,,,,,59.61228260002099,,,,,,,,,59.59857380000176,59.71219240000937,60.51239970000461,60.49672629998531,60.49678980000317,60.51239970000461,60.51239970000461,60.51239970000461,,62.21254390000831,right,1.0,27.89603329997044,,62.213677699968684,62.22652269998798,62.71112519997405,62.72601599997142,,,,,,,,,,,,,,,,,,,,,,,,,sub-024,1.0,random_dot,60.08871496876529,
left,left,,5.0,0.0,10.0,0.0,,,,,,,,,62.72601599997142,,,,,,,,,62.712385799968615,63.92545199999586,64.72526029997971,64.70908399997279,64.70914009999251,64.72526029997971,64.72526029997971,64.72526029997971,,65.8603045999771,left,1.0,27.32594739994965,,65.86202240001876,65.87326469999971,66.35754519997863,66.37288859998807,,,,,,,,,,,,,,,,,,,,,,,,,sub-024,1.0,random_dot,60.08871496876529,
right,right,,5.0,1.0,11.0,1.0,,,,,,,,,66.37288859998807,,,,,,,,,66.3587644000072,66.4725304999738,67.28917639999418,67.27242290001595,67.27245619997848,67.28917639999418,67.28917639999418,67.28917639999418,,69.49012309999671,right,1.0,28.395398700027727,,69.49187189998338,69.50314970000181,69.98771710001165,70.00253509997856,,,,,,,,,,,,,,,,,,,,,,,,,sub-024,1.0,random_dot,60.08871496876529,
left,left,,6.0,0.0,12.0,0.0,,,,,,,,,70.00253509997856,,,,,,,,,69.98909420002019,70.10250959999394,70.90280669997446,70.88680249999743,70.8868674999685,70.90280669997446,70.90280669997446,70.90280669997446,,71.93759759998647,left,1.0,27.22791259997757,,71.93937570002163,71.95098700001836,72.43546190002235,72.45054270001128,,,,,,,,,,,,,,,,,,,,,,,,,sub-024,1.0,random_dot,60.08871496876529,
right,right,,6.0,1.0,13.0,1.0,,,,,,,,,72.45054270001128,,,,,,,,,72.43674299999839,72.80019979999634,73.60043400002178,73.58415469998727,73.58421689999523,73.60043400002178,73.60043400002178,73.60043400002178,,75.05185559997335,right,1.0,27.65175459999591,,75.05339279997861,75.06448930001352,75.5490800999687,75.56395669997437,,,,,,,,,,,,,,,,,,,,,,,,,sub-024,1.0,random_dot,60.08871496876529,
right,right,,7.0,0.0,14.0,1.0,,,,,,,,,75.56395669997437,,,,,,,,,75.55022219999228,76.36369720002403,77.16359750000993,77.14814040000783,77.14820659998804,77.16359750000993,77.16359750000993,77.16359750000993,,79.3787619000068,right,1.0,28.407313100004103,,79.37925030000042,79.39344120002352,79.87722329999087,79.89298609999241,,,,,,,,,,,,,,,,,,,,,,,,,sub-024,1.0,random_dot,60.08871496876529,
left,left,,7.0,1.0,15.0,0.0,,,,,,,,,79.89298609999241,,,,,,,,,79.87786319997394,79.99291109998012,80.79306850000285,80.77628029999323,80.7763178999885,80.79306850000285,80.79306850000285,80.79306850000285,,81.74367559998063,left,1.0,27.14761659997748,,81.74458050000248,81.75796939997235,82.24157459998969,82.25737389997812,,,,,,,,,,,,,,,,,,,,,,,,,sub-024,1.0,random_dot,60.08871496876529,
left,left,,8.0,0.0,16.0,0.0,,,,,,,,,82.25737389997812,,,,,,,,,82.24220149999019,82.35730189998867,83.15762900002301,83.1409003000008,83.14093409996713,83.15762900002301,83.15762900002301,83.15762900002301,,84.37625209998805,left,1.0,27.417927899979983,,84.37798400002066,84.38938980002422,84.87381620000815,84.88883999997051,,,,,,,,,,,,,,,,,,,,,,,,,sub-024,1.0,random_dot,60.08871496876529,
right,right,,8.0,1.0,17.0,1.0,,,,,,,,,84.88883999997051,,,,,,,,,84.87498839996988,86.08735049999086,86.88791970000602,86.87178490002407,86.87184749997687,86.88791970000602,86.88791970000602,86.88791970000602,,87.80634030001238,right,1.0,27.120562199968845,,87.80791169998702,87.81951310002478,88.30390759999864,88.31896629999392,,,,,,,,,,,,,,,,,,,,,,,,,sub-024,1.0,random_dot,60.08871496876529,
right,right,,9.0,0.0,18.0,1.0,,,,,,,,,88.31896629999392,,,,,,,,,88.30509280000115,88.41886689997045,89.21914090000791,89.20281549997162,89.202879199991,89.21914090000791,89.21914090000791,89.21914090000791,,90.00496459996793,right,1.0,26.98924329999136,,90.00653419998707,90.01738759997534,90.50166960002387,90.51695319998544,,,,,,,,,,,,,,,,,,,,,,,,,sub-024,1.0,random_dot,60.08871496876529,
left,left,,9.0,1.0,19.0,0.0,,,,,,,,,90.51695319998544,,,,,,,,,90.50286860001506,90.86670690000756,91.66697129997192,91.65067060000727,91.6507367999875,91.66697129997192,91.66697129997192,91.66697129997192,,93.15162020002026,left,1.0,27.676997000002302,,93.15337249997538,93.16434640000809,93.64881450001847,93.6643637000234,,,,,,,,,,,,,,,,,,,,,,,,,sub-024,1.0,random_dot,60.08871496876529,
,,,,,,,,,,,,,,,,,,,,,,,,,,,,,,,,,,,,,,,,,,93.64903610001784,93.6643637000234,93.6643637000234,96.04753300000448,space,28.576329200004693,,,,,,,,,,,,,,,,,,,sub-024,1.0,random_dot,60.08871496876529,
,,,,,,,,,,,,,,,,,,,,,,,,,,,,,,,,,,,,,,,,,,,,,,,,,96.0476221999852,96.06206059997204,96.06206059997204,101.2096412999672,space,31.349343699985184,,,,,,,,,,,,sub-024,1.0,random_dot,60.08871496876529,
right,right,accuracy,,,,,0.0,0.0,0.0,0.0,0.0,0.0,0.0,1.0,103.26713589997962,,,,,,,,,103.26101690001089,104.05415719997836,104.85450690001016,104.83858689997578,104.83865689998493,104.85450690001016,104.85450690001016,104.85450690001016,,106.27282209997064,right,1.0,27.619650799955707,,,,,,,,,,,,,,,,,,,,101.22057240002324,101.25500730000203,101.25500730000203,103.24065759999212,space,28.17932049994124,,,,,sub-024,1.0,random_dot,60.08871496876529,
left,left,accuracy,,,,,0.0,0.0,0.0,0.0,0.0,1.0,1.0,0.0,106.28540280001472,,,,,,,,,106.277019799978,106.63531400001376,107.43552439997438,107.41939860000276,107.41946220002136,107.43552439997438,107.43552439997438,107.43552439997438,,108.23632690001978,left,1.0,27.00411229999736,,,,,,,,,,,,,,,,,,,,,,,,,,,,,,sub-024,1.0,random_dot,60.08871496876529,
right,right,accuracy,,,,,0.0,0.0,0.0,0.0,1.0,0.0,2.0,1.0,108.24981459998526,,,,,,,,,108.2379237000132,109.04912859998876,109.84989359998144,109.8337100999779,109.83377339999424,109.84989359998144,109.84989359998144,109.84989359998144,,110.53570509998826,right,1.0,26.889520699973215,,,,,,,,,,,,,,,,,,,,,,,,,,,,,,sub-024,1.0,random_dot,60.08871496876529,
left,left,accuracy,,,,,0.0,0.0,0.0,0.0,1.0,1.0,3.0,0.0,110.54818809998687,,,,,,,,,110.5387861999916,111.34731089998968,112.14743750001072,112.13154349999968,112.1316063000122,112.14743750001072,112.14743750001072,112.14743750001072,,112.7993188999826,left,1.0,26.850519499974325,,,,,,,,,,,,,,,,,,,,,,,,,,,,,,sub-024,1.0,random_dot,60.08871496876529,
left,left,accuracy,,,,,0.0,0.0,0.0,0.0,2.0,0.0,4.0,0.0,112.81284129997948,,,,,,,,,112.80223359999944,113.61187590000918,114.41224799997872,114.39614580001216,114.39621570002056,114.41224799997872,114.41224799997872,114.41224799997872,,115.94500970002264,left,1.0,27.72247959999368,,,,,,,,,,,,,,,,,,,,,,,,,,,,,,sub-024,1.0,random_dot,60.08871496876529,
right,right,accuracy,,,,,0.0,0.0,0.0,0.0,2.0,1.0,5.0,1.0,115.95931180001936,,,,,,,,,115.94676620000972,116.30899310001404,117.10941909998655,117.09322729997804,117.09328239999012,117.10941909998655,117.10941909998655,117.10941909998655,,117.79329750000034,right,1.0,26.882097199966665,,,,,,,,,,,,,,,,,,,,,,,,,,,,,,sub-024,1.0,random_dot,60.08871496876529,
right,right,accuracy,,,,,0.0,0.0,0.0,0.0,3.0,0.0,6.0,1.0,117.80753859999822,,,,,,,,,117.79506199999014,117.90755030000582,118.70830529998057,118.69203350000316,118.69209460000276,118.70830529998057,118.70830529998057,118.70830529998057,,122.6732399999746,right,1.0,30.165064200002234,,,,,,,,,,,,,,,,,,,,,,,,,,,,,,sub-024,1.0,random_dot,60.08871496876529,
left,left,accuracy,,,,,0.0,0.0,0.0,0.0,3.0,1.0,7.0,0.0,122.68688589998057,,,,,,,,,122.67639069998404,123.03658179997,123.83657909999602,123.82049890002236,123.82056179997744,123.83657909999602,123.83657909999602,123.83657909999602,,125.18748899997443,left,1.0,27.539740699983668,,,,,,,,,,,,,,,,,,,,,,,,,,,,,,sub-024,1.0,random_dot,60.08871496876529,
right,right,accuracy,,,,,0.0,0.0,0.0,0.0,4.0,0.0,8.0,1.0,125.20083069999237,,,,,,,,,125.19055469997691,126.39995099999942,127.20002460002434,127.18399729998782,127.18406220001634,127.20002460002434,127.20002460002434,127.20002460002434,,128.48452549998183,right,1.0,27.475497899984475,,,,,,,,,,,,,,,,,,,,,,,,,,,,,,sub-024,1.0,random_dot,60.08871496876529,
left,left,accuracy,,,,,0.0,0.0,0.0,0.0,4.0,1.0,9.0,0.0,128.49814979999792,,,,,,,,,128.48754100000951,128.5981050999835,129.3983167000115,129.3822780000046,129.38234259997262,129.3983167000115,129.3983167000115,129.3983167000115,,130.26529190002475,left,1.0,27.06560849997913,,,,,,,,,,,,,,,,,,,,,,,,,,,,,,sub-024,1.0,random_dot,60.08871496876529,
left,left,accuracy,,,,,0.0,0.0,0.0,0.0,5.0,0.0,10.0,0.0,130.27957439998863,,,,,,,,,130.26710019999882,131.4785546999774,132.27901130000828,132.26267199998256,132.2627358000027,132.27901130000828,132.27901130000828,132.27901130000828,,133.31344320002245,left,1.0,27.22529879998183,,,,,,,,,,,,,,,,,,,,,,,,,,,,,,sub-024,1.0,random_dot,60.08871496876529,
right,right,accuracy,,,,,0.0,0.0,0.0,0.0,5.0,1.0,11.0,1.0,133.32696520001628,,,,,,,,,133.31646250002086,134.12604800000554,134.92648690001806,134.91048209997825,134.91054710000753,134.92648690001806,134.92648690001806,134.92648690001806,,135.6446712000179,right,1.0,26.92132059996948,,,,,,,,,,,,,,,,,,,,,,,,,,,,,,sub-024,1.0,random_dot,60.08871496876529,
left,left,accuracy,,,,,0.0,0.0,0.0,0.0,6.0,0.0,12.0,0.0,135.65807900001528,,,,,,,,,135.64755559997866,136.85680030001097,137.65719300002092,137.64143879996843,137.64150660001906,137.65719300002092,137.65719300002092,137.65719300002092,,138.40751410002122,left,1.0,26.9417870999896,,,,,,,,,,,,,,,,,,,,,,,,,,,,,,sub-024,1.0,random_dot,60.08871496876529,
right,right,accuracy,,,,,0.0,0.0,0.0,0.0,6.0,1.0,13.0,1.0,138.42165319999913,,,,,,,,,138.40913029998774,139.6206484999857,140.42078220000258,140.4039708999917,140.404004800017,140.42078220000258,140.42078220000258,140.42078220000258,,141.78916819998994,right,1.0,27.56806309998501,,,,,,,,,,,,,,,,,,,,,,,,,,,,,,sub-024,1.0,random_dot,60.08871496876529,
left,left,accuracy,,,,,0.0,0.0,0.0,0.0,7.0,0.0,14.0,0.0,141.8023237999878,,,,,,,,,141.7921587000019,142.6011324999854,143.4014667000156,143.38465239998186,143.38468760001706,143.4014667000156,143.4014667000156,143.4014667000156,,144.1690809999709,left,1.0,26.96216900000581,,,,,,,,,,,,,,,,,,,,,,,,,,,,,,sub-024,1.0,random_dot,60.08871496876529,
right,right,accuracy,,,,,0.0,0.0,0.0,0.0,7.0,1.0,15.0,1.0,144.1830299000139,,,,,,,,,144.17086740001105,145.38240290002432,146.18249629996717,146.16654000000565,146.1667066999944,146.18249629996717,146.18249629996717,146.18249629996717,,146.9509573999676,left,0.0,26.95984389999649,,,,,,,,,,,,,,,,,,,,,,,,,,,,,,sub-024,1.0,random_dot,60.08871496876529,
right,right,accuracy,,,,,0.0,0.0,0.0,0.0,8.0,0.0,16.0,1.0,146.96417099999962,,,,,,,,,146.95393710001372,147.3137648999691,148.11402320000343,148.09827909996966,148.09834149997914,148.11402320000343,148.11402320000343,148.11402320000343,,149.46551609999733,right,1.0,27.554469699971374,,,,,,,,,,,,,,,,,,,,,,,,,,,,,,sub-024,1.0,random_dot,60.08871496876529,
left,left,accuracy,,,,,0.0,0.0,0.0,0.0,8.0,1.0,17.0,0.0,149.47835190000478,,,,,,,,,149.46904409996932,149.57831189996796,150.3788448999985,150.3626072999905,150.36267509998288,150.3788448999985,150.3788448999985,150.3788448999985,,151.06378409999888,left,1.0,26.87540059996536,,,,,,,,,,,,,,,,,,,,,,,,,,,,,,sub-024,1.0,random_dot,60.08871496876529,
left,left,accuracy,,,,,0.0,0.0,0.0,0.0,9.0,0.0,18.0,0.0,151.07714219996706,,,,,,,,,151.06712119997246,151.8763282999862,152.69304430001648,152.67536360002123,152.67537820001598,152.69304430001648,152.69304430001648,152.69304430001648,,153.46153709996725,left,1.0,26.97249939996982,,,,,,,,,,,,,,,,,,,,,,,,,,,,,,sub-024,1.0,random_dot,60.08871496876529,
right,right,accuracy,,,,,0.0,0.0,0.0,0.0,9.0,1.0,19.0,1.0,153.47473299998092,,,,,,,,,153.46445909998147,154.67384190001758,155.47386929998174,155.4578579000081,155.45791980001377,155.47386929998174,155.47386929998174,155.47386929998174,,158.074252899969,right,1.0,28.802603199961595,,,,,,,,,,,,,,,,,,,,,,,,,,,,,,sub-024,1.0,random_dot,60.08871496876529,
right,right,accuracy,,,,,0.0,0.0,0.0,0.0,10.0,0.0,20.0,1.0,158.0871039999765,,,,,,,,,158.07722659996944,159.28618009999627,160.1024828000227,160.0857939000125,160.0858277999796,160.1024828000227,160.1024828000227,160.1024828000227,,162.95271739998134,right,1.0,29.03930699994089,,,,,,,,,,,,,,,,,,,,,,,,,,,,,,sub-024,1.0,random_dot,60.08871496876529,
left,left,accuracy,,,,,0.0,0.0,0.0,0.0,10.0,1.0,21.0,0.0,162.96599130000686,,,,,,,,,162.95571989996824,163.765287599992,164.56555780000053,164.54913950001355,164.54920210002456,164.56555780000053,164.56555780000053,164.56555780000053,,165.21639389998745,left,1.0,26.85287259996403,,,,,,,,,,,,,,,,,,,,,,,,,,,,,,sub-024,1.0,random_dot,60.08871496876529,
right,right,accuracy,,,,,0.0,0.0,0.0,0.0,11.0,0.0,22.0,1.0,165.23031800001627,,,,,,,,,165.21870269998908,166.42927369999234,167.22966559999622,167.21338420000393,167.21344780002255,167.22966559999622,167.22966559999622,167.22966559999622,,167.81333819997965,right,1.0,26.773335699981544,,,,,,,,,,,,,,,,,,,,,,,,,,,,,,sub-024,1.0,random_dot,60.08871496876529,
left,left,accuracy,,,,,0.0,0.0,0.0,0.0,11.0,1.0,23.0,0.0,167.8275650999858,,,,,,,,,167.81486659997609,168.62679770000975,169.42728439997882,169.4101436000201,169.41017549997196,169.42728439997882,169.42728439997882,169.42728439997882,,169.91055109997978,left,1.0,26.67445440002484,,,,,,,,,,,,,,,,,,,,,,,,,,,,,,sub-024,1.0,random_dot,60.08871496876529,
right,right,accuracy,,,,,0.0,0.0,0.0,0.0,12.0,0.0,24.0,1.0,169.92542099999264,,,,,,,,,169.91151760000503,170.72556220000843,171.52551080001285,171.5093756999704,171.50943819998065,171.52551080001285,171.52551080001285,171.52551080001285,,173.1752086000051,right,1.0,27.84671159996651,,,,,,,,,,,,,,,,,,,,,,,,,,,,,,sub-024,1.0,random_dot,60.08871496876529,
left,left,accuracy,,,,,0.0,0.0,0.0,0.0,12.0,1.0,25.0,0.0,173.1890922000166,,,,,,,,,173.1771365000168,173.5387497000047,174.3391196000157,174.32257309998386,174.32261269999435,174.3391196000157,174.3391196000157,174.3391196000157,,174.82268079998903,left,1.0,26.673397900012787,,,,,,,,,,,,,,,,,,,,,,,,,,,,,,sub-024,1.0,random_dot,60.08871496876529,
left,left,accuracy,,,,,0.0,0.0,0.0,0.0,13.0,0.0,26.0,0.0,174.8374869999825,,,,,,,,,174.82353250001324,174.93744120001793,175.738205200003,175.7218590999837,175.72191510000266,175.738205200003,175.738205200003,175.738205200003,,177.2209483999759,left,1.0,27.675688899995293,,,,,,,,,,,,,,,,,,,,,,,,,,,,,,sub-024,1.0,random_dot,60.08871496876529,
right,right,accuracy,,,,,0.0,0.0,0.0,0.0,13.0,1.0,27.0,1.0,177.23535329999868,,,,,,,,,177.22213760000886,178.43470390001312,179.2348010999849,179.21798429999035,179.2180183000164,179.2348010999849,179.2348010999849,179.2348010999849,,182.46559809998143,right,1.0,29.42033619998256,,,,,,,,,,,,,,,,,,,,,,,,,,,,,,sub-024,1.0,random_dot,60.08871496876529,
right,right,accuracy,,,,,0.0,0.0,0.0,0.0,14.0,0.0,28.0,1.0,182.48041169997305,,,,,,,,,182.4666234999895,182.83019130001776,183.6302818999975,183.6131127999979,183.6131292000064,183.6302818999975,183.6302818999975,183.6302818999975,,184.58070849999783,left,0.0,27.155671199958302,,,,,,,,,,,,,,,,,,,,,,,,,,,,,,sub-024,1.0,random_dot,60.08871496876529,
left,left,accuracy,,,,,0.0,0.0,0.0,0.0,14.0,1.0,29.0,0.0,184.5954033000162,,,,,,,,,184.58162080001784,185.3949575999868,186.21138469997092,186.19421069999223,186.19422710000072,186.21138469997092,186.21138469997092,186.21138469997092,,186.86284289998,left,1.0,26.85345930000767,,,,,,,,,,,,,,,,,,,,,,,,,,,,,,sub-024,1.0,random_dot,60.08871496876529,
right,right,accuracy,,,,,0.0,0.0,0.0,0.0,15.0,0.0,30.0,1.0,186.8766964999959,,,,,,,,,186.8649828999769,187.22648419998583,188.02655299997423,188.0095659000217,188.0095887000207,188.02655299997423,188.02655299997423,188.02655299997423,,189.36119829997187,left,0.0,27.53547849995084,,,,,,,,,,,,,,,,,,,,,,,,,,,,,,sub-024,1.0,random_dot,60.08871496876529,
left,left,accuracy,,,,,0.0,0.0,0.0,0.0,15.0,1.0,31.0,0.0,189.3742964999983,,,,,,,,,189.36387549998472,189.47436190000732,190.27447589999065,190.25802639999893,190.2580645999988,190.27447589999065,190.27447589999065,190.27447589999065,,191.85848310001893,left,1.0,27.785291799984407,,,,,,,,,,,,,,,,,,,,,,,,,,,,,,sub-024,1.0,random_dot,60.08871496876529,
left,left,accuracy,,,,,0.0,0.0,0.0,0.0,16.0,0.0,32.0,0.0,191.87211759999627,,,,,,,,,191.86093520000577,192.67157170001883,193.48807630001104,193.4717199999723,193.4717693999992,193.48807630001104,193.48807630001104,193.48807630001104,,194.60577029996784,right,0.0,27.308013700006995,,,,,,,,,,,,,,,,,,,,,,,,,,,,,,sub-024,1.0,random_dot,60.08871496876529,
right,right,accuracy,,,,,0.0,0.0,0.0,0.0,16.0,1.0,33.0,1.0,194.61933010001667,,,,,,,,,194.6079268999747,195.8188239000156,196.61861479998333,196.60276280000107,196.60283160000108,196.61861479998333,196.61861479998333,196.61861479998333,,197.6867766000214,right,1.0,27.26592569996137,,,,,,,,,,,,,,,,,,,,,,,,,,,,,,sub-024,1.0,random_dot,60.08871496876529,
right,right,accuracy,,,,,0.0,0.0,0.0,0.0,17.0,0.0,34.0,1.0,197.6998683999991,,,,,,,,,197.6894994999748,198.4991075000144,199.315655399987,199.2985358000151,199.29855319997296,199.315655399987,199.315655399987,199.315655399987,,199.933336600021,right,1.0,26.81298079993576,,,,,,,,,,,,,,,,,,,,,,,,,,,,,,sub-024,1.0,random_dot,60.08871496876529,
left,left,accuracy,,,,,0.0,0.0,0.0,0.0,17.0,1.0,35.0,0.0,199.94792040000905,,,,,,,,,199.93451290001397,200.04791470000052,200.86419370002116,200.84732629999053,200.8473495999933,200.86419370002116,200.86419370002116,200.86419370002116,,201.715275799972,left,1.0,27.04679509997368,,,,,,,,,,,,,,,,,,,,,,,,,,,,,,sub-024,1.0,random_dot,60.08871496876529,
right,right,accuracy,,,,,0.0,0.0,0.0,0.0,18.0,0.0,36.0,1.0,201.72915999998804,,,,,,,,,201.71735529997383,202.9285150999785,203.7288416000083,203.712286999973,203.71234129997904,203.7288416000083,203.7288416000083,203.7288416000083,,204.6633756000083,right,1.0,27.12408569996478,,,,,,,,,,,,,,,,,,,,,,,,,,,,,,sub-024,1.0,random_dot,60.08871496876529,
left,left,accuracy,,,,,0.0,0.0,0.0,0.0,18.0,1.0,37.0,0.0,204.6767659999896,,,,,,,,,204.6657929000212,204.77694409998367,205.5770625000005,205.5610896999715,205.5611532999901,205.5770625000005,205.5770625000005,205.5770625000005,,207.0936180999852,left,1.0,27.71754499996314,,,,,,,,,,,,,,,,,,,,,,,,,,,,,,sub-024,1.0,random_dot,60.08871496876529,
right,right,accuracy,,,,,0.0,0.0,0.0,0.0,19.0,0.0,38.0,1.0,207.1077741999761,,,,,,,,,207.0954507999704,207.4576589000062,208.2578046999988,208.2416126999888,208.2416685000062,208.2578046999988,208.2578046999988,208.2578046999988,,209.00870529998792,right,1.0,26.943869400012773,,,,,,,,,,,,,,,,,,,,,,,,,,,,,,sub-024,1.0,random_dot,60.08871496876529,
left,left,accuracy,,,,,0.0,0.0,0.0,0.0,19.0,1.0,39.0,0.0,209.02265860000625,,,,,,,,,209.01086719997693,209.82224579999456,210.6221081999829,210.6057607000112,210.6058056000038,210.6221081999829,210.6221081999829,210.6221081999829,,211.85615639999745,left,1.0,27.43660999997519,,,,,,,,,,,,,,,,,,,,,,,,,,,,,,sub-024,1.0,random_dot,60.08871496876529,
right,right,accuracy,,,,,0.0,0.0,0.0,0.0,20.0,0.0,40.0,1.0,211.87006639997708,,,,,,,,,211.85820640000748,213.0693661000114,213.86923020001268,213.85263089998625,213.8526687999838,213.86923020001268,213.86923020001268,213.86923020001268,,214.604661600024,right,1.0,26.930839299981017,,,,,,,,,,,,,,,,,,,,,,,,,,,,,,sub-024,1.0,random_dot,60.08871496876529,
left,left,accuracy,,,,,0.0,0.0,0.0,0.0,20.0,1.0,41.0,0.0,214.6178556000232,,,,,,,,,214.607952499995,214.71761180000613,215.517543199996,215.50170149997572,215.50177889998304,215.517543199996,215.517543199996,215.517543199996,,216.28524360002484,right,0.0,26.969593599962536,,,,,,,,,,,,,,,,,,,,,,,,,,,,,,sub-024,1.0,random_dot,60.08871496876529,
right,right,accuracy,,,,,0.0,0.0,0.0,0.0,21.0,0.0,42.0,1.0,216.29933740000703,,,,,,,,,216.2870746999979,217.49800169997616,218.2981723999837,218.28268210001988,218.28274499997497,218.2981723999837,218.2981723999837,218.2981723999837,,219.448482399981,right,1.0,27.353628400014717,,,,,,,,,,,,,,,,,,,,,,,,,,,,,,sub-024,1.0,random_dot,60.08871496876529,
left,left,accuracy,,,,,0.0,0.0,0.0,0.0,21.0,1.0,43.0,0.0,219.46316599997223,,,,,,,,,219.45002039999235,220.66185259999477,221.46212520002155,221.44550179998623,221.4455390999792,221.46212520002155,221.46212520002155,221.46212520002155,,222.86180630000308,left,1.0,27.59764940000605,,,,,,,,,,,,,,,,,,,,,,,,,,,,,,sub-024,1.0,random_dot,60.08871496876529,
right,right,accuracy,,,,,0.0,0.0,0.0,0.0,22.0,0.0,44.0,1.0,222.8764208999928,,,,,,,,,222.8629940999672,224.0749245000188,224.87544829997933,224.85845429997423,224.85847649996867,224.87544829997933,224.87544829997933,224.87544829997933,,225.5433951999876,right,1.0,26.86599540000316,,,,,,,,,,,,,,,,,,,,,,,,,,,,,,sub-024,1.0,random_dot,60.08871496876529,
left,left,accuracy,,,,,0.0,0.0,0.0,0.0,22.0,1.0,45.0,0.0,225.55728629999797,,,,,,,,,225.5452814999735,225.9070580999833,226.70712590002225,226.691261400003,226.6913237000117,226.70712590002225,226.70712590002225,226.70712590002225,,227.6250201999792,left,1.0,27.111726899980567,,,,,,,,,,,,,,,,,,,,,,,,,,,,,,sub-024,1.0,random_dot,60.08871496876529,
right,right,accuracy,,,,,0.0,0.0,0.0,0.0,23.0,0.0,46.0,1.0,227.6388477999717,,,,,,,,,227.62692319997583,228.43775829998776,229.25465489999624,229.23738910001703,229.2374047000194,229.25465489999624,229.25465489999624,229.25465489999624,,229.90590790001443,right,1.0,26.84996379999211,,,,,,,,,,,,,,,,,,,,,,,,,,,,,,sub-024,1.0,random_dot,60.08871496876529,
left,left,accuracy,,,,,0.0,0.0,0.0,0.0,23.0,1.0,47.0,0.0,229.91962679999412,,,,,,,,,229.9076144999708,230.2698089000187,231.06961279996904,231.05393130000448,231.05399679997936,231.06961279996904,231.06961279996904,231.06961279996904,,232.2542445000145,left,1.0,27.37475439999253,,,,,,,,,,,,,,,,,,,,,,,,,,,,,,sub-024,1.0,random_dot,60.08871496876529,
left,left,accuracy,,,,,0.0,0.0,0.0,0.0,24.0,0.0,48.0,0.0,232.26793029997495,,,,,,,,,232.25722500000848,233.46635299996703,234.26705409999704,234.25067360000685,234.25073029997293,234.26705409999704,234.26705409999704,234.26705409999704,,235.18353209999623,left,1.0,27.118528400023934,,,,,,,,,,,,,,,,,,,,,,,,,,,,,,sub-024,1.0,random_dot,60.08871496876529,
right,right,accuracy,,,,,0.0,0.0,0.0,0.0,24.0,1.0,49.0,1.0,235.19830609997732,,,,,,,,,235.1844870999921,236.39747470000293,237.2135005000164,237.19644510000944,237.1964620000217,237.2135005000164,237.2135005000164,237.2135005000164,,238.76368189998905,right,1.0,27.74061239999719,,,,,,,,,,,,,,,,,,,,,,,,,,,,,,sub-024,1.0,random_dot,60.08871496876529,
left,left,accuracy,,,,,0.0,0.0,0.0,0.0,25.0,0.0,50.0,0.0,238.77816039999016,,,,,,,,,238.76488099998096,238.87796660000456,239.67828609998105,239.6613729000092,239.66140889999224,239.67828609998105,239.67828609998105,239.67828609998105,,240.52802979998523,left,1.0,27.046157100005075,,,,,,,,,,,,,,,,,,,,,,,,,,,,,,sub-024,1.0,random_dot,60.08871496876529,
right,right,accuracy,,,,,0.0,0.0,0.0,0.0,25.0,1.0,51.0,1.0,240.5427861000062,,,,,,,,,240.52884829998948,241.74176429997897,242.54197610000847,242.5248490999802,242.524864099978,242.54197610000847,242.54197610000847,242.54197610000847,,243.4590705999872,right,1.0,27.11480460001621,,,,,,,,,,,,,,,,,,,,,,,,,,,,,,sub-024,1.0,random_dot,60.08871496876529,
right,right,accuracy,,,,,0.0,0.0,0.0,0.0,26.0,0.0,52.0,1.0,243.47347989998525,,,,,,,,,243.4604343000101,244.67233069997744,245.47254689998223,245.45542810001643,245.4554424000089,245.47254689998223,245.47254689998223,245.47254689998223,,246.15599890000885,right,1.0,26.874394199985545,,,,,,,,,,,,,,,,,,,,,,,,,,,,,,sub-024,1.0,random_dot,60.08871496876529,
left,left,accuracy,,,,,0.0,0.0,0.0,0.0,26.0,1.0,53.0,0.0,246.17090799997092,,,,,,,,,246.15678670001216,246.27090270002373,247.0710270999698,247.05388949997723,247.0539038999705,247.0710270999698,247.0710270999698,247.0710270999698,,247.6216932999669,left,1.0,26.74229530000593,,,,,,,,,,,,,,,,,,,,,,,,,,,,,,sub-024,1.0,random_dot,60.08871496876529,
left,left,accuracy,,,,,0.0,0.0,0.0,0.0,27.0,0.0,54.0,0.0,247.63630050001663,,,,,,,,,247.62258309999012,247.73612700001104,248.5368571999716,248.5192212999682,248.51924469997172,248.5368571999716,248.5368571999716,248.5368571999716,,249.0867952000117,left,1.0,26.75134909996996,,,,,,,,,,,,,,,,,,,,,,,,,,,,,,sub-024,1.0,random_dot,60.08871496876529,
right,right,accuracy,,,,,0.0,0.0,0.0,0.0,27.0,1.0,55.0,1.0,249.10145939997165,,,,,,,,,249.08760129997967,249.9007750999881,250.70152950001648,250.68534550000916,250.68540319998283,250.70152950001648,250.70152950001648,250.70152950001648,,251.38517199998023,right,1.0,26.88015609997092,,,,,,,,,,,,,,,,,,,,,,,,,,,,,,sub-024,1.0,random_dot,60.08871496876529,
left,left,accuracy,,,,,0.0,0.0,0.0,0.0,28.0,0.0,56.0,0.0,251.3995297999936,,,,,,,,,251.38613599998644,252.5982365999953,253.39894809998805,253.3821151999873,253.3821489000111,253.39894809998805,253.39894809998805,253.39894809998805,,253.98341109999456,left,1.0,26.783601599978283,,,,,,,,,,,,,,,,,,,,,,,,,,,,,,sub-024,1.0,random_dot,60.08871496876529,
right,right,accuracy,,,,,0.0,0.0,0.0,0.0,28.0,1.0,57.0,1.0,253.99704669998027,,,,,,,,,253.9851856000023,254.34674130001804,255.14698439999484,255.12987170001725,255.1298938000109,255.14698439999484,255.14698439999484,255.14698439999484,,255.73064429999795,right,1.0,26.78401639999356,,,,,,,,,,,,,,,,,,,,,,,,,,,,,,sub-024,1.0,random_dot,60.08871496876529,
right,right,accuracy,,,,,0.0,0.0,0.0,0.0,29.0,0.0,58.0,1.0,255.74534670001597,,,,,,,,,255.7316532999976,256.54465009999694,257.3453340000124,257.3291089999839,257.3291654000059,257.3453340000124,257.3453340000124,257.3453340000124,,257.862805199984,left,0.0,26.710757899971213,,,,,,,,,,,,,,,,,,,,,,,,,,,,,,sub-024,1.0,random_dot,60.08871496876529,
left,left,accuracy,,,,,0.0,0.0,0.0,0.0,29.0,1.0,59.0,0.0,257.87714469997445,,,,,,,,,257.8643647999852,259.0756878000102,259.8757233999786,259.85873580002226,259.8587652000133,259.8757233999786,259.8757233999786,259.8757233999786,,260.66009219997795,left,1.0,26.98083319998113,,,,,,,,,,,,,,,,,,,,,,,,,,,,,,sub-024,1.0,random_dot,60.08871496876529,
,,accuracy,,,,,0.0,0.0,0.0,0.0,,,,,,,,,,,,,,,,,,,,,,,,,,,,,,,,,,,,,,,,,,,,,,,,,,,,,,,,sub-024,1.0,random_dot,60.08871496876529,
left,left,speed,,,,,0.0,1.0,1.0,1.0,0.0,0.0,0.0,0.0,263.4880378000089,,,,,,,,,263.47811109997565,263.5880332000088,264.38829239999177,264.37120180000784,264.37122319999617,264.38829239999177,264.38829239999177,264.38829239999177,,264.755192600016,left,1.0,26.571470099966973,,,,,,,,,,,,,,,,,,,,260.6617609999957,260.67777140002,260.67777140002,263.4721900000004,space,28.98477409995394,,,,,sub-024,1.0,random_dot,60.08871496876529,
right,right,speed,,,,,0.0,1.0,1.0,1.0,0.0,1.0,1.0,1.0,264.7702112999977,,,,,,,,,264.7562266999739,265.1198552999995,265.92022829997586,265.9028589000227,265.9028744000243,265.92022829997586,265.92022829997586,265.92022829997586,,266.3208118000184,left,0.0,26.59684269997524,,,,,,,,,,,,,,,,,,,,,,,,,,,,,,sub-024,1.0,random_dot,60.08871496876529,
left,left,speed,,,,,0.0,1.0,1.0,1.0,1.0,0.0,2.0,0.0,266.33547109999927,,,,,,,,,266.3216176999849,266.4353742999956,267.23550549999345,267.21857440000167,267.2185907000094,267.23550549999345,267.23550549999345,267.23550549999345,,267.76912110002013,left,1.0,26.728744599968195,,,,,,,,,,,,,,,,,,,,,,,,,,,,,,sub-024,1.0,random_dot,60.08871496876529,
right,right,speed,,,,,0.0,1.0,1.0,1.0,1.0,1.0,3.0,1.0,267.7839999999851,,,,,,,,,267.76986429997487,268.5838705999777,269.38411789998645,269.3682309999713,269.3683165999828,269.38411789998645,269.38411789998645,269.38411789998645,,269.7023814999848,right,1.0,26.51204140001209,,,,,,,,,,,,,,,,,,,,,,,,,,,,,,sub-024,1.0,random_dot,60.08871496876529,
left,left,speed,,,,,0.0,1.0,1.0,1.0,2.0,0.0,4.0,0.0,269.716148699983,,,,,,,,,269.7047580999788,270.9151757999789,271.7151697999798,271.6985369999893,271.69857020000927,271.7151697999798,271.7151697999798,271.7151697999798,,272.06631089997245,left,1.0,26.55451789998915,,,,,,,,,,,,,,,,,,,,,,,,,,,,,,sub-024,1.0,random_dot,60.08871496876529,
right,right,speed,,,,,0.0,1.0,1.0,1.0,2.0,1.0,5.0,1.0,272.0803243999835,,,,,,,,,272.0683471999946,272.43029849999584,273.23037549998844,273.21409359999234,273.2141490000067,273.23037549998844,273.23037549998844,273.23037549998844,,273.59892879996914,right,1.0,26.55872560001444,,,,,,,,,,,,,,,,,,,,,,,,,,,,,,sub-024,1.0,random_dot,60.08871496876529,
right,right,speed,,,,,0.0,1.0,1.0,1.0,3.0,0.0,6.0,1.0,273.6123882000102,,,,,,,,,273.60148399998434,274.4112555999891,275.21163360000355,275.19503040000563,275.19507800001884,275.21163360000355,275.21163360000355,275.21163360000355,,275.6285815999727,right,1.0,26.620857999951117,,,,,,,,,,,,,,,,,,,,,,,,,,,,,,sub-024,1.0,random_dot,60.08871496876529,
left,left,speed,,,,,0.0,1.0,1.0,1.0,3.0,1.0,7.0,0.0,275.6433883999707,,,,,,,,,275.6293828000198,275.9930591000011,276.7938312999904,276.77751069999067,276.77756610000506,276.7938312999904,276.7938312999904,276.7938312999904,,277.4954538000165,left,1.0,26.89815790002467,,,,,,,,,,,,,,,,,,,,,,,,,,,,,,sub-024,1.0,random_dot,60.08871496876529,
left,left,speed,,,,,0.0,1.0,1.0,1.0,4.0,0.0,8.0,0.0,277.50906279997434,,,,,,,,,277.498373200011,278.3077858000179,279.1080780000193,279.0913189999992,279.0913443000172,279.1080780000193,279.1080780000193,279.1080780000193,,279.69150359998457,left,1.0,26.77446779998718,,,,,,,,,,,,,,,,,,,,,,,,,,,,,,sub-024,1.0,random_dot,60.08871496876529,
right,right,speed,,,,,0.0,1.0,1.0,1.0,4.0,1.0,9.0,1.0,279.7062078000163,,,,,,,,,279.6923578999704,280.0559652000084,280.85636490001343,280.8395454999991,280.83957999997074,280.85636490001343,280.85636490001343,280.85636490001343,,281.34092119999696,right,1.0,26.68838449998293,,,,,,,,,,,,,,,,,,,,,,,,,,,,,,sub-024,1.0,random_dot,60.08871496876529,
left,left,speed,,,,,0.0,1.0,1.0,1.0,5.0,0.0,10.0,0.0,281.35479930002475,,,,,,,,,281.3425583000062,282.55375309998635,283.35420579998754,283.3369321000064,283.33695779996924,283.35420579998754,283.35420579998754,283.35420579998754,,283.7711066000047,left,1.0,26.612129999964964,,,,,,,,,,,,,,,,,,,,,,,,,,,,,,sub-024,1.0,random_dot,60.08871496876529,
right,right,speed,,,,,0.0,1.0,1.0,1.0,5.0,1.0,11.0,1.0,283.785792700015,,,,,,,,,283.7719588999753,284.1354950999957,284.9362343000248,284.9200718000065,284.9201343000168,284.9362343000248,284.9362343000248,284.9362343000248,,285.5029183999868,right,1.0,26.75661109999055,,,,,,,,,,,,,,,,,,,,,,,,,,,,,,sub-024,1.0,random_dot,60.08871496876529,
left,left,speed,,,,,0.0,1.0,1.0,1.0,6.0,0.0,12.0,0.0,285.5177210000111,,,,,,,,,285.50414420000743,285.61812970001483,286.43429060000926,286.4177236999967,286.4177531999885,286.43429060000926,286.43429060000926,286.43429060000926,,287.21902879996924,left,1.0,26.98383049998665,,,,,,,,,,,,,,,,,,,,,,,,,,,,,,sub-024,1.0,random_dot,60.08871496876529,
right,right,speed,,,,,0.0,1.0,1.0,1.0,6.0,1.0,13.0,1.0,287.2329000000027,,,,,,,,,287.2211726999958,287.33301770000253,288.13301109999884,288.1161404000013,288.1161696999916,288.13301109999884,288.13301109999884,288.13301109999884,,288.65040599997155,right,1.0,26.720248900004663,,,,,,,,,,,,,,,,,,,,,,,,,,,,,,sub-024,1.0,random_dot,60.08871496876529,
right,right,speed,,,,,0.0,1.0,1.0,1.0,7.0,0.0,14.0,1.0,288.6646915000165,,,,,,,,,288.651826300018,289.8641390000121,290.6639009999926,290.64830880000954,290.64837269997224,290.6639009999926,290.6639009999926,290.6639009999926,,291.54781429999275,left,0.0,27.079392099985853,,,,,,,,,,,,,,,,,,,,,,,,,,,,,,sub-024,1.0,random_dot,60.08871496876529,
left,left,speed,,,,,0.0,1.0,1.0,1.0,7.0,1.0,15.0,0.0,291.56210689997533,,,,,,,,,291.54954540001927,292.7609217999852,293.56140309997136,293.54542859998764,293.5454899999895,293.56140309997136,293.56140309997136,293.56140309997136,,294.61159759998554,left,1.0,27.248962700017728,,,,,,,,,,,,,,,,,,,,,,,,,,,,,,sub-024,1.0,random_dot,60.08871496876529,
left,left,speed,,,,,0.0,1.0,1.0,1.0,8.0,0.0,16.0,0.0,294.6257650000043,,,,,,,,,294.6135018999921,295.42548490001354,296.225423099997,296.2091320999898,296.20918319997145,296.225423099997,296.225423099997,296.225423099997,,296.5590771000134,right,0.0,26.527620300010312,,,,,,,,,,,,,,,,,,,,,,,,,,,,,,sub-024,1.0,random_dot,60.08871496876529,
right,right,speed,,,,,0.0,1.0,1.0,1.0,8.0,1.0,17.0,1.0,296.5742173999897,,,,,,,,,296.5599826999824,297.37385679996805,298.1902772000176,298.1737752999761,298.17382720002206,298.1902772000176,298.1902772000176,298.1902772000176,,298.726006700017,right,1.0,26.73727380001219,,,,,,,,,,,,,,,,,,,,,,,,,,,,,,sub-024,1.0,random_dot,60.08871496876529,
right,right,speed,,,,,0.0,1.0,1.0,1.0,9.0,0.0,18.0,1.0,298.73896930000046,,,,,,,,,298.72930000000633,299.0888784999843,299.8885754999937,299.8718452000176,299.8718704999774,299.8885754999937,299.8885754999937,299.8885754999937,,300.7569692999823,right,1.0,27.072659400000703,,,,,,,,,,,,,,,,,,,,,,,,,,,,,,sub-024,1.0,random_dot,60.08871496876529,
left,left,speed,,,,,0.0,1.0,1.0,1.0,9.0,1.0,19.0,0.0,300.7703129000147,,,,,,,,,300.75929439999163,301.1201457999996,301.92039210000075,301.90383259998634,301.90387109998846,301.92039210000075,301.92039210000075,301.92039210000075,,302.4379652999924,left,1.0,26.70703049999429,,,,,,,,,,,,,,,,,,,,,,,,,,,,,,sub-024,1.0,random_dot,60.08871496876529,
right,right,speed,,,,,0.0,1.0,1.0,1.0,10.0,0.0,20.0,1.0,302.45206849998794,,,,,,,,,302.43982759997016,303.65110070002265,304.45101469999645,304.4344070000225,304.43443889997434,304.45101469999645,304.45101469999645,304.45101469999645,,305.18567899998743,right,1.0,26.923825099947862,,,,,,,,,,,,,,,,,,,,,,,,,,,,,,sub-024,1.0,random_dot,60.08871496876529,
left,left,speed,,,,,0.0,1.0,1.0,1.0,10.0,1.0,21.0,0.0,305.19927290000487,,,,,,,,,305.18769190000603,305.9990906000021,306.8154208000051,306.7989087000024,306.7989457999938,306.8154208000051,306.8154208000051,306.8154208000051,,307.33393219998106,left,1.0,26.72292309999466,,,,,,,,,,,,,,,,,,,,,,,,,,,,,,sub-024,1.0,random_dot,60.08871496876529,
right,right,speed,,,,,0.0,1.0,1.0,1.0,11.0,0.0,22.0,1.0,307.3474655000027,,,,,,,,,307.33575909998035,307.6976760000107,308.51419020001777,308.4981988000218,308.4982612999738,308.51419020001777,308.51419020001777,308.51419020001777,,309.16458059998695,right,1.0,26.851624699949756,,,,,,,,,,,,,,,,,,,,,,,,,,,,,,sub-024,1.0,random_dot,60.08871496876529,
left,left,speed,,,,,0.0,1.0,1.0,1.0,11.0,1.0,23.0,0.0,309.17899809998926,,,,,,,,,309.1661247999873,309.9785149000236,310.7788055000128,310.76284410001244,310.76291960000526,310.7788055000128,310.7788055000128,310.7788055000128,,311.1966905000154,left,1.0,26.622049999947198,,,,,,,,,,,,,,,,,,,,,,,,,,,,,,sub-024,1.0,random_dot,60.08871496876529,
left,left,speed,,,,,0.0,1.0,1.0,1.0,12.0,0.0,24.0,0.0,311.2106578000239,,,,,,,,,311.19867559999693,312.0099337999709,312.8263827000046,312.8092436000006,312.80925930000376,312.8263827000046,312.8263827000046,312.8263827000046,,313.2766437000246,left,1.0,26.646067499998026,,,,,,,,,,,,,,,,,,,,,,,,,,,,,,sub-024,1.0,random_dot,60.08871496876529,
right,right,speed,,,,,0.0,1.0,1.0,1.0,12.0,1.0,25.0,1.0,313.2915671999799,,,,,,,,,313.27742539998144,313.6412214000011,314.4419914999744,314.42551650002133,314.42558859998826,314.4419914999744,314.4419914999744,314.4419914999744,,315.07647119998,right,1.0,26.832206399994902,,,,,,,,,,,,,,,,,,,,,,,,,,,,,,sub-024,1.0,random_dot,60.08871496876529,
right,right,speed,,,,,0.0,1.0,1.0,1.0,13.0,0.0,26.0,1.0,315.09047489997465,,,,,,,,,315.0788398999721,316.28893169999355,317.0891064999741,317.0723498999723,317.0723857000121,317.0891064999741,317.0891064999741,317.0891064999741,,317.6084574999986,right,1.0,26.72119369998109,,,,,,,,,,,,,,,,,,,,,,,,,,,,,,sub-024,1.0,random_dot,60.08871496876529,
left,left,speed,,,,,0.0,1.0,1.0,1.0,13.0,1.0,27.0,0.0,317.6213851000066,,,,,,,,,317.6114757999894,318.42014729999937,319.2203309999895,319.2033718000166,319.2033911999897,319.2203309999895,319.2203309999895,319.2203309999895,,319.904002700001,left,1.0,26.887569900020026,,,,,,,,,,,,,,,,,,,,,,,,,,,,,,sub-024,1.0,random_dot,60.08871496876529,
left,left,speed,,,,,0.0,1.0,1.0,1.0,14.0,0.0,28.0,0.0,319.9187115000095,,,,,,,,,319.9049455000204,320.2684011000092,321.06911500002025,321.05328689998714,321.05334849999053,321.06911500002025,321.06911500002025,321.06911500002025,,321.75249169999734,right,0.0,26.876327499980107,,,,,,,,,,,,,,,,,,,,,,,,,,,,,,sub-024,1.0,random_dot,60.08871496876529,
right,right,speed,,,,,0.0,1.0,1.0,1.0,14.0,1.0,29.0,1.0,321.7670156999957,,,,,,,,,321.7533305999823,322.117266700021,322.91741829999955,322.90122080000583,322.90127590001794,322.91741829999955,322.91741829999955,322.91741829999955,,323.5680942999897,left,0.0,26.84140769997612,,,,,,,,,,,,,,,,,,,,,,,,,,,,,,sub-024,1.0,random_dot,60.08871496876529,
right,right,speed,,,,,0.0,1.0,1.0,1.0,15.0,0.0,30.0,1.0,323.5824307000148,,,,,,,,,323.56946560001234,323.9323817999684,324.7321821000078,324.715878100018,324.71592380001675,324.7321821000078,324.7321821000078,324.7321821000078,,325.3832043000148,right,1.0,26.84290539997164,,,,,,,,,,,,,,,,,,,,,,,,,,,,,,sub-024,1.0,random_dot,60.08871496876529,
left,left,speed,,,,,0.0,1.0,1.0,1.0,15.0,1.0,31.0,0.0,325.3973953999812,,,,,,,,,325.38521570002194,325.4974083999987,326.2974153999821,326.2815962000168,326.2816587999696,326.2974153999821,326.2974153999821,326.2974153999821,,327.03152670001145,left,1.0,26.93321520002792,,,,,,,,,,,,,,,,,,,,,,,,,,,,,,sub-024,1.0,random_dot,60.08871496876529,
right,right,speed,,,,,0.0,1.0,1.0,1.0,16.0,0.0,32.0,1.0,327.0454527999973,,,,,,,,,327.0329423000221,327.8451864999952,328.645521199971,328.629500799987,328.62956719996873,328.645521199971,328.645521199971,328.645521199971,,329.39701700001024,right,1.0,26.94479019998107,,,,,,,,,,,,,,,,,,,,,,,,,,,,,,sub-024,1.0,random_dot,60.08871496876529,
left,left,speed,,,,,0.0,1.0,1.0,1.0,16.0,1.0,33.0,0.0,329.4105014000088,,,,,,,,,329.39992399996845,330.60909029998584,331.4094541000086,331.39356709999265,331.3936397000216,331.4094541000086,331.4094541000086,331.4094541000086,,332.3435937999748,left,1.0,27.13207940000575,,,,,,,,,,,,,,,,,,,,,,,,,,,,,,sub-024,1.0,random_dot,60.08871496876529,
right,right,speed,,,,,0.0,1.0,1.0,1.0,17.0,0.0,34.0,1.0,332.35755959997186,,,,,,,,,332.3453448999789,332.7073794999742,333.50740489998134,333.49147980002454,333.4915349999792,333.50740489998134,333.50740489998134,333.50740489998134,,334.1917134000105,right,1.0,26.8767992000212,,,,,,,,,,,,,,,,,,,,,,,,,,,,,,sub-024,1.0,random_dot,60.08871496876529,
left,left,speed,,,,,0.0,1.0,1.0,1.0,17.0,1.0,35.0,0.0,334.205857599969,,,,,,,,,334.1936082000029,334.5557709999848,335.35564510000404,335.33955899998546,335.33961439999985,335.35564510000404,335.35564510000404,335.35564510000404,,336.2906657999847,left,1.0,27.134699899994303,,,,,,,,,,,,,,,,,,,,,,,,,,,,,,sub-024,1.0,random_dot,60.08871496876529,
right,right,speed,,,,,0.0,1.0,1.0,1.0,18.0,0.0,36.0,1.0,336.3041977999965,,,,,,,,,336.29366099997424,337.5030674000154,338.30272699997295,338.2871173999738,338.287189900002,338.30272699997295,338.30272699997295,338.30272699997295,,338.8707247999846,right,1.0,26.76478500000667,,,,,,,,,,,,,,,,,,,,,,,,,,,,,,sub-024,1.0,random_dot,60.08871496876529,
left,left,speed,,,,,0.0,1.0,1.0,1.0,18.0,1.0,37.0,0.0,338.8845542999916,,,,,,,,,338.87272260000464,339.68424769997364,340.50054109998746,340.48348360002274,340.48350319999736,340.50054109998746,340.50054109998746,340.50054109998746,,341.3511679000221,right,0.0,27.040108599991072,,,,,,,,,,,,,,,,,,,,,,,,,,,,,,sub-024,1.0,random_dot,60.08871496876529,
right,right,speed,,,,,0.0,1.0,1.0,1.0,19.0,0.0,38.0,1.0,341.3655829000054,,,,,,,,,341.3523114999989,342.1652148999856,342.96515200001886,342.9487533000065,342.9487921000109,342.96515200001886,342.96515200001886,342.96515200001886,,343.699990299996,left,0.0,26.925146499997936,,,,,,,,,,,,,,,,,,,,,,,,,,,,,,sub-024,1.0,random_dot,60.08871496876529,
left,left,speed,,,,,0.0,1.0,1.0,1.0,19.0,1.0,39.0,0.0,343.713480299979,,,,,,,,,343.70216420001816,344.9125365000218,345.71257430000696,345.6954654000001,345.6954870999907,345.71257430000696,345.71257430000696,345.71257430000696,,346.7795193999773,right,0.0,27.263345399987884,,,,,,,,,,,,,,,,,,,,,,,,,,,,,,sub-024,1.0,random_dot,60.08871496876529,
right,right,speed,,,,,0.0,1.0,1.0,1.0,20.0,0.0,40.0,1.0,346.79411499999696,,,,,,,,,346.7811595000094,346.893922200019,347.69444849999854,347.67806639999617,347.6781217000098,347.69444849999854,347.69444849999854,347.69444849999854,,348.57736290001776,right,1.0,27.085995999979787,,,,,,,,,,,,,,,,,,,,,,,,,,,,,,sub-024,1.0,random_dot,60.08871496876529,
left,left,speed,,,,,0.0,1.0,1.0,1.0,20.0,1.0,41.0,0.0,348.5919630000135,,,,,,,,,348.5782067999826,348.69190289999824,349.4923217999749,349.47528369998327,349.4753058999777,349.4923217999749,349.4923217999749,349.4923217999749,,350.00912409997545,left,1.0,26.71242589998292,,,,,,,,,,,,,,,,,,,,,,,,,,,,,,sub-024,1.0,random_dot,60.08871496876529,
right,right,speed,,,,,0.0,1.0,1.0,1.0,21.0,0.0,42.0,1.0,350.0239518000162,,,,,,,,,350.00997010001447,351.2228011999978,352.0231606999878,352.0061853000079,352.00620699999854,352.0231606999878,352.0231606999878,352.0231606999878,,352.5924997999682,right,1.0,26.772985599993262,,,,,,,,,,,,,,,,,,,,,,,,,,,,,,sub-024,1.0,random_dot,60.08871496876529,
left,left,speed,,,,,0.0,1.0,1.0,1.0,21.0,1.0,43.0,0.0,352.6052732000244,,,,,,,,,352.5951920999796,352.9553606999689,353.7718423000188,353.75479279999854,353.7548100000131,353.7718423000188,353.7718423000188,353.7718423000188,,354.29043489997275,right,0.0,26.71343519998481,,,,,,,,,,,,,,,,,,,,,,,,,,,,,,sub-024,1.0,random_dot,60.08871496876529,
left,left,speed,,,,,0.0,1.0,1.0,1.0,22.0,0.0,44.0,0.0,354.3039744999842,,,,,,,,,354.2931159000145,354.65299199998844,355.45373309997376,355.4376958999783,355.4377597999992,355.45373309997376,355.45373309997376,355.45373309997376,,356.32136980001815,right,0.0,27.0617457999615,,,,,,,,,,,,,,,,,,,,,,,,,,,,,,sub-024,1.0,random_dot,60.08871496876529,
right,right,speed,,,,,0.0,1.0,1.0,1.0,22.0,1.0,45.0,1.0,356.3350345999934,,,,,,,,,356.3235990999965,356.6849543999997,357.48511070001405,357.46940569998696,357.4694667999865,357.48511070001405,357.48511070001405,357.48511070001405,,358.12003539997386,right,1.0,26.825329400016926,,,,,,,,,,,,,,,,,,,,,,,,,,,,,,sub-024,1.0,random_dot,60.08871496876529,
left,left,speed,,,,,0.0,1.0,1.0,1.0,23.0,0.0,46.0,0.0,358.13319369999226,,,,,,,,,358.1231902000145,359.3326099999831,360.1324802999734,360.1164762999979,360.11653719999595,360.1324802999734,360.1324802999734,360.1324802999734,,360.8668625999708,left,1.0,26.93325320002623,,,,,,,,,,,,,,,,,,,,,,,,,,,,,,sub-024,1.0,random_dot,60.08871496876529,
right,right,speed,,,,,0.0,1.0,1.0,1.0,23.0,1.0,47.0,1.0,360.8809082999942,,,,,,,,,360.86902069998905,360.9811583000119,361.7810265999869,361.7652822000091,361.7653467999771,361.7810265999869,361.7810265999869,361.7810265999869,,362.8152532000095,right,1.0,27.223410099977627,,,,,,,,,,,,,,,,,,,,,,,,,,,,,,sub-024,1.0,random_dot,60.08871496876529,
right,right,speed,,,,,0.0,1.0,1.0,1.0,24.0,0.0,48.0,1.0,362.8291879000026,,,,,,,,,362.8176185999764,364.028200700006,364.8450600000215,364.8286349999835,364.8286900999956,364.8450600000215,364.8450600000215,364.8450600000215,,366.2611743999878,left,0.0,27.61279320000904,,,,,,,,,,,,,,,,,,,,,,,,,,,,,,sub-024,1.0,random_dot,60.08871496876529,
left,left,speed,,,,,0.0,1.0,1.0,1.0,24.0,1.0,49.0,0.0,366.2754462999874,,,,,,,,,366.26237630000105,366.3753664999968,367.1763706000056,367.1601559999981,367.1602443999727,367.1763706000056,367.1763706000056,367.1763706000056,,367.8780107999919,left,1.0,26.90298259997508,,,,,,,,,,,,,,,,,,,,,,,,,,,,,,sub-024,1.0,random_dot,60.08871496876529,
left,left,speed,,,,,0.0,1.0,1.0,1.0,25.0,0.0,50.0,0.0,367.8911310000112,,,,,,,,,367.88092760002473,369.0901541999774,369.8903301999672,369.87437530001625,369.87443769996753,369.8903301999672,369.8903301999672,369.8903301999672,,370.5413608999807,right,0.0,26.84496690001106,,,,,,,,,,,,,,,,,,,,,,,,,,,,,,sub-024,1.0,random_dot,60.08871496876529,
right,right,speed,,,,,0.0,1.0,1.0,1.0,25.0,1.0,51.0,1.0,370.5551263000234,,,,,,,,,370.54336030001286,370.9052300999756,371.7051957999938,371.6892485999852,371.68931119999615,371.7051957999938,371.7051957999938,371.7051957999938,,372.4241651999764,right,1.0,26.911122599965893,,,,,,,,,,,,,,,,,,,,,,,,,,,,,,sub-024,1.0,random_dot,60.08871496876529,
right,right,speed,,,,,0.0,1.0,1.0,1.0,26.0,0.0,52.0,1.0,372.4368586000055,,,,,,,,,372.4276101000141,373.6359586999752,374.4360001999885,374.4194496999844,374.4194909000071,374.4360001999885,374.4360001999885,374.4360001999885,,374.9040391999879,left,0.0,26.662408499978483,,,,,,,,,,,,,,,,,,,,,,,,,,,,,,sub-024,1.0,random_dot,60.08871496876529,
left,left,speed,,,,,0.0,1.0,1.0,1.0,26.0,1.0,53.0,0.0,374.9176711000037,,,,,,,,,374.906204400002,375.7174656999996,376.51736330002313,376.500884899986,376.5009265000117,376.51736330002313,376.51736330002313,376.51736330002313,,377.4182504999917,left,1.0,27.102608199988023,,,,,,,,,,,,,,,,,,,,,,,,,,,,,,sub-024,1.0,random_dot,60.08871496876529,
left,left,speed,,,,,0.0,1.0,1.0,1.0,27.0,0.0,54.0,0.0,377.4322549999925,,,,,,,,,377.4204591999878,377.5323648999911,378.3326457000221,378.3164873999776,378.3165502999909,378.3326457000221,378.3326457000221,378.3326457000221,,380.0644465999794,left,1.0,27.92558729997836,,,,,,,,,,,,,,,,,,,,,,,,,,,,,,sub-024,1.0,random_dot,60.08871496876529,
right,right,speed,,,,,0.0,1.0,1.0,1.0,27.0,1.0,55.0,1.0,380.079334900016,,,,,,,,,380.06540899997344,380.1792076000129,380.9798356000101,380.96375749999424,380.96381230000407,380.9798356000101,380.9798356000101,380.9798356000101,,381.9294377000188,right,1.0,27.154527899983805,,,,,,,,,,,,,,,,,,,,,,,,,,,,,,sub-024,1.0,random_dot,60.08871496876529,
left,left,speed,,,,,0.0,1.0,1.0,1.0,28.0,0.0,56.0,0.0,381.9441666000057,,,,,,,,,381.9302512999857,383.1434368999908,383.9437819999876,383.9276760999928,383.9277408000198,383.9437819999876,383.9437819999876,383.9437819999876,,384.32937449996825,right,0.0,26.58855589997256,,,,,,,,,,,,,,,,,,,,,,,,,,,,,,sub-024,1.0,random_dot,60.08871496876529,
right,right,speed,,,,,0.0,1.0,1.0,1.0,28.0,1.0,57.0,1.0,384.3423906000098,,,,,,,,,384.33226549997926,384.44259240000974,385.2425189000205,385.2264574000146,385.2265206999728,385.2425189000205,385.2425189000205,385.2425189000205,,385.97693409997737,right,1.0,26.938611099962145,,,,,,,,,,,,,,,,,,,,,,,,,,,,,,sub-024,1.0,random_dot,60.08871496876529,
right,right,speed,,,,,0.0,1.0,1.0,1.0,29.0,0.0,58.0,1.0,385.9906119999941,,,,,,,,,385.9787692999817,386.7903917999938,387.5903174999985,387.5743630999932,387.5744466999895,387.5903174999985,387.5903174999985,387.5903174999985,,388.6917084999732,right,1.0,27.30213799997,,,,,,,,,,,,,,,,,,,,,,,,,,,,,,sub-024,1.0,random_dot,60.08871496876529,
left,left,speed,,,,,0.0,1.0,1.0,1.0,29.0,1.0,59.0,0.0,388.704520499974,,,,,,,,,388.6943220000248,389.055018700019,389.8716161000193,389.8551251000026,389.85518090002006,389.8716161000193,389.8716161000193,389.8716161000193,,391.08810439996887,left,1.0,27.40855970000848,,,,,,,,,,,,,,,,,,,,,,,,,,,,,,sub-024,1.0,random_dot,60.08871496876529,
,,speed,,,,,0.0,1.0,1.0,1.0,,,,,,,,,,,,,,,,,,,,,,,,,,,,,,,,,,,,,,,,,,,,,,,,,,,,,,,,sub-024,1.0,random_dot,60.08871496876529,
,,,,,,,,,,,,,,,,,,,,,,,,,,,,,,,,,,,,,,,,,,,,,,,,,,,,,,,,,,,,,,,391.0891361000249,391.10265339998296,396.0984649999882,sub-024,,,,
