direction,corrAns,thisN,thisTrialN,thisRepN,respDots.keys,respDots.corr,respDots.rt,respDots.duration,randomInstr,respRandomInstr.keys,respRandomInstr.rt,respRandomInstr.duration,practice_trials.thisRepN,practice_trials.thisTrialN,practice_trials.thisN,practice_trials.thisIndex,instr_trials.thisRepN,instr_trials.thisTrialN,instr_trials.thisN,instr_trials.thisIndex,test_trials.thisRepN,test_trials.thisTrialN,test_trials.thisN,test_trials.thisIndex,thisRow.t,notes,general_instruction.started,textGeneralInstr.started,respGeneralInstr.started,general_instruction.stopped,respGeneralInstr.keys,respGeneralInstr.rt,respGeneralInstr.duration,ITI.started,fixcross.started,fixcross.stopped,ITI.stopped,dots.started,backgroundDots.started,stimulusDots.started,respDots.started,stimulusDots.stopped,dots.stopped,practice_trials.respDots.keys,practice_trials.respDots.corr,practice_trials.respDots.rt,practice_trials.respDots.duration,feedback.started,textFeedback.started,feedback.stopped,textFeedback.stopped,info.started,textInfo.started,keyRespInfo.started,info.stopped,keyRespInfo.keys,keyRespInfo.rt,keyRespInfo.duration,test_instruction.started,textTestInstr.started,respTestInstr.started,test_instruction.stopped,respTestInstr.keys,respTestInstr.rt,respTestInstr.duration,random_instruction.started,textRandomInstr.started,respRandomInstr.started,random_instruction.stopped,instr_trials.respRandomInstr.keys,instr_trials.respRandomInstr.rt,instr_trials.respRandomInstr.duration,test_trials.respDots.keys,test_trials.respDots.corr,test_trials.respDots.rt,test_trials.respDots.duration,goodbye.started,textGoodbye.started,textGoodbye.stopped,goodbye.stopped,participant,session,expName,frameRate,Unnamed: 88
,,,,,,,,,,,,,,,,,,,,,,,,,,,0.0092523749917745,0.0191117499925894,0.0191117499925894,18.87806095799897,space,18.71208787499927,,,,,,,,,,,,,,,,,,,,,,,,,,,,,,,,,,,,,,,,,,,,,,,,,sub-120,1,random_dot,118.3431378390347,
left,left,0.0,0.0,0.0,left,1.0,6.7481468329933705,,,,,,0.0,0.0,0.0,0.0,,,,,,,,,18.905778374988586,,,,,,,,,18.89635708299465,19.682746832986595,20.484443207998996,20.468884749992867,20.46952516699093,20.484443207998996,20.484443207998996,20.484443207998996,25.456913541987888,27.23664649999409,left,1.0,6.7481468329933705,,27.24698162499408,27.348505207992275,27.74146137500065,,,,,,,,,,,,,,,,,,,,,,,,,,,,,,,sub-120,1,random_dot,118.3431378390347,
right,right,1.0,1.0,0.0,right,1.0,5.0268341670016525,,,,,,0.0,1.0,1.0,1.0,,,,,,,,,27.75199624999368,,,,,,,,,27.74198062499636,27.83506758300064,28.62725833299919,28.618927291987347,28.61951770799351,28.62725833299919,28.62725833299919,28.62725833299919,33.6070533329912,33.66014437499689,right,1.0,5.0268341670016525,,33.66033829200023,33.67232962499838,34.15859283298778,34.168650666993926,,,,,,,,,,,,,,,,,,,,,,,,,,,,,,sub-120,1,random_dot,118.3431378390347,
right,right,2.0,0.0,1.0,left,0.0,1.7114284170093017,,,,,,1.0,0.0,2.0,1.0,,,,,,,,,34.168650666993926,,,,,,,,,34.159097957992344,34.50923966699338,35.301477166998666,35.29198687498865,35.29257445799885,35.301477166998666,35.301477166998666,35.301477166998666,,37.01953091699397,left,0.0,1.7114284170093017,,37.02571212498879,37.03417662499123,37.51898691699898,37.52482604199031,,,,,,,,,,,,,,,,,,,,,,,,,,,,,,sub-120,1,random_dot,118.3431378390347,
left,left,3.0,1.0,1.0,left,1.0,5.60912212500989,,,,,,1.0,1.0,3.0,0.0,,,,,,,,,37.52482604199031,,,,,,,,,37.519462291995296,37.60968529198726,38.41135833298904,38.40255633299239,38.403352082998026,38.41135833298904,38.41135833298904,38.41135833298904,43.40217029199994,44.02652583298914,left,1.0,5.60912212500989,,44.03091020799184,44.04814479198831,44.53560454199032,,,,,,,,,,,,,,,,,,,,,,,,,,,,,,,sub-120,1,random_dot,118.3431378390347,
left,left,4.0,0.0,2.0,right,0.0,5.658007334001013,,,,,,2.0,0.0,4.0,0.0,,,,,,,,,44.54136874999677,,,,,,,,,44.536142624987406,44.87620445799257,45.66834725000081,45.65891924999596,45.65957495798648,45.66834725000081,45.66834725000081,45.66834725000081,50.65232854199712,51.3371695419919,right,0.0,5.658007334001013,,51.34338404198934,51.35225387499668,51.83584758298821,51.84199941699626,,,,,,,,,,,,,,,,,,,,,,,,,,,,,,sub-120,1,random_dot,118.3431378390347,
right,right,5.0,1.0,2.0,right,1.0,4.126345917000435,,,,,,2.0,1.0,5.0,1.0,,,,,,,,,51.84199941699626,,,,,,,,,51.8363623329933,52.63536187499994,53.42791716699139,53.41924908298824,53.41990858298959,53.42791716699139,53.42791716699139,53.42791716699139,,57.56019604198809,right,1.0,4.126345917000435,,57.56475354199938,57.57253279199358,58.05915520800045,58.068939207994845,,,,,,,,,,,,,,,,,,,,,,,,,,,,,,sub-120,1,random_dot,118.3431378390347,
left,left,6.0,0.0,3.0,left,1.0,4.787916249988484,,,,,,3.0,0.0,6.0,0.0,,,,,,,,,58.068939207994845,,,,,,,,,58.05966437498864,58.15849074999278,58.95165366699803,58.94158549999702,58.942121416999726,58.95165366699803,58.95165366699803,58.95165366699803,,63.74394933298754,left,1.0,4.787916249988484,,63.74409499998728,63.75273687498702,64.2360498749913,64.24183470799471,,,,,,,,,,,,,,,,,,,,,,,,,,,,,,sub-120,1,random_dot,118.3431378390347,
right,right,7.0,1.0,3.0,right,1.0,4.5390610419999575,,,,,,3.0,1.0,7.0,1.0,,,,,,,,,64.24183470799471,,,,,,,,,64.23663187499915,64.59281495799951,65.39450170799682,65.38605958299013,65.38662195799407,65.39450170799682,65.39450170799682,65.39450170799682,,69.9366722079867,right,1.0,4.5390610419999575,,69.93684395799937,69.94614220799122,70.43611041699478,70.44194791698828,,,,,,,,,,,,,,,,,,,,,,,,,,,,,,sub-120,1,random_dot,118.3431378390347,
right,right,8.0,0.0,4.0,right,1.0,2.25287841600948,,,,,,4.0,0.0,8.0,1.0,,,,,,,,,70.44194791698828,,,,,,,,,70.43668412498664,70.5259471249883,71.32758529199054,71.3193762919982,71.31993933299964,71.32758529199054,71.32758529199054,71.32758529199054,,73.58650004198716,right,1.0,2.25287841600948,,73.58661308299634,73.59442887498881,74.08606929199595,74.09188787499443,,,,,,,,,,,,,,,,,,,,,,,,,,,,,,sub-120,1,random_dot,118.3431378390347,
left,left,9.0,1.0,4.0,left,1.0,4.945571167001617,,,,,,4.0,1.0,9.0,0.0,,,,,,,,,74.09188787499443,,,,,,,,,74.08654270799889,74.42660341699957,75.227731957988,75.21946504199877,75.22005116699438,75.227731957988,75.227731957988,75.227731957988,,80.17835770799138,left,1.0,4.945571167001617,,80.17852454198874,80.1862077919941,80.66948137499276,80.67527883299044,,,,,,,,,,,,,,,,,,,,,,,,,,,,,,sub-120,1,random_dot,118.3431378390347,
left,left,10.0,0.0,5.0,right,0.0,5.57666849999805,,,,,,5.0,0.0,10.0,0.0,,,,,,,,,80.67527883299044,,,,,,,,,80.67029716698744,80.77544166699226,81.5772406670003,81.56901833300071,81.56975162499293,81.5772406670003,81.5772406670003,81.5772406670003,86.55751112499274,87.16091737498937,right,0.0,5.57666849999805,,87.16545374999987,87.17341745799058,87.65913845799514,87.6694389579934,,,,,,,,,,,,,,,,,,,,,,,,,,,,,,sub-120,1,random_dot,118.3431378390347,
right,right,11.0,1.0,5.0,right,1.0,2.5923805000056745,,,,,,5.0,1.0,11.0,1.0,,,,,,,,,87.6694389579934,,,,,,,,,87.65964270799304,87.75974229199346,88.56179604199133,88.55311524998979,88.5537911249994,88.56179604199133,88.56179604199133,88.56179604199133,,91.16037558300012,right,1.0,2.5923805000056745,,91.16394108299572,91.17379870799778,91.65891041699795,91.66919466698891,,,,,,,,,,,,,,,,,,,,,,,,,,,,,,sub-120,1,random_dot,118.3431378390347,
left,left,12.0,0.0,6.0,left,1.0,3.328113915995345,,,,,,6.0,0.0,12.0,0.0,,,,,,,,,91.66919466698891,,,,,,,,,91.65944570799184,92.00983683299272,92.81193254199752,92.80301374998815,92.80368362499576,92.81193254199752,92.81193254199752,92.81193254199752,,96.1440665419941,left,1.0,3.328113915995345,,96.14420612499816,96.15232287498657,96.63625337499252,96.64201399999727,,,,,,,,,,,,,,,,,,,,,,,,,,,,,,sub-120,1,random_dot,118.3431378390347,
right,right,13.0,1.0,6.0,right,1.0,3.1072698750067502,,,,,,6.0,1.0,13.0,1.0,,,,,,,,,96.64201399999727,,,,,,,,,96.636728707992,97.8431649999984,98.64433029199428,98.63622454198776,98.63681404199453,98.64433029199428,98.64433029199428,98.64433029199428,,101.75331941699552,right,1.0,3.1072698750067502,,101.75346091699612,101.76163124998855,102.2529849579878,102.25848820799727,,,,,,,,,,,,,,,,,,,,,,,,,,,,,,sub-120,1,random_dot,118.3431378390347,
left,left,14.0,0.0,7.0,left,1.0,1.477613165989169,,,,,,7.0,0.0,14.0,0.0,,,,,,,,,102.25848820799727,,,,,,,,,102.25346533299307,102.59343666699716,103.3951036669896,103.3864086669928,103.38709041698894,103.3951036669896,103.3951036669896,103.3951036669896,,104.8770115419902,left,1.0,1.477613165989169,,104.87714958300056,104.8849734999967,105.36967083299533,105.37543691699102,,,,,,,,,,,,,,,,,,,,,,,,,,,,,,sub-120,1,random_dot,118.3431378390347,
right,right,15.0,1.0,7.0,right,1.0,5.455187999992631,,,,,,7.0,1.0,15.0,1.0,,,,,,,,,105.37543691699102,,,,,,,,,105.37015729199628,105.4768534169998,106.2785479999875,106.26965654199012,106.27027333299338,106.2785479999875,106.2785479999875,106.2785479999875,111.25817375000042,111.73771229200064,right,1.0,5.455187999992631,,111.7379342919885,111.74807791700005,112.236442333,112.24189645799925,,,,,,,,,,,,,,,,,,,,,,,,,,,,,,sub-120,1,random_dot,118.3431378390347,
right,right,16.0,0.0,8.0,left,0.0,2.7142297090031207,,,,,,8.0,0.0,16.0,1.0,,,,,,,,,112.24189645799925,,,,,,,,,112.23693387499952,112.33614699999453,113.12763724999968,113.11943741698632,113.12000220798654,113.12763724999968,113.12763724999968,113.12763724999968,,115.84403529200064,left,0.0,2.7142297090031207,,115.84799304199989,115.8568723329954,116.34171424999658,116.35276949999388,,,,,,,,,,,,,,,,,,,,,,,,,,,,,,sub-120,1,random_dot,118.3431378390347,
left,left,17.0,1.0,8.0,left,1.0,4.798826750004082,,,,,,8.0,1.0,17.0,0.0,,,,,,,,,116.35276949999388,,,,,,,,,116.34213183299288,117.1435879579949,117.9454889579938,117.9366276669898,117.93731949999346,117.9454889579938,117.9454889579938,117.9454889579938,,122.7542012079939,left,1.0,4.798826750004082,,122.75886158298816,122.76755587499063,123.25326779199531,123.2591862919944,,,,,,,,,,,,,,,,,,,,,,,,,,,,,,sub-120,1,random_dot,118.3431378390347,
right,right,18.0,0.0,9.0,left,0.0,5.5303505409974605,,,,,,9.0,0.0,18.0,1.0,,,,,,,,,123.2591862919944,,,,,,,,,123.25384937498892,123.35248541699548,124.14478704199428,124.13654054199289,124.13711820798926,124.14478704199428,124.14478704199428,124.14478704199428,129.124605332996,129.67675037498702,left,0.0,5.5303505409974605,,129.68069512498914,129.6900397499994,130.17663179199735,130.18614766698738,,,,,,,,,,,,,,,,,,,,,,,,,,,,,,sub-120,1,random_dot,118.3431378390347,
left,left,19.0,1.0,9.0,right,0.0,5.511688791011693,,,,,,9.0,1.0,19.0,0.0,,,,,,,,,130.18614766698738,,,,,,,,,130.17713033298787,130.9770414999948,131.77804329199716,131.76994308299618,131.7705332919868,131.77804329199716,131.77804329199716,131.77804329199716,136.75786354199226,137.29425391698896,right,0.0,5.511688791011693,,137.2944277919887,137.30437266700028,137.7918009999994,137.8024779579864,,,,,,,,,,,,,,,,,,,,,,,,,,,,,,sub-120,1,random_dot,118.3431378390347,
,,,,,,,,,,,,,,,,,,,,,,,,,,,,,,,,,,,,,,,,,,,,,,,,,,,,137.7920467919903,137.8024779579864,137.8024779579864,144.08819650000078,space,6.280259209001088,,,,,,,,,,,,,,,,,,,,,,,,sub-120,1,random_dot,118.3431378390347,
,,,,,,,,,,,,,,,,,,,,,,,,,,,,,,,,,,,,,,,,,,,,,,,,,,,,,,,,,,,144.08834279199073,144.10151983299875,144.10151983299875,153.85465199999453,space,9.74260325000796,,,,,,,,,,,,,,,,,sub-120,1,random_dot,118.3431378390347,
right,right,0.0,0.0,0.0,right,1.0,1.014596833003452,,speed,space,2.7657950410066405,,,,,,0.0,0.0,0.0,1.0,0.0,0.0,0.0,1.0,156.677663208,,,,,,,,,156.6692344579933,157.86067941699002,158.66183745799935,158.65338324999902,158.6539879579941,158.66183745799935,158.66183745799935,158.66183745799935,,159.68732208298752,,,,,,,,,,,,,,,,,,,,,,,153.87977162499735,153.88895562499238,153.88895562499238,156.6603368329961,space,2.7657950410066405,,right,1.0,1.014596833003452,,,,,,sub-120,1,random_dot,118.3431378390347,
left,left,1.0,1.0,0.0,left,1.0,1.187300707999384,,speed,space,2.7657950410066405,,,,,,0.0,0.0,0.0,1.0,0.0,1.0,1.0,0.0,159.69188454200048,,,,,,,,,159.6877530419879,159.78646262499387,160.5783023330005,160.57026499998756,160.57087095799216,160.5783023330005,160.5783023330005,160.5783023330005,,161.77090762498847,,,,,,,,,,,,,,,,,,,,,,,,,,,,,,left,1.0,1.187300707999384,,,,,,sub-120,1,random_dot,118.3431378390347,
right,right,2.0,0.0,1.0,right,1.0,1.4379036669997731,,speed,space,2.7657950410066405,,,,,,0.0,0.0,0.0,1.0,1.0,0.0,2.0,1.0,161.7789579169912,,,,,,,,,161.7713961249974,162.56085379199067,163.36157741698844,163.35337104198695,163.35393225000007,163.36157741698844,163.36157741698844,163.36157741698844,,164.80383641699154,,,,,,,,,,,,,,,,,,,,,,,,,,,,,,right,1.0,1.4379036669997731,,,,,,sub-120,1,random_dot,118.3431378390347,
left,left,3.0,1.0,1.0,right,0.0,2.1882294160022866,,speed,space,2.7657950410066405,,,,,,0.0,0.0,0.0,1.0,1.0,1.0,3.0,0.0,164.81178270799865,,,,,,,,,164.8043228329916,165.5929290829954,166.38595845799136,166.37585045798917,166.3764135419915,166.38595845799136,166.38595845799136,166.38595845799136,,168.57759716699366,,,,,,,,,,,,,,,,,,,,,,,,,,,,,,right,0.0,2.1882294160022866,,,,,,sub-120,1,random_dot,118.3431378390347,
right,right,4.0,0.0,2.0,left,0.0,2.6757314999995288,,speed,space,2.7657950410066405,,,,,,0.0,0.0,0.0,1.0,2.0,0.0,4.0,1.0,168.58560066699283,,,,,,,,,168.57807412499096,168.67766162499902,169.47905329198693,169.47025920799933,169.47089258299093,169.47905329198693,169.47905329198693,169.47905329198693,,172.16081387498707,,,,,,,,,,,,,,,,,,,,,,,,,,,,,,left,0.0,2.6757314999995288,,,,,,sub-120,1,random_dot,118.3431378390347,
left,left,5.0,1.0,2.0,right,0.0,2.748900209000567,,speed,space,2.7657950410066405,,,,,,0.0,0.0,0.0,1.0,2.0,1.0,5.0,0.0,172.1688054999977,,,,,,,,,172.16131512499123,172.51102524998714,173.3124214579875,173.30375462499796,173.3044138749974,173.3124214579875,173.3124214579875,173.3124214579875,,176.07058070799394,,,,,,,,,,,,,,,,,,,,,,,,,,,,,,right,0.0,2.748900209000567,,,,,,sub-120,1,random_dot,118.3431378390347,
left,left,6.0,0.0,3.0,left,1.0,1.9702461670094635,,speed,space,2.7657950410066405,,,,,,0.0,0.0,0.0,1.0,3.0,0.0,6.0,0.0,176.07844708299672,,,,,,,,,176.0710732919979,176.16096937499242,176.9619655419956,176.9536720420001,176.9542617499974,176.9619655419956,176.9619655419956,176.9619655419956,,178.9372202079976,,,,,,,,,,,,,,,,,,,,,,,,,,,,,,left,1.0,1.9702461670094635,,,,,,sub-120,1,random_dot,118.3431378390347,
right,right,7.0,1.0,3.0,right,1.0,1.6159429580002325,,speed,space,2.7657950410066405,,,,,,0.0,0.0,0.0,1.0,3.0,1.0,7.0,1.0,178.94481824999093,,,,,,,,,178.93770058298833,179.02634424999997,179.82844116698834,179.8202820000006,179.8208478329907,179.82844116698834,179.82844116698834,179.82844116698834,,181.4543311669986,,,,,,,,,,,,,,,,,,,,,,,,,,,,,,right,1.0,1.6159429580002325,,,,,,sub-120,1,random_dot,118.3431378390347,
right,right,8.0,0.0,4.0,left,0.0,3.2614525420067366,,speed,space,2.7657950410066405,,,,,,0.0,0.0,0.0,1.0,4.0,0.0,8.0,1.0,181.4629092499963,,,,,,,,,181.4548445419932,182.2440293749969,183.0458875419863,183.0369869999995,183.03766645799624,183.0458875419863,183.0458875419863,183.0458875419863,,186.31155862499145,,,,,,,,,,,,,,,,,,,,,,,,,,,,,,left,0.0,3.2614525420067366,,,,,,sub-120,1,random_dot,118.3431378390347,
left,left,9.0,1.0,4.0,right,0.0,2.7073148749914253,,speed,space,2.7657950410066405,,,,,,0.0,0.0,0.0,1.0,4.0,1.0,9.0,0.0,186.31961124998637,,,,,,,,,186.3120493749884,187.1106749169994,187.91258591698715,187.9038193749875,187.90450320798843,187.91258591698715,187.91258591698715,187.91258591698715,,190.62973858299665,,,,,,,,,,,,,,,,,,,,,,,,,,,,,,right,0.0,2.7073148749914253,,,,,,sub-120,1,random_dot,118.3431378390347,
right,right,10.0,0.0,5.0,left,0.0,1.8833962089993288,,speed,space,2.7657950410066405,,,,,,0.0,0.0,0.0,1.0,5.0,0.0,10.0,1.0,190.63607791699175,,,,,,,,,190.6301271669945,190.72619929199573,191.5195225419884,191.50908445799723,191.50953837498676,191.5195225419884,191.5195225419884,191.5195225419884,,193.40417087498645,,,,,,,,,,,,,,,,,,,,,,,,,,,,,,left,0.0,1.8833962089993288,,,,,,sub-120,1,random_dot,118.3431378390347,
left,left,11.0,1.0,5.0,left,1.0,0.941941582990694,,speed,space,2.7657950410066405,,,,,,0.0,0.0,0.0,1.0,5.0,1.0,11.0,0.0,193.41279933298935,,,,,,,,,193.40470654198725,193.74410204199376,194.54526966699632,194.536999457996,194.5375517079956,194.54526966699632,194.54526966699632,194.54526966699632,,195.4942273749912,,,,,,,,,,,,,,,,,,,,,,,,,,,,,,left,1.0,0.941941582990694,,,,,,sub-120,1,random_dot,118.3431378390347,
right,right,12.0,0.0,6.0,left,0.0,1.3210540000000035,,speed,space,2.7657950410066405,,,,,,0.0,0.0,0.0,1.0,6.0,0.0,12.0,1.0,195.5030248749972,,,,,,,,,195.49459808299437,195.593287249998,196.3861956249893,196.3765107079962,196.3770853329916,196.3861956249893,196.3861956249893,196.3861956249893,,197.7112736669951,,,,,,,,,,,,,,,,,,,,,,,,,,,,,,left,0.0,1.3210540000000035,,,,,,sub-120,1,random_dot,118.3431378390347,
left,left,13.0,1.0,6.0,right,0.0,2.83518616699439,,speed,space,2.7657950410066405,,,,,,0.0,0.0,0.0,1.0,6.0,1.0,13.0,0.0,197.71962441699,,,,,,,,,197.7118378749874,198.06133687499096,198.86195116699676,198.8538476669928,198.85440779199416,198.86195116699676,198.86195116699676,198.86195116699676,,201.7047746669996,,,,,,,,,,,,,,,,,,,,,,,,,,,,,,right,0.0,2.83518616699439,,,,,,sub-120,1,random_dot,118.3431378390347,
right,right,14.0,0.0,7.0,left,0.0,1.9886269579874352,,speed,space,2.7657950410066405,,,,,,0.0,0.0,0.0,1.0,7.0,0.0,14.0,1.0,201.7133820829913,,,,,,,,,201.7053883329936,202.05325416699637,202.84553295798835,202.83719837499663,202.83776558299724,202.84553295798835,202.84553295798835,202.84553295798835,,204.83768408298783,,,,,,,,,,,,,,,,,,,,,,,,,,,,,,left,0.0,1.9886269579874352,,,,,,sub-120,1,random_dot,118.3431378390347,
left,left,15.0,1.0,7.0,right,0.0,1.480950083991047,,speed,space,2.7657950410066405,,,,,,0.0,0.0,0.0,1.0,7.0,1.0,15.0,0.0,204.84669674999896,,,,,,,,,204.8382454579987,205.6279968329909,206.42960233299527,206.42067845798735,206.42133358299907,206.42960233299527,206.42960233299527,206.42960233299527,,207.92120745799912,,,,,,,,,,,,,,,,,,,,,,,,,,,,,,right,0.0,1.480950083991047,,,,,,sub-120,1,random_dot,118.3431378390347,
left,left,16.0,0.0,8.0,left,1.0,1.9027354169957107,,speed,space,2.7657950410066405,,,,,,0.0,0.0,0.0,1.0,8.0,0.0,16.0,0.0,207.92913724998647,,,,,,,,,207.92171133299416,208.02037345799909,208.8126959579968,208.80403712499535,208.80470229199275,208.8126959579968,208.8126959579968,208.8126959579968,,210.72119037499945,,,,,,,,,,,,,,,,,,,,,,,,,,,,,,left,1.0,1.9027354169957107,,,,,,sub-120,1,random_dot,118.3431378390347,
right,right,17.0,1.0,8.0,right,1.0,1.4528754999919329,,speed,space,2.7657950410066405,,,,,,0.0,0.0,0.0,1.0,8.0,1.0,17.0,1.0,210.72886074999408,,,,,,,,,210.72161345799395,211.51112354198995,212.31270666699857,212.3040282079892,212.30469170799188,212.31270666699857,212.31270666699857,212.31270666699857,,213.7712268329924,,,,,,,,,,,,,,,,,,,,,,,,,,,,,,right,1.0,1.4528754999919329,,,,,,sub-120,1,random_dot,118.3431378390347,
right,right,18.0,0.0,9.0,right,1.0,1.506521999996039,,speed,space,2.7657950410066405,,,,,,0.0,0.0,0.0,1.0,9.0,0.0,18.0,1.0,213.77923429200015,,,,,,,,,213.7717086249904,214.56094816699624,215.36273241699385,215.35393620799005,215.3544977499987,215.36273241699385,215.36273241699385,215.36273241699385,,216.8714408329979,,,,,,,,,,,,,,,,,,,,,,,,,,,,,,right,1.0,1.506521999996039,,,,,,sub-120,1,random_dot,118.3431378390347,
left,left,19.0,1.0,9.0,right,0.0,1.748564791996614,,speed,space,2.7657950410066405,,,,,,0.0,0.0,0.0,1.0,9.0,1.0,19.0,0.0,216.8797614169889,,,,,,,,,216.87191487499516,218.0699375419936,218.86240195798743,218.8540289169905,218.85459495800023,218.86240195798743,218.86240195798743,218.86240195798743,,220.6211064579984,,,,,,,,,,,,,,,,,,,,,,,,,,,,,,right,0.0,1.748564791996614,,,,,,sub-120,1,random_dot,118.3431378390347,
left,left,20.0,0.0,10.0,left,1.0,2.7382357500027865,,speed,space,2.7657950410066405,,,,,,0.0,0.0,0.0,1.0,10.0,0.0,20.0,0.0,220.6295339999924,,,,,,,,,220.6217521669896,220.96098537500075,221.7622488749912,221.753809707996,221.7544204579899,221.7622488749912,221.7622488749912,221.7622488749912,,224.50434779199716,,,,,,,,,,,,,,,,,,,,,,,,,,,,,,left,1.0,2.7382357500027865,,,,,,sub-120,1,random_dot,118.3431378390347,
right,right,21.0,1.0,10.0,right,1.0,4.165369666996412,,speed,space,2.7657950410066405,,,,,,0.0,0.0,0.0,1.0,10.0,1.0,21.0,1.0,224.5124070419988,,,,,,,,,224.50484070798848,224.59351649999732,225.38645416699,225.37688420798804,225.37746533298923,225.38645416699,225.38645416699,225.38645416699,,229.5546344579925,,,,,,,,,,,,,,,,,,,,,,,,,,,,,,right,1.0,4.165369666996412,,,,,,sub-120,1,random_dot,118.3431378390347,
left,left,22.0,0.0,11.0,left,1.0,4.547442584007513,,speed,space,2.7657950410066405,,,,,,0.0,0.0,0.0,1.0,11.0,0.0,22.0,0.0,229.56293129199184,,,,,,,,,229.5552145419933,230.3538021669956,231.14556566700048,231.1374236249976,231.13799054198896,231.14556566700048,231.14556566700048,231.14556566700048,,235.69517549999,,,,,,,,,,,,,,,,,,,,,,,,,,,,,,left,1.0,4.547442584007513,,,,,,sub-120,1,random_dot,118.3431378390347,
right,right,23.0,1.0,11.0,right,1.0,3.780920917008189,,speed,space,2.7657950410066405,,,,,,0.0,0.0,0.0,1.0,11.0,1.0,23.0,1.0,235.70286270799988,,,,,,,,,235.6956884169922,235.7976346249925,236.5957126669964,236.58740624999336,236.5879817919922,236.5957126669964,236.5957126669964,236.5957126669964,,240.37850787499335,,,,,,,,,,,,,,,,,,,,,,,,,,,,,,right,1.0,3.780920917008189,,,,,,sub-120,1,random_dot,118.3431378390347,
right,right,24.0,0.0,12.0,right,1.0,2.7942927080002846,,speed,space,2.7657950410066405,,,,,,0.0,0.0,0.0,1.0,12.0,0.0,24.0,1.0,240.38639237498865,,,,,,,,,240.3790228750004,240.7270361669944,241.51991249999264,241.51036566699625,241.5109533749928,241.51991249999264,241.51991249999264,241.51991249999264,,244.32129816699307,,,,,,,,,,,,,,,,,,,,,,,,,,,,,,right,1.0,2.7942927080002846,,,,,,sub-120,1,random_dot,118.3431378390347,
left,left,25.0,1.0,12.0,left,1.0,4.288772708008764,,speed,space,2.7657950410066405,,,,,,0.0,0.0,0.0,1.0,12.0,1.0,25.0,0.0,244.3291602079989,,,,,,,,,244.32178324999404,245.11182341699896,245.9125189169863,245.90407862499703,245.90463720799016,245.9125189169863,245.9125189169863,245.9125189169863,,250.2046507919877,,,,,,,,,,,,,,,,,,,,,,,,,,,,,,left,1.0,4.288772708008764,,,,,,sub-120,1,random_dot,118.3431378390347,
left,left,26.0,0.0,13.0,right,0.0,1.3217811659997096,,speed,space,2.7657950410066405,,,,,,0.0,0.0,0.0,1.0,13.0,0.0,26.0,0.0,250.21233954199124,,,,,,,,,250.2051254999969,250.54454499999704,251.33610479198975,251.32753095799129,251.32819891699185,251.33610479198975,251.33610479198975,251.33610479198975,,252.66182004199072,,,,,,,,,,,,,,,,,,,,,,,,,,,,,,right,0.0,1.3217811659997096,,,,,,sub-120,1,random_dot,118.3431378390347,
right,right,27.0,1.0,13.0,right,1.0,1.1975257079902804,,speed,space,2.7657950410066405,,,,,,0.0,0.0,0.0,1.0,13.0,1.0,27.0,1.0,252.6698986669944,,,,,,,,,252.66229458298767,253.8612373329961,254.653250791991,254.64418733298956,254.64475924998987,254.653250791991,254.653250791991,254.653250791991,,255.85489808299465,,,,,,,,,,,,,,,,,,,,,,,,,,,,,,right,1.0,1.1975257079902804,,,,,,sub-120,1,random_dot,118.3431378390347,
left,left,28.0,0.0,14.0,right,0.0,1.0902742499893066,,speed,space,2.7657950410066405,,,,,,0.0,0.0,0.0,1.0,14.0,0.0,28.0,0.0,255.86274441699788,,,,,,,,,255.85538095798984,257.0436744579929,257.8366914999933,257.82685854198644,257.82746095799666,257.8366914999933,257.8366914999933,257.8366914999933,,258.93818904199,,,,,,,,,,,,,,,,,,,,,,,,,,,,,,right,0.0,1.0902742499893066,,,,,,sub-120,1,random_dot,118.3431378390347,
right,right,29.0,1.0,14.0,right,1.0,1.2720373749907594,,speed,space,2.7657950410066405,,,,,,0.0,0.0,0.0,1.0,14.0,1.0,29.0,1.0,258.9458860829909,,,,,,,,,258.93872241699137,259.02891362499213,259.8296808749874,259.821022374992,259.8216930829949,259.8296808749874,259.8296808749874,259.8296808749874,,261.1045868749934,,,,,,,,,,,,,,,,,,,,,,,,,,,,,,right,1.0,1.2720373749907594,,,,,,sub-120,1,random_dot,118.3431378390347,
left,left,30.0,0.0,15.0,left,1.0,2.376876374997664,,speed,space,2.7657950410066405,,,,,,0.0,0.0,0.0,1.0,15.0,0.0,30.0,0.0,261.1128699999972,,,,,,,,,261.105054374988,262.29371891698975,263.0867103329947,263.07683429199096,263.077510291987,263.0867103329947,263.0867103329947,263.0867103329947,,265.47167737499694,,,,,,,,,,,,,,,,,,,,,,,,,,,,,,left,1.0,2.376876374997664,,,,,,sub-120,1,random_dot,118.3431378390347,
right,right,31.0,1.0,15.0,left,0.0,2.8801517499960028,,speed,space,2.7657950410066405,,,,,,0.0,0.0,0.0,1.0,15.0,1.0,31.0,1.0,265.4804374999949,,,,,,,,,265.47223670799576,265.8117611669877,266.6125197499932,266.6042957919999,266.60486195799604,266.6125197499932,266.6125197499932,266.6125197499932,,269.49533933299244,,,,,,,,,,,,,,,,,,,,,,,,,,,,,,left,0.0,2.8801517499960028,,,,,,sub-120,1,random_dot,118.3431378390347,
right,right,32.0,0.0,16.0,right,1.0,4.273601667009643,,speed,space,2.7657950410066405,,,,,,0.0,0.0,0.0,1.0,16.0,0.0,32.0,1.0,269.5032122079865,,,,,,,,,269.49584274999506,270.6951440829871,271.49655266699847,271.4878455829894,271.4885209579952,271.49655266699847,271.49655266699847,271.49655266699847,,275.7715939579939,,,,,,,,,,,,,,,,,,,,,,,,,,,,,,right,1.0,4.273601667009643,,,,,,sub-120,1,random_dot,118.3431378390347,
left,left,33.0,1.0,16.0,left,1.0,5.171460208992357,,speed,space,2.7657950410066405,,,,,,0.0,0.0,0.0,1.0,16.0,1.0,33.0,0.0,275.7801764169999,,,,,,,,,275.77216591699107,276.1117545829911,276.91328870799043,276.90455649999785,276.90523633299745,276.91328870799043,276.91328870799043,276.91328870799043,281.90405329198984,282.08920899999794,,,,,,,,,,,,,,,,,,,,,,,,,,,,,,left,1.0,5.171460208992357,,,,,,sub-120,1,random_dot,118.3431378390347,
right,right,34.0,0.0,17.0,left,0.0,1.3346186660055537,,speed,space,2.7657950410066405,,,,,,0.0,0.0,0.0,1.0,17.0,0.0,34.0,1.0,282.09847133299627,,,,,,,,,282.0898573329905,283.28754724998726,284.08125712499896,284.0713655,284.07203499999014,284.08125712499896,284.08125712499896,284.08125712499896,,285.42129779199604,,,,,,,,,,,,,,,,,,,,,,,,,,,,,,left,0.0,1.3346186660055537,,,,,,sub-120,1,random_dot,118.3431378390347,
left,left,35.0,1.0,17.0,left,1.0,1.054575834001298,,speed,space,2.7657950410066405,,,,,,0.0,0.0,0.0,1.0,17.0,1.0,35.0,0.0,285.4287082499941,,,,,,,,,285.42168495799706,286.61160333298903,287.4133274999913,287.40465841699915,287.4053234169987,287.4133274999913,287.4133274999913,287.4133274999913,,288.4714113749942,,,,,,,,,,,,,,,,,,,,,,,,,,,,,,left,1.0,1.054575834001298,,,,,,sub-120,1,random_dot,118.3431378390347,
left,left,36.0,0.0,18.0,right,0.0,0.9980612080107676,,speed,space,2.7657950410066405,,,,,,0.0,0.0,0.0,1.0,18.0,0.0,36.0,0.0,288.4790708329965,,,,,,,,,288.471880416997,289.26153404198703,290.0632182919944,290.0544881669921,290.0551654169976,290.0632182919944,290.0632182919944,290.0632182919944,,291.0718851249985,,,,,,,,,,,,,,,,,,,,,,,,,,,,,,right,0.0,0.9980612080107676,,,,,,sub-120,1,random_dot,118.3431378390347,
right,right,37.0,1.0,18.0,left,0.0,1.529535207999288,,speed,space,2.7657950410066405,,,,,,0.0,0.0,0.0,1.0,18.0,1.0,37.0,1.0,291.0798008749989,,,,,,,,,291.0723647079867,291.8607794579875,292.65364412499184,292.6438642079884,292.64444549998734,292.65364412499184,292.65364412499184,292.65364412499184,,294.18779345799703,,,,,,,,,,,,,,,,,,,,,,,,,,,,,,left,0.0,1.529535207999288,,,,,,sub-120,1,random_dot,118.3431378390347,
right,right,38.0,0.0,19.0,right,1.0,1.3680612499883864,,speed,space,2.7657950410066405,,,,,,0.0,0.0,0.0,1.0,19.0,0.0,38.0,1.0,294.1952012499969,,,,,,,,,294.1881672079908,294.2773389169888,295.07032820799213,295.0602367919928,295.060859833,295.07032820799213,295.07032820799213,295.07032820799213,,296.4448818329984,,,,,,,,,,,,,,,,,,,,,,,,,,,,,,right,1.0,1.3680612499883864,,,,,,sub-120,1,random_dot,118.3431378390347,
left,left,39.0,1.0,19.0,right,0.0,0.9700187079870376,,speed,space,2.7657950410066405,,,,,,0.0,0.0,0.0,1.0,19.0,1.0,39.0,0.0,296.453708541987,,,,,,,,,296.4452585419931,297.24453012499725,298.04625137499534,298.037914207991,298.03850579199207,298.04625137499534,298.04625137499534,298.04625137499534,,299.02203483298945,,,,,,,,,,,,,,,,,,,,,,,,,,,,,,right,0.0,0.9700187079870376,,,,,,sub-120,1,random_dot,118.3431378390347,
left,left,40.0,0.0,20.0,right,0.0,3.971296999996412,,speed,space,2.7657950410066405,,,,,,0.0,0.0,0.0,1.0,20.0,0.0,40.0,0.0,299.0295038329932,,,,,,,,,299.0224052079866,299.1208093329915,299.91271470799984,299.90463499999896,299.90521929199167,299.91271470799984,299.91271470799984,299.91271470799984,,303.88813920799294,,,,,,,,,,,,,,,,,,,,,,,,,,,,,,right,0.0,3.971296999996412,,,,,,sub-120,1,random_dot,118.3431378390347,
right,right,41.0,1.0,20.0,left,0.0,3.4799952500034124,,speed,space,2.7657950410066405,,,,,,0.0,0.0,0.0,1.0,20.0,1.0,41.0,1.0,303.89595341699896,,,,,,,,,303.88860254199244,305.0787104169867,305.8793842499872,305.8712967499887,305.87186762499914,305.8793842499872,305.8793842499872,305.8793842499872,,309.3618477079872,,,,,,,,,,,,,,,,,,,,,,,,,,,,,,left,0.0,3.4799952500034124,,,,,,sub-120,1,random_dot,118.3431378390347,
left,left,42.0,0.0,21.0,left,1.0,0.890337584001827,,speed,space,2.7657950410066405,,,,,,0.0,0.0,0.0,1.0,21.0,0.0,42.0,0.0,309.3697736670001,,,,,,,,,309.3623220419977,310.1617534169927,310.9635263749951,310.9547401669988,310.95535629199003,310.9635263749951,310.9635263749951,310.9635263749951,,311.85521179198986,,,,,,,,,,,,,,,,,,,,,,,,,,,,,,left,1.0,0.890337584001827,,,,,,sub-120,1,random_dot,118.3431378390347,
right,right,43.0,1.0,21.0,right,1.0,1.507325124999625,,speed,space,2.7657950410066405,,,,,,0.0,0.0,0.0,1.0,21.0,1.0,43.0,1.0,311.86364591699385,,,,,,,,,311.8556733329897,311.945140374999,312.74685012499685,312.73811254199245,312.73877579199325,312.74685012499685,312.74685012499685,312.74685012499685,,314.26158549998945,,,,,,,,,,,,,,,,,,,,,,,,,,,,,,right,1.0,1.507325124999625,,,,,,sub-120,1,random_dot,118.3431378390347,
left,left,44.0,0.0,22.0,right,0.0,1.2873529999924358,,speed,space,2.7657950410066405,,,,,,0.0,0.0,0.0,1.0,22.0,0.0,44.0,0.0,314.27048749999085,,,,,,,,,314.26195562499925,315.061721207996,315.8628117499902,315.85471620799217,315.855286207996,315.8628117499902,315.8628117499902,315.8628117499902,,317.1552345419914,,,,,,,,,,,,,,,,,,,,,,,,,,,,,,right,0.0,1.2873529999924358,,,,,,sub-120,1,random_dot,118.3431378390347,
right,right,45.0,1.0,22.0,right,1.0,1.282926874991972,,speed,space,2.7657950410066405,,,,,,0.0,0.0,0.0,1.0,22.0,1.0,45.0,1.0,317.16300000000047,,,,,,,,,317.1557134169998,317.2442149999988,318.0371594169992,318.0274237919948,318.0280233749945,318.0371594169992,318.0371594169992,318.0371594169992,,319.321977582993,,,,,,,,,,,,,,,,,,,,,,,,,,,,,,right,1.0,1.282926874991972,,,,,,sub-120,1,random_dot,118.3431378390347,
left,left,46.0,0.0,23.0,left,1.0,1.0952294580056332,,speed,space,2.7657950410066405,,,,,,0.0,0.0,0.0,1.0,23.0,0.0,46.0,0.0,319.3302339169895,,,,,,,,,319.3224452499999,319.6621817919949,320.46380637498805,320.45479841699125,320.45537908299593,320.46380637498805,320.46380637498805,320.46380637498805,,321.56196558299416,,,,,,,,,,,,,,,,,,,,,,,,,,,,,,left,1.0,1.0952294580056332,,,,,,sub-120,1,random_dot,118.3431378390347,
right,right,47.0,1.0,23.0,left,0.0,1.9691417919966625,,speed,space,2.7657950410066405,,,,,,0.0,0.0,0.0,1.0,23.0,1.0,47.0,1.0,321.5708027499932,,,,,,,,,321.5624379999936,322.762117708,323.5630533329968,323.55479037499754,323.5553671249945,323.5630533329968,323.5630533329968,323.5630533329968,,325.5389423329907,,,,,,,,,,,,,,,,,,,,,,,,,,,,,,left,0.0,1.9691417919966625,,,,,,sub-120,1,random_dot,118.3431378390347,
right,right,48.0,0.0,24.0,right,1.0,1.0101094159908826,,speed,space,2.7657950410066405,,,,,,0.0,0.0,0.0,1.0,24.0,0.0,48.0,1.0,325.54707358298765,,,,,,,,,325.53941604199645,326.3287635829911,327.1303601249965,327.1215139579872,327.12209908298973,327.1303601249965,327.1303601249965,327.1303601249965,,328.14575799999875,,,,,,,,,,,,,,,,,,,,,,,,,,,,,,right,1.0,1.0101094159908826,,,,,,sub-120,1,random_dot,118.3431378390347,
left,left,49.0,1.0,24.0,left,1.0,2.129606542002876,,speed,space,2.7657950410066405,,,,,,0.0,0.0,0.0,1.0,24.0,1.0,49.0,0.0,328.1536594169884,,,,,,,,,328.14622191699164,328.94538779198774,329.7468057919905,329.7381453329872,329.73871779198817,329.7468057919905,329.7468057919905,329.7468057919905,,331.8791812079872,,,,,,,,,,,,,,,,,,,,,,,,,,,,,,left,1.0,2.129606542002876,,,,,,sub-120,1,random_dot,118.3431378390347,
right,right,50.0,0.0,25.0,left,0.0,2.8789992919919314,,speed,space,2.7657950410066405,,,,,,0.0,0.0,0.0,1.0,25.0,0.0,50.0,1.0,331.88687229198695,,,,,,,,,331.8796422919986,331.97747895799694,332.7699165829981,332.7619531249948,332.76255487499293,332.7699165829981,332.7699165829981,332.7699165829981,,335.655503499991,,,,,,,,,,,,,,,,,,,,,,,,,,,,,,left,0.0,2.8789992919919314,,,,,,sub-120,1,random_dot,118.3431378390347,
left,left,51.0,1.0,25.0,left,1.0,3.078874124999857,,speed,space,2.7657950410066405,,,,,,0.0,0.0,0.0,1.0,25.0,1.0,51.0,0.0,335.66400637499464,,,,,,,,,335.65611270799127,336.445657291988,337.2468074999924,337.23832404198765,337.23899995799,337.2468074999924,337.2468074999924,337.2468074999924,,340.3287531249953,,,,,,,,,,,,,,,,,,,,,,,,,,,,,,left,1.0,3.078874124999857,,,,,,sub-120,1,random_dot,118.3431378390347,
right,right,52.0,0.0,26.0,right,1.0,3.23147825000342,,speed,space,2.7657950410066405,,,,,,0.0,0.0,0.0,1.0,26.0,0.0,52.0,1.0,340.33734733299934,,,,,,,,,340.3291282919963,340.67830308299745,341.4798640419904,341.47158870799467,341.47216045799723,341.4798640419904,341.4798640419904,341.4798640419904,,344.72216091699374,,,,,,,,,,,,,,,,,,,,,,,,,,,,,,right,1.0,3.23147825000342,,,,,,sub-120,1,random_dot,118.3431378390347,
left,left,53.0,1.0,26.0,left,1.0,4.059783582997625,,speed,space,2.7657950410066405,,,,,,0.0,0.0,0.0,1.0,26.0,1.0,53.0,0.0,344.73016512498725,,,,,,,,,344.72264645798714,345.9110812500003,346.7040965829947,346.69426062499406,346.6948607499944,346.7040965829947,346.7040965829947,346.7040965829947,,350.7722349999967,,,,,,,,,,,,,,,,,,,,,,,,,,,,,,left,1.0,4.059783582997625,,,,,,sub-120,1,random_dot,118.3431378390347,
left,left,54.0,0.0,27.0,left,1.0,4.001713707999443,,speed,space,2.7657950410066405,,,,,,0.0,0.0,0.0,1.0,27.0,0.0,54.0,0.0,350.77997887499805,,,,,,,,,350.77271474999725,351.11114962499414,351.90406033299223,351.8944144999987,351.8950159169908,351.90406033299223,351.90406033299223,351.90406033299223,,355.91275266699085,,,,,,,,,,,,,,,,,,,,,,,,,,,,,,left,1.0,4.001713707999443,,,,,,sub-120,1,random_dot,118.3431378390347,
right,right,55.0,1.0,27.0,left,0.0,3.919151458001579,,speed,space,2.7657950410066405,,,,,,0.0,0.0,0.0,1.0,27.0,1.0,55.0,1.0,355.9207217499934,,,,,,,,,355.91323912498774,356.00413129199296,356.7970950829913,356.7883389579947,356.7889886669873,356.7970950829913,356.7970950829913,356.7970950829913,,360.72186433299794,,,,,,,,,,,,,,,,,,,,,,,,,,,,,,left,0.0,3.919151458001579,,,,,,sub-120,1,random_dot,118.3431378390347,
right,right,56.0,0.0,28.0,left,0.0,3.946180875005666,,speed,space,2.7657950410066405,,,,,,0.0,0.0,0.0,1.0,28.0,0.0,56.0,1.0,360.729369291992,,,,,,,,,360.7222334169928,361.9124988330004,362.7140652079979,362.7053280419932,362.7059898329898,362.7140652079979,362.7140652079979,362.7140652079979,,366.6622567079903,,,,,,,,,,,,,,,,,,,,,,,,,,,,,,left,0.0,3.946180875005666,,,,,,sub-120,1,random_dot,118.3431378390347,
left,left,57.0,1.0,28.0,right,0.0,5.134673000007751,,speed,space,2.7657950410066405,,,,,,0.0,0.0,0.0,1.0,28.0,1.0,57.0,0.0,366.6700248329871,,,,,,,,,366.6627231669991,367.0107950829988,367.8042102499894,367.7944803749997,367.7949954999931,367.8042102499894,367.8042102499894,367.8042102499894,372.7880229579896,372.9460116669943,,,,,,,,,,,,,,,,,,,,,,,,,,,,,,right,0.0,5.134673000007751,,,,,,sub-120,1,random_dot,118.3431378390347,
left,left,58.0,0.0,29.0,right,0.0,1.3433940000104485,,speed,space,2.7657950410066405,,,,,,0.0,0.0,0.0,1.0,29.0,0.0,58.0,0.0,372.95492920799006,,,,,,,,,372.94665004199487,373.04602441699535,373.84730266699626,373.8386169579898,373.8392957079923,373.84730266699626,373.84730266699626,373.84730266699626,,375.1957226669911,,,,,,,,,,,,,,,,,,,,,,,,,,,,,,right,0.0,1.3433940000104485,,,,,,sub-120,1,random_dot,118.3431378390347,
right,right,59.0,1.0,29.0,right,1.0,2.268610291997902,,speed,space,2.7657950410066405,,,,,,0.0,0.0,0.0,1.0,29.0,1.0,59.0,1.0,375.203508666993,,,,,,,,,375.19620987499366,375.9955910419958,376.7973387499951,376.78855124999245,376.78915783298726,376.7973387499951,376.7973387499951,376.7973387499951,,379.0727048329864,,,,,,,,,,,,,,,,,,,,,,,,,,,,,,right,1.0,2.268610291997902,,,,,,sub-120,1,random_dot,118.3431378390347,
,,0.0,0.0,0.0,,,,,speed,space,2.7657950410066405,,,,,,0.0,0.0,0.0,1.0,,,,,,,,,,,,,,,,,,,,,,,,,,,,,,,,,,,,,,,,,,,,,,,,,,,,,,,,,,,,,sub-120,1,random_dot,118.3431378390347,
left,left,0.0,0.0,0.0,right,0.0,1.6518671670055485,,accuracy,space,8.160889082995709,,,,,,0.0,1.0,1.0,0.0,0.0,0.0,0.0,0.0,387.2794422919978,,,,,,,,,387.2705539169983,388.0624738329934,388.8633871669881,388.855252207999,388.85586862498894,388.8633871669881,388.8633871669881,388.8633871669881,,390.5227009579976,,,,,,,,,,,,,,,,,,,,,,,379.0894377079967,379.0974080419983,379.0974080419983,387.2622536669951,space,8.160889082995709,,right,0.0,1.6518671670055485,,,,,,sub-120,1,random_dot,118.3431378390347,
right,right,1.0,1.0,0.0,right,1.0,1.792834292005864,,accuracy,space,8.160889082995709,,,,,,0.0,1.0,1.0,0.0,0.0,1.0,1.0,1.0,390.53190304199234,,,,,,,,,390.5232478329999,390.8716449579952,391.664130707999,391.65546358299616,391.6561584579904,391.664130707999,391.664130707999,391.664130707999,,393.4628684999916,,,,,,,,,,,,,,,,,,,,,,,,,,,,,,right,1.0,1.792834292005864,,,,,,sub-120,1,random_dot,118.3431378390347,
right,right,2.0,0.0,1.0,right,1.0,1.7743668330076616,,accuracy,space,8.160889082995709,,,,,,0.0,1.0,1.0,0.0,1.0,0.0,2.0,1.0,393.4711683329952,,,,,,,,,393.4633587499993,393.562714707994,394.363652791988,394.3553640829923,394.3559572919912,394.363652791988,394.363652791988,394.363652791988,,396.1495770420006,,,,,,,,,,,,,,,,,,,,,,,,,,,,,,right,1.0,1.7743668330076616,,,,,,sub-120,1,random_dot,118.3431378390347,
left,left,3.0,1.0,1.0,left,1.0,3.304235667004832,,accuracy,space,8.160889082995709,,,,,,0.0,1.0,1.0,0.0,1.0,1.0,3.0,0.0,396.1547939579905,,,,,,,,,396.1500867079885,396.9444089169992,397.7378073329892,397.7275791669963,397.72810120799113,397.7378073329892,397.7378073329892,397.7378073329892,,401.0459942079906,,,,,,,,,,,,,,,,,,,,,,,,,,,,,,left,1.0,3.304235667004832,,,,,,sub-120,1,random_dot,118.3431378390347,
right,right,4.0,0.0,2.0,left,0.0,4.213720250001643,,accuracy,space,8.160889082995709,,,,,,0.0,1.0,1.0,0.0,2.0,0.0,4.0,1.0,401.0537429999968,,,,,,,,,401.0464998749958,402.24666308298765,403.0468395829957,403.03876029199455,403.0393129999866,403.0468395829957,403.0468395829957,403.0468395829957,,407.26283779199,,,,,,,,,,,,,,,,,,,,,,,,,,,,,,left,0.0,4.213720250001643,,,,,,sub-120,1,random_dot,118.3431378390347,
left,left,5.0,1.0,2.0,right,0.0,1.4787196249963015,,accuracy,space,8.160889082995709,,,,,,0.0,1.0,1.0,0.0,2.0,1.0,5.0,0.0,407.27077049999207,,,,,,,,,407.2633439999918,408.06247095800063,408.8636706249963,408.8555003749934,408.8560662079981,408.8636706249963,408.8636706249963,408.8636706249963,,410.3458181669994,,,,,,,,,,,,,,,,,,,,,,,,,,,,,,right,0.0,1.4787196249963015,,,,,,sub-120,1,random_dot,118.3431378390347,
left,left,6.0,0.0,3.0,right,0.0,1.966422375000548,,accuracy,space,8.160889082995709,,,,,,0.0,1.0,1.0,0.0,3.0,0.0,6.0,0.0,410.3546076249913,,,,,,,,,410.3462077500008,410.69610112499504,411.4975951249944,411.4888294999983,411.48949816699314,411.4975951249944,411.4975951249944,411.4975951249944,,413.4725259169936,,,,,,,,,,,,,,,,,,,,,,,,,,,,,,right,0.0,1.966422375000548,,,,,,sub-120,1,random_dot,118.3431378390347,
right,right,7.0,1.0,3.0,right,1.0,3.085955415997887,,accuracy,space,8.160889082995709,,,,,,0.0,1.0,1.0,0.0,3.0,1.0,7.0,1.0,413.48030116698646,,,,,,,,,413.4730092499958,414.262667832998,415.06378224999935,415.0555247079901,415.0561072919954,415.06378224999935,415.06378224999935,415.06378224999935,,418.1561998749967,,,,,,,,,,,,,,,,,,,,,,,,,,,,,,right,1.0,3.085955415997887,,,,,,sub-120,1,random_dot,118.3431378390347,
right,right,8.0,0.0,4.0,right,1.0,3.835550791001879,,accuracy,space,8.160889082995709,,,,,,0.0,1.0,1.0,0.0,4.0,0.0,8.0,1.0,418.1636969999963,,,,,,,,,418.1565789999877,418.2553239999979,419.0478804579907,419.0389592499996,419.0396407919907,419.0478804579907,419.0478804579907,419.0478804579907,,422.8892318750004,,,,,,,,,,,,,,,,,,,,,,,,,,,,,,right,1.0,3.835550791001879,,,,,,sub-120,1,random_dot,118.3431378390347,
left,left,9.0,1.0,4.0,right,0.0,5.539552417001687,,accuracy,space,8.160889082995709,,,,,,0.0,1.0,1.0,0.0,4.0,1.0,9.0,0.0,422.8976974169928,,,,,,,,,422.8897224999964,423.67835062499216,424.4713069999998,424.4612409580004,424.46197095800017,424.4713069999998,424.4713069999998,424.4713069999998,429.4552071669896,430.0128775829944,,,,,,,,,,,,,,,,,,,,,,,,,,,,,,right,0.0,5.539552417001687,,,,,,sub-120,1,random_dot,118.3431378390347,
right,right,10.0,0.0,5.0,left,0.0,1.2108789579942822,,accuracy,space,8.160889082995709,,,,,,0.0,1.0,1.0,0.0,5.0,0.0,10.0,1.0,430.0213874170004,,,,,,,,,430.0135324169969,430.3627309999865,431.1643887499959,431.15574445799575,431.1564048750006,431.1643887499959,431.1643887499959,431.1643887499959,,432.379508041995,,,,,,,,,,,,,,,,,,,,,,,,,,,,,,left,0.0,1.2108789579942822,,,,,,sub-120,1,random_dot,118.3431378390347,
left,left,11.0,1.0,5.0,left,1.0,3.764849041996058,,accuracy,space,8.160889082995709,,,,,,0.0,1.0,1.0,0.0,5.0,1.0,11.0,0.0,432.3873607499991,,,,,,,,,432.3799899999867,433.5795212079975,434.3805736669892,434.3723279580008,434.3728965829941,434.3805736669892,434.3805736669892,434.3805736669892,,438.1557586249983,,,,,,,,,,,,,,,,,,,,,,,,,,,,,,left,1.0,3.764849041996058,,,,,,sub-120,1,random_dot,118.3431378390347,
right,right,12.0,0.0,6.0,right,1.0,1.4951769579929532,,accuracy,space,8.160889082995709,,,,,,0.0,1.0,1.0,0.0,6.0,0.0,12.0,1.0,438.1602306249988,,,,,,,,,438.1561642079905,438.2459618329885,439.0474570829974,439.0390037499892,439.0395747079892,439.0474570829974,439.0474570829974,439.0474570829974,,440.5467241669976,,,,,,,,,,,,,,,,,,,,,,,,,,,,,,right,1.0,1.4951769579929532,,,,,,sub-120,1,random_dot,118.3431378390347,
left,left,13.0,1.0,6.0,right,0.0,2.489756208000472,,accuracy,space,8.160889082995709,,,,,,0.0,1.0,1.0,0.0,6.0,1.0,13.0,0.0,440.5543041249912,,,,,,,,,440.5471899999975,441.34505787499074,442.13814670799184,442.1279055419873,442.12851604199386,442.13814670799184,442.13814670799184,442.13814670799184,,444.6302966249932,,,,,,,,,,,,,,,,,,,,,,,,,,,,,,right,0.0,2.489756208000472,,,,,,sub-120,1,random_dot,118.3431378390347,
right,right,14.0,0.0,7.0,right,1.0,2.335733125000843,,accuracy,space,8.160889082995709,,,,,,0.0,1.0,1.0,0.0,7.0,0.0,14.0,1.0,444.6380975419888,,,,,,,,,444.6308245830005,444.979698457988,445.7806273329916,445.7723894579976,445.7729673329886,445.7806273329916,445.7806273329916,445.7806273329916,,448.1233084999985,,,,,,,,,,,,,,,,,,,,,,,,,,,,,,right,1.0,2.335733125000843,,,,,,sub-120,1,random_dot,118.3431378390347,
left,left,15.0,1.0,7.0,right,0.0,3.91783462499734,,accuracy,space,8.160889082995709,,,,,,0.0,1.0,1.0,0.0,7.0,1.0,15.0,0.0,448.13194466699497,,,,,,,,,448.1239413749863,449.322008291987,450.1140300829866,450.1057820829883,450.10634541699255,450.1140300829866,450.1140300829866,450.1140300829866,,454.0394797079935,,,,,,,,,,,,,,,,,,,,,,,,,,,,,,right,0.0,3.91783462499734,,,,,,sub-120,1,random_dot,118.3431378390347,
right,right,16.0,0.0,8.0,left,0.0,4.768175666991738,,accuracy,space,8.160889082995709,,,,,,0.0,1.0,1.0,0.0,8.0,0.0,16.0,1.0,454.047745207994,,,,,,,,,454.0400105419976,454.8296257079928,455.6308011669898,455.6224887499993,455.6230375419982,455.6308011669898,455.6308011669898,455.6308011669898,,460.40617120800016,,,,,,,,,,,,,,,,,,,,,,,,,,,,,,left,0.0,4.768175666991738,,,,,,sub-120,1,random_dot,118.3431378390347,
left,left,17.0,1.0,8.0,right,0.0,3.281312790990341,,accuracy,space,8.160889082995709,,,,,,0.0,1.0,1.0,0.0,8.0,1.0,17.0,0.0,460.4140340829909,,,,,,,,,460.4066594999895,460.7454811249918,461.5474548329949,461.5391774169984,461.53973420799593,461.5474548329949,461.5474548329949,461.5474548329949,,464.83967966699856,,,,,,,,,,,,,,,,,,,,,,,,,,,,,,right,0.0,3.281312790990341,,,,,,sub-120,1,random_dot,118.3431378390347,
left,left,18.0,0.0,9.0,right,0.0,4.575296208000509,,accuracy,space,8.160889082995709,,,,,,0.0,1.0,1.0,0.0,9.0,0.0,18.0,0.0,464.84746274999634,,,,,,,,,464.8401506249938,465.6295812919998,466.4308597499912,466.4225642079982,466.4231320830004,466.4308597499912,466.4308597499912,466.4308597499912,,471.0133760419994,,,,,,,,,,,,,,,,,,,,,,,,,,,,,,right,0.0,4.575296208000509,,,,,,sub-120,1,random_dot,118.3431378390347,
right,right,19.0,1.0,9.0,right,1.0,5.324361584003782,,accuracy,space,8.160889082995709,,,,,,0.0,1.0,1.0,0.0,9.0,1.0,19.0,1.0,471.0210118749965,,,,,,,,,471.0137606669887,471.3631874999992,472.1641563749872,472.15590574999806,472.1564707919897,472.1641563749872,472.1641563749872,472.1641563749872,477.14438554199296,477.4906142079999,,,,,,,,,,,,,,,,,,,,,,,,,,,,,,right,1.0,5.324361584003782,,,,,,sub-120,1,random_dot,118.3431378390347,
left,left,20.0,0.0,10.0,left,1.0,3.244612374997814,,accuracy,space,8.160889082995709,,,,,,0.0,1.0,1.0,0.0,10.0,0.0,20.0,0.0,477.5004142079997,,,,,,,,,477.4913544579904,478.2889952080004,479.0809422919992,479.07260887499433,479.0731576249964,479.0809422919992,479.0809422919992,479.0809422919992,,482.33021470799576,,,,,,,,,,,,,,,,,,,,,,,,,,,,,,left,1.0,3.244612374997814,,,,,,sub-120,1,random_dot,118.3431378390347,
right,right,21.0,1.0,10.0,left,0.0,4.983548082993366,,accuracy,space,8.160889082995709,,,,,,0.0,1.0,1.0,0.0,10.0,1.0,21.0,1.0,482.3378721669869,,,,,,,,,482.3307057079946,483.5303980829922,484.3306453749974,484.3226375419909,484.32317162498657,484.3306453749974,484.3306453749974,484.3306453749974,489.3111626249884,489.3239356249978,,,,,,,,,,,,,,,,,,,,,,,,,,,,,,left,0.0,4.983548082993366,,,,,,sub-120,1,random_dot,118.3431378390347,
right,right,22.0,0.0,11.0,right,1.0,3.873881417006487,,accuracy,space,8.160889082995709,,,,,,0.0,1.0,1.0,0.0,11.0,0.0,22.0,1.0,489.332865666991,,,,,,,,,489.3246487079887,490.122335832988,490.9137645419978,490.905961832992,490.90645154198864,490.9137645419978,490.9137645419978,490.9137645419978,,494.78980133299774,,,,,,,,,,,,,,,,,,,,,,,,,,,,,,right,1.0,3.873881417006487,,,,,,sub-120,1,random_dot,118.3431378390347,
left,left,23.0,1.0,11.0,left,1.0,2.379853792008362,,accuracy,space,8.160889082995709,,,,,,0.0,1.0,1.0,0.0,11.0,1.0,23.0,0.0,494.7975409579958,,,,,,,,,494.7902953329904,495.97991770799854,496.780773416991,496.7727599579957,496.7733230829908,496.780773416991,496.780773416991,496.780773416991,,499.1637309169892,,,,,,,,,,,,,,,,,,,,,,,,,,,,,,left,1.0,2.379853792008362,,,,,,sub-120,1,random_dot,118.3431378390347,
left,left,24.0,0.0,12.0,right,0.0,3.576300374988932,,accuracy,space,8.160889082995709,,,,,,0.0,1.0,1.0,0.0,12.0,0.0,24.0,0.0,499.1715563329926,,,,,,,,,499.16420212498633,499.9636601249949,500.7638540419866,500.7558513749973,500.7564188749966,500.7638540419866,500.7638540419866,500.7638540419866,,504.3505032499961,,,,,,,,,,,,,,,,,,,,,,,,,,,,,,right,0.0,3.576300374988932,,,,,,sub-120,1,random_dot,118.3431378390347,
right,right,25.0,1.0,12.0,right,1.0,2.0051503330032574,,accuracy,space,8.160889082995709,,,,,,0.0,1.0,1.0,0.0,12.0,1.0,25.0,1.0,504.3557264999981,,,,,,,,,504.3510001669929,505.5465805829881,506.34791183299967,506.33945762499934,506.34001241700025,506.34791183299967,506.34791183299967,506.34791183299967,,508.3565869169979,,,,,,,,,,,,,,,,,,,,,,,,,,,,,,right,1.0,2.0051503330032574,,,,,,sub-120,1,random_dot,118.3431378390347,
right,right,26.0,0.0,13.0,left,0.0,1.4141400410007918,,accuracy,space,8.160889082995709,,,,,,0.0,1.0,1.0,0.0,13.0,0.0,26.0,1.0,508.3645230419934,,,,,,,,,508.35706845799,508.6971794169949,509.49759749999794,509.489575582993,509.4901515419915,509.49759749999794,509.49759749999794,509.49759749999794,,510.9131892499863,,,,,,,,,,,,,,,,,,,,,,,,,,,,,,left,0.0,1.4141400410007918,,,,,,sub-120,1,random_dot,118.3431378390347,
left,left,27.0,1.0,13.0,right,0.0,1.6622460419894196,,accuracy,space,8.160889082995709,,,,,,0.0,1.0,1.0,0.0,13.0,1.0,27.0,0.0,510.9220488329884,,,,,,,,,510.9136384579906,511.01342858299904,511.8143034579989,511.80620962499233,511.8068119579984,511.8143034579989,511.8143034579989,511.8143034579989,,513.480481666993,,,,,,,,,,,,,,,,,,,,,,,,,,,,,,right,0.0,1.6622460419894196,,,,,,sub-120,1,random_dot,118.3431378390347,
right,right,28.0,0.0,14.0,left,0.0,2.3700212499970803,,accuracy,space,8.160889082995709,,,,,,0.0,1.0,1.0,0.0,14.0,0.0,28.0,1.0,513.4887692079938,,,,,,,,,513.4810243329994,513.5790255419997,514.3720076249883,514.36198758299,514.3625928330002,514.3720076249883,514.3720076249883,514.3720076249883,,516.7469121670001,,,,,,,,,,,,,,,,,,,,,,,,,,,,,,left,0.0,2.3700212499970803,,,,,,sub-120,1,random_dot,118.3431378390347,
left,left,29.0,1.0,14.0,left,1.0,2.548945291011478,,accuracy,space,8.160889082995709,,,,,,0.0,1.0,1.0,0.0,14.0,1.0,29.0,0.0,516.7548927919997,,,,,,,,,516.7474136669916,517.5470218329865,518.3483882500004,518.3396892499877,518.3403819999949,518.3483882500004,518.3483882500004,518.3483882500004,,520.9069090419944,,,,,,,,,,,,,,,,,,,,,,,,,,,,,,left,1.0,2.548945291011478,,,,,,sub-120,1,random_dot,118.3431378390347,
left,left,30.0,0.0,15.0,right,0.0,3.9657183329982217,,accuracy,space,8.160889082995709,,,,,,0.0,1.0,1.0,0.0,15.0,0.0,30.0,0.0,520.9149156249914,,,,,,,,,520.9073984169954,522.0973674169945,522.8979799169902,522.8896454169881,522.8902337920008,522.8979799169902,522.8979799169902,522.8979799169902,,526.8733512920007,,,,,,,,,,,,,,,,,,,,,,,,,,,,,,right,0.0,3.9657183329982217,,,,,,sub-120,1,random_dot,118.3431378390347,
right,right,31.0,1.0,15.0,left,0.0,3.859765750006773,,accuracy,space,8.160889082995709,,,,,,0.0,1.0,1.0,0.0,15.0,1.0,31.0,1.0,526.8812397079892,,,,,,,,,526.873829958,528.0637262499949,528.8644327079965,528.8563346249866,528.8568989999912,528.8644327079965,528.8644327079965,528.8644327079965,,532.7307387079927,,,,,,,,,,,,,,,,,,,,,,,,,,,,,,left,0.0,3.859765750006773,,,,,,sub-120,1,random_dot,118.3431378390347,
left,left,32.0,0.0,16.0,right,0.0,5.2137506660074,,accuracy,space,8.160889082995709,,,,,,0.0,1.0,1.0,0.0,16.0,0.0,32.0,0.0,532.7387548330007,,,,,,,,,532.7312419999944,533.9302578329953,534.7311447919928,534.7230582079937,534.7236291669979,534.7311447919928,534.7311447919928,534.7311447919928,539.7114953749988,539.9474642079877,,,,,,,,,,,,,,,,,,,,,,,,,,,,,,right,0.0,5.2137506660074,,,,,,sub-120,1,random_dot,118.3431378390347,
right,right,33.0,1.0,16.0,left,0.0,2.3480854999943404,,accuracy,space,8.160889082995709,,,,,,0.0,1.0,1.0,0.0,16.0,1.0,33.0,1.0,539.9725267920003,,,,,,,,,539.9480944169918,540.2960236249928,541.0889087919932,541.0787349579914,541.079304999992,541.0889087919932,541.0889087919932,541.0889087919932,,543.4403699999966,,,,,,,,,,,,,,,,,,,,,,,,,,,,,,left,0.0,2.3480854999943404,,,,,,sub-120,1,random_dot,118.3431378390347,
right,right,34.0,0.0,17.0,left,0.0,1.949997292002081,,accuracy,space,8.160889082995709,,,,,,0.0,1.0,1.0,0.0,17.0,0.0,34.0,1.0,543.4494249999989,,,,,,,,,543.4409408329957,543.5303762080002,544.3314539169951,544.3231485419965,544.3236962499941,544.3314539169951,544.3314539169951,544.3314539169951,,546.2903496249928,,,,,,,,,,,,,,,,,,,,,,,,,,,,,,left,0.0,1.949997292002081,,,,,,sub-120,1,random_dot,118.3431378390347,
left,left,35.0,1.0,17.0,right,0.0,4.069397083992953,,accuracy,space,8.160889082995709,,,,,,0.0,1.0,1.0,0.0,17.0,1.0,35.0,0.0,546.2981243749964,,,,,,,,,546.2908388329961,547.0804432919977,547.8814667919942,547.8731635419972,547.873730457999,547.8814667919942,547.8814667919942,547.8814667919942,,551.9568209579884,,,,,,,,,,,,,,,,,,,,,,,,,,,,,,right,0.0,4.069397083992953,,,,,,sub-120,1,random_dot,118.3431378390347,
right,right,36.0,0.0,18.0,right,1.0,3.963320832990576,,accuracy,space,8.160889082995709,,,,,,0.0,1.0,1.0,0.0,18.0,0.0,36.0,1.0,551.9647620420001,,,,,,,,,551.9573009579908,552.747300957999,553.5484023329918,553.5399461669876,553.5406111249904,553.5484023329918,553.5484023329918,553.5484023329918,,557.5141597919865,,,,,,,,,,,,,,,,,,,,,,,,,,,,,,right,1.0,3.963320832990576,,,,,,sub-120,1,random_dot,118.3431378390347,
left,left,37.0,1.0,18.0,left,1.0,2.7166927499929443,,accuracy,space,8.160889082995709,,,,,,0.0,1.0,1.0,0.0,18.0,1.0,37.0,0.0,557.5219224999892,,,,,,,,,557.5146335829922,558.3127259999892,559.1056446250004,559.0961441669933,559.0967563329905,559.1056446250004,559.1056446250004,559.1056446250004,,561.824059666993,,,,,,,,,,,,,,,,,,,,,,,,,,,,,,left,1.0,2.7166927499929443,,,,,,sub-120,1,random_dot,118.3431378390347,
right,right,38.0,0.0,19.0,right,1.0,1.5912341670045862,,accuracy,space,8.160889082995709,,,,,,0.0,1.0,1.0,0.0,19.0,0.0,38.0,1.0,561.8322053749871,,,,,,,,,561.824532374987,562.6225875829987,563.4149510829884,563.4066324999876,563.4071863749996,563.4149510829884,563.4149510829884,563.4149510829884,,565.0175179169892,,,,,,,,,,,,,,,,,,,,,,,,,,,,,,right,1.0,1.5912341670045862,,,,,,sub-120,1,random_dot,118.3431378390347,
left,left,39.0,1.0,19.0,right,0.0,2.357408208990819,,accuracy,space,8.160889082995709,,,,,,0.0,1.0,1.0,0.0,19.0,1.0,39.0,0.0,565.0224918749882,,,,,,,,,565.0179931249877,565.113488374991,565.9154509999935,565.9066352919908,565.9072322499997,565.9154509999935,565.9154509999935,565.9154509999935,,568.2803994579881,,,,,,,,,,,,,,,,,,,,,,,,,,,,,,right,0.0,2.357408208990819,,,,,,sub-120,1,random_dot,118.3431378390347,
left,left,40.0,0.0,20.0,right,0.0,2.6929400420049205,,accuracy,space,8.160889082995709,,,,,,0.0,1.0,1.0,0.0,20.0,0.0,40.0,0.0,568.288657541998,,,,,,,,,568.2808687499928,568.3797072919988,569.1724437919911,569.1627982079954,569.1634256669931,569.1724437919911,569.1724437919911,569.1724437919911,,571.8739971249888,,,,,,,,,,,,,,,,,,,,,,,,,,,,,,right,0.0,2.6929400420049205,,,,,,sub-120,1,random_dot,118.3431378390347,
right,right,41.0,1.0,20.0,right,1.0,2.550416833008057,,accuracy,space,8.160889082995709,,,,,,0.0,1.0,1.0,0.0,20.0,1.0,41.0,1.0,571.8831279169972,,,,,,,,,571.8745510829904,572.2227093330002,573.015329124988,573.0067468329944,573.0074020419997,573.015329124988,573.015329124988,573.015329124988,,575.5737037079962,,,,,,,,,,,,,,,,,,,,,,,,,,,,,,right,1.0,2.550416833008057,,,,,,sub-120,1,random_dot,118.3431378390347,
left,left,42.0,0.0,21.0,right,0.0,2.3419022080051946,,accuracy,space,8.160889082995709,,,,,,0.0,1.0,1.0,0.0,21.0,0.0,42.0,0.0,575.581615957999,,,,,,,,,575.5741894169914,575.9137589999882,576.7154927079973,576.7068438329879,576.7075044169906,576.7154927079973,576.7154927079973,576.7154927079973,,579.0643419169937,,,,,,,,,,,,,,,,,,,,,,,,,,,,,,right,0.0,2.3419022080051946,,,,,,sub-120,1,random_dot,118.3431378390347,
right,right,43.0,1.0,21.0,left,0.0,1.2196576249989448,,accuracy,space,8.160889082995709,,,,,,0.0,1.0,1.0,0.0,21.0,1.0,43.0,1.0,579.0719675,,,,,,,,,579.0648157079995,579.8640164999961,580.6651602499915,580.6567598330003,580.6573150829936,580.6651602499915,580.6651602499915,580.6651602499915,,581.8910828329972,,,,,,,,,,,,,,,,,,,,,,,,,,,,,,left,0.0,1.2196576249989448,,,,,,sub-120,1,random_dot,118.3431378390347,
left,left,44.0,0.0,22.0,right,0.0,3.93258424999658,,accuracy,space,8.160889082995709,,,,,,0.0,1.0,1.0,0.0,22.0,0.0,44.0,0.0,581.899875499992,,,,,,,,,581.891733957993,582.2397869579872,583.0322344169981,583.0235071669886,583.0241942499997,583.0322344169981,583.0322344169981,583.0322344169981,,586.9739647499955,,,,,,,,,,,,,,,,,,,,,,,,,,,,,,right,0.0,3.93258424999658,,,,,,sub-120,1,random_dot,118.3431378390347,
right,right,45.0,1.0,22.0,left,0.0,2.4802612089988543,,accuracy,space,8.160889082995709,,,,,,0.0,1.0,1.0,0.0,22.0,1.0,45.0,1.0,586.9830726669898,,,,,,,,,586.9745140419982,588.1637224579899,588.9656806249986,588.9569387499942,588.9576039169915,588.9656806249986,588.9656806249986,588.9656806249986,,591.4477903329971,,,,,,,,,,,,,,,,,,,,,,,,,,,,,,left,0.0,2.4802612089988543,,,,,,sub-120,1,random_dot,118.3431378390347,
left,left,46.0,0.0,23.0,left,1.0,1.742027041997062,,accuracy,space,8.160889082995709,,,,,,0.0,1.0,1.0,0.0,23.0,0.0,46.0,0.0,591.4554331249965,,,,,,,,,591.4482430829958,592.2473832079995,593.0482809999958,593.0401072499953,593.0406657499989,593.0482809999958,593.0482809999958,593.0482809999958,,594.8011506669864,,,,,,,,,,,,,,,,,,,,,,,,,,,,,,left,1.0,1.742027041997062,,,,,,sub-120,1,random_dot,118.3431378390347,
right,right,47.0,1.0,23.0,right,1.0,4.848212041993975,,accuracy,space,8.160889082995709,,,,,,0.0,1.0,1.0,0.0,23.0,1.0,47.0,1.0,594.8067186249973,,,,,,,,,594.8016416249884,595.9973581249942,596.7984506669891,596.7901845419983,596.7907777079963,596.7984506669891,596.7984506669891,596.7984506669891,,601.6563994169992,,,,,,,,,,,,,,,,,,,,,,,,,,,,,,right,1.0,4.848212041993975,,,,,,sub-120,1,random_dot,118.3431378390347,
left,left,48.0,0.0,24.0,left,1.0,1.973719917004928,,accuracy,space,8.160889082995709,,,,,,0.0,1.0,1.0,0.0,24.0,0.0,48.0,0.0,601.6609152079909,,,,,,,,,601.6568078329874,601.9976124169916,602.7990277919889,602.7903189999925,602.790985707994,602.7990277919889,602.7990277919889,602.7990277919889,,604.7829854169977,,,,,,,,,,,,,,,,,,,,,,,,,,,,,,left,1.0,1.973719917004928,,,,,,sub-120,1,random_dot,118.3431378390347,
right,right,49.0,1.0,24.0,right,1.0,1.474328374999459,,accuracy,space,8.160889082995709,,,,,,0.0,1.0,1.0,0.0,24.0,1.0,49.0,1.0,604.7888192499959,,,,,,,,,604.7833514169906,605.9810049169901,606.7826235829998,606.7737583749986,606.7744241670007,606.7826235829998,606.7826235829998,606.7826235829998,,608.2676422919903,,,,,,,,,,,,,,,,,,,,,,,,,,,,,,right,1.0,1.474328374999459,,,,,,sub-120,1,random_dot,118.3431378390347,
right,right,50.0,0.0,25.0,left,0.0,2.545741875001113,,accuracy,space,8.160889082995709,,,,,,0.0,1.0,1.0,0.0,25.0,0.0,50.0,1.0,608.2722393749864,,,,,,,,,608.2680544579925,609.0630533749936,609.8560482499888,609.8460053329909,609.8465584579972,609.8560482499888,609.8560482499888,609.8560482499888,,612.4073754169949,,,,,,,,,,,,,,,,,,,,,,,,,,,,,,left,0.0,2.545741875001113,,,,,,sub-120,1,random_dot,118.3431378390347,
left,left,51.0,1.0,25.0,right,0.0,1.846939042006852,,accuracy,space,8.160889082995709,,,,,,0.0,1.0,1.0,0.0,25.0,1.0,51.0,0.0,612.4149278749974,,,,,,,,,612.4077561249869,613.1976879579888,613.9985996249889,613.9903348329972,613.990898374992,613.9985996249889,613.9985996249889,613.9985996249889,,615.8480812499911,,,,,,,,,,,,,,,,,,,,,,,,,,,,,,right,0.0,1.846939042006852,,,,,,sub-120,1,random_dot,118.3431378390347,
left,left,52.0,0.0,26.0,left,1.0,2.6564406249963213,,accuracy,space,8.160889082995709,,,,,,0.0,1.0,1.0,0.0,26.0,0.0,52.0,0.0,615.85575745799,,,,,,,,,615.8485346249945,617.0477972079971,617.8483831669873,617.8403334999894,617.8408807919914,617.8483831669873,617.8483831669873,617.8483831669873,,620.5076914579986,,,,,,,,,,,,,,,,,,,,,,,,,,,,,,left,1.0,2.6564406249963213,,,,,,sub-120,1,random_dot,118.3431378390347,
right,right,53.0,1.0,26.0,right,1.0,1.8461744579981316,,accuracy,space,8.160889082995709,,,,,,0.0,1.0,1.0,0.0,26.0,1.0,53.0,1.0,620.5155938749958,,,,,,,,,620.508248291997,621.2967822919891,622.0894343749969,622.0798753749987,622.0804825829982,622.0894343749969,622.0894343749969,622.0894343749969,,623.9404957499937,,,,,,,,,,,,,,,,,,,,,,,,,,,,,,right,1.0,1.8461744579981316,,,,,,sub-120,1,random_dot,118.3431378390347,
left,left,54.0,0.0,27.0,left,1.0,1.8552625000011176,,accuracy,space,8.160889082995709,,,,,,0.0,1.0,1.0,0.0,27.0,0.0,54.0,0.0,623.9480464579974,,,,,,,,,623.9408773749892,624.0299095419905,624.8228243749909,624.812674249988,624.8133042919944,624.8228243749909,624.8228243749909,624.8228243749909,,626.6809245419863,,,,,,,,,,,,,,,,,,,,,,,,,,,,,,left,1.0,1.8552625000011176,,,,,,sub-120,1,random_dot,118.3431378390347,
right,right,55.0,1.0,27.0,left,0.0,1.845498291993863,,accuracy,space,8.160889082995709,,,,,,0.0,1.0,1.0,0.0,27.0,1.0,55.0,1.0,626.6887623749935,,,,,,,,,626.6814045419887,627.480719041996,628.2825314169895,628.2737815419969,628.2744260829932,628.2825314169895,628.2825314169895,628.2825314169895,,630.1311033329985,,,,,,,,,,,,,,,,,,,,,,,,,,,,,,left,0.0,1.845498291993863,,,,,,sub-120,1,random_dot,118.3431378390347,
left,left,56.0,0.0,28.0,right,0.0,2.7519690839981195,,accuracy,space,8.160889082995709,,,,,,0.0,1.0,1.0,0.0,28.0,0.0,56.0,0.0,630.1389569999883,,,,,,,,,630.1315953329904,630.4811721250007,631.2820440829964,631.2738200829917,631.274405166987,631.2820440829964,631.2820440829964,631.2820440829964,,634.0411581669905,,,,,,,,,,,,,,,,,,,,,,,,,,,,,,right,0.0,2.7519690839981195,,,,,,sub-120,1,random_dot,118.3431378390347,
right,right,57.0,1.0,28.0,right,1.0,2.262929500007885,,accuracy,space,8.160889082995709,,,,,,0.0,1.0,1.0,0.0,28.0,1.0,57.0,1.0,634.0491871249978,,,,,,,,,634.0416224579967,634.8402003749943,635.6318179579976,635.6237752079905,635.6243463329884,635.6318179579976,635.6318179579976,635.6318179579976,,637.8978666249895,,,,,,,,,,,,,,,,,,,,,,,,,,,,,,right,1.0,2.262929500007885,,,,,,sub-120,1,random_dot,118.3431378390347,
left,left,58.0,0.0,29.0,left,1.0,2.065215333001106,,accuracy,space,8.160889082995709,,,,,,0.0,1.0,1.0,0.0,29.0,0.0,58.0,0.0,637.9055325829977,,,,,,,,,637.8983435419941,638.2475458329864,639.0494911249989,639.0406184169988,639.0413033749937,639.0494911249989,639.0494911249989,639.0494911249989,,641.1241835419933,,,,,,,,,,,,,,,,,,,,,,,,,,,,,,left,1.0,2.065215333001106,,,,,,sub-120,1,random_dot,118.3431378390347,
right,right,59.0,1.0,29.0,left,0.0,1.6393761670042295,,accuracy,space,8.160889082995709,,,,,,0.0,1.0,1.0,0.0,29.0,1.0,59.0,1.0,641.1324133329908,,,,,,,,,641.1246577079874,641.4645744579902,642.2661179579882,642.2572358329926,642.2579119579896,642.2661179579882,642.2661179579882,642.2661179579882,,643.907566541995,,,,,,,,,,,,,,,,,,,,,,,,,,,,,,left,0.0,1.6393761670042295,,,,,,sub-120,1,random_dot,118.3431378390347,
,,1.0,1.0,0.0,,,,,accuracy,space,8.160889082995709,,,,,,0.0,1.0,1.0,0.0,,,,,,,,,,,,,,,,,,,,,,,,,,,,,,,,,,,,,,,,,,,,,,,,,,,,,,,,,,,,,sub-120,1,random_dot,118.3431378390347,
,,,,,,,,,,,,,,,,,,,,,,,,,,,,,,,,,,,,,,,,,,,,,,,,,,,,,,,,,,,,,,,,,,,,,,,,,,,,,643.9140989169973,643.9230777079938,648.9122588749888,648.9073730419914,sub-120,1,random_dot,118.3431378390347,
