direction,corrAns,randomInstr,practice_trials.thisRepN,practice_trials.thisTrialN,practice_trials.thisN,practice_trials.thisIndex,instr_trials.thisRepN,instr_trials.thisTrialN,instr_trials.thisN,instr_trials.thisIndex,test_trials.thisRepN,test_trials.thisTrialN,test_trials.thisN,test_trials.thisIndex,thisRow.t,notes,general_instruction.started,textGeneralInstr.started,respGeneralInstr.started,general_instruction.stopped,respGeneralInstr.keys,respGeneralInstr.rt,respGeneralInstr.duration,ITI.started,fixcross.started,fixcross.stopped,ITI.stopped,dots.started,backgroundDots.started,stimulusDots.started,respDots.started,dots.stopped,respDots.keys,respDots.corr,respDots.rt,respDots.duration,feedback.started,textFeedback.started,feedback.stopped,textFeedback.stopped,info.started,textInfo.started,keyRespInfo.started,info.stopped,keyRespInfo.keys,keyRespInfo.rt,keyRespInfo.duration,test_instruction.started,textTestInstr.started,respTestInstr.started,test_instruction.stopped,respTestInstr.keys,respTestInstr.rt,respTestInstr.duration,random_instruction.started,textRandomInstr.started,respRandomInstr.started,random_instruction.stopped,respRandomInstr.keys,respRandomInstr.rt,respRandomInstr.duration,goodbye.started,textGoodbye.started,goodbye.stopped,participant,session,expName,frameRate,Unnamed: 72
,,,,,,,,,,,,,,,,,0.0060716001316905,0.0263988999649882,0.0263988999649882,130.63121520006098,space,146.59056489984505,,,,,,,,,,,,,,,,,,,,,,,,,,,,,,,,,,,,,,,,,,,sub-073,1.0,random_dot,59.82041909939268,
right,right,,0.0,0.0,0.0,1.0,,,,,,,,,130.77550230012275,,,,,,,,,130.7644253000617,130.993570700055,131.79414819995873,131.7788876001723,131.77892079995945,131.79414819995873,131.79414819995873,131.79414819995873,132.49561290000565,right,1.0,16.69334779982455,,132.49743560003117,132.51848740014248,133.01128330011852,,,,,,,,,,,,,,,,,,,,,,,,,,sub-073,1.0,random_dot,59.82041909939268,
left,left,,0.0,1.0,1.0,0.0,,,,,,,,,133.02822840004228,,,,,,,,,133.0119897001423,133.36139960004948,134.16091370000504,134.14563730009831,134.14568209997378,134.16091370000504,134.16091370000504,134.16091370000504,134.6605378000531,left,1.0,16.487551799742505,,134.66099060000852,134.67583660013042,135.16120210010558,,,,,,,,,,,,,,,,,,,,,,,,,,sub-073,1.0,random_dot,59.82041909939268,
right,right,,1.0,0.0,2.0,1.0,,,,,,,,,135.1779628000222,,,,,,,,,135.16190210008062,135.26085319998674,136.07634100015275,136.05985580012202,136.05987540003844,136.07634100015275,136.07634100015275,136.07634100015275,136.5767377000302,left,0.0,16.489674599841237,,136.57717720000073,136.59204410016537,137.07658420014195,137.09204960009083,,,,,,,,,,,,,,,,,,,,,,,,,sub-073,1.0,random_dot,59.82041909939268,
left,left,,1.0,1.0,3.0,0.0,,,,,,,,,137.09204960009083,,,,,,,,,137.0769927999936,137.1778436000459,137.99251020001248,137.97601850004867,137.9760374999605,137.99251020001248,137.99251020001248,137.99251020001248,138.5771957000252,left,1.0,16.57134039979428,,138.57765360013582,138.60075470013544,139.09234239999205,,,,,,,,,,,,,,,,,,,,,,,,,,sub-073,1.0,random_dot,59.82041909939268,
right,right,,2.0,0.0,4.0,1.0,,,,,,,,,139.1093026001472,,,,,,,,,139.09278409997933,139.89230190007947,140.69483839999884,140.67847210005857,140.6785134000238,140.69483839999884,140.69483839999884,140.69483839999884,141.12679590005428,right,1.0,16.419993799878284,,141.1272424000781,141.14322279999033,141.62760610016994,141.64292250014842,,,,,,,,,,,,,,,,,,,,,,,,,sub-073,1.0,random_dot,59.82041909939268,
left,left,,2.0,1.0,5.0,0.0,,,,,,,,,141.64292250014842,,,,,,,,,141.62804790004157,141.97747420007363,142.7762742000632,142.76233080006205,142.7623687000014,142.7762742000632,142.7762742000632,142.7762742000632,143.2771672999952,left,1.0,16.493943499634042,,143.27760819997638,143.29272010014392,143.77778859995306,,,,,,,,,,,,,,,,,,,,,,,,,,sub-073,1.0,random_dot,59.82041909939268,
left,left,,3.0,0.0,6.0,0.0,,,,,,,,,143.794467800064,,,,,,,,,143.77857830002904,144.1445616001729,144.94417909998447,144.9283044000622,144.92834300012328,144.94417909998447,144.94417909998447,144.94417909998447,145.56346340011805,left,1.0,16.615075499983504,,145.5642548999749,145.57675600005314,146.0617225000169,146.0777354000602,,,,,,,,,,,,,,,,,,,,,,,,,sub-073,1.0,random_dot,59.82041909939268,
right,right,,3.0,1.0,7.0,1.0,,,,,,,,,146.0777354000602,,,,,,,,,146.06239750003442,146.42749310005456,147.227478899993,147.21161680016667,147.21165010007098,147.227478899993,147.227478899993,147.227478899993,147.62952990015037,right,1.0,16.39887119992636,,147.63033810001798,147.6434530999977,148.14355230005458,,,,,,,,,,,,,,,,,,,,,,,,,,sub-073,1.0,random_dot,59.82041909939268,
right,right,,4.0,0.0,8.0,1.0,,,,,,,,,148.16036029998213,,,,,,,,,148.14418260008097,148.94208050007,149.74415870010853,149.72882590000518,149.72886499995366,149.74415870010853,149.74415870010853,149.74415870010853,150.23030840000138,right,1.0,16.487101099686697,,150.23100060014986,150.24329270003363,150.72631560009904,150.74287319998257,,,,,,,,,,,,,,,,,,,,,,,,,sub-073,1.0,random_dot,59.82041909939268,
left,left,,4.0,1.0,9.0,0.0,,,,,,,,,150.74287319998257,,,,,,,,,150.7266959999688,151.5436867000535,152.34392999997362,152.3268749001436,152.32690220000222,152.34392999997362,152.34392999997362,152.34392999997362,152.89584779995494,left,1.0,16.544669299619272,,152.8965613001492,152.91106009995565,153.39515490015037,153.410923599964,,,,,,,,,,,,,,,,,,,,,,,,,sub-073,1.0,random_dot,59.82041909939268,
left,left,,5.0,0.0,10.0,0.0,,,,,,,,,153.410923599964,,,,,,,,,153.3958646999672,153.51043200003917,154.30948809999973,154.29441510001195,154.29445010004565,154.30948809999973,154.30948809999973,154.30948809999973,154.9597100999672,left,1.0,16.645400599809363,,154.96013200003654,154.97512870002538,155.46092940005474,,,,,,,,,,,,,,,,,,,,,,,,,,sub-073,1.0,random_dot,59.82041909939268,
right,right,,5.0,1.0,11.0,1.0,,,,,,,,,155.47695160005242,,,,,,,,,155.46152719995007,156.2605910000857,157.06075510010123,157.04548060009256,157.04552279994823,157.06075510010123,157.06075510010123,157.06075510010123,157.63037150003947,right,1.0,16.570066899759695,,157.63114910013974,157.64325170009397,158.12829480017535,158.1436123000458,,,,,,,,,,,,,,,,,,,,,,,,,sub-073,1.0,random_dot,59.82041909939268,
right,right,,6.0,0.0,12.0,1.0,,,,,,,,,158.1436123000458,,,,,,,,,158.12896280013956,158.49324660003185,159.294080800144,159.27818320016377,159.27822400000878,159.294080800144,159.294080800144,159.294080800144,159.72895200015046,left,0.0,16.42211419972591,,159.72961260005832,159.74284860002808,160.2282476001419,160.2435847001616,,,,,,,,,,,,,,,,,,,,,,,,,sub-073,1.0,random_dot,59.82041909939268,
left,left,,6.0,1.0,13.0,0.0,,,,,,,,,160.2435847001616,,,,,,,,,160.2289283000864,160.34335510013625,161.1441435001325,161.1287120000925,161.12875550007448,161.1441435001325,161.1441435001325,161.1441435001325,161.8781402001623,left,1.0,16.724275699816644,,161.87870460003614,161.8929070001468,162.3779104000423,162.39355810009874,,,,,,,,,,,,,,,,,,,,,,,,,sub-073,1.0,random_dot,59.82041909939268,
right,right,,7.0,0.0,14.0,1.0,,,,,,,,,162.39355810009874,,,,,,,,,162.37849240005016,163.19390910002403,163.99362329998985,163.97789980005473,163.97793280007318,163.99362329998985,163.99362329998985,163.99362329998985,164.39601290016435,right,1.0,16.39671909972094,,164.39678340009414,164.41028870013542,164.895209700102,164.9107511001639,,,,,,,,,,,,,,,,,,,,,,,,,sub-073,1.0,random_dot,59.82041909939268,
left,left,,7.0,1.0,15.0,0.0,,,,,,,,,164.9107511001639,,,,,,,,,164.8959125999827,166.11050270008857,166.91060289996676,166.8947191000916,166.8947595001664,166.91060289996676,166.91060289996676,166.91060289996676,167.4125813001301,left,1.0,16.50234129978344,,167.41328099998643,167.4267669999972,167.91160370013677,167.9270001000259,,,,,,,,,,,,,,,,,,,,,,,,,sub-073,1.0,random_dot,59.82041909939268,
left,left,,8.0,0.0,16.0,0.0,,,,,,,,,167.9270001000259,,,,,,,,,167.9123123001773,169.12717660004273,169.92860070010647,169.91084290016445,169.91086900001392,169.92860070010647,169.92860070010647,169.92860070010647,170.37887360015884,right,0.0,16.45096919964999,,170.37953720008954,170.39210209995508,170.87840480008165,170.89282270008698,,,,,,,,,,,,,,,,,,,,,,,,,sub-073,1.0,random_dot,59.82041909939268,
right,right,,8.0,1.0,17.0,1.0,,,,,,,,,170.89282270008698,,,,,,,,,170.87888099998236,170.99400639999658,171.80896940012462,171.79193690000102,171.79195700003766,171.80896940012462,171.80896940012462,171.80896940012462,172.26097119995393,right,1.0,16.439282699720934,,172.26146820001304,172.27545369998552,172.76151950005442,172.7769704000093,,,,,,,,,,,,,,,,,,,,,,,,,sub-073,1.0,random_dot,59.82041909939268,
left,left,,9.0,0.0,18.0,0.0,,,,,,,,,172.7769704000093,,,,,,,,,172.7621361000929,173.126553399954,173.92716239998117,173.9114874000661,173.91152089997195,173.92716239998117,173.92716239998117,173.92716239998117,174.3614340999629,left,1.0,16.421445099636912,,174.36214089998975,174.37582459999248,174.85999549995176,174.87667210004292,,,,,,,,,,,,,,,,,,,,,,,,,sub-073,1.0,random_dot,59.82041909939268,
right,right,,9.0,1.0,19.0,1.0,,,,,,,,,174.87667210004292,,,,,,,,,174.8604500000365,176.07659479998983,176.8933902999852,176.8763538999483,176.8763858000748,176.8933902999852,176.8933902999852,176.8933902999852,177.44727770006284,right,1.0,16.55391679983586,,177.44809289998375,177.4595210000407,177.94497029995546,177.95943449996412,,,,,,,,,,,,,,,,,,,,,,,,,sub-073,1.0,random_dot,59.82041909939268,
,,,,,,,,,,,,,,,,,,,,,,,,,,,,,,,,,,,,,,,,,177.94508090009913,177.95943449996412,177.95943449996412,179.07913190010004,space,17.11935289995745,,,,,,,,,,,,,,,,,,,sub-073,1.0,random_dot,59.82041909939268,
,,,,,,,,,,,,,,,,,,,,,,,,,,,,,,,,,,,,,,,,,,,,,,,,179.0791866001673,179.09280300000682,179.09280300000682,185.77925100014545,space,22.68715409981087,,,,,,,,,,,,sub-073,1.0,random_dot,59.82041909939268,
left,left,accuracy,,,,,0.0,0.0,0.0,0.0,0.0,0.0,0.0,0.0,191.22278159996492,,,,,,,,,191.20362400007437,192.4098609001376,193.2101545999758,193.19409919995812,193.19413540000096,193.2101545999758,193.2101545999758,193.2101545999758,194.1456754000392,right,0.0,16.930812699720263,,,,,,,,,,,,,,,,,,,,185.80002399999648,185.82687650015575,185.82687650015575,191.19453620002605,space,21.360895099816844,,,,,sub-073,1.0,random_dot,59.82041909939268,
right,right,accuracy,,,,,0.0,0.0,0.0,0.0,0.0,1.0,1.0,1.0,194.15926950005812,,,,,,,,,194.1475969001185,194.5100619001314,195.30994340009056,195.29426360013892,195.29430700000376,195.30994340009056,195.30994340009056,195.30994340009056,195.98472549999133,right,1.0,16.675305399810895,,,,,,,,,,,,,,,,,,,,,,,,,,,,,,sub-073,1.0,random_dot,59.82041909939268,
right,right,accuracy,,,,,0.0,0.0,0.0,0.0,1.0,0.0,2.0,1.0,195.9942308999598,,,,,,,,,195.98616289999336,196.79338359995745,197.59376169997267,197.57771040010263,197.5777499000542,197.59376169997267,197.59376169997267,197.59376169997267,198.66136230016127,right,1.0,17.06033069989644,,,,,,,,,,,,,,,,,,,,,,,,,,,,,,sub-073,1.0,random_dot,59.82041909939268,
left,left,accuracy,,,,,0.0,0.0,0.0,0.0,1.0,1.0,3.0,0.0,198.67501170001924,,,,,,,,,198.66275739995763,199.87623209995215,200.67654810007664,200.66057269996963,200.6606161999516,200.67654810007664,200.67654810007664,200.67654810007664,201.56033740006387,left,1.0,16.88355019968003,,,,,,,,,,,,,,,,,,,,,,,,,,,,,,sub-073,1.0,random_dot,59.82041909939268,
left,left,accuracy,,,,,0.0,0.0,0.0,0.0,2.0,0.0,4.0,0.0,201.57683650008403,,,,,,,,,201.56119689997288,201.92613540007733,202.72577510005797,202.7112052000593,202.7112406999804,202.72577510005797,202.72577510005797,202.72577510005797,203.91135900001973,left,1.0,17.184612300014123,,,,,,,,,,,,,,,,,,,,,,,,,,,,,,sub-073,1.0,random_dot,59.82041909939268,
right,right,accuracy,,,,,0.0,0.0,0.0,0.0,2.0,1.0,5.0,1.0,203.92499700002367,,,,,,,,,203.91246829996817,205.126056100009,205.92658690013923,205.91131130000576,205.91135190008208,205.92658690013923,205.92658690013923,205.92658690013923,206.41223530005664,right,1.0,16.478515199851245,,,,,,,,,,,,,,,,,,,,,,,,,,,,,,sub-073,1.0,random_dot,59.82041909939268,
left,left,accuracy,,,,,0.0,0.0,0.0,0.0,3.0,0.0,6.0,0.0,206.425954699982,,,,,,,,,206.41372529999356,207.22425630013456,208.0244301001076,208.0080361000728,208.00805629999377,208.0244301001076,208.0244301001076,208.0244301001076,208.97898510005325,left,1.0,16.950681599788368,,,,,,,,,,,,,,,,,,,,,,,,,,,,,,sub-073,1.0,random_dot,59.82041909939268,
right,right,accuracy,,,,,0.0,0.0,0.0,0.0,3.0,1.0,7.0,1.0,208.99219520017505,,,,,,,,,208.98036899999715,209.34328240016475,210.5021081001032,210.14303730009124,210.1430695001036,210.5021081001032,210.5021081001032,210.5021081001032,211.11092290002853,right,1.0,16.60120249981992,,,,,,,,,,,,,,,,,,,,,,,,,,,,,,sub-073,1.0,random_dot,59.82041909939268,
left,left,accuracy,,,,,0.0,0.0,0.0,0.0,4.0,0.0,8.0,0.0,211.12601869995703,,,,,,,,,211.1119238999672,211.9262213001493,212.74131010007116,212.72464930010028,212.7246718001552,212.74131010007116,212.74131010007116,212.74131010007116,213.36157199996524,left,1.0,16.60634349961765,,,,,,,,,,,,,,,,,,,,,,,,,,,,,,sub-073,1.0,random_dot,59.82041909939268,
right,right,accuracy,,,,,0.0,0.0,0.0,0.0,4.0,1.0,9.0,1.0,213.3759945000056,,,,,,,,,213.3633459000848,214.57487070001665,215.3747692999896,215.3584959001746,215.3585157000925,215.3747692999896,215.3747692999896,215.3747692999896,215.94254890014415,right,1.0,16.56448889989406,,,,,,,,,,,,,,,,,,,,,,,,,,,,,,sub-073,1.0,random_dot,59.82041909939268,
right,right,accuracy,,,,,0.0,0.0,0.0,0.0,5.0,0.0,10.0,1.0,215.9575873001013,,,,,,,,,215.9433480000589,217.1427510001231,217.9429401999805,217.9271673001349,217.9272102001123,217.9429401999805,217.9429401999805,217.9429401999805,218.88035790016875,right,1.0,16.937153299804777,,,,,,,,,,,,,,,,,,,,,,,,,,,,,,sub-073,1.0,random_dot,59.82041909939268,
left,left,accuracy,,,,,0.0,0.0,0.0,0.0,5.0,1.0,11.0,0.0,218.89303130004555,,,,,,,,,218.8818608999718,220.0923723001033,220.89271389995704,220.87743580015376,220.87747490010224,220.89271389995704,220.89271389995704,220.89271389995704,221.69512130017392,left,1.0,16.79946259991266,,,,,,,,,,,,,,,,,,,,,,,,,,,,,,sub-073,1.0,random_dot,59.82041909939268,
right,right,accuracy,,,,,0.0,0.0,0.0,0.0,6.0,0.0,12.0,1.0,221.7081275000237,,,,,,,,,221.69622050016187,222.05951420008205,222.8593948001508,222.84422670002093,222.8443126999773,222.8593948001508,222.8593948001508,222.8593948001508,223.4775734001305,right,1.0,16.610597799764946,,,,,,,,,,,,,,,,,,,,,,,,,,,,,,sub-073,1.0,random_dot,59.82041909939268,
left,left,accuracy,,,,,0.0,0.0,0.0,0.0,6.0,1.0,13.0,0.0,223.4928168000188,,,,,,,,,223.47900709998797,224.29246280016375,225.0928462999873,225.07660920009948,225.07665150007236,225.0928462999873,225.0928462999873,225.0928462999873,225.87765030004084,left,1.0,16.784554099896923,,,,,,,,,,,,,,,,,,,,,,,,,,,,,,sub-073,1.0,random_dot,59.82041909939268,
left,left,accuracy,,,,,0.0,0.0,0.0,0.0,7.0,0.0,14.0,0.0,225.8929802000057,,,,,,,,,225.8787943001371,225.99244410009123,226.7926135000307,226.77691849996336,226.77695760014467,226.7926135000307,226.7926135000307,226.7926135000307,227.4437001999468,right,0.0,16.63798339967616,,,,,,,,,,,,,,,,,,,,,,,,,,,,,,sub-073,1.0,random_dot,59.82041909939268,
right,right,accuracy,,,,,0.0,0.0,0.0,0.0,7.0,1.0,15.0,1.0,227.4597088000737,,,,,,,,,227.44499119999816,227.80962880002332,228.60947909997776,228.5939786001109,228.5940178001765,228.60947909997776,228.60947909997776,228.60947909997776,229.42905770009384,right,1.0,16.817440699785948,,,,,,,,,,,,,,,,,,,,,,,,,,,,,,sub-073,1.0,random_dot,59.82041909939268,
right,right,accuracy,,,,,0.0,0.0,0.0,0.0,8.0,0.0,16.0,1.0,229.44236530014317,,,,,,,,,229.43049250007607,229.5410348000005,230.3424631000962,230.32827210007235,230.32831120002083,230.3424631000962,230.3424631000962,230.3424631000962,230.99606980010867,right,1.0,16.64855429972522,,,,,,,,,,,,,,,,,,,,,,,,,,,,,,sub-073,1.0,random_dot,59.82041909939268,
left,left,accuracy,,,,,0.0,0.0,0.0,0.0,8.0,1.0,17.0,0.0,231.00922200013883,,,,,,,,,230.99753900012,232.2094797999598,233.0098381000571,232.9949384001084,232.9949779000599,233.0098381000571,233.0098381000571,233.0098381000571,233.74415319995023,left,1.0,16.722045399947092,,,,,,,,,,,,,,,,,,,,,,,,,,,,,,sub-073,1.0,random_dot,59.82041909939268,
right,right,accuracy,,,,,0.0,0.0,0.0,0.0,9.0,0.0,18.0,1.0,233.7584935000632,,,,,,,,,233.7452359001618,233.85683780000545,234.65950460010208,234.64407890010625,234.64412180008367,234.65950460010208,234.65950460010208,234.65950460010208,235.21037440001965,right,1.0,16.55017779977061,,,,,,,,,,,,,,,,,,,,,,,,,,,,,,sub-073,1.0,random_dot,59.82041909939268,
left,left,accuracy,,,,,0.0,0.0,0.0,0.0,9.0,1.0,19.0,0.0,235.22480359999463,,,,,,,,,235.21129530016333,236.0255994000472,236.8423746000044,236.82550350017848,236.82552720000967,236.8423746000044,236.8423746000044,236.8423746000044,237.4104504000861,right,0.0,16.56007739994675,,,,,,,,,,,,,,,,,,,,,,,,,,,,,,sub-073,1.0,random_dot,59.82041909939268,
left,left,accuracy,,,,,0.0,0.0,0.0,0.0,10.0,0.0,20.0,0.0,237.42578579997644,,,,,,,,,237.41145210014656,238.62551690009423,239.42580069997348,239.41068650013767,239.41072320006788,239.42580069997348,239.42580069997348,239.42580069997348,239.9282882001717,left,1.0,16.49717369978316,,,,,,,,,,,,,,,,,,,,,,,,,,,,,,sub-073,1.0,random_dot,59.82041909939268,
right,right,accuracy,,,,,0.0,0.0,0.0,0.0,10.0,1.0,21.0,1.0,239.9424705000129,,,,,,,,,239.92943689995445,240.29277499997988,241.1075615000445,241.0917537000496,241.09178130002687,241.1075615000445,241.1075615000445,241.1075615000445,241.57692930009216,right,1.0,16.459085499867797,,,,,,,,,,,,,,,,,,,,,,,,,,,,,,sub-073,1.0,random_dot,59.82041909939268,
left,left,accuracy,,,,,0.0,0.0,0.0,0.0,11.0,0.0,22.0,0.0,241.59079000004567,,,,,,,,,241.57800570013933,242.7924369999673,243.60754570015703,243.59043400012888,243.59046690003012,243.60754570015703,243.60754570015703,243.60754570015703,244.25832780008204,left,1.0,16.638412799919024,,,,,,,,,,,,,,,,,,,,,,,,,,,,,,sub-073,1.0,random_dot,59.82041909939268,
right,right,accuracy,,,,,0.0,0.0,0.0,0.0,11.0,1.0,23.0,1.0,244.27405270002785,,,,,,,,,244.2590813999996,244.609216599958,245.40925709996367,245.39363060006872,245.39366900012828,245.40925709996367,245.40925709996367,245.40925709996367,245.9286579000764,right,1.0,16.515887499786913,,,,,,,,,,,,,,,,,,,,,,,,,,,,,,sub-073,1.0,random_dot,59.82041909939268,
left,left,accuracy,,,,,0.0,0.0,0.0,0.0,12.0,0.0,24.0,0.0,245.94220739998852,,,,,,,,,245.930043600034,247.14217180013657,247.9428692001384,247.92707219999284,247.92711449996568,247.9428692001384,247.9428692001384,247.9428692001384,248.90874740015715,left,1.0,16.953573299804702,,,,,,,,,,,,,,,,,,,,,,,,,,,,,,sub-073,1.0,random_dot,59.82041909939268,
right,right,accuracy,,,,,0.0,0.0,0.0,0.0,12.0,1.0,25.0,1.0,248.92392740002836,,,,,,,,,248.90953360009007,250.10885330010208,250.9080952000804,250.8934141001664,250.89345329999924,250.9080952000804,250.9080952000804,250.9080952000804,252.18203529994932,right,1.0,17.273332099663094,,,,,,,,,,,,,,,,,,,,,,,,,,,,,,sub-073,1.0,random_dot,59.82041909939268,
right,right,accuracy,,,,,0.0,0.0,0.0,0.0,13.0,0.0,26.0,1.0,252.1917596999556,,,,,,,,,252.1833397001028,253.3924211000558,254.20901160012,254.1931078999769,254.1931382000912,254.20901160012,254.20901160012,254.20901160012,254.87653000000864,right,1.0,16.666651799809188,,,,,,,,,,,,,,,,,,,,,,,,,,,,,,sub-073,1.0,random_dot,59.82041909939268,
left,left,accuracy,,,,,0.0,0.0,0.0,0.0,13.0,1.0,27.0,0.0,254.89006650005467,,,,,,,,,254.87726630014367,255.2420580000617,256.0425099001732,256.0266597999725,256.026749300072,256.0425099001732,256.0425099001732,256.0425099001732,256.69152130000293,left,1.0,16.642161099938676,,,,,,,,,,,,,,,,,,,,,,,,,,,,,,sub-073,1.0,random_dot,59.82041909939268,
right,right,accuracy,,,,,0.0,0.0,0.0,0.0,14.0,0.0,28.0,1.0,256.7063438000623,,,,,,,,,256.69227800006047,256.7921871000435,257.59092460013926,257.5766438001301,257.57668250007555,257.59092460013926,257.59092460013926,257.59092460013926,258.10968480003066,right,1.0,16.50568479974754,,,,,,,,,,,,,,,,,,,,,,,,,,,,,,sub-073,1.0,random_dot,59.82041909939268,
left,left,accuracy,,,,,0.0,0.0,0.0,0.0,14.0,1.0,29.0,0.0,258.12388320011087,,,,,,,,,258.1107807001099,258.22565579996444,259.0253831001464,259.0097286000382,259.0097676999867,259.0253831001464,259.0253831001464,259.0253831001464,259.7439439999871,left,1.0,16.70628139982,,,,,,,,,,,,,,,,,,,,,,,,,,,,,,sub-073,1.0,random_dot,59.82041909939268,
left,left,accuracy,,,,,0.0,0.0,0.0,0.0,15.0,0.0,30.0,0.0,259.75878909998573,,,,,,,,,259.7452461000066,260.9587628999725,261.7585067001637,261.74208360002376,261.7421120000072,261.7585067001637,261.7585067001637,261.7585067001637,262.52788279997185,left,1.0,16.765518099768087,,,,,,,,,,,,,,,,,,,,,,,,,,,,,,sub-073,1.0,random_dot,59.82041909939268,
right,right,accuracy,,,,,0.0,0.0,0.0,0.0,15.0,1.0,31.0,1.0,262.54137700004503,,,,,,,,,262.5292259999551,263.3416355000809,264.1415999000892,264.12689530011266,264.12693290016614,264.1415999000892,264.1415999000892,264.1415999000892,264.6929157001432,right,1.0,16.538881900021806,,,,,,,,,,,,,,,,,,,,,,,,,,,,,,sub-073,1.0,random_dot,59.82041909939268,
left,left,accuracy,,,,,0.0,0.0,0.0,0.0,16.0,0.0,32.0,0.0,264.7087583001703,,,,,,,,,264.6939690001309,265.9082414000295,266.7087157999631,266.69358050008304,266.6936399000697,266.7087157999631,266.7087157999631,266.7087157999631,267.6096853001509,left,1.0,16.890811699675396,,,,,,,,,,,,,,,,,,,,,,,,,,,,,,sub-073,1.0,random_dot,59.82041909939268,
right,right,accuracy,,,,,0.0,0.0,0.0,0.0,16.0,1.0,33.0,1.0,267.6252411000896,,,,,,,,,267.6108435001224,268.8253935000393,269.6255497999955,269.6096747000702,269.6097145001404,269.6255497999955,269.6255497999955,269.6255497999955,270.12704819999635,right,1.0,16.49653449980542,,,,,,,,,,,,,,,,,,,,,,,,,,,,,,sub-073,1.0,random_dot,59.82041909939268,
left,left,accuracy,,,,,0.0,0.0,0.0,0.0,17.0,0.0,34.0,0.0,270.1411519001704,,,,,,,,,270.12842900003307,270.24195610010065,271.0577849999536,271.04114750004373,271.04116729996167,271.0577849999536,271.0577849999536,271.0577849999536,271.70959490002133,left,1.0,16.638651099987328,,,,,,,,,,,,,,,,,,,,,,,,,,,,,,sub-073,1.0,random_dot,59.82041909939268,
right,right,accuracy,,,,,0.0,0.0,0.0,0.0,17.0,1.0,35.0,1.0,271.7252814001404,,,,,,,,,271.71072140010074,272.5247947999742,273.325265499996,273.30998380016536,273.3100261001382,273.325265499996,273.325265499996,273.325265499996,273.859696400119,right,1.0,16.527870299760252,,,,,,,,,,,,,,,,,,,,,,,,,,,,,,sub-073,1.0,random_dot,59.82041909939268,
right,right,accuracy,,,,,0.0,0.0,0.0,0.0,18.0,0.0,36.0,1.0,273.8734488999471,,,,,,,,,273.8609065001365,274.6747404001653,275.4750272000674,275.4596563000232,275.459691000171,275.4750272000674,275.4750272000674,275.4750272000674,276.65987160010263,right,1.0,17.178786099888384,,,,,,,,,,,,,,,,,,,,,,,,,,,,,,sub-073,1.0,random_dot,59.82041909939268,
left,left,accuracy,,,,,0.0,0.0,0.0,0.0,18.0,1.0,37.0,0.0,276.674597900128,,,,,,,,,276.6611951000523,277.024426399963,277.82538600009866,277.80985160009004,277.8098922001664,277.82538600009866,277.82538600009866,277.82538600009866,278.6105848001316,left,1.0,16.777983999811113,,,,,,,,,,,,,,,,,,,,,,,,,,,,,,sub-073,1.0,random_dot,59.82041909939268,
left,left,accuracy,,,,,0.0,0.0,0.0,0.0,19.0,0.0,38.0,0.0,278.6243807000574,,,,,,,,,278.61185480002314,279.8247271999717,280.6251026000828,280.60978760011494,280.6098285999615,280.6251026000828,280.6251026000828,280.6251026000828,281.76077400008217,left,1.0,17.13193679996766,,,,,,,,,,,,,,,,,,,,,,,,,,,,,,sub-073,1.0,random_dot,59.82041909939268,
right,right,accuracy,,,,,0.0,0.0,0.0,0.0,19.0,1.0,39.0,1.0,281.77428350015543,,,,,,,,,281.76211889996193,281.87519240006804,282.6748719001189,282.65933210006915,282.65937510016374,282.6748719001189,282.6748719001189,282.6748719001189,283.2429164000787,right,1.0,16.55798129993491,,,,,,,,,,,,,,,,,,,,,,,,,,,,,,sub-073,1.0,random_dot,59.82041909939268,
right,right,accuracy,,,,,0.0,0.0,0.0,0.0,20.0,0.0,40.0,1.0,283.2592094000429,,,,,,,,,283.2441988000646,284.4572579001542,285.25878000003286,285.24290119996294,285.2429399001412,285.25878000003286,285.25878000003286,285.25878000003286,286.3939569001086,right,1.0,17.128456799779087,,,,,,,,,,,,,,,,,,,,,,,,,,,,,,sub-073,1.0,random_dot,59.82041909939268,
left,left,accuracy,,,,,0.0,0.0,0.0,0.0,20.0,1.0,41.0,0.0,286.40775880008005,,,,,,,,,286.3953864001669,287.60790559998713,288.4079567000736,288.39294570009224,288.39298760006204,288.4079567000736,288.4079567000736,288.4079567000736,289.06056919996627,left,1.0,16.64823759975843,,,,,,,,,,,,,,,,,,,,,,,,,,,,,,sub-073,1.0,random_dot,59.82041909939268,
right,right,accuracy,,,,,0.0,0.0,0.0,0.0,21.0,0.0,42.0,1.0,289.0744364000857,,,,,,,,,289.06190329999663,290.27467279997654,291.0747789000161,291.05950279999524,291.0595415001735,291.0747789000161,291.0747789000161,291.0747789000161,291.5429191000294,right,1.0,16.455174599774182,,,,,,,,,,,,,,,,,,,,,,,,,,,,,,sub-073,1.0,random_dot,59.82041909939268,
left,left,accuracy,,,,,0.0,0.0,0.0,0.0,21.0,1.0,43.0,0.0,291.5584579000715,,,,,,,,,291.544261300005,291.9081862999592,292.7081739001442,292.69222860015,292.692269399995,292.7081739001442,292.7081739001442,292.7081739001442,293.17638469999656,left,1.0,16.467085699783638,,,,,,,,,,,,,,,,,,,,,,,,,,,,,,sub-073,1.0,random_dot,59.82041909939268,
right,right,accuracy,,,,,0.0,0.0,0.0,0.0,22.0,0.0,44.0,1.0,293.19375360012054,,,,,,,,,293.1778724000324,293.5412361000199,294.34133720002137,294.32582170004025,294.32585440017283,294.34133720002137,294.34133720002137,294.34133720002137,294.87475560000166,right,1.0,16.527339399792254,,,,,,,,,,,,,,,,,,,,,,,,,,,,,,sub-073,1.0,random_dot,59.82041909939268,
left,left,accuracy,,,,,0.0,0.0,0.0,0.0,22.0,1.0,45.0,0.0,294.8914914999623,,,,,,,,,294.8758490001783,296.0749309000093,296.88961379998364,296.87311070016585,296.87313370010816,296.88961379998364,296.88961379998364,296.88961379998364,297.4099902000744,left,1.0,16.51242269994691,,,,,,,,,,,,,,,,,,,,,,,,,,,,,,sub-073,1.0,random_dot,59.82041909939268,
right,right,accuracy,,,,,0.0,0.0,0.0,0.0,23.0,0.0,46.0,1.0,297.42418660013936,,,,,,,,,297.41128810006194,297.7743928001728,298.5745784000028,298.5587560001295,298.5587899000384,298.5745784000028,298.5745784000028,298.5745784000028,299.1100000999868,right,1.0,16.526817599777132,,,,,,,,,,,,,,,,,,,,,,,,,,,,,,sub-073,1.0,random_dot,59.82041909939268,
left,left,accuracy,,,,,0.0,0.0,0.0,0.0,23.0,1.0,47.0,0.0,299.1242104000412,,,,,,,,,299.111936399946,299.92522870004177,300.740405900171,300.72421420016326,300.7242475999519,300.740405900171,300.740405900171,300.740405900171,301.32715520006604,left,1.0,16.57551969960332,,,,,,,,,,,,,,,,,,,,,,,,,,,,,,sub-073,1.0,random_dot,59.82041909939268,
left,left,accuracy,,,,,0.0,0.0,0.0,0.0,24.0,0.0,48.0,0.0,301.341725199949,,,,,,,,,301.3287250001449,301.6902771999594,302.4909006000962,302.47478910000063,302.4748192001134,302.4909006000962,302.4909006000962,302.4909006000962,303.6943775000982,left,1.0,17.201044799759984,,,,,,,,,,,,,,,,,,,,,,,,,,,,,,sub-073,1.0,random_dot,59.82041909939268,
right,right,accuracy,,,,,0.0,0.0,0.0,0.0,24.0,1.0,49.0,1.0,303.70701230014674,,,,,,,,,303.6953922000248,303.8084642000031,304.60805100016296,304.5923377000727,304.5923790000379,304.60805100016296,304.60805100016296,304.60805100016296,305.1259407000616,right,1.0,16.515430100029334,,,,,,,,,,,,,,,,,,,,,,,,,,,,,,sub-073,1.0,random_dot,59.82041909939268,
right,right,accuracy,,,,,0.0,0.0,0.0,0.0,25.0,0.0,50.0,1.0,305.1397551000118,,,,,,,,,305.1269398999866,305.4910779001657,306.3062846001704,306.28987940005027,306.289901799988,306.3062846001704,306.3062846001704,306.3062846001704,308.0094100001734,right,1.0,17.689620799850672,,,,,,,,,,,,,,,,,,,,,,,,,,,,,,sub-073,1.0,random_dot,59.82041909939268,
left,left,accuracy,,,,,0.0,0.0,0.0,0.0,25.0,1.0,51.0,0.0,308.02458720002323,,,,,,,,,308.01062140008435,309.22430990007706,310.02457370003685,310.0093193000648,310.0093604000285,310.02457370003685,310.02457370003685,310.02457370003685,310.5435401001014,left,1.0,16.516369599848986,,,,,,,,,,,,,,,,,,,,,,,,,,,,,,sub-073,1.0,random_dot,59.82041909939268,
left,left,accuracy,,,,,0.0,0.0,0.0,0.0,26.0,0.0,52.0,0.0,310.5561490000691,,,,,,,,,310.5446278001182,311.7579761999659,312.5581227000803,312.5425577000715,312.5425939001143,312.5581227000803,312.5581227000803,312.5581227000803,313.47502500005066,left,1.0,16.909689699998125,,,,,,,,,,,,,,,,,,,,,,,,,,,,,,sub-073,1.0,random_dot,59.82041909939268,
right,right,accuracy,,,,,0.0,0.0,0.0,0.0,26.0,1.0,53.0,1.0,313.4910897000227,,,,,,,,,313.47618720005266,313.8411113000475,314.64091860014014,314.62515070009977,314.6251940000802,314.64091860014014,314.64091860014014,314.64091860014014,315.0596527000889,right,1.0,16.41639529983513,,,,,,,,,,,,,,,,,,,,,,,,,,,,,,sub-073,1.0,random_dot,59.82041909939268,
right,right,accuracy,,,,,0.0,0.0,0.0,0.0,27.0,0.0,54.0,1.0,315.07422440010123,,,,,,,,,315.06085340003483,315.1720619001426,315.97393810004,315.95878760004416,315.9588208999485,315.97393810004,315.97393810004,315.97393810004,316.4426293000579,left,0.0,16.467933599837124,,,,,,,,,,,,,,,,,,,,,,,,,,,,,,sub-073,1.0,random_dot,59.82041909939268,
left,left,accuracy,,,,,0.0,0.0,0.0,0.0,27.0,1.0,55.0,0.0,316.45919429999776,,,,,,,,,316.4437113001477,317.65706020011567,318.4564674999565,318.4422117001377,318.4422471001744,318.4564674999565,318.4564674999565,318.4564674999565,319.12679799995385,left,1.0,16.66329829976894,,,,,,,,,,,,,,,,,,,,,,,,,,,,,,sub-073,1.0,random_dot,59.82041909939268,
left,left,accuracy,,,,,0.0,0.0,0.0,0.0,28.0,0.0,56.0,0.0,319.1404468000401,,,,,,,,,319.1283410000615,319.94088999996893,320.74125159997493,320.7256702000741,320.7257048001047,320.74125159997493,320.74125159997493,320.74125159997493,321.3256135000847,left,1.0,16.57232499984093,,,,,,,,,,,,,,,,,,,,,,,,,,,,,,sub-073,1.0,random_dot,59.82041909939268,
right,right,accuracy,,,,,0.0,0.0,0.0,0.0,28.0,1.0,57.0,1.0,321.3415190000087,,,,,,,,,321.32677310006693,322.1414936000947,322.95686350017786,322.9420925001614,322.94213140010834,322.95686350017786,322.95686350017786,322.95686350017786,323.40850550006144,right,1.0,16.43879759986885,,,,,,,,,,,,,,,,,,,,,,,,,,,,,,sub-073,1.0,random_dot,59.82041909939268,
right,right,accuracy,,,,,0.0,0.0,0.0,0.0,29.0,0.0,58.0,1.0,323.42222500010394,,,,,,,,,323.4092341000214,324.20738150016405,325.00748739996925,324.9926142001059,324.992658500094,325.00748739996925,325.00748739996925,325.00748739996925,325.7090191000607,left,0.0,16.698456599609926,,,,,,,,,,,,,,,,,,,,,,,,,,,,,,sub-073,1.0,random_dot,59.82041909939268,
left,left,accuracy,,,,,0.0,0.0,0.0,0.0,29.0,1.0,59.0,0.0,325.7240379001014,,,,,,,,,325.71011250000447,326.9247163999826,327.7228413000703,327.708084500162,327.70811370015144,327.7228413000703,327.7228413000703,327.7228413000703,328.276124099968,left,1.0,16.55197329982184,,,,,,,,,,,,,,,,,,,,,,,,,,,,,,sub-073,1.0,random_dot,59.82041909939268,
,,accuracy,,,,,0.0,0.0,0.0,0.0,,,,,,,,,,,,,,,,,,,,,,,,,,,,,,,,,,,,,,,,,,,,,,,,,,,,,,,sub-073,1.0,random_dot,59.82041909939268,
left,left,speed,,,,,0.0,1.0,1.0,1.0,0.0,0.0,0.0,0.0,329.34202760015614,,,,,,,,,329.3368967999704,329.4407434000168,330.25746030011214,330.2410136000253,330.2410451001488,330.25746030011214,330.25746030011214,330.25746030011214,330.8095474999864,left,1.0,16.54055789974518,,,,,,,,,,,,,,,,,,,,328.2773470999673,328.3100340999663,328.3100340999663,329.32665250007994,space,17.011291899718344,,,,,sub-073,1.0,random_dot,59.82041909939268,
right,right,speed,,,,,0.0,1.0,1.0,1.0,0.0,1.0,1.0,1.0,330.82413710001856,,,,,,,,,330.8111845999956,331.1745125001762,331.9739701000508,331.9585746000521,331.9586126999929,331.9739701000508,331.9739701000508,331.9739701000508,333.10867190011777,right,1.0,17.12157959979959,,,,,,,,,,,,,,,,,,,,,,,,,,,,,,sub-073,1.0,random_dot,59.82041909939268,
right,right,speed,,,,,0.0,1.0,1.0,1.0,1.0,0.0,2.0,1.0,333.12266360013746,,,,,,,,,333.1099404001143,333.4742803000845,334.27326410007663,334.25808449997567,334.25811850000173,334.27326410007663,334.27326410007663,334.27326410007663,334.875935500022,right,1.0,16.60155179980211,,,,,,,,,,,,,,,,,,,,,,,,,,,,,,sub-073,1.0,random_dot,59.82041909939268,
left,left,speed,,,,,0.0,1.0,1.0,1.0,1.0,1.0,3.0,0.0,334.8901671001222,,,,,,,,,334.87702450016513,334.9907305999659,335.7911445000209,335.7754401001148,335.77547980006784,335.7911445000209,335.7911445000209,335.7911445000209,336.47502090013586,left,1.0,16.673759899800643,,,,,,,,,,,,,,,,,,,,,,,,,,,,,,sub-073,1.0,random_dot,59.82041909939268,
left,left,speed,,,,,0.0,1.0,1.0,1.0,2.0,0.0,4.0,0.0,336.4895977000706,,,,,,,,,336.4760145000182,336.8405679001007,337.6408228999935,337.62520200014114,337.6252516000532,337.6408228999935,337.6408228999935,337.6408228999935,339.726379300002,left,1.0,18.07077149976976,,,,,,,,,,,,,,,,,,,,,,,,,,,,,,sub-073,1.0,random_dot,59.82041909939268,
right,right,speed,,,,,0.0,1.0,1.0,1.0,2.0,1.0,5.0,1.0,339.7406260999851,,,,,,,,,339.7278176001273,339.8403380999807,340.6397580001503,340.62572540016845,340.6257684000302,340.6397580001503,340.6397580001503,340.6397580001503,341.0756221001502,right,1.0,16.435832699993625,,,,,,,,,,,,,,,,,,,,,,,,,,,,,,sub-073,1.0,random_dot,59.82041909939268,
right,right,speed,,,,,0.0,1.0,1.0,1.0,3.0,0.0,6.0,1.0,341.08933650003746,,,,,,,,,341.0767082001548,342.2903760999907,343.09033749997616,343.07518339995295,343.07522400002927,343.09033749997616,343.09033749997616,343.09033749997616,343.65795070002787,left,0.0,16.556051099905744,,,,,,,,,,,,,,,,,,,,,,,,,,,,,,sub-073,1.0,random_dot,59.82041909939268,
left,left,speed,,,,,0.0,1.0,1.0,1.0,3.0,1.0,7.0,0.0,343.6720433000009,,,,,,,,,343.6591209000908,344.8741318001412,345.673739900114,345.6582430000417,345.6582808000967,345.673739900114,345.673739900114,345.673739900114,346.10808639996685,left,1.0,16.433807699708268,,,,,,,,,,,,,,,,,,,,,,,,,,,,,,sub-073,1.0,random_dot,59.82041909939268,
right,right,speed,,,,,0.0,1.0,1.0,1.0,4.0,0.0,8.0,1.0,346.12380639999174,,,,,,,,,346.109209400136,346.4724630001001,347.27410360006616,347.25847420003265,347.2585134000983,347.27410360006616,347.27410360006616,347.27410360006616,347.7426152001135,right,1.0,16.455323699861765,,,,,,,,,,,,,,,,,,,,,,,,,,,,,,sub-073,1.0,random_dot,59.82041909939268,
left,left,speed,,,,,0.0,1.0,1.0,1.0,4.0,1.0,9.0,0.0,347.75687779998407,,,,,,,,,347.7440401001368,348.5566518001724,349.37343379994854,349.357229599962,349.3572682000231,349.37343379994854,349.37343379994854,349.37343379994854,349.8095275000669,left,1.0,16.433851399924606,,,,,,,,,,,,,,,,,,,,,,,,,,,,,,sub-073,1.0,random_dot,59.82041909939268,
right,right,speed,,,,,0.0,1.0,1.0,1.0,5.0,0.0,10.0,1.0,349.82381840003654,,,,,,,,,349.8110363001469,351.0236553000286,351.8237083000131,351.8083765001502,351.80841880012304,351.8237083000131,351.8237083000131,351.8237083000131,352.37602810002863,right,1.0,16.551868699956685,,,,,,,,,,,,,,,,,,,,,,,,,,,,,,sub-073,1.0,random_dot,59.82041909939268,
left,left,speed,,,,,0.0,1.0,1.0,1.0,5.0,1.0,11.0,0.0,352.3895119000226,,,,,,,,,352.37738319998607,352.7399893000256,353.5404201000929,353.52534190006554,353.52538869995624,353.5404201000929,353.5404201000929,353.5404201000929,354.2095629000105,left,1.0,16.664114999817684,,,,,,,,,,,,,,,,,,,,,,,,,,,,,,sub-073,1.0,random_dot,59.82041909939268,
right,right,speed,,,,,0.0,1.0,1.0,1.0,6.0,0.0,12.0,1.0,354.2238621001597,,,,,,,,,354.21100730006583,355.42328079999425,356.2235217001289,356.2086340000387,356.2086768001318,356.2235217001289,356.2235217001289,356.2235217001289,356.65927730011754,right,1.0,16.42992699961178,,,,,,,,,,,,,,,,,,,,,,,,,,,,,,sub-073,1.0,random_dot,59.82041909939268,
left,left,speed,,,,,0.0,1.0,1.0,1.0,6.0,1.0,13.0,0.0,356.67384069995023,,,,,,,,,356.66052579996176,357.4733264001552,358.2727830000222,358.25794000015594,358.25797639996745,358.2727830000222,358.2727830000222,358.2727830000222,360.29144240007736,left,1.0,18.00800589984283,,,,,,,,,,,,,,,,,,,,,,,,,,,,,,sub-073,1.0,random_dot,59.82041909939268,
right,right,speed,,,,,0.0,1.0,1.0,1.0,7.0,0.0,14.0,1.0,360.30714190006256,,,,,,,,,360.2927568999585,360.657145800069,361.456833000062,361.4416049001738,361.4416416001041,361.456833000062,361.456833000062,361.456833000062,361.90953880012967,right,1.0,16.44317609979771,,,,,,,,,,,,,,,,,,,,,,,,,,,,,,sub-073,1.0,random_dot,59.82041909939268,
left,left,speed,,,,,0.0,1.0,1.0,1.0,7.0,1.0,15.0,0.0,361.9231273999904,,,,,,,,,361.9108498999849,363.1237004001159,363.9233194000553,363.9083832001779,363.9084210000001,363.9233194000553,363.9233194000553,363.9233194000553,364.7070461001713,left,1.0,16.77376320003532,,,,,,,,,,,,,,,,,,,,,,,,,,,,,,sub-073,1.0,random_dot,59.82041909939268,
left,left,speed,,,,,0.0,1.0,1.0,1.0,8.0,0.0,16.0,0.0,364.7228276000824,,,,,,,,,364.7078881000634,364.82330900011584,365.6238035999704,365.60822880011983,365.6082691999618,365.6238035999704,365.6238035999704,365.6238035999704,367.5428035999648,left,1.0,17.912107299780473,,,,,,,,,,,,,,,,,,,,,,,,,,,,,,sub-073,1.0,random_dot,59.82041909939268,
right,right,speed,,,,,0.0,1.0,1.0,1.0,8.0,1.0,17.0,1.0,367.5560121999588,,,,,,,,,367.54430730012245,368.7541810001712,369.5561486000661,369.5423683000263,369.5424011000432,369.5561486000661,369.5561486000661,369.5561486000661,370.1090897000395,right,1.0,16.542973599629477,,,,,,,,,,,,,,,,,,,,,,,,,,,,,,sub-073,1.0,random_dot,59.82041909939268,
left,left,speed,,,,,0.0,1.0,1.0,1.0,9.0,0.0,18.0,0.0,370.1235023001209,,,,,,,,,370.1104533001781,371.3239786999766,372.1233235001564,372.1076889000833,372.1077284000348,372.1233235001564,372.1233235001564,372.1233235001564,372.65819760016166,left,1.0,16.534348499961197,,,,,,,,,,,,,,,,,,,,,,,,,,,,,,sub-073,1.0,random_dot,59.82041909939268,
right,right,speed,,,,,0.0,1.0,1.0,1.0,9.0,1.0,19.0,1.0,372.6731621001381,,,,,,,,,372.6592115999665,373.0233563000802,373.8230571001768,373.8081074000802,373.8081477000378,373.8230571001768,373.8230571001768,373.8230571001768,374.28910579998046,right,1.0,16.453456199727952,,,,,,,,,,,,,,,,,,,,,,,,,,,,,,sub-073,1.0,random_dot,59.82041909939268,
left,left,speed,,,,,0.0,1.0,1.0,1.0,10.0,0.0,20.0,0.0,374.3047519000247,,,,,,,,,374.28991689998657,375.489973800024,376.2899507000111,376.2742014999967,376.2742425999604,376.2899507000111,376.2899507000111,376.2899507000111,378.07620880007744,left,1.0,17.785444399807602,,,,,,,,,,,,,,,,,,,,,,,,,,,,,,sub-073,1.0,random_dot,59.82041909939268,
right,right,speed,,,,,0.0,1.0,1.0,1.0,10.0,1.0,21.0,1.0,378.0898519000039,,,,,,,,,378.0776746000629,379.2889940000605,380.09008770016953,380.0742808999494,380.0743208001368,380.09008770016953,380.09008770016953,380.09008770016953,382.05763299996033,right,1.0,17.966515799751505,,,,,,,,,,,,,,,,,,,,,,,,,,,,,,sub-073,1.0,random_dot,59.82041909939268,
right,right,speed,,,,,0.0,1.0,1.0,1.0,11.0,0.0,22.0,1.0,382.0728587999474,,,,,,,,,382.058635600144,382.87279499997385,383.688602700131,383.6718858999666,383.6719261000399,383.688602700131,383.688602700131,383.688602700131,384.24273900012486,right,1.0,16.553414799738675,,,,,,,,,,,,,,,,,,,,,,,,,,,,,,sub-073,1.0,random_dot,59.82041909939268,
left,left,speed,,,,,0.0,1.0,1.0,1.0,11.0,1.0,23.0,0.0,384.2561892999802,,,,,,,,,384.24408049997874,385.4565215001349,386.2564671,386.2414083001204,386.2414494000841,386.2564671,386.2564671,386.2564671,386.6925556000788,left,1.0,16.434347299858928,,,,,,,,,,,,,,,,,,,,,,,,,,,,,,sub-073,1.0,random_dot,59.82041909939268,
right,right,speed,,,,,0.0,1.0,1.0,1.0,12.0,0.0,24.0,1.0,386.705695600016,,,,,,,,,386.6939499001018,387.05641050008126,387.8726056001615,387.8562944000587,387.8563231001608,387.8726056001615,387.8726056001615,387.8726056001615,389.091143600177,right,1.0,17.204630799824372,,,,,,,,,,,,,,,,,,,,,,,,,,,,,,sub-073,1.0,random_dot,59.82041909939268,
left,left,speed,,,,,0.0,1.0,1.0,1.0,12.0,1.0,25.0,0.0,389.10600040014833,,,,,,,,,389.0924184001051,390.3059346000664,391.1064124000259,391.0915566000622,391.0915978001431,391.1064124000259,391.1064124000259,391.1064124000259,391.558159600012,left,1.0,16.44070649985224,,,,,,,,,,,,,,,,,,,,,,,,,,,,,,sub-073,1.0,random_dot,59.82041909939268,
right,right,speed,,,,,0.0,1.0,1.0,1.0,13.0,0.0,26.0,1.0,391.5730427999515,,,,,,,,,391.5595289000776,392.37339580012485,393.1732227001339,393.1573548000306,393.1573990001343,393.1732227001339,393.1732227001339,393.1732227001339,393.8748767999932,right,1.0,16.68768599978648,,,,,,,,,,,,,,,,,,,,,,,,,,,,,,sub-073,1.0,random_dot,59.82041909939268,
left,left,speed,,,,,0.0,1.0,1.0,1.0,13.0,1.0,27.0,0.0,393.88863920001313,,,,,,,,,393.8761175000109,393.9895311000291,394.8059737000149,394.7909646001645,394.79102020012215,394.8059737000149,394.8059737000149,394.8059737000149,395.357614699984,left,1.0,16.54189409990795,,,,,,,,,,,,,,,,,,,,,,,,,,,,,,sub-073,1.0,random_dot,59.82041909939268,
right,right,speed,,,,,0.0,1.0,1.0,1.0,14.0,0.0,28.0,1.0,395.373229800025,,,,,,,,,395.35875140014105,396.1558664001059,396.9564325001557,396.9406536000315,396.9406926000957,396.9564325001557,396.9564325001557,396.9564325001557,397.42548850015737,right,1.0,16.467611899832264,,,,,,,,,,,,,,,,,,,,,,,,,,,,,,sub-073,1.0,random_dot,59.82041909939268,
left,left,speed,,,,,0.0,1.0,1.0,1.0,14.0,1.0,29.0,0.0,397.4385176000651,,,,,,,,,397.42675129999407,398.2397030000575,399.0396439000033,399.0240285000764,399.0240652000066,399.0396439000033,399.0396439000033,399.0396439000033,399.707890199963,left,1.0,16.65552799985744,,,,,,,,,,,,,,,,,,,,,,,,,,,,,,sub-073,1.0,random_dot,59.82041909939268,
right,right,speed,,,,,0.0,1.0,1.0,1.0,15.0,0.0,30.0,1.0,399.7224573001731,,,,,,,,,399.7092628001701,399.8231017000508,400.6228784001432,400.6076130999718,400.6076522001531,400.6228784001432,400.6228784001432,400.6228784001432,401.6249145001639,right,1.0,16.988149899989367,,,,,,,,,,,,,,,,,,,,,,,,,,,,,,sub-073,1.0,random_dot,59.82041909939268,
left,left,speed,,,,,0.0,1.0,1.0,1.0,15.0,1.0,31.0,0.0,401.6396576999687,,,,,,,,,401.62634190008976,401.98918360006064,402.7895722000394,402.774448600132,402.7744875999633,402.7895722000394,402.7895722000394,402.7895722000394,406.1736488000024,left,1.0,19.37703279987909,,,,,,,,,,,,,,,,,,,,,,,,,,,,,,sub-073,1.0,random_dot,59.82041909939268,
left,left,speed,,,,,0.0,1.0,1.0,1.0,16.0,0.0,32.0,0.0,406.1890973001719,,,,,,,,,406.1747997000348,406.9889522001613,407.78863990004174,407.7731612999924,407.7731985000428,407.78863990004174,407.78863990004174,407.78863990004174,409.17480240017176,left,1.0,17.386544699780643,,,,,,,,,,,,,,,,,,,,,,,,,,,,,,sub-073,1.0,random_dot,59.82041909939268,
right,right,speed,,,,,0.0,1.0,1.0,1.0,16.0,1.0,33.0,1.0,409.1890347001609,,,,,,,,,409.1761331001762,410.38905570004135,411.1888961000368,411.1725242000539,411.1725824000314,411.1888961000368,411.1888961000368,411.1888961000368,411.6717666999903,right,1.0,16.476401899941266,,,,,,,,,,,,,,,,,,,,,,,,,,,,,,sub-073,1.0,random_dot,59.82041909939268,
right,right,speed,,,,,0.0,1.0,1.0,1.0,17.0,0.0,34.0,1.0,411.68772110017017,,,,,,,,,411.6725047000218,412.8723128000274,413.6728864000179,413.6569642999675,413.6570042001549,413.6728864000179,413.6728864000179,413.6728864000179,414.24211910017766,right,1.0,16.563203299650922,,,,,,,,,,,,,,,,,,,,,,,,,,,,,,sub-073,1.0,random_dot,59.82041909939268,
left,left,speed,,,,,0.0,1.0,1.0,1.0,17.0,1.0,35.0,0.0,414.2554475001525,,,,,,,,,414.2435189001262,415.0555816001725,415.85556720010936,415.84040330001153,415.8404425000772,415.85556720010936,415.85556720010936,415.85556720010936,416.3897498999722,left,1.0,16.521572799887508,,,,,,,,,,,,,,,,,,,,,,,,,,,,,,sub-073,1.0,random_dot,59.82041909939268,
left,left,speed,,,,,0.0,1.0,1.0,1.0,18.0,0.0,36.0,0.0,416.4054231999908,,,,,,,,,416.3906392001081,416.7389410999604,417.538679700112,417.5237191000488,417.5237551999744,417.538679700112,417.538679700112,417.538679700112,418.072412500158,right,0.0,16.521770199993625,,,,,,,,,,,,,,,,,,,,,,,,,,,,,,sub-073,1.0,random_dot,59.82041909939268,
right,right,speed,,,,,0.0,1.0,1.0,1.0,18.0,1.0,37.0,1.0,418.0875391000882,,,,,,,,,418.07322919997387,418.1710926999804,418.972456100164,418.9573348001577,418.95737159997225,418.972456100164,418.972456100164,418.972456100164,419.60763700003736,right,1.0,16.630319899879396,,,,,,,,,,,,,,,,,,,,,,,,,,,,,,sub-073,1.0,random_dot,59.82041909939268,
left,left,speed,,,,,0.0,1.0,1.0,1.0,19.0,0.0,38.0,0.0,419.62219060002826,,,,,,,,,419.608983800048,419.9728672001511,420.7723809001036,420.7569119001273,420.7569961999543,420.7723809001036,420.7723809001036,420.7723809001036,421.257889600005,left,1.0,16.478907199809328,,,,,,,,,,,,,,,,,,,,,,,,,,,,,,sub-073,1.0,random_dot,59.82041909939268,
right,right,speed,,,,,0.0,1.0,1.0,1.0,19.0,1.0,39.0,1.0,421.2719092001207,,,,,,,,,421.259244899964,422.4714516000822,423.2722455000039,423.2554958001711,423.2555205000099,423.2722455000039,423.2722455000039,423.2722455000039,424.1078902999871,right,1.0,16.832020899979398,,,,,,,,,,,,,,,,,,,,,,,,,,,,,,sub-073,1.0,random_dot,59.82041909939268,
right,right,speed,,,,,0.0,1.0,1.0,1.0,20.0,0.0,40.0,1.0,424.1220887999516,,,,,,,,,424.1090303000528,424.2201835999731,425.02254889998585,425.0069715999998,425.0070104999468,425.02254889998585,425.02254889998585,425.02254889998585,426.041082700016,right,1.0,17.011217099847272,,,,,,,,,,,,,,,,,,,,,,,,,,,,,,sub-073,1.0,random_dot,59.82041909939268,
left,left,speed,,,,,0.0,1.0,1.0,1.0,20.0,1.0,41.0,0.0,426.0552620999515,,,,,,,,,426.0424882001244,427.2560750001576,428.0722766001709,428.05534410011023,428.0553685000632,428.0722766001709,428.0722766001709,428.0722766001709,428.557325599948,left,1.0,16.484398199943826,,,,,,,,,,,,,,,,,,,,,,,,,,,,,,sub-073,1.0,random_dot,59.82041909939268,
right,right,speed,,,,,0.0,1.0,1.0,1.0,21.0,0.0,42.0,1.0,428.5722004000563,,,,,,,,,428.5585178001784,429.7721319999546,430.5724027000833,430.5566028000321,430.5566436999943,430.5724027000833,430.5724027000833,430.5724027000833,431.4047533001285,right,1.0,16.827906399965286,,,,,,,,,,,,,,,,,,,,,,,,,,,,,,sub-073,1.0,random_dot,59.82041909939268,
left,left,speed,,,,,0.0,1.0,1.0,1.0,21.0,1.0,43.0,0.0,431.4204295000527,,,,,,,,,431.4055139000993,431.504300000146,432.30442970013246,432.2882485000882,432.28826830000617,432.30442970013246,432.30442970013246,432.30442970013246,433.0261435001157,left,1.0,16.70679699978791,,,,,,,,,,,,,,,,,,,,,,,,,,,,,,sub-073,1.0,random_dot,59.82041909939268,
left,left,speed,,,,,0.0,1.0,1.0,1.0,22.0,0.0,44.0,0.0,433.03881990001537,,,,,,,,,433.02735109999776,434.23644130001776,435.0388856001664,435.0230207000859,435.02305810013786,435.0388856001664,435.0388856001664,435.0388856001664,435.9420829000883,right,0.0,16.90022029983811,,,,,,,,,,,,,,,,,,,,,,,,,,,,,,sub-073,1.0,random_dot,59.82041909939268,
right,right,speed,,,,,0.0,1.0,1.0,1.0,22.0,1.0,45.0,1.0,435.9555411001202,,,,,,,,,435.9433820999693,436.0552020999603,436.85477060009725,436.8395648000296,436.8396525001153,436.85477060009725,436.85477060009725,436.85477060009725,437.8572462000884,right,1.0,16.990914799971506,,,,,,,,,,,,,,,,,,,,,,,,,,,,,,sub-073,1.0,random_dot,59.82041909939268,
right,right,speed,,,,,0.0,1.0,1.0,1.0,23.0,0.0,46.0,1.0,437.8723139001522,,,,,,,,,437.8585266000591,437.9718633000739,438.7717689999845,438.7559557000641,438.7560294000432,438.7717689999845,438.7717689999845,438.7717689999845,439.5569587999489,right,1.0,16.771676499629393,,,,,,,,,,,,,,,,,,,,,,,,,,,,,,sub-073,1.0,random_dot,59.82041909939268,
left,left,speed,,,,,0.0,1.0,1.0,1.0,23.0,1.0,47.0,0.0,439.5717192001175,,,,,,,,,439.5579888999928,440.7717961000744,441.5721746000927,441.55725369998254,441.55729579995386,441.5721746000927,441.5721746000927,441.5721746000927,442.0742504999507,left,1.0,16.487602699780837,,,,,,,,,,,,,,,,,,,,,,,,,,,,,,sub-073,1.0,random_dot,59.82041909939268,
right,right,speed,,,,,0.0,1.0,1.0,1.0,24.0,0.0,48.0,1.0,442.0886492000427,,,,,,,,,442.07562040002085,442.1876932999585,442.98851289995946,442.9740953000728,442.9741322000045,442.98851289995946,442.98851289995946,442.98851289995946,444.071940400172,left,0.0,17.07569079962559,,,,,,,,,,,,,,,,,,,,,,,,,,,,,,sub-073,1.0,random_dot,59.82041909939268,
left,left,speed,,,,,0.0,1.0,1.0,1.0,24.0,1.0,49.0,0.0,444.08784710010514,,,,,,,,,444.0726596000604,444.4221425000578,445.22222720016725,445.2064285001252,445.20647460012697,445.22222720016725,445.22222720016725,445.22222720016725,446.03809960000217,right,0.0,16.805788399651647,,,,,,,,,,,,,,,,,,,,,,,,,,,,,,sub-073,1.0,random_dot,59.82041909939268,
left,left,speed,,,,,0.0,1.0,1.0,1.0,25.0,0.0,50.0,0.0,446.053620000137,,,,,,,,,446.0389105000068,446.38872299995273,447.1885369000957,447.173468900146,447.1735062000808,447.1885369000957,447.1885369000957,447.1885369000957,447.6907502000686,left,1.0,16.500869599869475,,,,,,,,,,,,,,,,,,,,,,,,,,,,,,sub-073,1.0,random_dot,59.82041909939268,
right,right,speed,,,,,0.0,1.0,1.0,1.0,25.0,1.0,51.0,1.0,447.7040631000418,,,,,,,,,447.6920084999874,448.0554339000955,448.8552089000586,448.8399189000484,448.8399577999953,448.8552089000586,448.8552089000586,448.8552089000586,449.3251167000272,right,1.0,16.46391909988597,,,,,,,,,,,,,,,,,,,,,,,,,,,,,,sub-073,1.0,random_dot,59.82041909939268,
left,left,speed,,,,,0.0,1.0,1.0,1.0,26.0,0.0,52.0,0.0,449.3383963999804,,,,,,,,,449.3264927000273,449.6881934001576,450.4875275001396,450.47316369996406,450.4731982001104,450.4875275001396,450.4875275001396,450.4875275001396,450.9905217001215,left,1.0,16.501851599896327,,,,,,,,,,,,,,,,,,,,,,,,,,,,,,sub-073,1.0,random_dot,59.82041909939268,
right,right,speed,,,,,0.0,1.0,1.0,1.0,26.0,1.0,53.0,1.0,451.0044350000098,,,,,,,,,450.9916559001431,451.80432180012576,452.6054508001544,452.589397400152,452.5894292001613,452.6054508001544,452.6054508001544,452.6054508001544,453.1578218999784,right,1.0,16.547223099740222,,,,,,,,,,,,,,,,,,,,,,,,,,,,,,sub-073,1.0,random_dot,59.82041909939268,
left,left,speed,,,,,0.0,1.0,1.0,1.0,27.0,0.0,54.0,0.0,453.1714030001313,,,,,,,,,453.1592284999788,453.97119820001535,454.7718591000885,454.7565138000064,454.7565550000873,454.7718591000885,454.7718591000885,454.7718591000885,455.2905021000188,left,1.0,16.519459599861875,,,,,,,,,,,,,,,,,,,,,,,,,,,,,,sub-073,1.0,random_dot,59.82041909939268,
right,right,speed,,,,,0.0,1.0,1.0,1.0,27.0,1.0,55.0,1.0,455.3051028000191,,,,,,,,,455.2916058001574,455.6554988001008,456.45507340016775,456.43974589998834,456.4397885999642,456.45507340016775,456.45507340016775,456.45507340016775,456.9743270999752,right,1.0,16.515111999819055,,,,,,,,,,,,,,,,,,,,,,,,,,,,,,sub-073,1.0,random_dot,59.82041909939268,
left,left,speed,,,,,0.0,1.0,1.0,1.0,28.0,0.0,56.0,0.0,456.9878110000864,,,,,,,,,456.97574919997714,457.088439000072,457.9037121001165,457.8878807001747,457.8879051001277,457.9037121001165,457.9037121001165,457.9037121001165,458.3379718000069,left,1.0,16.43066169996746,,,,,,,,,,,,,,,,,,,,,,,,,,,,,,sub-073,1.0,random_dot,59.82041909939268,
right,right,speed,,,,,0.0,1.0,1.0,1.0,28.0,1.0,57.0,1.0,458.3530270999763,,,,,,,,,458.338804300176,459.538155999966,460.3382234000601,460.3230010999832,460.3230359000154,460.3382234000601,460.3382234000601,460.3382234000601,460.8738222999964,right,1.0,16.53475939971395,,,,,,,,,,,,,,,,,,,,,,,,,,,,,,sub-073,1.0,random_dot,59.82041909939268,
left,left,speed,,,,,0.0,1.0,1.0,1.0,29.0,0.0,58.0,0.0,460.8879871000536,,,,,,,,,460.8752827001736,460.9879543001298,461.7880973001011,461.7732971000951,461.773335600039,461.7880973001011,461.7880973001011,461.7880973001011,462.30402599996887,left,1.0,16.507813099771738,,,,,,,,,,,,,,,,,,,,,,,,,,,,,,sub-073,1.0,random_dot,59.82041909939268,
right,right,speed,,,,,0.0,1.0,1.0,1.0,29.0,1.0,59.0,1.0,462.31961170001887,,,,,,,,,462.3048672999721,463.1047104001045,463.905298900092,463.8890708000399,463.88910949998535,463.905298900092,463.905298900092,463.905298900092,464.4721101000905,right,1.0,16.554712199838832,,,,,,,,,,,,,,,,,,,,,,,,,,,,,,sub-073,1.0,random_dot,59.82041909939268,
,,speed,,,,,0.0,1.0,1.0,1.0,,,,,,,,,,,,,,,,,,,,,,,,,,,,,,,,,,,,,,,,,,,,,,,,,,,,,,,sub-073,1.0,random_dot,59.82041909939268,
,,,,,,,,,,,,,,,,,,,,,,,,,,,,,,,,,,,,,,,,,,,,,,,,,,,,,,,,,,,,,,464.4728852000553,464.4939147999976,469.4883855001535,sub-073,,,,
