direction,corrAns,thisN,thisTrialN,thisRepN,respDots.keys,respDots.corr,respDots.rt,respDots.duration,randomInstr,respRandomInstr.keys,respRandomInstr.rt,respRandomInstr.duration,practice_trials.thisRepN,practice_trials.thisTrialN,practice_trials.thisN,practice_trials.thisIndex,instr_trials.thisRepN,instr_trials.thisTrialN,instr_trials.thisN,instr_trials.thisIndex,test_trials.thisRepN,test_trials.thisTrialN,test_trials.thisN,test_trials.thisIndex,thisRow.t,notes,general_instruction.started,textGeneralInstr.started,respGeneralInstr.started,general_instruction.stopped,respGeneralInstr.keys,respGeneralInstr.rt,respGeneralInstr.duration,ITI.started,fixcross.started,fixcross.stopped,ITI.stopped,dots.started,backgroundDots.started,stimulusDots.started,respDots.started,stimulusDots.stopped,dots.stopped,practice_trials.respDots.keys,practice_trials.respDots.corr,practice_trials.respDots.rt,practice_trials.respDots.duration,feedback.started,textFeedback.started,feedback.stopped,textFeedback.stopped,info.started,textInfo.started,keyRespInfo.started,info.stopped,keyRespInfo.keys,keyRespInfo.rt,keyRespInfo.duration,test_instruction.started,textTestInstr.started,respTestInstr.started,test_instruction.stopped,respTestInstr.keys,respTestInstr.rt,respTestInstr.duration,random_instruction.started,textRandomInstr.started,respRandomInstr.started,random_instruction.stopped,instr_trials.respRandomInstr.keys,instr_trials.respRandomInstr.rt,instr_trials.respRandomInstr.duration,test_trials.respDots.keys,test_trials.respDots.corr,test_trials.respDots.rt,test_trials.respDots.duration,goodbye.started,textGoodbye.started,goodbye.stopped,participant,session,expName,frameRate,Unnamed: 87
,,,,,,,,,,,,,,,,,,,,,,,,,,,0.0028740000000198,0.0075692000000344,0.0075692000000344,39.85892949999993,space,39.83703660000003,,,,,,,,,,,,,,,,,,,,,,,,,,,,,,,,,,,,,,,,,,,,,,,,sub-098,1,random_dot,60.09940441491093,
right,right,0.0,0.0,0.0,right,1.0,19.34984650000001,,,,,,0.0,0.0,0.0,1.0,,,,,,,,,39.900914599999965,,,,,,,,,39.89621739999996,39.969217699999945,40.77084479999996,40.7527063,40.753119500000025,40.77084479999996,40.77084479999996,40.77084479999996,45.753499499999975,60.134627199999954,right,1.0,19.34984650000001,,60.1515703,60.15697019999993,60.65060700000004,,,,,,,,,,,,,,,,,,,,,,,,,,,,,,sub-098,1,random_dot,60.09940441491093,
left,left,1.0,1.0,0.0,left,1.0,5.800041800000031,,,,,,0.0,1.0,1.0,0.0,,,,,,,,,60.66689280000003,,,,,,,,,60.65099829999997,61.83356070000002,62.63314219999995,62.617453299999966,62.6180316,62.63314219999995,62.63314219999995,62.63314219999995,67.61564109999995,68.43373869999994,left,1.0,5.800041800000031,,68.43386459999999,68.44966099999999,68.93364539999993,68.94900849999999,,,,,,,,,,,,,,,,,,,,,,,,,,,,,sub-098,1,random_dot,60.09940441491093,
right,right,2.0,0.0,1.0,right,1.0,5.572778300000095,,,,,,1.0,0.0,2.0,1.0,,,,,,,,,68.94900849999999,,,,,,,,,68.93401489999997,69.0490221,69.8489611,69.83348939999996,69.83387579999999,69.8489611,69.8489611,69.8489611,74.84853220000002,75.43242239999995,right,1.0,5.572778300000095,,75.43258189999995,75.44796969999993,75.93269880000003,75.94923040000003,,,,,,,,,,,,,,,,,,,,,,,,,,,,,sub-098,1,random_dot,60.09940441491093,
left,left,3.0,1.0,1.0,left,1.0,6.752008100000012,,,,,,1.0,1.0,3.0,0.0,,,,,,,,,75.94923040000003,,,,,,,,,75.93316749999997,77.13237409999999,77.93171729999995,77.91560159999995,77.91614889999994,77.93171729999995,77.93171729999995,77.93171729999995,82.93149719999997,84.69840569999997,left,1.0,6.752008100000012,,84.69854069999997,84.71398090000002,85.19818350000003,85.21449050000001,,,,,,,,,,,,,,,,,,,,,,,,,,,,,sub-098,1,random_dot,60.09940441491093,
right,right,4.0,0.0,2.0,right,1.0,5.752633800000012,,,,,,2.0,0.0,4.0,1.0,,,,,,,,,85.21449050000001,,,,,,,,,85.19852400000002,85.99759029999996,86.79696619999993,86.78144710000004,86.78185199999996,86.79696619999993,86.79696619999993,86.79696619999993,91.79666710000004,92.56409940000005,right,1.0,5.752633800000012,,92.56425079999995,92.57913970000004,93.06381149999991,93.08027689999994,,,,,,,,,,,,,,,,,,,,,,,,,,,,,sub-098,1,random_dot,60.09940441491093,
left,left,5.0,1.0,2.0,left,1.0,5.69817850000004,,,,,,2.0,1.0,5.0,0.0,,,,,,,,,93.08027689999994,,,,,,,,,93.0642295,93.8793667,94.67930209999996,94.66303759999994,94.66350709999996,94.67930209999996,94.67930209999996,94.67930209999996,99.6784411,100.37945309999998,left,1.0,5.69817850000004,,100.3796046,100.3951283,100.87884659999996,100.8950982,,,,,,,,,,,,,,,,,,,,,,,,,,,,,sub-098,1,random_dot,60.09940441491093,
right,right,6.0,0.0,3.0,right,1.0,5.012322100000006,,,,,,3.0,0.0,6.0,1.0,,,,,,,,,100.8950982,,,,,,,,,100.87935519999996,101.24505390000002,102.04423859999996,102.02819309999995,102.02855220000004,102.04423859999996,102.04423859999996,102.04423859999996,107.02777389999994,107.0613072,right,1.0,5.012322100000006,,107.061466,107.07789819999994,107.56091889999992,107.57754590000002,,,,,,,,,,,,,,,,,,,,,,,,,,,,,sub-098,1,random_dot,60.09940441491093,
left,left,7.0,1.0,3.0,left,1.0,1.183691299999964,,,,,,3.0,1.0,7.0,0.0,,,,,,,,,107.57754590000002,,,,,,,,,107.5613482,108.3607058,109.16009380000004,109.14374799999996,109.14425589999996,109.16009380000004,109.16009380000004,109.16009380000004,,110.36091409999996,left,1.0,1.183691299999964,,110.36103630000002,110.37752549999992,110.86155940000005,,,,,,,,,,,,,,,,,,,,,,,,,,,,,,sub-098,1,random_dot,60.09940441491093,
left,left,8.0,0.0,4.0,left,1.0,1.182727600000021,,,,,,4.0,0.0,8.0,0.0,,,,,,,,,110.87820839999996,,,,,,,,,110.86214099999997,112.06068240000002,112.86047029999996,112.84447119999992,112.84508459999996,112.86047029999996,112.86047029999996,112.86047029999996,,114.0603579,left,1.0,1.182727600000021,,114.06048680000004,114.0765569,114.5616159,,,,,,,,,,,,,,,,,,,,,,,,,,,,,,sub-098,1,random_dot,60.09940441491093,
right,right,9.0,1.0,4.0,right,1.0,0.7126553999999032,,,,,,4.0,1.0,9.0,1.0,,,,,,,,,114.57806949999996,,,,,,,,,114.56221059999996,115.7594236,116.55938809999998,116.54340849999994,116.54381669999998,116.55938809999998,116.55938809999998,116.55938809999998,,117.27730109999992,right,1.0,0.7126553999999032,,117.27745529999991,117.2932538,117.7775927,117.79310829999996,,,,,,,,,,,,,,,,,,,,,,,,,,,,,sub-098,1,random_dot,60.09940441491093,
left,left,10.0,0.0,5.0,left,1.0,0.6896192000000383,,,,,,5.0,0.0,10.0,0.0,,,,,,,,,117.79310829999996,,,,,,,,,117.7781036,118.97624010000004,119.77720320000005,119.7610777,119.761757,119.77720320000005,119.77720320000005,119.77720320000005,,120.47674670000004,left,1.0,0.6896192000000383,,120.47694649999994,120.49284750000004,120.97574480000004,120.9920826,,,,,,,,,,,,,,,,,,,,,,,,,,,,,sub-098,1,random_dot,60.09940441491093,
right,right,11.0,1.0,5.0,left,0.0,1.0904817000000548,,,,,,5.0,1.0,11.0,1.0,,,,,,,,,120.9920826,,,,,,,,,120.97624999999994,121.07661659999997,121.87693490000004,121.86082650000004,121.86222309999994,121.87693490000004,121.87693490000004,121.87693490000004,,122.97680349999996,left,0.0,1.0904817000000548,,122.99277099999996,122.99784069999998,123.49295929999994,,,,,,,,,,,,,,,,,,,,,,,,,,,,,,sub-098,1,random_dot,60.09940441491093,
left,left,12.0,0.0,6.0,left,1.0,0.9106918999999608,,,,,,6.0,0.0,12.0,0.0,,,,,,,,,123.50904379999996,,,,,,,,,123.49371769999992,123.575914,124.37666490000004,124.36075859999994,124.36174749999998,124.37666490000004,124.37666490000004,124.37666490000004,,125.2918429,left,1.0,0.9106918999999608,,125.29511860000002,125.30801269999996,125.79207250000002,125.80806440000003,,,,,,,,,,,,,,,,,,,,,,,,,,,,,sub-098,1,random_dot,60.09940441491093,
right,right,13.0,1.0,6.0,right,1.0,0.7705042999999705,,,,,,6.0,1.0,13.0,1.0,,,,,,,,,125.80806440000003,,,,,,,,,125.79256169999996,126.99219240000002,127.79130839999992,127.77496929999997,127.77536680000004,127.79130839999992,127.79130839999992,127.79130839999992,,128.57617199999993,right,1.0,0.7705042999999705,,128.57642929999997,128.59193040000002,129.0754726,129.09251159999997,,,,,,,,,,,,,,,,,,,,,,,,,,,,,sub-098,1,random_dot,60.09940441491093,
left,left,14.0,0.0,7.0,left,1.0,0.8673172999999679,,,,,,7.0,0.0,14.0,0.0,,,,,,,,,129.09251159999997,,,,,,,,,129.076006,130.27666939999995,131.0912181,131.07505760000004,131.07564890000003,131.0912181,131.0912181,131.0912181,,131.9601454,left,1.0,0.8673172999999679,,131.9603654,131.97519320000004,132.45923919999996,132.4746758,,,,,,,,,,,,,,,,,,,,,,,,,,,,,sub-098,1,random_dot,60.09940441491093,
right,right,15.0,1.0,7.0,right,1.0,0.8964603000000579,,,,,,7.0,1.0,15.0,1.0,,,,,,,,,132.4746758,,,,,,,,,132.4597847,133.27402859999995,134.07442560000004,134.0593109,134.06015579999996,134.07442560000004,134.07442560000004,134.07442560000004,,134.97498799999994,right,1.0,0.8964603000000579,,134.9751764,134.99114350000002,135.4739257,135.49016949999998,,,,,,,,,,,,,,,,,,,,,,,,,,,,,sub-098,1,random_dot,60.09940441491093,
right,right,16.0,0.0,8.0,left,0.0,1.8287510999999768,,,,,,8.0,0.0,16.0,1.0,,,,,,,,,135.49016949999998,,,,,,,,,135.47429079999995,135.57427229999996,136.3737307,136.35830069999997,136.3586527,136.3737307,136.3737307,136.3737307,,138.20787210000003,left,0.0,1.8287510999999768,,138.2137702,138.22425639999994,138.70708049999996,138.72313989999998,,,,,,,,,,,,,,,,,,,,,,,,,,,,,sub-098,1,random_dot,60.09940441491093,
left,left,17.0,1.0,8.0,left,1.0,1.0546639000000368,,,,,,8.0,1.0,17.0,0.0,,,,,,,,,138.72313989999998,,,,,,,,,138.7074526,138.80657459999998,139.60636450000004,139.59005109999998,139.59060750000003,139.60636450000004,139.60636450000004,139.60636450000004,,140.6745426,left,1.0,1.0546639000000368,,140.68090899999993,140.69059329999993,141.1735744,141.18956760000003,,,,,,,,,,,,,,,,,,,,,,,,,,,,,sub-098,1,random_dot,60.09940441491093,
right,right,18.0,0.0,9.0,right,1.0,1.2918607000000293,,,,,,9.0,0.0,18.0,1.0,,,,,,,,,141.18956760000003,,,,,,,,,141.17393459999994,141.52398259999995,142.3401116,142.3232266,142.32362979999994,142.3401116,142.3401116,142.3401116,,143.6399447,right,1.0,1.2918607000000293,,143.6401002,143.65633739999998,144.1398047,144.1557993,,,,,,,,,,,,,,,,,,,,,,,,,,,,,sub-098,1,random_dot,60.09940441491093,
left,left,19.0,1.0,9.0,left,1.0,1.2566911999999777,,,,,,9.0,1.0,19.0,0.0,,,,,,,,,144.1557993,,,,,,,,,144.1403209,144.94022789999997,145.75573129999998,145.74008479999998,145.740504,145.75573129999998,145.75573129999998,145.75573129999998,,147.02330040000004,left,1.0,1.2566911999999777,,147.02342699999997,147.03893729999993,147.52330169999993,147.53933440000003,,,,,,,,,,,,,,,,,,,,,,,,,,,,,sub-098,1,random_dot,60.09940441491093,
,,,,,,,,,,,,,,,,,,,,,,,,,,,,,,,,,,,,,,,,,,,,,,,,,,,,147.52356699999996,147.53933440000003,147.53933440000003,152.78871879999997,space,5.242777399999909,,,,,,,,,,,,,,,,,,,,,,,sub-098,1,random_dot,60.09940441491093,
,,,,,,,,,,,,,,,,,,,,,,,,,,,,,,,,,,,,,,,,,,,,,,,,,,,,,,,,,,,152.78882650000003,152.80507769999997,152.80507769999997,161.47224129999995,space,8.663983099999996,,,,,,,,,,,,,,,,sub-098,1,random_dot,60.09940441491093,
left,left,0.0,0.0,0.0,left,1.0,0.9529641999999968,,accuracy,space,5.673411299999998,,,,,,0.0,0.0,0.0,0.0,0.0,0.0,0.0,0.0,167.26401480000004,,,,,,,,,167.2607762,167.33635719999995,168.1361849,168.12105539999993,168.12140339999996,168.1361849,168.1361849,168.1361849,,169.1030558,,,,,,,,,,,,,,,,,,,,,,,161.55442700000003,161.56278429999998,161.56278429999998,167.23682999999994,space,5.673411299999998,,left,1.0,0.9529641999999968,,,,,sub-098,1,random_dot,60.09940441491093,
right,right,1.0,1.0,0.0,right,1.0,1.4130936000000247,,accuracy,space,5.673411299999998,,,,,,0.0,0.0,0.0,0.0,0.0,1.0,1.0,1.0,169.12011469999993,,,,,,,,,169.10350429999994,170.30286290000004,171.10277469999994,171.0871612999999,171.08768469999995,171.10277469999994,171.10277469999994,171.10277469999994,,172.5196654,,,,,,,,,,,,,,,,,,,,,,,,,,,,,,right,1.0,1.4130936000000247,,,,,sub-098,1,random_dot,60.09940441491093,
left,left,2.0,0.0,1.0,left,1.0,1.277842400000054,,accuracy,space,5.673411299999998,,,,,,0.0,0.0,0.0,0.0,1.0,0.0,2.0,0.0,172.5362927,,,,,,,,,172.5202137,172.61956569999995,173.41915219999998,173.40313400000002,173.4037062,173.41915219999998,173.41915219999998,173.41915219999998,,174.70247900000004,,,,,,,,,,,,,,,,,,,,,,,,,,,,,,left,1.0,1.277842400000054,,,,,sub-098,1,random_dot,60.09940441491093,
right,right,3.0,1.0,1.0,right,1.0,1.333879700000011,,accuracy,space,5.673411299999998,,,,,,0.0,0.0,0.0,0.0,1.0,1.0,3.0,1.0,174.71890050000002,,,,,,,,,174.7029298,175.5027774,176.30227619999994,176.28601789999993,176.28655400000002,176.30227619999994,176.30227619999994,176.30227619999994,,177.65212999999994,,,,,,,,,,,,,,,,,,,,,,,,,,,,,,right,1.0,1.333879700000011,,,,,sub-098,1,random_dot,60.09940441491093,
right,right,4.0,0.0,2.0,right,1.0,1.779068499999994,,accuracy,space,5.673411299999998,,,,,,0.0,0.0,0.0,0.0,2.0,0.0,4.0,1.0,177.66915570000003,,,,,,,,,177.65260620000004,177.75160959999994,178.55150279999998,178.53523310000003,178.53579749999994,178.55150279999998,178.55150279999998,178.55150279999998,,180.33525669999997,,,,,,,,,,,,,,,,,,,,,,,,,,,,,,right,1.0,1.779068499999994,,,,,sub-098,1,random_dot,60.09940441491093,
left,left,5.0,1.0,2.0,left,1.0,1.704146000000037,,accuracy,space,5.673411299999998,,,,,,0.0,0.0,0.0,0.0,2.0,1.0,5.0,0.0,180.3513199,,,,,,,,,180.3357285,180.6854677,181.48427659999996,181.46817250000004,181.46858969999997,181.48427659999996,181.48427659999996,181.48427659999996,,183.2015142,,,,,,,,,,,,,,,,,,,,,,,,,,,,,,left,1.0,1.704146000000037,,,,,sub-098,1,random_dot,60.09940441491093,
right,right,6.0,0.0,3.0,right,1.0,1.3078572999999096,,accuracy,space,5.673411299999998,,,,,,0.0,0.0,0.0,0.0,3.0,0.0,6.0,1.0,183.21740950000003,,,,,,,,,183.2020348,183.3009028,184.1020184,184.0859947,184.08700650000003,184.1020184,184.1020184,184.1020184,,185.41755649999996,,,,,,,,,,,,,,,,,,,,,,,,,,,,,,right,1.0,1.3078572999999096,,,,,sub-098,1,random_dot,60.09940441491093,
left,left,7.0,1.0,3.0,left,1.0,0.8996042999999645,,accuracy,space,5.673411299999998,,,,,,0.0,0.0,0.0,0.0,3.0,1.0,7.0,0.0,185.433906,,,,,,,,,185.4180074,186.6172364,187.41754030000004,187.40108839999996,187.4018086,187.41754030000004,187.41754030000004,187.41754030000004,,188.3185354,,,,,,,,,,,,,,,,,,,,,,,,,,,,,,left,1.0,0.8996042999999645,,,,,sub-098,1,random_dot,60.09940441491093,
left,left,8.0,0.0,4.0,left,1.0,2.207353600000033,,accuracy,space,5.673411299999998,,,,,,0.0,0.0,0.0,0.0,4.0,0.0,8.0,0.0,188.3343138,,,,,,,,,188.3191405,189.5333858,190.33350199999995,190.3171909,190.3177012,190.33350199999995,190.33350199999995,190.33350199999995,,192.5504949,,,,,,,,,,,,,,,,,,,,,,,,,,,,,,left,1.0,2.207353600000033,,,,,sub-098,1,random_dot,60.09940441491093,
right,right,9.0,1.0,4.0,right,1.0,0.926442800000018,,accuracy,space,5.673411299999998,,,,,,0.0,0.0,0.0,0.0,4.0,1.0,9.0,1.0,192.56726919999997,,,,,,,,,192.5509965,192.8999582,193.69947790000003,193.6832542,193.6836495,193.69947790000003,193.69947790000003,193.69947790000003,,194.6337257,,,,,,,,,,,,,,,,,,,,,,,,,,,,,,right,1.0,0.926442800000018,,,,,sub-098,1,random_dot,60.09940441491093,
left,left,10.0,0.0,5.0,left,1.0,0.9708833999999342,,accuracy,space,5.673411299999998,,,,,,0.0,0.0,0.0,0.0,5.0,0.0,10.0,0.0,194.6503044,,,,,,,,,194.634279,195.43342340000004,196.2324403,196.2168424,196.21723,196.2324403,196.2324403,196.2324403,,197.2168682,,,,,,,,,,,,,,,,,,,,,,,,,,,,,,left,1.0,0.9708833999999342,,,,,sub-098,1,random_dot,60.09940441491093,
right,right,11.0,1.0,5.0,right,1.0,1.1571521999999277,,accuracy,space,5.673411299999998,,,,,,0.0,0.0,0.0,0.0,5.0,1.0,11.0,1.0,197.2331365,,,,,,,,,197.217489,198.01695959999995,198.81618789999996,198.80000169999997,198.8005823,198.81618789999996,198.81618789999996,198.81618789999996,,199.98357450000003,,,,,,,,,,,,,,,,,,,,,,,,,,,,,,right,1.0,1.1571521999999277,,,,,sub-098,1,random_dot,60.09940441491093,
right,right,12.0,0.0,6.0,right,1.0,1.2120460999999525,,accuracy,space,5.673411299999998,,,,,,0.0,0.0,0.0,0.0,6.0,0.0,12.0,1.0,199.999597,,,,,,,,,199.98426240000003,200.78380500000003,201.58292529999997,201.5672028,201.5679084,201.58292529999997,201.58292529999997,201.58292529999997,,202.80025049999995,,,,,,,,,,,,,,,,,,,,,,,,,,,,,,right,1.0,1.2120460999999525,,,,,sub-098,1,random_dot,60.09940441491093,
left,left,13.0,1.0,6.0,left,1.0,0.8893699000000197,,accuracy,space,5.673411299999998,,,,,,0.0,0.0,0.0,0.0,6.0,1.0,13.0,0.0,202.8163508,,,,,,,,,202.80115190000004,202.90031149999996,203.69964959999996,203.6835651,203.68429990000004,203.69964959999996,203.69964959999996,203.69964959999996,,204.6003641,,,,,,,,,,,,,,,,,,,,,,,,,,,,,,left,1.0,0.8893699000000197,,,,,sub-098,1,random_dot,60.09940441491093,
right,right,14.0,0.0,7.0,right,1.0,0.9348123999999416,,accuracy,space,5.673411299999998,,,,,,0.0,0.0,0.0,0.0,7.0,0.0,14.0,1.0,204.61614209999996,,,,,,,,,204.6012101,205.3996748,206.198944,206.1833342,206.1840963,206.198944,206.198944,206.198944,,207.1355231,,,,,,,,,,,,,,,,,,,,,,,,,,,,,,right,1.0,0.9348123999999416,,,,,sub-098,1,random_dot,60.09940441491093,
left,left,15.0,1.0,7.0,left,1.0,0.9461999000000104,,accuracy,space,5.673411299999998,,,,,,0.0,0.0,0.0,0.0,7.0,1.0,15.0,0.0,207.1492549,,,,,,,,,207.1363547,207.9498575,208.7653309,208.7499652,208.75064969999997,208.7653309,208.7653309,208.7653309,,209.7159521,,,,,,,,,,,,,,,,,,,,,,,,,,,,,,left,1.0,0.9461999000000104,,,,,sub-098,1,random_dot,60.09940441491093,
right,right,16.0,0.0,8.0,right,1.0,0.8205029999999169,,accuracy,space,5.673411299999998,,,,,,0.0,0.0,0.0,0.0,8.0,0.0,16.0,1.0,209.7320069,,,,,,,,,209.7168232,210.9150234,211.7156798,211.6994161,211.70020739999995,211.7156798,211.7156798,211.7156798,,212.54949509999997,,,,,,,,,,,,,,,,,,,,,,,,,,,,,,right,1.0,0.8205029999999169,,,,,sub-098,1,random_dot,60.09940441491093,
left,left,17.0,1.0,8.0,left,1.0,1.1996952999999166,,accuracy,space,5.673411299999998,,,,,,0.0,0.0,0.0,0.0,8.0,1.0,17.0,0.0,212.56516839999995,,,,,,,,,212.55040080000003,213.3491683,214.14829309999996,214.13245340000003,214.133209,214.14829309999996,214.14829309999996,214.14829309999996,,215.3491268,,,,,,,,,,,,,,,,,,,,,,,,,,,,,,left,1.0,1.1996952999999166,,,,,sub-098,1,random_dot,60.09940441491093,
right,right,18.0,0.0,9.0,right,1.0,1.1612021999999342,,accuracy,space,5.673411299999998,,,,,,0.0,0.0,0.0,0.0,9.0,0.0,18.0,1.0,215.364656,,,,,,,,,215.3500114,216.16481969999995,216.96489009999996,216.9487437,216.9494962,216.96489009999996,216.96489009999996,216.96489009999996,,218.13177239999996,,,,,,,,,,,,,,,,,,,,,,,,,,,,,,right,1.0,1.1612021999999342,,,,,sub-098,1,random_dot,60.09940441491093,
left,left,19.0,1.0,9.0,left,1.0,0.7775818000000072,,accuracy,space,5.673411299999998,,,,,,0.0,0.0,0.0,0.0,9.0,1.0,19.0,0.0,218.1477046,,,,,,,,,218.132622,218.93165579999996,219.73195020000003,219.7158959,219.7167962,219.73195020000003,219.73195020000003,219.73195020000003,,220.51499249999995,,,,,,,,,,,,,,,,,,,,,,,,,,,,,,left,1.0,0.7775818000000072,,,,,sub-098,1,random_dot,60.09940441491093,
right,right,20.0,0.0,10.0,right,1.0,1.130529900000056,,accuracy,space,5.673411299999998,,,,,,0.0,0.0,0.0,0.0,10.0,0.0,20.0,1.0,220.5311153,,,,,,,,,220.5158617,221.73063219999997,222.5312295,222.51541799999995,222.516251,222.5312295,222.5312295,222.5312295,,223.66524819999995,,,,,,,,,,,,,,,,,,,,,,,,,,,,,,right,1.0,1.130529900000056,,,,,sub-098,1,random_dot,60.09940441491093,
left,left,21.0,1.0,10.0,left,1.0,1.0813723999999638,,accuracy,space,5.673411299999998,,,,,,0.0,0.0,0.0,0.0,10.0,1.0,21.0,0.0,223.6814026,,,,,,,,,223.6662434,224.4647093,225.2638429,225.2486622,225.2495758,225.2638429,225.2638429,225.2638429,,226.3493731,,,,,,,,,,,,,,,,,,,,,,,,,,,,,,left,1.0,1.0813723999999638,,,,,sub-098,1,random_dot,60.09940441491093,
right,right,22.0,0.0,11.0,right,1.0,0.8127482999999529,,accuracy,space,5.673411299999998,,,,,,0.0,0.0,0.0,0.0,11.0,0.0,22.0,1.0,226.36425510000004,,,,,,,,,226.3503706,227.16390149999995,227.97908770000004,227.96268109999997,227.9631915,227.97908770000004,227.97908770000004,227.97908770000004,,228.7967446,,,,,,,,,,,,,,,,,,,,,,,,,,,,,,right,1.0,0.8127482999999529,,,,,sub-098,1,random_dot,60.09940441491093,
left,left,23.0,1.0,11.0,left,1.0,0.8286831000000348,,accuracy,space,5.673411299999998,,,,,,0.0,0.0,0.0,0.0,11.0,1.0,23.0,0.0,228.8131065,,,,,,,,,228.7975162,229.99591480000004,230.79618559999997,230.7809456,230.7816705,230.79618559999997,230.79618559999997,230.79618559999997,,231.63017690000004,,,,,,,,,,,,,,,,,,,,,,,,,,,,,,left,1.0,0.8286831000000348,,,,,sub-098,1,random_dot,60.09940441491093,
left,left,24.0,0.0,12.0,left,1.0,0.945832600000017,,accuracy,space,5.673411299999998,,,,,,0.0,0.0,0.0,0.0,12.0,0.0,24.0,0.0,231.6464548,,,,,,,,,231.6310658,232.84623350000004,233.6454927,233.6294308,233.63020470000004,233.6454927,233.6454927,233.6454927,,234.5963492,,,,,,,,,,,,,,,,,,,,,,,,,,,,,,left,1.0,0.945832600000017,,,,,sub-098,1,random_dot,60.09940441491093,
right,right,25.0,1.0,12.0,right,1.0,1.321625200000085,,accuracy,space,5.673411299999998,,,,,,0.0,0.0,0.0,0.0,12.0,1.0,25.0,1.0,234.61216979999995,,,,,,,,,234.59717779999997,234.9458933,235.7466643,235.730367,235.7312415,235.7466643,235.7466643,235.7466643,,237.0805071,,,,,,,,,,,,,,,,,,,,,,,,,,,,,,right,1.0,1.321625200000085,,,,,sub-098,1,random_dot,60.09940441491093,
right,right,26.0,0.0,13.0,right,1.0,2.1523833999999624,,accuracy,space,5.673411299999998,,,,,,0.0,0.0,0.0,0.0,13.0,0.0,26.0,1.0,237.09598429999997,,,,,,,,,237.08150290000003,237.19606209999995,237.9959865,237.9801891,237.9810275,237.9959865,237.9959865,237.9959865,,240.16362760000004,,,,,,,,,,,,,,,,,,,,,,,,,,,,,,right,1.0,2.1523833999999624,,,,,sub-098,1,random_dot,60.09940441491093,
left,left,27.0,1.0,13.0,left,1.0,0.8216352000000597,,accuracy,space,5.673411299999998,,,,,,0.0,0.0,0.0,0.0,13.0,1.0,27.0,0.0,240.1792243,,,,,,,,,240.1646041,241.3786073,242.1786559,242.1626203,242.1634567,242.1786559,242.1786559,242.1786559,,243.0123631,,,,,,,,,,,,,,,,,,,,,,,,,,,,,,left,1.0,0.8216352000000597,,,,,sub-098,1,random_dot,60.09940441491093,
right,right,28.0,0.0,14.0,right,1.0,1.1436731999999663,,accuracy,space,5.673411299999998,,,,,,0.0,0.0,0.0,0.0,14.0,0.0,28.0,1.0,243.0282281,,,,,,,,,243.0133463,243.11175689999996,243.9120214,243.896748,243.89758699999996,243.9120214,243.9120214,243.9120214,,245.06264880000003,,,,,,,,,,,,,,,,,,,,,,,,,,,,,,right,1.0,1.1436731999999663,,,,,sub-098,1,random_dot,60.09940441491093,
left,left,29.0,1.0,14.0,left,1.0,0.790914300000054,,accuracy,space,5.673411299999998,,,,,,0.0,0.0,0.0,0.0,14.0,1.0,29.0,0.0,245.0786426,,,,,,,,,245.06369799999996,245.8782241,246.678093,246.6619455,246.66282879999997,246.678093,246.678093,246.678093,,247.4790868,,,,,,,,,,,,,,,,,,,,,,,,,,,,,,left,1.0,0.790914300000054,,,,,sub-098,1,random_dot,60.09940441491093,
right,right,30.0,0.0,15.0,right,1.0,0.6793678000000227,,accuracy,space,5.673411299999998,,,,,,0.0,0.0,0.0,0.0,15.0,0.0,30.0,1.0,247.4948416,,,,,,,,,247.4807936,248.2781155,249.0779304,249.0621856,249.0630493,249.0779304,249.0779304,249.0779304,,249.7620054,,,,,,,,,,,,,,,,,,,,,,,,,,,,,,right,1.0,0.6793678000000227,,,,,sub-098,1,random_dot,60.09940441491093,
left,left,31.0,1.0,15.0,left,1.0,0.6615300999999363,,accuracy,space,5.673411299999998,,,,,,0.0,0.0,0.0,0.0,15.0,1.0,31.0,0.0,249.7776964,,,,,,,,,249.76300949999995,250.97663279999995,251.7776215,251.7624929,251.7633532,251.7776215,251.7776215,251.7776215,,252.44487630000003,,,,,,,,,,,,,,,,,,,,,,,,,,,,,,left,1.0,0.6615300999999363,,,,,sub-098,1,random_dot,60.09940441491093,
right,right,32.0,0.0,16.0,right,1.0,0.8537416000000349,,accuracy,space,5.673411299999998,,,,,,0.0,0.0,0.0,0.0,16.0,0.0,32.0,1.0,252.460882,,,,,,,,,252.44584050000003,252.54412,253.3439912,253.3281058,253.3289803,253.3439912,253.3439912,253.3439912,,254.2113916,,,,,,,,,,,,,,,,,,,,,,,,,,,,,,right,1.0,0.8537416000000349,,,,,sub-098,1,random_dot,60.09940441491093,
left,left,33.0,1.0,16.0,left,1.0,0.6176011000000017,,accuracy,space,5.673411299999998,,,,,,0.0,0.0,0.0,0.0,16.0,1.0,33.0,0.0,254.22701069999997,,,,,,,,,254.2123719,255.4268648,256.2271214,256.2110782,256.2120015,256.2271214,256.2271214,256.2271214,,256.8613677,,,,,,,,,,,,,,,,,,,,,,,,,,,,,,left,1.0,0.6176011000000017,,,,,sub-098,1,random_dot,60.09940441491093,
right,right,34.0,0.0,17.0,right,1.0,0.7298497000000452,,accuracy,space,5.673411299999998,,,,,,0.0,0.0,0.0,0.0,17.0,0.0,34.0,1.0,256.87701589999995,,,,,,,,,256.8623381,256.97750640000004,257.7768393,257.76136139999994,257.7622686,257.7768393,257.7768393,257.7768393,,258.51107849999994,,,,,,,,,,,,,,,,,,,,,,,,,,,,,,right,1.0,0.7298497000000452,,,,,sub-098,1,random_dot,60.09940441491093,
left,left,35.0,1.0,17.0,left,1.0,0.9992208999999548,,accuracy,space,5.673411299999998,,,,,,0.0,0.0,0.0,0.0,17.0,1.0,35.0,0.0,258.5264943,,,,,,,,,258.5120501,258.85988039999995,259.6743228,259.65879269999994,259.6591996,259.6743228,259.6743228,259.6743228,,260.67768,,,,,,,,,,,,,,,,,,,,,,,,,,,,,,left,1.0,0.9992208999999548,,,,,sub-098,1,random_dot,60.09940441491093,
right,right,36.0,0.0,18.0,right,1.0,1.2058400000000802,,accuracy,space,5.673411299999998,,,,,,0.0,0.0,0.0,0.0,18.0,0.0,36.0,1.0,260.6932038,,,,,,,,,260.67872750000004,260.7939699,261.59266749999995,261.5774983,261.5784146,261.59266749999995,261.59266749999995,261.59266749999995,,262.8106885,,,,,,,,,,,,,,,,,,,,,,,,,,,,,,right,1.0,1.2058400000000802,,,,,sub-098,1,random_dot,60.09940441491093,
left,left,37.0,1.0,18.0,left,1.0,0.9567579999999224,,accuracy,space,5.673411299999998,,,,,,0.0,0.0,0.0,0.0,18.0,1.0,37.0,0.0,262.8255597,,,,,,,,,262.8115432,262.9252445,263.741773,263.7243126,263.7247036,263.741773,263.741773,263.741773,,264.70847200000003,,,,,,,,,,,,,,,,,,,,,,,,,,,,,,left,1.0,0.9567579999999224,,,,,sub-098,1,random_dot,60.09940441491093,
left,left,38.0,0.0,19.0,left,1.0,0.796126500000014,,accuracy,space,5.673411299999998,,,,,,0.0,0.0,0.0,0.0,19.0,0.0,38.0,0.0,264.72389179999993,,,,,,,,,264.70904740000003,265.9239825,266.7234111,266.70731649999993,266.7077272,266.7234111,266.7234111,266.7234111,,267.5237833,,,,,,,,,,,,,,,,,,,,,,,,,,,,,,left,1.0,0.796126500000014,,,,,sub-098,1,random_dot,60.09940441491093,
right,right,39.0,1.0,19.0,right,1.0,0.7596491999998989,,accuracy,space,5.673411299999998,,,,,,0.0,0.0,0.0,0.0,19.0,1.0,39.0,1.0,267.5413337,,,,,,,,,267.5242224,268.7245091,269.5398133,269.5241188,269.52451640000004,269.5398133,269.5398133,269.5398133,,270.3086519,,,,,,,,,,,,,,,,,,,,,,,,,,,,,,right,1.0,0.7596491999998989,,,,,sub-098,1,random_dot,60.09940441491093,
left,left,40.0,0.0,20.0,left,1.0,0.7734254999999166,,accuracy,space,5.673411299999998,,,,,,0.0,0.0,0.0,0.0,20.0,0.0,40.0,0.0,270.32457750000003,,,,,,,,,270.30942459999994,271.1078254,271.9078393,271.8917904,271.8925177,271.9078393,271.9078393,271.9078393,,272.6922439,,,,,,,,,,,,,,,,,,,,,,,,,,,,,,left,1.0,0.7734254999999166,,,,,sub-098,1,random_dot,60.09940441491093,
right,right,41.0,1.0,20.0,right,1.0,0.7343556999999237,,accuracy,space,5.673411299999998,,,,,,0.0,0.0,0.0,0.0,20.0,1.0,41.0,1.0,272.7080328,,,,,,,,,272.6930757,273.89052430000004,274.6905408,274.67506430000003,274.6758407,274.6905408,274.6905408,274.6905408,,275.4410793,,,,,,,,,,,,,,,,,,,,,,,,,,,,,,right,1.0,0.7343556999999237,,,,,sub-098,1,random_dot,60.09940441491093,
right,right,42.0,0.0,21.0,right,1.0,1.1305598999999802,,accuracy,space,5.673411299999998,,,,,,0.0,0.0,0.0,0.0,21.0,0.0,42.0,1.0,275.45704720000003,,,,,,,,,275.4419623,276.2412805,277.0411831,277.0252313,277.02610819999995,277.0411831,277.0411831,277.0411831,,278.1749822,,,,,,,,,,,,,,,,,,,,,,,,,,,,,,right,1.0,1.1305598999999802,,,,,sub-098,1,random_dot,60.09940441491093,
left,left,43.0,1.0,21.0,left,1.0,1.0321003000000246,,accuracy,space,5.673411299999998,,,,,,0.0,0.0,0.0,0.0,21.0,1.0,43.0,0.0,278.1906895,,,,,,,,,278.1759826,278.523692,279.3238433,279.30857589999994,279.3094728,279.3238433,279.3238433,279.3238433,,280.35970569999995,,,,,,,,,,,,,,,,,,,,,,,,,,,,,,left,1.0,1.0321003000000246,,,,,sub-098,1,random_dot,60.09940441491093,
right,right,44.0,0.0,22.0,right,1.0,1.3467057999999952,,accuracy,space,5.673411299999998,,,,,,0.0,0.0,0.0,0.0,22.0,0.0,44.0,1.0,280.375899,,,,,,,,,280.36069610000004,280.4740594,281.27393900000004,281.2580257,281.25887320000004,281.27393900000004,281.27393900000004,281.27393900000004,,282.6244634,,,,,,,,,,,,,,,,,,,,,,,,,,,,,,right,1.0,1.3467057999999952,,,,,sub-098,1,random_dot,60.09940441491093,
left,left,45.0,1.0,22.0,left,1.0,0.8882893999999624,,accuracy,space,5.673411299999998,,,,,,0.0,0.0,0.0,0.0,22.0,1.0,45.0,0.0,282.6395311,,,,,,,,,282.6256652,283.4400585,284.24008200000003,284.224469,284.22538569999995,284.24008200000003,284.24008200000003,284.24008200000003,,285.14088100000004,,,,,,,,,,,,,,,,,,,,,,,,,,,,,,left,1.0,0.8882893999999624,,,,,sub-098,1,random_dot,60.09940441491093,
right,right,46.0,0.0,23.0,right,1.0,0.7605730000000221,,accuracy,space,5.673411299999998,,,,,,0.0,0.0,0.0,0.0,23.0,0.0,46.0,1.0,285.1567421,,,,,,,,,285.1418801,286.340911,287.1402009,287.12425410000003,287.12514539999995,287.1402009,287.1402009,287.1402009,,287.9069548,,,,,,,,,,,,,,,,,,,,,,,,,,,,,,right,1.0,0.7605730000000221,,,,,sub-098,1,random_dot,60.09940441491093,
left,left,47.0,1.0,23.0,left,1.0,0.9801506000000018,,accuracy,space,5.673411299999998,,,,,,0.0,0.0,0.0,0.0,23.0,1.0,47.0,0.0,287.9230252,,,,,,,,,287.9079703,288.70627590000004,289.5058157,289.4896331,289.4904724,289.5058157,289.5058157,289.5058157,,290.490309,,,,,,,,,,,,,,,,,,,,,,,,,,,,,,left,1.0,0.9801506000000018,,,,,sub-098,1,random_dot,60.09940441491093,
right,right,48.0,0.0,24.0,right,1.0,1.0529542000000447,,accuracy,space,5.673411299999998,,,,,,0.0,0.0,0.0,0.0,24.0,0.0,48.0,1.0,290.505618,,,,,,,,,290.4913076,291.2894722,292.08912109999994,292.0732958,292.0742215,292.08912109999994,292.08912109999994,292.08912109999994,,293.1566606,,,,,,,,,,,,,,,,,,,,,,,,,,,,,,right,1.0,1.0529542000000447,,,,,sub-098,1,random_dot,60.09940441491093,
left,left,49.0,1.0,24.0,left,1.0,0.9950575999999955,,accuracy,space,5.673411299999998,,,,,,0.0,0.0,0.0,0.0,24.0,1.0,49.0,0.0,293.1724025,,,,,,,,,293.15779710000004,293.97312,294.7877692,294.77207969999995,294.7729018,294.7877692,294.7877692,294.7877692,,295.7893518,,,,,,,,,,,,,,,,,,,,,,,,,,,,,,left,1.0,0.9950575999999955,,,,,sub-098,1,random_dot,60.09940441491093,
left,left,50.0,0.0,25.0,left,1.0,1.134941700000013,,accuracy,space,5.673411299999998,,,,,,0.0,0.0,0.0,0.0,25.0,0.0,50.0,0.0,295.80534879999993,,,,,,,,,295.7903729,296.5885452,297.38856439999995,297.3724532,297.3733222,297.38856439999995,297.38856439999995,297.38856439999995,,298.5369419,,,,,,,,,,,,,,,,,,,,,,,,,,,,,,left,1.0,1.134941700000013,,,,,sub-098,1,random_dot,60.09940441491093,
right,right,51.0,1.0,25.0,right,1.0,0.966233299999999,,accuracy,space,5.673411299999998,,,,,,0.0,0.0,0.0,0.0,25.0,1.0,51.0,1.0,298.5528838,,,,,,,,,298.537606,299.73663750000003,300.5358003,300.5202373,300.5207141,300.5358003,300.5358003,300.5358003,,301.5043457,,,,,,,,,,,,,,,,,,,,,,,,,,,,,,right,1.0,0.966233299999999,,,,,sub-098,1,random_dot,60.09940441491093,
right,right,52.0,0.0,26.0,right,1.0,2.343693500000086,,accuracy,space,5.673411299999998,,,,,,0.0,0.0,0.0,0.0,26.0,0.0,52.0,1.0,301.5189693,,,,,,,,,301.50501310000004,302.70410889999994,303.51869739999995,303.5024403,303.5028298,303.51869739999995,303.51869739999995,303.51869739999995,,305.8705063,,,,,,,,,,,,,,,,,,,,,,,,,,,,,,right,1.0,2.343693500000086,,,,,sub-098,1,random_dot,60.09940441491093,
left,left,53.0,1.0,26.0,left,1.0,1.3141826999999466,,accuracy,space,5.673411299999998,,,,,,0.0,0.0,0.0,0.0,26.0,1.0,53.0,0.0,305.88641729999995,,,,,,,,,305.8713739,306.23715930000003,307.03635610000003,307.0212177,307.0219873,307.03635610000003,307.03635610000003,307.03635610000003,,308.3541302,,,,,,,,,,,,,,,,,,,,,,,,,,,,,,left,1.0,1.3141826999999466,,,,,sub-098,1,random_dot,60.09940441491093,
left,left,54.0,0.0,27.0,left,1.0,1.0631122000000914,,accuracy,space,5.673411299999998,,,,,,0.0,0.0,0.0,0.0,27.0,0.0,54.0,0.0,308.3698614,,,,,,,,,308.3549871,309.55305279999993,310.353075,310.33719999999994,310.3380528,310.353075,310.353075,310.353075,,311.4202547,,,,,,,,,,,,,,,,,,,,,,,,,,,,,,left,1.0,1.0631122000000914,,,,,sub-098,1,random_dot,60.09940441491093,
right,right,55.0,1.0,27.0,right,1.0,1.002416100000005,,accuracy,space,5.673411299999998,,,,,,0.0,0.0,0.0,0.0,27.0,1.0,55.0,1.0,311.4358618,,,,,,,,,311.4212089,311.7701767,312.56994369999995,312.5538777,312.55483200000003,312.56994369999995,312.56994369999995,312.56994369999995,,313.58706529999995,,,,,,,,,,,,,,,,,,,,,,,,,,,,,,right,1.0,1.002416100000005,,,,,sub-098,1,random_dot,60.09940441491093,
left,left,56.0,0.0,28.0,left,1.0,1.3191334999999071,,accuracy,space,5.673411299999998,,,,,,0.0,0.0,0.0,0.0,28.0,0.0,56.0,0.0,313.6023625,,,,,,,,,313.5880574,314.40255289999993,315.2025991,315.18738239999993,315.1882395,315.2025991,315.2025991,315.2025991,,316.5371691,,,,,,,,,,,,,,,,,,,,,,,,,,,,,,left,1.0,1.3191334999999071,,,,,sub-098,1,random_dot,60.09940441491093,
right,right,57.0,1.0,28.0,right,1.0,0.9693077000000584,,accuracy,space,5.673411299999998,,,,,,0.0,0.0,0.0,0.0,28.0,1.0,57.0,1.0,316.5526401,,,,,,,,,316.5382,317.3358969,318.1353057,318.1203243,318.12125689999993,318.1353057,318.1353057,318.1353057,,319.1199668,,,,,,,,,,,,,,,,,,,,,,,,,,,,,,right,1.0,0.9693077000000584,,,,,sub-098,1,random_dot,60.09940441491093,
right,right,58.0,0.0,29.0,right,1.0,1.3738058000000135,,accuracy,space,5.673411299999998,,,,,,0.0,0.0,0.0,0.0,29.0,0.0,58.0,1.0,319.13528210000004,,,,,,,,,319.1209728,319.9357398,320.7360957,320.71964649999995,320.7205493,320.7360957,320.7360957,320.7360957,,322.1189316,,,,,,,,,,,,,,,,,,,,,,,,,,,,,,right,1.0,1.3738058000000135,,,,,sub-098,1,random_dot,60.09940441491093,
left,left,59.0,1.0,29.0,left,1.0,0.8642532000000074,,accuracy,space,5.673411299999998,,,,,,0.0,0.0,0.0,0.0,29.0,1.0,59.0,0.0,322.13508949999994,,,,,,,,,322.11997210000004,322.9173625,323.7164325,323.70047279999994,323.7008617,323.7164325,323.7164325,323.7164325,,324.5846399,,,,,,,,,,,,,,,,,,,,,,,,,,,,,,left,1.0,0.8642532000000074,,,,,sub-098,1,random_dot,60.09940441491093,
,,0.0,0.0,0.0,,,,,accuracy,space,5.673411299999998,,,,,,0.0,0.0,0.0,0.0,,,,,,,,,,,,,,,,,,,,,,,,,,,,,,,,,,,,,,,,,,,,,,,,,,,,,,,,,,,,sub-098,1,random_dot,60.09940441491093,
left,left,0.0,0.0,0.0,left,1.0,0.6790571000000227,,speed,space,4.206562100000042,,,,,,0.0,1.0,1.0,1.0,0.0,0.0,0.0,0.0,328.85888950000003,,,,,,,,,328.85456209999995,329.6341942,330.433084,330.41816470000003,330.4190046,330.433084,330.433084,330.433084,,331.1176698,,,,,,,,,,,,,,,,,,,,,,,324.6146864,324.62050049999993,324.62050049999993,328.8352308,space,4.206562100000042,,left,1.0,0.6790571000000227,,,,,sub-098,1,random_dot,60.09940441491093,
right,right,1.0,1.0,0.0,right,1.0,0.5165610999999899,,speed,space,4.206562100000042,,,,,,0.0,1.0,1.0,1.0,0.0,1.0,1.0,1.0,331.1333357,,,,,,,,,331.11867140000004,331.9180586,332.7173288,332.7012162,332.70208849999995,332.7173288,332.7173288,332.7173288,,333.24871569999993,,,,,,,,,,,,,,,,,,,,,,,,,,,,,,right,1.0,0.5165610999999899,,,,,sub-098,1,random_dot,60.09940441491093,
right,right,2.0,0.0,1.0,left,0.0,0.7039711999999554,,speed,space,4.206562100000042,,,,,,0.0,1.0,1.0,1.0,1.0,0.0,2.0,1.0,333.2656425,,,,,,,,,333.2491489,334.4483212,335.24891019999995,335.23259870000004,335.2332877,335.24891019999995,335.24891019999995,335.24891019999995,,335.9649604,,,,,,,,,,,,,,,,,,,,,,,,,,,,,,left,0.0,0.7039711999999554,,,,,sub-098,1,random_dot,60.09940441491093,
left,left,3.0,1.0,1.0,left,1.0,0.655433300000027,,speed,space,4.206562100000042,,,,,,0.0,1.0,1.0,1.0,1.0,1.0,3.0,0.0,335.9821085,,,,,,,,,335.96537820000003,336.06486429999995,336.86823100000004,336.8504085,336.8514253,336.86823100000004,336.86823100000004,336.86823100000004,,337.5320421,,,,,,,,,,,,,,,,,,,,,,,,,,,,,,left,1.0,0.655433300000027,,,,,sub-098,1,random_dot,60.09940441491093,
right,right,4.0,0.0,2.0,right,1.0,0.6034352000000354,,speed,space,4.206562100000042,,,,,,0.0,1.0,1.0,1.0,2.0,0.0,4.0,1.0,337.54791179999995,,,,,,,,,337.5326474,337.64763459999995,338.4482137,338.4323028,338.43288670000004,338.4482137,338.4482137,338.4482137,,339.0650016,,,,,,,,,,,,,,,,,,,,,,,,,,,,,,right,1.0,0.6034352000000354,,,,,sub-098,1,random_dot,60.09940441491093,
left,left,5.0,1.0,2.0,left,1.0,0.7168414000000212,,speed,space,4.206562100000042,,,,,,0.0,1.0,1.0,1.0,2.0,1.0,5.0,0.0,339.0813893,,,,,,,,,339.06570479999993,340.2646663,341.064183,341.04783580000003,341.0483485,341.064183,341.064183,341.064183,,341.797585,,,,,,,,,,,,,,,,,,,,,,,,,,,,,,left,1.0,0.7168414000000212,,,,,sub-098,1,random_dot,60.09940441491093,
left,left,6.0,0.0,3.0,left,1.0,0.7883217999999488,,speed,space,4.206562100000042,,,,,,0.0,1.0,1.0,1.0,3.0,0.0,6.0,0.0,341.8145223,,,,,,,,,341.7980203,342.9988082,343.7980504,343.78253399999994,343.7832059,343.7980504,343.7980504,343.7980504,,344.59719210000003,,,,,,,,,,,,,,,,,,,,,,,,,,,,,,left,1.0,0.7883217999999488,,,,,sub-098,1,random_dot,60.09940441491093,
right,right,7.0,1.0,3.0,right,1.0,0.8122880999999325,,speed,space,4.206562100000042,,,,,,0.0,1.0,1.0,1.0,3.0,1.0,7.0,1.0,344.6139737,,,,,,,,,344.59766549999995,345.3975078,346.197373,346.1819911,346.18252269999994,346.197373,346.197373,346.197373,,347.0145907,,,,,,,,,,,,,,,,,,,,,,,,,,,,,,right,1.0,0.8122880999999325,,,,,sub-098,1,random_dot,60.09940441491093,
right,right,8.0,0.0,4.0,left,0.0,1.1687813000000915,,speed,space,4.206562100000042,,,,,,0.0,1.0,1.0,1.0,4.0,0.0,8.0,1.0,347.030622,,,,,,,,,347.0153756,347.114003,347.9144887,347.8991258,347.8997576,347.9144887,347.9144887,347.9144887,,349.0986894,,,,,,,,,,,,,,,,,,,,,,,,,,,,,,left,0.0,1.1687813000000915,,,,,sub-098,1,random_dot,60.09940441491093,
left,left,9.0,1.0,4.0,left,1.0,0.6519034000000374,,speed,space,4.206562100000042,,,,,,0.0,1.0,1.0,1.0,4.0,1.0,9.0,0.0,349.11465,,,,,,,,,349.0995511,350.2976808,351.11292189999995,351.0970354,351.0974357,351.11292189999995,351.11292189999995,351.11292189999995,,351.7808933,,,,,,,,,,,,,,,,,,,,,,,,,,,,,,left,1.0,0.6519034000000374,,,,,sub-098,1,random_dot,60.09940441491093,
left,left,10.0,0.0,5.0,left,1.0,0.6757805999999391,,speed,space,4.206562100000042,,,,,,0.0,1.0,1.0,1.0,5.0,0.0,10.0,0.0,351.7962225,,,,,,,,,351.7814602,352.5957475,353.3968407,353.38098549999995,353.3816231,353.3968407,353.3968407,353.3968407,,354.0804447,,,,,,,,,,,,,,,,,,,,,,,,,,,,,,left,1.0,0.6757805999999391,,,,,sub-098,1,random_dot,60.09940441491093,
right,right,11.0,1.0,5.0,right,1.0,0.770185999999967,,speed,space,4.206562100000042,,,,,,0.0,1.0,1.0,1.0,5.0,1.0,11.0,1.0,354.0974717,,,,,,,,,354.08118920000004,354.43047019999995,355.2295911,355.21418559999995,355.21482819999994,355.2295911,355.2295911,355.2295911,,356.0131663,,,,,,,,,,,,,,,,,,,,,,,,,,,,,,right,1.0,0.770185999999967,,,,,sub-098,1,random_dot,60.09940441491093,
left,left,12.0,0.0,6.0,left,1.0,0.6844019999999773,,speed,space,4.206562100000042,,,,,,0.0,1.0,1.0,1.0,6.0,0.0,12.0,0.0,356.02915369999994,,,,,,,,,356.0139835,356.1125585,356.9132994,356.8984146,356.89913879999995,356.9132994,356.9132994,356.9132994,,357.61435329999995,,,,,,,,,,,,,,,,,,,,,,,,,,,,,,left,1.0,0.6844019999999773,,,,,sub-098,1,random_dot,60.09940441491093,
right,right,13.0,1.0,6.0,right,1.0,0.7744190000000799,,speed,space,4.206562100000042,,,,,,0.0,1.0,1.0,1.0,6.0,1.0,13.0,1.0,357.63040920000003,,,,,,,,,357.6152092,357.7298119,358.5295308,358.5135748,358.51431749999995,358.5295308,358.5295308,358.5295308,,359.3139775,,,,,,,,,,,,,,,,,,,,,,,,,,,,,,right,1.0,0.7744190000000799,,,,,sub-098,1,random_dot,60.09940441491093,
left,left,14.0,0.0,7.0,left,1.0,0.7112094000000297,,speed,space,4.206562100000042,,,,,,0.0,1.0,1.0,1.0,7.0,0.0,14.0,0.0,359.3297457,,,,,,,,,359.314837,359.4127748,360.2133112,360.19784459999994,360.1985972,360.2133112,360.2133112,360.2133112,,360.9303846,,,,,,,,,,,,,,,,,,,,,,,,,,,,,,left,1.0,0.7112094000000297,,,,,sub-098,1,random_dot,60.09940441491093,
right,right,15.0,1.0,7.0,right,1.0,0.766558600000053,,speed,space,4.206562100000042,,,,,,0.0,1.0,1.0,1.0,7.0,1.0,15.0,1.0,360.94637979999993,,,,,,,,,360.93121439999993,361.729166,362.530047,362.5139138,362.5148034,362.530047,362.530047,362.530047,,363.3142462,,,,,,,,,,,,,,,,,,,,,,,,,,,,,,right,1.0,0.766558600000053,,,,,sub-098,1,random_dot,60.09940441491093,
left,left,16.0,0.0,8.0,left,1.0,0.6197542999999541,,speed,space,4.206562100000042,,,,,,0.0,1.0,1.0,1.0,8.0,0.0,16.0,0.0,363.3289909,,,,,,,,,363.3152063,364.1134131,364.9131621,364.89736,364.8982391,364.9131621,364.9131621,364.9131621,,365.54781589999993,,,,,,,,,,,,,,,,,,,,,,,,,,,,,,left,1.0,0.6197542999999541,,,,,sub-098,1,random_dot,60.09940441491093,
right,right,17.0,1.0,8.0,right,1.0,0.7941964999999982,,speed,space,4.206562100000042,,,,,,0.0,1.0,1.0,1.0,8.0,1.0,17.0,1.0,365.5632867,,,,,,,,,365.548777,365.9122343,366.712511,366.6953797,366.6957941,366.712511,366.712511,366.712511,,367.5130847,,,,,,,,,,,,,,,,,,,,,,,,,,,,,,right,1.0,0.7941964999999982,,,,,sub-098,1,random_dot,60.09940441491093,
left,left,18.0,0.0,9.0,left,1.0,0.5718580999999858,,speed,space,4.206562100000042,,,,,,0.0,1.0,1.0,1.0,9.0,0.0,18.0,0.0,367.5291102,,,,,,,,,367.5141247,368.7127836,369.5126845,369.4967532,369.49759169999993,369.5126845,369.5126845,369.5126845,,370.09429879999993,,,,,,,,,,,,,,,,,,,,,,,,,,,,,,left,1.0,0.5718580999999858,,,,,sub-098,1,random_dot,60.09940441491093,
right,right,19.0,1.0,9.0,right,1.0,0.589459799999986,,speed,space,4.206562100000042,,,,,,0.0,1.0,1.0,1.0,9.0,1.0,19.0,1.0,370.1112837,,,,,,,,,370.09484409999993,370.8940305,371.6933447,371.6777489,371.67813519999993,371.6933447,371.6933447,371.6933447,,372.2936647,,,,,,,,,,,,,,,,,,,,,,,,,,,,,,right,1.0,0.589459799999986,,,,,sub-098,1,random_dot,60.09940441491093,
right,right,20.0,0.0,10.0,right,1.0,0.6388994000000139,,speed,space,4.206562100000042,,,,,,0.0,1.0,1.0,1.0,10.0,0.0,20.0,1.0,372.3106117,,,,,,,,,372.2941212,373.093622,373.8932783,373.8773016,373.8777707,373.8932783,373.8932783,373.8932783,,374.5451269,,,,,,,,,,,,,,,,,,,,,,,,,,,,,,right,1.0,0.6388994000000139,,,,,sub-098,1,random_dot,60.09940441491093,
left,left,21.0,1.0,10.0,left,1.0,0.6361402999999655,,speed,space,4.206562100000042,,,,,,0.0,1.0,1.0,1.0,10.0,1.0,21.0,0.0,374.5607409,,,,,,,,,374.5458587,375.3601345,376.1610306,376.1447488,376.1453907,376.1610306,376.1610306,376.1610306,,376.8117763,,,,,,,,,,,,,,,,,,,,,,,,,,,,,,left,1.0,0.6361402999999655,,,,,sub-098,1,random_dot,60.09940441491093,
left,left,22.0,0.0,11.0,left,1.0,0.5765059999999949,,speed,space,4.206562100000042,,,,,,0.0,1.0,1.0,1.0,11.0,0.0,22.0,0.0,376.8278618,,,,,,,,,376.8125523,377.6113491,378.411426,378.3952967,378.396075,378.411426,378.411426,378.411426,,378.9954734,,,,,,,,,,,,,,,,,,,,,,,,,,,,,,left,1.0,0.5765059999999949,,,,,sub-098,1,random_dot,60.09940441491093,
right,right,23.0,1.0,11.0,right,1.0,0.6327553999999509,,speed,space,4.206562100000042,,,,,,0.0,1.0,1.0,1.0,11.0,1.0,23.0,1.0,379.0114438,,,,,,,,,378.9963017,379.7946593,380.5945945,380.5785877,380.5793174,380.5945945,380.5945945,380.5945945,,381.2287516,,,,,,,,,,,,,,,,,,,,,,,,,,,,,,right,1.0,0.6327553999999509,,,,,sub-098,1,random_dot,60.09940441491093,
left,left,24.0,0.0,12.0,left,1.0,0.6270365000000311,,speed,space,4.206562100000042,,,,,,0.0,1.0,1.0,1.0,12.0,0.0,24.0,0.0,381.2446198,,,,,,,,,381.2296044,382.427114,383.2268279,383.211424,383.2123124,383.2268279,383.2268279,383.2268279,,383.8615383,,,,,,,,,,,,,,,,,,,,,,,,,,,,,,left,1.0,0.6270365000000311,,,,,sub-098,1,random_dot,60.09940441491093,
right,right,25.0,1.0,12.0,right,1.0,0.6072093999999879,,speed,space,4.206562100000042,,,,,,0.0,1.0,1.0,1.0,12.0,1.0,25.0,1.0,383.877443,,,,,,,,,383.8625318,385.0772485,385.8769174,385.8610894,385.8619258,385.8769174,385.8769174,385.8769174,,386.4941632,,,,,,,,,,,,,,,,,,,,,,,,,,,,,,right,1.0,0.6072093999999879,,,,,sub-098,1,random_dot,60.09940441491093,
right,right,26.0,0.0,13.0,left,0.0,0.9604534000000058,,speed,space,4.206562100000042,,,,,,0.0,1.0,1.0,1.0,13.0,0.0,26.0,1.0,386.5100779,,,,,,,,,386.4951303,387.3101077,388.1103345,388.0942282,388.0951138,388.1103345,388.1103345,388.1103345,,389.077503,,,,,,,,,,,,,,,,,,,,,,,,,,,,,,left,0.0,0.9604534000000058,,,,,sub-098,1,random_dot,60.09940441491093,
left,left,27.0,1.0,13.0,left,1.0,0.7004592999999204,,speed,space,4.206562100000042,,,,,,0.0,1.0,1.0,1.0,13.0,1.0,27.0,0.0,389.0935482,,,,,,,,,389.0784536,389.1934087,389.9926819,389.9773338,389.9782041,389.9926819,389.9926819,389.9926819,,390.71042779999993,,,,,,,,,,,,,,,,,,,,,,,,,,,,,,left,1.0,0.7004592999999204,,,,,sub-098,1,random_dot,60.09940441491093,
left,left,28.0,0.0,14.0,left,1.0,1.170573500000046,,speed,space,4.206562100000042,,,,,,0.0,1.0,1.0,1.0,14.0,0.0,28.0,0.0,390.7259573,,,,,,,,,390.711384,391.9098101,392.7096372,392.6936399,392.6944746,392.7096372,392.7096372,392.7096372,,393.8933785,,,,,,,,,,,,,,,,,,,,,,,,,,,,,,left,1.0,1.170573500000046,,,,,sub-098,1,random_dot,60.09940441491093,
right,right,29.0,1.0,14.0,right,1.0,0.6697415999999521,,speed,space,4.206562100000042,,,,,,0.0,1.0,1.0,1.0,14.0,1.0,29.0,1.0,393.9092667,,,,,,,,,393.8944146,394.2424955,395.0425357,395.0263168,395.0271538,395.0425357,395.0425357,395.0425357,,395.7261366,,,,,,,,,,,,,,,,,,,,,,,,,,,,,,right,1.0,0.6697415999999521,,,,,sub-098,1,random_dot,60.09940441491093,
right,right,30.0,0.0,15.0,right,1.0,0.8131856999999627,,speed,space,4.206562100000042,,,,,,0.0,1.0,1.0,1.0,15.0,0.0,30.0,1.0,395.7420082,,,,,,,,,395.7271418,396.5256977,397.325607,397.3097308,397.3105988,397.325607,397.325607,397.325607,,398.1430028,,,,,,,,,,,,,,,,,,,,,,,,,,,,,,right,1.0,0.8131856999999627,,,,,sub-098,1,random_dot,60.09940441491093,
left,left,31.0,1.0,15.0,left,1.0,0.6934371999999485,,speed,space,4.206562100000042,,,,,,0.0,1.0,1.0,1.0,15.0,1.0,31.0,0.0,398.15837579999993,,,,,,,,,398.14396,398.2421467,399.0422668,399.0265717,399.0274795,399.0422668,399.0422668,399.0422668,,399.7425562,,,,,,,,,,,,,,,,,,,,,,,,,,,,,,left,1.0,0.6934371999999485,,,,,sub-098,1,random_dot,60.09940441491093,
right,right,32.0,0.0,16.0,right,1.0,0.6610232000000451,,speed,space,4.206562100000042,,,,,,0.0,1.0,1.0,1.0,16.0,0.0,32.0,1.0,399.758648,,,,,,,,,399.7435564,399.8419222,400.6415457,400.626131,400.6268663,400.6415457,400.6415457,400.6415457,,401.3084044,,,,,,,,,,,,,,,,,,,,,,,,,,,,,,right,1.0,0.6610232000000451,,,,,sub-098,1,random_dot,60.09940441491093,
left,left,33.0,1.0,16.0,left,1.0,0.6050818999999592,,speed,space,4.206562100000042,,,,,,0.0,1.0,1.0,1.0,16.0,1.0,33.0,0.0,401.3249509,,,,,,,,,401.3092621,402.1081615,402.9080324,402.8921348,402.89298339999993,402.9080324,402.9080324,402.9080324,,403.5256695,,,,,,,,,,,,,,,,,,,,,,,,,,,,,,left,1.0,0.6050818999999592,,,,,sub-098,1,random_dot,60.09940441491093,
right,right,34.0,0.0,17.0,right,1.0,0.6866633000000775,,speed,space,4.206562100000042,,,,,,0.0,1.0,1.0,1.0,17.0,0.0,34.0,1.0,403.5411285,,,,,,,,,403.5266553,404.3245712,405.1238534,405.1078161,405.1085813,405.1238534,405.1238534,405.1238534,,405.823367,,,,,,,,,,,,,,,,,,,,,,,,,,,,,,right,1.0,0.6866633000000775,,,,,sub-098,1,random_dot,60.09940441491093,
left,left,35.0,1.0,17.0,left,1.0,0.7007917999999336,,speed,space,4.206562100000042,,,,,,0.0,1.0,1.0,1.0,17.0,1.0,35.0,0.0,405.8392645,,,,,,,,,405.8240101,405.9229624,406.7221648,406.7062566,406.7066656,406.7221648,406.7221648,406.7221648,,407.4235264,,,,,,,,,,,,,,,,,,,,,,,,,,,,,,left,1.0,0.7007917999999336,,,,,sub-098,1,random_dot,60.09940441491093,
left,left,36.0,0.0,18.0,left,1.0,1.18456249999997,,speed,space,4.206562100000042,,,,,,0.0,1.0,1.0,1.0,18.0,0.0,36.0,0.0,407.43876979999993,,,,,,,,,407.4239935,407.5394514,408.3386236,408.3229512,408.3235653,408.3386236,408.3386236,408.3386236,,409.5408075,,,,,,,,,,,,,,,,,,,,,,,,,,,,,,left,1.0,1.18456249999997,,,,,sub-098,1,random_dot,60.09940441491093,
right,right,37.0,1.0,18.0,right,1.0,0.7291079000000309,,speed,space,4.206562100000042,,,,,,0.0,1.0,1.0,1.0,18.0,1.0,37.0,1.0,409.5564519,,,,,,,,,409.5415688,410.3558169,411.1551756,411.1403319,411.1407663,411.1551756,411.1551756,411.1551756,,411.8901202,,,,,,,,,,,,,,,,,,,,,,,,,,,,,,right,1.0,0.7291079000000309,,,,,sub-098,1,random_dot,60.09940441491093,
left,left,38.0,0.0,19.0,left,1.0,0.7333253000000468,,speed,space,4.206562100000042,,,,,,0.0,1.0,1.0,1.0,19.0,0.0,38.0,0.0,411.905948,,,,,,,,,411.890863,411.9895196,412.7898332,412.774588,412.7753775,412.7898332,412.7898332,412.7898332,,413.524046,,,,,,,,,,,,,,,,,,,,,,,,,,,,,,left,1.0,0.7333253000000468,,,,,sub-098,1,random_dot,60.09940441491093,
right,right,39.0,1.0,19.0,right,1.0,0.68260429999998,,speed,space,4.206562100000042,,,,,,0.0,1.0,1.0,1.0,19.0,1.0,39.0,1.0,413.5399764,,,,,,,,,413.5248997,413.8730159,414.6724934,414.6573831,414.65819149999993,414.6724934,414.6724934,414.6724934,,415.3576104,,,,,,,,,,,,,,,,,,,,,,,,,,,,,,right,1.0,0.68260429999998,,,,,sub-098,1,random_dot,60.09940441491093,
left,left,40.0,0.0,20.0,left,1.0,0.6382895000000417,,speed,space,4.206562100000042,,,,,,0.0,1.0,1.0,1.0,20.0,0.0,40.0,0.0,415.3722706,,,,,,,,,415.35842389999993,415.7061346,416.5060348,416.4901423,416.4910283,416.5060348,416.5060348,416.5060348,,417.1574352,,,,,,,,,,,,,,,,,,,,,,,,,,,,,,left,1.0,0.6382895000000417,,,,,sub-098,1,random_dot,60.09940441491093,
right,right,41.0,1.0,20.0,right,1.0,0.5595673999999917,,speed,space,4.206562100000042,,,,,,0.0,1.0,1.0,1.0,20.0,1.0,41.0,1.0,417.1730282,,,,,,,,,417.1584706,417.5228778,418.322022,418.3067654,418.3075926,418.322022,418.322022,418.322022,,418.8893424,,,,,,,,,,,,,,,,,,,,,,,,,,,,,,right,1.0,0.5595673999999917,,,,,sub-098,1,random_dot,60.09940441491093,
left,left,42.0,0.0,21.0,left,1.0,1.0180996999999934,,speed,space,4.206562100000042,,,,,,0.0,1.0,1.0,1.0,21.0,0.0,42.0,0.0,418.904989,,,,,,,,,418.8904913,419.2555726,420.0554683,420.0402385,420.0409887,420.0554683,420.0554683,420.0554683,,421.089572,,,,,,,,,,,,,,,,,,,,,,,,,,,,,,left,1.0,1.0180996999999934,,,,,sub-098,1,random_dot,60.09940441491093,
right,right,43.0,1.0,21.0,right,1.0,0.6009622000000263,,speed,space,4.206562100000042,,,,,,0.0,1.0,1.0,1.0,21.0,1.0,43.0,1.0,421.10542939999993,,,,,,,,,421.0904298,421.1887355,421.9883313,421.9732058,421.9739262,421.9883313,421.9883313,421.9883313,,422.6057269,,,,,,,,,,,,,,,,,,,,,,,,,,,,,,right,1.0,0.6009622000000263,,,,,sub-098,1,random_dot,60.09940441491093,
left,left,44.0,0.0,22.0,left,1.0,0.6440501000000722,,speed,space,4.206562100000042,,,,,,0.0,1.0,1.0,1.0,22.0,0.0,44.0,0.0,422.6215908,,,,,,,,,422.60720459999993,422.9546232,423.7548042,423.73976859999993,423.7406636,423.7548042,423.7548042,423.7548042,,424.4060513,,,,,,,,,,,,,,,,,,,,,,,,,,,,,,left,1.0,0.6440501000000722,,,,,sub-098,1,random_dot,60.09940441491093,
right,right,45.0,1.0,22.0,right,1.0,1.0215676999999914,,speed,space,4.206562100000042,,,,,,0.0,1.0,1.0,1.0,22.0,1.0,45.0,1.0,424.4214634,,,,,,,,,424.4069629,425.6051621,426.4047068,426.389046,426.38991279999993,426.4047068,426.4047068,426.4047068,,427.4380407,,,,,,,,,,,,,,,,,,,,,,,,,,,,,,right,1.0,1.0215676999999914,,,,,sub-098,1,random_dot,60.09940441491093,
right,right,46.0,0.0,23.0,left,0.0,0.9499088999999684,,speed,space,4.206562100000042,,,,,,0.0,1.0,1.0,1.0,23.0,0.0,46.0,1.0,427.4544164,,,,,,,,,427.4389487,428.2384542,429.0381162,429.0222037,429.0230354,429.0381162,429.0381162,429.0381162,,429.9890264,,,,,,,,,,,,,,,,,,,,,,,,,,,,,,left,0.0,0.9499088999999684,,,,,sub-098,1,random_dot,60.09940441491093,
left,left,47.0,1.0,23.0,left,1.0,0.69106249999993,,speed,space,4.206562100000042,,,,,,0.0,1.0,1.0,1.0,23.0,1.0,47.0,0.0,430.0048497,,,,,,,,,429.990016,430.3377222,431.1376515,431.1227801,431.123667,431.1376515,431.1376515,431.1376515,,431.8383772,,,,,,,,,,,,,,,,,,,,,,,,,,,,,,left,1.0,0.69106249999993,,,,,sub-098,1,random_dot,60.09940441491093,
right,right,48.0,0.0,24.0,right,1.0,1.2018025999999509,,speed,space,4.206562100000042,,,,,,0.0,1.0,1.0,1.0,24.0,0.0,48.0,1.0,431.85453369999993,,,,,,,,,431.839372,431.9376006,432.7377362,432.72284389999993,432.723756,432.7377362,432.7377362,432.7377362,,433.9553023,,,,,,,,,,,,,,,,,,,,,,,,,,,,,,right,1.0,1.2018025999999509,,,,,sub-098,1,random_dot,60.09940441491093,
left,left,49.0,1.0,24.0,left,1.0,0.6589814999999817,,speed,space,4.206562100000042,,,,,,0.0,1.0,1.0,1.0,24.0,1.0,49.0,0.0,433.97097769999993,,,,,,,,,433.9562768,434.0541099,434.8539957,434.8378816,434.8387673,434.8539957,434.8539957,434.8539957,,435.520349,,,,,,,,,,,,,,,,,,,,,,,,,,,,,,left,1.0,0.6589814999999817,,,,,sub-098,1,random_dot,60.09940441491093,
left,left,50.0,0.0,25.0,left,1.0,0.6997940999999628,,speed,space,4.206562100000042,,,,,,0.0,1.0,1.0,1.0,25.0,0.0,50.0,0.0,435.53548219999993,,,,,,,,,435.521244,435.6360356,436.4352905,436.4190091,436.4195545,436.4352905,436.4352905,436.4352905,,437.1384985,,,,,,,,,,,,,,,,,,,,,,,,,,,,,,left,1.0,0.6997940999999628,,,,,sub-098,1,random_dot,60.09940441491093,
right,right,51.0,1.0,25.0,right,1.0,0.7010572000000366,,speed,space,4.206562100000042,,,,,,0.0,1.0,1.0,1.0,25.0,1.0,51.0,1.0,437.1540437,,,,,,,,,437.1394642,437.953804,438.75343079999993,438.7378619,438.738851,438.75343079999993,438.75343079999993,438.75343079999993,,439.4706998,,,,,,,,,,,,,,,,,,,,,,,,,,,,,,right,1.0,0.7010572000000366,,,,,sub-098,1,random_dot,60.09940441491093,
left,left,52.0,0.0,26.0,left,1.0,0.7439737999999352,,speed,space,4.206562100000042,,,,,,0.0,1.0,1.0,1.0,26.0,0.0,52.0,0.0,439.4864651,,,,,,,,,439.47171259999993,440.6697631,441.4843306,441.4680556,441.4684602,441.4843306,441.4843306,441.4843306,,442.2346706,,,,,,,,,,,,,,,,,,,,,,,,,,,,,,left,1.0,0.7439737999999352,,,,,sub-098,1,random_dot,60.09940441491093,
right,right,53.0,1.0,26.0,right,1.0,0.5973132000000305,,speed,space,4.206562100000042,,,,,,0.0,1.0,1.0,1.0,26.0,1.0,53.0,1.0,442.251636,,,,,,,,,442.235119,442.3350718,443.1341906,443.1182296,443.1186515,443.1341906,443.1341906,443.1341906,,443.7344527,,,,,,,,,,,,,,,,,,,,,,,,,,,,,,right,1.0,0.5973132000000305,,,,,sub-098,1,random_dot,60.09940441491093,
left,left,54.0,0.0,27.0,left,1.0,0.6605875000000196,,speed,space,4.206562100000042,,,,,,0.0,1.0,1.0,1.0,27.0,0.0,54.0,0.0,443.7510414,,,,,,,,,443.7348857,444.0846736,444.8851377,444.8699492,444.870611,444.8851377,444.8851377,444.8851377,,445.5517974,,,,,,,,,,,,,,,,,,,,,,,,,,,,,,left,1.0,0.6605875000000196,,,,,sub-098,1,random_dot,60.09940441491093,
right,right,55.0,1.0,27.0,right,1.0,0.8862427999999909,,speed,space,4.206562100000042,,,,,,0.0,1.0,1.0,1.0,27.0,1.0,55.0,1.0,445.5673653,,,,,,,,,445.5522439,445.9178689,446.7171522,446.7008286,446.7012516,446.7171522,446.7171522,446.7171522,,447.6195502,,,,,,,,,,,,,,,,,,,,,,,,,,,,,,right,1.0,0.8862427999999909,,,,,sub-098,1,random_dot,60.09940441491093,
right,right,56.0,0.0,28.0,left,0.0,0.9952432000000044,,speed,space,4.206562100000042,,,,,,0.0,1.0,1.0,1.0,28.0,0.0,56.0,1.0,447.63539689999993,,,,,,,,,447.6203683,447.968738,448.7688371,448.7528763,448.7536317,448.7688371,448.7688371,448.7688371,,449.7694803,,,,,,,,,,,,,,,,,,,,,,,,,,,,,,left,0.0,0.9952432000000044,,,,,sub-098,1,random_dot,60.09940441491093,
left,left,57.0,1.0,28.0,left,1.0,0.6766427000000022,,speed,space,4.206562100000042,,,,,,0.0,1.0,1.0,1.0,28.0,1.0,57.0,0.0,449.7853788,,,,,,,,,449.7703804,450.1190299,450.9347872999999,450.9191877999999,450.92016250000006,450.9347872999999,450.9347872999999,450.9347872999999,,451.61908990000006,,,,,,,,,,,,,,,,,,,,,,,,,,,,,,left,1.0,0.6766427000000022,,,,,sub-098,1,random_dot,60.09940441491093,
right,right,58.0,0.0,29.0,right,1.0,0.6795781999999235,,speed,space,4.206562100000042,,,,,,0.0,1.0,1.0,1.0,29.0,0.0,58.0,1.0,451.6346747,,,,,,,,,451.62005679999993,451.7342753999999,452.53919,452.5186664,452.5195664,452.53919,452.53919,452.53919,,453.2349201,,,,,,,,,,,,,,,,,,,,,,,,,,,,,,right,1.0,0.6795781999999235,,,,,sub-098,1,random_dot,60.09940441491093,
left,left,59.0,1.0,29.0,left,1.0,0.7330461000001378,,speed,space,4.206562100000042,,,,,,0.0,1.0,1.0,1.0,29.0,1.0,59.0,0.0,453.2510622,,,,,,,,,453.2357867999999,453.58464950000007,454.3841557999999,454.3685879,454.3693132000001,454.3841557999999,454.3841557999999,454.3841557999999,,455.1205313,,,,,,,,,,,,,,,,,,,,,,,,,,,,,,left,1.0,0.7330461000001378,,,,,sub-098,1,random_dot,60.09940441491093,
,,1.0,1.0,0.0,,,,,speed,space,4.206562100000042,,,,,,0.0,1.0,1.0,1.0,,,,,,,,,,,,,,,,,,,,,,,,,,,,,,,,,,,,,,,,,,,,,,,,,,,,,,,,,,,,sub-098,1,random_dot,60.09940441491093,
,,,,,,,,,,,,,,,,,,,,,,,,,,,,,,,,,,,,,,,,,,,,,,,,,,,,,,,,,,,,,,,,,,,,,,,,,,,,,455.1343757,455.14279710000005,460.13509909999993,sub-098,1,random_dot,60.09940441491093,
