direction,corrAns,thisN,thisTrialN,thisRepN,respDots.keys,respDots.corr,respDots.rt,respDots.duration,randomInstr,respRandomInstr.keys,respRandomInstr.rt,respRandomInstr.duration,practice_trials.thisRepN,practice_trials.thisTrialN,practice_trials.thisN,practice_trials.thisIndex,instr_trials.thisRepN,instr_trials.thisTrialN,instr_trials.thisN,instr_trials.thisIndex,test_trials.thisRepN,test_trials.thisTrialN,test_trials.thisN,test_trials.thisIndex,thisRow.t,notes,general_instruction.started,textGeneralInstr.started,respGeneralInstr.started,general_instruction.stopped,respGeneralInstr.keys,respGeneralInstr.rt,respGeneralInstr.duration,ITI.started,fixcross.started,fixcross.stopped,ITI.stopped,dots.started,backgroundDots.started,stimulusDots.started,respDots.started,dots.stopped,practice_trials.respDots.keys,practice_trials.respDots.corr,practice_trials.respDots.rt,practice_trials.respDots.duration,feedback.started,textFeedback.started,feedback.stopped,textFeedback.stopped,info.started,textInfo.started,keyRespInfo.started,info.stopped,keyRespInfo.keys,keyRespInfo.rt,keyRespInfo.duration,test_instruction.started,textTestInstr.started,respTestInstr.started,test_instruction.stopped,respTestInstr.keys,respTestInstr.rt,respTestInstr.duration,random_instruction.started,textRandomInstr.started,respRandomInstr.started,random_instruction.stopped,instr_trials.respRandomInstr.keys,instr_trials.respRandomInstr.rt,instr_trials.respRandomInstr.duration,test_trials.respDots.keys,test_trials.respDots.corr,test_trials.respDots.rt,test_trials.respDots.duration,goodbye.started,textGoodbye.started,goodbye.stopped,participant,session,expName,frameRate,Unnamed: 86
,,,,,,,,,,,,,,,,,,,,,,,,,,,0.0080170830005954,0.0149761659995419,0.0149761659995419,1.191492875001131,space,1.1353737499994168,,,,,,,,,,,,,,,,,,,,,,,,,,,,,,,,,,,,,,,,,,,,,,,sub-210,1,random_dot,,
left,left,0.0,0.0,0.0,left,1.0,0.7471802920008486,,,,,,0.0,0.0,0.0,0.0,,,,,,,,,1.2659064159997797,,,,,,,,,1.245163166000566,2.3900222910015145,3.19075204100227,3.176450458002364,3.177042708000954,3.19075204100227,3.19075204100227,3.19075204100227,3.9454699580019215,left,1.0,0.7471802920008486,,3.9528776250008377,4.046224458001234,4.454289666002296,,,,,,,,,,,,,,,,,,,,,,,,,,,,,,sub-210,1,random_dot,,
right,right,1.0,1.0,0.0,right,1.0,0.7433333329972811,,,,,,0.0,1.0,1.0,1.0,,,,,,,,,4.45952004100036,,,,,,,,,4.454886040999554,5.244038166001701,6.045944833000249,6.037874083001952,6.03848466600175,6.045944833000249,6.045944833000249,6.045944833000249,6.795723625000392,right,1.0,0.7433333329972811,,6.7958563749998575,6.807660583002871,7.293001624999306,7.303931416001433,,,,,,,,,,,,,,,,,,,,,,,,,,,,,sub-210,1,random_dot,,
left,left,2.0,0.0,1.0,left,1.0,0.6204394589985895,,,,,,1.0,0.0,2.0,0.0,,,,,,,,,7.303931416001433,,,,,,,,,7.293514749999304,7.642809125001804,8.437495875001332,8.426447833000566,8.426933708000433,8.437495875001332,8.437495875001332,8.437495875001332,9.06080266600111,left,1.0,0.6204394589985895,,9.060922041000596,9.069218500000716,9.554414958001871,9.559670791000826,,,,,,,,,,,,,,,,,,,,,,,,,,,,,sub-210,1,random_dot,,
right,right,3.0,1.0,1.0,right,1.0,0.720413582999754,,,,,,1.0,1.0,3.0,1.0,,,,,,,,,9.559670791000826,,,,,,,,,9.554942582999502,10.75926658300159,11.55408937500033,11.542953333002515,11.543431000001874,11.55408937500033,11.55408937500033,11.55408937500033,12.278739041001243,right,1.0,0.720413582999754,,12.27886491600293,12.285915041000408,12.771122958001795,12.776201332999335,,,,,,,,,,,,,,,,,,,,,,,,,,,,,sub-210,1,random_dot,,
left,left,4.0,0.0,2.0,left,1.0,0.8078965829990921,,,,,,2.0,0.0,4.0,0.0,,,,,,,,,12.776201332999335,,,,,,,,,12.771641333001751,13.57708674999958,14.370761416001187,14.359663833001832,14.36014645800242,14.370761416001187,14.370761416001187,14.370761416001187,15.187939791001554,left,1.0,0.8078965829990921,,15.18805925000197,15.19482912500098,15.687772000001132,15.693010708000656,,,,,,,,,,,,,,,,,,,,,,,,,,,,,sub-210,1,random_dot,,
right,right,5.0,1.0,2.0,right,1.0,0.8591862909997872,,,,,,2.0,1.0,5.0,1.0,,,,,,,,,15.693010708000656,,,,,,,,,15.68832941599976,16.027215250000154,16.82936029100165,16.8211852500026,16.82197483300115,16.82936029100165,16.82936029100165,16.82936029100165,17.69502220800132,right,1.0,0.8591862909997872,,17.69511704099932,17.702513083000667,18.1876244160012,18.19277037500069,,,,,,,,,,,,,,,,,,,,,,,,,,,,,sub-210,1,random_dot,,
right,right,6.0,0.0,3.0,left,0.0,0.657773916998849,,,,,,3.0,0.0,6.0,1.0,,,,,,,,,18.19277037500069,,,,,,,,,18.18816691599932,18.992823291002424,19.78731387500011,19.775389875001565,19.77585362500031,19.78731387500011,19.78731387500011,19.78731387500011,20.45394745800149,left,0.0,0.657773916998849,,20.45910729100069,20.4655210000019,20.954307750002044,,,,,,,,,,,,,,,,,,,,,,,,,,,,,,sub-210,1,random_dot,,
left,left,7.0,1.0,3.0,right,0.0,0.6172987500031013,,,,,,3.0,1.0,7.0,0.0,,,,,,,,,20.95952945799945,,,,,,,,,20.95487758300078,21.29399412500061,22.095584708000388,22.087639875000605,22.088256916002138,22.095584708000388,22.095584708000388,22.095584708000388,22.721255041000404,right,0.0,0.6172987500031013,,22.72134650000225,22.72808616600014,23.22093445800056,23.226164457999403,,,,,,,,,,,,,,,,,,,,,,,,,,,,,sub-210,1,random_dot,,
left,left,8.0,0.0,4.0,left,1.0,0.9380585419967248,,,,,,4.0,0.0,8.0,0.0,,,,,,,,,23.226164457999403,,,,,,,,,23.22147979100191,23.56023095800265,24.362147833002386,24.35431299999982,24.35487904100228,24.362147833002386,24.362147833002386,24.362147833002386,25.304962665999483,left,1.0,0.9380585419967248,,25.308497500001977,25.31539820800026,25.804321291001543,25.80948483300017,,,,,,,,,,,,,,,,,,,,,,,,,,,,,sub-210,1,random_dot,,
right,right,9.0,1.0,4.0,left,0.0,0.7979603329986276,,,,,,4.0,1.0,9.0,1.0,,,,,,,,,25.80948483300017,,,,,,,,,25.80485816600049,26.593971500002223,27.395539458000712,27.387662291002925,27.388269833001686,27.395539458000712,27.395539458000712,27.395539458000712,28.19569520799996,left,0.0,0.7979603329986276,,28.198909624999946,28.21742362499936,28.704171833000142,,,,,,,,,,,,,,,,,,,,,,,,,,,,,,sub-210,1,random_dot,,
right,right,10.0,0.0,5.0,right,1.0,1.70300645899988,,,,,,5.0,0.0,10.0,1.0,,,,,,,,,28.708574000000223,,,,,,,,,28.704628957999372,28.793324375001248,29.58576729100241,29.57704700000249,29.577553875002195,29.58576729100241,29.58576729100241,29.58576729100241,31.294990416001383,right,1.0,1.70300645899988,,31.298044291001133,31.30543179100277,31.792952416002663,31.80401758300286,,,,,,,,,,,,,,,,,,,,,,,,,,,,,sub-210,1,random_dot,,
left,left,11.0,1.0,5.0,left,1.0,0.8598442499969678,,,,,,5.0,1.0,11.0,0.0,,,,,,,,,31.80401758300286,,,,,,,,,31.793387749999965,32.59330937500272,33.387330707999354,33.37650045800183,33.376976416002435,33.387330707999354,33.387330707999354,33.387330707999354,34.255331500000466,left,1.0,0.8598442499969678,,34.25545866600078,34.26263575000121,34.7542751660003,34.75957641599962,,,,,,,,,,,,,,,,,,,,,,,,,,,,,sub-210,1,random_dot,,
right,right,12.0,0.0,6.0,right,1.0,0.8382794589997502,,,,,,6.0,0.0,12.0,1.0,,,,,,,,,34.75957641599962,,,,,,,,,34.75481700000091,35.10417295800289,35.89531158300088,35.88752854099948,35.888152833002096,35.89531158300088,35.89531158300088,35.89531158300088,36.73863883300146,right,1.0,0.8382794589997502,,36.73875470799976,36.74571850000211,37.237362375002704,37.2418753330021,,,,,,,,,,,,,,,,,,,,,,,,,,,,,sub-210,1,random_dot,,
left,left,13.0,1.0,6.0,left,1.0,0.7292731659981655,,,,,,6.0,1.0,13.0,0.0,,,,,,,,,37.2418753330021,,,,,,,,,37.237817375000304,37.33750162500292,38.12859166600174,38.12077220799984,38.12137112500204,38.12859166600174,38.12859166600174,38.12859166600174,38.8619018749996,left,1.0,0.7292731659981655,,38.86200133300008,38.86881716599965,39.354127000002336,39.359223125000426,,,,,,,,,,,,,,,,,,,,,,,,,,,,,sub-210,1,random_dot,,
left,left,14.0,0.0,7.0,right,0.0,2.072145083002397,,,,,,7.0,0.0,14.0,0.0,,,,,,,,,39.359223125000426,,,,,,,,,39.35467312500259,39.70991400000276,40.50391258300078,40.49284195800283,40.49331441600225,40.50391258300078,40.50391258300078,40.50391258300078,42.577975250002055,right,0.0,2.072145083002397,,42.581515666002815,42.58896233300038,43.07694287500272,43.08715191600277,,,,,,,,,,,,,,,,,,,,,,,,,,,,,sub-210,1,random_dot,,
right,right,15.0,1.0,7.0,left,0.0,0.7132095839988324,,,,,,7.0,1.0,15.0,1.0,,,,,,,,,43.08715191600277,,,,,,,,,43.077370666000206,43.17685533300028,43.97831629100256,43.97081466600139,43.97140970799956,43.97831629100256,43.97831629100256,43.97831629100256,44.694560583000566,left,0.0,0.7132095839988324,,44.6946820000012,44.70230891599931,45.18768750000163,45.19343475000278,,,,,,,,,,,,,,,,,,,,,,,,,,,,,sub-210,1,random_dot,,
right,right,16.0,0.0,8.0,right,1.0,0.6866673750009795,,,,,,8.0,0.0,16.0,1.0,,,,,,,,,45.19343475000278,,,,,,,,,45.18838845800201,45.99385225000151,46.795533250002336,46.78777879100016,46.78855958300119,46.795533250002336,46.795533250002336,46.795533250002336,47.48837512500177,right,1.0,0.6866673750009795,,47.49140879100014,47.49820433300192,47.98736279100194,47.99270299999989,,,,,,,,,,,,,,,,,,,,,,,,,,,,,sub-210,1,random_dot,,
left,left,17.0,1.0,8.0,right,0.0,0.8429763750027632,,,,,,8.0,1.0,17.0,0.0,,,,,,,,,47.99270299999989,,,,,,,,,47.98791270800211,48.336972583001625,49.12869020800281,49.120801916000346,49.121381375000055,49.12869020800281,49.12869020800281,49.12869020800281,49.97911820800073,right,0.0,0.8429763750027632,,49.98208108300241,49.99098654100089,50.47621083299964,50.48725970799933,,,,,,,,,,,,,,,,,,,,,,,,,,,,,sub-210,1,random_dot,,
left,left,18.0,0.0,9.0,left,1.0,1.0196798340002715,,,,,,9.0,0.0,18.0,0.0,,,,,,,,,50.48725970799933,,,,,,,,,50.47663391600145,50.576772583001,51.36933666600089,51.35955579100119,51.36006504100078,51.36933666600089,51.36933666600089,51.36933666600089,52.394798625002295,left,1.0,1.0196798340002715,,52.39759950000007,52.40502454099988,52.89278354099952,52.90389995800069,,,,,,,,,,,,,,,,,,,,,,,,,,,,,sub-210,1,random_dot,,
right,right,19.0,1.0,9.0,left,0.0,0.9847715830001108,,,,,,9.0,1.0,19.0,1.0,,,,,,,,,52.90389995800069,,,,,,,,,52.89320787500037,52.99274650000007,53.78753545800282,53.7759493750018,53.77642529100194,53.78753545800282,53.78753545800282,53.78753545800282,54.77793345800092,left,0.0,0.9847715830001108,,54.78063316599946,54.80347154099945,55.2874477080004,,,,,,,,,,,,,,,,,,,,,,,,,,,,,,sub-210,1,random_dot,,
,,,,,,,,,,,,,,,,,,,,,,,,,,,,,,,,,,,,,,,,,,,,,,,,,,,55.37352875000215,55.3772925000012,55.3772925000012,56.80501804100277,space,1.422635791997891,,,,,,,,,,,,,,,,,,,,,,,sub-210,1,random_dot,,
,,,,,,,,,,,,,,,,,,,,,,,,,,,,,,,,,,,,,,,,,,,,,,,,,,,,,,,,,,56.80509729100231,56.81617395800277,56.81617395800277,58.17878158299936,space,1.360688000000664,,,,,,,,,,,,,,,,sub-210,1,random_dot,,
left,left,0.0,0.0,0.0,left,1.0,0.7964945830026409,,speed,space,1.0882429580015014,,,,,,0.0,0.0,0.0,1.0,0.0,0.0,0.0,0.0,59.32145183300236,,,,,,,,,59.31498129100146,59.40380783300134,60.1964982080026,60.18762837500253,60.18839395800023,60.1964982080026,60.1964982080026,60.1964982080026,60.99441291599942,,,,,,,,,,,,,,,,,,,,,,,58.2027702910018,58.2102201250018,58.2102201250018,59.305536708001455,space,1.0882429580015014,,left,1.0,0.7964945830026409,,,,,sub-210,1,random_dot,,
right,right,1.0,1.0,0.0,right,1.0,0.7460479580004176,,speed,space,1.0882429580015014,,,,,,0.0,0.0,0.0,1.0,0.0,1.0,1.0,1.0,61.00216987500244,,,,,,,,,60.9947675830008,62.193661708002764,62.99491416599994,62.98739095800192,62.98801062500206,62.99491416599994,62.99491416599994,62.99491416599994,63.74499562500205,,,,,,,,,,,,,,,,,,,,,,,,,,,,,,right,1.0,0.7460479580004176,,,,,sub-210,1,random_dot,,
left,left,2.0,0.0,1.0,left,1.0,0.5266046670003561,,speed,space,1.0882429580015014,,,,,,0.0,0.0,0.0,1.0,1.0,0.0,2.0,0.0,63.75217500000144,,,,,,,,,63.74535716600076,63.84174679100033,64.63652170800196,64.62640375000046,64.62693829099953,64.63652170800196,64.63652170800196,64.63652170800196,65.17161487500198,,,,,,,,,,,,,,,,,,,,,,,,,,,,,,left,1.0,0.5266046670003561,,,,,sub-210,1,random_dot,,
right,right,3.0,1.0,1.0,right,1.0,0.3953359580009419,,speed,space,1.0882429580015014,,,,,,0.0,0.0,0.0,1.0,1.0,1.0,3.0,1.0,65.17856341600054,,,,,,,,,65.17206512499979,65.52054558300006,66.31183929100007,66.30397416599953,66.30456783300178,66.31183929100007,66.31183929100007,66.31183929100007,66.71078200000193,,,,,,,,,,,,,,,,,,,,,,,,,,,,,,right,1.0,0.3953359580009419,,,,,sub-210,1,random_dot,,
left,left,4.0,0.0,2.0,left,1.0,0.4104616250006074,,speed,space,1.0882429580015014,,,,,,0.0,0.0,0.0,1.0,2.0,0.0,4.0,0.0,66.7192696250022,,,,,,,,,66.7111171659999,67.06021370800227,67.86164991600162,67.85383158300101,67.85442591600076,67.86164991600162,67.86164991600162,67.86164991600162,68.27880337500028,,,,,,,,,,,,,,,,,,,,,,,,,,,,,,left,1.0,0.4104616250006074,,,,,sub-210,1,random_dot,,
right,right,5.0,1.0,2.0,right,1.0,0.5726118330021563,,speed,space,1.0882429580015014,,,,,,0.0,0.0,0.0,1.0,2.0,1.0,5.0,1.0,68.28627558300286,,,,,,,,,68.2794114999997,68.37600433300031,69.16937945800237,69.15981749999992,69.16029366600196,69.16937945800237,69.16937945800237,69.16937945800237,69.744847416001,,,,,,,,,,,,,,,,,,,,,,,,,,,,,,right,1.0,0.5726118330021563,,,,,sub-210,1,random_dot,,
right,right,6.0,0.0,3.0,right,1.0,0.7077804589971493,,speed,space,1.0882429580015014,,,,,,0.0,0.0,0.0,1.0,3.0,0.0,6.0,1.0,69.75213262500256,,,,,,,,,69.74519650000002,69.84178824999981,70.63704920800228,70.62603304100048,70.62650279100126,70.63704920800228,70.63704920800228,70.63704920800228,71.35501954100255,,,,,,,,,,,,,,,,,,,,,,,,,,,,,,right,1.0,0.7077804589971493,,,,,sub-210,1,random_dot,,
left,left,7.0,1.0,3.0,right,0.0,0.6251767089997884,,speed,space,1.0882429580015014,,,,,,0.0,0.0,0.0,1.0,3.0,1.0,7.0,0.0,71.36190079100197,,,,,,,,,71.3554925410026,72.55399508300252,73.34540558300068,73.33723141600058,73.33779024999967,73.34540558300068,73.34540558300068,73.34540558300068,73.97237950000272,,,,,,,,,,,,,,,,,,,,,,,,,,,,,,right,0.0,0.6251767089997884,,,,,sub-210,1,random_dot,,
left,left,8.0,0.0,4.0,right,0.0,1.235694709001109,,speed,space,1.0882429580015014,,,,,,0.0,0.0,0.0,1.0,4.0,0.0,8.0,0.0,73.97887816600269,,,,,,,,,73.97276379100003,74.32037029099956,75.11131166600171,75.10376804100088,75.10436120799932,75.11131166600171,75.11131166600171,75.11131166600171,76.35498091599948,,,,,,,,,,,,,,,,,,,,,,,,,,,,,,right,0.0,1.235694709001109,,,,,sub-210,1,random_dot,,
right,right,9.0,1.0,4.0,left,0.0,0.510256459001539,,speed,space,1.0882429580015014,,,,,,0.0,0.0,0.0,1.0,4.0,1.0,9.0,1.0,76.3626546250016,,,,,,,,,76.35550683300244,77.15360154100199,77.94528029100184,77.93744554099976,77.93821962500078,77.94528029100184,77.94528029100184,77.94528029100184,78.46012195799995,,,,,,,,,,,,,,,,,,,,,,,,,,,,,,left,0.0,0.510256459001539,,,,,sub-210,1,random_dot,,
left,left,10.0,0.0,5.0,right,0.0,0.5743668329996581,,speed,space,1.0882429580015014,,,,,,0.0,0.0,0.0,1.0,5.0,0.0,10.0,0.0,78.46907970800021,,,,,,,,,78.46046595799999,78.55832633300088,79.35259550000046,79.34335691600063,79.34382837500016,79.35259550000046,79.35259550000046,79.35259550000046,79.92843133300266,,,,,,,,,,,,,,,,,,,,,,,,,,,,,,right,0.0,0.5743668329996581,,,,,sub-210,1,random_dot,,
right,right,11.0,1.0,5.0,left,0.0,0.442881999999372,,speed,space,1.0882429580015014,,,,,,0.0,0.0,0.0,1.0,5.0,1.0,11.0,1.0,79.93554929099992,,,,,,,,,79.92889541600016,80.27765129100226,81.07942679100233,81.07088075000138,81.07165291600177,81.07942679100233,81.07942679100233,81.07942679100233,81.5247159160026,,,,,,,,,,,,,,,,,,,,,,,,,,,,,,left,0.0,0.442881999999372,,,,,sub-210,1,random_dot,,
right,right,12.0,0.0,6.0,right,1.0,0.3662640830007149,,speed,space,1.0882429580015014,,,,,,0.0,0.0,0.0,1.0,6.0,0.0,12.0,1.0,81.53695795800013,,,,,,,,,81.52505020800163,82.32041016600124,83.11171662500055,83.10394412499954,83.10450337500151,83.11171662500055,83.11171662500055,83.11171662500055,83.48820770800012,,,,,,,,,,,,,,,,,,,,,,,,,,,,,,right,1.0,0.3662640830007149,,,,,sub-210,1,random_dot,,
left,left,13.0,1.0,6.0,left,1.0,0.3923352919991885,,speed,space,1.0882429580015014,,,,,,0.0,0.0,0.0,1.0,6.0,1.0,13.0,0.0,83.49477158300215,,,,,,,,,83.48874875000183,84.67698045799989,85.47858412500136,85.47060008300105,85.47120562500277,85.47858412500136,85.47858412500136,85.47858412500136,85.88105033300235,,,,,,,,,,,,,,,,,,,,,,,,,,,,,,left,1.0,0.3923352919991885,,,,,sub-210,1,random_dot,,
left,left,14.0,0.0,7.0,right,0.0,0.5750111249981273,,speed,space,1.0882429580015014,,,,,,0.0,0.0,0.0,1.0,7.0,0.0,14.0,0.0,85.88534070800233,,,,,,,,,85.88141200000246,85.9749711250006,86.76924687500286,86.76014204100284,86.76062550000279,86.76924687500286,86.76924687500286,86.76924687500286,87.3551801249996,,,,,,,,,,,,,,,,,,,,,,,,,,,,,,right,0.0,0.5750111249981273,,,,,sub-210,1,random_dot,,
right,right,15.0,1.0,7.0,right,1.0,0.7472457910007506,,speed,space,1.0882429580015014,,,,,,0.0,0.0,0.0,1.0,7.0,1.0,15.0,1.0,87.36216404100196,,,,,,,,,87.35567775000163,88.15365787500195,88.94488362500124,88.93711600000097,88.93768016600006,88.94488362500124,88.94488362500124,88.94488362500124,89.69522883299942,,,,,,,,,,,,,,,,,,,,,,,,,,,,,,right,1.0,0.7472457910007506,,,,,sub-210,1,random_dot,,
left,left,16.0,0.0,8.0,left,1.0,0.7009145419979177,,speed,space,1.0882429580015014,,,,,,0.0,0.0,0.0,1.0,8.0,0.0,16.0,0.0,89.70220429099936,,,,,,,,,89.6957132910029,89.79230908300087,90.58649116600282,90.57620987500196,90.57672041600016,90.58649116600282,90.58649116600282,90.58649116600282,91.28927970800214,,,,,,,,,,,,,,,,,,,,,,,,,,,,,,left,1.0,0.7009145419979177,,,,,sub-210,1,random_dot,,
right,right,17.0,1.0,8.0,right,1.0,0.6084160419995897,,speed,space,1.0882429580015014,,,,,,0.0,0.0,0.0,1.0,8.0,1.0,17.0,1.0,91.29622645800193,,,,,,,,,91.28979916600292,91.38693120800237,92.17875754100169,92.17065220800214,92.1712585000023,92.17875754100169,92.17875754100169,92.17875754100169,92.79422162500124,,,,,,,,,,,,,,,,,,,,,,,,,,,,,,right,1.0,0.6084160419995897,,,,,sub-210,1,random_dot,,
left,left,18.0,0.0,9.0,right,0.0,0.644372458998987,,speed,space,1.0882429580015014,,,,,,0.0,0.0,0.0,1.0,9.0,0.0,18.0,0.0,92.80198825000116,,,,,,,,,92.79464791600184,93.99309220800204,94.7946441660024,94.78714679100084,94.78771308300202,94.7946441660024,94.7946441660024,94.7946441660024,95.44126087500264,,,,,,,,,,,,,,,,,,,,,,,,,,,,,,right,0.0,0.644372458998987,,,,,sub-210,1,random_dot,,
right,right,19.0,1.0,9.0,right,1.0,0.90761270800067,,speed,space,1.0882429580015014,,,,,,0.0,0.0,0.0,1.0,9.0,1.0,19.0,1.0,95.453556708002,,,,,,,,,95.44161237500155,96.6369414159999,97.42910429100084,97.42067829100051,97.42146137500094,97.42910429100084,97.42910429100084,97.42910429100084,98.33840212500218,,,,,,,,,,,,,,,,,,,,,,,,,,,,,,right,1.0,0.90761270800067,,,,,sub-210,1,random_dot,,
right,right,20.0,0.0,10.0,right,1.0,0.9248223329996108,,speed,space,1.0882429580015014,,,,,,0.0,0.0,0.0,1.0,10.0,0.0,20.0,1.0,98.34548491600071,,,,,,,,,98.3389427910006,99.13695999999982,99.9283623750016,99.92047637500218,99.9210864580018,99.9283623750016,99.9283623750016,99.9283623750016,100.85499450000134,,,,,,,,,,,,,,,,,,,,,,,,,,,,,,right,1.0,0.9248223329996108,,,,,sub-210,1,random_dot,,
left,left,21.0,1.0,10.0,right,0.0,0.6720023749985558,,speed,space,1.0882429580015014,,,,,,0.0,0.0,0.0,1.0,10.0,1.0,21.0,0.0,100.86239070800002,,,,,,,,,100.85560149999948,100.95356837500005,101.7449357910009,101.737086000001,101.7376879580006,101.7449357910009,101.7449357910009,101.7449357910009,102.42147875000228,,,,,,,,,,,,,,,,,,,,,,,,,,,,,,right,0.0,0.6720023749985558,,,,,sub-210,1,random_dot,,
right,right,22.0,0.0,11.0,left,0.0,0.3306116249987099,,speed,space,1.0882429580015014,,,,,,0.0,0.0,0.0,1.0,11.0,0.0,22.0,1.0,102.42849537499932,,,,,,,,,102.42195237499982,103.62021116600226,104.41183545800232,104.40376179099984,104.40451845800273,104.41183545800232,104.41183545800232,104.41183545800232,104.75428583300165,,,,,,,,,,,,,,,,,,,,,,,,,,,,,,left,0.0,0.3306116249987099,,,,,sub-210,1,random_dot,,
left,left,23.0,1.0,11.0,right,0.0,0.350718333000259,,speed,space,1.0882429580015014,,,,,,0.0,0.0,0.0,1.0,11.0,1.0,23.0,0.0,104.76062954100053,,,,,,,,,104.75463087500248,105.94331299999976,106.7367212909994,106.7258609160017,106.72632920800244,106.7367212909994,106.7367212909994,106.7367212909994,107.09412966600212,,,,,,,,,,,,,,,,,,,,,,,,,,,,,,right,0.0,0.350718333000259,,,,,sub-210,1,random_dot,,
left,left,24.0,0.0,12.0,left,1.0,0.7935265840023931,,speed,space,1.0882429580015014,,,,,,0.0,0.0,0.0,1.0,12.0,0.0,24.0,0.0,107.10182545800126,,,,,,,,,107.09448633300052,108.2926264580019,109.08670408300168,109.07564795800135,109.07611441600238,109.08670408300168,109.08670408300168,109.08670408300168,109.88770533299976,,,,,,,,,,,,,,,,,,,,,,,,,,,,,,left,1.0,0.7935265840023931,,,,,sub-210,1,random_dot,,
right,right,25.0,1.0,12.0,left,0.0,0.4394572909986891,,speed,space,1.0882429580015014,,,,,,0.0,0.0,0.0,1.0,12.0,1.0,25.0,1.0,109.8940650830009,,,,,,,,,109.88805225000031,110.22660704100052,111.02003641600096,111.00914758300132,111.00962908300062,111.02003641600096,111.02003641600096,111.02003641600096,111.47130933300286,,,,,,,,,,,,,,,,,,,,,,,,,,,,,,left,0.0,0.4394572909986891,,,,,sub-210,1,random_dot,,
right,right,26.0,0.0,13.0,right,1.0,0.5320385419981903,,speed,space,1.0882429580015014,,,,,,0.0,0.0,0.0,1.0,13.0,0.0,26.0,1.0,111.47808400000211,,,,,,,,,111.47175966600116,112.6701253329993,113.46126662499957,113.45369245800248,113.45425241600242,113.46126662499957,113.46126662499957,113.46126662499957,113.99535445800213,,,,,,,,,,,,,,,,,,,,,,,,,,,,,,right,1.0,0.5320385419981903,,,,,sub-210,1,random_dot,,
left,left,27.0,1.0,13.0,right,0.0,0.7290031250013271,,speed,space,1.0882429580015014,,,,,,0.0,0.0,0.0,1.0,13.0,1.0,27.0,0.0,114.00197416599984,,,,,,,,,113.99586579100288,114.3432595000013,115.1447055000026,115.1369596250006,115.13754329100266,115.1447055000026,115.1447055000026,115.1447055000026,115.87782062500264,,,,,,,,,,,,,,,,,,,,,,,,,,,,,,right,0.0,0.7290031250013271,,,,,sub-210,1,random_dot,,
right,right,28.0,0.0,14.0,left,0.0,1.044828124999185,,speed,space,1.0882429580015014,,,,,,0.0,0.0,0.0,1.0,14.0,0.0,28.0,1.0,115.8851601250026,,,,,,,,,115.878176000002,116.67580616600026,117.4700451250028,117.4589130830027,117.45943912499934,117.4700451250028,117.4700451250028,117.4700451250028,118.52131145800011,,,,,,,,,,,,,,,,,,,,,,,,,,,,,,left,0.0,1.044828124999185,,,,,sub-210,1,random_dot,,
left,left,29.0,1.0,14.0,right,0.0,0.3168514589997357,,speed,space,1.0882429580015014,,,,,,0.0,0.0,0.0,1.0,14.0,1.0,29.0,0.0,118.52825508300155,,,,,,,,,118.5218029580028,118.62031395799931,119.41199229099948,119.40390504100289,119.40448358300272,119.41199229099948,119.41199229099948,119.41199229099948,119.73803045800014,,,,,,,,,,,,,,,,,,,,,,,,,,,,,,right,0.0,0.3168514589997357,,,,,sub-210,1,random_dot,,
left,left,30.0,0.0,15.0,left,1.0,0.3810553750008694,,speed,space,1.0882429580015014,,,,,,0.0,0.0,0.0,1.0,15.0,0.0,30.0,0.0,119.74550729100156,,,,,,,,,119.73853750000126,119.83664266599952,120.6286109160028,120.62019754100038,120.6208117080023,120.6286109160028,120.6286109160028,120.6286109160028,121.01108625000052,,,,,,,,,,,,,,,,,,,,,,,,,,,,,,left,1.0,0.3810553750008694,,,,,sub-210,1,random_dot,,
right,right,31.0,1.0,15.0,right,1.0,0.3163494590007758,,speed,space,1.0882429580015014,,,,,,0.0,0.0,0.0,1.0,15.0,1.0,31.0,1.0,121.0184491660002,,,,,,,,,121.01143562500148,122.20804954100096,123.0034020000021,122.99244508300036,122.99291825000182,123.0034020000021,123.0034020000021,123.0034020000021,123.32148629100266,,,,,,,,,,,,,,,,,,,,,,,,,,,,,,right,1.0,0.3163494590007758,,,,,sub-210,1,random_dot,,
right,right,32.0,0.0,16.0,left,0.0,0.375986291001027,,speed,space,1.0882429580015014,,,,,,0.0,0.0,0.0,1.0,16.0,0.0,32.0,1.0,123.32849845800229,,,,,,,,,123.32198216600229,123.67007725000076,124.46132062499964,124.45375129100285,124.45435766599984,124.46132062499964,124.46132062499964,124.46132062499964,124.84446954099984,,,,,,,,,,,,,,,,,,,,,,,,,,,,,,left,0.0,0.375986291001027,,,,,sub-210,1,random_dot,,
left,left,33.0,1.0,16.0,right,0.0,0.3615112080005929,,speed,space,1.0882429580015014,,,,,,0.0,0.0,0.0,1.0,16.0,1.0,33.0,0.0,124.85175462500048,,,,,,,,,124.84483029100012,124.94147416600026,125.7366970410003,125.72556237500248,125.72604833300284,125.7366970410003,125.7366970410003,125.7366970410003,126.1048410830008,,,,,,,,,,,,,,,,,,,,,,,,,,,,,,right,0.0,0.3615112080005929,,,,,sub-210,1,random_dot,,
right,right,34.0,0.0,17.0,left,0.0,0.325080667000293,,speed,space,1.0882429580015014,,,,,,0.0,0.0,0.0,1.0,17.0,0.0,34.0,1.0,126.11187841600258,,,,,,,,,126.1053451250009,126.45323966599972,127.24502866600233,127.23694216600052,127.23755783300294,127.24502866600233,127.24502866600233,127.24502866600233,127.5719285410014,,,,,,,,,,,,,,,,,,,,,,,,,,,,,,left,0.0,0.325080667000293,,,,,sub-210,1,random_dot,,
left,left,35.0,1.0,17.0,right,0.0,0.2935736250001355,,speed,space,1.0882429580015014,,,,,,0.0,0.0,0.0,1.0,17.0,1.0,35.0,0.0,127.57821662500282,,,,,,,,,127.57232970800032,127.67003133300022,128.46110758299983,128.45343225000033,128.45392741600153,128.46110758299983,128.46110758299983,128.46110758299983,128.76113633299974,,,,,,,,,,,,,,,,,,,,,,,,,,,,,,right,0.0,0.2935736250001355,,,,,sub-210,1,random_dot,,
left,left,36.0,0.0,18.0,left,1.0,0.399651083000208,,speed,space,1.0882429580015014,,,,,,0.0,0.0,0.0,1.0,18.0,0.0,36.0,0.0,128.76835058300276,,,,,,,,,128.7614818330003,128.8586976660008,129.65316004100168,129.64209529100117,129.64257816600002,129.65316004100168,129.65316004100168,129.65316004100168,130.05437670800166,,,,,,,,,,,,,,,,,,,,,,,,,,,,,,left,1.0,0.399651083000208,,,,,sub-210,1,random_dot,,
right,right,37.0,1.0,18.0,right,1.0,0.3089802920003421,,speed,space,1.0882429580015014,,,,,,0.0,0.0,0.0,1.0,18.0,1.0,37.0,1.0,130.06109420800203,,,,,,,,,130.05480499999976,131.2533407080009,132.0448054160006,132.03683433300102,132.03745083300237,132.0448054160006,132.0448054160006,132.0448054160006,132.3631044160029,,,,,,,,,,,,,,,,,,,,,,,,,,,,,,right,1.0,0.3089802920003421,,,,,sub-210,1,random_dot,,
right,right,38.0,0.0,19.0,left,0.0,0.3585278339996876,,speed,space,1.0882429580015014,,,,,,0.0,0.0,0.0,1.0,19.0,0.0,38.0,1.0,132.36835483300092,,,,,,,,,132.36345529100072,132.4590977500011,133.2522839580015,133.24206725000113,133.2426958750002,133.2522839580015,133.2522839580015,133.2522839580015,133.62080445800166,,,,,,,,,,,,,,,,,,,,,,,,,,,,,,left,0.0,0.3585278339996876,,,,,sub-210,1,random_dot,,
left,left,39.0,1.0,19.0,right,0.0,0.3407377499970607,,speed,space,1.0882429580015014,,,,,,0.0,0.0,0.0,1.0,19.0,1.0,39.0,0.0,133.62776041600227,,,,,,,,,133.62125858299987,133.70878512499985,134.5023142909995,134.49259516600068,134.49308837500212,134.5023142909995,134.5023142909995,134.5023142909995,134.85481124999933,,,,,,,,,,,,,,,,,,,,,,,,,,,,,,right,0.0,0.3407377499970607,,,,,sub-210,1,random_dot,,
left,left,40.0,0.0,20.0,left,1.0,0.3756000419998599,,speed,space,1.0882429580015014,,,,,,0.0,0.0,0.0,1.0,20.0,0.0,40.0,0.0,134.86200533300143,,,,,,,,,134.85533495799973,134.9531891250008,135.7444904160002,135.7369019580001,135.73736774999998,135.7444904160002,135.7444904160002,135.7444904160002,136.1220577080021,,,,,,,,,,,,,,,,,,,,,,,,,,,,,,left,1.0,0.3756000419998599,,,,,sub-210,1,random_dot,,
right,right,41.0,1.0,20.0,right,1.0,0.3434200409974437,,speed,space,1.0882429580015014,,,,,,0.0,0.0,0.0,1.0,20.0,1.0,41.0,1.0,136.12892154099973,,,,,,,,,136.1225759580011,136.47004679100064,137.2614719580015,137.25365687500016,137.25414445800195,137.2614719580015,137.2614719580015,137.2614719580015,137.61210562500128,,,,,,,,,,,,,,,,,,,,,,,,,,,,,,right,1.0,0.3434200409974437,,,,,sub-210,1,random_dot,,
left,left,42.0,0.0,21.0,left,1.0,0.6148202080003102,,speed,space,1.0882429580015014,,,,,,0.0,0.0,0.0,1.0,21.0,0.0,42.0,0.0,137.61861829100235,,,,,,,,,137.61254079100036,137.9579922080011,138.75193220800065,138.74236162500165,138.7430060000006,138.75193220800065,138.75193220800065,138.75193220800065,139.37112216600144,,,,,,,,,,,,,,,,,,,,,,,,,,,,,,left,1.0,0.6148202080003102,,,,,sub-210,1,random_dot,,
right,right,43.0,1.0,21.0,right,1.0,0.7968133329995908,,speed,space,1.0882429580015014,,,,,,0.0,0.0,0.0,1.0,21.0,1.0,43.0,1.0,139.37892187500256,,,,,,,,,139.37168291600028,139.72007958299946,140.51124129100208,140.50344595800198,140.5040380410028,140.51124129100208,140.51124129100208,140.51124129100208,141.3109798330006,,,,,,,,,,,,,,,,,,,,,,,,,,,,,,right,1.0,0.7968133329995908,,,,,sub-210,1,random_dot,,
right,right,44.0,0.0,22.0,left,0.0,0.3838332919985987,,speed,space,1.0882429580015014,,,,,,0.0,0.0,0.0,1.0,22.0,0.0,44.0,1.0,141.318394291,,,,,,,,,141.31143625000186,141.4091410000001,142.2030700409996,142.1920112910011,142.19249395800216,142.2030700409996,142.2030700409996,142.2030700409996,142.5886919580007,,,,,,,,,,,,,,,,,,,,,,,,,,,,,,left,0.0,0.3838332919985987,,,,,sub-210,1,random_dot,,
left,left,45.0,1.0,22.0,left,1.0,0.3747960830005468,,speed,space,1.0882429580015014,,,,,,0.0,0.0,0.0,1.0,22.0,1.0,45.0,0.0,142.5954182500027,,,,,,,,,142.58929141599947,142.93672958300158,143.72799062500053,143.7201694159994,143.72076462500263,143.72799062500053,143.72799062500053,143.72799062500053,144.104584875,,,,,,,,,,,,,,,,,,,,,,,,,,,,,,left,1.0,0.3747960830005468,,,,,sub-210,1,random_dot,,
right,right,46.0,0.0,23.0,right,1.0,0.4678780419999384,,speed,space,1.0882429580015014,,,,,,0.0,0.0,0.0,1.0,23.0,0.0,46.0,1.0,144.11188141599996,,,,,,,,,144.105175875,144.4533424580004,145.2453462500016,145.2368080410015,145.2374055830005,145.2453462500016,145.2453462500016,145.2453462500016,145.72089429100015,,,,,,,,,,,,,,,,,,,,,,,,,,,,,,right,1.0,0.4678780419999384,,,,,sub-210,1,random_dot,,
left,left,47.0,1.0,23.0,right,0.0,0.5775533330015605,,speed,space,1.0882429580015014,,,,,,0.0,0.0,0.0,1.0,23.0,1.0,47.0,0.0,145.72829249999995,,,,,,,,,145.72138379100215,146.05954333300178,146.8612619580017,146.85342237499935,146.85399562500243,146.8612619580017,146.8612619580017,146.8612619580017,147.44384866600012,,,,,,,,,,,,,,,,,,,,,,,,,,,,,,right,0.0,0.5775533330015605,,,,,sub-210,1,random_dot,,
right,right,48.0,0.0,24.0,left,0.0,0.4414330420004262,,speed,space,1.0882429580015014,,,,,,0.0,0.0,0.0,1.0,24.0,0.0,48.0,1.0,147.45157262500288,,,,,,,,,147.44430641600047,147.79259408300277,148.5864381249994,148.57536175000132,148.57584237500123,148.5864381249994,148.5864381249994,148.5864381249994,149.03793962500276,,,,,,,,,,,,,,,,,,,,,,,,,,,,,,left,0.0,0.4414330420004262,,,,,sub-210,1,random_dot,,
left,left,49.0,1.0,24.0,right,0.0,0.2853949579985055,,speed,space,1.0882429580015014,,,,,,0.0,0.0,0.0,1.0,24.0,1.0,49.0,0.0,149.04457775000265,,,,,,,,,149.03845662499953,149.83668875000149,150.62860587500109,150.62019425000108,150.62103458300044,150.62860587500109,150.62860587500109,150.62860587500109,150.9210997500013,,,,,,,,,,,,,,,,,,,,,,,,,,,,,,right,0.0,0.2853949579985055,,,,,sub-210,1,random_dot,,
right,right,50.0,0.0,25.0,left,0.0,0.6757083749980666,,speed,space,1.0882429580015014,,,,,,0.0,0.0,0.0,1.0,25.0,0.0,50.0,1.0,150.92806725000264,,,,,,,,,150.92161416599993,151.01974108300055,151.81106374999945,151.8034404579994,151.80400291600017,151.81106374999945,151.81106374999945,151.81106374999945,152.4884869580019,,,,,,,,,,,,,,,,,,,,,,,,,,,,,,left,0.0,0.6757083749980666,,,,,sub-210,1,random_dot,,
left,left,51.0,1.0,25.0,right,0.0,0.3003862080004182,,speed,space,1.0882429580015014,,,,,,0.0,0.0,0.0,1.0,25.0,1.0,51.0,0.0,152.49551745800272,,,,,,,,,152.48902416599958,152.8365343750011,153.6277814160021,153.62001720800254,153.62061608300064,153.6277814160021,153.6277814160021,153.6277814160021,153.93786091600123,,,,,,,,,,,,,,,,,,,,,,,,,,,,,,right,0.0,0.3003862080004182,,,,,sub-210,1,random_dot,,
left,left,52.0,0.0,26.0,left,1.0,0.2923804160018335,,speed,space,1.0882429580015014,,,,,,0.0,0.0,0.0,1.0,26.0,0.0,52.0,0.0,153.9449226659999,,,,,,,,,153.9383818330025,155.13643166600014,155.92747083300128,155.91990191600053,155.92053320800187,155.92747083300128,155.92747083300128,155.92747083300128,156.22444416600047,,,,,,,,,,,,,,,,,,,,,,,,,,,,,,left,1.0,0.2923804160018335,,,,,sub-210,1,random_dot,,
right,right,53.0,1.0,26.0,right,1.0,0.3442668749994482,,speed,space,1.0882429580015014,,,,,,0.0,0.0,0.0,1.0,26.0,1.0,53.0,1.0,156.23639604100026,,,,,,,,,156.2247935000014,156.32516795800257,157.119767958,157.10864800000127,157.1091221250026,157.119767958,157.119767958,157.119767958,157.47028695799963,,,,,,,,,,,,,,,,,,,,,,,,,,,,,,right,1.0,0.3442668749994482,,,,,sub-210,1,random_dot,,
right,right,54.0,0.0,27.0,left,0.0,0.3435138749991893,,speed,space,1.0882429580015014,,,,,,0.0,0.0,0.0,1.0,27.0,0.0,54.0,1.0,157.47667429099965,,,,,,,,,157.47073195800112,157.80937212500066,158.60299029100133,158.59192583299955,158.59238887500032,158.60299029100133,158.60299029100133,158.60299029100133,158.95414662500116,,,,,,,,,,,,,,,,,,,,,,,,,,,,,,left,0.0,0.3435138749991893,,,,,sub-210,1,random_dot,,
left,left,55.0,1.0,27.0,right,0.0,0.3081115419990965,,speed,space,1.0882429580015014,,,,,,0.0,0.0,0.0,1.0,27.0,1.0,55.0,0.0,158.96112395800083,,,,,,,,,158.95461533300113,159.30296412499956,160.0945044580003,160.08668095800022,160.08723754099992,160.0945044580003,160.0945044580003,160.0945044580003,160.40453975000128,,,,,,,,,,,,,,,,,,,,,,,,,,,,,,right,0.0,0.3081115419990965,,,,,sub-210,1,random_dot,,
left,left,56.0,0.0,28.0,left,1.0,0.2929545840015635,,speed,space,1.0882429580015014,,,,,,0.0,0.0,0.0,1.0,28.0,0.0,56.0,0.0,160.41098899999997,,,,,,,,,160.40505366599973,161.60308595800234,162.3936711660026,162.38652650000222,162.3870222910009,162.3936711660026,162.3936711660026,162.3936711660026,162.6883350829994,,,,,,,,,,,,,,,,,,,,,,,,,,,,,,left,1.0,0.2929545840015635,,,,,sub-210,1,random_dot,,
right,right,57.0,1.0,28.0,right,1.0,0.3419089160015574,,speed,space,1.0882429580015014,,,,,,0.0,0.0,0.0,1.0,28.0,1.0,57.0,1.0,162.69554191600037,,,,,,,,,162.688862125,162.78636987500067,163.57797725000273,163.57047808300194,163.57095400000253,163.57797725000273,163.57797725000273,163.57797725000273,163.92163945799985,,,,,,,,,,,,,,,,,,,,,,,,,,,,,,right,1.0,0.3419089160015574,,,,,sub-210,1,random_dot,,
left,left,58.0,0.0,29.0,left,1.0,0.3090838749994873,,speed,space,1.0882429580015014,,,,,,0.0,0.0,0.0,1.0,29.0,0.0,58.0,0.0,163.92894516600063,,,,,,,,,163.922187958,164.71994666600222,165.51122525000028,165.5032942910002,165.5041164159993,165.51122525000028,165.51122525000028,165.51122525000028,165.8271371660012,,,,,,,,,,,,,,,,,,,,,,,,,,,,,,left,1.0,0.3090838749994873,,,,,sub-210,1,random_dot,,
right,right,59.0,1.0,29.0,right,1.0,0.3145637919988076,,speed,space,1.0882429580015014,,,,,,0.0,0.0,0.0,1.0,29.0,1.0,59.0,1.0,165.83469445800074,,,,,,,,,165.82751041600204,165.92436612500023,166.71966962499937,166.70828950000214,166.70876150000186,166.71966962499937,166.71966962499937,166.71966962499937,167.03703891600162,,,,,,,,,,,,,,,,,,,,,,,,,,,,,,right,1.0,0.3145637919988076,,,,,sub-210,1,random_dot,,
,,0.0,0.0,0.0,,,,,speed,space,1.0882429580015014,,,,,,0.0,0.0,0.0,1.0,,,,,,,,,,,,,,,,,,,,,,,,,,,,,,,,,,,,,,,,,,,,,,,,,,,,,,,,,,,sub-210,1,random_dot,,
left,left,0.0,0.0,0.0,right,0.0,0.5790058749989839,,accuracy,space,1.8867194170015864,,,,,,0.0,1.0,1.0,0.0,0.0,0.0,0.0,0.0,169.041938958002,,,,,,,,,169.03353699999934,169.81972250000035,170.61116804099947,170.6031987910028,170.6038226660021,170.61116804099947,170.61116804099947,170.61116804099947,171.1931345830017,,,,,,,,,,,,,,,,,,,,,,,167.12864370800162,167.13296366600116,167.13296366600116,169.02172633300142,space,1.8867194170015864,,right,0.0,0.5790058749989839,,,,,sub-210,1,random_dot,,
right,right,1.0,1.0,0.0,right,1.0,0.5207002919996739,,accuracy,space,1.8867194170015864,,,,,,0.0,1.0,1.0,0.0,0.0,1.0,1.0,1.0,171.20147758299936,,,,,,,,,171.19348820800224,171.54256283300128,172.3360792500025,172.3254197910028,172.32591825000054,172.3360792500025,172.3360792500025,172.3360792500025,172.85949329100183,,,,,,,,,,,,,,,,,,,,,,,,,,,,,,right,1.0,0.5207002919996739,,,,,sub-210,1,random_dot,,
left,left,2.0,0.0,1.0,left,1.0,1.4944776250013092,,accuracy,space,1.8867194170015864,,,,,,0.0,1.0,1.0,0.0,1.0,0.0,2.0,0.0,172.8687851249997,,,,,,,,,172.85983591600234,174.0584060830006,174.8530009160022,174.8418849160007,174.8423706249996,174.8530009160022,174.8530009160022,174.8530009160022,176.3537333330023,,,,,,,,,,,,,,,,,,,,,,,,,,,,,,left,1.0,1.4944776250013092,,,,,sub-210,1,random_dot,,
right,right,3.0,1.0,1.0,left,0.0,0.5265993749999325,,accuracy,space,1.8867194170015864,,,,,,0.0,1.0,1.0,0.0,1.0,1.0,3.0,1.0,176.36022079100076,,,,,,,,,176.35407433300134,177.54250425000282,178.34422462500152,178.3366102910004,178.3371989160005,178.34422462500152,178.34422462500152,178.34422462500152,178.87785562499994,,,,,,,,,,,,,,,,,,,,,,,,,,,,,,left,0.0,0.5265993749999325,,,,,sub-210,1,random_dot,,
left,left,4.0,0.0,2.0,left,1.0,0.6088899999995192,,accuracy,space,1.8867194170015864,,,,,,0.0,1.0,1.0,0.0,2.0,0.0,4.0,0.0,178.88486187500166,,,,,,,,,178.8783156660029,178.97521733300164,179.76818283300236,179.75934754099944,179.759873291001,179.76818283300236,179.76818283300236,179.76818283300236,180.38778758300032,,,,,,,,,,,,,,,,,,,,,,,,,,,,,,left,1.0,0.6088899999995192,,,,,sub-210,1,random_dot,,
right,right,5.0,1.0,2.0,left,0.0,0.5806441250024363,,accuracy,space,1.8867194170015864,,,,,,0.0,1.0,1.0,0.0,2.0,1.0,5.0,1.0,180.39508162499988,,,,,,,,,180.38827866599968,181.5863488750001,182.37771358300236,182.3698633330023,182.3704357910028,182.37771358300236,182.37771358300236,182.37771358300236,182.9599342500005,,,,,,,,,,,,,,,,,,,,,,,,,,,,,,left,0.0,0.5806441250024363,,,,,sub-210,1,random_dot,,
left,left,6.0,0.0,3.0,left,1.0,1.2051999169998453,,accuracy,space,1.8867194170015864,,,,,,0.0,1.0,1.0,0.0,3.0,0.0,6.0,0.0,182.9679595000016,,,,,,,,,182.96038429100008,183.05767795800057,183.8527967500013,183.8416538750025,183.84212729100184,183.8527967500013,183.8527967500013,183.8527967500013,185.0602765830008,,,,,,,,,,,,,,,,,,,,,,,,,,,,,,left,1.0,1.2051999169998453,,,,,sub-210,1,random_dot,,
right,right,7.0,1.0,3.0,left,0.0,1.0999640000009094,,accuracy,space,1.8867194170015864,,,,,,0.0,1.0,1.0,0.0,3.0,1.0,7.0,1.0,185.06788966600288,,,,,,,,,185.0606417500021,185.15833991600084,185.95286237500116,185.94184145799957,185.94232812500195,185.95286237500116,185.95286237500116,185.95286237500116,187.0540930829993,,,,,,,,,,,,,,,,,,,,,,,,,,,,,,left,0.0,1.0999640000009094,,,,,sub-210,1,random_dot,,
left,left,8.0,0.0,4.0,left,1.0,1.314646625000023,,accuracy,space,1.8867194170015864,,,,,,0.0,1.0,1.0,0.0,4.0,0.0,8.0,0.0,187.0607087909993,,,,,,,,,187.05444316600187,187.40289620800104,188.19423354100215,188.18645237500093,188.18719933300235,188.19423354100215,188.19423354100215,188.19423354100215,189.5203943330016,,,,,,,,,,,,,,,,,,,,,,,,,,,,,,left,1.0,1.314646625000023,,,,,sub-210,1,random_dot,,
right,right,9.0,1.0,4.0,right,1.0,0.9717012080000133,,accuracy,space,1.8867194170015864,,,,,,0.0,1.0,1.0,0.0,4.0,1.0,9.0,1.0,189.52746750000009,,,,,,,,,189.5207721250008,190.30811070799973,191.10300262500093,191.09165112499977,191.09212654099971,191.10300262500093,191.10300262500093,191.10300262500093,192.07729458299943,,,,,,,,,,,,,,,,,,,,,,,,,,,,,,right,1.0,0.9717012080000133,,,,,sub-210,1,random_dot,,
right,right,10.0,0.0,5.0,right,1.0,2.7709331659971213,,accuracy,space,1.8867194170015864,,,,,,0.0,1.0,1.0,0.0,5.0,0.0,10.0,1.0,192.08477562500047,,,,,,,,,192.0777069579999,192.4260613330007,193.21860804100288,193.20863012500195,193.2091813750012,193.21860804100288,193.21860804100288,193.21860804100288,195.99265750000268,,,,,,,,,,,,,,,,,,,,,,,,,,,,,,right,1.0,2.7709331659971213,,,,,sub-210,1,random_dot,,
left,left,11.0,1.0,5.0,right,0.0,1.0304251669986115,,accuracy,space,1.8867194170015864,,,,,,0.0,1.0,1.0,0.0,5.0,1.0,11.0,0.0,196.0012088330004,,,,,,,,,195.99311804100216,196.79259029100285,197.59422212500067,197.5864999580008,197.5870741660001,197.59422212500067,197.59422212500067,197.59422212500067,198.62768125,,,,,,,,,,,,,,,,,,,,,,,,,,,,,,right,0.0,1.0304251669986115,,,,,sub-210,1,random_dot,,
left,left,12.0,0.0,6.0,left,1.0,1.000025542001822,,accuracy,space,1.8867194170015864,,,,,,0.0,1.0,1.0,0.0,6.0,0.0,12.0,0.0,198.634471333,,,,,,,,,198.62812900000063,199.82506254100008,200.6259628330008,200.6194825830025,200.6198722500012,200.6259628330008,200.6259628330008,200.6259628330008,201.62757200000124,,,,,,,,,,,,,,,,,,,,,,,,,,,,,,left,1.0,1.000025542001822,,,,,sub-210,1,random_dot,,
right,right,13.0,1.0,6.0,right,1.0,0.9351837089998298,,accuracy,space,1.8867194170015864,,,,,,0.0,1.0,1.0,0.0,6.0,1.0,13.0,1.0,201.63428408300024,,,,,,,,,201.6280423749995,201.7243090830016,202.51851754100065,202.50838041600215,202.50886670800173,202.51851754100065,202.51851754100065,202.51851754100065,203.4608251660029,,,,,,,,,,,,,,,,,,,,,,,,,,,,,,right,1.0,0.9351837089998298,,,,,sub-210,1,random_dot,,
left,left,14.0,0.0,7.0,left,1.0,1.026672125000914,,accuracy,space,1.8867194170015864,,,,,,0.0,1.0,1.0,0.0,7.0,0.0,14.0,0.0,203.46771229099977,,,,,,,,,203.4612744160004,204.657893333002,205.4511524160007,205.4418937080009,205.44253241600015,205.4511524160007,205.4511524160007,205.4511524160007,206.48703725000087,,,,,,,,,,,,,,,,,,,,,,,,,,,,,,left,1.0,1.026672125000914,,,,,sub-210,1,random_dot,,
right,right,15.0,1.0,7.0,right,1.0,0.9291224160006096,,accuracy,space,1.8867194170015864,,,,,,0.0,1.0,1.0,0.0,7.0,1.0,15.0,1.0,206.4938938330015,,,,,,,,,206.48739820800256,207.2860479580013,208.077302083002,208.06972325000245,208.0703295000021,208.077302083002,208.077302083002,208.077302083002,209.01018704099988,,,,,,,,,,,,,,,,,,,,,,,,,,,,,,right,1.0,0.9291224160006096,,,,,sub-210,1,random_dot,,
left,left,16.0,0.0,8.0,left,1.0,0.5528667919970758,,accuracy,space,1.8867194170015864,,,,,,0.0,1.0,1.0,0.0,8.0,0.0,16.0,0.0,209.018189208,,,,,,,,,209.01064620800025,209.80896420800127,210.6026606250016,210.5915175410009,210.5920057910007,210.6026606250016,210.6026606250016,210.6026606250016,211.16084004100048,,,,,,,,,,,,,,,,,,,,,,,,,,,,,,left,1.0,0.5528667919970758,,,,,sub-210,1,random_dot,,
right,right,17.0,1.0,8.0,right,1.0,0.8842042090000177,,accuracy,space,1.8867194170015864,,,,,,0.0,1.0,1.0,0.0,8.0,1.0,17.0,1.0,211.1674387910025,,,,,,,,,211.16118658300184,212.3592590410008,213.1515737500013,213.14208662500096,213.14256704100265,213.1515737500013,213.1515737500013,213.1515737500013,214.0373784160001,,,,,,,,,,,,,,,,,,,,,,,,,,,,,,right,1.0,0.8842042090000177,,,,,sub-210,1,random_dot,,
left,left,18.0,0.0,9.0,left,1.0,0.5098612499969022,,accuracy,space,1.8867194170015864,,,,,,0.0,1.0,1.0,0.0,9.0,0.0,18.0,0.0,214.0444583330027,,,,,,,,,214.0378633750006,214.8361137909997,215.6273777080023,215.61953270800225,215.62011495800107,215.6273777080023,215.6273777080023,215.6273777080023,216.1426442910015,,,,,,,,,,,,,,,,,,,,,,,,,,,,,,left,1.0,0.5098612499969022,,,,,sub-210,1,random_dot,,
right,right,19.0,1.0,9.0,right,1.0,0.6726120420025836,,accuracy,space,1.8867194170015864,,,,,,0.0,1.0,1.0,0.0,9.0,1.0,19.0,1.0,216.1515220410001,,,,,,,,,216.14307620800173,217.341606541002,218.1355120410008,218.12480083300036,218.125365791002,218.1355120410008,218.1355120410008,218.1355120410008,218.80948491600063,,,,,,,,,,,,,,,,,,,,,,,,,,,,,,right,1.0,0.6726120420025836,,,,,sub-210,1,random_dot,,
right,right,20.0,0.0,10.0,left,0.0,1.0561487499981013,,accuracy,space,1.8867194170015864,,,,,,0.0,1.0,1.0,0.0,10.0,0.0,20.0,1.0,218.8177080000023,,,,,,,,,218.8098363749996,219.15906016600275,219.9520416250016,219.9416190410011,219.94210629100053,219.9520416250016,219.9520416250016,219.9520416250016,221.02023808300143,,,,,,,,,,,,,,,,,,,,,,,,,,,,,,left,0.0,1.0561487499981013,,,,,sub-210,1,random_dot,,
left,left,21.0,1.0,10.0,right,0.0,0.8169119589983893,,accuracy,space,1.8867194170015864,,,,,,0.0,1.0,1.0,0.0,10.0,1.0,21.0,0.0,221.02680975000112,,,,,,,,,221.0205893750026,221.3588082910028,222.152421666,222.1416136660009,222.14208620800127,222.152421666,222.152421666,222.152421666,222.97109908300263,,,,,,,,,,,,,,,,,,,,,,,,,,,,,,right,0.0,0.8169119589983893,,,,,sub-210,1,random_dot,,
left,left,22.0,0.0,11.0,left,1.0,0.9582540839983268,,accuracy,space,1.8867194170015864,,,,,,0.0,1.0,1.0,0.0,11.0,0.0,22.0,0.0,222.978924416002,,,,,,,,,222.97166654100147,223.0695840000008,223.86055158300223,223.8529668750016,223.8535325410012,223.86055158300223,223.86055158300223,223.86055158300223,224.82063720800213,,,,,,,,,,,,,,,,,,,,,,,,,,,,,,left,1.0,0.9582540839983268,,,,,sub-210,1,random_dot,,
right,right,23.0,1.0,11.0,right,1.0,0.7576931670009799,,accuracy,space,1.8867194170015864,,,,,,0.0,1.0,1.0,0.0,11.0,1.0,23.0,1.0,224.82796220800083,,,,,,,,,224.8211208749999,226.01959262500168,226.81172345800223,226.80309750000012,226.80384675000096,226.81172345800223,226.81172345800223,226.81172345800223,227.57902179099983,,,,,,,,,,,,,,,,,,,,,,,,,,,,,,right,1.0,0.7576931670009799,,,,,sub-210,1,random_dot,,
right,right,24.0,0.0,12.0,left,0.0,0.918373333002819,,accuracy,space,1.8867194170015864,,,,,,0.0,1.0,1.0,0.0,12.0,0.0,24.0,1.0,227.5843199160008,,,,,,,,,227.57937895800205,227.6748650000009,228.4682595000013,228.45809829100108,228.45856170800107,228.4682595000013,228.4682595000013,228.4682595000013,229.39621149999948,,,,,,,,,,,,,,,,,,,,,,,,,,,,,,left,0.0,0.918373333002819,,,,,sub-210,1,random_dot,,
left,left,25.0,1.0,12.0,right,0.0,0.6171307080003317,,accuracy,space,1.8867194170015864,,,,,,0.0,1.0,1.0,0.0,12.0,1.0,25.0,0.0,229.40097983300075,,,,,,,,,229.3965543330014,230.19104612500087,230.98590404100105,230.97490737500263,230.97538575,230.98590404100105,230.98590404100105,230.98590404100105,231.6075639160008,,,,,,,,,,,,,,,,,,,,,,,,,,,,,,right,0.0,0.6171307080003317,,,,,sub-210,1,random_dot,,
right,right,26.0,0.0,13.0,left,0.0,0.8925114579978981,,accuracy,space,1.8867194170015864,,,,,,0.0,1.0,1.0,0.0,13.0,0.0,26.0,1.0,231.61917458300013,,,,,,,,,231.6080163330007,232.40265708300285,233.1937217500017,233.18616104100147,233.18673458299963,233.1937217500017,233.1937217500017,233.1937217500017,234.0931171660013,,,,,,,,,,,,,,,,,,,,,,,,,,,,,,left,0.0,0.8925114579978981,,,,,sub-210,1,random_dot,,
left,left,27.0,1.0,13.0,right,0.0,1.0116493749992514,,accuracy,space,1.8867194170015864,,,,,,0.0,1.0,1.0,0.0,13.0,1.0,27.0,0.0,234.1009206660019,,,,,,,,,234.09345904099973,234.19079812500055,234.9854617500023,234.97502712500136,234.97556616600195,234.9854617500023,234.9854617500023,234.9854617500023,236.00359183299952,,,,,,,,,,,,,,,,,,,,,,,,,,,,,,right,0.0,1.0116493749992514,,,,,sub-210,1,random_dot,,
left,left,28.0,0.0,14.0,left,1.0,0.6011373330002243,,accuracy,space,1.8867194170015864,,,,,,0.0,1.0,1.0,0.0,14.0,0.0,28.0,0.0,236.01080904099945,,,,,,,,,236.00408083300132,237.2025062080029,237.9947984999999,237.9862764160025,237.98700358300263,237.9947984999999,237.9947984999999,237.9947984999999,238.60542845800228,,,,,,,,,,,,,,,,,,,,,,,,,,,,,,left,1.0,0.6011373330002243,,,,,sub-210,1,random_dot,,
right,right,29.0,1.0,14.0,left,0.0,0.6506807920013671,,accuracy,space,1.8867194170015864,,,,,,0.0,1.0,1.0,0.0,14.0,1.0,29.0,1.0,238.6120955410006,,,,,,,,,238.6058627500024,238.95264833300095,239.74398645800105,239.73614566600008,239.73673112500185,239.74398645800105,239.74398645800105,239.74398645800105,240.40406508300293,,,,,,,,,,,,,,,,,,,,,,,,,,,,,,left,0.0,0.6506807920013671,,,,,sub-210,1,random_dot,,
left,left,30.0,0.0,15.0,right,0.0,0.5511111250016256,,accuracy,space,1.8867194170015864,,,,,,0.0,1.0,1.0,0.0,15.0,0.0,30.0,0.0,240.41144008300037,,,,,,,,,240.404569833001,240.75261983300152,241.54459787499945,241.53620895800125,241.53698220800288,241.54459787499945,241.54459787499945,241.54459787499945,242.103500833,,,,,,,,,,,,,,,,,,,,,,,,,,,,,,right,0.0,0.5511111250016256,,,,,sub-210,1,random_dot,,
right,right,31.0,1.0,15.0,left,0.0,0.922629833999963,,accuracy,space,1.8867194170015864,,,,,,0.0,1.0,1.0,0.0,15.0,1.0,31.0,1.0,242.11116700000275,,,,,,,,,242.104033333002,242.2025727910004,242.99363654099943,242.98608608300128,242.9866703330008,242.99363654099943,242.99363654099943,242.99363654099943,243.92058070799976,,,,,,,,,,,,,,,,,,,,,,,,,,,,,,left,0.0,0.922629833999963,,,,,sub-210,1,random_dot,,
right,right,32.0,0.0,16.0,right,1.0,1.0253655000014987,,accuracy,space,1.8867194170015864,,,,,,0.0,1.0,1.0,0.0,16.0,0.0,32.0,1.0,243.92750291600169,,,,,,,,,243.9210579160026,244.26927429100036,245.0606310830008,245.05275012499987,245.05333687500024,245.0606310830008,245.0606310830008,245.0606310830008,246.0878352079999,,,,,,,,,,,,,,,,,,,,,,,,,,,,,,right,1.0,1.0253655000014987,,,,,sub-210,1,random_dot,,
left,left,33.0,1.0,16.0,right,0.0,0.6331470830009494,,accuracy,space,1.8867194170015864,,,,,,0.0,1.0,1.0,0.0,16.0,1.0,33.0,0.0,246.0949945000029,,,,,,,,,246.08840891600263,246.18580295799984,246.9772465000024,246.96940924999944,246.97000433300127,246.9772465000024,246.9772465000024,246.9772465000024,247.6199282080015,,,,,,,,,,,,,,,,,,,,,,,,,,,,,,right,0.0,0.6331470830009494,,,,,sub-210,1,random_dot,,
left,left,34.0,0.0,17.0,left,1.0,0.5912132089979423,,accuracy,space,1.8867194170015864,,,,,,0.0,1.0,1.0,0.0,17.0,0.0,34.0,0.0,247.6263360830017,,,,,,,,,247.6202689160018,248.40791229100068,249.2026336250019,249.19126083300216,249.1917510410021,249.2026336250019,249.2026336250019,249.2026336250019,249.8040263330004,,,,,,,,,,,,,,,,,,,,,,,,,,,,,,left,1.0,0.5912132089979423,,,,,sub-210,1,random_dot,,
right,right,35.0,1.0,17.0,right,1.0,0.6335800410015509,,accuracy,space,1.8867194170015864,,,,,,0.0,1.0,1.0,0.0,17.0,1.0,35.0,1.0,249.81081762500253,,,,,,,,,249.8045191250021,250.1527129160022,250.9441953750029,250.9363002909995,250.93706962500076,250.9441953750029,250.9441953750029,250.9441953750029,251.5870640409994,,,,,,,,,,,,,,,,,,,,,,,,,,,,,,right,1.0,0.6335800410015509,,,,,sub-210,1,random_dot,,
left,left,36.0,0.0,18.0,left,1.0,0.6148102080005629,,accuracy,space,1.8867194170015864,,,,,,0.0,1.0,1.0,0.0,18.0,0.0,36.0,0.0,251.59458675000133,,,,,,,,,251.5875574580023,251.9358140000004,252.7269193329994,252.71931416600276,252.71991495800103,252.7269193329994,252.7269193329994,252.7269193329994,253.34324691599977,,,,,,,,,,,,,,,,,,,,,,,,,,,,,,left,1.0,0.6148102080005629,,,,,sub-210,1,random_dot,,
right,right,37.0,1.0,18.0,left,0.0,0.5042356669982837,,accuracy,space,1.8867194170015864,,,,,,0.0,1.0,1.0,0.0,18.0,1.0,37.0,1.0,253.3508002910021,,,,,,,,,253.34360870800083,254.14223712500095,254.94348595799968,254.93598858300172,254.93656566600112,254.94348595799968,254.94348595799968,254.94348595799968,255.45224208299987,,,,,,,,,,,,,,,,,,,,,,,,,,,,,,left,0.0,0.5042356669982837,,,,,sub-210,1,random_dot,,
right,right,38.0,0.0,19.0,right,1.0,0.6182534170002327,,accuracy,space,1.8867194170015864,,,,,,0.0,1.0,1.0,0.0,19.0,0.0,38.0,1.0,255.45848795799972,,,,,,,,,255.45257608300017,256.64220408300025,257.4346024160004,257.4251879580006,257.42569062500115,257.4346024160004,257.4346024160004,257.4346024160004,258.06333141600044,,,,,,,,,,,,,,,,,,,,,,,,,,,,,,right,1.0,0.6182534170002327,,,,,sub-210,1,random_dot,,
left,left,39.0,1.0,19.0,right,0.0,2.3908028340010787,,accuracy,space,1.8867194170015864,,,,,,0.0,1.0,1.0,0.0,19.0,1.0,39.0,0.0,258.0674874159995,,,,,,,,,258.0636712910018,258.40849812500164,259.20230124999944,259.1911840829998,259.1916592080015,259.20230124999944,259.20230124999944,259.20230124999944,261.6038001250017,,,,,,,,,,,,,,,,,,,,,,,,,,,,,,right,0.0,2.3908028340010787,,,,,sub-210,1,random_dot,,
left,left,40.0,0.0,20.0,left,1.0,0.888381415999902,,accuracy,space,1.8867194170015864,,,,,,0.0,1.0,1.0,0.0,20.0,0.0,40.0,0.0,261.61143954100044,,,,,,,,,261.6042797910013,262.4025303330018,263.1937410410028,263.18596945800164,263.1865805410016,263.1937410410028,263.1937410410028,263.1937410410028,264.0870019160029,,,,,,,,,,,,,,,,,,,,,,,,,,,,,,left,1.0,0.888381415999902,,,,,sub-210,1,random_dot,,
right,right,41.0,1.0,20.0,right,1.0,3.4598554170006537,,accuracy,space,1.8867194170015864,,,,,,0.0,1.0,1.0,0.0,20.0,1.0,41.0,1.0,264.09485920800216,,,,,,,,,264.0874972080019,264.1853135830024,264.9764148329996,264.9692310000028,264.9697042910011,264.9764148329996,264.9764148329996,264.9764148329996,268.44367700000294,,,,,,,,,,,,,,,,,,,,,,,,,,,,,,right,1.0,3.4598554170006537,,,,,sub-210,1,random_dot,,
right,right,42.0,0.0,21.0,left,0.0,0.7557770419989538,,accuracy,space,1.8867194170015864,,,,,,0.0,1.0,1.0,0.0,21.0,0.0,42.0,1.0,268.4507584580024,,,,,,,,,268.44414954100284,269.64179066600263,270.4355907909994,270.42460675000257,270.4251219159996,270.4355907909994,270.4355907909994,270.4355907909994,271.1935947080019,,,,,,,,,,,,,,,,,,,,,,,,,,,,,,left,0.0,0.7557770419989538,,,,,sub-210,1,random_dot,,
left,left,43.0,1.0,21.0,left,1.0,1.7577411250022124,,accuracy,space,1.8867194170015864,,,,,,0.0,1.0,1.0,0.0,21.0,1.0,43.0,0.0,271.20073466599933,,,,,,,,,271.19404754100105,271.5412140410008,272.33406054100124,272.32486629100094,272.32546600000205,272.33406054100124,272.33406054100124,272.33406054100124,274.09326679100195,,,,,,,,,,,,,,,,,,,,,,,,,,,,,,left,1.0,1.7577411250022124,,,,,sub-210,1,random_dot,,
left,left,44.0,0.0,22.0,right,0.0,3.693915374999051,,accuracy,space,1.8867194170015864,,,,,,0.0,1.0,1.0,0.0,22.0,0.0,44.0,0.0,274.10071604100085,,,,,,,,,274.0936140410013,274.19106062500214,274.9855819580007,274.9745278750015,274.97499470800176,274.9855819580007,274.9855819580007,274.9855819580007,278.68637183300234,,,,,,,,,,,,,,,,,,,,,,,,,,,,,,right,0.0,3.693915374999051,,,,,sub-210,1,random_dot,,
right,right,45.0,1.0,22.0,left,0.0,0.7155878339981427,,accuracy,space,1.8867194170015864,,,,,,0.0,1.0,1.0,0.0,22.0,1.0,45.0,1.0,278.6930308330011,,,,,,,,,278.686721500002,279.0252314160025,279.82712954100134,279.8191409579995,279.8197226250013,279.82712954100134,279.82712954100134,279.82712954100134,280.55311475000053,,,,,,,,,,,,,,,,,,,,,,,,,,,,,,left,0.0,0.7155878339981427,,,,,sub-210,1,random_dot,,
right,right,46.0,0.0,23.0,left,0.0,1.5623386660008691,,accuracy,space,1.8867194170015864,,,,,,0.0,1.0,1.0,0.0,23.0,0.0,46.0,1.0,280.5597041660003,,,,,,,,,280.55356216600194,281.7418061660028,282.54326633299934,282.5356907500027,282.536301250002,282.54326633299934,282.54326633299934,282.54326633299934,284.10945066600107,,,,,,,,,,,,,,,,,,,,,,,,,,,,,,left,0.0,1.5623386660008691,,,,,sub-210,1,random_dot,,
left,left,47.0,1.0,23.0,right,0.0,1.330591124999046,,accuracy,space,1.8867194170015864,,,,,,0.0,1.0,1.0,0.0,23.0,1.0,47.0,0.0,284.117230541,,,,,,,,,284.10988937500224,285.30805979100114,286.10170537500017,286.0910147079994,286.09150025000054,286.10170537500017,286.10170537500017,286.10170537500017,287.4365876660013,,,,,,,,,,,,,,,,,,,,,,,,,,,,,,right,0.0,1.330591124999046,,,,,sub-210,1,random_dot,,
left,left,48.0,0.0,24.0,left,1.0,0.8352922920021228,,accuracy,space,1.8867194170015864,,,,,,0.0,1.0,1.0,0.0,24.0,0.0,48.0,0.0,287.4443381660021,,,,,,,,,287.43708279100247,287.785664250001,288.57689704100267,288.5691025410015,288.56972566600234,288.57689704100267,288.57689704100267,288.57689704100267,289.42042695800046,,,,,,,,,,,,,,,,,,,,,,,,,,,,,,left,1.0,0.8352922920021228,,,,,sub-210,1,random_dot,,
right,right,49.0,1.0,24.0,left,0.0,1.244344208000257,,accuracy,space,1.8867194170015864,,,,,,0.0,1.0,1.0,0.0,24.0,1.0,49.0,1.0,289.42721529100163,,,,,,,,,289.4209355830026,290.2189209999997,291.00968337499944,291.0023468750005,291.00292066600014,291.00968337499944,291.00968337499944,291.00968337499944,292.2583187500022,,,,,,,,,,,,,,,,,,,,,,,,,,,,,,left,0.0,1.244344208000257,,,,,sub-210,1,random_dot,,
left,left,50.0,0.0,25.0,left,1.0,1.306644292002602,,accuracy,space,1.8867194170015864,,,,,,0.0,1.0,1.0,0.0,25.0,0.0,50.0,0.0,292.2674873750002,,,,,,,,,292.2586697080005,292.35774420800226,293.15203745799954,293.141012291002,293.1414744160029,293.15203745799954,293.15203745799954,293.15203745799954,294.4702161250025,,,,,,,,,,,,,,,,,,,,,,,,,,,,,,left,1.0,1.306644292002602,,,,,sub-210,1,random_dot,,
right,right,51.0,1.0,25.0,left,0.0,1.0584131669966157,,accuracy,space,1.8867194170015864,,,,,,0.0,1.0,1.0,0.0,25.0,1.0,51.0,1.0,294.4776575830001,,,,,,,,,294.4706831250005,294.56884087500293,295.3605413330006,295.3526233750017,295.3534204580028,295.3605413330006,295.3605413330006,295.3605413330006,296.4207541249998,,,,,,,,,,,,,,,,,,,,,,,,,,,,,,left,0.0,1.0584131669966157,,,,,sub-210,1,random_dot,,
left,left,52.0,0.0,26.0,left,1.0,1.0547452499995416,,accuracy,space,1.8867194170015864,,,,,,0.0,1.0,1.0,0.0,26.0,0.0,52.0,0.0,296.4275985410022,,,,,,,,,296.42128137500185,296.51915912500044,297.30975933300215,297.30194216600285,297.30255220800245,297.30975933300215,297.30975933300215,297.30975933300215,298.3695254580016,,,,,,,,,,,,,,,,,,,,,,,,,,,,,,left,1.0,1.0547452499995416,,,,,sub-210,1,random_dot,,
right,right,53.0,1.0,26.0,left,0.0,1.6764250419983,,accuracy,space,1.8867194170015864,,,,,,0.0,1.0,1.0,0.0,26.0,1.0,53.0,1.0,298.37610858300104,,,,,,,,,298.3698668750003,298.70768629099985,299.5021906250004,299.4902750830006,299.4907776660002,299.5021906250004,299.5021906250004,299.5021906250004,301.1863873330003,,,,,,,,,,,,,,,,,,,,,,,,,,,,,,left,0.0,1.6764250419983,,,,,sub-210,1,random_dot,,
right,right,54.0,0.0,27.0,right,1.0,2.135253249998641,,accuracy,space,1.8867194170015864,,,,,,0.0,1.0,1.0,0.0,27.0,0.0,54.0,1.0,301.19305883299967,,,,,,,,,301.1867311660026,301.2736959160029,302.0688005830016,302.0575167080024,302.0580015830019,302.0688005830016,302.0688005830016,302.0688005830016,304.2100864999993,,,,,,,,,,,,,,,,,,,,,,,,,,,,,,right,1.0,2.135253249998641,,,,,sub-210,1,random_dot,,
left,left,55.0,1.0,27.0,left,1.0,0.4338018749986077,,accuracy,space,1.8867194170015864,,,,,,0.0,1.0,1.0,0.0,27.0,1.0,55.0,0.0,304.21704845800195,,,,,,,,,304.21055254100065,305.40845945800174,306.2008792080014,306.19117800000095,306.19177829100227,306.2008792080014,306.2008792080014,306.2008792080014,306.6364322080008,,,,,,,,,,,,,,,,,,,,,,,,,,,,,,left,1.0,0.4338018749986077,,,,,sub-210,1,random_dot,,
left,left,56.0,0.0,28.0,right,0.0,0.811845500000345,,accuracy,space,1.8867194170015864,,,,,,0.0,1.0,1.0,0.0,28.0,0.0,56.0,0.0,306.6429195410019,,,,,,,,,306.63685800000167,307.4354631660026,308.2266469580027,308.2189576250021,308.21953629100244,308.2266469580027,308.2266469580027,308.2266469580027,309.0436930830001,,,,,,,,,,,,,,,,,,,,,,,,,,,,,,right,0.0,0.811845500000345,,,,,sub-210,1,random_dot,,
right,right,57.0,1.0,28.0,left,0.0,0.7730087089985318,,accuracy,space,1.8867194170015864,,,,,,0.0,1.0,1.0,0.0,28.0,1.0,57.0,1.0,309.05049758300083,,,,,,,,,309.044145666001,309.84068433300126,310.63535229099944,310.6242032500013,310.6246792910024,310.63535229099944,310.63535229099944,310.63535229099944,311.4098510410004,,,,,,,,,,,,,,,,,,,,,,,,,,,,,,left,0.0,0.7730087089985318,,,,,sub-210,1,random_dot,,
right,right,58.0,0.0,29.0,right,1.0,1.0926118749994205,,accuracy,space,1.8867194170015864,,,,,,0.0,1.0,1.0,0.0,29.0,0.0,58.0,1.0,311.41711304099954,,,,,,,,,311.41029987500224,311.7586607080011,312.5599875830012,312.5521014160004,312.55270454100173,312.5599875830012,312.5599875830012,312.5599875830012,313.65990133300147,,,,,,,,,,,,,,,,,,,,,,,,,,,,,,right,1.0,1.0926118749994205,,,,,sub-210,1,random_dot,,
left,left,59.0,1.0,29.0,left,1.0,0.7709910840021621,,accuracy,space,1.8867194170015864,,,,,,0.0,1.0,1.0,0.0,29.0,1.0,59.0,0.0,313.6671520410018,,,,,,,,,313.6603650409997,314.85865858300167,315.66033954100203,315.6522797910002,315.6528601250029,315.66033954100203,315.66033954100203,315.66033954100203,316.43666216600104,,,,,,,,,,,,,,,,,,,,,,,,,,,,,,left,1.0,0.7709910840021621,,,,,sub-210,1,random_dot,,
,,1.0,1.0,0.0,,,,,accuracy,space,1.8867194170015864,,,,,,0.0,1.0,1.0,0.0,,,,,,,,,,,,,,,,,,,,,,,,,,,,,,,,,,,,,,,,,,,,,,,,,,,,,,,,,,,sub-210,1,random_dot,,
,,,,,,,,,,,,,,,,,,,,,,,,,,,,,,,,,,,,,,,,,,,,,,,,,,,,,,,,,,,,,,,,,,,,,,,,,,,,316.5577736660016,316.5624744580018,321.44034320799983,sub-210,1,random_dot,,
