wordCTK,colorCTK,corrAnsCTK,congruentCTK,thisN,thisTrialN,thisRepN,keyResp_CTK.keys,keyResp_CTK.corr,keyResp_CTK.rt,keyResp_CTK.duration,wordPractice,colorPractice,corrAnsPractice,congruentPractice,respPractice.keys,respPractice.corr,respPractice.rt,respPractice.duration,word,color,corrAns,congruent,keyResp_test_run.keys,keyResp_test_run.corr,keyResp_test_run.rt,keyResp_test_run.duration,trials_CTK.thisRepN,trials_CTK.thisTrialN,trials_CTK.thisN,trials_CTK.thisIndex,trials_practice.thisRepN,trials_practice.thisTrialN,trials_practice.thisN,trials_practice.thisIndex,trials_test.thisRepN,trials_test.thisTrialN,trials_test.thisN,trials_test.thisIndex,thisRow.t,notes,instruction.started,instr_text.started,instr_image.started,instr_resp.started,instruction.stopped,instr_resp.keys,instr_resp.rt,instr_resp.duration,instr_color_to_key.started,instr_ctk.started,resp_ctk.started,instr_color_to_key.stopped,resp_ctk.keys,resp_ctk.rt,resp_ctk.duration,ITI.started,fixcross.started,fixcross.stopped,ITI.stopped,color_to_key_run.started,stimulus_CTK.started,keyResp_CTK.started,color_to_key_run.stopped,trials_CTK.keyResp_CTK.keys,trials_CTK.keyResp_CTK.corr,trials_CTK.keyResp_CTK.rt,trials_CTK.keyResp_CTK.duration,instr_practice.started,instr_practice_text.started,instr_practice_resp.started,instr_practice.stopped,instr_practice_resp.keys,instr_practice_resp.rt,instr_practice_resp.duration,practice_run.started,stimulus_practice.started,respPractice.started,practice_run.stopped,trials_practice.respPractice.keys,trials_practice.respPractice.corr,trials_practice.respPractice.rt,trials_practice.respPractice.duration,feedback.started,textFeedback.started,textFeedback.stopped,feedback.stopped,instr_test.started,instr_test_text.started,instr_test_resp.started,instr_test.stopped,instr_test_resp.keys,instr_test_resp.rt,instr_test_resp.duration,test_run.started,stimulus_test_run.started,keyResp_test_run.started,test_run.stopped,trials_test.keyResp_test_run.keys,trials_test.keyResp_test_run.corr,trials_test.keyResp_test_run.rt,trials_test.keyResp_test_run.duration,goodbye.started,textGoodbye.started,goodbye.stopped,participant,session,expName,frameRate,Unnamed: 112
,,,,,,,,,,,,,,,,,,,,,,,,,,,,,,,,,,,,,,,,,0.0027924000023631,0.0570845999973244,0.0570845999973244,0.0570845999973244,25.595124400002533,space,25.515375800001493,,,,,,,,,,,,,,,,,,,,,,,,,,,,,,,,,,,,,,,,,,,,,,,,,,,,,,,,,,sub-210,1,stroop_test,60.03712695807593,
,,,,,,,,,,,,,,,,,,,,,,,,,,,,,,,,,,,,,,,,,,,,,,,,,25.5951769999956,25.603694799996447,25.603694799996447,32.495388499999535,space,6.875390200002585,,,,,,,,,,,,,,,,,,,,,,,,,,,,,,,,,,,,,,,,,,,,,,,,,,,sub-210,1,stroop_test,60.03712695807593,
test,red,r,1.0,0.0,0.0,0.0,r,1.0,3.163175699999556,,,,,,,,,,,,,,,,,,0.0,0.0,0.0,0.0,,,,,,,,,32.60389359999681,,,,,,,,,,,,,,,,,32.60040049999952,33.70342089999758,34.502937199999,34.486096499997075,34.49730599999748,34.502937199999,34.502937199999,37.68226760000107,r,1.0,3.163175699999556,,,,,,,,,,,,,,,,,,,,,,,,,,,,,,,,,,,,,,,sub-210,1,stroop_test,60.03712695807593,
test,yellow,g,1.0,1.0,1.0,0.0,g,1.0,1.609925699995074,,,,,,,,,,,,,,,,,,0.0,1.0,1.0,1.0,,,,,,,,,37.69835289999901,,,,,,,,,,,,,,,,,37.682854300001054,38.047578099998645,38.846687199999,38.83036569999968,38.83107929999824,38.846687199999,38.846687199999,40.46160029999737,g,1.0,1.609925699995074,,,,,,,,,,,,,,,,,,,,,,,,,,,,,,,,,,,,,,,sub-210,1,stroop_test,60.03712695807593,
test,blue,b,1.0,2.0,2.0,0.0,b,1.0,0.7911307000031229,,,,,,,,,,,,,,,,,,0.0,2.0,2.0,2.0,,,,,,,,,40.47792599999957,,,,,,,,,,,,,,,,,40.46204739999666,40.82716200000141,41.62616580000031,41.60969620000105,41.61006339999585,41.62616580000031,41.62616580000031,42.42552969999815,b,1.0,0.7911307000031229,,,,,,,,,,,,,,,,,,,,,,,,,,,,,,,,,,,,,,,sub-210,1,stroop_test,60.03712695807593,
test,yellow,g,1.0,3.0,0.0,1.0,g,1.0,0.6322807000033208,,,,,,,,,,,,,,,,,,1.0,0.0,3.0,1.0,,,,,,,,,42.44176139999763,,,,,,,,,,,,,,,,,42.42587410000124,43.64023019999877,44.45581900000252,44.43930459999683,44.43974529999832,44.45581900000252,44.45581900000252,45.08898899999622,g,1.0,0.6322807000033208,,,,,,,,,,,,,,,,,,,,,,,,,,,,,,,,,,,,,,,sub-210,1,stroop_test,60.03712695807593,
test,red,r,1.0,4.0,1.0,1.0,r,1.0,0.5195788999990327,,,,,,,,,,,,,,,,,,1.0,1.0,4.0,0.0,,,,,,,,,45.105224999999336,,,,,,,,,,,,,,,,,45.08954339999764,45.18837499999791,46.00374249999732,45.9872566999984,45.98771539999871,46.00374249999732,46.00374249999732,46.53699169999891,r,1.0,0.5195788999990327,,,,,,,,,,,,,,,,,,,,,,,,,,,,,,,,,,,,,,,sub-210,1,stroop_test,60.03712695807593,
test,blue,b,1.0,5.0,2.0,1.0,b,1.0,0.4255358000009437,,,,,,,,,,,,,,,,,,1.0,2.0,5.0,2.0,,,,,,,,,46.55333529999916,,,,,,,,,,,,,,,,,46.53749249999965,47.751545799997984,48.56696199999715,48.55051310000272,48.55089159999625,48.56696199999715,48.56696199999715,49.00014419999934,b,1.0,0.4255358000009437,,,,,,,,,,,,,,,,,,,,,,,,,,,,,,,,,,,,,,,sub-210,1,stroop_test,60.03712695807593,
test,yellow,g,1.0,6.0,0.0,2.0,g,1.0,0.5903838000012911,,,,,,,,,,,,,,,,,,2.0,0.0,6.0,1.0,,,,,,,,,49.01642439999705,,,,,,,,,,,,,,,,,49.0005713999999,50.21500289999676,51.03050010000152,51.014067600001,51.01464780000242,51.03050010000152,51.03050010000152,51.629893600002106,g,1.0,0.5903838000012911,,,,,,,,,,,,,,,,,,,,,,,,,,,,,,,,,,,,,,,sub-210,1,stroop_test,60.03712695807593,
test,blue,b,1.0,7.0,1.0,2.0,r,0.0,0.4776275000040186,,,,,,,,,,,,,,,,,,2.0,1.0,7.0,2.0,,,,,,,,,51.646162999997614,,,,,,,,,,,,,,,,,51.63013990000036,51.72945299999992,52.52861210000265,52.51217960000213,52.51293160000205,52.52861210000265,52.52861210000265,53.01138509999873,r,0.0,0.4776275000040186,,,,,,,,,,,,,,,,,,,,,,,,,,,,,,,,,,,,,,,sub-210,1,stroop_test,60.03712695807593,
test,red,r,1.0,8.0,2.0,2.0,b,0.0,0.319732700001623,,,,,,,,,,,,,,,,,,2.0,2.0,8.0,0.0,,,,,,,,,53.027676699995936,,,,,,,,,,,,,,,,,53.01164499999868,53.36065029999736,54.17628629999672,54.15975299999991,54.16019689999666,54.17628629999672,54.17628629999672,54.5094573000024,b,0.0,0.319732700001623,,,,,,,,,,,,,,,,,,,,,,,,,,,,,,,,,,,,,,,sub-210,1,stroop_test,60.03712695807593,
test,blue,b,1.0,9.0,0.0,3.0,b,1.0,0.6985224000018206,,,,,,,,,,,,,,,,,,3.0,0.0,9.0,2.0,,,,,,,,,54.52571840000019,,,,,,,,,,,,,,,,,54.50977150000108,55.72429869999905,56.523281900001166,56.50729699999647,56.50838909999584,56.523281900001166,56.523281900001166,57.22256149999885,b,1.0,0.6985224000018206,,,,,,,,,,,,,,,,,,,,,,,,,,,,,,,,,,,,,,,sub-210,1,stroop_test,60.03712695807593,
test,yellow,g,1.0,10.0,1.0,3.0,g,1.0,0.4470652000018162,,,,,,,,,,,,,,,,,,3.0,1.0,10.0,1.0,,,,,,,,,57.23891999999614,,,,,,,,,,,,,,,,,57.22290079999948,58.43758620000153,59.25291550000111,59.23646809999627,59.23705409999821,59.25291550000111,59.25291550000111,59.70286910000141,g,1.0,0.4470652000018162,,,,,,,,,,,,,,,,,,,,,,,,,,,,,,,,,,,,,,,sub-210,1,stroop_test,60.03712695807593,
test,red,r,1.0,11.0,2.0,3.0,r,1.0,0.293593399997917,,,,,,,,,,,,,,,,,,3.0,2.0,11.0,0.0,,,,,,,,,59.71899970000232,,,,,,,,,,,,,,,,,59.70338249999622,60.06837000000087,60.86770519999845,60.851507300001686,60.85259689999657,60.86770519999845,60.86770519999845,61.16797979999683,r,1.0,0.293593399997917,,,,,,,,,,,,,,,,,,,,,,,,,,,,,,,,,,,,,,,sub-210,1,stroop_test,60.03712695807593,
,,,,,,,,,,,,,,,,,,,,,,,,,,,,,,,,,,,,,,,,,,,,,,,,,,,,,,,,,,,,,,,,,,,,61.1683178999956,61.18420889999834,61.18420889999834,66.14498930000263,space,4.954043899997487,,,,,,,,,,,,,,,,,,,,,,,,,,,,,,,,sub-210,1,stroop_test,60.03712695807593,
,,,,0.0,0.0,0.0,,,,,gelb,red,r,0.0,r,1.0,8.260003499999584,,,,,,,,,,,,,,0.0,0.0,0.0,8.0,,,,,66.26087109999935,,,,,,,,,,,,,,,,,66.25732119999884,66.94432109999616,67.74329890000081,67.7270583999998,,,,,,,,,,,,,,,,67.73509319999721,67.74329890000081,67.74329890000081,76.01613630000065,r,1.0,8.260003499999584,,76.02638609999849,76.03235870000208,77.03121619999729,77.01530049999565,,,,,,,,,,,,,,,,,,,sub-210,1,stroop_test,60.03712695807593,
,,,,1.0,1.0,0.0,,,,,blau,yellow,g,0.0,b,0.0,0.7749891999992542,,,,,,,,,,,,,,0.0,1.0,1.0,7.0,,,,,77.03121619999729,,,,,,,,,,,,,,,,,77.01598730000114,77.13089200000104,77.94657580000057,77.93023359999643,,,,,,,,,,,,,,,,77.9390254999962,77.94657580000057,77.94657580000057,78.72962440000265,b,0.0,0.7749891999992542,,78.73945690000255,78.74691570000141,,79.74464740000258,,,,,,,,,,,,,,,,,,,sub-210,1,stroop_test,60.03712695807593,
,,,,2.0,2.0,0.0,,,,,gelb,blue,b,0.0,g,0.0,1.1186377000049106,,,,,,,,,,,,,,0.0,2.0,2.0,9.0,,,,,79.76100089999818,,,,,,,,,,,,,,,,,79.74535109999852,80.09358059999795,80.8927943000017,80.87661089999892,,,,,,,,,,,,,,,,80.8822377999968,80.8927943000017,80.8927943000017,82.0248489000005,g,0.0,1.1186377000049106,,82.02534970000124,82.0410028999977,,83.04005660000257,,,,,,,,,,,,,,,,,,,sub-210,1,stroop_test,60.03712695807593,
,,,,3.0,3.0,0.0,,,,,rot,red,r,1.0,r,1.0,0.7888848999937181,,,,,,,,,,,,,,0.0,3.0,3.0,0.0,,,,,83.05635620000248,,,,,,,,,,,,,,,,,83.04041270000016,83.38915139999881,84.20472280000104,84.18839070000104,,,,,,,,,,,,,,,,84.1914289999986,84.20472280000104,84.20472280000104,85.00422830000025,r,1.0,0.7888848999937181,,85.0082259999981,85.02041469999676,,86.01959060000081,,,,,,,,,,,,,,,,,,,sub-210,1,stroop_test,60.03712695807593,
,,,,4.0,4.0,0.0,,,,,blau,red,r,0.0,r,1.0,0.8039630000057514,,,,,,,,,,,,,,0.0,4.0,4.0,4.0,,,,,86.03581999999733,,,,,,,,,,,,,,,,,86.02009410000028,86.81792309999582,87.61696700000175,87.60045890000038,,,,,,,,,,,,,,,,87.60314449999714,87.61696700000175,87.61696700000175,88.43288770000072,r,1.0,0.8039630000057514,,88.43337990000146,88.44920940000156,89.44816759999958,89.43207059999986,,,,,,,,,,,,,,,,,,,sub-210,1,stroop_test,60.03712695807593,
,,,,5.0,5.0,0.0,,,,,rot,blue,b,0.0,r,0.0,1.3492442999995546,,,,,,,,,,,,,,0.0,5.0,5.0,2.0,,,,,89.44816759999958,,,,,,,,,,,,,,,,,89.43275139999605,90.2467112000013,91.06230689999938,91.04584030000116,,,,,,,,,,,,,,,,91.04864850000013,91.06230689999938,91.06230689999938,92.4275215000016,r,0.0,1.3492442999995546,,92.43026739999914,92.44391270000052,,93.44300769999973,,,,,,,,,,,,,,,,,,,sub-210,1,stroop_test,60.03712695807593,
,,,,6.0,6.0,0.0,,,,,blau,blue,b,1.0,b,1.0,0.5510714999982156,,,,,,,,,,,,,,0.0,6.0,6.0,6.0,,,,,93.45933479999805,,,,,,,,,,,,,,,,,93.44351109999845,94.64115760000276,95.45679319999908,95.440279800001,,,,,,,,,,,,,,,,95.44424759999674,95.45679319999908,95.45679319999908,96.02292119999764,b,1.0,0.5510714999982156,,96.02769689999695,96.03922739999688,,97.03823130000092,,,,,,,,,,,,,,,,,,,sub-210,1,stroop_test,60.03712695807593,
,,,,7.0,7.0,0.0,,,,,rot,yellow,g,0.0,g,1.0,1.6541832000002614,,,,,,,,,,,,,,0.0,7.0,7.0,3.0,,,,,97.05455729999812,,,,,,,,,,,,,,,,,97.03888999999616,97.83665920000205,98.6356659000012,98.61923430000024,,,,,,,,,,,,,,,,98.62277750000068,98.6356659000012,98.6356659000012,100.30033849999744,g,1.0,1.6541832000002614,,100.3007648999992,100.316825599999,,101.31569009999656,,,,,,,,,,,,,,,,,,,sub-210,1,stroop_test,60.03712695807593,
,,,,8.0,8.0,0.0,,,,,rot,red,r,1.0,r,1.0,0.700655700005882,,,,,,,,,,,,,,0.0,8.0,8.0,1.0,,,,,101.33211850000224,,,,,,,,,,,,,,,,,101.31604499999958,101.66499769999793,102.46423640000285,102.44808419999754,,,,,,,,,,,,,,,,102.44917069999792,102.46423640000285,102.46423640000285,103.17988820000028,r,1.0,0.700655700005882,,103.18027530000109,103.19631339999614,,104.19510859999718,,,,,,,,,,,,,,,,,,,sub-210,1,stroop_test,60.03712695807593,
,,,,9.0,9.0,0.0,,,,,gelb,yellow,g,1.0,g,1.0,1.0407541999957175,,,,,,,,,,,,,,0.0,9.0,9.0,10.0,,,,,104.21152920000168,,,,,,,,,,,,,,,,,104.19536089999748,104.99406649999582,105.80973980000272,105.7933785999994,,,,,,,,,,,,,,,,105.7985692000002,105.80973980000272,105.80973980000272,106.85840230000032,g,1.0,1.0407541999957175,,106.85882490000222,106.8747852000015,,107.87366889999976,,,,,,,,,,,,,,,,,,,sub-210,1,stroop_test,60.03712695807593,
,,,,10.0,10.0,0.0,,,,,blau,blue,b,1.0,b,1.0,0.9136972999986028,,,,,,,,,,,,,,0.0,10.0,10.0,5.0,,,,,107.8900033999962,,,,,,,,,,,,,,,,,107.87398029999896,109.07184469999628,109.88743109999632,109.8708700999996,,,,,,,,,,,,,,,,109.87354909999704,109.88743109999632,109.88743109999632,110.80368009999802,b,1.0,0.9136972999986028,,110.8043730999998,110.81965879999916,,111.81843619999565,,,,,,,,,,,,,,,,,,,sub-210,1,stroop_test,60.03712695807593,
,,,,11.0,11.0,0.0,,,,,gelb,yellow,g,1.0,g,1.0,0.7994216000006418,,,,,,,,,,,,,,0.0,11.0,11.0,11.0,,,,,111.83476160000282,,,,,,,,,,,,,,,,,111.81878229999712,111.91805049999677,112.73366259999602,112.71717699999864,,,,,,,,,,,,,,,,112.719886699997,112.73366259999602,112.73366259999602,113.54952929999854,g,1.0,0.7994216000006418,,113.55001620000256,113.56587690000016,,114.56498270000156,,,,,,,,,,,,,,,,,,,sub-210,1,stroop_test,60.03712695807593,
,,,,12.0,0.0,1.0,,,,,blau,blue,b,1.0,b,1.0,0.7373764000003575,,,,,,,,,,,,,,1.0,0.0,12.0,6.0,,,,,114.5813307999997,,,,,,,,,,,,,,,,,114.56548849999672,114.91414120000265,115.71325010000146,115.69687539999724,,,,,,,,,,,,,,,,115.70222590000049,115.71325010000146,115.71325010000146,116.46286339999642,b,1.0,0.7373764000003575,,116.46369699999924,116.4791311000008,,117.47804960000212,,,,,,,,,,,,,,,,,,,sub-210,1,stroop_test,60.03712695807593,
,,,,13.0,1.0,1.0,,,,,gelb,red,r,0.0,r,1.0,1.3557875999977114,,,,,,,,,,,,,,1.0,1.0,13.0,8.0,,,,,117.49430349999602,,,,,,,,,,,,,,,,,117.47876449999605,118.2762683999972,119.07534589999705,119.05912689999968,,,,,,,,,,,,,,,,119.06424880000122,119.07534589999705,119.07534589999705,120.44109539999772,r,1.0,1.3557875999977114,,120.44234210000286,120.457172800001,,121.45582109999668,,,,,,,,,,,,,,,,,,,sub-210,1,stroop_test,60.03712695807593,
,,,,14.0,2.0,1.0,,,,,rot,red,r,1.0,r,1.0,0.9354243999987376,,,,,,,,,,,,,,1.0,2.0,14.0,0.0,,,,,121.47214890000032,,,,,,,,,,,,,,,,,121.45625499999733,122.65398730000015,123.46940529999848,123.452981800001,,,,,,,,,,,,,,,,123.4554277999996,123.46940529999848,123.46940529999848,124.4184924000001,r,1.0,0.9354243999987376,,124.41898539999966,124.43487479999747,,125.43366489999607,,,,,,,,,,,,,,,,,,,sub-210,1,stroop_test,60.03712695807593,
,,,,15.0,3.0,1.0,,,,,gelb,yellow,g,1.0,g,1.0,0.9747604000003776,,,,,,,,,,,,,,1.0,3.0,15.0,10.0,,,,,125.45013640000252,,,,,,,,,,,,,,,,,125.43395009999948,125.7833197,126.5986847000022,126.58222450000176,,,,,,,,,,,,,,,,126.585313399999,126.5986847000022,126.5986847000022,127.58099799999763,g,1.0,0.9747604000003776,,127.581397199996,127.59739869999612,,128.5962359999976,,,,,,,,,,,,,,,,,,,sub-210,1,stroop_test,60.03712695807593,
,,,,16.0,4.0,1.0,,,,,blau,yellow,g,0.0,g,1.0,1.6283528999992996,,,,,,,,,,,,,,1.0,4.0,16.0,7.0,,,,,128.612564199997,,,,,,,,,,,,,,,,,128.59656779999932,128.69587229999888,129.5114348999996,129.49493359999906,,,,,,,,,,,,,,,,129.49832199999946,129.5114348999996,129.5114348999996,131.14311889999954,g,1.0,1.6283528999992996,,131.1437780999986,131.15930140000273,,132.15845470000204,,,,,,,,,,,,,,,,,,,sub-210,1,stroop_test,60.03712695807593,
,,,,17.0,5.0,1.0,,,,,rot,red,r,1.0,r,1.0,0.7192291999963345,,,,,,,,,,,,,,1.0,5.0,17.0,1.0,,,,,132.17470689999757,,,,,,,,,,,,,,,,,132.15896609999618,132.2580930999975,133.07329619999655,133.05685880000237,,,,,,,,,,,,,,,,133.05983630000264,133.07329619999655,133.07329619999655,133.80618569999933,r,1.0,0.7192291999963345,,133.80683390000195,133.8224906999967,,134.821254399998,,,,,,,,,,,,,,,,,,,sub-210,1,stroop_test,60.03712695807593,
,,,,18.0,6.0,1.0,,,,,blau,red,r,0.0,r,1.0,1.3928538000036497,,,,,,,,,,,,,,1.0,6.0,18.0,4.0,,,,,134.83761349999986,,,,,,,,,,,,,,,,,134.8215354999993,135.1705576000022,135.96966029999749,135.9531188999972,,,,,,,,,,,,,,,,135.956568900001,135.96966029999749,135.96966029999749,137.36799079999764,r,1.0,1.3928538000036497,,137.36846890000015,137.38434830000188,,138.38312829999632,,,,,,,,,,,,,,,,,,,sub-210,1,stroop_test,60.03712695807593,
,,,,19.0,7.0,1.0,,,,,rot,yellow,g,0.0,g,1.0,1.2191525000016554,,,,,,,,,,,,,,1.0,7.0,19.0,3.0,,,,,138.39956289999827,,,,,,,,,,,,,,,,,138.38341629999923,138.73282160000235,139.54804339999828,139.531576399997,,,,,,,,,,,,,,,,139.53380930000276,139.54804339999828,139.54804339999828,140.78010350000113,g,1.0,1.2191525000016554,,140.78052949999983,140.79645390000223,,141.7953340000022,,,,,,,,,,,,,,,,,,,sub-210,1,stroop_test,60.03712695807593,
,,,,20.0,8.0,1.0,,,,,gelb,yellow,g,1.0,g,1.0,2.4042087999987416,,,,,,,,,,,,,,1.0,8.0,20.0,11.0,,,,,141.81166549999762,,,,,,,,,,,,,,,,,141.7956331000023,141.8950251999995,142.7105961999987,142.69413239999994,,,,,,,,,,,,,,,,142.6963590000014,142.7105961999987,142.7105961999987,145.12481419999676,g,1.0,2.4042087999987416,,145.12572199999704,145.14086800000223,,146.13959839999734,,,,,,,,,,,,,,,,,,,sub-210,1,stroop_test,60.03712695807593,
,,,,21.0,9.0,1.0,,,,,gelb,blue,b,0.0,b,1.0,1.2443793000056758,,,,,,,,,,,,,,1.0,9.0,21.0,9.0,,,,,146.15593039999658,,,,,,,,,,,,,,,,,146.1398915999962,146.48892209999758,147.30451429999812,147.28794399999606,,,,,,,,,,,,,,,,147.28829849999602,147.30451429999812,147.30451429999812,148.5531254000016,b,1.0,1.2443793000056758,,148.55352899999707,148.56957770000008,149.5684761000011,149.55243779999728,,,,,,,,,,,,,,,,,,,sub-210,1,stroop_test,60.03712695807593,
,,,,22.0,10.0,1.0,,,,,blau,blue,b,1.0,b,1.0,0.5072731000036583,,,,,,,,,,,,,,1.0,10.0,22.0,5.0,,,,,149.5684761000011,,,,,,,,,,,,,,,,,149.55313469999965,149.6681991000005,150.4836617999972,150.46717560000252,,,,,,,,,,,,,,,,150.46985499999573,150.4836617999972,150.4836617999972,150.9999506000022,b,1.0,0.5072731000036583,,151.00034449999657,151.01625919999788,,152.01511899999605,,,,,,,,,,,,,,,,,,,sub-210,1,stroop_test,60.03712695807593,
,,,,23.0,11.0,1.0,,,,,rot,blue,b,0.0,b,1.0,0.9785565999991376,,,,,,,,,,,,,,1.0,11.0,23.0,2.0,,,,,152.0315494000024,,,,,,,,,,,,,,,,,152.01539210000192,152.36445359999925,153.1799863999986,153.16346229999908,,,,,,,,,,,,,,,,153.1658740999992,153.1799863999986,153.1799863999986,154.1626708999975,b,1.0,0.9785565999991376,,154.1634541999956,154.17892790000042,,155.17762249999942,,,,,,,,,,,,,,,,,,,sub-210,1,stroop_test,60.03712695807593,
,,,,,,,,,,,,,,,,,,,,,,,,,,,,,,,,,,,,,,,,,,,,,,,,,,,,,,,,,,,,,,,,,,,,,,,,,,,,,,,,,,,,,,,155.17773830000078,155.19431059999624,155.19431059999624,199.83552519999648,space,44.63488330000109,,,,,,,,,,,,,sub-210,1,stroop_test,60.03712695807593,
,,,,0.0,0.0,0.0,,,,,,,,,,,,,blau,blue,b,1.0,b,1.0,0.7977831000025617,,,,,,,,,,0.0,0.0,0.0,5.0,199.88922269999605,,,,,,,,,,,,,,,,,199.8859253999981,200.1848519999985,201.0002139999997,200.9838975000021,,,,,,,,,,,,,,,,,,,,,,,,,,,,,,,,,,,200.99081650000156,201.0002139999997,201.0002139999997,201.79935690000275,b,1.0,0.7977831000025617,,,,,sub-210,1,stroop_test,60.03712695807593,
,,,,1.0,1.0,0.0,,,,,,,,,,,,,gelb,blue,b,0.0,b,1.0,0.9905369999978576,,,,,,,,,,0.0,1.0,1.0,9.0,201.8165214999972,,,,,,,,,,,,,,,,,201.79968579999692,203.0140946000029,203.813252699998,203.7968820000024,,,,,,,,,,,,,,,,,,,,,,,,,,,,,,,,,,,203.8016454000026,203.813252699998,203.813252699998,204.8121988999992,b,1.0,0.9905369999978576,,,,,sub-210,1,stroop_test,60.03712695807593,
,,,,2.0,2.0,0.0,,,,,,,,,,,,,rot,blue,b,0.0,b,1.0,1.2375462999989395,,,,,,,,,,0.0,2.0,2.0,2.0,204.82833460000256,,,,,,,,,,,,,,,,,204.8126212999996,205.627642499996,206.44278720000148,206.4263790999976,,,,,,,,,,,,,,,,,,,,,,,,,,,,,,,,,,,206.4301156000001,206.44278720000148,206.44278720000148,207.69137390000105,b,1.0,1.2375462999989395,,,,,sub-210,1,stroop_test,60.03712695807593,
,,,,3.0,3.0,0.0,,,,,,,,,,,,,blau,blue,b,1.0,b,1.0,0.8561062000007951,,,,,,,,,,0.0,3.0,3.0,6.0,207.7077486999988,,,,,,,,,,,,,,,,,207.69165069999872,207.79108570000244,208.6066995000001,208.590220099999,,,,,,,,,,,,,,,,,,,,,,,,,,,,,,,,,,,208.59284040000057,208.6066995000001,208.6066995000001,209.4725371999957,b,1.0,0.8561062000007951,,,,,sub-210,1,stroop_test,60.03712695807593,
,,,,4.0,4.0,0.0,,,,,,,,,,,,,rot,yellow,g,0.0,g,1.0,0.8592705999981263,,,,,,,,,,0.0,4.0,4.0,3.0,209.48884800000087,,,,,,,,,,,,,,,,,209.47289569999705,209.5721352999972,210.37095520000003,210.35488720000285,,,,,,,,,,,,,,,,,,,,,,,,,,,,,,,,,,,210.3604140000025,210.37095520000003,210.37095520000003,211.23734749999855,g,1.0,0.8592705999981263,,,,,sub-210,1,stroop_test,60.03712695807593,
,,,,5.0,5.0,0.0,,,,,,,,,,,,,gelb,yellow,g,1.0,g,1.0,0.433395300002303,,,,,,,,,,0.0,5.0,5.0,11.0,211.2534760999988,,,,,,,,,,,,,,,,,211.23809220000112,211.6026583999992,212.41825579999568,212.4018501000028,,,,,,,,,,,,,,,,,,,,,,,,,,,,,,,,,,,212.40449349999835,212.41825579999568,212.41825579999568,212.8677739999985,g,1.0,0.433395300002303,,,,,sub-210,1,stroop_test,60.03712695807593,
,,,,6.0,6.0,0.0,,,,,,,,,,,,,gelb,red,r,0.0,r,1.0,0.9177467999979854,,,,,,,,,,0.0,6.0,6.0,8.0,212.88417099999788,,,,,,,,,,,,,,,,,212.86804380000103,213.6832304999989,214.48234290000252,214.46605199999613,,,,,,,,,,,,,,,,,,,,,,,,,,,,,,,,,,,214.4667808000013,214.48234290000252,214.48234290000252,215.41544389999763,r,1.0,0.9177467999979854,,,,,sub-210,1,stroop_test,60.03712695807593,
,,,,7.0,7.0,0.0,,,,,,,,,,,,,blau,yellow,g,0.0,g,1.0,1.415010999997321,,,,,,,,,,0.0,7.0,7.0,7.0,215.431247200002,,,,,,,,,,,,,,,,,215.416283999999,215.78049230000036,216.5797007000001,216.5635874,,,,,,,,,,,,,,,,,,,,,,,,,,,,,,,,,,,216.5724596,216.5797007000001,216.5797007000001,218.0118338999964,g,1.0,1.415010999997321,,,,,sub-210,1,stroop_test,60.03712695807593,
,,,,8.0,8.0,0.0,,,,,,,,,,,,,gelb,yellow,g,1.0,g,1.0,0.613297000003513,,,,,,,,,,0.0,8.0,8.0,10.0,218.02781059999688,,,,,,,,,,,,,,,,,218.01265930000227,218.8265412999972,219.64205619999848,219.62542309999844,,,,,,,,,,,,,,,,,,,,,,,,,,,,,,,,,,,219.62745909999649,219.64205619999848,219.64205619999848,220.25825059999625,g,1.0,0.613297000003513,,,,,sub-210,1,stroop_test,60.03712695807593,
,,,,9.0,9.0,0.0,,,,,,,,,,,,,blau,red,r,0.0,r,1.0,0.7626956999956747,,,,,,,,,,0.0,9.0,9.0,4.0,220.2744851000025,,,,,,,,,,,,,,,,,220.2585758999994,221.47304330000043,222.2885677000013,222.27207639999688,,,,,,,,,,,,,,,,,,,,,,,,,,,,,,,,,,,222.27438930000065,222.2885677000013,222.2885677000013,223.0542754999988,r,1.0,0.7626956999956747,,,,,sub-210,1,stroop_test,60.03712695807593,
,,,,10.0,10.0,0.0,,,,,,,,,,,,,rot,red,r,1.0,r,1.0,0.5193568999966374,,,,,,,,,,0.0,10.0,10.0,1.0,223.07078609999732,,,,,,,,,,,,,,,,,223.05453219999615,223.87004499999605,224.68553679999604,224.6695207000012,,,,,,,,,,,,,,,,,,,,,,,,,,,,,,,,,,,224.6777848999991,224.68553679999604,224.68553679999604,225.2189749999961,r,1.0,0.5193568999966374,,,,,sub-210,1,stroop_test,60.03712695807593,
,,,,11.0,11.0,0.0,,,,,,,,,,,,,rot,red,r,1.0,r,1.0,0.5632444000002579,,,,,,,,,,0.0,11.0,11.0,0.0,225.2349080999993,,,,,,,,,,,,,,,,,225.2197993000009,226.43336640000047,227.24857579999664,227.23218520000228,,,,,,,,,,,,,,,,,,,,,,,,,,,,,,,,,,,227.23259580000013,227.24857579999664,227.24857579999664,227.81482680000045,r,1.0,0.5632444000002579,,,,,sub-210,1,stroop_test,60.03712695807593,
,,,,12.0,0.0,1.0,,,,,,,,,,,,,gelb,red,r,0.0,r,1.0,0.6409590000039316,,,,,,,,,,1.0,0.0,12.0,8.0,227.8311606999996,,,,,,,,,,,,,,,,,227.81513540000012,229.02982679999693,229.84522319999812,229.8287685999967,,,,,,,,,,,,,,,,,,,,,,,,,,,,,,,,,,,229.8312294999996,229.84522319999812,229.84522319999812,230.4946015999958,r,1.0,0.6409590000039316,,,,,sub-210,1,stroop_test,60.03712695807593,
,,,,13.0,1.0,1.0,,,,,,,,,,,,,blau,blue,b,1.0,b,1.0,0.8277405000044382,,,,,,,,,,1.0,1.0,13.0,5.0,230.5109577999974,,,,,,,,,,,,,,,,,230.49495770000067,230.8441869000017,231.65940340000088,231.6429561999976,,,,,,,,,,,,,,,,,,,,,,,,,,,,,,,,,,,231.64526079999632,231.65940340000088,231.65940340000088,232.49267049999617,b,1.0,0.8277405000044382,,,,,sub-210,1,stroop_test,60.03712695807593,
,,,,14.0,2.0,1.0,,,,,,,,,,,,,gelb,blue,b,0.0,b,1.0,0.602918899996439,,,,,,,,,,1.0,2.0,14.0,9.0,232.5086364000017,,,,,,,,,,,,,,,,,232.49349799999615,232.85813719999717,233.6735677999968,233.65712129999883,,,,,,,,,,,,,,,,,,,,,,,,,,,,,,,,,,,233.6604790999991,233.6735677999968,233.6735677999968,234.29005340000003,b,1.0,0.602918899996439,,,,,sub-210,1,stroop_test,60.03712695807593,
,,,,15.0,3.0,1.0,,,,,,,,,,,,,blau,blue,b,1.0,b,1.0,0.5119134999986272,,,,,,,,,,1.0,3.0,15.0,6.0,234.3061269000027,,,,,,,,,,,,,,,,,234.29068199999887,234.3895007999963,235.2048393000005,235.18838929999765,,,,,,,,,,,,,,,,,,,,,,,,,,,,,,,,,,,235.1919273000021,235.2048393000005,235.2048393000005,235.721847599998,b,1.0,0.5119134999986272,,,,,sub-210,1,stroop_test,60.03712695807593,
,,,,16.0,4.0,1.0,,,,,,,,,,,,,gelb,yellow,g,1.0,g,1.0,0.7857788999972399,,,,,,,,,,1.0,4.0,16.0,10.0,235.73762519999585,,,,,,,,,,,,,,,,,235.72269960000267,235.8375579999993,236.6530447999976,236.6365611000001,,,,,,,,,,,,,,,,,,,,,,,,,,,,,,,,,,,236.64022780000232,236.6530447999976,236.6530447999976,237.4526430999977,g,1.0,0.7857788999972399,,,,,sub-210,1,stroop_test,60.03712695807593,
,,,,17.0,5.0,1.0,,,,,,,,,,,,,rot,red,r,1.0,r,1.0,0.597498800001631,,,,,,,,,,1.0,5.0,17.0,1.0,237.4686655999976,,,,,,,,,,,,,,,,,237.45337070000096,237.55191380000176,238.3509397000016,238.3347827999969,,,,,,,,,,,,,,,,,,,,,,,,,,,,,,,,,,,238.34319200000027,238.3509397000016,238.3509397000016,238.95082620000176,r,1.0,0.597498800001631,,,,,sub-210,1,stroop_test,60.03712695807593,
,,,,18.0,6.0,1.0,,,,,,,,,,,,,blau,yellow,g,0.0,g,1.0,0.6902497000046424,,,,,,,,,,1.0,6.0,18.0,7.0,238.9666890000008,,,,,,,,,,,,,,,,,238.9515625999993,239.06630320000116,239.8654496000017,239.84892019999825,,,,,,,,,,,,,,,,,,,,,,,,,,,,,,,,,,,239.85316359999703,239.8654496000017,239.8654496000017,240.56528070000056,g,1.0,0.6902497000046424,,,,,sub-210,1,stroop_test,60.03712695807593,
,,,,19.0,7.0,1.0,,,,,,,,,,,,,blau,red,r,0.0,r,1.0,1.1694352000049548,,,,,,,,,,1.0,7.0,19.0,4.0,240.58116119999613,,,,,,,,,,,,,,,,,240.56603000000177,240.68094250000289,241.4799534999984,241.4638857999962,,,,,,,,,,,,,,,,,,,,,,,,,,,,,,,,,,,241.4649827999965,241.4799534999984,241.4799534999984,242.66261410000152,r,1.0,1.1694352000049548,,,,,sub-210,1,stroop_test,60.03712695807593,
,,,,20.0,8.0,1.0,,,,,,,,,,,,,rot,red,r,1.0,r,1.0,0.7030734999934793,,,,,,,,,,1.0,8.0,20.0,0.0,242.67849939999724,,,,,,,,,,,,,,,,,242.6634359000018,243.02804869999815,243.8432965999964,243.8267913000018,,,,,,,,,,,,,,,,,,,,,,,,,,,,,,,,,,,243.82920400000148,243.8432965999964,243.8432965999964,244.5591626999958,r,1.0,0.7030734999934793,,,,,sub-210,1,stroop_test,60.03712695807593,
,,,,21.0,9.0,1.0,,,,,,,,,,,,,rot,yellow,g,0.0,g,1.0,0.8994108000042615,,,,,,,,,,1.0,9.0,21.0,3.0,244.5755474999969,,,,,,,,,,,,,,,,,244.5594291000016,245.3751004000005,246.19022979999863,246.1736678000016,,,,,,,,,,,,,,,,,,,,,,,,,,,,,,,,,,,246.1740415999957,246.19022979999863,246.19022979999863,247.1060518000013,g,1.0,0.8994108000042615,,,,,sub-210,1,stroop_test,60.03712695807593,
,,,,22.0,10.0,1.0,,,,,,,,,,,,,gelb,yellow,g,1.0,g,1.0,0.5578308000040124,,,,,,,,,,1.0,10.0,22.0,11.0,247.12238989999605,,,,,,,,,,,,,,,,,247.1065183000028,248.3207083000016,249.1200142000016,249.10384489999703,,,,,,,,,,,,,,,,,,,,,,,,,,,,,,,,,,,249.11083489999876,249.1200142000016,249.1200142000016,249.68627749999723,g,1.0,0.5578308000040124,,,,,sub-210,1,stroop_test,60.03712695807593,
,,,,23.0,11.0,1.0,,,,,,,,,,,,,rot,blue,b,0.0,b,1.0,0.6092543999984628,,,,,,,,,,1.0,11.0,23.0,2.0,249.70235819999647,,,,,,,,,,,,,,,,,249.68686739999976,250.5011943999998,251.30010380000024,251.2838402999987,,,,,,,,,,,,,,,,,,,,,,,,,,,,,,,,,,,251.28845359999832,251.30010380000024,251.30010380000024,251.91652990000148,b,1.0,0.6092543999984628,,,,,sub-210,1,stroop_test,60.03712695807593,
,,,,24.0,0.0,2.0,,,,,,,,,,,,,rot,yellow,g,0.0,g,1.0,1.3484347999983584,,,,,,,,,,2.0,0.0,24.0,3.0,251.9327271000002,,,,,,,,,,,,,,,,,251.91706870000053,253.13136569999915,253.9466341000007,253.9300801999998,,,,,,,,,,,,,,,,,,,,,,,,,,,,,,,,,,,253.93045809999603,253.9466341000007,253.9466341000007,255.311632799996,g,1.0,1.3484347999983584,,,,,sub-210,1,stroop_test,60.03712695807593,
,,,,25.0,1.0,2.0,,,,,,,,,,,,,rot,blue,b,0.0,b,1.0,0.9336430999974256,,,,,,,,,,2.0,1.0,25.0,2.0,255.3280054999996,,,,,,,,,,,,,,,,,255.3119396999973,255.4113123999996,256.2103767000008,256.1940287999969,,,,,,,,,,,,,,,,,,,,,,,,,,,,,,,,,,,256.1945474999957,256.2103767000008,256.2103767000008,257.15939849999995,b,1.0,0.9336430999974256,,,,,sub-210,1,stroop_test,60.03712695807593,
,,,,26.0,2.0,2.0,,,,,,,,,,,,,gelb,yellow,g,1.0,g,1.0,0.5193275999990874,,,,,,,,,,2.0,2.0,26.0,10.0,257.1756443999984,,,,,,,,,,,,,,,,,257.1598329999979,258.3740773000027,259.1896943999964,259.1731978000025,,,,,,,,,,,,,,,,,,,,,,,,,,,,,,,,,,,259.1755914999958,259.1896943999964,259.1896943999964,259.7235454999973,g,1.0,0.5193275999990874,,,,,sub-210,1,stroop_test,60.03712695807593,
,,,,27.0,3.0,2.0,,,,,,,,,,,,,blau,blue,b,1.0,b,1.0,0.6991332000034163,,,,,,,,,,2.0,3.0,27.0,6.0,259.7392252999998,,,,,,,,,,,,,,,,,259.7243987999973,260.0885621999987,260.90404169999965,260.8875129000008,,,,,,,,,,,,,,,,,,,,,,,,,,,,,,,,,,,260.8905292999989,260.90404169999965,260.90404169999965,261.6201224999968,b,1.0,0.6991332000034163,,,,,sub-210,1,stroop_test,60.03712695807593,
,,,,28.0,4.0,2.0,,,,,,,,,,,,,gelb,blue,b,0.0,g,0.0,1.5184391000002506,,,,,,,,,,2.0,4.0,28.0,9.0,261.6363385000004,,,,,,,,,,,,,,,,,261.6204499000014,262.8347749999957,263.63398120000056,263.61768160000065,,,,,,,,,,,,,,,,,,,,,,,,,,,,,,,,,,,263.6225044000021,263.63398120000056,263.63398120000056,265.1658349999998,g,0.0,1.5184391000002506,,,,,sub-210,1,stroop_test,60.03712695807593,
,,,,29.0,5.0,2.0,,,,,,,,,,,,,rot,red,r,1.0,r,1.0,0.6847836000015377,,,,,,,,,,2.0,5.0,29.0,0.0,265.18190329999925,,,,,,,,,,,,,,,,,265.1664049999963,265.9809153000024,266.79662649999955,266.78039980000176,,,,,,,,,,,,,,,,,,,,,,,,,,,,,,,,,,,266.7888406999991,266.79662649999955,266.79662649999955,267.4955685999957,r,1.0,0.6847836000015377,,,,,sub-210,1,stroop_test,60.03712695807593,
,,,,30.0,6.0,2.0,,,,,,,,,,,,,blau,red,r,0.0,r,1.0,0.9697729000035906,,,,,,,,,,2.0,6.0,30.0,4.0,267.5119627000022,,,,,,,,,,,,,,,,,267.49594480000087,268.3111456999977,269.1264246999999,269.1098978000009,,,,,,,,,,,,,,,,,,,,,,,,,,,,,,,,,,,269.1123632000017,269.1264246999999,269.1264246999999,270.1096284000014,r,1.0,0.9697729000035906,,,,,sub-210,1,stroop_test,60.03712695807593,
,,,,31.0,7.0,2.0,,,,,,,,,,,,,blau,blue,b,1.0,b,1.0,0.9936490999971284,,,,,,,,,,2.0,7.0,31.0,5.0,270.1254534999971,,,,,,,,,,,,,,,,,270.1104606000008,270.2251961000002,271.0406959999964,271.0242741999973,,,,,,,,,,,,,,,,,,,,,,,,,,,,,,,,,,,271.0248342999985,271.0406959999964,271.0406959999964,272.03952779999963,b,1.0,0.9936490999971284,,,,,sub-210,1,stroop_test,60.03712695807593,
,,,,32.0,8.0,2.0,,,,,,,,,,,,,rot,red,r,1.0,r,1.0,0.8461345000032452,,,,,,,,,,2.0,8.0,32.0,1.0,272.0557732000016,,,,,,,,,,,,,,,,,272.03980059999594,273.25438009999925,274.06992860000173,274.0534905000022,,,,,,,,,,,,,,,,,,,,,,,,,,,,,,,,,,,274.0562800999978,274.06992860000173,274.06992860000173,274.9195152999964,r,1.0,0.8461345000032452,,,,,sub-210,1,stroop_test,60.03712695807593,
,,,,33.0,9.0,2.0,,,,,,,,,,,,,blau,yellow,g,0.0,g,1.0,0.9271539000037592,,,,,,,,,,2.0,9.0,33.0,7.0,274.9355253999965,,,,,,,,,,,,,,,,,274.9200985999996,276.1339232000028,276.9494878999976,276.9331977999973,,,,,,,,,,,,,,,,,,,,,,,,,,,,,,,,,,,276.93690570000035,276.9494878999976,276.9494878999976,277.8819006999984,g,1.0,0.9271539000037592,,,,,sub-210,1,stroop_test,60.03712695807593,
,,,,34.0,10.0,2.0,,,,,,,,,,,,,gelb,red,r,0.0,r,1.0,0.7189982999989297,,,,,,,,,,2.0,10.0,34.0,8.0,277.8980833000023,,,,,,,,,,,,,,,,,277.8821803999963,278.69710929999565,279.49612640000123,279.48000160000083,,,,,,,,,,,,,,,,,,,,,,,,,,,,,,,,,,,279.48479029999726,279.49612640000123,279.49612640000123,280.2287546000007,r,1.0,0.7189982999989297,,,,,sub-210,1,stroop_test,60.03712695807593,
,,,,35.0,11.0,2.0,,,,,,,,,,,,,gelb,yellow,g,1.0,g,1.0,0.67898889999924,,,,,,,,,,2.0,11.0,35.0,11.0,280.24506490000203,,,,,,,,,,,,,,,,,280.229110399996,280.57800699999643,281.3769803999967,281.3606159999981,,,,,,,,,,,,,,,,,,,,,,,,,,,,,,,,,,,281.3610196000009,281.3769803999967,281.3769803999967,282.0595758999989,g,1.0,0.67898889999924,,,,,sub-210,1,stroop_test,60.03712695807593,
,,,,36.0,0.0,3.0,,,,,,,,,,,,,gelb,red,r,0.0,r,1.0,0.7575065999990329,,,,,,,,,,3.0,0.0,36.0,8.0,282.0758749000015,,,,,,,,,,,,,,,,,282.05986880000273,282.8749664999996,283.69044510000094,283.67386489999626,,,,,,,,,,,,,,,,,,,,,,,,,,,,,,,,,,,283.6741804999984,283.69044510000094,283.69044510000094,284.4563179999968,r,1.0,0.7575065999990329,,,,,sub-210,1,stroop_test,60.03712695807593,
,,,,37.0,1.0,3.0,,,,,,,,,,,,,gelb,yellow,g,1.0,g,1.0,0.9536573000004864,,,,,,,,,,3.0,1.0,37.0,10.0,284.472706200002,,,,,,,,,,,,,,,,,284.45657870000286,284.55608270000084,285.3715293999994,285.3549346,,,,,,,,,,,,,,,,,,,,,,,,,,,,,,,,,,,285.3552797000011,285.3715293999994,285.3715293999994,286.3373088000008,g,1.0,0.9536573000004864,,,,,sub-210,1,stroop_test,60.03712695807593,
,,,,38.0,2.0,3.0,,,,,,,,,,,,,rot,blue,b,0.0,b,1.0,0.558631100000639,,,,,,,,,,3.0,2.0,38.0,2.0,286.3536813999963,,,,,,,,,,,,,,,,,286.3375906000001,287.5520191999967,288.3676422999997,288.35109199999715,,,,,,,,,,,,,,,,,,,,,,,,,,,,,,,,,,,288.3534710000022,288.3676422999997,288.3676422999997,288.9336884000004,b,1.0,0.558631100000639,,,,,sub-210,1,stroop_test,60.03712695807593,
,,,,39.0,3.0,3.0,,,,,,,,,,,,,rot,yellow,g,0.0,g,1.0,0.781974600002286,,,,,,,,,,3.0,3.0,39.0,3.0,288.95018900000287,,,,,,,,,,,,,,,,,288.93397130000085,289.0334518000018,289.83246510000026,289.8162253999981,,,,,,,,,,,,,,,,,,,,,,,,,,,,,,,,,,,289.8168721999973,289.83246510000026,289.83246510000026,290.6153159000023,g,1.0,0.781974600002286,,,,,sub-210,1,stroop_test,60.03712695807593,
,,,,40.0,4.0,3.0,,,,,,,,,,,,,blau,blue,b,1.0,b,1.0,0.9239420000012616,,,,,,,,,,3.0,4.0,40.0,5.0,290.63134179999906,,,,,,,,,,,,,,,,,290.61593999999604,291.8296821999975,292.62880099999893,292.6123987999963,,,,,,,,,,,,,,,,,,,,,,,,,,,,,,,,,,,292.6173893000014,292.62880099999893,292.62880099999893,293.56117999999697,b,1.0,0.9239420000012616,,,,,sub-210,1,stroop_test,60.03712695807593,
,,,,41.0,5.0,3.0,,,,,,,,,,,,,gelb,yellow,g,1.0,g,1.0,0.7421940000058385,,,,,,,,,,3.0,5.0,41.0,11.0,293.5774163000024,,,,,,,,,,,,,,,,,293.5615773000027,294.37665689999994,295.1920056000017,295.17553419999604,,,,,,,,,,,,,,,,,,,,,,,,,,,,,,,,,,,295.1777503999984,295.1920056000017,295.1920056000017,295.9412946000012,g,1.0,0.7421940000058385,,,,,sub-210,1,stroop_test,60.03712695807593,
,,,,42.0,6.0,3.0,,,,,,,,,,,,,rot,red,r,1.0,r,1.0,0.6149259000012535,,,,,,,,,,3.0,6.0,42.0,1.0,295.95753669999976,,,,,,,,,,,,,,,,,295.94163750000007,296.04080149999936,296.856474799999,296.8399988000019,,,,,,,,,,,,,,,,,,,,,,,,,,,,,,,,,,,296.8440131000025,296.856474799999,296.856474799999,297.47251120000146,r,1.0,0.6149259000012535,,,,,sub-210,1,stroop_test,60.03712695807593,
,,,,43.0,7.0,3.0,,,,,,,,,,,,,gelb,blue,b,0.0,b,1.0,1.5134395999994013,,,,,,,,,,3.0,7.0,43.0,9.0,297.48885829999927,,,,,,,,,,,,,,,,,297.4728591000021,298.6873976999996,299.5028974000016,299.48644839999906,,,,,,,,,,,,,,,,,,,,,,,,,,,,,,,,,,,299.48892519999936,299.5028974000016,299.5028974000016,301.0178320999985,b,1.0,1.5134395999994013,,,,,sub-210,1,stroop_test,60.03712695807593,
,,,,44.0,8.0,3.0,,,,,,,,,,,,,blau,blue,b,1.0,b,1.0,0.4863538999998127,,,,,,,,,,3.0,8.0,44.0,6.0,301.0341025000016,,,,,,,,,,,,,,,,,301.01815460000216,301.8334304000018,302.64878119999776,302.6322871000011,,,,,,,,,,,,,,,,,,,,,,,,,,,,,,,,,,,302.63503910000145,302.64878119999776,302.64878119999776,303.1483913999982,b,1.0,0.4863538999998127,,,,,sub-210,1,stroop_test,60.03712695807593,
,,,,45.0,9.0,3.0,,,,,,,,,,,,,blau,yellow,g,0.0,g,1.0,1.390979300005711,,,,,,,,,,3.0,9.0,45.0,7.0,303.1646393999981,,,,,,,,,,,,,,,,,303.14875619999657,303.4979144999961,304.313255699999,304.2967374,,,,,,,,,,,,,,,,,,,,,,,,,,,,,,,,,,,304.29710409999825,304.313255699999,304.313255699999,305.71163420000084,g,1.0,1.390979300005711,,,,,sub-210,1,stroop_test,60.03712695807593,
,,,,46.0,10.0,3.0,,,,,,,,,,,,,rot,red,r,1.0,r,1.0,0.6762754000010318,,,,,,,,,,3.0,10.0,46.0,0.0,305.7279256999973,,,,,,,,,,,,,,,,,305.7119294000004,305.8111878999989,306.6101424000008,306.59375349999755,,,,,,,,,,,,,,,,,,,,,,,,,,,,,,,,,,,306.5963702000008,306.6101424000008,306.6101424000008,307.29288780000206,r,1.0,0.6762754000010318,,,,,sub-210,1,stroop_test,60.03712695807593,
,,,,47.0,11.0,3.0,,,,,,,,,,,,,blau,red,r,0.0,r,1.0,1.1184365000008256,,,,,,,,,,3.0,11.0,47.0,4.0,307.3091773999986,,,,,,,,,,,,,,,,,307.2932486999998,307.3925020999959,308.2081696999958,308.1915391000002,,,,,,,,,,,,,,,,,,,,,,,,,,,,,,,,,,,308.1941733999993,308.2081696999958,308.2081696999958,309.3408660999994,r,1.0,1.1184365000008256,,,,,sub-210,1,stroop_test,60.03712695807593,
,,,,48.0,0.0,4.0,,,,,,,,,,,,,rot,blue,b,0.0,b,1.0,1.0972915999955148,,,,,,,,,,4.0,0.0,48.0,2.0,309.3567275000023,,,,,,,,,,,,,,,,,309.34169629999815,310.55492740000045,311.3705284000025,311.35406330000114,,,,,,,,,,,,,,,,,,,,,,,,,,,,,,,,,,,311.3570994999973,311.3705284000025,311.3705284000025,312.4693982000026,b,1.0,1.0972915999955148,,,,,sub-210,1,stroop_test,60.03712695807593,
,,,,49.0,1.0,4.0,,,,,,,,,,,,,gelb,yellow,g,1.0,g,1.0,0.8250044000014896,,,,,,,,,,4.0,1.0,49.0,11.0,312.4856426999977,,,,,,,,,,,,,,,,,312.4697756000023,313.6841291000019,314.4998157000009,314.48325399999885,,,,,,,,,,,,,,,,,,,,,,,,,,,,,,,,,,,314.48601880000206,314.4998157000009,314.4998157000009,315.332253200002,g,1.0,0.8250044000014896,,,,,sub-210,1,stroop_test,60.03712695807593,
,,,,50.0,2.0,4.0,,,,,,,,,,,,,gelb,red,r,0.0,r,1.0,0.7022243000028539,,,,,,,,,,4.0,2.0,50.0,8.0,315.34850949999964,,,,,,,,,,,,,,,,,315.3325410999969,315.68146700000216,316.4806127999982,316.4642432999972,,,,,,,,,,,,,,,,,,,,,,,,,,,,,,,,,,,316.4650240999981,316.4806127999982,316.4806127999982,317.19694139999774,r,1.0,0.7022243000028539,,,,,sub-210,1,stroop_test,60.03712695807593,
,,,,51.0,3.0,4.0,,,,,,,,,,,,,rot,red,r,1.0,r,1.0,0.5731833000027109,,,,,,,,,,4.0,3.0,51.0,1.0,317.2129251000006,,,,,,,,,,,,,,,,,317.1975764000017,318.0117181999958,318.8272900000011,318.8109199000028,,,,,,,,,,,,,,,,,,,,,,,,,,,,,,,,,,,318.8134420999995,318.8272900000011,318.8272900000011,319.4101329999976,r,1.0,0.5731833000027109,,,,,sub-210,1,stroop_test,60.03712695807593,
,,,,52.0,4.0,4.0,,,,,,,,,,,,,rot,yellow,g,0.0,g,1.0,0.8972644999957993,,,,,,,,,,4.0,4.0,52.0,3.0,319.4264680999986,,,,,,,,,,,,,,,,,319.41045329999906,319.50973240000167,320.30872180000006,320.292303299997,,,,,,,,,,,,,,,,,,,,,,,,,,,,,,,,,,,320.2927939000001,320.30872180000006,320.30872180000006,321.207831599997,g,1.0,0.8972644999957993,,,,,sub-210,1,stroop_test,60.03712695807593,
,,,,53.0,5.0,4.0,,,,,,,,,,,,,blau,red,r,0.0,r,1.0,0.7481327000059537,,,,,,,,,,4.0,5.0,53.0,4.0,321.2241231000007,,,,,,,,,,,,,,,,,321.20816560000094,321.55695209999976,322.372618399997,322.3560470000011,,,,,,,,,,,,,,,,,,,,,,,,,,,,,,,,,,,322.3584322000024,322.372618399997,322.372618399997,323.12214870000025,r,1.0,0.7481327000059537,,,,,sub-210,1,stroop_test,60.03712695807593,
,,,,54.0,6.0,4.0,,,,,,,,,,,,,blau,blue,b,1.0,b,1.0,1.7133329999996931,,,,,,,,,,4.0,6.0,54.0,6.0,323.13828130000184,,,,,,,,,,,,,,,,,323.1226170000009,323.9374680999972,324.7528560999999,324.73627499999566,,,,,,,,,,,,,,,,,,,,,,,,,,,,,,,,,,,324.73663800000213,324.7528560999999,324.7528560999999,326.4674266000002,b,1.0,1.7133329999996931,,,,,sub-210,1,stroop_test,60.03712695807593,
,,,,55.0,7.0,4.0,,,,,,,,,,,,,gelb,blue,b,0.0,b,1.0,0.6830616000006557,,,,,,,,,,4.0,7.0,55.0,9.0,326.4837202999988,,,,,,,,,,,,,,,,,326.46771699999954,327.6822647000008,328.49784419999924,328.4813377000028,,,,,,,,,,,,,,,,,,,,,,,,,,,,,,,,,,,328.4834972999961,328.49784419999924,328.49784419999924,329.19730709999567,b,1.0,0.6830616000006557,,,,,sub-210,1,stroop_test,60.03712695807593,
,,,,56.0,8.0,4.0,,,,,,,,,,,,,rot,red,r,1.0,r,1.0,1.2795890999987023,,,,,,,,,,4.0,8.0,56.0,0.0,329.2134900000019,,,,,,,,,,,,,,,,,329.1976367000025,329.54669170000125,330.3621206000025,330.3457204000006,,,,,,,,,,,,,,,,,,,,,,,,,,,,,,,,,,,330.3497112999976,330.3621206000025,330.3621206000025,331.6442599000002,r,1.0,1.2795890999987023,,,,,sub-210,1,stroop_test,60.03712695807593,
,,,,57.0,9.0,4.0,,,,,,,,,,,,,blau,blue,b,1.0,b,1.0,1.1676431000014418,,,,,,,,,,4.0,9.0,57.0,5.0,331.66042619999644,,,,,,,,,,,,,,,,,331.6448279999968,332.00983299999643,332.8254495000001,332.80909809999866,,,,,,,,,,,,,,,,,,,,,,,,,,,,,,,,,,,332.81315760000143,332.8254495000001,332.8254495000001,334.007549199996,b,1.0,1.1676431000014418,,,,,sub-210,1,stroop_test,60.03712695807593,
,,,,58.0,10.0,4.0,,,,,,,,,,,,,gelb,yellow,g,1.0,g,1.0,1.1533702000015182,,,,,,,,,,4.0,10.0,58.0,10.0,334.02377010000055,,,,,,,,,,,,,,,,,334.00787539999874,334.8227986999991,335.6383833,335.6219248999987,,,,,,,,,,,,,,,,,,,,,,,,,,,,,,,,,,,335.6247971999983,335.6383833,335.6383833,336.8038852999962,g,1.0,1.1533702000015182,,,,,sub-210,1,stroop_test,60.03712695807593,
,,,,59.0,11.0,4.0,,,,,,,,,,,,,blau,yellow,g,0.0,g,1.0,1.5804759000020567,,,,,,,,,,4.0,11.0,59.0,7.0,336.8200543999992,,,,,,,,,,,,,,,,,336.80426720000105,338.0185727999997,338.81789469999785,338.8016024000026,,,,,,,,,,,,,,,,,,,,,,,,,,,,,,,,,,,338.80940140000166,338.81789469999785,338.81789469999785,340.3997864999983,g,1.0,1.5804759000020567,,,,,sub-210,1,stroop_test,60.03712695807593,
,,,,60.0,0.0,5.0,,,,,,,,,,,,,gelb,red,r,0.0,r,1.0,1.5479698999988614,,,,,,,,,,5.0,0.0,60.0,8.0,340.4156049000012,,,,,,,,,,,,,,,,,340.40069409999705,340.4988880000019,341.3141967999982,341.2977621999962,,,,,,,,,,,,,,,,,,,,,,,,,,,,,,,,,,,341.29997580000054,341.3141967999982,341.3141967999982,342.862417999997,r,1.0,1.5479698999988614,,,,,sub-210,1,stroop_test,60.03712695807593,
,,,,61.0,1.0,5.0,,,,,,,,,,,,,gelb,yellow,g,1.0,g,1.0,3.4721459000065806,,,,,,,,,,5.0,1.0,61.0,11.0,342.87868879999587,,,,,,,,,,,,,,,,,342.86267619999853,344.0772270000016,344.89279689999967,344.87633330000244,,,,,,,,,,,,,,,,,,,,,,,,,,,,,,,,,,,344.8767036999998,344.89279689999967,344.89279689999967,348.3717870999972,g,1.0,3.4721459000065806,,,,,sub-210,1,stroop_test,60.03712695807593,
,,,,62.0,2.0,5.0,,,,,,,,,,,,,gelb,blue,b,0.0,b,1.0,1.5953364000015426,,,,,,,,,,5.0,2.0,62.0,9.0,348.3881103000021,,,,,,,,,,,,,,,,,348.3720430999965,348.47135100000014,349.27047049999965,349.2544953999968,,,,,,,,,,,,,,,,,,,,,,,,,,,,,,,,,,,349.2555893000026,349.27047049999965,349.27047049999965,350.8689142000003,b,1.0,1.5953364000015426,,,,,sub-210,1,stroop_test,60.03712695807593,
,,,,63.0,3.0,5.0,,,,,,,,,,,,,rot,red,r,1.0,r,1.0,1.9879216000044837,,,,,,,,,,5.0,3.0,63.0,1.0,350.8849657999963,,,,,,,,,,,,,,,,,350.8695302999986,351.683833199997,352.49934779999603,352.48290570000245,,,,,,,,,,,,,,,,,,,,,,,,,,,,,,,,,,,352.485751799999,352.49934779999603,352.49934779999603,354.49735459999647,r,1.0,1.9879216000044837,,,,,sub-210,1,stroop_test,60.03712695807593,
,,,,64.0,4.0,5.0,,,,,,,,,,,,,rot,blue,b,0.0,b,1.0,0.742454799998086,,,,,,,,,,5.0,4.0,64.0,2.0,354.5134149000005,,,,,,,,,,,,,,,,,354.4979407999999,354.8630178000021,355.6785025999998,355.66194910000195,,,,,,,,,,,,,,,,,,,,,,,,,,,,,,,,,,,355.66235349999624,355.6785025999998,355.6785025999998,356.42778610000096,b,1.0,0.742454799998086,,,,,sub-210,1,stroop_test,60.03712695807593,
,,,,65.0,5.0,5.0,,,,,,,,,,,,,gelb,yellow,g,1.0,g,1.0,1.2083561999970698,,,,,,,,,,5.0,5.0,65.0,10.0,356.4440839000017,,,,,,,,,,,,,,,,,356.42809169999964,356.7769823999988,357.57620090000273,357.56003390000114,,,,,,,,,,,,,,,,,,,,,,,,,,,,,,,,,,,357.5656220000019,357.57620090000273,357.57620090000273,358.7916269999987,g,1.0,1.2083561999970698,,,,,sub-210,1,stroop_test,60.03712695807593,
,,,,66.0,6.0,5.0,,,,,,,,,,,,,blau,blue,b,1.0,b,1.0,0.541862799997034,,,,,,,,,,5.0,6.0,66.0,6.0,358.8078325999959,,,,,,,,,,,,,,,,,358.79221049999614,360.0061515999987,360.821689299999,360.80523790000007,,,,,,,,,,,,,,,,,,,,,,,,,,,,,,,,,,,360.8085301000028,360.821689299999,360.821689299999,361.3715375999964,b,1.0,0.541862799997034,,,,,sub-210,1,stroop_test,60.03712695807593,
,,,,67.0,7.0,5.0,,,,,,,,,,,,,rot,red,r,1.0,r,1.0,0.5327112000013585,,,,,,,,,,5.0,7.0,67.0,0.0,361.38769930000126,,,,,,,,,,,,,,,,,361.3720734000017,361.4709061999965,362.2864303999959,362.2699319000021,,,,,,,,,,,,,,,,,,,,,,,,,,,,,,,,,,,362.2731854000013,362.2864303999959,362.2864303999959,362.8360104000021,r,1.0,0.5327112000013585,,,,,sub-210,1,stroop_test,60.03712695807593,
,,,,68.0,8.0,5.0,,,,,,,,,,,,,blau,blue,b,1.0,b,1.0,0.7843647000045166,,,,,,,,,,5.0,8.0,68.0,5.0,362.85231360000034,,,,,,,,,,,,,,,,,362.8364150999987,362.9355421,363.7344622000019,363.718108699999,,,,,,,,,,,,,,,,,,,,,,,,,,,,,,,,,,,363.7214199000009,363.7344622000019,363.7344622000019,364.5341619000028,b,1.0,0.7843647000045166,,,,,sub-210,1,stroop_test,60.03712695807593,
,,,,69.0,9.0,5.0,,,,,,,,,,,,,rot,yellow,g,0.0,g,1.0,0.8957028000004357,,,,,,,,,,5.0,9.0,69.0,3.0,364.5503138999993,,,,,,,,,,,,,,,,,364.53480059999856,364.6334430999996,365.44897520000086,365.4325422999973,,,,,,,,,,,,,,,,,,,,,,,,,,,,,,,,,,,365.4365710999991,365.44897520000086,365.44897520000086,366.3485389999987,g,1.0,0.8957028000004357,,,,,sub-210,1,stroop_test,60.03712695807593,
,,,,70.0,10.0,5.0,,,,,,,,,,,,,blau,yellow,g,0.0,g,1.0,0.8415820000009262,,,,,,,,,,5.0,10.0,70.0,7.0,366.3645525999964,,,,,,,,,,,,,,,,,366.3492729999998,367.56270689999656,368.3784107999964,368.3619901999991,,,,,,,,,,,,,,,,,,,,,,,,,,,,,,,,,,,368.3654250999971,368.3784107999964,368.3784107999964,369.2276064999969,g,1.0,0.8415820000009262,,,,,sub-210,1,stroop_test,60.03712695807593,
,,,,71.0,11.0,5.0,,,,,,,,,,,,,blau,red,r,0.0,r,1.0,1.030588399997214,,,,,,,,,,5.0,11.0,71.0,4.0,369.24393509999936,,,,,,,,,,,,,,,,,369.22809360000247,370.0428561000008,370.8584228999971,370.8421971999997,,,,,,,,,,,,,,,,,,,,,,,,,,,,,,,,,,,370.84269979999954,370.8584228999971,370.8584228999971,371.8906635000021,r,1.0,1.030588399997214,,,,,sub-210,1,stroop_test,60.03712695807593,
,,,,72.0,0.0,6.0,,,,,,,,,,,,,gelb,blue,b,0.0,b,1.0,1.1275987999979409,,,,,,,,,,6.0,0.0,72.0,9.0,371.9070068000001,,,,,,,,,,,,,,,,,371.8909760999959,371.99017759999697,372.7893288999985,372.773113999996,,,,,,,,,,,,,,,,,,,,,,,,,,,,,,,,,,,372.7786838999964,372.7893288999985,372.7893288999985,373.9213517999961,b,1.0,1.1275987999979409,,,,,sub-210,1,stroop_test,60.03712695807593,
,,,,73.0,1.0,6.0,,,,,,,,,,,,,rot,red,r,1.0,r,1.0,0.5973231000025407,,,,,,,,,,6.0,1.0,73.0,0.0,373.9376649999977,,,,,,,,,,,,,,,,,373.9217365000004,375.1363530000017,375.95176619999984,375.9352845999965,,,,,,,,,,,,,,,,,,,,,,,,,,,,,,,,,,,375.9379428999964,375.95176619999984,375.95176619999984,376.5512378999993,r,1.0,0.5973231000025407,,,,,sub-210,1,stroop_test,60.03712695807593,
,,,,74.0,2.0,6.0,,,,,,,,,,,,,rot,blue,b,0.0,b,1.0,1.050303600000916,,,,,,,,,,6.0,2.0,74.0,2.0,376.5675263000012,,,,,,,,,,,,,,,,,376.55162389999896,376.9004644000015,377.7159143000026,377.699569999997,,,,,,,,,,,,,,,,,,,,,,,,,,,,,,,,,,,377.6999819999983,377.7159143000026,377.7159143000026,378.7813692999989,b,1.0,1.050303600000916,,,,,sub-210,1,stroop_test,60.03712695807593,
,,,,75.0,3.0,6.0,,,,,,,,,,,,,gelb,yellow,g,1.0,g,1.0,0.5715512000024319,,,,,,,,,,6.0,3.0,75.0,10.0,378.797779200002,,,,,,,,,,,,,,,,,378.7816556999969,379.130771199998,379.946351999999,379.9298149000024,,,,,,,,,,,,,,,,,,,,,,,,,,,,,,,,,,,379.9324068999995,379.946351999999,379.946351999999,380.5292907999974,g,1.0,0.5715512000024319,,,,,sub-210,1,stroop_test,60.03712695807593,
,,,,76.0,4.0,6.0,,,,,,,,,,,,,rot,yellow,g,0.0,g,1.0,0.9566678999981376,,,,,,,,,,6.0,4.0,76.0,3.0,380.5454299999983,,,,,,,,,,,,,,,,,380.52959779999946,381.74394960000063,382.55955600000016,382.5429749999967,,,,,,,,,,,,,,,,,,,,,,,,,,,,,,,,,,,382.54538460000185,382.55955600000016,382.55955600000016,383.5252529999998,g,1.0,0.9566678999981376,,,,,sub-210,1,stroop_test,60.03712695807593,
,,,,77.0,5.0,6.0,,,,,,,,,,,,,blau,red,r,0.0,r,1.0,0.6413437000010163,,,,,,,,,,6.0,5.0,77.0,4.0,383.5415800999981,,,,,,,,,,,,,,,,,383.5255662999989,383.8744492999977,384.6900134000025,384.6735523000025,,,,,,,,,,,,,,,,,,,,,,,,,,,,,,,,,,,384.6758986999994,384.6900134000025,384.6900134000025,385.3395300999982,r,1.0,0.6413437000010163,,,,,sub-210,1,stroop_test,60.03712695807593,
,,,,78.0,6.0,6.0,,,,,,,,,,,,,gelb,red,r,0.0,r,1.0,0.7057429000051343,,,,,,,,,,6.0,6.0,78.0,8.0,385.355784899999,,,,,,,,,,,,,,,,,385.3398401000013,386.55420449999656,387.3532522000023,387.3367665999977,,,,,,,,,,,,,,,,,,,,,,,,,,,,,,,,,,,387.3391402999987,387.3532522000023,387.3532522000023,388.0692033000014,r,1.0,0.7057429000051343,,,,,sub-210,1,stroop_test,60.03712695807593,
,,,,79.0,7.0,6.0,,,,,,,,,,,,,blau,blue,b,1.0,b,1.0,1.0381403999999748,,,,,,,,,,6.0,7.0,79.0,5.0,388.08548970000265,,,,,,,,,,,,,,,,,388.06954830000177,388.88441749999765,389.68353919999936,389.6670121999996,,,,,,,,,,,,,,,,,,,,,,,,,,,,,,,,,,,389.6700416999957,389.68353919999936,389.68353919999936,390.7323610000021,b,1.0,1.0381403999999748,,,,,sub-210,1,stroop_test,60.03712695807593,
,,,,80.0,8.0,6.0,,,,,,,,,,,,,blau,yellow,g,0.0,g,1.0,0.6817699000021094,,,,,,,,,,6.0,8.0,80.0,7.0,390.7486199999985,,,,,,,,,,,,,,,,,390.7326927999966,391.54771569999866,392.36357940000016,392.3469121000017,,,,,,,,,,,,,,,,,,,,,,,,,,,,,,,,,,,392.3475321000005,392.36357940000016,392.36357940000016,393.0466473999986,g,1.0,0.6817699000021094,,,,,sub-210,1,stroop_test,60.03712695807593,
,,,,81.0,9.0,6.0,,,,,,,,,,,,,gelb,yellow,g,1.0,g,1.0,0.4526626000006217,,,,,,,,,,6.0,9.0,81.0,11.0,393.0626068999991,,,,,,,,,,,,,,,,,393.04746519999753,394.26066819999687,395.06011269999726,395.0436991000024,,,,,,,,,,,,,,,,,,,,,,,,,,,,,,,,,,,395.0499820999976,395.06011269999726,395.06011269999726,395.5262708000009,g,1.0,0.4526626000006217,,,,,sub-210,1,stroop_test,60.03712695807593,
,,,,82.0,10.0,6.0,,,,,,,,,,,,,rot,red,r,1.0,r,1.0,0.5830339000021922,,,,,,,,,,6.0,10.0,82.0,1.0,395.5424043000021,,,,,,,,,,,,,,,,,395.5266588000013,395.8755794000026,396.69082699999854,396.6743476999982,,,,,,,,,,,,,,,,,,,,,,,,,,,,,,,,,,,396.67792290000216,396.69082699999854,396.69082699999854,397.2903147999969,r,1.0,0.5830339000021922,,,,,sub-210,1,stroop_test,60.03712695807593,
,,,,83.0,11.0,6.0,,,,,,,,,,,,,blau,blue,b,1.0,b,1.0,0.5117715999949723,,,,,,,,,,6.0,11.0,83.0,6.0,397.3065927999996,,,,,,,,,,,,,,,,,397.2906293999986,397.38986730000033,398.2055115999974,398.1888919999983,,,,,,,,,,,,,,,,,,,,,,,,,,,,,,,,,,,398.19114750000153,398.2055115999974,398.2055115999974,398.7217973000006,b,1.0,0.5117715999949723,,,,,sub-210,1,stroop_test,60.03712695807593,
,,,,84.0,0.0,7.0,,,,,,,,,,,,,rot,red,r,1.0,r,1.0,0.8938801999975112,,,,,,,,,,7.0,0.0,84.0,1.0,398.7381440999961,,,,,,,,,,,,,,,,,398.7220967999965,399.07101690000127,399.8703171000016,399.8540453000023,,,,,,,,,,,,,,,,,,,,,,,,,,,,,,,,,,,399.8620052999977,399.8703171000016,399.8703171000016,400.7690128999966,r,1.0,0.8938801999975112,,,,,sub-210,1,stroop_test,60.03712695807593,
,,,,85.0,1.0,7.0,,,,,,,,,,,,,blau,blue,b,1.0,b,1.0,0.5613191000011284,,,,,,,,,,7.0,1.0,85.0,5.0,400.7853478999969,,,,,,,,,,,,,,,,,400.7693113999994,400.8686431999959,401.6677294999972,401.65134569999645,,,,,,,,,,,,,,,,,,,,,,,,,,,,,,,,,,,401.6561599999986,401.6677294999972,401.6677294999972,402.2337888999973,b,1.0,0.5613191000011284,,,,,sub-210,1,stroop_test,60.03712695807593,
,,,,86.0,2.0,7.0,,,,,,,,,,,,,rot,yellow,g,0.0,g,1.0,0.508169499997166,,,,,,,,,,7.0,2.0,86.0,3.0,402.2500858999993,,,,,,,,,,,,,,,,,402.2341190000007,402.3333931000016,403.1323976999993,403.1160281999983,,,,,,,,,,,,,,,,,,,,,,,,,,,,,,,,,,,403.1196589999963,403.1323976999993,403.1323976999993,403.6487456999967,g,1.0,0.508169499997166,,,,,sub-210,1,stroop_test,60.03712695807593,
,,,,87.0,3.0,7.0,,,,,,,,,,,,,gelb,yellow,g,1.0,g,1.0,0.4919826999976067,,,,,,,,,,7.0,3.0,87.0,11.0,403.665058999999,,,,,,,,,,,,,,,,,403.6492115000001,403.7482004999984,404.5637339000023,404.5472630000004,,,,,,,,,,,,,,,,,,,,,,,,,,,,,,,,,,,404.5498890000017,404.5637339000023,404.5637339000023,405.0632948999992,g,1.0,0.4919826999976067,,,,,sub-210,1,stroop_test,60.03712695807593,
,,,,88.0,4.0,7.0,,,,,,,,,,,,,rot,red,r,1.0,r,1.0,0.5760778999974718,,,,,,,,,,7.0,4.0,88.0,0.0,405.07960150000144,,,,,,,,,,,,,,,,,405.0635545999976,405.4125752999971,406.2117375000016,406.19565619999776,,,,,,,,,,,,,,,,,,,,,,,,,,,,,,,,,,,406.20375570000033,406.2117375000016,406.2117375000016,406.79511520000233,r,1.0,0.5760778999974718,,,,,sub-210,1,stroop_test,60.03712695807593,
,,,,89.0,5.0,7.0,,,,,,,,,,,,,gelb,yellow,g,1.0,g,1.0,0.6540397999997367,,,,,,,,,,7.0,5.0,89.0,10.0,406.8110719999968,,,,,,,,,,,,,,,,,406.7959508999993,406.8942668000018,407.70965050000086,407.6932012999969,,,,,,,,,,,,,,,,,,,,,,,,,,,,,,,,,,,407.6968787000005,407.70965050000086,407.70965050000086,408.3756714999981,g,1.0,0.6540397999997367,,,,,sub-210,1,stroop_test,60.03712695807593,
,,,,90.0,6.0,7.0,,,,,,,,,,,,,gelb,red,r,0.0,g,0.0,1.012256800000614,,,,,,,,,,7.0,6.0,90.0,8.0,408.39197799999965,,,,,,,,,,,,,,,,,408.37599229999614,408.4752040999956,409.2742197999978,409.2579484000016,,,,,,,,,,,,,,,,,,,,,,,,,,,,,,,,,,,409.258533399996,409.2742197999978,409.2742197999978,410.2903414999964,g,0.0,1.012256800000614,,,,,sub-210,1,stroop_test,60.03712695807593,
,,,,91.0,7.0,7.0,,,,,,,,,,,,,gelb,blue,b,0.0,b,1.0,0.9313219000032404,,,,,,,,,,7.0,7.0,91.0,9.0,410.3063129000002,,,,,,,,,,,,,,,,,410.2910081000009,410.3895349000013,411.2049752000021,411.1886259000021,,,,,,,,,,,,,,,,,,,,,,,,,,,,,,,,,,,411.1892259000015,411.2049752000021,411.2049752000021,412.1375967999993,b,1.0,0.9313219000032404,,,,,sub-210,1,stroop_test,60.03712695807593,
,,,,92.0,8.0,7.0,,,,,,,,,,,,,blau,red,r,0.0,r,1.0,1.4386068999956478,,,,,,,,,,7.0,8.0,92.0,4.0,412.1537056000016,,,,,,,,,,,,,,,,,412.1380482999957,412.23687749999954,413.0359757999977,413.01947839999775,,,,,,,,,,,,,,,,,,,,,,,,,,,,,,,,,,,413.0234608999963,413.0359757999977,413.0359757999977,414.4843215000001,r,1.0,1.4386068999956478,,,,,sub-210,1,stroop_test,60.03712695807593,
,,,,93.0,9.0,7.0,,,,,,,,,,,,,blau,yellow,g,0.0,g,1.0,1.924735900000087,,,,,,,,,,7.0,9.0,93.0,7.0,414.5005179,,,,,,,,,,,,,,,,,414.4846305000028,414.8334351000012,415.6324542000002,415.6159804999989,,,,,,,,,,,,,,,,,,,,,,,,,,,,,,,,,,,415.6163785999961,415.6324542000002,415.6324542000002,417.5635120000006,g,1.0,1.924735900000087,,,,,sub-210,1,stroop_test,60.03712695807593,
,,,,94.0,10.0,7.0,,,,,,,,,,,,,blau,blue,b,1.0,b,1.0,0.7107028999962495,,,,,,,,,,7.0,10.0,94.0,6.0,417.5797181000016,,,,,,,,,,,,,,,,,417.5638197000008,418.77874200000224,419.5938526999962,419.5773311000012,,,,,,,,,,,,,,,,,,,,,,,,,,,,,,,,,,,419.57770829999936,419.5938526999962,419.5938526999962,420.3098919999975,b,1.0,0.7107028999962495,,,,,sub-210,1,stroop_test,60.03712695807593,
,,,,95.0,11.0,7.0,,,,,,,,,,,,,rot,blue,b,0.0,b,1.0,1.7758631000033347,,,,,,,,,,7.0,11.0,95.0,2.0,420.3261536999999,,,,,,,,,,,,,,,,,420.3101763000013,421.5246699999989,422.3401731999984,422.32377540000016,,,,,,,,,,,,,,,,,,,,,,,,,,,,,,,,,,,422.32644309999887,422.3401731999984,422.3401731999984,424.1217493000004,b,1.0,1.7758631000033347,,,,,sub-210,1,stroop_test,60.03712695807593,
,,,,96.0,0.0,8.0,,,,,,,,,,,,,blau,red,r,0.0,r,1.0,1.3425050000005283,,,,,,,,,,8.0,0.0,96.0,4.0,424.1377973999988,,,,,,,,,,,,,,,,,424.1222848999969,424.9367216000028,425.7359990999976,425.7197306000016,,,,,,,,,,,,,,,,,,,,,,,,,,,,,,,,,,,425.7268413999991,425.7359990999976,425.7359990999976,427.0842879999982,r,1.0,1.3425050000005283,,,,,sub-210,1,stroop_test,60.03712695807593,
,,,,97.0,1.0,8.0,,,,,,,,,,,,,blau,blue,b,1.0,b,1.0,1.567280800001754,,,,,,,,,,8.0,1.0,97.0,6.0,427.1004994999967,,,,,,,,,,,,,,,,,427.0846421000024,428.2989278000023,429.1146695999996,429.0982284999991,,,,,,,,,,,,,,,,,,,,,,,,,,,,,,,,,,,429.0987555999964,429.1146695999996,429.1146695999996,430.69608380000136,b,1.0,1.567280800001754,,,,,sub-210,1,stroop_test,60.03712695807593,
,,,,98.0,2.0,8.0,,,,,,,,,,,,,gelb,red,r,0.0,r,1.0,0.8659756000051857,,,,,,,,,,8.0,2.0,98.0,8.0,430.7123720000018,,,,,,,,,,,,,,,,,430.6963825999992,430.7956503000023,431.6113097999987,431.594909499996,,,,,,,,,,,,,,,,,,,,,,,,,,,,,,,,,,,431.59862849999627,431.6113097999987,431.6113097999987,432.4937849999988,r,1.0,0.8659756000051857,,,,,sub-210,1,stroop_test,60.03712695807593,
,,,,99.0,3.0,8.0,,,,,,,,,,,,,rot,blue,b,0.0,r,0.0,1.4284620999969777,,,,,,,,,,8.0,3.0,99.0,2.0,432.5100640000019,,,,,,,,,,,,,,,,,432.4940736999997,433.70848549999937,434.5241535000023,434.50760479999735,,,,,,,,,,,,,,,,,,,,,,,,,,,,,,,,,,,434.5108659999969,434.5241535000023,434.5241535000023,435.9557464000027,r,0.0,1.4284620999969777,,,,,sub-210,1,stroop_test,60.03712695807593,
,,,,100.0,4.0,8.0,,,,,,,,,,,,,gelb,yellow,g,1.0,g,1.0,2.035907199999201,,,,,,,,,,8.0,4.0,100.0,10.0,435.97207699999854,,,,,,,,,,,,,,,,,435.9560225999958,436.05531170000177,436.85430279999855,436.8383323000016,,,,,,,,,,,,,,,,,,,,,,,,,,,,,,,,,,,436.8436306000003,436.85430279999855,436.85430279999855,438.9019265000025,g,1.0,2.035907199999201,,,,,sub-210,1,stroop_test,60.03712695807593,
,,,,101.0,5.0,8.0,,,,,,,,,,,,,gelb,blue,b,0.0,b,1.0,1.609383799994248,,,,,,,,,,8.0,5.0,101.0,9.0,438.918179399996,,,,,,,,,,,,,,,,,438.9022715000028,439.7175128000017,440.53285080000205,440.5164683999974,,,,,,,,,,,,,,,,,,,,,,,,,,,,,,,,,,,440.51711120000255,440.53285080000205,440.53285080000205,442.1475848999981,b,1.0,1.609383799994248,,,,,sub-210,1,stroop_test,60.03712695807593,
,,,,102.0,6.0,8.0,,,,,,,,,,,,,blau,blue,b,1.0,b,1.0,0.8350411999999778,,,,,,,,,,8.0,6.0,102.0,5.0,442.1638985000027,,,,,,,,,,,,,,,,,442.14786450000247,442.4967602999968,443.29579730000114,443.2793339999989,,,,,,,,,,,,,,,,,,,,,,,,,,,,,,,,,,,443.28211510000256,443.29579730000114,443.29579730000114,444.1450102000017,b,1.0,0.8350411999999778,,,,,sub-210,1,stroop_test,60.03712695807593,
,,,,103.0,7.0,8.0,,,,,,,,,,,,,rot,yellow,g,0.0,g,1.0,1.5518360999994911,,,,,,,,,,8.0,7.0,103.0,3.0,444.161245299998,,,,,,,,,,,,,,,,,444.1452888999993,444.4941111000008,445.2931830000016,445.27671009999904,,,,,,,,,,,,,,,,,,,,,,,,,,,,,,,,,,,445.2793663999983,445.2931830000016,445.2931830000016,446.85794870000245,g,1.0,1.5518360999994911,,,,,sub-210,1,stroop_test,60.03712695807593,
,,,,104.0,8.0,8.0,,,,,,,,,,,,,gelb,yellow,g,1.0,g,1.0,1.7270179000042845,,,,,,,,,,8.0,8.0,104.0,11.0,446.8742428999976,,,,,,,,,,,,,,,,,446.8582382999957,447.2072475000023,448.0063334000006,447.98999889999686,,,,,,,,,,,,,,,,,,,,,,,,,,,,,,,,,,,447.9941067999971,448.0063334000006,448.0063334000006,449.7375405999992,g,1.0,1.7270179000042845,,,,,sub-210,1,stroop_test,60.03712695807593,
,,,,105.0,9.0,8.0,,,,,,,,,,,,,rot,red,r,1.0,r,1.0,0.7966028000009828,,,,,,,,,,8.0,9.0,105.0,0.0,449.7537690999961,,,,,,,,,,,,,,,,,449.7378554000025,450.9522211000003,451.7678831000012,451.751348400001,,,,,,,,,,,,,,,,,,,,,,,,,,,,,,,,,,,451.75403489999735,451.7678831000012,451.7678831000012,452.56731690000015,r,1.0,0.7966028000009828,,,,,sub-210,1,stroop_test,60.03712695807593,
,,,,106.0,10.0,8.0,,,,,,,,,,,,,blau,yellow,g,0.0,g,1.0,1.210673699999461,,,,,,,,,,8.0,10.0,106.0,7.0,452.58356459999777,,,,,,,,,,,,,,,,,452.56782029999886,453.7820492000028,454.5974855000022,454.580962,,,,,,,,,,,,,,,,,,,,,,,,,,,,,,,,,,,454.5837687000021,454.5974855000022,454.5974855000022,455.8127930999981,g,1.0,1.210673699999461,,,,,sub-210,1,stroop_test,60.03712695807593,
,,,,107.0,11.0,8.0,,,,,,,,,,,,,rot,red,r,1.0,r,1.0,1.4329102999981842,,,,,,,,,,8.0,11.0,107.0,1.0,455.8291368999999,,,,,,,,,,,,,,,,,455.8130825999978,456.62810580000223,457.4436808000028,457.4272092000029,,,,,,,,,,,,,,,,,,,,,,,,,,,,,,,,,,,457.4298082000023,457.4436808000028,457.4436808000028,458.892188400001,r,1.0,1.4329102999981842,,,,,sub-210,1,stroop_test,60.03712695807593,
,,,,108.0,0.0,9.0,,,,,,,,,,,,,rot,red,r,1.0,r,1.0,0.5583752000020468,,,,,,,,,,9.0,0.0,108.0,0.0,458.90839140000026,,,,,,,,,,,,,,,,,458.8925949999975,459.2412934000022,460.0403592000002,460.02389109999785,,,,,,,,,,,,,,,,,,,,,,,,,,,,,,,,,,,460.024479599997,460.0403592000002,460.0403592000002,460.6064839999962,r,1.0,0.5583752000020468,,,,,sub-210,1,stroop_test,60.03712695807593,
,,,,109.0,1.0,9.0,,,,,,,,,,,,,blau,yellow,g,0.0,g,1.0,1.6808747000031872,,,,,,,,,,9.0,1.0,109.0,7.0,460.62273899999855,,,,,,,,,,,,,,,,,460.6068282999986,460.95568099999946,461.7548676000006,461.7384023999985,,,,,,,,,,,,,,,,,,,,,,,,,,,,,,,,,,,461.7434218999988,461.7548676000006,461.7548676000006,463.4361721999958,g,1.0,1.6808747000031872,,,,,sub-210,1,stroop_test,60.03712695807593,
,,,,110.0,2.0,9.0,,,,,,,,,,,,,blau,blue,b,1.0,b,1.0,2.194396600003529,,,,,,,,,,9.0,2.0,110.0,6.0,463.452317700001,,,,,,,,,,,,,,,,,463.4365445000003,463.801875600002,464.6008981999985,464.58447069999966,,,,,,,,,,,,,,,,,,,,,,,,,,,,,,,,,,,464.58491499999946,464.6008981999985,464.6008981999985,466.7982485999965,b,1.0,2.194396600003529,,,,,sub-210,1,stroop_test,60.03712695807593,
,,,,111.0,3.0,9.0,,,,,,,,,,,,,blau,red,r,0.0,g,0.0,0.9511517999999342,,,,,,,,,,9.0,3.0,111.0,4.0,466.8145796999961,,,,,,,,,,,,,,,,,466.79854859999614,466.89776379999967,467.69711780000216,467.6808440000023,,,,,,,,,,,,,,,,,,,,,,,,,,,,,,,,,,,467.6819219000026,467.69711780000216,467.69711780000216,468.6624948000026,g,0.0,0.9511517999999342,,,,,sub-210,1,stroop_test,60.03712695807593,
,,,,112.0,4.0,9.0,,,,,,,,,,,,,rot,red,r,1.0,r,1.0,1.5703410999994958,,,,,,,,,,9.0,4.0,112.0,1.0,468.6787098999994,,,,,,,,,,,,,,,,,468.6628292000023,468.7620405999987,469.5775807999962,469.56118969999807,,,,,,,,,,,,,,,,,,,,,,,,,,,,,,,,,,,469.5637687999988,469.5775807999962,469.5775807999962,471.1591191999978,r,1.0,1.5703410999994958,,,,,sub-210,1,stroop_test,60.03712695807593,
,,,,113.0,5.0,9.0,,,,,,,,,,,,,gelb,red,r,0.0,r,1.0,0.5598718000037479,,,,,,,,,,9.0,5.0,113.0,8.0,471.1754331999982,,,,,,,,,,,,,,,,,471.1594072000007,471.2587397000025,472.0744118000002,472.0579922999968,,,,,,,,,,,,,,,,,,,,,,,,,,,,,,,,,,,472.060313199996,472.0744118000002,472.0744118000002,472.6405408999999,r,1.0,0.5598718000037479,,,,,sub-210,1,stroop_test,60.03712695807593,
,,,,114.0,6.0,9.0,,,,,,,,,,,,,blau,blue,b,1.0,b,1.0,2.6471681999973957,,,,,,,,,,9.0,6.0,114.0,5.0,472.6567864999961,,,,,,,,,,,,,,,,,472.6408733999997,473.4557492000022,474.2547826000009,474.23828359999607,,,,,,,,,,,,,,,,,,,,,,,,,,,,,,,,,,,474.24086479999823,474.2547826000009,474.2547826000009,476.91896789999737,b,1.0,2.6471681999973957,,,,,sub-210,1,stroop_test,60.03712695807593,
,,,,115.0,7.0,9.0,,,,,,,,,,,,,gelb,yellow,g,1.0,g,1.0,1.3244699999995646,,,,,,,,,,9.0,7.0,115.0,11.0,476.93485209999926,,,,,,,,,,,,,,,,,476.919790699998,477.7334513000024,478.5491043000002,478.5326143999992,,,,,,,,,,,,,,,,,,,,,,,,,,,,,,,,,,,478.5351014999978,478.5491043000002,478.5491043000002,479.88158880000265,g,1.0,1.3244699999995646,,,,,sub-210,1,stroop_test,60.03712695807593,
,,,,116.0,8.0,9.0,,,,,,,,,,,,,rot,blue,b,0.0,b,1.0,1.104960000004212,,,,,,,,,,9.0,8.0,116.0,2.0,479.8975492000027,,,,,,,,,,,,,,,,,479.8823243000006,480.69617489999655,481.5118078000014,481.4953033999991,,,,,,,,,,,,,,,,,,,,,,,,,,,,,,,,,,,481.4977081999969,481.5118078000014,481.5118078000014,482.62727849999646,b,1.0,1.104960000004212,,,,,sub-210,1,stroop_test,60.03712695807593,
,,,,117.0,9.0,9.0,,,,,,,,,,,,,rot,yellow,g,0.0,g,1.0,1.6059943000000203,,,,,,,,,,9.0,9.0,117.0,3.0,482.6435861999999,,,,,,,,,,,,,,,,,482.6275609000004,482.9765403999991,483.7921279000002,483.7756981999992,,,,,,,,,,,,,,,,,,,,,,,,,,,,,,,,,,,483.77607649999845,483.7921279000002,483.7921279000002,485.4073425999959,g,1.0,1.6059943000000203,,,,,sub-210,1,stroop_test,60.03712695807593,
,,,,118.0,10.0,9.0,,,,,,,,,,,,,gelb,blue,b,0.0,b,1.0,2.092049300001236,,,,,,,,,,9.0,10.0,118.0,9.0,485.42339640000137,,,,,,,,,,,,,,,,,485.4079153999992,486.2222872999992,487.0378742999965,487.0213403000016,,,,,,,,,,,,,,,,,,,,,,,,,,,,,,,,,,,487.0242390999993,487.0378742999965,487.0378742999965,489.1354807000025,b,1.0,2.092049300001236,,,,,sub-210,1,stroop_test,60.03712695807593,
,,,,119.0,11.0,9.0,,,,,,,,,,,,,gelb,yellow,g,1.0,g,1.0,0.9582376999969712,,,,,,,,,,9.0,11.0,119.0,10.0,489.1517442999975,,,,,,,,,,,,,,,,,489.1360082999963,489.9507541999992,490.7662224000014,490.749710600001,,,,,,,,,,,,,,,,,,,,,,,,,,,,,,,,,,,490.7501016999959,490.7662224000014,490.7662224000014,491.73184919999767,g,1.0,0.9582376999969712,,,,,sub-210,1,stroop_test,60.03712695807593,
,,,,,,,,,,,,,,,,,,,,,,,,,,,,,,,,,,,,,,,,,,,,,,,,,,,,,,,,,,,,,,,,,,,,,,,,,,,,,,,,,,,,,,,,,,,,,,,,,,,,,,491.7319967000003,491.7483079000013,496.7418072,sub-210,1,stroop_test,60.03712695807593,
