direction,corrAns,randomInstr,practice_trials.thisRepN,practice_trials.thisTrialN,practice_trials.thisN,practice_trials.thisIndex,instr_trials.thisRepN,instr_trials.thisTrialN,instr_trials.thisN,instr_trials.thisIndex,test_trials.thisRepN,test_trials.thisTrialN,test_trials.thisN,test_trials.thisIndex,thisRow.t,notes,general_instruction.started,textGeneralInstr.started,respGeneralInstr.started,general_instruction.stopped,respGeneralInstr.keys,respGeneralInstr.rt,respGeneralInstr.duration,ITI.started,fixcross.started,fixcross.stopped,ITI.stopped,dots.started,backgroundDots.started,stimulusDots.started,respDots.started,dots.stopped,respDots.keys,respDots.corr,respDots.rt,respDots.duration,feedback.started,textFeedback.started,feedback.stopped,textFeedback.stopped,info.started,textInfo.started,keyRespInfo.started,info.stopped,keyRespInfo.keys,keyRespInfo.rt,keyRespInfo.duration,test_instruction.started,textTestInstr.started,respTestInstr.started,test_instruction.stopped,respTestInstr.keys,respTestInstr.rt,respTestInstr.duration,random_instruction.started,textRandomInstr.started,respRandomInstr.started,random_instruction.stopped,respRandomInstr.keys,respRandomInstr.rt,respRandomInstr.duration,goodbye.started,textGoodbye.started,textGoodbye.stopped,goodbye.stopped,participant,session,expName,frameRate,Unnamed: 73
,,,,,,,,,,,,,,,,,0.0049331999616697,0.0111635999055579,0.0111635999055579,32.80710979993455,space,72.65449520014226,,,,,,,,,,,,,,,,,,,,,,,,,,,,,,,,,,,,,,,,,,,,sub-238,2.0,random_dot,60.17564068042374,
left,left,,0.0,0.0,0.0,0.0,,,,,,,,,32.892573199933395,,,,,,,,,32.88718879991211,32.90198579989374,33.71794519992545,33.688565099961124,33.68863059999421,33.71794519992545,33.71794519992545,33.71794519992545,38.15659109991975,left,1.0,44.30196910002269,,38.15899569995236,38.18494869989809,38.67006399994716,,,,,,,,,,,,,,,,,,,,,,,,,,,sub-238,2.0,random_dot,60.17564068042374,
right,right,,0.0,1.0,1.0,1.0,,,,,,,,,38.68647469999269,,,,,,,,,38.67115779989399,39.019694199902005,39.82049259997439,39.8043373998953,39.80440019990783,39.82049259997439,39.82049259997439,39.82049259997439,41.23977979994379,right,1.0,41.29157850006595,,41.24137469998095,41.25275099999271,41.73748549993616,41.75259489996824,,,,,,,,,,,,,,,,,,,,,,,,,,sub-238,2.0,random_dot,60.17564068042374,
left,left,,1.0,0.0,2.0,0.0,,,,,,,,,41.75259489996824,,,,,,,,,41.73860129993409,42.55262119998224,43.35328659997322,43.33728859992698,43.337373699992895,43.35328659997322,43.35328659997322,43.35328659997322,44.67267919995356,left,1.0,41.18686980009079,,44.67423789994791,44.6856523999013,45.1705520999385,45.18560009996872,,,,,,,,,,,,,,,,,,,,,,,,,,sub-238,2.0,random_dot,60.17564068042374,
right,right,,1.0,1.0,3.0,1.0,,,,,,,,,45.18560009996872,,,,,,,,,45.171734699979424,45.28548359998968,46.08634699997492,46.07045909995213,46.070520799956284,46.08634699997492,46.08634699997492,46.08634699997492,47.40547629992943,left,0.0,41.180161900119856,,47.40713429998141,47.43112329998985,47.91891999996733,,,,,,,,,,,,,,,,,,,,,,,,,,,sub-238,2.0,random_dot,60.17564068042374,
left,left,,2.0,0.0,4.0,0.0,,,,,,,,,47.93512609996833,,,,,,,,,47.92001859995071,49.11832239991054,49.919218899915,49.903137099929154,49.90319939993788,49.919218899915,49.919218899915,49.919218899915,51.305218399968,right,0.0,41.24503430002369,,51.30691069993191,51.31810279993806,51.80299869994633,51.818129399907775,,,,,,,,,,,,,,,,,,,,,,,,,,sub-238,2.0,random_dot,60.17564068042374,
right,right,,2.0,1.0,5.0,1.0,,,,,,,,,51.818129399907775,,,,,,,,,51.804138099891134,53.01795509993099,53.818609299953096,53.80272809998132,53.80279059999157,53.818609299953096,53.818609299953096,53.818609299953096,56.80426789994817,left,0.0,42.84396000008565,,56.80599579995032,56.8173810999142,57.30221159989014,57.31736679992173,,,,,,,,,,,,,,,,,,,,,,,,,,sub-238,2.0,random_dot,60.17564068042374,
left,left,,3.0,0.0,6.0,0.0,,,,,,,,,57.31736679992173,,,,,,,,,57.303390999906696,58.11720310000237,58.918090499937534,58.902094499906525,58.90215819992591,58.918090499937534,58.918090499937534,58.918090499937534,62.03719750000164,right,0.0,42.988366300123744,,62.03879969997797,62.050131600000896,62.53495689993724,62.55005219997838,,,,,,,,,,,,,,,,,,,,,,,,,,sub-238,2.0,random_dot,60.17564068042374,
right,right,,3.0,1.0,7.0,1.0,,,,,,,,,62.55005219997838,,,,,,,,,62.53610179992393,63.349862699978985,64.15067899995483,64.1345443999162,64.13460719992872,64.15067899995483,64.15067899995483,64.15067899995483,66.4362448999891,left,0.0,42.14686910004821,,66.43781609996222,66.44942729989998,66.93443969998043,66.94933209998999,,,,,,,,,,,,,,,,,,,,,,,,,,sub-238,2.0,random_dot,60.17564068042374,
right,right,,4.0,0.0,8.0,1.0,,,,,,,,,66.94933209998999,,,,,,,,,66.93568789993878,68.14934139989782,68.94994009996299,68.93410319997929,68.93416609999258,68.94994009996299,68.94994009996299,68.94994009996299,71.5690361999441,right,1.0,42.485651200055145,,71.57070359995123,71.58868289995007,72.08245309989434,,,,,,,,,,,,,,,,,,,,,,,,,,,sub-238,2.0,random_dot,60.17564068042374,
left,left,,4.0,1.0,9.0,0.0,,,,,,,,,72.09882239997387,,,,,,,,,72.08354339993093,73.28200149990153,74.08287859999109,74.066582200001,74.06664479989558,74.08287859999109,74.08287859999109,74.08287859999109,75.25288099993486,left,1.0,41.04345030011609,,75.25447739998344,75.26495479990263,75.74983319989406,75.76490259997081,,,,,,,,,,,,,,,,,,,,,,,,,,sub-238,2.0,random_dot,60.17564068042374,
left,left,,5.0,0.0,10.0,0.0,,,,,,,,,75.76490259997081,,,,,,,,,75.75102589989547,76.96483809989877,77.76545589999296,77.74966659990605,77.74973069992848,77.76545589999296,77.76545589999296,77.76545589999296,79.05140229989775,right,0.0,41.14441310008988,,79.05308559990954,79.0699067999376,79.56453559990041,,,,,,,,,,,,,,,,,,,,,,,,,,,sub-238,2.0,random_dot,60.17564068042374,
right,right,,5.0,1.0,11.0,1.0,,,,,,,,,79.58088469994254,,,,,,,,,79.5657293999102,79.91427259996999,80.71512670000084,80.69919769989792,80.69925909989979,80.71512670000084,80.71512670000084,80.71512670000084,81.93472429993562,left,0.0,41.092526599997655,,81.93642639997415,81.947444899939,82.4323577999603,82.44738069991581,,,,,,,,,,,,,,,,,,,,,,,,,,sub-238,2.0,random_dot,60.17564068042374,
left,left,,6.0,0.0,12.0,0.0,,,,,,,,,82.44738069991581,,,,,,,,,82.4334120999556,82.54737739998382,83.34812209999654,83.3322503999807,83.33231349999551,83.34812209999654,83.34812209999654,83.34812209999654,84.86720949993469,left,1.0,41.38095160003286,,84.86877339996863,84.88581989996601,85.38068800000474,,,,,,,,,,,,,,,,,,,,,,,,,,,sub-238,2.0,random_dot,60.17564068042374,
right,right,,6.0,1.0,13.0,1.0,,,,,,,,,85.3970198999159,,,,,,,,,85.38177129998803,85.48037069989368,86.28113579994533,86.26518349989783,86.26524499990046,86.28113579994533,86.28113579994533,86.28113579994533,87.81706749997102,right,1.0,41.40017620008439,,87.81868529994972,87.8300555999158,88.31484069989529,88.32994699990377,,,,,,,,,,,,,,,,,,,,,,,,,,sub-238,2.0,random_dot,60.17564068042374,
right,right,,7.0,0.0,14.0,1.0,,,,,,,,,88.32994699990377,,,,,,,,,88.31596389994957,88.42991720000282,89.23080809996463,89.21482869994361,89.21489279996604,89.23080809996463,89.23080809996463,89.23080809996463,91.43380299990532,right,1.0,42.07648639997933,,91.43546809989492,91.44618809991516,91.9310105999466,91.94612959993538,,,,,,,,,,,,,,,,,,,,,,,,,,sub-238,2.0,random_dot,60.17564068042374,
left,left,,7.0,1.0,15.0,0.0,,,,,,,,,91.94612959993538,,,,,,,,,91.93214569997508,92.29607209993992,93.0968815999804,93.08085059991572,93.08091229991987,93.0968815999804,93.0968815999804,93.0968815999804,94.19936809991486,left,1.0,40.962357800104655,,94.20109099999536,94.21249119995628,94.69733919994906,94.7124486999819,,,,,,,,,,,,,,,,,,,,,,,,,,sub-238,2.0,random_dot,60.17564068042374,
left,left,,8.0,0.0,16.0,0.0,,,,,,,,,94.7124486999819,,,,,,,,,94.6984828999266,95.91240669996478,96.71318500000052,96.69713819993194,96.69719889992848,96.71318500000052,96.71318500000052,96.71318500000052,97.94906519993674,right,0.0,41.1032207000535,,97.9506419999525,97.96751309989486,98.46238599997014,,,,,,,,,,,,,,,,,,,,,,,,,,,sub-238,2.0,random_dot,60.17564068042374,
right,right,,8.0,1.0,17.0,1.0,,,,,,,,,98.4787680999143,,,,,,,,,98.46351939998569,99.66190750000531,100.46269570000004,100.44653719989584,100.44660229992589,100.46269570000004,100.46269570000004,100.46269570000004,103.01544599991756,left,0.0,42.42325650004205,,103.01705059991218,103.02798309992068,103.51306109991856,103.52791179995984,,,,,,,,,,,,,,,,,,,,,,,,,,sub-238,2.0,random_dot,60.17564068042374,
left,left,,9.0,0.0,18.0,0.0,,,,,,,,,103.52791179995984,,,,,,,,,103.51420059998054,104.727916099946,105.52854159998242,105.5125287999399,105.51259029994252,105.52854159998242,105.52854159998242,105.52854159998242,107.2811055999482,left,1.0,41.61165750015061,,107.28281079989392,107.30064089992084,107.79437959997448,,,,,,,,,,,,,,,,,,,,,,,,,,,sub-238,2.0,random_dot,60.17564068042374,
right,right,,9.0,1.0,19.0,1.0,,,,,,,,,107.81076799996664,,,,,,,,,107.7954723999137,108.1441490999423,108.94478589994831,108.92870709998532,108.92876929999328,108.94478589994831,108.94478589994831,108.94478589994831,109.913949699956,right,1.0,40.83324870013166,,109.91558019991498,109.92712619993836,110.41194519994316,110.4273092999356,,,,,,,,,,,,,,,,,,,,,,,,,,sub-238,2.0,random_dot,60.17564068042374,
,,,,,,,,,,,,,,,,,,,,,,,,,,,,,,,,,,,,,,,,,110.41216359997634,110.4273092999356,110.4273092999356,115.11243939993436,space,44.54634490015451,,,,,,,,,,,,,,,,,,,,sub-238,2.0,random_dot,60.17564068042374,
,,,,,,,,,,,,,,,,,,,,,,,,,,,,,,,,,,,,,,,,,,,,,,,,115.11254609993192,115.12676599994302,115.12676599994302,119.21224859997164,space,43.94438390003052,,,,,,,,,,,,,sub-238,2.0,random_dot,60.17564068042374,
left,left,accuracy,,,,,0.0,0.0,0.0,0.0,0.0,0.0,0.0,0.0,123.0588539999444,,,,,,,,,123.05276529991534,123.84211049997248,124.64291179995053,124.62675149994902,124.6268213998992,124.64291179995053,124.64291179995053,124.64291179995053,127.21190140000544,right,0.0,42.42945810011588,,,,,,,,,,,,,,,,,,,,119.25990439997986,119.31217079993804,119.31217079993804,123.028581499937,space,43.58493170014117,,,,,,sub-238,2.0,random_dot,60.17564068042374,
right,right,accuracy,,,,,0.0,0.0,0.0,0.0,0.0,1.0,1.0,1.0,127.22489379998296,,,,,,,,,127.21598579990678,128.02486010000575,128.8255705999909,128.80959739990067,128.809660699917,128.8255705999909,128.8255705999909,128.8255705999909,130.42822219990194,right,1.0,41.46462650003377,,,,,,,,,,,,,,,,,,,,,,,,,,,,,,,sub-238,2.0,random_dot,60.17564068042374,
left,left,accuracy,,,,,0.0,0.0,0.0,0.0,1.0,0.0,2.0,0.0,130.44115430000238,,,,,,,,,130.43140889995266,130.79111539991572,131.59183789999224,131.5759701000061,131.57603299990296,131.59183789999224,131.59183789999224,131.59183789999224,132.67797259998042,left,1.0,40.955786900012754,,,,,,,,,,,,,,,,,,,,,,,,,,,,,,,sub-238,2.0,random_dot,60.17564068042374,
right,right,accuracy,,,,,0.0,0.0,0.0,0.0,1.0,1.0,3.0,1.0,132.69096239993814,,,,,,,,,132.6811590999132,133.89084089989774,134.69148679997306,134.67544429993723,134.67550759995356,134.69148679997306,134.69148679997306,134.69148679997306,137.82700930000283,right,1.0,42.99800390005112,,,,,,,,,,,,,,,,,,,,,,,,,,,,,,,sub-238,2.0,random_dot,60.17564068042374,
right,right,accuracy,,,,,0.0,0.0,0.0,0.0,2.0,0.0,4.0,1.0,137.84014210000169,,,,,,,,,137.83020450000186,137.9401557999663,138.7409582999535,138.7248768999707,138.72494139999617,138.7409582999535,138.7409582999535,138.7409582999535,139.61023269989528,left,0.0,40.73672740010079,,,,,,,,,,,,,,,,,,,,,,,,,,,,,,,sub-238,2.0,random_dot,60.17564068042374,
left,left,accuracy,,,,,0.0,0.0,0.0,0.0,2.0,1.0,5.0,0.0,139.6233218999114,,,,,,,,,139.61355369992089,140.42321989999618,141.22404519992415,141.20792749989778,141.2080457999837,141.22404519992415,141.22404519992415,141.22404519992415,142.04329519998282,left,1.0,40.67937730008271,,,,,,,,,,,,,,,,,,,,,,,,,,,,,,,sub-238,2.0,random_dot,60.17564068042374,
right,right,accuracy,,,,,0.0,0.0,0.0,0.0,3.0,0.0,6.0,1.0,142.05627699999604,,,,,,,,,142.0464607999893,142.85622819990385,143.6570012999,143.6411716999719,143.64123319997452,143.6570012999,143.6570012999,143.6570012999,145.09294469992165,left,0.0,41.2996809000615,,,,,,,,,,,,,,,,,,,,,,,,,,,,,,,sub-238,2.0,random_dot,60.17564068042374,
left,left,accuracy,,,,,0.0,0.0,0.0,0.0,3.0,1.0,7.0,0.0,145.1058492999291,,,,,,,,,145.09616689989343,145.45594789995812,146.25662289990578,146.24058250000235,146.2406446998939,146.25662289990578,146.25662289990578,146.25662289990578,148.29239279998,right,0.0,41.896877300110646,,,,,,,,,,,,,,,,,,,,,,,,,,,,,,,sub-238,2.0,random_dot,60.17564068042374,
right,right,accuracy,,,,,0.0,0.0,0.0,0.0,4.0,0.0,8.0,1.0,148.30544619995635,,,,,,,,,148.2956737999339,149.10548279993236,149.90614310000092,149.89030479989017,149.89036689989734,149.90614310000092,149.90614310000092,149.90614310000092,151.67531550000422,right,1.0,41.63858940009959,,,,,,,,,,,,,,,,,,,,,,,,,,,,,,,sub-238,2.0,random_dot,60.17564068042374,
left,left,accuracy,,,,,0.0,0.0,0.0,0.0,4.0,1.0,9.0,0.0,151.6883845999837,,,,,,,,,151.67841279995628,151.78845359990373,152.5891769999871,152.5731899999082,152.5732528999215,152.5891769999871,152.5891769999871,152.5891769999871,153.75848349998705,left,1.0,41.04021480004303,,,,,,,,,,,,,,,,,,,,,,,,,,,,,,,sub-238,2.0,random_dot,60.17564068042374,
left,left,accuracy,,,,,0.0,0.0,0.0,0.0,5.0,0.0,10.0,0.0,153.77146049996372,,,,,,,,,153.76179899997078,154.12153059989214,154.92214399995282,154.90634319989476,154.90640809992328,154.92214399995282,154.92214399995282,154.92214399995282,156.55823029996827,left,1.0,41.50742150004953,,,,,,,,,,,,,,,,,,,,,,,,,,,,,,,sub-238,2.0,random_dot,60.17564068042374,
right,right,accuracy,,,,,0.0,0.0,0.0,0.0,5.0,1.0,11.0,1.0,156.5711799999699,,,,,,,,,156.56143000000156,156.67109949991573,157.47184089990333,157.4558149999939,157.45587750000414,157.47184089990333,157.47184089990333,157.47184089990333,158.8579811999807,left,0.0,41.24709980015177,,,,,,,,,,,,,,,,,,,,,,,,,,,,,,,sub-238,2.0,random_dot,60.17564068042374,
left,left,accuracy,,,,,0.0,0.0,0.0,0.0,6.0,0.0,12.0,0.0,158.87075759994332,,,,,,,,,158.86104499991052,159.67069239995908,160.47148269996978,160.45545809995383,160.45552089996636,160.47148269996978,160.47148269996978,160.47148269996978,162.72413529991172,left,1.0,42.12462860008236,,,,,,,,,,,,,,,,,,,,,,,,,,,,,,,sub-238,2.0,random_dot,60.17564068042374,
right,right,accuracy,,,,,0.0,0.0,0.0,0.0,6.0,1.0,13.0,1.0,162.73698169994168,,,,,,,,,162.7273417999968,163.93692009989172,164.73749999993015,164.72166759998072,164.7217294999864,164.73749999993015,164.73749999993015,164.73749999993015,165.44064159994014,right,1.0,40.5768847001018,,,,,,,,,,,,,,,,,,,,,,,,,,,,,,,sub-238,2.0,random_dot,60.17564068042374,
right,right,accuracy,,,,,0.0,0.0,0.0,0.0,7.0,0.0,14.0,1.0,165.45325549994595,,,,,,,,,165.44383399991784,166.25306389993057,167.05408419994637,167.03810069989413,167.0381654999219,167.05408419994637,167.05408419994637,167.05408419994637,168.0234343999764,right,1.0,40.8321511001559,,,,,,,,,,,,,,,,,,,,,,,,,,,,,,,sub-238,2.0,random_dot,60.17564068042374,
left,left,accuracy,,,,,0.0,0.0,0.0,0.0,7.0,1.0,15.0,0.0,168.03633639996406,,,,,,,,,168.02665379992686,168.1364004999632,168.9371467999881,168.92101529997308,168.92107949999627,168.9371467999881,168.9371467999881,168.9371467999881,169.87314789998345,left,1.0,40.79821690008976,,,,,,,,,,,,,,,,,,,,,,,,,,,,,,,sub-238,2.0,random_dot,60.17564068042374,
left,left,accuracy,,,,,0.0,0.0,0.0,0.0,8.0,0.0,16.0,0.0,169.88604069990106,,,,,,,,,169.8763419999741,169.98609829996713,170.78680809994694,170.77090199990198,170.77096549991984,170.78680809994694,170.78680809994694,170.78680809994694,172.0725954999216,right,0.0,41.14800150017254,,,,,,,,,,,,,,,,,,,,,,,,,,,,,,,sub-238,2.0,random_dot,60.17564068042374,
right,right,accuracy,,,,,0.0,0.0,0.0,0.0,8.0,1.0,17.0,1.0,172.08571619994473,,,,,,,,,172.0758256999543,172.18584619998,172.9865078999428,172.97043389989994,172.97049599990714,172.9865078999428,172.9865078999428,172.9865078999428,174.4561071000062,left,0.0,41.34100470005069,,,,,,,,,,,,,,,,,,,,,,,,,,,,,,,sub-238,2.0,random_dot,60.17564068042374,
right,right,accuracy,,,,,0.0,0.0,0.0,0.0,9.0,0.0,18.0,1.0,174.46886999998242,,,,,,,,,174.4592818999663,175.2686150999507,176.06957129994407,176.05343559989706,176.05349879991263,176.06957129994407,176.06957129994407,176.06957129994407,177.0219419999048,right,1.0,40.81646060012281,,,,,,,,,,,,,,,,,,,,,,,,,,,,,,,sub-238,2.0,random_dot,60.17564068042374,
left,left,accuracy,,,,,0.0,0.0,0.0,0.0,9.0,1.0,19.0,0.0,177.03525570000056,,,,,,,,,177.02527179999743,177.83513659995515,178.63580999989065,178.6197783999378,178.61984119995032,178.63580999989065,178.63580999989065,178.63580999989065,179.6718200999312,left,1.0,40.9084505001083,,,,,,,,,,,,,,,,,,,,,,,,,,,,,,,sub-238,2.0,random_dot,60.17564068042374,
left,left,accuracy,,,,,0.0,0.0,0.0,0.0,10.0,0.0,20.0,0.0,179.68488829990383,,,,,,,,,179.67590629996266,180.03491179994307,180.83554689993616,180.8194630999351,180.81952629995067,180.83554689993616,180.83554689993616,180.83554689993616,182.0049828999909,left,1.0,41.0418682001764,,,,,,,,,,,,,,,,,,,,,,,,,,,,,,,sub-238,2.0,random_dot,60.17564068042374,
right,right,accuracy,,,,,0.0,0.0,0.0,0.0,10.0,1.0,21.0,1.0,182.0179223999148,,,,,,,,,182.00816659990232,183.2179323999444,184.0186026999727,184.0025839000009,184.00264739990237,184.0186026999727,184.0186026999727,184.0186026999727,185.00454829994123,right,1.0,40.8578656000318,,,,,,,,,,,,,,,,,,,,,,,,,,,,,,,sub-238,2.0,random_dot,60.17564068042374,
right,right,accuracy,,,,,0.0,0.0,0.0,0.0,11.0,0.0,22.0,1.0,185.01748919999227,,,,,,,,,185.0076985999476,185.36745959997643,186.1681270999834,186.15224629989825,186.1523093999131,186.1681270999834,186.1681270999834,186.1681270999834,188.97053989989217,right,1.0,42.66683510004077,,,,,,,,,,,,,,,,,,,,,,,,,,,,,,,sub-238,2.0,random_dot,60.17564068042374,
left,left,accuracy,,,,,0.0,0.0,0.0,0.0,11.0,1.0,23.0,0.0,188.98358409991488,,,,,,,,,188.97374769998717,189.3335087999003,190.13436049991287,190.11827959993389,190.11834209994413,190.13436049991287,190.13436049991287,190.13436049991287,192.22004419995935,left,1.0,41.952345600002445,,,,,,,,,,,,,,,,,,,,,,,,,,,,,,,sub-238,2.0,random_dot,60.17564068042374,
right,right,accuracy,,,,,0.0,0.0,0.0,0.0,12.0,0.0,24.0,1.0,192.23323359992355,,,,,,,,,192.22321799991187,192.5830997999292,193.38385089999065,193.36779659998135,193.3678583999863,193.38385089999065,193.38385089999065,193.38385089999065,194.53667770000172,right,1.0,41.02237979997881,,,,,,,,,,,,,,,,,,,,,,,,,,,,,,,sub-238,2.0,random_dot,60.17564068042374,
left,left,accuracy,,,,,0.0,0.0,0.0,0.0,12.0,1.0,25.0,0.0,194.54953259998,,,,,,,,,194.53987399989276,195.3495860999683,196.1502482999349,196.13416659994985,196.13423039997,196.1502482999349,196.1502482999349,196.1502482999349,197.28636019991245,right,0.0,41.00646460009739,,,,,,,,,,,,,,,,,,,,,,,,,,,,,,,sub-238,2.0,random_dot,60.17564068042374,
left,left,accuracy,,,,,0.0,0.0,0.0,0.0,13.0,0.0,26.0,0.0,197.29921269998889,,,,,,,,,197.28953680000268,197.3990859999321,198.20007269992493,198.18405329994857,198.18411549995653,198.20007269992493,198.20007269992493,198.20007269992493,199.30297309998423,left,1.0,40.96440490009263,,,,,,,,,,,,,,,,,,,,,,,,,,,,,,,sub-238,2.0,random_dot,60.17564068042374,
right,right,accuracy,,,,,0.0,0.0,0.0,0.0,13.0,1.0,27.0,1.0,199.31548919994384,,,,,,,,,199.3062771999976,200.51549209991936,201.31607309996616,201.3002994999988,201.30036169989037,201.31607309996616,201.31607309996616,201.31607309996616,203.85191009996925,left,0.0,42.40694630006328,,,,,,,,,,,,,,,,,,,,,,,,,,,,,,,sub-238,2.0,random_dot,60.17564068042374,
right,right,accuracy,,,,,0.0,0.0,0.0,0.0,14.0,0.0,28.0,1.0,203.86496289994105,,,,,,,,,203.8550718999468,205.06513209990223,205.86564999993425,205.8496253999183,205.84968909993768,205.86564999993425,205.86564999993425,205.86564999993425,207.7345764999045,right,1.0,41.727629400091246,,,,,,,,,,,,,,,,,,,,,,,,,,,,,,,sub-238,2.0,random_dot,60.17564068042374,
left,left,accuracy,,,,,0.0,0.0,0.0,0.0,14.0,1.0,29.0,0.0,207.74793099996168,,,,,,,,,207.73773649998475,208.09795359999407,208.89850219991055,208.88257709995375,208.8826403999701,208.89850219991055,208.89850219991055,208.89850219991055,209.66764779994264,left,1.0,40.62747100007255,,,,,,,,,,,,,,,,,,,,,,,,,,,,,,,sub-238,2.0,random_dot,60.17564068042374,
left,left,accuracy,,,,,0.0,0.0,0.0,0.0,15.0,0.0,30.0,0.0,209.6809913999168,,,,,,,,,209.67094489990268,210.030930699897,210.83175219991244,210.8156811998924,210.81574369990267,210.83175219991244,210.83175219991244,210.83175219991244,211.56752929999493,right,0.0,40.598609000095166,,,,,,,,,,,,,,,,,,,,,,,,,,,,,,,sub-238,2.0,random_dot,60.17564068042374,
right,right,accuracy,,,,,0.0,0.0,0.0,0.0,15.0,1.0,31.0,1.0,211.58058009995148,,,,,,,,,211.5707763999235,211.9305655999342,212.73132349993105,212.71541469998192,212.71547689998988,212.73132349993105,212.73132349993105,212.73132349993105,213.6011638999917,right,1.0,40.735397900105454,,,,,,,,,,,,,,,,,,,,,,,,,,,,,,,sub-238,2.0,random_dot,60.17564068042374,
right,right,accuracy,,,,,0.0,0.0,0.0,0.0,16.0,0.0,32.0,1.0,213.61364979995412,,,,,,,,,213.6044178999728,213.96376620000228,214.76441549998708,214.74836159998085,214.7484460999258,214.76441549998708,214.76441549998708,214.76441549998708,215.8337346999906,right,1.0,40.94238030002453,,,,,,,,,,,,,,,,,,,,,,,,,,,,,,,sub-238,2.0,random_dot,60.17564068042374,
left,left,accuracy,,,,,0.0,0.0,0.0,0.0,16.0,1.0,33.0,0.0,215.8467321998905,,,,,,,,,215.8370127999224,216.19682159996592,216.99744439998176,216.9815101999557,216.98157379997429,216.99744439998176,216.99744439998176,216.99744439998176,217.79999179998413,left,1.0,40.661906300112605,,,,,,,,,,,,,,,,,,,,,,,,,,,,,,,sub-238,2.0,random_dot,60.17564068042374,
right,right,accuracy,,,,,0.0,0.0,0.0,0.0,17.0,0.0,34.0,1.0,217.813161799917,,,,,,,,,217.80335750000089,218.6126977999229,219.4138194998959,219.39780389994849,219.3978664999595,219.4138194998959,219.4138194998959,219.4138194998959,220.24635909998324,right,1.0,40.68798610009253,,,,,,,,,,,,,,,,,,,,,,,,,,,,,,,sub-238,2.0,random_dot,60.17564068042374,
left,left,accuracy,,,,,0.0,0.0,0.0,0.0,17.0,1.0,35.0,0.0,220.2544166999869,,,,,,,,,220.24951649992727,221.46279999997927,222.26343950000592,222.24745959998108,222.2475298999343,222.26343950000592,222.26343950000592,222.26343950000592,223.69975829997568,left,1.0,41.30681720003486,,,,,,,,,,,,,,,,,,,,,,,,,,,,,,,sub-238,2.0,random_dot,60.17564068042374,
left,left,accuracy,,,,,0.0,0.0,0.0,0.0,18.0,0.0,36.0,0.0,223.712584999972,,,,,,,,,223.7030967999017,223.8124815999763,224.6131885999348,224.59720469999596,224.5972675998928,224.6131885999348,224.6131885999348,224.6131885999348,226.76576929993465,right,0.0,42.02344060014002,,,,,,,,,,,,,,,,,,,,,,,,,,,,,,,sub-238,2.0,random_dot,60.17564068042374,
right,right,accuracy,,,,,0.0,0.0,0.0,0.0,18.0,1.0,37.0,1.0,226.77871569991112,,,,,,,,,226.76908999995797,227.97876539989372,228.77936079993376,228.7633355999133,228.7633983999258,228.77936079993376,228.77936079993376,228.77936079993376,229.99866309994832,right,1.0,41.08996170014143,,,,,,,,,,,,,,,,,,,,,,,,,,,,,,,sub-238,2.0,random_dot,60.17564068042374,
right,right,accuracy,,,,,0.0,0.0,0.0,0.0,19.0,0.0,38.0,1.0,230.0115733999992,,,,,,,,,230.00170269992668,230.11163199995644,230.91247509990356,230.8965758999111,230.89664129994344,230.91247509990356,230.91247509990356,230.91247509990356,232.08177189994603,left,0.0,41.03729120013304,,,,,,,,,,,,,,,,,,,,,,,,,,,,,,,sub-238,2.0,random_dot,60.17564068042374,
left,left,accuracy,,,,,0.0,0.0,0.0,0.0,19.0,1.0,39.0,0.0,232.0947617999045,,,,,,,,,232.0850208000047,233.29476949991655,234.0954368999228,234.07929769996557,234.07936549989967,234.0954368999228,234.0954368999228,234.0954368999228,235.28150759998243,right,0.0,41.05703730008099,,,,,,,,,,,,,,,,,,,,,,,,,,,,,,,sub-238,2.0,random_dot,60.17564068042374,
left,left,accuracy,,,,,0.0,0.0,0.0,0.0,20.0,0.0,40.0,0.0,235.29427389998452,,,,,,,,,235.2852666999679,236.4942189999856,237.2948591999011,237.27880359999835,237.27886689989828,237.2948591999011,237.2948591999011,237.2948591999011,238.03096619993448,left,1.0,40.59540350001771,,,,,,,,,,,,,,,,,,,,,,,,,,,,,,,sub-238,2.0,random_dot,60.17564068042374,
right,right,accuracy,,,,,0.0,0.0,0.0,0.0,20.0,1.0,41.0,1.0,238.04386819992212,,,,,,,,,238.0341406998923,239.2438145999331,240.04452639992812,240.02841489994896,240.02848089998588,240.04452639992812,240.04452639992812,240.04452639992812,241.08037709991916,right,1.0,40.89415870013181,,,,,,,,,,,,,,,,,,,,,,,,,,,,,,,sub-238,2.0,random_dot,60.17564068042374,
right,right,accuracy,,,,,0.0,0.0,0.0,0.0,21.0,0.0,42.0,1.0,241.0934571999824,,,,,,,,,241.08362789999228,241.1937065999955,241.99415609997232,241.9783561999211,241.97844789992087,241.99415609997232,241.99415609997232,241.99415609997232,243.56349779991436,right,1.0,41.430362600134686,,,,,,,,,,,,,,,,,,,,,,,,,,,,,,,sub-238,2.0,random_dot,60.17564068042374,
left,left,accuracy,,,,,0.0,0.0,0.0,0.0,21.0,1.0,43.0,0.0,243.57649349991695,,,,,,,,,243.56681079999544,244.77646169997752,245.5770675999811,245.56119059992488,245.5612525999313,245.5770675999811,245.5770675999811,245.5770675999811,246.71293049992528,right,0.0,40.99780400004238,,,,,,,,,,,,,,,,,,,,,,,,,,,,,,,sub-238,2.0,random_dot,60.17564068042374,
left,left,accuracy,,,,,0.0,0.0,0.0,0.0,22.0,0.0,44.0,0.0,246.7261738999514,,,,,,,,,246.71610389999117,247.9260898999637,248.7268560999073,248.7107859998941,248.71084879990667,248.7268560999073,248.7268560999073,248.7268560999073,249.7459218999138,left,1.0,40.87930050014984,,,,,,,,,,,,,,,,,,,,,,,,,,,,,,,sub-238,2.0,random_dot,60.17564068042374,
right,right,accuracy,,,,,0.0,0.0,0.0,0.0,22.0,1.0,45.0,1.0,249.75900609989185,,,,,,,,,249.7489647999173,250.959006399964,251.7598685999401,251.74358709994704,251.74364909995347,251.7598685999401,251.7598685999401,251.7598685999401,252.6959408998955,right,1.0,40.8067488000961,,,,,,,,,,,,,,,,,,,,,,,,,,,,,,,sub-238,2.0,random_dot,60.17564068042374,
right,right,accuracy,,,,,0.0,0.0,0.0,0.0,23.0,0.0,46.0,1.0,252.70862489996944,,,,,,,,,252.6990104999859,253.05852089996915,253.859503799933,253.8434816999361,253.84354449994865,253.859503799933,253.859503799933,253.859503799933,255.2288159999298,right,1.0,41.23188000009395,,,,,,,,,,,,,,,,,,,,,,,,,,,,,,,sub-238,2.0,random_dot,60.17564068042374,
left,left,accuracy,,,,,0.0,0.0,0.0,0.0,23.0,1.0,47.0,0.0,255.2416968999896,,,,,,,,,255.23200909991283,256.4416074999608,257.242279099999,257.2265650999034,257.2266299999319,257.242279099999,257.242279099999,257.242279099999,259.1785056999652,left,1.0,41.80992170004174,,,,,,,,,,,,,,,,,,,,,,,,,,,,,,,sub-238,2.0,random_dot,60.17564068042374,
left,left,accuracy,,,,,0.0,0.0,0.0,0.0,24.0,0.0,48.0,0.0,259.1912392999511,,,,,,,,,259.1818050999427,259.5410237999168,260.34194879990537,260.32598289998714,260.32604549999814,260.34194879990537,260.34194879990537,260.34194879990537,261.3111056999769,right,0.0,40.83396040007938,,,,,,,,,,,,,,,,,,,,,,,,,,,,,,,sub-238,2.0,random_dot,60.17564068042374,
right,right,accuracy,,,,,0.0,0.0,0.0,0.0,24.0,1.0,49.0,1.0,261.3242644999409,,,,,,,,,261.3141410999233,261.6742324999068,262.47501409996767,262.45888999989256,262.4589534999104,262.47501409996767,262.47501409996767,262.47501409996767,263.6446188999107,right,1.0,41.03210270009004,,,,,,,,,,,,,,,,,,,,,,,,,,,,,,,sub-238,2.0,random_dot,60.17564068042374,
right,right,accuracy,,,,,0.0,0.0,0.0,0.0,25.0,0.0,50.0,1.0,263.65723509993404,,,,,,,,,263.6478509999579,264.85713189991657,265.65787209989503,265.6419082999928,265.6419720998965,265.65787209989503,265.65787209989503,265.65787209989503,266.9438161998987,right,1.0,41.14634660002776,,,,,,,,,,,,,,,,,,,,,,,,,,,,,,,sub-238,2.0,random_dot,60.17564068042374,
left,left,accuracy,,,,,0.0,0.0,0.0,0.0,25.0,1.0,51.0,0.0,266.9567716999445,,,,,,,,,266.94681709993165,267.0568418999901,267.8576582999667,267.84168159996625,267.8417456999887,267.8576582999667,267.8576582999667,267.8576582999667,269.0101890999358,left,1.0,41.01377550000325,,,,,,,,,,,,,,,,,,,,,,,,,,,,,,,sub-238,2.0,random_dot,60.17564068042374,
right,right,accuracy,,,,,0.0,0.0,0.0,0.0,26.0,0.0,52.0,1.0,269.02321329992265,,,,,,,,,269.0134440999245,269.12313059996814,269.9240315000061,269.9079788998933,269.9080410999013,269.9240315000061,269.9240315000061,269.9240315000061,271.14311349997297,right,1.0,41.077587000094354,,,,,,,,,,,,,,,,,,,,,,,,,,,,,,,sub-238,2.0,random_dot,60.17564068042374,
left,left,accuracy,,,,,0.0,0.0,0.0,0.0,26.0,1.0,53.0,0.0,271.1562546999194,,,,,,,,,271.1463347999379,271.25644259992987,272.0570816999534,272.0411073999712,272.0411706999876,272.0570816999534,272.0570816999534,272.0570816999534,274.426039999933,right,0.0,42.234639000031166,,,,,,,,,,,,,,,,,,,,,,,,,,,,,,,sub-238,2.0,random_dot,60.17564068042374,
right,right,accuracy,,,,,0.0,0.0,0.0,0.0,27.0,0.0,54.0,1.0,274.4393245999236,,,,,,,,,274.4290682999417,275.6391137999017,276.43980609998107,276.4237956999568,276.42385819996707,276.43980609998107,276.43980609998107,276.43980609998107,277.1591727999039,left,0.0,40.58169980009552,,,,,,,,,,,,,,,,,,,,,,,,,,,,,,,sub-238,2.0,random_dot,60.17564068042374,
left,left,accuracy,,,,,0.0,0.0,0.0,0.0,27.0,1.0,55.0,0.0,277.17219749989454,,,,,,,,,277.16232319991104,277.52207849989645,278.3229010999203,278.307155199931,278.307217799942,278.3229010999203,278.3229010999203,278.3229010999203,279.2756753999274,right,0.0,40.81823360000271,,,,,,,,,,,,,,,,,,,,,,,,,,,,,,,sub-238,2.0,random_dot,60.17564068042374,
right,right,accuracy,,,,,0.0,0.0,0.0,0.0,28.0,0.0,56.0,1.0,279.2886934999842,,,,,,,,,279.2790126999608,279.63850769994315,280.4392517999513,280.42327399994247,280.4233642999316,280.4392517999513,280.4392517999513,280.4392517999513,281.4419701999286,right,1.0,40.87094830011483,,,,,,,,,,,,,,,,,,,,,,,,,,,,,,,sub-238,2.0,random_dot,60.17564068042374,
left,left,accuracy,,,,,0.0,0.0,0.0,0.0,28.0,1.0,57.0,0.0,281.4548738999292,,,,,,,,,281.44527409994043,282.65474099991843,283.4555843999842,283.4395588999614,283.4396236999892,283.4555843999842,283.4555843999842,283.4555843999842,284.3750733999768,right,0.0,40.79194340005051,,,,,,,,,,,,,,,,,,,,,,,,,,,,,,,sub-238,2.0,random_dot,60.17564068042374,
left,left,accuracy,,,,,0.0,0.0,0.0,0.0,29.0,0.0,58.0,0.0,284.3880540999817,,,,,,,,,284.3782582998974,284.7379961999832,285.53852259996347,285.5227581999497,285.52282059995923,285.53852259996347,285.53852259996347,285.53852259996347,286.9415972999996,left,1.0,41.2758755000541,,,,,,,,,,,,,,,,,,,,,,,,,,,,,,,sub-238,2.0,random_dot,60.17564068042374,
right,right,accuracy,,,,,0.0,0.0,0.0,0.0,29.0,1.0,59.0,1.0,286.95421719993465,,,,,,,,,286.9447112999624,288.1540758999763,288.9548387998948,288.93880149989855,288.93887419998646,288.9548387998948,288.9548387998948,288.9548387998948,289.74081739992835,right,1.0,40.65023720008321,,,,,,,,,,,,,,,,,,,,,,,,,,,,,,,sub-238,2.0,random_dot,60.17564068042374,
,,accuracy,,,,,0.0,0.0,0.0,0.0,,,,,,,,,,,,,,,,,,,,,,,,,,,,,,,,,,,,,,,,,,,,,,,,,,,,,,,,sub-238,2.0,random_dot,60.17564068042374,
right,right,speed,,,,,0.0,1.0,1.0,1.0,0.0,0.0,0.0,1.0,293.9016628999961,,,,,,,,,293.89555259991903,294.2365454999963,295.03751259995624,295.0214038999984,295.0214747999562,295.03751259995624,295.03751259995624,295.03751259995624,295.323534199968,left,0.0,40.15810120012611,,,,,,,,,,,,,,,,,,,,289.74375469994266,289.77384609996807,289.77384609996807,293.8729562999215,space,43.969213000149466,,,,,,sub-238,2.0,random_dot,60.17564068042374,
left,left,speed,,,,,0.0,1.0,1.0,1.0,0.0,1.0,1.0,0.0,295.3364188999403,,,,,,,,,295.32748529990204,296.13638589996845,296.9371423999546,296.92106759990565,296.9211510999594,296.9371423999546,296.9371423999546,296.9371423999546,297.4566084999824,right,0.0,40.38020270015113,,,,,,,,,,,,,,,,,,,,,,,,,,,,,,,sub-238,2.0,random_dot,60.17564068042374,
left,left,speed,,,,,0.0,1.0,1.0,1.0,1.0,0.0,2.0,0.0,297.4694660999812,,,,,,,,,297.45987289992627,298.6694499999285,299.47040849993937,299.45411609997973,299.4541787999915,299.47040849993937,299.47040849993937,299.47040849993937,299.80663689994253,left,1.0,40.20986730011646,,,,,,,,,,,,,,,,,,,,,,,,,,,,,,,sub-238,2.0,random_dot,60.17564068042374,
right,right,speed,,,,,0.0,1.0,1.0,1.0,1.0,1.0,3.0,1.0,299.81931319995783,,,,,,,,,299.809949999908,301.0192168999929,301.8198655999731,301.8039029999636,301.80396649998147,301.8198655999731,301.8198655999731,301.8198655999731,302.1394577999599,right,1.0,40.17775580007583,,,,,,,,,,,,,,,,,,,,,,,,,,,,,,,sub-238,2.0,random_dot,60.17564068042374,
left,left,speed,,,,,0.0,1.0,1.0,1.0,2.0,0.0,4.0,0.0,302.1522479999112,,,,,,,,,302.142766200006,302.5021889999043,303.3029805999249,303.28689679992385,303.2869599999394,303.3029805999249,303.3029805999249,303.3029805999249,303.90570059989113,left,1.0,40.46372950007208,,,,,,,,,,,,,,,,,,,,,,,,,,,,,,,sub-238,2.0,random_dot,60.17564068042374,
right,right,speed,,,,,0.0,1.0,1.0,1.0,2.0,1.0,5.0,1.0,303.91863089997787,,,,,,,,,303.9087855999824,304.2688044999959,305.0694928999292,305.0536584999645,305.05374529992696,305.0694928999292,305.0694928999292,305.0694928999292,305.3724245999474,right,1.0,40.17365580005571,,,,,,,,,,,,,,,,,,,,,,,,,,,,,,,sub-238,2.0,random_dot,60.17564068042374,
right,right,speed,,,,,0.0,1.0,1.0,1.0,3.0,0.0,6.0,1.0,305.3851250999141,,,,,,,,,305.37566039990634,305.7352106999606,306.5359004999045,306.5198925998993,306.5199549999088,306.5359004999045,306.5359004999045,306.5359004999045,306.88881169992965,left,0.0,40.2196434000507,,,,,,,,,,,,,,,,,,,,,,,,,,,,,,,sub-238,2.0,random_dot,60.17564068042374,
left,left,speed,,,,,0.0,1.0,1.0,1.0,3.0,1.0,7.0,0.0,306.90160519990604,,,,,,,,,306.8925689999014,308.1015942998929,308.90234199992847,308.88622679992113,308.8862907999428,308.90234199992847,308.90234199992847,308.90234199992847,309.3199558999622,right,0.0,40.27839440002572,,,,,,,,,,,,,,,,,,,,,,,,,,,,,,,sub-238,2.0,random_dot,60.17564068042374,
right,right,speed,,,,,0.0,1.0,1.0,1.0,4.0,0.0,8.0,1.0,309.33425979991443,,,,,,,,,309.321561699966,310.53446739993524,311.3351795999333,311.3189808999887,311.3190509999404,311.3351795999333,311.3351795999333,311.3351795999333,311.7546551999403,left,0.0,40.28470910002943,,,,,,,,,,,,,,,,,,,,,,,,,,,,,,,sub-238,2.0,random_dot,60.17564068042374,
left,left,speed,,,,,0.0,1.0,1.0,1.0,4.0,1.0,9.0,0.0,311.7675100999186,,,,,,,,,311.7577762999572,311.8675908999285,312.6682166999672,312.6520901999902,312.65214539994486,312.6682166999672,312.6682166999672,312.6682166999672,313.27119519992266,right,0.0,40.47423430008348,,,,,,,,,,,,,,,,,,,,,,,,,,,,,,,sub-238,2.0,random_dot,60.17564068042374,
right,right,speed,,,,,0.0,1.0,1.0,1.0,5.0,0.0,10.0,1.0,313.28411059989594,,,,,,,,,313.2744926000014,313.38408220000565,314.1849269999657,314.1689708000049,314.1690338999033,314.1849269999657,314.1849269999657,314.1849269999657,314.7707421999657,right,1.0,40.45371230004821,,,,,,,,,,,,,,,,,,,,,,,,,,,,,,,sub-238,2.0,random_dot,60.17564068042374,
left,left,speed,,,,,0.0,1.0,1.0,1.0,5.0,1.0,11.0,0.0,314.7839037999511,,,,,,,,,314.7740224999143,315.58381679991726,316.3846686999313,316.3687972999178,316.3688609999372,316.3846686999313,316.3846686999313,316.3846686999313,316.83723819989245,right,0.0,40.31078750011511,,,,,,,,,,,,,,,,,,,,,,,,,,,,,,,sub-238,2.0,random_dot,60.17564068042374,
right,right,speed,,,,,0.0,1.0,1.0,1.0,6.0,0.0,12.0,1.0,316.85030979989097,,,,,,,,,316.84059179993346,316.950437399908,317.75111239997204,317.7351079999935,317.7351709998911,317.75111239997204,317.75111239997204,317.75111239997204,318.23708110000007,right,1.0,40.35705080011394,,,,,,,,,,,,,,,,,,,,,,,,,,,,,,,sub-238,2.0,random_dot,60.17564068042374,
left,left,speed,,,,,0.0,1.0,1.0,1.0,6.0,1.0,13.0,0.0,318.25022159994114,,,,,,,,,318.24040319991764,318.35023849993013,319.15092399995774,319.13499779999256,319.1350610998925,319.15092399995774,319.15092399995774,319.15092399995774,320.47033769998234,left,1.0,41.18432780005969,,,,,,,,,,,,,,,,,,,,,,,,,,,,,,,sub-238,2.0,random_dot,60.17564068042374,
left,left,speed,,,,,0.0,1.0,1.0,1.0,7.0,0.0,14.0,0.0,320.4831652999856,,,,,,,,,320.4733798999805,321.68328989995643,322.4838010999374,322.4679557000054,322.46801889990456,322.4838010999374,322.4838010999374,322.4838010999374,322.85328909999225,left,1.0,40.23832670005504,,,,,,,,,,,,,,,,,,,,,,,,,,,,,,,sub-238,2.0,random_dot,60.17564068042374,
right,right,speed,,,,,0.0,1.0,1.0,1.0,7.0,1.0,15.0,1.0,322.86621139990166,,,,,,,,,322.8564410998952,322.966216599918,323.76697639992926,323.75098069990054,323.7510674999794,323.76697639992926,323.76697639992926,323.76697639992926,324.18666939996183,right,1.0,40.28934420004953,,,,,,,,,,,,,,,,,,,,,,,,,,,,,,,sub-238,2.0,random_dot,60.17564068042374,
right,right,speed,,,,,0.0,1.0,1.0,1.0,8.0,0.0,16.0,1.0,324.19946729997173,,,,,,,,,324.1898513999768,324.5493415999226,325.35012049996294,325.3339956999989,325.3340590998996,325.35012049996294,325.35012049996294,325.35012049996294,325.9196048999438,right,1.0,40.440322300069965,,,,,,,,,,,,,,,,,,,,,,,,,,,,,,,sub-238,2.0,random_dot,60.17564068042374,
left,left,speed,,,,,0.0,1.0,1.0,1.0,8.0,1.0,17.0,0.0,325.93240679998416,,,,,,,,,325.9227615999989,327.1324709999608,327.9332954999991,327.91724519990385,327.91731089993846,327.9332954999991,327.9332954999991,327.9332954999991,328.5027848999016,right,0.0,40.44078710000031,,,,,,,,,,,,,,,,,,,,,,,,,,,,,,,sub-238,2.0,random_dot,60.17564068042374,
right,right,speed,,,,,0.0,1.0,1.0,1.0,9.0,0.0,18.0,1.0,328.5156171999406,,,,,,,,,328.5060178999556,328.6154852999607,329.41623949992936,329.4003535999218,329.4004164999351,329.41623949992936,329.41623949992936,329.41623949992936,330.1859098999994,left,0.0,40.637596799992025,,,,,,,,,,,,,,,,,,,,,,,,,,,,,,,sub-238,2.0,random_dot,60.17564068042374,
left,left,speed,,,,,0.0,1.0,1.0,1.0,9.0,1.0,19.0,0.0,330.1985773999477,,,,,,,,,330.18908849998843,331.39844899997115,332.1992665999569,332.1831421999959,332.1832073999103,332.1992665999569,332.1992665999569,332.1992665999569,332.635357299936,left,1.0,40.304510300047696,,,,,,,,,,,,,,,,,,,,,,,,,,,,,,,sub-238,2.0,random_dot,60.17564068042374,
left,left,speed,,,,,0.0,1.0,1.0,1.0,10.0,0.0,20.0,0.0,332.6483329999028,,,,,,,,,332.6384490999626,332.998279399937,333.79899379995186,333.78312279994134,333.78318559995387,333.79899379995186,333.79899379995186,333.79899379995186,334.41843119997066,left,1.0,40.48656890017446,,,,,,,,,,,,,,,,,,,,,,,,,,,,,,,sub-238,2.0,random_dot,60.17564068042374,
right,right,speed,,,,,0.0,1.0,1.0,1.0,10.0,1.0,21.0,1.0,334.43135559989605,,,,,,,,,334.42170789989177,334.7813438999001,335.5822316999547,335.56639059993904,335.5664537999546,335.5822316999547,335.5822316999547,335.5822316999547,336.4851441999199,right,1.0,40.77364040003158,,,,,,,,,,,,,,,,,,,,,,,,,,,,,,,sub-238,2.0,random_dot,60.17564068042374,
right,right,speed,,,,,0.0,1.0,1.0,1.0,11.0,0.0,22.0,1.0,336.49776339996606,,,,,,,,,336.48839829990175,336.847909300006,337.6486270999303,337.6325465999544,337.6326090999646,337.6486270999303,337.6486270999303,337.6486270999303,338.3344142999267,right,1.0,40.55323700013105,,,,,,,,,,,,,,,,,,,,,,,,,,,,,,,sub-238,2.0,random_dot,60.17564068042374,
left,left,speed,,,,,0.0,1.0,1.0,1.0,11.0,1.0,23.0,0.0,338.34748219989706,,,,,,,,,338.3377464999212,338.6975951999193,339.49837579997256,339.48240099998657,339.4824634999968,339.49837579997256,339.49837579997256,339.49837579997256,340.2844299999997,left,1.0,40.65523370006122,,,,,,,,,,,,,,,,,,,,,,,,,,,,,,,sub-238,2.0,random_dot,60.17564068042374,
left,left,speed,,,,,0.0,1.0,1.0,1.0,12.0,0.0,24.0,0.0,340.2973473999882,,,,,,,,,340.28775629994925,341.49715309997555,342.29790819995105,342.28189119999297,342.28195439989213,342.29790819995105,342.29790819995105,342.29790819995105,342.9840926999459,left,1.0,40.55842510005459,,,,,,,,,,,,,,,,,,,,,,,,,,,,,,,sub-238,2.0,random_dot,60.17564068042374,
right,right,speed,,,,,0.0,1.0,1.0,1.0,12.0,1.0,25.0,1.0,342.9971079999814,,,,,,,,,342.9872198998928,344.1969346998958,344.99754769995343,344.98152159992605,344.98158529994544,344.99754769995343,344.99754769995343,344.99754769995343,345.78361049992964,right,1.0,40.65316560014617,,,,,,,,,,,,,,,,,,,,,,,,,,,,,,,sub-238,2.0,random_dot,60.17564068042374,
right,right,speed,,,,,0.0,1.0,1.0,1.0,13.0,0.0,26.0,1.0,345.79653259995393,,,,,,,,,345.78675450000446,346.996583799948,347.79719389998354,347.7813345999457,347.7813971999567,347.79719389998354,347.79719389998354,347.79719389998354,348.6665325999493,right,1.0,40.732122700079344,,,,,,,,,,,,,,,,,,,,,,,,,,,,,,,sub-238,2.0,random_dot,60.17564068042374,
left,left,speed,,,,,0.0,1.0,1.0,1.0,13.0,1.0,27.0,0.0,348.6795454999665,,,,,,,,,348.66985939990263,349.8796261999523,350.6801937998971,350.66415139997844,350.6642127999803,350.6801937998971,350.6801937998971,350.6801937998971,351.5661161999451,right,0.0,40.749909900012426,,,,,,,,,,,,,,,,,,,,,,,,,,,,,,,sub-238,2.0,random_dot,60.17564068042374,
left,left,speed,,,,,0.0,1.0,1.0,1.0,14.0,0.0,28.0,0.0,351.5792116998928,,,,,,,,,351.5693215999054,351.6792982999468,352.48014929995406,352.46409479994327,352.46416989993304,352.48014929995406,352.48014929995406,352.48014929995406,353.09945919993334,left,1.0,40.49021280009765,,,,,,,,,,,,,,,,,,,,,,,,,,,,,,,sub-238,2.0,random_dot,60.17564068042374,
right,right,speed,,,,,0.0,1.0,1.0,1.0,14.0,1.0,29.0,1.0,353.1121968999505,,,,,,,,,353.1027178999502,353.9122384999646,354.71303769992664,354.69699069997296,354.6970531999832,354.71303769992664,354.71303769992664,354.71303769992664,355.48215629998595,left,0.0,40.63732119998895,,,,,,,,,,,,,,,,,,,,,,,,,,,,,,,sub-238,2.0,random_dot,60.17564068042374,
right,right,speed,,,,,0.0,1.0,1.0,1.0,15.0,0.0,30.0,1.0,355.4953527000034,,,,,,,,,355.4853192999726,355.5953563998919,356.3961947999196,356.380110799917,356.3801741999341,356.3961947999196,356.3961947999196,356.3961947999196,357.0822880999185,right,1.0,40.55724320013542,,,,,,,,,,,,,,,,,,,,,,,,,,,,,,,sub-238,2.0,random_dot,60.17564068042374,
left,left,speed,,,,,0.0,1.0,1.0,1.0,15.0,1.0,31.0,0.0,357.09508669993374,,,,,,,,,357.0855703999987,357.8950206999434,358.695776599925,358.6796165999258,358.6796792999376,358.695776599925,358.695776599925,358.695776599925,359.5319207999855,left,1.0,40.70562850008719,,,,,,,,,,,,,,,,,,,,,,,,,,,,,,,sub-238,2.0,random_dot,60.17564068042374,
right,right,speed,,,,,0.0,1.0,1.0,1.0,16.0,0.0,32.0,1.0,359.544733799994,,,,,,,,,359.53504069999326,360.3448359000031,361.14543379994575,361.1295111998916,361.1295738999033,361.14543379994575,361.14543379994575,361.14543379994575,361.8316195999505,right,1.0,40.54631260014139,,,,,,,,,,,,,,,,,,,,,,,,,,,,,,,sub-238,2.0,random_dot,60.17564068042374,
left,left,speed,,,,,0.0,1.0,1.0,1.0,16.0,1.0,33.0,0.0,361.8444808999775,,,,,,,,,361.83488049998414,362.6445001999382,363.4452696999069,363.4293248999165,363.4293885999359,363.4452696999069,363.4452696999069,363.4452696999069,363.8977781999856,right,0.0,40.31103560002521,,,,,,,,,,,,,,,,,,,,,,,,,,,,,,,sub-238,2.0,random_dot,60.17564068042374,
left,left,speed,,,,,0.0,1.0,1.0,1.0,17.0,0.0,34.0,0.0,363.9109203999397,,,,,,,,,363.9009683999466,364.0108665999724,364.81163599994034,364.7956416999223,364.79570409993175,364.81163599994034,364.81163599994034,364.81163599994034,365.6643233998912,left,1.0,40.71323450002819,,,,,,,,,,,,,,,,,,,,,,,,,,,,,,,sub-238,2.0,random_dot,60.17564068042374,
right,right,speed,,,,,0.0,1.0,1.0,1.0,17.0,1.0,35.0,1.0,365.6773523999145,,,,,,,,,365.6674592999043,365.77745039993897,366.5781392999925,366.562199399923,366.56226209993474,366.5781392999925,366.5781392999925,366.5781392999925,367.3644736999413,right,1.0,40.65577400010079,,,,,,,,,,,,,,,,,,,,,,,,,,,,,,,sub-238,2.0,random_dot,60.17564068042374,
right,right,speed,,,,,0.0,1.0,1.0,1.0,18.0,0.0,36.0,1.0,367.3770953998901,,,,,,,,,367.3676942999009,367.72724379994906,368.5278315999312,368.5121499999659,368.5122263999656,368.5278315999312,368.5278315999312,368.5278315999312,369.3138679999393,right,1.0,40.64522530010436,,,,,,,,,,,,,,,,,,,,,,,,,,,,,,,sub-238,2.0,random_dot,60.17564068042374,
left,left,speed,,,,,0.0,1.0,1.0,1.0,18.0,1.0,37.0,0.0,369.3269233999308,,,,,,,,,369.31695479992777,370.5269573999103,371.3275940999156,371.31147399998736,371.3115378998919,371.3275940999156,371.3275940999156,371.3275940999156,372.030277099926,right,0.0,40.57230390002951,,,,,,,,,,,,,,,,,,,,,,,,,,,,,,,sub-238,2.0,random_dot,60.17564068042374,
left,left,speed,,,,,0.0,1.0,1.0,1.0,19.0,0.0,38.0,0.0,372.043222899898,,,,,,,,,372.03359939996153,372.8430215999251,373.6438792999834,373.6279478999786,373.6280124000041,373.6438792999834,373.6438792999834,373.6438792999834,374.4468129999004,left,1.0,40.676442000083625,,,,,,,,,,,,,,,,,,,,,,,,,,,,,,,sub-238,2.0,random_dot,60.17564068042374,
right,right,speed,,,,,0.0,1.0,1.0,1.0,19.0,1.0,39.0,1.0,374.4596200999804,,,,,,,,,374.4499747999944,375.2595183999511,376.0601796999108,376.0441472999519,376.0442178999074,376.0601796999108,376.0601796999108,376.0601796999108,376.8521283000009,right,1.0,40.644195900065824,,,,,,,,,,,,,,,,,,,,,,,,,,,,,,,sub-238,2.0,random_dot,60.17564068042374,
right,right,speed,,,,,0.0,1.0,1.0,1.0,20.0,0.0,40.0,1.0,376.8691799999215,,,,,,,,,376.8624244999373,376.9758909998927,377.77668229991104,377.76076649990864,377.7608288999181,377.77668229991104,377.77668229991104,377.77668229991104,378.5794940999476,right,1.0,40.67112870002165,,,,,,,,,,,,,,,,,,,,,,,,,,,,,,,sub-238,2.0,random_dot,60.17564068042374,
left,left,speed,,,,,0.0,1.0,1.0,1.0,20.0,1.0,41.0,0.0,378.592370599974,,,,,,,,,378.5827061999589,378.9422871998977,379.7430404999759,379.72721069992986,379.7272741999477,379.7430404999759,379.7430404999759,379.7430404999759,380.3462503999472,right,0.0,40.472254900145344,,,,,,,,,,,,,,,,,,,,,,,,,,,,,,,sub-238,2.0,random_dot,60.17564068042374,
left,left,speed,,,,,0.0,1.0,1.0,1.0,21.0,0.0,42.0,0.0,380.3588557000039,,,,,,,,,380.3494251999073,380.4588873999892,381.2595316999359,381.2435379999224,381.2436005999334,381.2595316999359,381.2595316999359,381.2595316999359,381.879321699962,right,0.0,40.49056330008898,,,,,,,,,,,,,,,,,,,,,,,,,,,,,,,sub-238,2.0,random_dot,60.17564068042374,
right,right,speed,,,,,0.0,1.0,1.0,1.0,21.0,1.0,43.0,1.0,381.8917981999693,,,,,,,,,381.8825180999702,382.6919375999132,383.4927629999584,383.47675559995696,383.476820299984,383.4927629999584,383.4927629999584,383.4927629999584,384.1951410999754,right,1.0,40.56555780000053,,,,,,,,,,,,,,,,,,,,,,,,,,,,,,,sub-238,2.0,random_dot,60.17564068042374,
right,right,speed,,,,,0.0,1.0,1.0,1.0,22.0,0.0,44.0,1.0,384.2082368999254,,,,,,,,,384.198120099958,385.0082993999822,385.8090554999653,385.79300689999945,385.79306880000513,385.8090554999653,385.8090554999653,385.8090554999653,386.4783442999469,right,1.0,40.52920800016727,,,,,,,,,,,,,,,,,,,,,,,,,,,,,,,sub-238,2.0,random_dot,60.17564068042374,
left,left,speed,,,,,0.0,1.0,1.0,1.0,22.0,1.0,45.0,0.0,386.4914311999455,,,,,,,,,386.4815200999146,387.2913340999512,388.0920124999248,388.076002299902,388.0760646999115,388.0920124999248,388.0920124999248,388.0920124999248,388.9275858999463,right,0.0,40.694355500047095,,,,,,,,,,,,,,,,,,,,,,,,,,,,,,,sub-238,2.0,random_dot,60.17564068042374,
right,right,speed,,,,,0.0,1.0,1.0,1.0,23.0,0.0,46.0,1.0,388.9410398999462,,,,,,,,,388.9307213999564,389.290990499896,390.0917017000029,390.0757927999366,390.07585579995066,390.0917017000029,390.0917017000029,390.0917017000029,391.0109081999399,right,1.0,40.7786105000414,,,,,,,,,,,,,,,,,,,,,,,,,,,,,,,sub-238,2.0,random_dot,60.17564068042374,
left,left,speed,,,,,0.0,1.0,1.0,1.0,23.0,1.0,47.0,0.0,391.0240348998923,,,,,,,,,391.0139390999684,391.1240359999938,391.9247979999054,391.9088009999832,391.9088628999889,391.9247979999054,391.9247979999054,391.9247979999054,392.8945340999635,right,0.0,40.843317500082776,,,,,,,,,,,,,,,,,,,,,,,,,,,,,,,sub-238,2.0,random_dot,60.17564068042374,
left,left,speed,,,,,0.0,1.0,1.0,1.0,24.0,0.0,48.0,0.0,392.90722339996137,,,,,,,,,392.8977357998956,394.1071904998971,394.9079309999943,394.8918305999832,394.8919240999967,394.9079309999943,394.9079309999943,394.9079309999943,395.57749899988994,right,0.0,40.54006970010232,,,,,,,,,,,,,,,,,,,,,,,,,,,,,,,sub-238,2.0,random_dot,60.17564068042374,
right,right,speed,,,,,0.0,1.0,1.0,1.0,24.0,1.0,49.0,1.0,395.5902592999628,,,,,,,,,395.5806627999991,395.69033309991937,396.4909715999384,396.47508629993536,396.47514939995017,396.4909715999384,396.4909715999384,396.4909715999384,397.1270027999999,right,1.0,40.50097120006103,,,,,,,,,,,,,,,,,,,,,,,,,,,,,,,sub-238,2.0,random_dot,60.17564068042374,
left,left,speed,,,,,0.0,1.0,1.0,1.0,25.0,0.0,50.0,0.0,397.1399045999861,,,,,,,,,397.1299931999529,398.33977989992127,399.1407206999138,399.12477209989447,399.1248352999101,399.1407206999138,399.1407206999138,399.1407206999138,400.0101515999995,left,1.0,40.7394608000759,,,,,,,,,,,,,,,,,,,,,,,,,,,,,,,sub-238,2.0,random_dot,60.17564068042374,
right,right,speed,,,,,0.0,1.0,1.0,1.0,25.0,1.0,51.0,1.0,400.0229323999956,,,,,,,,,400.0131750999717,401.2228545999387,402.0235342999222,402.0075256999117,402.00758829992265,402.0235342999222,402.0235342999222,402.0235342999222,403.0593601999572,left,0.0,40.89956150006037,,,,,,,,,,,,,,,,,,,,,,,,,,,,,,,sub-238,2.0,random_dot,60.17564068042374,
right,right,speed,,,,,0.0,1.0,1.0,1.0,26.0,0.0,52.0,1.0,403.0726112999255,,,,,,,,,403.0625301999971,403.422451499966,404.2232392999576,404.2071709999582,404.20725669991225,404.2232392999576,404.2232392999576,404.2232392999576,405.775828099926,right,1.0,41.418748700176366,,,,,,,,,,,,,,,,,,,,,,,,,,,,,,,sub-238,2.0,random_dot,60.17564068042374,
left,left,speed,,,,,0.0,1.0,1.0,1.0,26.0,1.0,53.0,0.0,405.788812499959,,,,,,,,,405.77899839996826,406.9888489999576,407.78942609997466,407.7734219999984,407.7734844998922,407.78942609997466,407.78942609997466,407.78942609997466,408.9257380999625,right,0.0,41.00870960007887,,,,,,,,,,,,,,,,,,,,,,,,,,,,,,,sub-238,2.0,random_dot,60.17564068042374,
right,right,speed,,,,,0.0,1.0,1.0,1.0,27.0,0.0,54.0,1.0,408.9384357999079,,,,,,,,,408.9290320998989,409.03854179999325,409.8392483999487,409.82325429993216,409.8233182999538,409.8392483999487,409.8392483999487,409.8392483999487,410.7254838999361,left,0.0,40.75543720007408,,,,,,,,,,,,,,,,,,,,,,,,,,,,,,,sub-238,2.0,random_dot,60.17564068042374,
left,left,speed,,,,,0.0,1.0,1.0,1.0,27.0,1.0,55.0,0.0,410.73816109995823,,,,,,,,,410.7287948000012,411.9383728998946,412.73878849996254,412.72294149990194,412.7230039999122,412.73878849996254,412.73878849996254,412.73878849996254,413.5082173999399,left,1.0,40.6352073000744,,,,,,,,,,,,,,,,,,,,,,,,,,,,,,,sub-238,2.0,random_dot,60.17564068042374,
right,right,speed,,,,,0.0,1.0,1.0,1.0,28.0,0.0,56.0,1.0,413.521229499951,,,,,,,,,413.5113897999981,414.32099329994526,415.1218073999044,415.1058758998988,415.1059389999136,415.1218073999044,415.1218073999044,415.1218073999044,416.0245314999484,right,1.0,40.76345280010719,,,,,,,,,,,,,,,,,,,,,,,,,,,,,,,sub-238,2.0,random_dot,60.17564068042374,
left,left,speed,,,,,0.0,1.0,1.0,1.0,28.0,1.0,57.0,0.0,416.0374485999346,,,,,,,,,416.0278758999193,416.1376245999709,416.93837639992125,416.9224572998937,416.9225209999131,416.93837639992125,416.93837639992125,416.93837639992125,417.8411933999741,right,0.0,40.776213200064376,,,,,,,,,,,,,,,,,,,,,,,,,,,,,,,sub-238,2.0,random_dot,60.17564068042374,
left,left,speed,,,,,0.0,1.0,1.0,1.0,29.0,0.0,58.0,0.0,417.854018199956,,,,,,,,,417.8445042999229,417.95387689990457,418.75472189998254,418.7387929999968,418.7388881999068,418.75472189998254,418.75472189998254,418.75472189998254,419.7243683999404,left,1.0,40.8412378000794,,,,,,,,,,,,,,,,,,,,,,,,,,,,,,,sub-238,2.0,random_dot,60.17564068042374,
right,right,speed,,,,,0.0,1.0,1.0,1.0,29.0,1.0,59.0,1.0,419.73701279994566,,,,,,,,,419.7273352999473,420.0869682999328,420.88775789993815,420.8718639999861,420.87192780000623,420.88775789993815,420.88775789993815,420.88775789993815,421.64057279995177,right,1.0,40.62034090002999,,,,,,,,,,,,,,,,,,,,,,,,,,,,,,,sub-238,2.0,random_dot,60.17564068042374,
,,speed,,,,,0.0,1.0,1.0,1.0,,,,,,,,,,,,,,,,,,,,,,,,,,,,,,,,,,,,,,,,,,,,,,,,,,,,,,,,sub-238,2.0,random_dot,60.17564068042374,
,,,,,,,,,,,,,,,,,,,,,,,,,,,,,,,,,,,,,,,,,,,,,,,,,,,,,,,,,,,,,,421.6429909999715,421.6534905999433,426.6528021999402,426.6377667000052,sub-238,,,,
