direction,corrAns,thisN,thisTrialN,thisRepN,respDots.keys,respDots.corr,respDots.rt,respDots.duration,randomInstr,respRandomInstr.keys,respRandomInstr.rt,respRandomInstr.duration,practice_trials.thisRepN,practice_trials.thisTrialN,practice_trials.thisN,practice_trials.thisIndex,instr_trials.thisRepN,instr_trials.thisTrialN,instr_trials.thisN,instr_trials.thisIndex,test_trials.thisRepN,test_trials.thisTrialN,test_trials.thisN,test_trials.thisIndex,thisRow.t,notes,general_instruction.started,textGeneralInstr.started,respGeneralInstr.started,general_instruction.stopped,respGeneralInstr.keys,respGeneralInstr.rt,respGeneralInstr.duration,ITI.started,fixcross.started,fixcross.stopped,ITI.stopped,dots.started,backgroundDots.started,stimulusDots.started,respDots.started,stimulusDots.stopped,dots.stopped,practice_trials.respDots.keys,practice_trials.respDots.corr,practice_trials.respDots.rt,practice_trials.respDots.duration,feedback.started,textFeedback.started,feedback.stopped,textFeedback.stopped,info.started,textInfo.started,keyRespInfo.started,info.stopped,keyRespInfo.keys,keyRespInfo.rt,keyRespInfo.duration,test_instruction.started,textTestInstr.started,respTestInstr.started,test_instruction.stopped,respTestInstr.keys,respTestInstr.rt,respTestInstr.duration,random_instruction.started,textRandomInstr.started,respRandomInstr.started,random_instruction.stopped,instr_trials.respRandomInstr.keys,instr_trials.respRandomInstr.rt,instr_trials.respRandomInstr.duration,test_trials.respDots.keys,test_trials.respDots.corr,test_trials.respDots.rt,test_trials.respDots.duration,goodbye.started,textGoodbye.started,textGoodbye.stopped,goodbye.stopped,participant,session,expName,frameRate,Unnamed: 88
,,,,,,,,,,,,,,,,,,,,,,,,,,,0.0124333330313675,0.0198568330379202,0.0198568330379202,59.33329995803069,space,59.27121783298208,,,,,,,,,,,,,,,,,,,,,,,,,,,,,,,,,,,,,,,,,,,,,,,,,sub-035,1,random_dot,,
right,right,0.0,0.0,0.0,left,0.0,7.499876791029237,,,,,,0.0,0.0,0.0,1.0,,,,,,,,,59.37576337502105,,,,,,,,,59.35504445800325,59.691512208024506,60.49973558302736,60.47993258299539,60.48038000002271,60.49973558302736,60.49973558302736,60.49973558302736,65.47345129103633,68.00886400003219,left,0.0,7.499876791029237,,68.01969845802523,68.10094158299034,68.51310000004014,,,,,,,,,,,,,,,,,,,,,,,,,,,,,,,sub-035,1,random_dot,,
left,left,1.0,1.0,0.0,left,1.0,5.418674707994796,,,,,,0.0,1.0,1.0,0.0,,,,,,,,,68.52345208299812,,,,,,,,,68.51353795803152,68.8568862079992,69.64886204100912,69.64093616604805,69.64152262499556,69.64886204100912,69.64886204100912,69.64886204100912,74.62865658302326,75.07545029104222,left,1.0,5.418674707994796,,75.08326870802557,75.10705537500326,75.57973283302272,,,,,,,,,,,,,,,,,,,,,,,,,,,,,,,sub-035,1,random_dot,,
right,right,2.0,0.0,1.0,left,0.0,6.849000540969428,,,,,,1.0,0.0,2.0,1.0,,,,,,,,,75.58997983299196,,,,,,,,,75.58019866602262,75.67348162503913,76.46561574999942,76.45758945803391,76.45814699999755,76.46561574999942,76.46561574999942,76.46561574999942,81.45672654104419,83.3274732910213,left,0.0,6.849000540969428,,83.33074095804477,83.33869337500073,83.82401162502356,83.8297001660103,,,,,,,,,,,,,,,,,,,,,,,,,,,,,,sub-035,1,random_dot,,
left,left,3.0,1.0,1.0,right,0.0,5.63457745895721,,,,,,1.0,1.0,3.0,0.0,,,,,,,,,83.8297001660103,,,,,,,,,83.82447312504519,84.17314441601047,84.96597404102795,84.95760641602101,84.95818283304106,84.96597404102795,84.96597404102795,84.96597404102795,89.95647341600852,90.60866825003176,right,0.0,5.63457745895721,,90.60881525004515,90.61910137499216,91.10736312501832,91.11309950001304,,,,,,,,,,,,,,,,,,,,,,,,,,,,,,sub-035,1,random_dot,,
left,left,4.0,0.0,2.0,right,0.0,5.941711333056446,,,,,,2.0,0.0,4.0,0.0,,,,,,,,,91.11309950001304,,,,,,,,,91.10783724999057,91.456535208039,92.24859383300644,92.24062483303716,92.24117708299308,92.24859383300644,92.24859383300644,92.24859383300644,97.23978829104452,98.19291675003478,right,0.0,5.941711333056446,,98.19312412501311,98.2034623750369,98.69045483303488,98.69587229099125,,,,,,,,,,,,,,,,,,,,,,,,,,,,,,sub-035,1,random_dot,,
right,right,5.0,1.0,2.0,left,0.0,6.491930874995887,,,,,,2.0,1.0,5.0,1.0,,,,,,,,,98.69587229099125,,,,,,,,,98.69086712499848,99.0397846660344,99.8314220830216,99.82372700003909,99.82424250000622,99.8314220830216,99.8314220830216,99.8314220830216,104.81118666601832,106.32655475003412,left,0.0,6.491930874995887,,106.32675912504784,106.33773241599556,106.82398641604232,106.82989404100226,,,,,,,,,,,,,,,,,,,,,,,,,,,,,,sub-035,1,random_dot,,
right,right,6.0,0.0,3.0,left,0.0,5.6297700419672765,,,,,,3.0,0.0,6.0,1.0,,,,,,,,,106.82989404100226,,,,,,,,,106.82448950002436,107.17310170800192,107.9652208330226,107.95703612500802,107.95754987502004,107.9652208330226,107.9652208330226,107.9652208330226,112.94489983300446,113.5987950830022,left,0.0,5.6297700419672765,,113.5989404580323,113.61016645800557,114.0961568329949,114.10625070799142,,,,,,,,,,,,,,,,,,,,,,,,,,,,,,sub-035,1,random_dot,,
left,left,7.0,1.0,3.0,left,1.0,5.572893875010777,,,,,,3.0,1.0,7.0,0.0,,,,,,,,,114.10625070799142,,,,,,,,,114.0965104160132,115.2953990829992,116.08805187500548,116.0797267910093,116.08015325001908,116.08805187500548,116.08805187500548,116.08805187500548,121.07284033304312,121.66478441603248,left,1.0,5.572893875010777,,121.66919325001072,121.6778589580208,122.16184108302696,122.17286237503868,,,,,,,,,,,,,,,,,,,,,,,,,,,,,,sub-035,1,random_dot,,
left,left,8.0,0.0,4.0,left,1.0,5.630724790971726,,,,,,4.0,0.0,8.0,0.0,,,,,,,,,122.17286237503868,,,,,,,,,122.16219666600227,123.36244950001128,124.1547000830178,124.1459912910359,124.14641833299538,124.1547000830178,124.1547000830178,124.1547000830178,129.13944075000472,129.79138120799325,left,1.0,5.630724790971726,,129.79152875003638,129.8013396250317,130.29032270802418,130.2958404160454,,,,,,,,,,,,,,,,,,,,,,,,,,,,,,sub-035,1,random_dot,,
right,right,9.0,1.0,4.0,right,1.0,5.6418204169604,,,,,,4.0,1.0,9.0,1.0,,,,,,,,,130.2958404160454,,,,,,,,,130.29070937499637,131.0896614160156,131.8812224160065,131.8733866250259,131.87382858304773,131.8812224160065,131.8812224160065,131.8812224160065,136.86081425001612,137.52776370802894,right,1.0,5.6418204169604,,137.52796029101592,137.53818120801589,138.02344666601857,138.0290587079944,,,,,,,,,,,,,,,,,,,,,,,,,,,,,,sub-035,1,random_dot,,
left,left,10.0,0.0,5.0,right,0.0,5.457823082979303,,,,,,5.0,0.0,10.0,0.0,,,,,,,,,138.0290587079944,,,,,,,,,138.0239052080433,138.12255608302075,138.91523849999066,138.90676625003107,138.90730545803672,138.91523849999066,138.91523849999066,138.91523849999066,143.90579133300344,144.37573675002204,right,0.0,5.457823082979303,,144.3803894580342,144.390405208047,144.8783621659968,,,,,,,,,,,,,,,,,,,,,,,,,,,,,,,sub-035,1,random_dot,,
right,right,11.0,1.0,5.0,left,0.0,5.509694166015834,,,,,,5.0,1.0,11.0,1.0,,,,,,,,,144.88935708301142,,,,,,,,,144.8788012500154,145.67257804103428,146.46468141599323,146.45671658299398,146.45718879101332,146.46468141599323,146.46468141599323,146.46468141599323,151.44542058301158,151.98100079101278,left,0.0,5.509694166015834,,151.98114116600482,151.991642915993,152.4791287080152,152.48916295799427,,,,,,,,,,,,,,,,,,,,,,,,,,,,,,sub-035,1,random_dot,,
left,left,12.0,0.0,6.0,left,1.0,5.4961399169988,,,,,,6.0,0.0,12.0,0.0,,,,,,,,,152.48916295799427,,,,,,,,,152.47950229101116,153.67967604100704,154.48133850004524,154.47338087501703,154.4739167910302,154.48133850004524,154.48133850004524,154.48133850004524,159.46127533301478,159.98084112501238,left,1.0,5.4961399169988,,159.98517316603102,159.99390812503407,160.47916104103206,160.48893362499075,,,,,,,,,,,,,,,,,,,,,,,,,,,,,,sub-035,1,random_dot,,
right,right,13.0,1.0,6.0,right,1.0,6.481787167023867,,,,,,6.0,1.0,13.0,1.0,,,,,,,,,160.48893362499075,,,,,,,,,160.47952716599684,161.67929275002098,162.48125633300515,162.4731859160238,162.4737312500365,162.48125633300515,162.48125633300515,162.48125633300515,167.46034658304416,168.9756722500315,right,1.0,6.481787167023867,,168.97577350004576,168.98892370803514,169.47308929101564,169.47888245800277,,,,,,,,,,,,,,,,,,,,,,,,,,,,,,sub-035,1,random_dot,,
left,left,14.0,0.0,7.0,right,0.0,5.546890750003513,,,,,,7.0,0.0,14.0,0.0,,,,,,,,,169.47888245800277,,,,,,,,,169.4735421250225,170.67230858304538,171.46493720804574,171.45664766599657,171.4572080830112,171.46493720804574,171.46493720804574,171.46493720804574,176.45549437502632,177.01428341603605,right,0.0,5.546890750003513,,177.01883725001244,177.02828370803036,177.51270904100966,177.52213312499225,,,,,,,,,,,,,,,,,,,,,,,,,,,,,,sub-035,1,random_dot,,
right,right,15.0,1.0,7.0,left,0.0,5.511502292007208,,,,,,7.0,1.0,15.0,1.0,,,,,,,,,177.52213312499225,,,,,,,,,177.51306358299917,178.7121689580381,179.5140431660111,179.50625091599068,179.5067087500356,179.5140431660111,179.5140431660111,179.5140431660111,184.5054740830092,185.03051741601664,left,0.0,5.511502292007208,,185.03065716603305,185.04084579099435,185.52877199999057,185.53869741602105,,,,,,,,,,,,,,,,,,,,,,,,,,,,,,sub-035,1,random_dot,,
left,left,16.0,0.0,8.0,right,0.0,5.392679208016489,,,,,,8.0,0.0,16.0,0.0,,,,,,,,,185.53869741602105,,,,,,,,,185.52916687499965,185.87834070803365,186.67059679102385,186.662177124992,186.66260283300653,186.67059679102385,186.67059679102385,186.67059679102385,191.655475666048,192.07343266601677,right,0.0,5.392679208016489,,192.0736114580068,192.0837427910301,192.5730785410269,192.5786916250363,,,,,,,,,,,,,,,,,,,,,,,,,,,,,,sub-035,1,random_dot,,
right,right,17.0,1.0,8.0,left,0.0,5.380885333986953,,,,,,8.0,1.0,17.0,1.0,,,,,,,,,192.5786916250363,,,,,,,,,192.5735392080387,192.67208012501945,193.4641162500484,193.456178708002,193.45672166603617,193.4641162500484,193.4641162500484,193.4641162500484,198.44487354101148,198.84778129099868,left,0.0,5.380885333986953,,198.84794195799623,198.86009900004137,199.34523633302888,199.35516691603695,,,,,,,,,,,,,,,,,,,,,,,,,,,,,,sub-035,1,random_dot,,
right,right,18.0,0.0,9.0,left,0.0,5.655012582952622,,,,,,9.0,0.0,18.0,1.0,,,,,,,,,199.35516691603695,,,,,,,,,199.34559229103616,199.4454078330309,200.24732420803048,200.2393722910201,200.23992200003704,200.24732420803048,200.24732420803048,200.24732420803048,205.23843379103343,205.90707708301488,left,0.0,5.655012582952622,,205.90723854099636,205.91735695803072,206.40613745799052,206.4117867500172,,,,,,,,,,,,,,,,,,,,,,,,,,,,,,sub-035,1,random_dot,,
left,left,19.0,1.0,9.0,right,0.0,5.808880374999717,,,,,,9.0,1.0,19.0,0.0,,,,,,,,,206.4117867500172,,,,,,,,,206.40659274999047,207.6052344579948,208.3967442500289,208.38920454104664,208.3896471250337,208.3967442500289,208.3967442500289,208.3967442500289,213.3764017909998,214.2084030410042,right,0.0,5.808880374999717,,214.2086134160054,214.21903483301867,214.7059125000378,214.71358879102627,,,,,,,,,,,,,,,,,,,,,,,,,,,,,,sub-035,1,random_dot,,
,,,,,,,,,,,,,,,,,,,,,,,,,,,,,,,,,,,,,,,,,,,,,,,,,,,,214.70607108302647,214.71358879102627,214.71358879102627,217.9476330000325,space,3.231630792026408,,,,,,,,,,,,,,,,,,,,,,,,sub-035,1,random_dot,,
,,,,,,,,,,,,,,,,,,,,,,,,,,,,,,,,,,,,,,,,,,,,,,,,,,,,,,,,,,,217.94779979099985,217.96088875003625,217.96088875003625,226.1292253750144,space,8.164017833012622,,,,,,,,,,,,,,,,,sub-035,1,random_dot,,
right,right,0.0,0.0,0.0,left,0.0,5.563621084031183,,accuracy,space,3.780884583014995,,,,,,0.0,0.0,0.0,0.0,0.0,0.0,0.0,1.0,229.96330208302243,,,,,,,,,229.95536462502787,230.74458400002916,231.53673616604647,231.52819029102105,231.5286424580263,231.53673616604647,231.53673616604647,231.53673616604647,236.52133079100167,237.1069502080209,,,,,,,,,,,,,,,,,,,,,,,226.1517222910188,226.1610380409984,226.1610380409984,229.94608387502376,space,3.780884583014995,,left,0.0,5.563621084031183,,,,,,sub-035,1,random_dot,,
left,left,1.0,1.0,0.0,left,1.0,5.6103250840096734,,accuracy,space,3.780884583014995,,,,,,0.0,0.0,0.0,0.0,0.0,1.0,1.0,0.0,237.1168240000261,,,,,,,,,237.1076199579984,237.2048885830445,237.9971731660189,237.9890259579988,237.98959029099208,237.9971731660189,237.9971731660189,237.9971731660189,242.98815362504683,243.6136450410122,,,,,,,,,,,,,,,,,,,,,,,,,,,,,,left,1.0,5.6103250840096734,,,,,,sub-035,1,random_dot,,
right,right,2.0,0.0,1.0,right,1.0,5.623034707969055,,accuracy,space,3.780884583014995,,,,,,0.0,0.0,0.0,0.0,1.0,0.0,2.0,1.0,243.6235693329945,,,,,,,,,243.614182749996,244.4109092910076,245.2033495830256,245.1951127499924,245.19553441600877,245.2033495830256,245.2033495830256,245.2033495830256,250.193645249994,250.83022620802512,,,,,,,,,,,,,,,,,,,,,,,,,,,,,,right,1.0,5.623034707969055,,,,,,sub-035,1,random_dot,,
left,left,3.0,1.0,1.0,left,1.0,5.718342792009935,,accuracy,space,3.780884583014995,,,,,,0.0,0.0,0.0,0.0,1.0,1.0,3.0,0.0,250.8400744160172,,,,,,,,,250.8307775830035,250.92764891602565,251.72048783302307,251.71160733303984,251.71205279103012,251.72048783302307,251.72048783302307,251.72048783302307,256.7046041249996,257.4519869580399,,,,,,,,,,,,,,,,,,,,,,,,,,,,,,left,1.0,5.718342792009935,,,,,,sub-035,1,random_dot,,
right,right,4.0,0.0,2.0,right,1.0,6.910289291990921,,accuracy,space,3.780884583014995,,,,,,0.0,0.0,0.0,0.0,2.0,0.0,4.0,1.0,257.4566789160017,,,,,,,,,257.452490375028,257.7949755830341,258.5968717079959,258.58872195804724,258.5892611659947,258.5968717079959,258.5968717079959,258.5968717079959,263.58777104102774,265.5127443750389,,,,,,,,,,,,,,,,,,,,,,,,,,,,,,right,1.0,6.910289291990921,,,,,,sub-035,1,random_dot,,
left,left,5.0,1.0,2.0,left,1.0,5.75133395800367,,accuracy,space,3.780884583014995,,,,,,0.0,0.0,0.0,0.0,2.0,1.0,5.0,0.0,265.52268141601235,,,,,,,,,265.5132943750359,265.6128904580255,266.4131902080262,266.4053044160246,266.40584987500915,266.4131902080262,266.4131902080262,266.4131902080262,271.4043762910296,272.1733319160412,,,,,,,,,,,,,,,,,,,,,,,,,,,,,,left,1.0,5.75133395800367,,,,,,sub-035,1,random_dot,,
right,right,6.0,0.0,3.0,right,1.0,6.962081249977928,,accuracy,space,3.780884583014995,,,,,,0.0,0.0,0.0,0.0,3.0,0.0,6.0,1.0,272.18338470801245,,,,,,,,,272.1739914159989,272.9711629580124,273.7627940000384,273.7551723330398,273.7556188330054,273.7627940000384,273.7627940000384,273.7627940000384,278.74203383299755,280.73010304104537,,,,,,,,,,,,,,,,,,,,,,,,,,,,,,right,1.0,6.962081249977928,,,,,,sub-035,1,random_dot,,
left,left,7.0,1.0,3.0,left,1.0,6.09065579099115,,accuracy,space,3.780884583014995,,,,,,0.0,0.0,0.0,0.0,3.0,1.0,7.0,0.0,280.7401673750137,,,,,,,,,280.73065700003644,281.92705562501214,282.71957054099767,282.7109473750461,282.7113819580409,282.71957054099767,282.71957054099767,282.71957054099767,287.7042921250104,288.81332441599807,,,,,,,,,,,,,,,,,,,,,,,,,,,,,,left,1.0,6.09065579099115,,,,,,sub-035,1,random_dot,,
right,right,8.0,0.0,4.0,right,1.0,7.385454750037752,,accuracy,space,3.780884583014995,,,,,,0.0,0.0,0.0,0.0,4.0,0.0,8.0,1.0,288.8232757080113,,,,,,,,,288.8138410830288,289.16054837504635,289.9528205000097,289.944888375001,289.9453412500443,289.9528205000097,289.9528205000097,289.9528205000097,294.94297375000315,297.3516121660359,,,,,,,,,,,,,,,,,,,,,,,,,,,,,,right,1.0,7.385454750037752,,,,,,sub-035,1,random_dot,,
left,left,9.0,1.0,4.0,left,1.0,5.701550500001758,,accuracy,space,3.780884583014995,,,,,,0.0,0.0,0.0,0.0,4.0,1.0,9.0,0.0,297.3560154160368,,,,,,,,,297.3520759160165,297.6938923750422,298.4859897500137,298.47749175003264,298.4779255000176,298.4859897500137,298.4859897500137,298.4859897500137,303.47677975002443,304.1905007500318,,,,,,,,,,,,,,,,,,,,,,,,,,,,,,left,1.0,5.701550500001758,,,,,,sub-035,1,random_dot,,
right,right,10.0,0.0,5.0,right,1.0,5.446889792045113,,accuracy,space,3.780884583014995,,,,,,0.0,0.0,0.0,0.0,5.0,0.0,10.0,1.0,304.20042741601355,,,,,,,,,304.191253875033,304.53745708300266,305.3295246660128,305.3215892080334,305.3221345830243,305.3295246660128,305.3295246660128,305.3295246660128,310.3207137080026,310.77910766599234,,,,,,,,,,,,,,,,,,,,,,,,,,,,,,right,1.0,5.446889792045113,,,,,,sub-035,1,random_dot,,
left,left,11.0,1.0,5.0,left,1.0,5.427150790987071,,accuracy,space,3.780884583014995,,,,,,0.0,0.0,0.0,0.0,5.0,1.0,11.0,0.0,310.78914362500655,,,,,,,,,310.77967745799106,311.12718454102287,311.91926691599656,311.9101878750371,311.9105980829918,311.91926691599656,311.91926691599656,311.91926691599656,316.90401408303296,317.3562786250259,,,,,,,,,,,,,,,,,,,,,,,,,,,,,,left,1.0,5.427150790987071,,,,,,sub-035,1,random_dot,,
right,right,12.0,0.0,6.0,left,0.0,5.509251041978132,,accuracy,space,3.780884583014995,,,,,,0.0,0.0,0.0,0.0,6.0,0.0,12.0,1.0,317.36648700002115,,,,,,,,,317.3569936660351,318.55400270799873,319.3460347910295,319.3380741660367,319.33861600002274,319.3460347910295,319.3460347910295,319.3460347910295,324.3257845410262,324.8626960410038,,,,,,,,,,,,,,,,,,,,,,,,,,,,,,left,0.0,5.509251041978132,,,,,,sub-035,1,random_dot,,
left,left,13.0,1.0,6.0,right,0.0,5.778515041980427,,accuracy,space,3.780884583014995,,,,,,0.0,0.0,0.0,0.0,6.0,1.0,13.0,0.0,324.8727740000468,,,,,,,,,324.8632981660194,324.9603559160023,325.752423958038,325.7439709160244,325.744412708038,325.752423958038,325.752423958038,325.752423958038,330.73728479101555,331.5393067499972,,,,,,,,,,,,,,,,,,,,,,,,,,,,,,right,0.0,5.778515041980427,,,,,,sub-035,1,random_dot,,
left,left,14.0,0.0,7.0,left,1.0,5.670076208014507,,accuracy,space,3.780884583014995,,,,,,0.0,0.0,0.0,0.0,7.0,0.0,14.0,0.0,331.54943966603605,,,,,,,,,331.539998916036,332.3370908750221,333.12867350003216,333.121159500035,333.1215944160358,333.12867350003216,333.12867350003216,333.12867350003216,338.12027016602224,338.8059327910305,,,,,,,,,,,,,,,,,,,,,,,,,,,,,,left,1.0,5.670076208014507,,,,,,sub-035,1,random_dot,,
right,right,15.0,1.0,7.0,right,1.0,5.702622874989174,,accuracy,space,3.780884583014995,,,,,,0.0,0.0,0.0,0.0,7.0,1.0,15.0,1.0,338.8159288330353,,,,,,,,,338.80664029100444,339.60381129104644,340.39549970801454,340.38788116601063,340.38833099999465,340.39549970801454,340.39549970801454,340.39549970801454,345.38684700004524,346.1056305410457,,,,,,,,,,,,,,,,,,,,,,,,,,,,,,right,1.0,5.702622874989174,,,,,,sub-035,1,random_dot,,
right,right,16.0,0.0,8.0,left,0.0,5.79564433300402,,accuracy,space,3.780884583014995,,,,,,0.0,0.0,0.0,0.0,8.0,0.0,16.0,1.0,346.11564320803154,,,,,,,,,346.1062762500369,346.9034947910113,347.69637091603363,347.6879007500247,347.68848354101647,347.69637091603363,347.69637091603363,347.69637091603363,352.6868402910186,353.495027750032,,,,,,,,,,,,,,,,,,,,,,,,,,,,,,left,0.0,5.79564433300402,,,,,,sub-035,1,random_dot,,
left,left,17.0,1.0,8.0,left,1.0,5.433163915993646,,accuracy,space,3.780884583014995,,,,,,0.0,0.0,0.0,0.0,8.0,1.0,17.0,0.0,353.50518258300144,,,,,,,,,353.49561841599643,354.29382041603094,355.0955249580438,355.0877056660247,355.0882621250348,355.0955249580438,355.0955249580438,355.0955249580438,360.0868587910081,360.5388316250173,,,,,,,,,,,,,,,,,,,,,,,,,,,,,,left,1.0,5.433163915993646,,,,,,sub-035,1,random_dot,,
right,right,18.0,0.0,9.0,right,1.0,5.463134167017415,,accuracy,space,3.780884583014995,,,,,,0.0,0.0,0.0,0.0,9.0,0.0,18.0,1.0,360.5490793749923,,,,,,,,,360.53950141603127,361.7367587499903,362.5285822080332,362.520762583008,362.52120612503495,362.5285822080332,362.5285822080332,362.5285822080332,367.507572750037,367.9943123330013,,,,,,,,,,,,,,,,,,,,,,,,,,,,,,right,1.0,5.463134167017415,,,,,,sub-035,1,random_dot,,
left,left,19.0,1.0,9.0,right,0.0,6.137439415964764,,accuracy,space,3.780884583014995,,,,,,0.0,0.0,0.0,0.0,9.0,1.0,19.0,0.0,368.0050353330444,,,,,,,,,367.994851666037,369.1923054580111,369.9852045830339,369.9761625830433,369.9766950830235,369.9852045830339,369.9852045830339,369.9852045830339,374.9700513330172,376.12856179103255,,,,,,,,,,,,,,,,,,,,,,,,,,,,,,right,0.0,6.137439415964764,,,,,,sub-035,1,random_dot,,
left,left,20.0,0.0,10.0,right,0.0,6.113289875036571,,accuracy,space,3.780884583014995,,,,,,0.0,0.0,0.0,0.0,10.0,0.0,20.0,0.0,376.1385887080105,,,,,,,,,376.1291170000332,376.9262762500439,377.7183894159971,377.7094909580192,377.7099230409949,377.7183894159971,377.7183894159971,377.7183894159971,382.703249083017,383.8384981660056,,,,,,,,,,,,,,,,,,,,,,,,,,,,,,right,0.0,6.113289875036571,,,,,,sub-035,1,random_dot,,
right,right,21.0,1.0,10.0,right,1.0,5.6747580409864895,,accuracy,space,3.780884583014995,,,,,,0.0,0.0,0.0,0.0,10.0,1.0,21.0,1.0,383.848512416007,,,,,,,,,383.8391817910015,384.186478040996,384.9786181250238,384.97059491602704,384.9711475830409,384.9786181250238,384.9786181250238,384.9786181250238,389.9697901660111,390.6558730410179,,,,,,,,,,,,,,,,,,,,,,,,,,,,,,right,1.0,5.6747580409864895,,,,,,sub-035,1,random_dot,,
left,left,22.0,0.0,11.0,left,1.0,5.48586770897964,,accuracy,space,3.780884583014995,,,,,,0.0,0.0,0.0,0.0,11.0,0.0,22.0,0.0,390.66601787501713,,,,,,,,,390.6565836660448,391.0031825409969,391.79448133299593,391.78708095802,391.7875225410098,391.79448133299593,391.79448133299593,391.79448133299593,396.7862301660352,397.2884971660096,,,,,,,,,,,,,,,,,,,,,,,,,,,,,,left,1.0,5.48586770897964,,,,,,sub-035,1,random_dot,,
right,right,23.0,1.0,11.0,right,1.0,6.361177249986213,,accuracy,space,3.780884583014995,,,,,,0.0,0.0,0.0,0.0,11.0,1.0,23.0,1.0,397.2985818330199,,,,,,,,,397.2892179160263,398.0864363330184,398.877845708048,398.87041475001024,398.87086179101607,398.877845708048,398.877845708048,398.877845708048,403.8697991660447,405.2453165000188,,,,,,,,,,,,,,,,,,,,,,,,,,,,,,right,1.0,6.361177249986213,,,,,,sub-035,1,random_dot,,
left,left,24.0,0.0,12.0,left,1.0,5.462167999998201,,accuracy,space,3.780884583014995,,,,,,0.0,0.0,0.0,0.0,12.0,0.0,24.0,0.0,405.2551697079907,,,,,,,,,405.2458625830477,406.44386354100425,407.2451228330028,407.2370198330027,407.2375107910484,407.2451228330028,407.2451228330028,407.2451228330028,412.23608620802406,412.71164737502113,,,,,,,,,,,,,,,,,,,,,,,,,,,,,,left,1.0,5.462167999998201,,,,,,sub-035,1,random_dot,,
right,right,25.0,1.0,12.0,right,1.0,5.401262458006386,,accuracy,space,3.780884583014995,,,,,,0.0,0.0,0.0,0.0,12.0,1.0,25.0,1.0,412.72152145800646,,,,,,,,,412.712188916048,413.0590916250367,413.8517311250325,413.8420863749925,413.84250516601605,413.8517311250325,413.8517311250325,413.8517311250325,418.8360765410471,419.25548487500055,,,,,,,,,,,,,,,,,,,,,,,,,,,,,,right,1.0,5.401262458006386,,,,,,sub-035,1,random_dot,,
left,left,26.0,0.0,13.0,left,1.0,5.511413916014135,,accuracy,space,3.780884583014995,,,,,,0.0,0.0,0.0,0.0,13.0,0.0,26.0,0.0,419.2652845410048,,,,,,,,,419.2561877080007,419.3526931250235,420.1442869580351,420.1368430000148,420.1372898750124,420.1442869580351,420.1442869580351,420.1442869580351,425.12423350004246,425.6618944160291,,,,,,,,,,,,,,,,,,,,,,,,,,,,,,left,1.0,5.511413916014135,,,,,,sub-035,1,random_dot,,
right,right,27.0,1.0,13.0,right,1.0,5.569177749974188,,accuracy,space,3.780884583014995,,,,,,0.0,0.0,0.0,0.0,13.0,1.0,27.0,1.0,425.6718915000092,,,,,,,,,425.6624527910026,426.4589132500114,427.2511816660408,427.2425650410005,427.2429935830296,427.2511816660408,427.2511816660408,427.2511816660408,432.23595508304425,432.8341169999912,,,,,,,,,,,,,,,,,,,,,,,,,,,,,,right,1.0,5.569177749974188,,,,,,sub-035,1,random_dot,,
right,right,28.0,0.0,14.0,left,0.0,5.696735833014827,,accuracy,space,3.780884583014995,,,,,,0.0,0.0,0.0,0.0,14.0,0.0,28.0,1.0,432.8391702499939,,,,,,,,,432.8346391660161,434.0256593330414,434.8178420410258,434.80927900003735,434.8097033330123,434.8178420410258,434.8178420410258,434.8178420410258,439.8071345830104,440.5211646660464,,,,,,,,,,,,,,,,,,,,,,,,,,,,,,left,0.0,5.696735833014827,,,,,,sub-035,1,random_dot,,
left,left,29.0,1.0,14.0,right,0.0,5.610505499993451,,accuracy,space,3.780884583014995,,,,,,0.0,0.0,0.0,0.0,14.0,1.0,29.0,0.0,440.5312268750277,,,,,,,,,440.5218138330383,440.8692238749936,441.661370582995,441.65319825004553,441.6537521660212,441.661370582995,441.661370582995,441.661370582995,446.6405789160053,447.2783937500208,,,,,,,,,,,,,,,,,,,,,,,,,,,,,,right,0.0,5.610505499993451,,,,,,sub-035,1,random_dot,,
right,right,30.0,0.0,15.0,left,0.0,5.439131541992538,,accuracy,space,3.780884583014995,,,,,,0.0,0.0,0.0,0.0,15.0,0.0,30.0,1.0,447.2883656250197,,,,,,,,,447.2789485829999,447.625952708011,448.4176429579966,448.4090490830131,448.40950704104034,448.4176429579966,448.4176429579966,448.4176429579966,453.4024306249921,453.8606627080008,,,,,,,,,,,,,,,,,,,,,,,,,,,,,,left,0.0,5.439131541992538,,,,,,sub-035,1,random_dot,,
left,left,31.0,1.0,15.0,left,1.0,5.465967207972426,,accuracy,space,3.780884583014995,,,,,,0.0,0.0,0.0,0.0,15.0,1.0,31.0,0.0,453.8713148329989,,,,,,,,,453.86120537499664,454.6592544580344,455.46118704101536,455.4531783750281,455.45373408304295,455.46118704101536,455.46118704101536,455.46118704101536,460.4523670829949,460.9374435410136,,,,,,,,,,,,,,,,,,,,,,,,,,,,,,left,1.0,5.465967207972426,,,,,,sub-035,1,random_dot,,
right,right,32.0,0.0,16.0,right,1.0,5.665538624976762,,accuracy,space,3.780884583014995,,,,,,0.0,0.0,0.0,0.0,16.0,0.0,32.0,1.0,460.9474730410148,,,,,,,,,460.93803054100135,461.035646791046,461.8272125000367,461.8196108750417,461.8200489160372,461.8272125000367,461.8272125000367,461.8272125000367,466.8070377080003,467.4952691250364,,,,,,,,,,,,,,,,,,,,,,,,,,,,,,right,1.0,5.665538624976762,,,,,,sub-035,1,random_dot,,
left,left,33.0,1.0,16.0,left,1.0,5.644833999976981,,accuracy,space,3.780884583014995,,,,,,0.0,0.0,0.0,0.0,16.0,1.0,33.0,0.0,467.5062645000289,,,,,,,,,467.49613358301576,468.69282066600863,469.49459404102527,469.4863367080106,469.4869032500428,469.49459404102527,469.49459404102527,469.49459404102527,474.4741615410312,475.1440173330484,,,,,,,,,,,,,,,,,,,,,,,,,,,,,,left,1.0,5.644833999976981,,,,,,sub-035,1,random_dot,,
right,right,34.0,0.0,17.0,left,0.0,6.058634333021473,,accuracy,space,3.780884583014995,,,,,,0.0,0.0,0.0,0.0,17.0,0.0,34.0,1.0,475.15413016604725,,,,,,,,,475.144579957996,476.3421227500076,477.1439588330104,477.13622004102217,477.1367589580477,477.1439588330104,477.1439588330104,477.1439588330104,482.1242520000087,483.20570945803775,,,,,,,,,,,,,,,,,,,,,,,,,,,,,,left,0.0,6.058634333021473,,,,,,sub-035,1,random_dot,,
left,left,35.0,1.0,17.0,left,1.0,5.359890124993399,,accuracy,space,3.780884583014995,,,,,,0.0,0.0,0.0,0.0,17.0,1.0,35.0,0.0,483.21585966600105,,,,,,,,,483.20645829103887,484.40198241599137,485.1935747080133,485.1860585410032,485.1865032080095,485.1935747080133,485.1935747080133,485.1935747080133,490.1743420830462,490.5610117500182,,,,,,,,,,,,,,,,,,,,,,,,,,,,,,left,1.0,5.359890124993399,,,,,,sub-035,1,random_dot,,
left,left,36.0,0.0,18.0,right,0.0,5.580926250026096,,accuracy,space,3.780884583014995,,,,,,0.0,0.0,0.0,0.0,18.0,0.0,36.0,0.0,490.5709794580471,,,,,,,,,490.5615660829935,490.6582847080426,491.4599988750415,491.45258920802735,491.45305716601433,491.4599988750415,491.4599988750415,491.4599988750415,496.4421126249945,497.0439875000157,,,,,,,,,,,,,,,,,,,,,,,,,,,,,,right,0.0,5.580926250026096,,,,,,sub-035,1,random_dot,,
right,right,37.0,1.0,18.0,left,0.0,5.614360415958799,,accuracy,space,3.780884583014995,,,,,,0.0,0.0,0.0,0.0,18.0,1.0,37.0,1.0,497.0540282080183,,,,,,,,,497.0445137500064,497.841337291,498.6337902910309,498.624733833014,498.62516195804346,498.6337902910309,498.6337902910309,498.6337902910309,503.618544958008,504.2539492910146,,,,,,,,,,,,,,,,,,,,,,,,,,,,,,left,0.0,5.614360415958799,,,,,,sub-035,1,random_dot,,
right,right,38.0,0.0,19.0,left,0.0,5.634328333020676,,accuracy,space,3.780884583014995,,,,,,0.0,0.0,0.0,0.0,19.0,0.0,38.0,1.0,504.26402724999934,,,,,,,,,504.2547247080365,504.3517558750464,505.1438477500342,505.1358632910415,505.1363001660211,505.1438477500342,505.1438477500342,505.1438477500342,510.1350506250165,510.78722295799525,,,,,,,,,,,,,,,,,,,,,,,,,,,,,,left,0.0,5.634328333020676,,,,,,sub-035,1,random_dot,,
left,left,39.0,1.0,19.0,right,0.0,5.383664334018249,,accuracy,space,3.780884583014995,,,,,,0.0,0.0,0.0,0.0,19.0,1.0,39.0,0.0,510.7973700410221,,,,,,,,,510.7878941250383,511.5851612910046,512.3769157080096,512.3691624160274,512.3697160000447,512.3769157080096,512.3769157080096,512.3769157080096,517.3682786250138,517.7704360830248,,,,,,,,,,,,,,,,,,,,,,,,,,,,,,right,0.0,5.383664334018249,,,,,,sub-035,1,random_dot,,
right,right,40.0,0.0,20.0,left,0.0,6.658230583008844,,accuracy,space,3.780884583014995,,,,,,0.0,0.0,0.0,0.0,20.0,0.0,40.0,1.0,517.7806147080264,,,,,,,,,517.771116791002,517.8683537500328,518.6603507500258,518.652414540993,518.6529458330479,518.6603507500258,518.6603507500258,518.6603507500258,523.6515890409937,525.3218703329912,,,,,,,,,,,,,,,,,,,,,,,,,,,,,,left,0.0,6.658230583008844,,,,,,sub-035,1,random_dot,,
left,left,41.0,1.0,20.0,right,0.0,6.020104333991185,,accuracy,space,3.780884583014995,,,,,,0.0,0.0,0.0,0.0,20.0,1.0,41.0,0.0,525.3318204160314,,,,,,,,,525.322591541044,525.4181806250126,526.210160666029,526.2024653330445,526.2030168329948,526.210160666029,526.210160666029,526.210160666029,531.2014739160077,532.2370269999956,,,,,,,,,,,,,,,,,,,,,,,,,,,,,,right,0.0,6.020104333991185,,,,,,sub-035,1,random_dot,,
left,left,42.0,0.0,21.0,left,1.0,5.821609375008848,,accuracy,space,3.780884583014995,,,,,,0.0,0.0,0.0,0.0,21.0,0.0,42.0,0.0,532.2470092500444,,,,,,,,,532.2377575830324,533.4350472500082,534.2270290830056,534.2190260000061,534.2195656660479,534.2270290830056,534.2270290830056,534.2270290830056,539.2182691660128,540.0533216250478,,,,,,,,,,,,,,,,,,,,,,,,,,,,,,left,1.0,5.821609375008848,,,,,,sub-035,1,random_dot,,
right,right,43.0,1.0,21.0,right,1.0,5.728778165997937,,accuracy,space,3.780884583014995,,,,,,0.0,0.0,0.0,0.0,21.0,1.0,43.0,1.0,540.0631403330481,,,,,,,,,540.053944208019,541.2514447499998,542.0438290000311,542.0354489160236,542.0358867910109,542.0438290000311,542.0438290000311,542.0438290000311,547.0225027910201,547.7764274580404,,,,,,,,,,,,,,,,,,,,,,,,,,,,,,right,1.0,5.728778165997937,,,,,,sub-035,1,random_dot,,
right,right,44.0,0.0,22.0,left,0.0,5.759115207998548,,accuracy,space,3.780884583014995,,,,,,0.0,0.0,0.0,0.0,22.0,0.0,44.0,1.0,547.7864997080178,,,,,,,,,547.776999499998,547.8735357080004,548.6664713330101,548.6578342909925,548.6582553330227,548.6664713330101,548.6664713330101,548.6664713330101,553.6557729160413,554.4364774580463,,,,,,,,,,,,,,,,,,,,,,,,,,,,,,left,0.0,5.759115207998548,,,,,,sub-035,1,random_dot,,
left,left,45.0,1.0,22.0,right,0.0,5.704529707960319,,accuracy,space,3.780884583014995,,,,,,0.0,0.0,0.0,0.0,22.0,1.0,45.0,0.0,554.4466520409915,,,,,,,,,554.437098208,554.5345958750113,555.3268211660325,555.3186530829989,555.3192015830427,555.3268211660325,555.3268211660325,555.3268211660325,560.3053771660198,561.0370624160278,,,,,,,,,,,,,,,,,,,,,,,,,,,,,,right,0.0,5.704529707960319,,,,,,sub-035,1,random_dot,,
left,left,46.0,0.0,23.0,right,0.0,6.079640583018772,,accuracy,space,3.780884583014995,,,,,,0.0,0.0,0.0,0.0,23.0,0.0,46.0,0.0,561.0471022080164,,,,,,,,,561.0377626250265,561.384520874999,562.1758559159935,562.1685328329913,562.1689949160209,562.1758559159935,562.1758559159935,562.1758559159935,567.1567179160193,568.2596491660224,,,,,,,,,,,,,,,,,,,,,,,,,,,,,,right,0.0,6.079640583018772,,,,,,sub-035,1,random_dot,,
right,right,47.0,1.0,23.0,right,1.0,5.348499750019983,,accuracy,space,3.780884583014995,,,,,,0.0,0.0,0.0,0.0,23.0,1.0,47.0,1.0,568.2696342910058,,,,,,,,,568.2602014160366,569.0580523330136,569.8495717080077,569.8412119580316,569.8416384159937,569.8495717080077,569.8495717080077,569.8495717080077,574.8343279580004,575.2030970409978,,,,,,,,,,,,,,,,,,,,,,,,,,,,,,right,1.0,5.348499750019983,,,,,,sub-035,1,random_dot,,
right,right,48.0,0.0,24.0,left,0.0,5.328090333961882,,accuracy,space,3.780884583014995,,,,,,0.0,0.0,0.0,0.0,24.0,0.0,48.0,1.0,575.2129144580103,,,,,,,,,575.2037640830385,576.4010661250213,577.1925004160148,577.1849737910088,577.1854117910261,577.1925004160148,577.1925004160148,577.1925004160148,582.18439429102,582.5239580000052,,,,,,,,,,,,,,,,,,,,,,,,,,,,,,left,0.0,5.328090333961882,,,,,,sub-035,1,random_dot,,
left,left,49.0,1.0,24.0,left,1.0,5.458420458016917,,accuracy,space,3.780884583014995,,,,,,0.0,0.0,0.0,0.0,24.0,1.0,49.0,0.0,582.5337117910385,,,,,,,,,582.5245190000278,583.7244370830012,584.5160579580115,584.5077506250236,584.5081721660099,584.5160579580115,584.5160579580115,584.5160579580115,589.500720083015,589.9769287080271,,,,,,,,,,,,,,,,,,,,,,,,,,,,,,left,1.0,5.458420458016917,,,,,,sub-035,1,random_dot,,
right,right,50.0,0.0,25.0,left,0.0,5.347888791002333,,accuracy,space,3.780884583014995,,,,,,0.0,0.0,0.0,0.0,25.0,0.0,50.0,1.0,589.9879355000448,,,,,,,,,589.977633750008,590.7747744999942,591.5762085409951,591.568284375011,591.5688677910366,591.5762085409951,591.5762085409951,591.5762085409951,596.5569471660419,596.9267198750167,,,,,,,,,,,,,,,,,,,,,,,,,,,,,,left,0.0,5.347888791002333,,,,,,sub-035,1,random_dot,,
left,left,51.0,1.0,25.0,right,0.0,5.344852291978896,,accuracy,space,3.780884583014995,,,,,,0.0,0.0,0.0,0.0,25.0,1.0,51.0,0.0,596.9381450410001,,,,,,,,,596.9273336250335,598.1232382500311,598.915895291022,598.9074871250195,598.9079210000345,598.915895291022,598.915895291022,598.915895291022,603.9006310830009,604.269044457993,,,,,,,,,,,,,,,,,,,,,,,,,,,,,,right,0.0,5.344852291978896,,,,,,sub-035,1,random_dot,,
right,right,52.0,0.0,26.0,right,1.0,5.600306707958225,,accuracy,space,3.780884583014995,,,,,,0.0,0.0,0.0,0.0,26.0,0.0,52.0,1.0,604.278110040992,,,,,,,,,604.269481041003,604.3674065830419,605.1594214580255,605.1515037500067,605.1520486249938,605.1594214580255,605.1594214580255,605.1594214580255,610.1504455000395,610.7695173330139,,,,,,,,,,,,,,,,,,,,,,,,,,,,,,right,1.0,5.600306707958225,,,,,,sub-035,1,random_dot,,
left,left,53.0,1.0,26.0,left,1.0,6.398479832976591,,accuracy,space,3.780884583014995,,,,,,0.0,0.0,0.0,0.0,26.0,1.0,53.0,0.0,610.7796167079941,,,,,,,,,610.77019595803,611.1175170410424,611.9092050410109,611.901465041039,611.9020199580118,611.9092050410109,611.9092050410109,611.9092050410109,616.889408625022,618.3101643330301,,,,,,,,,,,,,,,,,,,,,,,,,,,,,,left,1.0,6.398479832976591,,,,,,sub-035,1,random_dot,,
left,left,54.0,0.0,27.0,right,0.0,5.28536629199516,,accuracy,space,3.780884583014995,,,,,,0.0,0.0,0.0,0.0,27.0,0.0,54.0,0.0,618.3211875830311,,,,,,,,,618.310893625021,619.1067700409913,619.8989890410448,619.8898054580204,619.8902430830058,619.8989890410448,619.8989890410448,619.8989890410448,624.8837481249939,625.1875579160405,,,,,,,,,,,,,,,,,,,,,,,,,,,,,,right,0.0,5.28536629199516,,,,,,sub-035,1,random_dot,,
right,right,55.0,1.0,27.0,left,0.0,5.425244249985553,,accuracy,space,3.780884583014995,,,,,,0.0,0.0,0.0,0.0,27.0,1.0,55.0,1.0,625.1975730410195,,,,,,,,,625.1882611660403,625.533751540992,626.3256037910469,626.3178064160165,626.3183404580341,626.3256037910469,626.3256037910469,626.3256037910469,631.3170172499958,631.7543412910309,,,,,,,,,,,,,,,,,,,,,,,,,,,,,,left,0.0,5.425244249985553,,,,,,sub-035,1,random_dot,,
left,left,56.0,0.0,28.0,right,0.0,6.576439666969236,,accuracy,space,3.780884583014995,,,,,,0.0,0.0,0.0,0.0,28.0,0.0,56.0,0.0,631.7643860829994,,,,,,,,,631.755099416012,632.1003132910118,632.8919005829957,632.8842879580334,632.8847349580028,632.8919005829957,632.8919005829957,632.8919005829957,637.8728327910067,639.4760257910239,,,,,,,,,,,,,,,,,,,,,,,,,,,,,,right,0.0,6.576439666969236,,,,,,sub-035,1,random_dot,,
right,right,57.0,1.0,28.0,right,1.0,5.7689752919832245,,accuracy,space,3.780884583014995,,,,,,0.0,0.0,0.0,0.0,28.0,1.0,57.0,1.0,639.4859142909991,,,,,,,,,639.4765622910345,639.8230138330255,640.6153991250321,640.6061257499969,640.6065758750192,640.6153991250321,640.6153991250321,640.6153991250321,645.6002186250407,646.3980909160455,,,,,,,,,,,,,,,,,,,,,,,,,,,,,,right,1.0,5.7689752919832245,,,,,,sub-035,1,random_dot,,
right,right,58.0,0.0,29.0,left,0.0,5.414080667018425,,accuracy,space,3.780884583014995,,,,,,0.0,0.0,0.0,0.0,29.0,0.0,58.0,1.0,646.4021607500035,,,,,,,,,646.3985992080416,647.1896599160391,647.9819699160289,647.9736229160335,647.974082166038,647.9819699160289,647.9819699160289,647.9819699160289,652.973124583019,653.4022172500263,,,,,,,,,,,,,,,,,,,,,,,,,,,,,,left,0.0,5.414080667018425,,,,,,sub-035,1,random_dot,,
left,left,59.0,1.0,29.0,left,1.0,5.807817750028335,,accuracy,space,3.780884583014995,,,,,,0.0,0.0,0.0,0.0,29.0,1.0,59.0,0.0,653.4119257500279,,,,,,,,,653.4029118750477,653.7502518750262,654.5425436660298,654.5342331660213,654.5348116250243,654.5425436660298,654.5425436660298,654.5425436660298,659.5334564160439,660.352856707992,,,,,,,,,,,,,,,,,,,,,,,,,,,,,,left,1.0,5.807817750028335,,,,,,sub-035,1,random_dot,,
,,0.0,0.0,0.0,,,,,accuracy,space,3.780884583014995,,,,,,0.0,0.0,0.0,0.0,,,,,,,,,,,,,,,,,,,,,,,,,,,,,,,,,,,,,,,,,,,,,,,,,,,,,,,,,,,,,sub-035,1,random_dot,,
left,left,0.0,0.0,0.0,left,1.0,5.3264124160050415,,speed,space,3.977833999961149,,,,,,0.0,1.0,1.0,1.0,0.0,0.0,0.0,0.0,664.3814952500397,,,,,,,,,664.3769560410292,664.7164843330393,665.5092440830194,665.5010202500271,665.5015880000428,665.5092440830194,665.5092440830194,665.5092440830194,670.4998002080247,670.8416927910293,,,,,,,,,,,,,,,,,,,,,,,660.3714444999932,660.3787730410113,660.3787730410113,664.3696594160283,space,3.977833999961149,,left,1.0,5.3264124160050415,,,,,,sub-035,1,random_dot,,
right,right,1.0,1.0,0.0,left,0.0,5.324745291960426,,speed,space,3.977833999961149,,,,,,0.0,1.0,1.0,1.0,0.0,1.0,1.0,1.0,670.8521662080311,,,,,,,,,670.8422325830325,671.1901862079976,671.9817323750467,671.9733643750078,671.9737916660379,671.9817323750467,671.9817323750467,671.9817323750467,676.9723062500125,677.3091177080059,,,,,,,,,,,,,,,,,,,,,,,,,,,,,,left,0.0,5.324745291960426,,,,,,sub-035,1,random_dot,,
left,left,2.0,0.0,1.0,right,0.0,5.353965500020422,,speed,space,3.977833999961149,,,,,,0.0,1.0,1.0,1.0,1.0,0.0,2.0,0.0,677.3206363330246,,,,,,,,,677.3097530410159,678.1065090830089,678.9081322080456,678.9005941660143,678.901036291034,678.9081322080456,678.9081322080456,678.9081322080456,683.899639875046,684.2686650000396,,,,,,,,,,,,,,,,,,,,,,,,,,,,,,right,0.0,5.353965500020422,,,,,,sub-035,1,random_dot,,
right,right,3.0,1.0,1.0,right,1.0,5.228230374981649,,speed,space,3.977833999961149,,,,,,0.0,1.0,1.0,1.0,1.0,1.0,3.0,1.0,684.2784708330291,,,,,,,,,684.2693539580214,684.3650654160301,685.157784415991,685.1503012080211,685.1507388330065,685.157784415991,685.157784415991,685.157784415991,690.1384092500084,690.3924856249942,,,,,,,,,,,,,,,,,,,,,,,,,,,,,,right,1.0,5.228230374981649,,,,,,sub-035,1,random_dot,,
right,right,4.0,0.0,2.0,right,1.0,5.339751749997959,,speed,space,3.977833999961149,,,,,,0.0,1.0,1.0,1.0,2.0,0.0,4.0,1.0,690.4036632080097,,,,,,,,,690.3930407910375,691.5889764580061,692.3815087500261,692.3731091660447,692.3735341250431,692.3815087500261,692.3815087500261,692.3815087500261,697.3723206249997,697.7250284160255,,,,,,,,,,,,,,,,,,,,,,,,,,,,,,right,1.0,5.339751749997959,,,,,,sub-035,1,random_dot,,
left,left,5.0,1.0,2.0,left,1.0,1.6802188329747878,,speed,space,3.977833999961149,,,,,,0.0,1.0,1.0,1.0,2.0,1.0,5.0,0.0,697.7350758750108,,,,,,,,,697.7255668750149,698.0726945830393,698.8647623330471,698.855944458046,698.8563586660312,698.8647623330471,698.8647623330471,698.8647623330471,,700.5510364579968,,,,,,,,,,,,,,,,,,,,,,,,,,,,,,left,1.0,1.6802188329747878,,,,,,sub-035,1,random_dot,,
right,right,6.0,0.0,3.0,left,0.0,1.507141917012632,,speed,space,3.977833999961149,,,,,,0.0,1.0,1.0,1.0,3.0,0.0,6.0,1.0,700.5582351250341,,,,,,,,,700.5513782080379,701.3495807910222,702.141457041027,702.133627208008,702.1341749160201,702.141457041027,702.141457041027,702.141457041027,,703.6508123330423,,,,,,,,,,,,,,,,,,,,,,,,,,,,,,left,0.0,1.507141917012632,,,,,,sub-035,1,random_dot,,
left,left,7.0,1.0,3.0,left,1.0,1.739003208000213,,speed,space,3.977833999961149,,,,,,0.0,1.0,1.0,1.0,3.0,1.0,7.0,0.0,703.6578218330396,,,,,,,,,703.6511395830312,703.7495375410072,704.5409265829949,704.533470000024,704.5339302910143,704.5409265829949,704.5409265829949,704.5409265829949,,706.2845689160167,,,,,,,,,,,,,,,,,,,,,,,,,,,,,,left,1.0,1.739003208000213,,,,,,sub-035,1,random_dot,,
left,left,8.0,0.0,4.0,right,0.0,2.247464416956064,,speed,space,3.977833999961149,,,,,,0.0,1.0,1.0,1.0,4.0,0.0,8.0,0.0,706.291912582994,,,,,,,,,706.2850118330098,707.4832571250154,708.2748836250394,708.2670149159967,708.2674883750151,708.2748836250394,708.2748836250394,708.2748836250394,,710.5244084580336,,,,,,,,,,,,,,,,,,,,,,,,,,,,,,right,0.0,2.247464416956064,,,,,,sub-035,1,random_dot,,
right,right,9.0,1.0,4.0,left,0.0,3.0184137920150533,,speed,space,3.977833999961149,,,,,,0.0,1.0,1.0,1.0,4.0,1.0,9.0,1.0,710.5315668330295,,,,,,,,,710.5247578750132,711.7217060830444,712.5148201659904,712.5063951660413,712.5068378750002,712.5148201659904,712.5148201659904,712.5148201659904,,715.5426041660248,,,,,,,,,,,,,,,,,,,,,,,,,,,,,,left,0.0,3.0184137920150533,,,,,,sub-035,1,random_dot,,
right,right,10.0,0.0,5.0,left,0.0,1.195154500019271,,speed,space,3.977833999961149,,,,,,0.0,1.0,1.0,1.0,5.0,0.0,10.0,1.0,715.5478803750011,,,,,,,,,715.5429336660309,715.6383912910242,716.4312639580457,716.422561791027,716.422977957991,716.4312639580457,716.4312639580457,716.4312639580457,,717.6345265000127,,,,,,,,,,,,,,,,,,,,,,,,,,,,,,left,0.0,1.195154500019271,,,,,,sub-035,1,random_dot,,
left,left,11.0,1.0,5.0,right,0.0,1.0087055420153774,,speed,space,3.977833999961149,,,,,,0.0,1.0,1.0,1.0,5.0,1.0,11.0,0.0,717.6417280409951,,,,,,,,,717.6350231660181,717.7326377910213,718.524286791042,718.5165813750355,718.5170829580165,718.524286791042,718.524286791042,718.524286791042,,719.5350880000042,,,,,,,,,,,,,,,,,,,,,,,,,,,,,,right,0.0,1.0087055420153774,,,,,,sub-035,1,random_dot,,
left,left,12.0,0.0,6.0,right,0.0,0.815780500008259,,speed,space,3.977833999961149,,,,,,0.0,1.0,1.0,1.0,6.0,0.0,12.0,0.0,719.5423333750223,,,,,,,,,719.5357079160167,719.8827998749912,720.674635375035,720.6668775000144,720.6674087910214,720.674635375035,720.674635375035,720.674635375035,,721.4993906660238,,,,,,,,,,,,,,,,,,,,,,,,,,,,,,right,0.0,0.815780500008259,,,,,,sub-035,1,random_dot,,
right,right,13.0,1.0,6.0,left,0.0,0.9196358749759383,,speed,space,3.977833999961149,,,,,,0.0,1.0,1.0,1.0,6.0,1.0,13.0,1.0,721.5035385829979,,,,,,,,,721.4997400410357,722.688738625031,723.4811496660113,723.4729357500328,723.4733547079959,723.4811496660113,723.4811496660113,723.4811496660113,,724.4044777500094,,,,,,,,,,,,,,,,,,,,,,,,,,,,,,left,0.0,0.9196358749759383,,,,,,sub-035,1,random_dot,,
left,left,14.0,0.0,7.0,left,1.0,1.8787122080102563,,speed,space,3.977833999961149,,,,,,0.0,1.0,1.0,1.0,7.0,0.0,14.0,0.0,724.4158681660192,,,,,,,,,724.4047907080385,725.1991978330188,725.9912306250189,725.9835042080376,725.9840666250093,725.9912306250189,725.9912306250189,725.9912306250189,,727.8744293330237,,,,,,,,,,,,,,,,,,,,,,,,,,,,,,left,1.0,1.8787122080102563,,,,,,sub-035,1,random_dot,,
right,right,15.0,1.0,7.0,right,1.0,1.496888666995801,,speed,space,3.977833999961149,,,,,,0.0,1.0,1.0,1.0,7.0,1.0,15.0,1.0,727.8815501659992,,,,,,,,,727.8747654579929,727.9714687910164,728.7644600000349,728.7555770830368,728.7560065410216,728.7644600000349,728.7644600000349,728.7644600000349,,730.2666972080478,,,,,,,,,,,,,,,,,,,,,,,,,,,,,,right,1.0,1.496888666995801,,,,,,sub-035,1,random_dot,,
right,right,16.0,0.0,8.0,left,0.0,0.8773598339757882,,speed,space,3.977833999961149,,,,,,0.0,1.0,1.0,1.0,8.0,0.0,16.0,1.0,730.2737976250355,,,,,,,,,730.2670247080387,731.0552414160338,731.8476915830397,731.8387542910059,731.8391729580471,731.8476915830397,731.8476915830397,731.8476915830397,,732.7346919580013,,,,,,,,,,,,,,,,,,,,,,,,,,,,,,left,0.0,0.8773598339757882,,,,,,sub-035,1,random_dot,,
left,left,17.0,1.0,8.0,left,1.0,1.1682765419827774,,speed,space,3.977833999961149,,,,,,0.0,1.0,1.0,1.0,8.0,1.0,17.0,0.0,732.7418973750318,,,,,,,,,732.735301125038,733.53251525003,734.3238681250368,734.3164344580146,734.3168789999909,734.3238681250368,734.3238681250368,734.3238681250368,,735.5008812909946,,,,,,,,,,,,,,,,,,,,,,,,,,,,,,left,1.0,1.1682765419827774,,,,,,sub-035,1,random_dot,,
right,right,18.0,0.0,9.0,right,1.0,1.2141229579574428,,speed,space,3.977833999961149,,,,,,0.0,1.0,1.0,1.0,9.0,0.0,18.0,1.0,735.5080540000345,,,,,,,,,735.5013521250221,736.6991244580131,737.4910718750325,737.4832612909959,737.4837979160366,737.4910718750325,737.4910718750325,737.4910718750325,,738.707363124995,,,,,,,,,,,,,,,,,,,,,,,,,,,,,,right,1.0,1.2141229579574428,,,,,,sub-035,1,random_dot,,
left,left,19.0,1.0,9.0,right,0.0,1.8298375419690276,,speed,space,3.977833999961149,,,,,,0.0,1.0,1.0,1.0,9.0,1.0,19.0,0.0,738.7146002080408,,,,,,,,,738.7078137909994,739.9053842500434,740.6977127499995,740.6885340000154,740.6889524160069,740.6977127499995,740.6977127499995,740.6977127499995,,742.5337186250254,,,,,,,,,,,,,,,,,,,,,,,,,,,,,,right,0.0,1.8298375419690276,,,,,,sub-035,1,random_dot,,
right,right,20.0,0.0,10.0,left,0.0,0.9373033749870956,,speed,space,3.977833999961149,,,,,,0.0,1.0,1.0,1.0,10.0,0.0,20.0,1.0,742.5406460000086,,,,,,,,,742.5340573330177,743.3326741250348,744.1251014579902,744.1164989999961,744.1170568329981,744.1251014579902,744.1251014579902,744.1251014579902,,745.0669526660349,,,,,,,,,,,,,,,,,,,,,,,,,,,,,,left,0.0,0.9373033749870956,,,,,,sub-035,1,random_dot,,
left,left,21.0,1.0,10.0,left,1.0,1.5181670830352232,,speed,space,3.977833999961149,,,,,,0.0,1.0,1.0,1.0,10.0,1.0,21.0,0.0,745.0742712499923,,,,,,,,,745.0672729579965,746.2658447080175,747.0575071659987,747.0496545000351,747.0501991250203,747.0575071659987,747.0575071659987,747.0575071659987,,748.5838006249978,,,,,,,,,,,,,,,,,,,,,,,,,,,,,,left,1.0,1.5181670830352232,,,,,,sub-035,1,random_dot,,
left,left,22.0,0.0,11.0,right,0.0,1.1429124170099385,,speed,space,3.977833999961149,,,,,,0.0,1.0,1.0,1.0,11.0,0.0,22.0,0.0,748.5911406660452,,,,,,,,,748.5842148330412,748.9323592910077,749.7244567080052,749.7164080830407,749.7169501660392,749.7244567080052,749.7244567080052,749.7244567080052,,750.8732581660151,,,,,,,,,,,,,,,,,,,,,,,,,,,,,,right,0.0,1.1429124170099385,,,,,,sub-035,1,random_dot,,
right,right,23.0,1.0,11.0,left,0.0,2.5582980839535594,,speed,space,3.977833999961149,,,,,,0.0,1.0,1.0,1.0,11.0,1.0,23.0,1.0,750.8811662500375,,,,,,,,,750.8735653330223,752.072757625021,752.8739612500067,752.8663600000436,752.8668000830221,752.8739612500067,752.8739612500067,752.8739612500067,,755.4421177500044,,,,,,,,,,,,,,,,,,,,,,,,,,,,,,left,0.0,2.5582980839535594,,,,,,sub-035,1,random_dot,,
left,left,24.0,0.0,12.0,right,0.0,1.96788595803082,,speed,space,3.977833999961149,,,,,,0.0,1.0,1.0,1.0,12.0,0.0,24.0,0.0,755.4474274160457,,,,,,,,,755.4424464160111,755.5380041250028,756.3307870830176,756.3220460829907,756.3224670410273,756.3307870830176,756.3307870830176,756.3307870830176,,758.3080197910313,,,,,,,,,,,,,,,,,,,,,,,,,,,,,,right,0.0,1.96788595803082,,,,,,sub-035,1,random_dot,,
right,right,25.0,1.0,12.0,left,0.0,0.816130916995462,,speed,space,3.977833999961149,,,,,,0.0,1.0,1.0,1.0,12.0,1.0,25.0,1.0,758.3139897910296,,,,,,,,,758.3083467910183,758.4044964580098,759.1973890000372,759.1889674580307,759.1893952080281,759.1973890000372,759.1973890000372,759.1973890000372,,760.0169609580189,,,,,,,,,,,,,,,,,,,,,,,,,,,,,,left,0.0,0.816130916995462,,,,,,sub-035,1,random_dot,,
right,right,26.0,0.0,13.0,left,0.0,0.7179423330235295,,speed,space,3.977833999961149,,,,,,0.0,1.0,1.0,1.0,13.0,0.0,26.0,1.0,760.0237411250127,,,,,,,,,760.0172636249918,760.1155322910054,760.9077996659908,760.8998275829945,760.900369583047,760.9077996659908,760.9077996659908,760.9077996659908,,761.6330009580124,,,,,,,,,,,,,,,,,,,,,,,,,,,,,,left,0.0,0.7179423330235295,,,,,,sub-035,1,random_dot,,
left,left,27.0,1.0,13.0,right,0.0,1.052849833969958,,speed,space,3.977833999961149,,,,,,0.0,1.0,1.0,1.0,13.0,1.0,27.0,0.0,761.6402913749916,,,,,,,,,761.633467583044,761.9716944160173,762.7639857080067,762.7555760830292,762.7560097910464,762.7639857080067,762.7639857080067,762.7639857080067,,763.8204304579995,,,,,,,,,,,,,,,,,,,,,,,,,,,,,,right,0.0,1.052849833969958,,,,,,sub-035,1,random_dot,,
left,left,28.0,0.0,14.0,left,1.0,0.7088306249934249,,speed,space,3.977833999961149,,,,,,0.0,1.0,1.0,1.0,14.0,0.0,28.0,0.0,763.8321568330284,,,,,,,,,763.8207508330233,765.0155245410278,765.8069495829986,765.7994364580372,765.7998845410184,765.8069495829986,765.8069495829986,765.8069495829986,,766.5200102910167,,,,,,,,,,,,,,,,,,,,,,,,,,,,,,left,1.0,0.7088306249934249,,,,,,sub-035,1,random_dot,,
right,right,29.0,1.0,14.0,right,1.0,0.8872859160182998,,speed,space,3.977833999961149,,,,,,0.0,1.0,1.0,1.0,14.0,1.0,29.0,1.0,766.5321127910283,,,,,,,,,766.5203235000372,767.7146281659952,768.5083856250276,768.4997146250098,768.5002953750081,768.5083856250276,768.5083856250276,768.5083856250276,,769.4009332080022,,,,,,,,,,,,,,,,,,,,,,,,,,,,,,right,1.0,0.8872859160182998,,,,,,sub-035,1,random_dot,,
left,left,30.0,0.0,15.0,right,0.0,1.34227516700048,,speed,space,3.977833999961149,,,,,,0.0,1.0,1.0,1.0,15.0,0.0,30.0,0.0,769.4083811250166,,,,,,,,,769.4014118330088,770.1987582080183,770.9913448750158,770.9828508330393,770.9834240830387,770.9913448750158,770.9913448750158,770.9913448750158,,772.3385489580105,,,,,,,,,,,,,,,,,,,,,,,,,,,,,,right,0.0,1.34227516700048,,,,,,sub-035,1,random_dot,,
right,right,31.0,1.0,15.0,left,0.0,1.3676704170065932,,speed,space,3.977833999961149,,,,,,0.0,1.0,1.0,1.0,15.0,1.0,31.0,1.0,772.3475727080368,,,,,,,,,772.3388803330017,772.437626125,773.2306763750385,773.2223181659938,773.2227369580069,773.2306763750385,773.2306763750385,773.2306763750385,,774.6001707910327,,,,,,,,,,,,,,,,,,,,,,,,,,,,,,left,0.0,1.3676704170065932,,,,,,sub-035,1,random_dot,,
left,left,32.0,0.0,16.0,right,0.0,0.7777301669702865,,speed,space,3.977833999961149,,,,,,0.0,1.0,1.0,1.0,16.0,0.0,32.0,0.0,774.6143789160415,,,,,,,,,774.6003307499923,774.6979181250208,775.4909271250363,775.4827806660323,775.4833462500246,775.4909271250363,775.4909271250363,775.4909271250363,,776.2735647910158,,,,,,,,,,,,,,,,,,,,,,,,,,,,,,right,0.0,0.7777301669702865,,,,,,sub-035,1,random_dot,,
right,right,33.0,1.0,16.0,left,0.0,0.904791084001772,,speed,space,3.977833999961149,,,,,,0.0,1.0,1.0,1.0,16.0,1.0,33.0,1.0,776.2807926250389,,,,,,,,,776.273908666044,776.3708965410478,777.1642773330095,777.155378541036,777.1558095000219,777.1642773330095,777.1642773330095,777.1642773330095,,778.0734102500137,,,,,,,,,,,,,,,,,,,,,,,,,,,,,,left,0.0,0.904791084001772,,,,,,sub-035,1,random_dot,,
right,right,34.0,0.0,17.0,left,0.0,0.8502030419767834,,speed,space,3.977833999961149,,,,,,0.0,1.0,1.0,1.0,17.0,0.0,34.0,1.0,778.0805467500468,,,,,,,,,778.0738349159947,778.1712840830442,778.9642450410174,778.9552352910396,778.9556592080044,778.9642450410174,778.9642450410174,778.9642450410174,,779.8164548330242,,,,,,,,,,,,,,,,,,,,,,,,,,,,,,left,0.0,0.8502030419767834,,,,,,sub-035,1,random_dot,,
left,left,35.0,1.0,17.0,right,0.0,1.6583654169808142,,speed,space,3.977833999961149,,,,,,0.0,1.0,1.0,1.0,17.0,1.0,35.0,0.0,779.8236439159955,,,,,,,,,779.8170010410249,779.9153369580163,780.707451541035,780.699497708003,780.7000620830222,780.707451541035,780.707451541035,780.707451541035,,782.3680522910436,,,,,,,,,,,,,,,,,,,,,,,,,,,,,,right,0.0,1.6583654169808142,,,,,,sub-035,1,random_dot,,
right,right,36.0,0.0,18.0,left,0.0,2.20180637500016,,speed,space,3.977833999961149,,,,,,0.0,1.0,1.0,1.0,18.0,0.0,36.0,1.0,782.3756474160473,,,,,,,,,782.3686414160184,783.5653600000078,784.3573406659998,784.3494187080069,784.3499558329931,784.3573406659998,784.3573406659998,784.3573406659998,,786.5665465409984,,,,,,,,,,,,,,,,,,,,,,,,,,,,,,left,0.0,2.20180637500016,,,,,,sub-035,1,random_dot,,
left,left,37.0,1.0,18.0,left,1.0,0.6806649999925867,,speed,space,3.977833999961149,,,,,,0.0,1.0,1.0,1.0,18.0,1.0,37.0,0.0,786.5736010410474,,,,,,,,,786.5668799999985,787.7653612910071,788.5567666660063,788.5492439580266,788.5496874160017,788.5567666660063,788.5567666660063,788.5567666660063,,789.2400342909968,,,,,,,,,,,,,,,,,,,,,,,,,,,,,,left,1.0,0.6806649999925867,,,,,,sub-035,1,random_dot,,
right,right,38.0,0.0,19.0,right,1.0,0.6744338330463506,,speed,space,3.977833999961149,,,,,,0.0,1.0,1.0,1.0,19.0,0.0,38.0,1.0,789.247172375035,,,,,,,,,789.2403745000483,790.4376857909956,791.2303877910017,791.2218465000042,791.2222590410383,791.2303877910017,791.2303877910017,791.2303877910017,,791.9067978330422,,,,,,,,,,,,,,,,,,,,,,,,,,,,,,right,1.0,0.6744338330463506,,,,,,sub-035,1,random_dot,,
left,left,39.0,1.0,19.0,left,1.0,0.7472303750109859,,speed,space,3.977833999961149,,,,,,0.0,1.0,1.0,1.0,19.0,1.0,39.0,0.0,791.9137103329995,,,,,,,,,791.9071214580326,793.1046556250076,793.8970222910284,793.8887844160199,793.8892162500415,793.8970222910284,793.8970222910284,793.8970222910284,,794.6498592080316,,,,,,,,,,,,,,,,,,,,,,,,,,,,,,left,1.0,0.7472303750109859,,,,,,sub-035,1,random_dot,,
left,left,40.0,0.0,20.0,left,1.0,0.8579913330031559,,speed,space,3.977833999961149,,,,,,0.0,1.0,1.0,1.0,20.0,0.0,40.0,0.0,794.6574675000156,,,,,,,,,794.6502953330055,794.7486082910327,795.540831374994,795.5326711250236,795.5332133750198,795.540831374994,795.540831374994,795.540831374994,,796.400854208041,,,,,,,,,,,,,,,,,,,,,,,,,,,,,,left,1.0,0.8579913330031559,,,,,,sub-035,1,random_dot,,
right,right,41.0,1.0,20.0,right,1.0,1.004452291992493,,speed,space,3.977833999961149,,,,,,0.0,1.0,1.0,1.0,20.0,1.0,41.0,1.0,796.4082231660141,,,,,,,,,796.4014438750455,797.1984202910098,797.9898204579949,797.9823587080464,797.9828092080425,797.9898204579949,797.9898204579949,797.9898204579949,,798.9982752500218,,,,,,,,,,,,,,,,,,,,,,,,,,,,,,right,1.0,1.004452291992493,,,,,,sub-035,1,random_dot,,
left,left,42.0,0.0,21.0,right,0.0,0.954491209005937,,speed,space,3.977833999961149,,,,,,0.0,1.0,1.0,1.0,21.0,0.0,42.0,0.0,799.0050922500086,,,,,,,,,798.9985890000244,799.0873538330197,799.8803077079938,799.8716855000239,799.8721154580126,799.8803077079938,799.8803077079938,799.8803077079938,,800.8394748330466,,,,,,,,,,,,,,,,,,,,,,,,,,,,,,right,0.0,0.954491209005937,,,,,,sub-035,1,random_dot,,
right,right,43.0,1.0,21.0,right,1.0,0.8092005829676054,,speed,space,3.977833999961149,,,,,,0.0,1.0,1.0,1.0,21.0,1.0,43.0,1.0,800.8473711250117,,,,,,,,,800.8397875410155,802.0380322500132,802.8394839160028,802.8325509999995,802.8329312500427,802.8394839160028,802.8394839160028,802.8394839160028,,803.6508008750388,,,,,,,,,,,,,,,,,,,,,,,,,,,,,,right,1.0,0.8092005829676054,,,,,,sub-035,1,random_dot,,
left,left,44.0,0.0,22.0,right,0.0,1.7587617079843767,,speed,space,3.977833999961149,,,,,,0.0,1.0,1.0,1.0,22.0,0.0,44.0,0.0,803.6579764159978,,,,,,,,,803.6511812910321,804.8484257910168,805.6399304580409,805.6323250409914,805.6327669160091,805.6399304580409,805.6399304580409,805.6399304580409,,807.4003187910421,,,,,,,,,,,,,,,,,,,,,,,,,,,,,,right,0.0,1.7587617079843767,,,,,,sub-035,1,random_dot,,
right,right,45.0,1.0,22.0,left,0.0,2.215061291004531,,speed,space,3.977833999961149,,,,,,0.0,1.0,1.0,1.0,22.0,1.0,45.0,1.0,807.4076519160299,,,,,,,,,807.400708000001,808.5983022910077,809.3908134160447,809.3829517080449,809.3835040410049,809.3908134160447,809.3908134160447,809.3908134160447,,811.615050833032,,,,,,,,,,,,,,,,,,,,,,,,,,,,,,left,0.0,2.215061291004531,,,,,,sub-035,1,random_dot,,
right,right,46.0,0.0,23.0,left,0.0,1.1428652089671232,,speed,space,3.977833999961149,,,,,,0.0,1.0,1.0,1.0,23.0,0.0,46.0,1.0,811.6194944159943,,,,,,,,,811.6153658750118,811.7041183750262,812.4968623330351,812.4882996660308,812.4887112500146,812.4968623330351,812.4968623330351,812.4968623330351,,813.649453666003,,,,,,,,,,,,,,,,,,,,,,,,,,,,,,left,0.0,1.1428652089671232,,,,,,sub-035,1,random_dot,,
left,left,47.0,1.0,23.0,left,1.0,1.015502582944464,,speed,space,3.977833999961149,,,,,,0.0,1.0,1.0,1.0,23.0,1.0,47.0,0.0,813.6563328329939,,,,,,,,,813.6497746250243,813.9982302910066,814.7904852500069,814.7825775410165,814.7831213329919,814.7904852500069,814.7904852500069,814.7904852500069,,815.816328875022,,,,,,,,,,,,,,,,,,,,,,,,,,,,,,left,1.0,1.015502582944464,,,,,,sub-035,1,random_dot,,
right,right,48.0,0.0,24.0,right,1.0,0.860536083986517,,speed,space,3.977833999961149,,,,,,0.0,1.0,1.0,1.0,24.0,0.0,48.0,1.0,815.8235926250345,,,,,,,,,815.8167393330368,815.9148782080156,816.7069911659928,816.6989987500128,816.6995556250331,816.7069911659928,816.7069911659928,816.7069911659928,,817.5716265410301,,,,,,,,,,,,,,,,,,,,,,,,,,,,,,right,1.0,0.860536083986517,,,,,,sub-035,1,random_dot,,
left,left,49.0,1.0,24.0,left,1.0,0.708607624983415,,speed,space,3.977833999961149,,,,,,0.0,1.0,1.0,1.0,24.0,1.0,49.0,0.0,817.5803550410201,,,,,,,,,817.5719285830273,818.3647362079937,819.157001625048,819.1490978330257,819.1496528330026,819.157001625048,819.157001625048,819.157001625048,,819.8744806660106,,,,,,,,,,,,,,,,,,,,,,,,,,,,,,left,1.0,0.708607624983415,,,,,,sub-035,1,random_dot,,
right,right,50.0,0.0,25.0,right,1.0,0.7401094170054421,,speed,space,3.977833999961149,,,,,,0.0,1.0,1.0,1.0,25.0,0.0,50.0,1.0,819.8803233330254,,,,,,,,,819.8747900000308,821.0719046660233,821.87495162501,821.8659174580243,821.8664477080456,821.87495162501,821.87495162501,821.87495162501,,822.6170477500418,,,,,,,,,,,,,,,,,,,,,,,,,,,,,,right,1.0,0.7401094170054421,,,,,,sub-035,1,random_dot,,
left,left,51.0,1.0,25.0,right,0.0,0.886642292025499,,speed,space,3.977833999961149,,,,,,0.0,1.0,1.0,1.0,25.0,1.0,51.0,0.0,822.6242295830161,,,,,,,,,822.6175880000228,822.9649796659942,823.7571027080412,823.7492137500085,823.749755625031,823.7571027080412,823.7571027080412,823.7571027080412,,824.6496564580011,,,,,,,,,,,,,,,,,,,,,,,,,,,,,,right,0.0,0.886642292025499,,,,,,sub-035,1,random_dot,,
left,left,52.0,0.0,26.0,left,1.0,0.6972577089909464,,speed,space,3.977833999961149,,,,,,0.0,1.0,1.0,1.0,26.0,0.0,52.0,0.0,824.6567971660406,,,,,,,,,824.650112125033,825.4481215410051,826.2401516660466,826.2321933750063,826.2327354580048,826.2401516660466,826.2401516660466,826.2401516660466,,826.9395211660303,,,,,,,,,,,,,,,,,,,,,,,,,,,,,,left,1.0,0.6972577089909464,,,,,,sub-035,1,random_dot,,
right,right,53.0,1.0,26.0,left,0.0,0.7640530419885181,,speed,space,3.977833999961149,,,,,,0.0,1.0,1.0,1.0,26.0,1.0,53.0,1.0,826.9464997909963,,,,,,,,,826.9398500830284,828.1377941250103,828.9299589160364,828.9212417500094,828.9216800410068,828.9299589160364,828.9299589160364,828.9299589160364,,829.6995338330162,,,,,,,,,,,,,,,,,,,,,,,,,,,,,,left,0.0,0.7640530419885181,,,,,,sub-035,1,random_dot,,
right,right,54.0,0.0,27.0,left,0.0,0.7144153749686666,,speed,space,3.977833999961149,,,,,,0.0,1.0,1.0,1.0,27.0,0.0,54.0,1.0,829.7067361249938,,,,,,,,,829.699875833001,830.8980620829971,831.689972000022,831.6821521249949,831.6826870000223,831.689972000022,831.689972000022,831.689972000022,,832.4160205830121,,,,,,,,,,,,,,,,,,,,,,,,,,,,,,left,0.0,0.7144153749686666,,,,,,sub-035,1,random_dot,,
left,left,55.0,1.0,27.0,left,1.0,0.9806368330027908,,speed,space,3.977833999961149,,,,,,0.0,1.0,1.0,1.0,27.0,1.0,55.0,0.0,832.4228698330116,,,,,,,,,832.4163365000277,833.6146191660082,834.4063201250392,834.3987521250383,834.3991970830248,834.4063201250392,834.4063201250392,834.4063201250392,,835.3890755409957,,,,,,,,,,,,,,,,,,,,,,,,,,,,,,left,1.0,0.9806368330027908,,,,,,sub-035,1,random_dot,,
right,right,56.0,0.0,28.0,left,0.0,1.7856993340537883,,speed,space,3.977833999961149,,,,,,0.0,1.0,1.0,1.0,28.0,0.0,56.0,1.0,835.396862958034,,,,,,,,,835.3893833330367,835.4868727500434,836.2798457909958,836.2712910000118,836.2717092910316,836.2798457909958,836.2798457909958,836.2798457909958,,838.0716417910298,,,,,,,,,,,,,,,,,,,,,,,,,,,,,,left,0.0,1.7856993340537883,,,,,,sub-035,1,random_dot,,
left,left,57.0,1.0,28.0,right,0.0,1.4841186660341918,,speed,space,3.977833999961149,,,,,,0.0,1.0,1.0,1.0,28.0,1.0,57.0,0.0,838.080129000009,,,,,,,,,838.0719836250064,838.4207504160004,839.2131798749906,839.2047086250386,839.2051442500087,839.2131798749906,839.2131798749906,839.2131798749906,,840.6993796660099,,,,,,,,,,,,,,,,,,,,,,,,,,,,,,right,0.0,1.4841186660341918,,,,,,sub-035,1,random_dot,,
left,left,58.0,0.0,29.0,right,0.0,0.8158922090078704,,speed,space,3.977833999961149,,,,,,0.0,1.0,1.0,1.0,29.0,0.0,58.0,0.0,840.7063127910369,,,,,,,,,840.6997146659996,841.047963250021,841.8395388750359,841.8318900000304,841.8323312080465,841.8395388750359,841.8395388750359,841.8395388750359,,842.6653950830223,,,,,,,,,,,,,,,,,,,,,,,,,,,,,,right,0.0,0.8158922090078704,,,,,,sub-035,1,random_dot,,
right,right,59.0,1.0,29.0,right,1.0,0.819123082968872,,speed,space,3.977833999961149,,,,,,0.0,1.0,1.0,1.0,29.0,1.0,59.0,1.0,842.6697064160253,,,,,,,,,842.6657124159974,843.4551653329981,844.2578746660147,844.248862041044,844.249428583018,844.2578746660147,844.2578746660147,844.2578746660147,,845.0828236660454,,,,,,,,,,,,,,,,,,,,,,,,,,,,,,right,1.0,0.819123082968872,,,,,,sub-035,1,random_dot,,
,,1.0,1.0,0.0,,,,,speed,space,3.977833999961149,,,,,,0.0,1.0,1.0,1.0,,,,,,,,,,,,,,,,,,,,,,,,,,,,,,,,,,,,,,,,,,,,,,,,,,,,,,,,,,,,,sub-035,1,random_dot,,
,,,,,,,,,,,,,,,,,,,,,,,,,,,,,,,,,,,,,,,,,,,,,,,,,,,,,,,,,,,,,,,,,,,,,,,,,,,,,845.0887916249922,845.0965949580423,850.0868703330052,850.0820846660063,sub-035,1,random_dot,,
