direction,corrAns,thisN,thisTrialN,thisRepN,respDots.keys,respDots.corr,respDots.rt,respDots.duration,randomInstr,respRandomInstr.keys,respRandomInstr.rt,respRandomInstr.duration,practice_trials.thisRepN,practice_trials.thisTrialN,practice_trials.thisN,practice_trials.thisIndex,instr_trials.thisRepN,instr_trials.thisTrialN,instr_trials.thisN,instr_trials.thisIndex,test_trials.thisRepN,test_trials.thisTrialN,test_trials.thisN,test_trials.thisIndex,thisRow.t,notes,general_instruction.started,textGeneralInstr.started,respGeneralInstr.started,general_instruction.stopped,respGeneralInstr.keys,respGeneralInstr.rt,respGeneralInstr.duration,ITI.started,fixcross.started,fixcross.stopped,ITI.stopped,dots.started,backgroundDots.started,stimulusDots.started,respDots.started,stimulusDots.stopped,dots.stopped,practice_trials.respDots.keys,practice_trials.respDots.corr,practice_trials.respDots.rt,practice_trials.respDots.duration,feedback.started,textFeedback.started,textFeedback.stopped,feedback.stopped,info.started,textInfo.started,keyRespInfo.started,info.stopped,keyRespInfo.keys,keyRespInfo.rt,keyRespInfo.duration,test_instruction.started,textTestInstr.started,respTestInstr.started,test_instruction.stopped,respTestInstr.keys,respTestInstr.rt,respTestInstr.duration,random_instruction.started,textRandomInstr.started,respRandomInstr.started,random_instruction.stopped,instr_trials.respRandomInstr.keys,instr_trials.respRandomInstr.rt,instr_trials.respRandomInstr.duration,test_trials.respDots.keys,test_trials.respDots.corr,test_trials.respDots.rt,test_trials.respDots.duration,goodbye.started,textGoodbye.started,goodbye.stopped,participant,session,expName,frameRate,Unnamed: 87
,,,,,,,,,,,,,,,,,,,,,,,,,,,0.0026657999987946,0.0139435999954002,0.0139435999954002,40.94842470000003,space,40.92204330000095,,,,,,,,,,,,,,,,,,,,,,,,,,,,,,,,,,,,,,,,,,,,,,,,sub-217,1,random_dot,60.10572597060154,
left,left,0.0,0.0,0.0,left,1.0,8.471910899999784,,,,,,0.0,0.0,0.0,0.0,,,,,,,,,40.96358659999533,,,,,,,,,40.954364799996256,42.16202479999629,42.9624565999984,42.94456309999805,42.944826699997066,42.9624565999984,42.9624565999984,42.9624565999984,47.95576769999752,51.4346458,left,1.0,8.471910899999784,,51.44036110000161,51.4497343999974,51.94899240000086,51.93268330000137,,,,,,,,,,,,,,,,,,,,,,,,,,,,,sub-217,1,random_dot,60.10572597060154,
right,right,1.0,1.0,0.0,right,1.0,1.3024989999976242,,,,,,0.0,1.0,1.0,1.0,,,,,,,,,51.94899240000086,,,,,,,,,51.93290770000021,53.14753049999854,53.96458049999637,53.94667369999661,53.94697530000121,53.96458049999637,53.96458049999637,53.96458049999637,,55.27979349999805,right,1.0,1.3024989999976242,,55.27989030000026,55.29470030000084,55.79398740000033,55.77764159999788,,,,,,,,,,,,,,,,,,,,,,,,,,,,,sub-217,1,random_dot,60.10572597060154,
left,left,2.0,0.0,1.0,left,1.0,1.1766086999996332,,,,,,1.0,0.0,2.0,0.0,,,,,,,,,55.79398740000033,,,,,,,,,55.77784679999604,56.9924245000002,57.79282589999639,57.775035699996806,57.775311799996416,57.79282589999639,57.79282589999639,57.79282589999639,,58.97489549999591,left,1.0,1.1766086999996332,,58.97497889999795,58.98983489999955,59.48912199999904,59.47271000000183,,,,,,,,,,,,,,,,,,,,,,,,,,,,,sub-217,1,random_dot,60.10572597060154,
right,right,3.0,1.0,1.0,right,1.0,0.7622981000022264,,,,,,1.0,1.0,3.0,1.0,,,,,,,,,59.48912199999904,,,,,,,,,59.47294149999652,59.83866470000066,60.6556655999957,60.6377427999978,60.637990600000194,60.6556655999957,60.6556655999957,60.6556655999957,,61.42166369999904,right,1.0,0.7622981000022264,,61.421770499997365,61.43657019999955,61.93586739999592,61.91957939999702,,,,,,,,,,,,,,,,,,,,,,,,,,,,,sub-217,1,random_dot,60.10572597060154,
left,left,4.0,0.0,2.0,right,0.0,0.7543529000031413,,,,,,2.0,0.0,4.0,0.0,,,,,,,,,61.93586739999592,,,,,,,,,61.91982759999519,63.13431390000187,63.95135019999725,63.93343050000112,63.933680499998445,63.95135019999725,63.95135019999725,63.95135019999725,,64.71731129999534,right,0.0,0.7543529000031413,,64.72218140000041,64.73214349999762,65.23157009999704,65.2151984000011,,,,,,,,,,,,,,,,,,,,,,,,,,,,,sub-217,1,random_dot,60.10572597060154,
right,right,5.0,1.0,2.0,right,1.0,1.0923368000003393,,,,,,2.0,1.0,5.0,1.0,,,,,,,,,65.23157009999704,,,,,,,,,65.21551019999606,66.03047289999813,66.84750060000079,66.82958769999823,66.8298605999953,66.84750060000079,66.84750060000079,66.84750060000079,,67.94635859999835,right,1.0,1.0923368000003393,,67.94871689999854,67.9612760999953,68.46053549999488,68.44415679999656,,,,,,,,,,,,,,,,,,,,,,,,,,,,,sub-217,1,random_dot,60.10572597060154,
right,right,6.0,0.0,3.0,left,0.0,3.39311589999852,,,,,,3.0,0.0,6.0,1.0,,,,,,,,,68.46053549999488,,,,,,,,,68.44437099999777,69.25951450000139,70.07664059999661,70.05870109999523,70.05895139999484,70.07664059999661,70.07664059999661,70.07664059999661,,73.47236849999899,left,0.0,3.39311589999852,,73.47441499999695,73.48734289999993,73.98655249999865,73.97021909999603,,,,,,,,,,,,,,,,,,,,,,,,,,,,,sub-217,1,random_dot,60.10572597060154,
left,left,7.0,1.0,3.0,right,0.0,0.6782594000032987,,,,,,3.0,1.0,7.0,0.0,,,,,,,,,73.98655249999865,,,,,,,,,73.97044989999995,74.08646330000192,74.90353450000111,74.88551189999998,74.88578549999511,74.90353450000111,74.90353450000111,74.90353450000111,,75.58619289999478,right,0.0,0.6782594000032987,,75.58628129999852,75.60119529999793,76.10044489999564,76.08402699999715,,,,,,,,,,,,,,,,,,,,,,,,,,,,,sub-217,1,random_dot,60.10572597060154,
right,right,8.0,0.0,4.0,left,0.0,5.072325000001001,,,,,,4.0,0.0,8.0,1.0,,,,,,,,,76.10044489999564,,,,,,,,,76.08425359999819,76.44998209999903,77.2670100999967,77.24908860000141,77.24935510000068,77.2670100999967,77.2670100999967,77.2670100999967,82.26030019999598,82.34390960000019,left,0.0,5.072325000001001,,82.34398019999935,82.35880650000036,82.85810340000171,82.84161979999772,,,,,,,,,,,,,,,,,,,,,,,,,,,,,sub-217,1,random_dot,60.10572597060154,
left,left,9.0,1.0,4.0,left,1.0,6.92036250000092,,,,,,4.0,1.0,9.0,0.0,,,,,,,,,82.85810340000171,,,,,,,,,82.84182439999859,84.05654169999616,84.87370129999908,84.8557323999994,84.85602949999884,84.87370129999908,84.87370129999908,84.87370129999908,89.8669602000009,91.79802019999624,left,1.0,6.92036250000092,,91.8000996999981,91.81295490000048,92.31226239999523,92.29582539999684,,,,,,,,,,,,,,,,,,,,,,,,,,,,,sub-217,1,random_dot,60.10572597060154,
right,right,10.0,0.0,5.0,right,1.0,5.887785899998562,,,,,,5.0,0.0,10.0,1.0,,,,,,,,,92.31226239999523,,,,,,,,,92.29603389999828,93.11122990000148,93.92828089999966,93.91038739999932,93.91064479999476,93.92828089999966,93.92828089999966,93.92828089999966,98.92151079999894,99.82069449999835,right,1.0,5.887785899998562,,99.82076979999692,99.83570429999963,100.33493949999684,100.31855699999868,,,,,,,,,,,,,,,,,,,,,,,,,,,,,sub-217,1,random_dot,60.10572597060154,
left,left,11.0,1.0,5.0,right,0.0,0.9199365000022226,,,,,,5.0,1.0,11.0,0.0,,,,,,,,,100.33493949999684,,,,,,,,,100.31876509999712,100.43490569999994,101.2518895999965,101.23397100000147,101.23421360000066,101.2518895999965,101.2518895999965,101.2518895999965,,102.18419529999665,right,0.0,0.9199365000022226,,102.18654819999938,102.19914269999572,102.69841839999572,102.68204120000156,,,,,,,,,,,,,,,,,,,,,,,,,,,,,sub-217,1,random_dot,60.10572597060154,
right,right,12.0,0.0,6.0,left,0.0,2.53387130000192,,,,,,6.0,0.0,12.0,1.0,,,,,,,,,102.69841839999572,,,,,,,,,102.6822411999965,103.49750349999522,104.31450999999652,104.2966254999992,104.29687089999788,104.31450999999652,104.31450999999652,104.31450999999652,,106.86145399999803,left,0.0,2.53387130000192,,106.86152949999814,106.87635900000168,107.37571290000052,107.35928350000177,,,,,,,,,,,,,,,,,,,,,,,,,,,,,sub-217,1,random_dot,60.10572597060154,
left,left,13.0,1.0,6.0,right,0.0,0.5314889000001131,,,,,,6.0,1.0,13.0,0.0,,,,,,,,,107.37571290000052,,,,,,,,,107.35951619999832,107.72521119999874,108.54226519999791,108.52424859999884,108.52450400000087,108.54226519999791,108.54226519999791,108.54226519999791,,109.07511030000023,right,0.0,0.5314889000001131,,109.07518659999914,109.0900815999994,109.58950750000076,109.5732558000018,,,,,,,,,,,,,,,,,,,,,,,,,,,,,sub-217,1,random_dot,60.10572597060154,
right,right,14.0,0.0,7.0,right,1.0,0.9174978999944868,,,,,,7.0,0.0,14.0,1.0,,,,,,,,,109.58950750000076,,,,,,,,,109.57370390000142,109.93896780000068,110.73938139999518,110.72155349999956,110.72185139999785,110.73938139999518,110.73938139999518,110.73938139999518,,111.67166469999938,right,1.0,0.9174978999944868,,111.6738239999977,111.6867041000005,112.18599620000168,112.16973709999728,,,,,,,,,,,,,,,,,,,,,,,,,,,,,sub-217,1,random_dot,60.10572597060154,
left,left,15.0,1.0,7.0,left,1.0,6.001357100001769,,,,,,7.0,1.0,15.0,0.0,,,,,,,,,112.18599620000168,,,,,,,,,112.17002409999986,112.5355253999951,113.3524808000002,113.3346401999952,113.33489529999495,113.3524808000002,113.3524808000002,113.3524808000002,118.34593879999738,119.36135099999956,left,1.0,6.001357100001769,,119.36142489999474,119.3765082999962,119.8757809000017,119.85938039999746,,,,,,,,,,,,,,,,,,,,,,,,,,,,,sub-217,1,random_dot,60.10572597060154,
right,right,16.0,0.0,8.0,right,1.0,1.1011656999980914,,,,,,8.0,0.0,16.0,1.0,,,,,,,,,119.8757809000017,,,,,,,,,119.85960689999774,121.07418589999725,121.89125359999888,121.87330030000156,121.8735469999956,121.89125359999888,121.89125359999888,121.89125359999888,,123.00679899999524,right,1.0,1.1011656999980914,,123.00688770000124,123.02173899999616,123.52092819999962,123.5045514999947,,,,,,,,,,,,,,,,,,,,,,,,,,,,,sub-217,1,random_dot,60.10572597060154,
left,left,17.0,1.0,8.0,left,1.0,6.300340800000413,,,,,,8.0,1.0,17.0,0.0,,,,,,,,,123.52092819999962,,,,,,,,,123.50476299999718,124.31990470000164,125.13693539999804,125.11901199999556,125.11927139999898,125.13693539999804,125.13693539999804,125.13693539999804,130.1301989999993,131.44546329999866,left,1.0,6.300340800000413,,131.44554459999927,131.4604801999958,131.95970569999918,131.9433218999984,,,,,,,,,,,,,,,,,,,,,,,,,,,,,sub-217,1,random_dot,60.10572597060154,
left,left,18.0,0.0,9.0,left,1.0,1.5929909000042244,,,,,,9.0,0.0,18.0,0.0,,,,,,,,,131.95970569999918,,,,,,,,,131.94353109999793,132.3093269000019,133.12638570000126,133.1084187000015,133.1086662999951,133.12638570000126,133.12638570000126,133.12638570000126,,134.72453329999553,left,1.0,1.5929909000042244,,134.72461919999478,134.73948269999528,135.2387482999984,135.22233369999594,,,,,,,,,,,,,,,,,,,,,,,,,,,,,sub-217,1,random_dot,60.10572597060154,
right,right,19.0,1.0,9.0,right,1.0,1.8149926999976744,,,,,,9.0,1.0,19.0,1.0,,,,,,,,,135.2387482999984,,,,,,,,,135.22274430000107,135.33870089999982,136.15572629999951,136.13777100000152,136.13802020000003,136.15572629999951,136.15572629999951,136.15572629999951,,137.98701159999473,right,1.0,1.8149926999976744,,137.98711470000126,138.00183339999785,138.50136740000016,138.48469679999835,,,,,,,,,,,,,,,,,,,,,,,,,,,,,sub-217,1,random_dot,60.10572597060154,
,,,,,,,,,,,,,,,,,,,,,,,,,,,,,,,,,,,,,,,,,,,,,,,,,,,,138.4847946000009,138.50136740000016,138.50136740000016,142.3966763999997,space,3.8813311000049,,,,,,,,,,,,,,,,,,,,,,,sub-217,1,random_dot,60.10572597060154,
,,,,,,,,,,,,,,,,,,,,,,,,,,,,,,,,,,,,,,,,,,,,,,,,,,,,,,,,,,,142.39674839999498,142.4132621999961,142.4132621999961,147.5733825999996,space,5.145581299999321,,,,,,,,,,,,,,,,sub-217,1,random_dot,60.10572597060154,
left,left,0.0,0.0,0.0,right,0.0,0.7434050000010757,,speed,space,9.492360399999598,,,,,,0.0,0.0,0.0,1.0,0.0,0.0,0.0,0.0,157.10972349999793,,,,,,,,,157.0980860999989,157.19295129999955,157.99342429999524,157.9755548999965,157.97586700000102,157.99342429999524,157.99342429999524,157.99342429999524,,158.7427011999971,,,,,,,,,,,,,,,,,,,,,,,147.58570150000014,147.5894186000005,147.5894186000005,157.09359250000125,space,9.492360399999598,,right,0.0,0.7434050000010757,,,,,sub-217,1,random_dot,60.10572597060154,
right,right,1.0,1.0,0.0,right,1.0,1.959293299994897,,speed,space,9.492360399999598,,,,,,0.0,0.0,0.0,1.0,0.0,1.0,1.0,1.0,158.75759019999532,,,,,,,,,158.74300249999942,158.85748610000155,159.67452989999583,159.65660819999903,159.6568627000015,159.67452989999583,159.67452989999583,159.67452989999583,,161.63914529999602,,,,,,,,,,,,,,,,,,,,,,,,,,,,,,right,1.0,1.959293299994897,,,,,sub-217,1,random_dot,60.10572597060154,
right,right,2.0,0.0,1.0,left,0.0,0.3373461000010138,,speed,space,9.492360399999598,,,,,,0.0,0.0,0.0,1.0,1.0,0.0,2.0,1.0,161.65391549999913,,,,,,,,,161.63957700000174,162.85217900000134,163.65255959999922,163.63471299999946,163.6349556999994,163.65255959999922,163.65255959999922,163.65255959999922,,164.00275690000126,,,,,,,,,,,,,,,,,,,,,,,,,,,,,,left,0.0,0.3373461000010138,,,,,sub-217,1,random_dot,60.10572597060154,
left,left,3.0,1.0,1.0,right,0.0,1.1446006000041962,,speed,space,9.492360399999598,,,,,,0.0,0.0,0.0,1.0,1.0,1.0,3.0,0.0,164.0173982999986,,,,,,,,,164.003171999997,165.2157264999987,166.01617039999837,165.99829809999935,165.9985721999983,166.01617039999837,166.01617039999837,166.01617039999837,,167.16489889999502,,,,,,,,,,,,,,,,,,,,,,,,,,,,,,right,0.0,1.1446006000041962,,,,,sub-217,1,random_dot,60.10572597060154,
right,right,4.0,0.0,2.0,right,1.0,3.26709370000026,,speed,space,9.492360399999598,,,,,,0.0,0.0,0.0,1.0,2.0,0.0,4.0,1.0,167.17981899999722,,,,,,,,,167.16514489999827,168.378197799997,169.19523710000067,169.1773796999987,169.17769979999866,169.19523710000067,169.19523710000067,169.19523710000067,,172.4744533999983,,,,,,,,,,,,,,,,,,,,,,,,,,,,,,right,1.0,3.26709370000026,,,,,sub-217,1,random_dot,60.10572597060154,
left,left,5.0,1.0,2.0,right,0.0,1.9716169000021184,,speed,space,9.492360399999598,,,,,,0.0,0.0,0.0,1.0,2.0,1.0,5.0,0.0,172.48937119999755,,,,,,,,,172.4747045999975,173.68791619999683,174.50483749999694,174.48689999999624,174.48714539999492,174.50483749999694,174.50483749999694,174.50483749999694,,176.48586519999662,,,,,,,,,,,,,,,,,,,,,,,,,,,,,,right,0.0,1.9716169000021184,,,,,sub-217,1,random_dot,60.10572597060154,
right,right,6.0,0.0,3.0,right,1.0,2.529935600003228,,speed,space,9.492360399999598,,,,,,0.0,0.0,0.0,1.0,3.0,0.0,6.0,1.0,176.50072640000144,,,,,,,,,176.4861632999964,176.85031779999554,177.66726170000038,177.64941949999775,177.64968199999566,177.66726170000038,177.66726170000038,177.66726170000038,,180.1975878000012,,,,,,,,,,,,,,,,,,,,,,,,,,,,,,right,1.0,2.529935600003228,,,,,sub-217,1,random_dot,60.10572597060154,
left,left,7.0,1.0,3.0,left,1.0,1.9774159000007785,,speed,space,9.492360399999598,,,,,,0.0,0.0,0.0,1.0,3.0,1.0,7.0,0.0,180.212563699999,,,,,,,,,180.1978526999956,181.01145969999925,181.8118700999985,181.79405060000136,181.79432169999927,181.8118700999985,181.8118700999985,181.8118700999985,,183.79297499999663,,,,,,,,,,,,,,,,,,,,,,,,,,,,,,left,1.0,1.9774159000007785,,,,,sub-217,1,random_dot,60.10572597060154,
left,left,8.0,0.0,4.0,left,1.0,5.7267733000044245,,speed,space,9.492360399999598,,,,,,0.0,0.0,0.0,1.0,4.0,0.0,8.0,0.0,183.80773279999997,,,,,,,,,183.7932731999972,183.90760800000132,184.7080159999969,184.6901216999977,184.69037079999543,184.7080159999969,184.7080159999969,184.7080159999969,189.70133609999905,190.45065469999827,,,,,,,,,,,,,,,,,,,,,,,,,,,,,,left,1.0,5.7267733000044245,,,,,sub-217,1,random_dot,60.10572597060154,
right,right,9.0,1.0,4.0,left,0.0,3.517074999996112,,speed,space,9.492360399999598,,,,,,0.0,0.0,0.0,1.0,4.0,1.0,9.0,1.0,190.46562769999585,,,,,,,,,190.4509418000016,191.66403459999856,192.4810254999975,192.46318289999908,192.4634756000014,192.4810254999975,192.4810254999975,192.4810254999975,,196.01004169999945,,,,,,,,,,,,,,,,,,,,,,,,,,,,,,left,0.0,3.517074999996112,,,,,sub-217,1,random_dot,60.10572597060154,
right,right,10.0,0.0,5.0,left,0.0,2.4333887999964645,,speed,space,9.492360399999598,,,,,,0.0,0.0,0.0,1.0,5.0,0.0,10.0,1.0,196.02489839999907,,,,,,,,,196.01032499999565,196.37446949999867,197.19150629999783,197.1735412999988,197.1737835999957,197.19150629999783,197.19150629999783,197.19150629999783,,199.63853240000023,,,,,,,,,,,,,,,,,,,,,,,,,,,,,,left,0.0,2.4333887999964645,,,,,sub-217,1,random_dot,60.10572597060154,
left,left,11.0,1.0,5.0,left,1.0,4.468080000006012,,speed,space,9.492360399999598,,,,,,0.0,0.0,0.0,1.0,5.0,1.0,11.0,0.0,199.6534188000005,,,,,,,,,199.63881169999516,200.00291339999967,200.80332529999575,200.7855020999996,200.7857468000002,200.80332529999575,200.80332529999575,200.80332529999575,,205.28097329999585,,,,,,,,,,,,,,,,,,,,,,,,,,,,,,left,1.0,4.468080000006012,,,,,sub-217,1,random_dot,60.10572597060154,
right,right,12.0,0.0,6.0,right,1.0,2.384348499996122,,speed,space,9.492360399999598,,,,,,0.0,0.0,0.0,1.0,6.0,0.0,12.0,1.0,205.29590330000065,,,,,,,,,205.281236099996,205.39584069999543,206.19621869999537,206.1783613000007,206.17862400000013,206.19621869999537,206.19621869999537,206.19621869999537,,208.5933447999996,,,,,,,,,,,,,,,,,,,,,,,,,,,,,,right,1.0,2.384348499996122,,,,,sub-217,1,random_dot,60.10572597060154,
left,left,13.0,1.0,6.0,left,1.0,6.119025300002249,,speed,space,9.492360399999598,,,,,,0.0,0.0,0.0,1.0,6.0,1.0,13.0,0.0,208.60820270000116,,,,,,,,,208.5936537000016,208.7081326999978,209.5251433000012,209.50729929999943,209.50752959999957,209.5251433000012,209.5251433000012,209.5251433000012,214.518445099995,215.65062259999831,,,,,,,,,,,,,,,,,,,,,,,,,,,,,,left,1.0,6.119025300002249,,,,,sub-217,1,random_dot,60.10572597060154,
left,left,14.0,0.0,7.0,right,0.0,5.218897799997649,,speed,space,9.492360399999598,,,,,,0.0,0.0,0.0,1.0,7.0,0.0,14.0,0.0,215.6655204999988,,,,,,,,,215.6509064999991,215.76545780000012,216.58243159999984,216.56451599999852,216.56476850000035,216.58243159999984,216.58243159999984,216.58243159999984,221.575843599996,221.80915580000143,,,,,,,,,,,,,,,,,,,,,,,,,,,,,,right,0.0,5.218897799997649,,,,,sub-217,1,random_dot,60.10572597060154,
right,right,15.0,1.0,7.0,right,1.0,1.0581605000043055,,speed,space,9.492360399999598,,,,,,0.0,0.0,0.0,1.0,7.0,1.0,15.0,1.0,221.82403599999816,,,,,,,,,221.80945079999947,222.62295639999505,223.42347889999652,223.4055135000017,223.40576489999512,223.42347889999652,223.42347889999652,223.42347889999652,,224.48904729999776,,,,,,,,,,,,,,,,,,,,,,,,,,,,,,right,1.0,1.0581605000043055,,,,,sub-217,1,random_dot,60.10572597060154,
left,left,16.0,0.0,8.0,left,1.0,1.23306489999959,,speed,space,9.492360399999598,,,,,,0.0,0.0,0.0,1.0,8.0,0.0,16.0,0.0,224.50387039999623,,,,,,,,,224.48934210000152,225.70231280000007,226.51929099999688,226.50143379999645,226.5016839999953,226.51929099999688,226.51929099999688,226.51929099999688,,227.7678922999985,,,,,,,,,,,,,,,,,,,,,,,,,,,,,,left,1.0,1.23306489999959,,,,,sub-217,1,random_dot,60.10572597060154,
right,right,17.0,1.0,8.0,left,0.0,3.1838964999988093,,speed,space,9.492360399999598,,,,,,0.0,0.0,0.0,1.0,8.0,1.0,17.0,1.0,227.78282839999883,,,,,,,,,227.7681472999975,227.8827650999956,228.69981089999783,228.6819133999961,228.68226879999563,228.69981089999783,228.69981089999783,228.69981089999783,,231.89587619999656,,,,,,,,,,,,,,,,,,,,,,,,,,,,,,left,0.0,3.1838964999988093,,,,,sub-217,1,random_dot,60.10572597060154,
right,right,18.0,0.0,9.0,right,1.0,6.357235000003129,,speed,space,9.492360399999598,,,,,,0.0,0.0,0.0,1.0,9.0,0.0,18.0,1.0,231.91076849999808,,,,,,,,,231.89621610000177,232.26034359999903,233.0772137999957,233.0592755999969,233.0595189999949,233.0772137999957,233.0772137999957,233.0772137999957,238.0706099999952,239.4356571999961,,,,,,,,,,,,,,,,,,,,,,,,,,,,,,right,1.0,6.357235000003129,,,,,sub-217,1,random_dot,60.10572597060154,
left,left,19.0,1.0,9.0,left,1.0,6.100931599998148,,speed,space,9.492360399999598,,,,,,0.0,0.0,0.0,1.0,9.0,1.0,19.0,0.0,239.45065479999903,,,,,,,,,239.43594309999756,239.55076279999776,240.3675871999949,240.3497811999987,240.35002249999525,240.3675871999949,240.3675871999949,240.3675871999949,245.36087929999485,246.47652469999596,,,,,,,,,,,,,,,,,,,,,,,,,,,,,,left,1.0,6.100931599998148,,,,,sub-217,1,random_dot,60.10572597060154,
left,left,20.0,0.0,10.0,right,0.0,1.2641155000019353,,speed,space,9.492360399999598,,,,,,0.0,0.0,0.0,1.0,10.0,0.0,20.0,0.0,246.4914768999952,,,,,,,,,246.47688529999868,246.5913053999975,247.4082896999971,247.39042440000048,247.3906729000009,247.4082896999971,247.4082896999971,247.4082896999971,,248.6742185999974,,,,,,,,,,,,,,,,,,,,,,,,,,,,,,right,0.0,1.2641155000019353,,,,,sub-217,1,random_dot,60.10572597060154,
right,right,21.0,1.0,10.0,right,1.0,5.518934600004286,,speed,space,9.492360399999598,,,,,,0.0,0.0,0.0,1.0,10.0,1.0,21.0,1.0,248.68881659999897,,,,,,,,,248.67491639999932,249.03807270000107,249.85506760000132,249.8372181999948,249.83754409999528,249.85506760000132,249.85506760000132,249.85506760000132,254.84835049999677,255.3811732999966,,,,,,,,,,,,,,,,,,,,,,,,,,,,,,right,1.0,5.518934600004286,,,,,sub-217,1,random_dot,60.10572597060154,
left,left,22.0,0.0,11.0,right,0.0,3.3603110000040037,,speed,space,9.492360399999598,,,,,,0.0,0.0,0.0,1.0,11.0,0.0,22.0,0.0,255.39623330000177,,,,,,,,,255.38144319999992,255.49614350000047,256.31319699999585,256.29526259999693,256.29553229999874,256.31319699999585,256.31319699999585,256.31319699999585,,259.6756716999953,,,,,,,,,,,,,,,,,,,,,,,,,,,,,,right,0.0,3.3603110000040037,,,,,sub-217,1,random_dot,60.10572597060154,
right,right,23.0,1.0,11.0,right,1.0,5.495434700002079,,speed,space,9.492360399999598,,,,,,0.0,0.0,0.0,1.0,11.0,1.0,23.0,1.0,259.6905673000001,,,,,,,,,259.67596349999803,260.88899369999854,261.70602069999586,261.6881232000014,261.6883689999959,261.70602069999586,261.70602069999586,261.70602069999586,266.69930880000175,267.2156371000019,,,,,,,,,,,,,,,,,,,,,,,,,,,,,,right,1.0,5.495434700002079,,,,,sub-217,1,random_dot,60.10572597060154,
left,left,24.0,0.0,12.0,left,1.0,5.810438799999247,,speed,space,9.492360399999598,,,,,,0.0,0.0,0.0,1.0,12.0,0.0,24.0,0.0,267.2306237000012,,,,,,,,,267.21590650000144,268.02955649999785,268.8465748999952,268.82868489999964,268.82895350000035,268.8465748999952,268.8465748999952,268.8465748999952,273.8398703999992,274.67244129999744,,,,,,,,,,,,,,,,,,,,,,,,,,,,,,left,1.0,5.810438799999247,,,,,sub-217,1,random_dot,60.10572597060154,
right,right,25.0,1.0,12.0,right,1.0,5.54489299999841,,speed,space,9.492360399999598,,,,,,0.0,0.0,0.0,1.0,12.0,1.0,25.0,1.0,274.6873382999984,,,,,,,,,274.6727391999957,274.7872981999972,275.60429309999745,275.58639199999743,275.5866466000007,275.60429309999745,275.60429309999745,275.60429309999745,280.5976469000016,281.1636953999987,,,,,,,,,,,,,,,,,,,,,,,,,,,,,,right,1.0,5.54489299999841,,,,,sub-217,1,random_dot,60.10572597060154,
left,left,26.0,0.0,13.0,left,1.0,4.072762000003422,,speed,space,9.492360399999598,,,,,,0.0,0.0,0.0,1.0,13.0,0.0,26.0,0.0,281.1787275999959,,,,,,,,,281.16394829999626,281.52840489999653,282.345319,282.3274617999996,282.32772309999564,282.345319,282.345319,282.345319,,286.42362069999945,,,,,,,,,,,,,,,,,,,,,,,,,,,,,,left,1.0,4.072762000003422,,,,,sub-217,1,random_dot,60.10572597060154,
right,right,27.0,1.0,13.0,right,1.0,6.102635299997928,,speed,space,9.492360399999598,,,,,,0.0,0.0,0.0,1.0,13.0,1.0,27.0,1.0,286.43839879999723,,,,,,,,,286.4239216999995,287.2376520999969,288.05448539999634,288.0365308999972,288.0367602999977,288.05448539999634,288.05448539999634,288.05448539999634,293.04774959999486,294.1630700999958,,,,,,,,,,,,,,,,,,,,,,,,,,,,,,right,1.0,6.102635299997928,,,,,sub-217,1,random_dot,60.10572597060154,
left,left,28.0,0.0,14.0,left,1.0,7.267607499998121,,speed,space,9.492360399999598,,,,,,0.0,0.0,0.0,1.0,14.0,0.0,28.0,0.0,294.17810530000133,,,,,,,,,294.1633329999968,294.5277961999964,295.34474729999783,295.32681729999604,295.3270449999982,295.34474729999783,295.34474729999783,295.34474729999783,300.33808000000136,302.6187129999962,,,,,,,,,,,,,,,,,,,,,,,,,,,,,,left,1.0,7.267607499998121,,,,,sub-217,1,random_dot,60.10572597060154,
right,right,29.0,1.0,14.0,right,1.0,5.209213199996157,,speed,space,9.492360399999598,,,,,,0.0,0.0,0.0,1.0,14.0,1.0,29.0,1.0,302.6336669000011,,,,,,,,,302.6189904999992,302.7335662999976,303.55052079999587,303.5325978999972,303.5328202000019,303.55052079999587,303.55052079999587,303.55052079999587,308.5438815999951,308.76056779999635,,,,,,,,,,,,,,,,,,,,,,,,,,,,,,right,1.0,5.209213199996157,,,,,sub-217,1,random_dot,60.10572597060154,
right,right,30.0,0.0,15.0,left,0.0,2.5379402000035043,,speed,space,9.492360399999598,,,,,,0.0,0.0,0.0,1.0,15.0,0.0,30.0,1.0,308.7755847000008,,,,,,,,,308.7608350000009,309.5745128999988,310.37495489999856,310.3571613999957,310.35759159999725,310.37495489999856,310.37495489999856,310.37495489999856,,312.9217983999988,,,,,,,,,,,,,,,,,,,,,,,,,,,,,,left,0.0,2.5379402000035043,,,,,sub-217,1,random_dot,60.10572597060154,
left,left,31.0,1.0,15.0,right,0.0,0.6932371000002604,,speed,space,9.492360399999598,,,,,,0.0,0.0,0.0,1.0,15.0,1.0,31.0,0.0,312.9366289999962,,,,,,,,,312.92204499999934,313.03663029999734,313.85356150000007,313.83557909999945,313.8358098999961,313.85356150000007,313.85356150000007,313.85356150000007,,314.5531866999954,,,,,,,,,,,,,,,,,,,,,,,,,,,,,,right,0.0,0.6932371000002604,,,,,sub-217,1,random_dot,60.10572597060154,
right,right,32.0,0.0,16.0,left,0.0,0.3374999000006937,,speed,space,9.492360399999598,,,,,,0.0,0.0,0.0,1.0,16.0,0.0,32.0,1.0,314.56794129999616,,,,,,,,,314.5535977999971,314.66782209999656,315.48475450000115,315.466834699997,315.4670910999994,315.48475450000115,315.48475450000115,315.48475450000115,,315.83482509999885,,,,,,,,,,,,,,,,,,,,,,,,,,,,,,left,0.0,0.3374999000006937,,,,,sub-217,1,random_dot,60.10572597060154,
left,left,33.0,1.0,16.0,left,1.0,2.7610605000008945,,speed,space,9.492360399999598,,,,,,0.0,0.0,0.0,1.0,16.0,1.0,33.0,0.0,315.849532799999,,,,,,,,,315.83518670000194,316.19931659999565,317.016109199998,316.9982349999991,316.99847969999973,317.016109199998,317.016109199998,317.016109199998,,319.7793610000008,,,,,,,,,,,,,,,,,,,,,,,,,,,,,,left,1.0,2.7610605000008945,,,,,sub-217,1,random_dot,60.10572597060154,
left,left,34.0,0.0,17.0,left,1.0,2.7158044000025257,,speed,space,9.492360399999598,,,,,,0.0,0.0,0.0,1.0,17.0,0.0,34.0,0.0,319.7943340999991,,,,,,,,,319.77963949999685,320.59323929999664,321.4102819999971,321.3923575000008,321.39263019999635,321.4102819999971,321.4102819999971,321.4102819999971,,324.14026549999835,,,,,,,,,,,,,,,,,,,,,,,,,,,,,,left,1.0,2.7158044000025257,,,,,sub-217,1,random_dot,60.10572597060154,
right,right,35.0,1.0,17.0,left,0.0,2.312002599996049,,speed,space,9.492360399999598,,,,,,0.0,0.0,0.0,1.0,17.0,1.0,35.0,1.0,324.155202199996,,,,,,,,,324.1405261999971,324.95412139999826,325.77108629999566,325.7531588999991,325.7534285000001,325.77108629999566,325.77108629999566,325.77108629999566,,328.08543289999943,,,,,,,,,,,,,,,,,,,,,,,,,,,,,,left,0.0,2.312002599996049,,,,,sub-217,1,random_dot,60.10572597060154,
left,left,36.0,0.0,18.0,right,0.0,1.9254177000038908,,speed,space,9.492360399999598,,,,,,0.0,0.0,0.0,1.0,18.0,0.0,36.0,0.0,328.1001399000015,,,,,,,,,328.08597259999806,328.44978479999554,329.2501742999957,329.2325653000007,329.2331914999959,329.2501742999957,329.2501742999957,329.2501742999957,,331.18127639999875,,,,,,,,,,,,,,,,,,,,,,,,,,,,,,right,0.0,1.9254177000038908,,,,,sub-217,1,random_dot,60.10572597060154,
right,right,37.0,1.0,18.0,right,1.0,1.289575100003276,,speed,space,9.492360399999598,,,,,,0.0,0.0,0.0,1.0,18.0,1.0,37.0,1.0,331.1959915999978,,,,,,,,,331.1817232999965,332.3944697999977,333.2113046000013,333.1933863999948,333.19363670000166,333.2113046000013,333.2113046000013,333.2113046000013,,334.50986209999974,,,,,,,,,,,,,,,,,,,,,,,,,,,,,,right,1.0,1.289575100003276,,,,,sub-217,1,random_dot,60.10572597060154,
left,left,38.0,0.0,19.0,right,0.0,1.0379080999991857,,speed,space,9.492360399999598,,,,,,0.0,0.0,0.0,1.0,19.0,0.0,38.0,0.0,334.52482139999483,,,,,,,,,334.510154399999,334.8742392999993,335.6746828999967,335.6567878999995,335.65703669999493,335.6746828999967,335.6746828999967,335.6746828999967,,336.724364099995,,,,,,,,,,,,,,,,,,,,,,,,,,,,,,right,0.0,1.0379080999991857,,,,,sub-217,1,random_dot,60.10572597060154,
right,right,39.0,1.0,19.0,left,0.0,4.006091299997934,,speed,space,9.492360399999598,,,,,,0.0,0.0,0.0,1.0,19.0,1.0,39.0,1.0,336.7388499000008,,,,,,,,,336.7250883000015,336.8384017999997,337.6390988999992,337.62139699999534,337.62204080000083,337.6390988999992,337.6390988999992,337.6390988999992,,341.65042959999846,,,,,,,,,,,,,,,,,,,,,,,,,,,,,,left,0.0,4.006091299997934,,,,,sub-217,1,random_dot,60.10572597060154,
left,left,40.0,0.0,20.0,right,0.0,5.720096299999568,,speed,space,9.492360399999598,,,,,,0.0,0.0,0.0,1.0,20.0,0.0,40.0,0.0,341.66529250000167,,,,,,,,,341.65072240000154,342.46435109999584,343.2812291000009,343.2633038999993,343.2635427999994,343.2812291000009,343.2812291000009,343.2812291000009,348.2746818000014,349.00715630000195,,,,,,,,,,,,,,,,,,,,,,,,,,,,,,right,0.0,5.720096299999568,,,,,sub-217,1,random_dot,60.10572597060154,
right,right,41.0,1.0,20.0,right,1.0,5.4815801000004285,,speed,space,9.492360399999598,,,,,,0.0,0.0,0.0,1.0,20.0,1.0,41.0,1.0,349.0222031999947,,,,,,,,,349.00740199999564,350.2207204000006,351.0377058000013,351.019845099996,351.0201381000006,351.0377058000013,351.0377058000013,351.0377058000013,356.031024099997,356.5306821999984,,,,,,,,,,,,,,,,,,,,,,,,,,,,,,right,1.0,5.4815801000004285,,,,,sub-217,1,random_dot,60.10572597060154,
right,right,42.0,0.0,21.0,right,1.0,3.583390199994028,,speed,space,9.492360399999598,,,,,,0.0,0.0,0.0,1.0,21.0,0.0,42.0,1.0,356.54554369999823,,,,,,,,,356.53096989999904,357.7439838999999,358.5444137999948,358.5265251999954,358.52680549999786,358.5444137999948,358.5444137999948,358.5444137999948,,362.13995720000094,,,,,,,,,,,,,,,,,,,,,,,,,,,,,,right,1.0,3.583390199994028,,,,,sub-217,1,random_dot,60.10572597060154,
left,left,43.0,1.0,21.0,left,1.0,4.003498300000501,,speed,space,9.492360399999598,,,,,,0.0,0.0,0.0,1.0,21.0,1.0,43.0,0.0,362.1549116999959,,,,,,,,,362.1402793000016,362.95381279999856,363.7708405000012,363.752968599998,363.7532674999966,363.7708405000012,363.7708405000012,363.7708405000012,,367.78242879999743,,,,,,,,,,,,,,,,,,,,,,,,,,,,,,left,1.0,4.003498300000501,,,,,sub-217,1,random_dot,60.10572597060154,
left,left,44.0,0.0,22.0,left,1.0,5.2471641000011005,,speed,space,9.492360399999598,,,,,,0.0,0.0,0.0,1.0,22.0,0.0,44.0,0.0,367.7973765999996,,,,,,,,,367.78269569999975,368.9957168999972,369.7961611999999,369.77819669999735,369.7784430999964,369.7961611999999,369.7961611999999,369.7961611999999,374.7896580000015,375.0571568000014,,,,,,,,,,,,,,,,,,,,,,,,,,,,,,left,1.0,5.2471641000011005,,,,,sub-217,1,random_dot,60.10572597060154,
right,right,45.0,1.0,22.0,right,1.0,3.067758599994704,,speed,space,9.492360399999598,,,,,,0.0,0.0,0.0,1.0,22.0,1.0,45.0,1.0,375.0714794000014,,,,,,,,,375.0579557000019,375.1715800999955,375.9721060000011,375.9545987999954,375.9552962000016,375.9721060000011,375.9721060000011,375.9721060000011,,379.0520905000012,,,,,,,,,,,,,,,,,,,,,,,,,,,,,,right,1.0,3.067758599994704,,,,,sub-217,1,random_dot,60.10572597060154,
left,left,46.0,0.0,23.0,left,1.0,1.968206999998074,,speed,space,9.492360399999598,,,,,,0.0,0.0,0.0,1.0,23.0,0.0,46.0,0.0,379.0664019999968,,,,,,,,,379.0529038999957,379.4161114000017,380.2331278999991,380.2155988999948,380.2163001000008,380.2331278999991,380.2331278999991,380.2331278999991,,382.2145753000004,,,,,,,,,,,,,,,,,,,,,,,,,,,,,,left,1.0,1.968206999998074,,,,,sub-217,1,random_dot,60.10572597060154,
right,right,47.0,1.0,23.0,right,1.0,5.1863355999958,,speed,space,9.492360399999598,,,,,,0.0,0.0,0.0,1.0,23.0,1.0,47.0,1.0,382.2288288999989,,,,,,,,,382.2153935999959,382.5782991000015,383.3787546999956,383.3615840999992,383.36227659999713,383.3787546999956,383.3787546999956,383.3787546999956,388.3721403000018,388.5727179999958,,,,,,,,,,,,,,,,,,,,,,,,,,,,,,right,1.0,5.1863355999958,,,,,sub-217,1,random_dot,60.10572597060154,
right,right,48.0,0.0,24.0,right,1.0,2.475967300000775,,speed,space,9.492360399999598,,,,,,0.0,0.0,0.0,1.0,24.0,0.0,48.0,1.0,388.5872636999993,,,,,,,,,388.573533099996,389.7857086000004,390.6023795000001,390.5851892999999,390.585977099996,390.6023795000001,390.6023795000001,390.6023795000001,,393.083111699998,,,,,,,,,,,,,,,,,,,,,,,,,,,,,,right,1.0,2.475967300000775,,,,,sub-217,1,random_dot,60.10572597060154,
left,left,49.0,1.0,24.0,left,1.0,1.6524934000044595,,speed,space,9.492360399999598,,,,,,0.0,0.0,0.0,1.0,24.0,1.0,49.0,0.0,393.0977876999968,,,,,,,,,393.0838871999949,394.296288599995,395.1132722999973,395.09571460000006,395.0963970000012,395.1132722999973,395.1132722999973,395.1132722999973,,396.778656399998,,,,,,,,,,,,,,,,,,,,,,,,,,,,,,left,1.0,1.6524934000044595,,,,,sub-217,1,random_dot,60.10572597060154,
left,left,50.0,0.0,25.0,left,1.0,1.171524600002158,,speed,space,9.492360399999598,,,,,,0.0,0.0,0.0,1.0,25.0,0.0,50.0,0.0,396.7929099999965,,,,,,,,,396.7794743999984,397.9915211999978,398.80817730000126,398.7909954999996,398.7916994999978,398.80817730000126,398.80817730000126,398.80817730000126,,399.9908762999985,,,,,,,,,,,,,,,,,,,,,,,,,,,,,,left,1.0,1.171524600002158,,,,,sub-217,1,random_dot,60.10572597060154,
right,right,51.0,1.0,25.0,right,1.0,3.338783599996532,,speed,space,9.492360399999598,,,,,,0.0,0.0,0.0,1.0,25.0,1.0,51.0,1.0,400.0051340999999,,,,,,,,,399.9916451999961,401.20356779999565,402.0041452000005,401.986613699999,401.98737309999706,402.0041452000005,402.0041452000005,402.0041452000005,,405.3506167999949,,,,,,,,,,,,,,,,,,,,,,,,,,,,,,right,1.0,3.338783599996532,,,,,sub-217,1,random_dot,60.10572597060154,
left,left,52.0,0.0,26.0,left,1.0,1.53036720000091,,speed,space,9.492360399999598,,,,,,0.0,0.0,0.0,1.0,26.0,0.0,52.0,0.0,405.3648724999948,,,,,,,,,405.351431199997,405.4649472999954,406.2815822999983,406.2641351999992,406.2648354999983,406.2815822999983,406.2815822999983,406.2815822999983,,407.8136744000003,,,,,,,,,,,,,,,,,,,,,,,,,,,,,,left,1.0,1.53036720000091,,,,,sub-217,1,random_dot,60.10572597060154,
right,right,53.0,1.0,26.0,left,0.0,1.3737693000002764,,speed,space,9.492360399999598,,,,,,0.0,0.0,0.0,1.0,26.0,1.0,53.0,1.0,407.8280803999951,,,,,,,,,407.8143934999971,407.9281407999952,408.728535299997,408.7110417000004,408.7117743999988,408.728535299997,408.728535299997,408.728535299997,,410.11094809999486,,,,,,,,,,,,,,,,,,,,,,,,,,,,,,left,0.0,1.3737693000002764,,,,,sub-217,1,random_dot,60.10572597060154,
right,right,54.0,0.0,27.0,right,1.0,1.7753326000020024,,speed,space,9.492360399999598,,,,,,0.0,0.0,0.0,1.0,27.0,0.0,54.0,1.0,410.1251646000019,,,,,,,,,410.111845499996,410.2251466000016,411.042197099996,411.02438399999664,411.025066299997,411.042197099996,411.042197099996,411.042197099996,,412.8240183000016,,,,,,,,,,,,,,,,,,,,,,,,,,,,,,right,1.0,1.7753326000020024,,,,,sub-217,1,random_dot,60.10572597060154,
left,left,55.0,1.0,27.0,left,1.0,1.3503616000016336,,speed,space,9.492360399999598,,,,,,0.0,0.0,0.0,1.0,27.0,1.0,55.0,0.0,412.838302199998,,,,,,,,,412.8248225999996,413.1880805999972,414.0048915000007,413.9875202999974,413.98821260000113,414.0048915000007,414.0048915000007,414.0048915000007,,415.3706496999948,,,,,,,,,,,,,,,,,,,,,,,,,,,,,,left,1.0,1.3503616000016336,,,,,sub-217,1,random_dot,60.10572597060154,
left,left,56.0,0.0,28.0,left,1.0,1.563659399995231,,speed,space,9.492360399999598,,,,,,0.0,0.0,0.0,1.0,28.0,0.0,56.0,0.0,415.3850993999949,,,,,,,,,415.371463800002,416.58356099999946,417.400530699997,417.3830278999958,417.38373319999664,417.400530699997,417.400530699997,417.400530699997,,418.96588849999534,,,,,,,,,,,,,,,,,,,,,,,,,,,,,,left,1.0,1.563659399995231,,,,,sub-217,1,random_dot,60.10572597060154,
right,right,57.0,1.0,28.0,right,1.0,0.9559826999975484,,speed,space,9.492360399999598,,,,,,0.0,0.0,0.0,1.0,28.0,1.0,57.0,1.0,418.9799963999976,,,,,,,,,418.9667195000002,420.1788056000005,420.9956387999992,420.9781046999997,420.97886849999486,420.9956387999992,420.9956387999992,420.9956387999992,,421.9619406999991,,,,,,,,,,,,,,,,,,,,,,,,,,,,,,right,1.0,0.9559826999975484,,,,,sub-217,1,random_dot,60.10572597060154,
left,left,58.0,0.0,29.0,left,1.0,2.63883120000537,,speed,space,9.492360399999598,,,,,,0.0,0.0,0.0,1.0,29.0,0.0,58.0,0.0,421.9761616999968,,,,,,,,,421.9627324999965,422.0762816999995,422.8931492999982,422.8755900999968,422.8762700000007,422.8931492999982,422.8931492999982,422.8931492999982,,425.5404386000009,,,,,,,,,,,,,,,,,,,,,,,,,,,,,,left,1.0,2.63883120000537,,,,,sub-217,1,random_dot,60.10572597060154,
right,right,59.0,1.0,29.0,right,1.0,1.0670195999991847,,speed,space,9.492360399999598,,,,,,0.0,0.0,0.0,1.0,29.0,1.0,59.0,1.0,425.5549686999948,,,,,,,,,425.5411511999992,425.9045191999976,426.704604599996,426.6874145999973,426.6881542999981,426.704604599996,426.704604599996,426.704604599996,,427.78738119999616,,,,,,,,,,,,,,,,,,,,,,,,,,,,,,right,1.0,1.0670195999991847,,,,,sub-217,1,random_dot,60.10572597060154,
,,0.0,0.0,0.0,,,,,speed,space,9.492360399999598,,,,,,0.0,0.0,0.0,1.0,,,,,,,,,,,,,,,,,,,,,,,,,,,,,,,,,,,,,,,,,,,,,,,,,,,,,,,,,,,,sub-217,1,random_dot,60.10572597060154,
left,left,0.0,0.0,0.0,right,0.0,4.252640100006829,,accuracy,space,6.649208099996031,,,,,,0.0,1.0,1.0,0.0,0.0,0.0,0.0,0.0,434.4981891999996,,,,,,,,,434.49439359999815,435.2921251000007,436.1087656999953,436.09154309999576,436.0922551999975,436.1087656999953,436.1087656999953,436.1087656999953,,440.3706500999979,,,,,,,,,,,,,,,,,,,,,,,427.8184664,427.8225189000004,427.8225189000004,434.4773196999959,space,6.649208099996031,,right,0.0,4.252640100006829,,,,,sub-217,1,random_dot,60.10572597060154,
right,right,1.0,1.0,0.0,right,1.0,5.857848200001172,,accuracy,space,6.649208099996031,,,,,,0.0,1.0,1.0,0.0,0.0,1.0,1.0,1.0,440.38519979999546,,,,,,,,,440.3713527,440.4852274000005,441.3020523000014,441.28463629999897,441.28533400000015,441.3020523000014,441.3020523000014,441.3020523000014,446.2955039000008,447.1616020000001,,,,,,,,,,,,,,,,,,,,,,,,,,,,,,right,1.0,5.857848200001172,,,,,sub-217,1,random_dot,60.10572597060154,
right,right,2.0,0.0,1.0,right,1.0,2.847504899997148,,accuracy,space,6.649208099996031,,,,,,0.0,1.0,1.0,0.0,1.0,0.0,2.0,1.0,447.1762189000001,,,,,,,,,447.1623743000018,447.9753139999957,448.7921559999959,448.7745749999958,448.7752581999957,448.7921559999959,448.7921559999959,448.7921559999959,,451.6554801999955,,,,,,,,,,,,,,,,,,,,,,,,,,,,,,right,1.0,2.847504899997148,,,,,sub-217,1,random_dot,60.10572597060154,
left,left,3.0,1.0,1.0,left,1.0,0.7070385000042734,,accuracy,space,6.649208099996031,,,,,,0.0,1.0,1.0,0.0,1.0,1.0,3.0,0.0,451.6701638000013,,,,,,,,,451.6560163999966,452.8687691000014,453.6857814999967,453.6679422000016,453.6686250999992,453.6857814999967,453.6857814999967,453.6857814999967,,454.40230199999496,,,,,,,,,,,,,,,,,,,,,,,,,,,,,,left,1.0,0.7070385000042734,,,,,sub-217,1,random_dot,60.10572597060154,
right,right,4.0,0.0,2.0,left,0.0,0.9545456999985618,,accuracy,space,6.649208099996031,,,,,,0.0,1.0,1.0,0.0,2.0,0.0,4.0,1.0,454.4167693999989,,,,,,,,,454.4031118999992,454.5166355999973,455.3336132999975,455.3158628000019,455.3165653999968,455.3336132999975,455.3336132999975,455.3336132999975,,456.300339399997,,,,,,,,,,,,,,,,,,,,,,,,,,,,,,left,0.0,0.9545456999985618,,,,,sub-217,1,random_dot,60.10572597060154,
left,left,5.0,1.0,2.0,left,1.0,0.9165731000030064,,accuracy,space,6.649208099996031,,,,,,0.0,1.0,1.0,0.0,2.0,1.0,5.0,0.0,456.3142205999975,,,,,,,,,456.3011606,456.4141241999969,457.2310417999979,457.213453999997,457.2142153999957,457.2310417999979,457.2310417999979,457.2310417999979,,458.16379479999887,,,,,,,,,,,,,,,,,,,,,,,,,,,,,,left,1.0,0.9165731000030064,,,,,sub-217,1,random_dot,60.10572597060154,
left,left,6.0,0.0,3.0,left,1.0,0.5841800999987754,,accuracy,space,6.649208099996031,,,,,,0.0,1.0,1.0,0.0,3.0,0.0,6.0,0.0,458.1782898999954,,,,,,,,,458.164569499997,459.3768032000007,460.1772223000007,460.1596883999955,460.1603944999952,460.1772223000007,460.1772223000007,460.1772223000007,,460.7771664999964,,,,,,,,,,,,,,,,,,,,,,,,,,,,,,left,1.0,0.5841800999987754,,,,,sub-217,1,random_dot,60.10572597060154,
right,right,7.0,1.0,3.0,right,1.0,0.7011861999999383,,accuracy,space,6.649208099996031,,,,,,0.0,1.0,1.0,0.0,3.0,1.0,7.0,1.0,460.7913862999994,,,,,,,,,460.77807369999937,461.9900678999984,462.8067869000006,462.789572499998,462.7903647999992,462.8067869000006,462.8067869000006,462.8067869000006,,463.5233963999999,,,,,,,,,,,,,,,,,,,,,,,,,,,,,,right,1.0,0.7011861999999383,,,,,sub-217,1,random_dot,60.10572597060154,
right,right,8.0,0.0,4.0,right,1.0,1.591492499996093,,accuracy,space,6.649208099996031,,,,,,0.0,1.0,1.0,0.0,4.0,0.0,8.0,1.0,463.53784579999774,,,,,,,,,463.5241743000006,463.8875742999953,464.70440999999846,464.6868677999955,464.68765970000095,464.70440999999846,464.70440999999846,464.70440999999846,,466.3031865000012,,,,,,,,,,,,,,,,,,,,,,,,,,,,,,right,1.0,1.591492499996093,,,,,sub-217,1,random_dot,60.10572597060154,
left,left,9.0,1.0,4.0,right,0.0,1.2471794000011869,,accuracy,space,6.649208099996031,,,,,,0.0,1.0,1.0,0.0,4.0,1.0,9.0,0.0,466.3176317999969,,,,,,,,,466.3040819000016,467.51594230000046,468.3164323999954,468.2989205999984,468.2996198999972,468.3164323999954,468.3164323999954,468.3164323999954,,469.5653659000018,,,,,,,,,,,,,,,,,,,,,,,,,,,,,,right,0.0,1.2471794000011869,,,,,sub-217,1,random_dot,60.10572597060154,
right,right,10.0,0.0,5.0,right,1.0,0.859758899998269,,accuracy,space,6.649208099996031,,,,,,0.0,1.0,1.0,0.0,5.0,0.0,10.0,1.0,469.579705600001,,,,,,,,,469.5660827999964,469.9295492999954,470.746555699996,470.72901759999513,470.7297247999959,470.746555699996,470.746555699996,470.746555699996,,471.6118959999949,,,,,,,,,,,,,,,,,,,,,,,,,,,,,,right,1.0,0.859758899998269,,,,,sub-217,1,random_dot,60.10572597060154,
left,left,11.0,1.0,5.0,left,1.0,1.933879700001853,,accuracy,space,6.649208099996031,,,,,,0.0,1.0,1.0,0.0,5.0,1.0,11.0,0.0,471.62678869999945,,,,,,,,,471.612180199998,471.7270625000019,472.5275330000004,472.50999969999975,472.5107816999953,472.5275330000004,472.5275330000004,472.5275330000004,,474.4756999999954,,,,,,,,,,,,,,,,,,,,,,,,,,,,,,left,1.0,1.933879700001853,,,,,sub-217,1,random_dot,60.10572597060154,
left,left,12.0,0.0,6.0,right,0.0,0.8408788999950048,,accuracy,space,6.649208099996031,,,,,,0.0,1.0,1.0,0.0,6.0,0.0,12.0,0.0,474.4901511999997,,,,,,,,,474.4765065999964,474.83956719999696,475.6562626999949,475.63876309999614,475.6391954999999,475.6562626999949,475.6562626999949,475.6562626999949,,476.5066083999991,,,,,,,,,,,,,,,,,,,,,,,,,,,,,,right,0.0,0.8408788999950048,,,,,sub-217,1,random_dot,60.10572597060154,
right,right,13.0,1.0,6.0,right,1.0,0.8171069000018178,,accuracy,space,6.649208099996031,,,,,,0.0,1.0,1.0,0.0,6.0,1.0,13.0,1.0,476.52080049999495,,,,,,,,,476.5074176999988,476.8702286999978,477.6872003999961,477.6694753999982,477.6699345000016,477.6872003999961,477.6872003999961,477.6872003999961,,478.52033890000166,,,,,,,,,,,,,,,,,,,,,,,,,,,,,,right,1.0,0.8171069000018178,,,,,sub-217,1,random_dot,60.10572597060154,
right,right,14.0,0.0,7.0,right,1.0,0.8765071000016178,,accuracy,space,6.649208099996031,,,,,,0.0,1.0,1.0,0.0,7.0,0.0,14.0,1.0,478.53468019999855,,,,,,,,,478.5211520000012,478.88437949999934,479.70143319999625,479.6837765999953,479.684488699997,479.70143319999625,479.70143319999625,479.70143319999625,,480.5842612999986,,,,,,,,,,,,,,,,,,,,,,,,,,,,,,right,1.0,0.8765071000016178,,,,,sub-217,1,random_dot,60.10572597060154,
left,left,15.0,1.0,7.0,right,0.0,0.9960885999971651,,accuracy,space,6.649208099996031,,,,,,0.0,1.0,1.0,0.0,7.0,1.0,15.0,0.0,480.59870070000034,,,,,,,,,480.5850658999989,481.3977159999995,482.2146917999999,482.1973445999975,482.19813359999534,482.2146917999999,482.2146917999999,482.2146917999999,,483.21408209999936,,,,,,,,,,,,,,,,,,,,,,,,,,,,,,right,0.0,0.9960885999971651,,,,,sub-217,1,random_dot,60.10572597060154,
right,right,16.0,0.0,8.0,left,0.0,1.4886052000001655,,accuracy,space,6.649208099996031,,,,,,0.0,1.0,1.0,0.0,8.0,0.0,16.0,1.0,483.2285846999948,,,,,,,,,483.21487689999776,483.57814539999526,484.3942973000012,484.37634859999525,484.3765695999973,484.3942973000012,484.3942973000012,484.3942973000012,,485.893607500002,,,,,,,,,,,,,,,,,,,,,,,,,,,,,,left,0.0,1.4886052000001655,,,,,sub-217,1,random_dot,60.10572597060154,
left,left,17.0,1.0,8.0,right,0.0,2.157539200001338,,accuracy,space,6.649208099996031,,,,,,0.0,1.0,1.0,0.0,8.0,1.0,17.0,0.0,485.9080787999992,,,,,,,,,485.89442259999487,487.1067652999991,487.9071578000003,487.8896516999957,487.8903659999996,487.9071578000003,487.9071578000003,487.9071578000003,,490.0714605999965,,,,,,,,,,,,,,,,,,,,,,,,,,,,,,right,0.0,2.157539200001338,,,,,sub-217,1,random_dot,60.10572597060154,
right,right,18.0,0.0,9.0,right,1.0,2.08049619999656,,accuracy,space,6.649208099996031,,,,,,0.0,1.0,1.0,0.0,9.0,0.0,18.0,1.0,490.08589489999576,,,,,,,,,490.0722668999952,490.435665099998,491.2360752999957,491.2185690999977,491.2192695999984,491.2360752999957,491.2360752999957,491.2360752999957,,493.33388959999866,,,,,,,,,,,,,,,,,,,,,,,,,,,,,,right,1.0,2.08049619999656,,,,,sub-217,1,random_dot,60.10572597060154,
left,left,19.0,1.0,9.0,right,0.0,1.2383272999941255,,accuracy,space,6.649208099996031,,,,,,0.0,1.0,1.0,0.0,9.0,1.0,19.0,0.0,493.34840260000055,,,,,,,,,493.33466639999824,494.5468045999951,495.347299699999,495.3297695000001,495.33047039999656,495.347299699999,495.347299699999,495.347299699999,,496.5964775999964,,,,,,,,,,,,,,,,,,,,,,,,,,,,,,right,0.0,1.2383272999941255,,,,,sub-217,1,random_dot,60.10572597060154,
left,left,20.0,0.0,10.0,right,0.0,0.6627720999968005,,accuracy,space,6.649208099996031,,,,,,0.0,1.0,1.0,0.0,10.0,0.0,20.0,0.0,496.61081230000127,,,,,,,,,496.5972954999961,496.960419199997,497.77734609999607,497.7597361000008,497.76041540000006,497.77734609999607,497.77734609999607,497.77734609999607,,498.443875500001,,,,,,,,,,,,,,,,,,,,,,,,,,,,,,right,0.0,0.6627720999968005,,,,,sub-217,1,random_dot,60.10572597060154,
right,right,21.0,1.0,10.0,left,0.0,1.3368450999987544,,accuracy,space,6.649208099996031,,,,,,0.0,1.0,1.0,0.0,10.0,1.0,21.0,1.0,498.4581705000018,,,,,,,,,498.44465409999975,499.65664950000064,500.45722699999897,500.4396695999967,500.4404471000016,500.45722699999897,500.45722699999897,500.45722699999897,,501.80617730000085,,,,,,,,,,,,,,,,,,,,,,,,,,,,,,left,0.0,1.3368450999987544,,,,,sub-217,1,random_dot,60.10572597060154,
left,left,22.0,0.0,11.0,left,1.0,0.7358357000048272,,accuracy,space,6.649208099996031,,,,,,0.0,1.0,1.0,0.0,11.0,0.0,22.0,0.0,501.820627699999,,,,,,,,,501.80698799999664,502.1698871999979,502.9705375999984,502.9528910000008,502.9535944999952,502.9705375999984,502.9705375999984,502.9705375999984,,503.720140999998,,,,,,,,,,,,,,,,,,,,,,,,,,,,,,left,1.0,0.7358357000048272,,,,,sub-217,1,random_dot,60.10572597060154,
right,right,23.0,1.0,11.0,right,1.0,0.8234422000023187,,accuracy,space,6.649208099996031,,,,,,0.0,1.0,1.0,0.0,11.0,1.0,23.0,1.0,503.7343933000011,,,,,,,,,503.7209237999996,504.5337107999949,505.3507193999976,505.33322580000095,505.33404309999605,505.3507193999976,505.3507193999976,505.3507193999976,,506.1837340999991,,,,,,,,,,,,,,,,,,,,,,,,,,,,,,right,1.0,0.8234422000023187,,,,,sub-217,1,random_dot,60.10572597060154,
left,left,24.0,0.0,12.0,right,0.0,2.04219269999885,,accuracy,space,6.649208099996031,,,,,,0.0,1.0,1.0,0.0,12.0,0.0,24.0,0.0,506.1981690999965,,,,,,,,,506.18454380000185,506.5477747999976,507.3643539999976,507.3468694999974,507.3475584999978,507.3643539999976,507.3643539999976,507.3643539999976,,509.41275809999934,,,,,,,,,,,,,,,,,,,,,,,,,,,,,,right,0.0,2.04219269999885,,,,,sub-217,1,random_dot,60.10572597060154,
right,right,25.0,1.0,12.0,right,1.0,0.9151481000008062,,accuracy,space,6.649208099996031,,,,,,0.0,1.0,1.0,0.0,12.0,1.0,25.0,1.0,509.4272037999981,,,,,,,,,509.4135772000009,510.2261518000014,511.04314039999736,511.0252556999985,511.0259334000002,511.04314039999736,511.04314039999736,511.04314039999736,,511.9591938999947,,,,,,,,,,,,,,,,,,,,,,,,,,,,,,right,1.0,0.9151481000008062,,,,,sub-217,1,random_dot,60.10572597060154,
left,left,26.0,0.0,13.0,left,1.0,2.5659484999996494,,accuracy,space,6.649208099996031,,,,,,0.0,1.0,1.0,0.0,13.0,0.0,26.0,0.0,511.9734842999969,,,,,,,,,511.9599745000014,512.7727838999999,513.5894455999951,513.5716298999978,513.5720292999977,513.5894455999951,513.5894455999951,513.5894455999951,,516.1702981999988,,,,,,,,,,,,,,,,,,,,,,,,,,,,,,left,1.0,2.5659484999996494,,,,,sub-217,1,random_dot,60.10572597060154,
right,right,27.0,1.0,13.0,left,0.0,1.5023577000029036,,accuracy,space,6.649208099996031,,,,,,0.0,1.0,1.0,0.0,13.0,1.0,27.0,1.0,516.1845823999975,,,,,,,,,516.1710755999957,516.5345213999972,517.3514780999976,517.333967999999,517.3347588999968,517.3514780999976,517.3514780999976,517.3514780999976,,518.8668816999998,,,,,,,,,,,,,,,,,,,,,,,,,,,,,,left,0.0,1.5023577000029036,,,,,sub-217,1,random_dot,60.10572597060154,
right,right,28.0,0.0,14.0,left,0.0,2.550831400003517,,accuracy,space,6.649208099996031,,,,,,0.0,1.0,1.0,0.0,14.0,0.0,28.0,1.0,518.8813574999949,,,,,,,,,518.8676968,520.0796627999953,520.8801320999992,520.8626409999997,520.8634248999952,520.8801320999992,520.8801320999992,520.8801320999992,,523.4441938000018,,,,,,,,,,,,,,,,,,,,,,,,,,,,,,left,0.0,2.550831400003517,,,,,sub-217,1,random_dot,60.10572597060154,
left,left,29.0,1.0,14.0,right,0.0,0.5622648999997182,,accuracy,space,6.649208099996031,,,,,,0.0,1.0,1.0,0.0,14.0,1.0,29.0,0.0,523.4584894,,,,,,,,,523.4450934999986,523.5585398999974,524.3754713999951,524.3578454999952,524.3585324999949,524.3754713999951,524.3754713999951,524.3754713999951,,524.9418886999993,,,,,,,,,,,,,,,,,,,,,,,,,,,,,,right,0.0,0.5622648999997182,,,,,sub-217,1,random_dot,60.10572597060154,
left,left,30.0,0.0,15.0,left,1.0,0.9234402000001865,,accuracy,space,6.649208099996031,,,,,,0.0,1.0,1.0,0.0,15.0,0.0,30.0,0.0,524.9563663000008,,,,,,,,,524.9427077,526.1550787000015,526.9720942999993,526.9545724999989,526.9553674999988,526.9720942999993,526.9720942999993,526.9720942999993,,527.9049126999962,,,,,,,,,,,,,,,,,,,,,,,,,,,,,,left,1.0,0.9234402000001865,,,,,sub-217,1,random_dot,60.10572597060154,
right,right,31.0,1.0,15.0,right,1.0,1.918355200003134,,accuracy,space,6.649208099996031,,,,,,0.0,1.0,1.0,0.0,15.0,1.0,31.0,1.0,527.9192449999973,,,,,,,,,527.9057318999985,528.0192642999973,528.8359419999979,528.8183734999984,528.8190885000004,528.8359419999979,528.8359419999979,528.8359419999979,,530.7677911999999,,,,,,,,,,,,,,,,,,,,,,,,,,,,,,right,1.0,1.918355200003134,,,,,sub-217,1,random_dot,60.10572597060154,
left,left,32.0,0.0,16.0,left,1.0,0.7736614999957965,,accuracy,space,6.649208099996031,,,,,,0.0,1.0,1.0,0.0,16.0,0.0,32.0,0.0,530.7822463999983,,,,,,,,,530.7687240999949,531.9806945000018,532.7976802999983,532.7801820999957,532.7810017000011,532.7976802999983,532.7976802999983,532.7976802999983,,533.5807382999992,,,,,,,,,,,,,,,,,,,,,,,,,,,,,,left,1.0,0.7736614999957965,,,,,sub-217,1,random_dot,60.10572597060154,
right,right,33.0,1.0,16.0,left,0.0,1.2163494999986142,,accuracy,space,6.649208099996031,,,,,,0.0,1.0,1.0,0.0,16.0,1.0,33.0,1.0,533.5949712000001,,,,,,,,,533.5815452999959,534.3941669999986,535.2109536999997,535.1928782999967,535.1933237999983,535.2109536999997,535.2109536999997,535.2109536999997,,536.4436301999958,,,,,,,,,,,,,,,,,,,,,,,,,,,,,,left,0.0,1.2163494999986142,,,,,sub-217,1,random_dot,60.10572597060154,
right,right,34.0,0.0,17.0,right,1.0,2.7095152999972925,,accuracy,space,6.649208099996031,,,,,,0.0,1.0,1.0,0.0,17.0,0.0,34.0,1.0,536.4580900000001,,,,,,,,,536.4444405999966,536.8077580999961,537.6246016000005,537.6071118999971,537.6079030999972,537.6246016000005,537.6246016000005,537.6246016000005,,540.3381575999956,,,,,,,,,,,,,,,,,,,,,,,,,,,,,,right,1.0,2.7095152999972925,,,,,sub-217,1,random_dot,60.10572597060154,
left,left,35.0,1.0,17.0,left,1.0,1.5266375999999582,,accuracy,space,6.649208099996031,,,,,,0.0,1.0,1.0,0.0,17.0,1.0,35.0,0.0,540.3526245999965,,,,,,,,,540.3389508999971,540.4526752999955,541.2531541999997,541.2356126000013,541.2364020999958,541.2531541999997,541.2531541999997,541.2531541999997,,542.7849008999983,,,,,,,,,,,,,,,,,,,,,,,,,,,,,,left,1.0,1.5266375999999582,,,,,sub-217,1,random_dot,60.10572597060154,
right,right,36.0,0.0,18.0,right,1.0,2.828990200003318,,accuracy,space,6.649208099996031,,,,,,0.0,1.0,1.0,0.0,18.0,0.0,36.0,1.0,542.7993889999998,,,,,,,,,542.7857473999975,542.8996019999977,543.7157853999961,543.697883599998,543.698175999998,543.7157853999961,543.7157853999961,543.7157853999961,,546.5468847000011,,,,,,,,,,,,,,,,,,,,,,,,,,,,,,right,1.0,2.828990200003318,,,,,sub-217,1,random_dot,60.10572597060154,
left,left,37.0,1.0,18.0,left,1.0,2.2940832000022056,,accuracy,space,6.649208099996031,,,,,,0.0,1.0,1.0,0.0,18.0,1.0,37.0,0.0,546.5613413999963,,,,,,,,,546.547700199997,547.3603040999951,548.1773430999965,548.1597984999971,548.1605027999976,548.1773430999965,548.1773430999965,548.1773430999965,,550.4752710999965,,,,,,,,,,,,,,,,,,,,,,,,,,,,,,left,1.0,2.2940832000022056,,,,,sub-217,1,random_dot,60.10572597060154,
left,left,38.0,0.0,19.0,left,1.0,3.0154146999993827,,accuracy,space,6.649208099996031,,,,,,0.0,1.0,1.0,0.0,19.0,0.0,38.0,0.0,550.4892127999992,,,,,,,,,550.4761700000017,551.2884594999996,552.1054341999989,552.0877849999961,552.0884693999978,552.1054341999989,552.1054341999989,552.1054341999989,,555.1353670999961,,,,,,,,,,,,,,,,,,,,,,,,,,,,,,left,1.0,3.0154146999993827,,,,,sub-217,1,random_dot,60.10572597060154,
right,right,39.0,1.0,19.0,right,1.0,0.7358173999964492,,accuracy,space,6.649208099996031,,,,,,0.0,1.0,1.0,0.0,19.0,1.0,39.0,1.0,555.1496026999957,,,,,,,,,555.1362122999999,555.2498899999991,556.0668372,556.0493299000009,556.0500310999996,556.0668372,556.0668372,556.0668372,,556.8164475999947,,,,,,,,,,,,,,,,,,,,,,,,,,,,,,right,1.0,0.7358173999964492,,,,,sub-217,1,random_dot,60.10572597060154,
right,right,40.0,0.0,20.0,right,1.0,0.5567085000002407,,accuracy,space,6.649208099996031,,,,,,0.0,1.0,1.0,0.0,20.0,0.0,40.0,1.0,556.8306966000018,,,,,,,,,556.8172491000005,556.9308403999967,557.7478250999993,557.7302608999962,557.730942000002,557.7478250999993,557.7478250999993,557.7478250999993,,558.3140377000018,,,,,,,,,,,,,,,,,,,,,,,,,,,,,,right,1.0,0.5567085000002407,,,,,sub-217,1,random_dot,60.10572597060154,
left,left,41.0,1.0,20.0,right,0.0,0.6860771999999997,,accuracy,space,6.649208099996031,,,,,,0.0,1.0,1.0,0.0,20.0,1.0,41.0,0.0,558.3287525999986,,,,,,,,,558.3144773999957,559.1281164999964,559.9284091000009,559.9112087999965,559.9119171999992,559.9284091000009,559.9284091000009,559.9284091000009,,560.6279298000009,,,,,,,,,,,,,,,,,,,,,,,,,,,,,,right,0.0,0.6860771999999997,,,,,sub-217,1,random_dot,60.10572597060154,
right,right,42.0,0.0,21.0,left,0.0,2.5101299000016297,,accuracy,space,6.649208099996031,,,,,,0.0,1.0,1.0,0.0,21.0,0.0,42.0,1.0,560.6424237999963,,,,,,,,,560.6287411999947,561.4416567000007,562.2586168999987,562.2411244999967,562.241915599996,562.2586168999987,562.2586168999987,562.2586168999987,,564.7725138999958,,,,,,,,,,,,,,,,,,,,,,,,,,,,,,left,0.0,2.5101299000016297,,,,,sub-217,1,random_dot,60.10572597060154,
left,left,43.0,1.0,21.0,right,0.0,0.6482830999957514,,accuracy,space,6.649208099996031,,,,,,0.0,1.0,1.0,0.0,21.0,1.0,43.0,0.0,564.7868535000016,,,,,,,,,564.7732496999961,565.9853346999953,566.7859404999981,566.7683230999974,566.7690068000011,566.7859404999981,566.7859404999981,566.7859404999981,,567.4358385000014,,,,,,,,,,,,,,,,,,,,,,,,,,,,,,right,0.0,0.6482830999957514,,,,,sub-217,1,random_dot,60.10572597060154,
left,left,44.0,0.0,22.0,left,1.0,1.3017510999998194,,accuracy,space,6.649208099996031,,,,,,0.0,1.0,1.0,0.0,22.0,0.0,44.0,0.0,567.4500728999992,,,,,,,,,567.4366488000014,567.7999048999991,568.6169131999995,568.5993632999962,568.6001934999949,568.6169131999995,568.6169131999995,568.6169131999995,,569.932407100001,,,,,,,,,,,,,,,,,,,,,,,,,,,,,,left,1.0,1.3017510999998194,,,,,sub-217,1,random_dot,60.10572597060154,
right,right,45.0,1.0,22.0,right,1.0,3.1430476999958046,,accuracy,space,6.649208099996031,,,,,,0.0,1.0,1.0,0.0,22.0,1.0,45.0,1.0,569.9466880999971,,,,,,,,,569.9331773999947,570.0462991999957,570.847116099998,570.8295795999948,570.8302552999958,570.847116099998,570.847116099998,570.847116099998,,573.9936750999987,,,,,,,,,,,,,,,,,,,,,,,,,,,,,,right,1.0,3.1430476999958046,,,,,sub-217,1,random_dot,60.10572597060154,
left,left,46.0,0.0,23.0,right,0.0,1.4577499000006355,,accuracy,space,6.649208099996031,,,,,,0.0,1.0,1.0,0.0,23.0,0.0,46.0,0.0,574.0082191999973,,,,,,,,,573.9944543999954,574.3577554000003,575.174749400001,575.1571916999965,575.1579601999983,575.174749400001,575.174749400001,575.174749400001,,576.6403213999947,,,,,,,,,,,,,,,,,,,,,,,,,,,,,,right,0.0,1.4577499000006355,,,,,sub-217,1,random_dot,60.10572597060154,
right,right,47.0,1.0,23.0,right,1.0,1.2022354000000632,,accuracy,space,6.649208099996031,,,,,,0.0,1.0,1.0,0.0,23.0,1.0,47.0,1.0,576.6546008000005,,,,,,,,,576.6411297999948,577.004400699996,577.8211923999988,577.8033303999982,577.8037066999968,577.8211923999988,577.8211923999988,577.8211923999988,,579.0370227999956,,,,,,,,,,,,,,,,,,,,,,,,,,,,,,right,1.0,1.2022354000000632,,,,,sub-217,1,random_dot,60.10572597060154,
left,left,48.0,0.0,24.0,right,0.0,2.2147449999974924,,accuracy,space,6.649208099996031,,,,,,0.0,1.0,1.0,0.0,24.0,0.0,48.0,0.0,579.0514935999963,,,,,,,,,579.0379510999992,580.2497164000015,581.0503597999996,581.0327515999961,581.0334384000016,581.0503597999996,581.0503597999996,581.0503597999996,,583.2814131999985,,,,,,,,,,,,,,,,,,,,,,,,,,,,,,right,0.0,2.2147449999974924,,,,,sub-217,1,random_dot,60.10572597060154,
right,right,49.0,1.0,24.0,right,1.0,0.7594834000046831,,accuracy,space,6.649208099996031,,,,,,0.0,1.0,1.0,0.0,24.0,1.0,49.0,1.0,583.2956651999993,,,,,,,,,583.2821846000006,583.3958100000018,584.2128213999968,584.1951771999957,584.1958530999982,584.2128213999968,584.2128213999968,584.2128213999968,,584.9791389999955,,,,,,,,,,,,,,,,,,,,,,,,,,,,,,right,1.0,0.7594834000046831,,,,,sub-217,1,random_dot,60.10572597060154,
left,left,50.0,0.0,25.0,left,1.0,4.201620699997875,,accuracy,space,6.649208099996031,,,,,,0.0,1.0,1.0,0.0,25.0,0.0,50.0,0.0,584.9934100999963,,,,,,,,,584.9799139999959,585.0929813999974,585.8938787000006,585.8763206000003,585.8770853999958,585.8938787000006,585.8938787000006,585.8938787000006,,590.1058673000007,,,,,,,,,,,,,,,,,,,,,,,,,,,,,,left,1.0,4.201620699997875,,,,,sub-217,1,random_dot,60.10572597060154,
right,right,51.0,1.0,25.0,left,0.0,1.4492804000037722,,accuracy,space,6.649208099996031,,,,,,0.0,1.0,1.0,0.0,25.0,1.0,51.0,1.0,590.1202013000002,,,,,,,,,590.1066900000005,590.9190727999958,591.7359856999974,591.7182313999947,591.7185679999966,591.7359856999974,591.7359856999974,591.7359856999974,,593.201753100002,,,,,,,,,,,,,,,,,,,,,,,,,,,,,,left,0.0,1.4492804000037722,,,,,sub-217,1,random_dot,60.10572597060154,
right,right,52.0,0.0,26.0,right,1.0,1.8557829999990645,,accuracy,space,6.649208099996031,,,,,,0.0,1.0,1.0,0.0,26.0,0.0,52.0,1.0,593.216030399999,,,,,,,,,593.2025704999978,593.5657969999957,594.3660888999948,594.3486839999969,594.349389899995,594.3660888999948,594.3660888999948,594.3660888999948,,596.2310883999962,,,,,,,,,,,,,,,,,,,,,,,,,,,,,,right,1.0,1.8557829999990645,,,,,sub-217,1,random_dot,60.10572597060154,
left,left,53.0,1.0,26.0,left,1.0,1.1228040999994846,,accuracy,space,6.649208099996031,,,,,,0.0,1.0,1.0,0.0,26.0,1.0,53.0,0.0,596.2453217000002,,,,,,,,,596.2319067999997,596.5951182999997,597.4120983999965,597.3945781000002,597.3953717999975,597.4120983999965,597.4120983999965,597.4120983999965,,598.544710299997,,,,,,,,,,,,,,,,,,,,,,,,,,,,,,left,1.0,1.1228040999994846,,,,,sub-217,1,random_dot,60.10572597060154,
left,left,54.0,0.0,27.0,left,1.0,1.342021600001317,,accuracy,space,6.649208099996031,,,,,,0.0,1.0,1.0,0.0,27.0,0.0,54.0,0.0,598.5591264999966,,,,,,,,,598.5455178999982,598.6590402000002,599.4756704999963,599.4581762000016,599.4589488999991,599.4756704999963,599.4756704999963,599.4756704999963,,600.8248273999998,,,,,,,,,,,,,,,,,,,,,,,,,,,,,,left,1.0,1.342021600001317,,,,,sub-217,1,random_dot,60.10572597060154,
right,right,55.0,1.0,27.0,left,0.0,1.8104381000011929,,accuracy,space,6.649208099996031,,,,,,0.0,1.0,1.0,0.0,27.0,1.0,55.0,1.0,600.8388795999999,,,,,,,,,600.8256102999949,602.0378836999953,602.8548803000012,602.8373653999952,602.838073699997,602.8548803000012,602.8548803000012,602.8548803000012,,604.6687802000015,,,,,,,,,,,,,,,,,,,,,,,,,,,,,,left,0.0,1.8104381000011929,,,,,sub-217,1,random_dot,60.10572597060154,
right,right,56.0,0.0,28.0,right,1.0,3.2784642999977223,,accuracy,space,6.649208099996031,,,,,,0.0,1.0,1.0,0.0,28.0,0.0,56.0,1.0,604.6838400999986,,,,,,,,,604.6690407999995,605.8828070999953,606.6997843999998,606.6823298999952,606.6830375999998,606.6997843999998,606.6997843999998,606.6997843999998,,609.9795005999986,,,,,,,,,,,,,,,,,,,,,,,,,,,,,,right,1.0,3.2784642999977223,,,,,sub-217,1,random_dot,60.10572597060154,
left,left,57.0,1.0,28.0,left,1.0,4.717610700005025,,accuracy,space,6.649208099996031,,,,,,0.0,1.0,1.0,0.0,28.0,1.0,57.0,0.0,609.9937361999982,,,,,,,,,609.9802942999959,610.0937475999963,610.8942410999953,610.8767248000004,610.877433900001,610.8942410999953,610.8942410999953,610.8942410999953,,615.622053799998,,,,,,,,,,,,,,,,,,,,,,,,,,,,,,left,1.0,4.717610700005025,,,,,sub-217,1,random_dot,60.10572597060154,
left,left,58.0,0.0,29.0,right,0.0,3.80419279999478,,accuracy,space,6.649208099996031,,,,,,0.0,1.0,1.0,0.0,29.0,0.0,58.0,0.0,615.6362427999993,,,,,,,,,615.6228768000001,616.435489800002,617.2520283999984,617.2337180999966,617.2339567000017,617.2520283999984,617.2520283999984,617.2520283999984,,621.0648703999977,,,,,,,,,,,,,,,,,,,,,,,,,,,,,,right,0.0,3.80419279999478,,,,,sub-217,1,random_dot,60.10572597060154,
right,right,59.0,1.0,29.0,right,1.0,6.102580700004182,,accuracy,space,6.649208099996031,,,,,,0.0,1.0,1.0,0.0,29.0,1.0,59.0,1.0,621.0790774999987,,,,,,,,,621.0657907999994,621.1790478999974,621.9795475999999,621.9620385000017,621.9628508999958,621.9795475999999,621.9795475999999,621.9795475999999,626.9728543000019,628.0886210999961,,,,,,,,,,,,,,,,,,,,,,,,,,,,,,right,1.0,6.102580700004182,,,,,sub-217,1,random_dot,60.10572597060154,
,,1.0,1.0,0.0,,,,,accuracy,space,6.649208099996031,,,,,,0.0,1.0,1.0,0.0,,,,,,,,,,,,,,,,,,,,,,,,,,,,,,,,,,,,,,,,,,,,,,,,,,,,,,,,,,,,sub-217,1,random_dot,60.10572597060154,
,,,,,,,,,,,,,,,,,,,,,,,,,,,,,,,,,,,,,,,,,,,,,,,,,,,,,,,,,,,,,,,,,,,,,,,,,,,,,628.1009826000009,628.1093095999968,633.0972177000003,sub-217,1,random_dot,60.10572597060154,
