direction,corrAns,thisN,thisTrialN,thisRepN,respDots.keys,respDots.corr,respDots.rt,respDots.duration,randomInstr,respRandomInstr.keys,respRandomInstr.rt,respRandomInstr.duration,practice_trials.thisRepN,practice_trials.thisTrialN,practice_trials.thisN,practice_trials.thisIndex,instr_trials.thisRepN,instr_trials.thisTrialN,instr_trials.thisN,instr_trials.thisIndex,test_trials.thisRepN,test_trials.thisTrialN,test_trials.thisN,test_trials.thisIndex,thisRow.t,notes,general_instruction.started,textGeneralInstr.started,respGeneralInstr.started,general_instruction.stopped,respGeneralInstr.keys,respGeneralInstr.rt,respGeneralInstr.duration,ITI.started,fixcross.started,fixcross.stopped,ITI.stopped,dots.started,backgroundDots.started,stimulusDots.started,respDots.started,stimulusDots.stopped,dots.stopped,practice_trials.respDots.keys,practice_trials.respDots.corr,practice_trials.respDots.rt,practice_trials.respDots.duration,feedback.started,textFeedback.started,feedback.stopped,textFeedback.stopped,info.started,textInfo.started,keyRespInfo.started,info.stopped,keyRespInfo.keys,keyRespInfo.rt,keyRespInfo.duration,test_instruction.started,textTestInstr.started,respTestInstr.started,test_instruction.stopped,respTestInstr.keys,respTestInstr.rt,respTestInstr.duration,random_instruction.started,textRandomInstr.started,respRandomInstr.started,random_instruction.stopped,instr_trials.respRandomInstr.keys,instr_trials.respRandomInstr.rt,instr_trials.respRandomInstr.duration,test_trials.respDots.keys,test_trials.respDots.corr,test_trials.respDots.rt,test_trials.respDots.duration,goodbye.started,textGoodbye.started,textGoodbye.stopped,goodbye.stopped,participant,session,expName,frameRate,Unnamed: 88
,,,,,,,,,,,,,,,,,,,,,,,,,,,0.0026552000781521,0.0083964000223204,0.0083964000223204,38.66683550004382,space,38.64975979994051,,,,,,,,,,,,,,,,,,,,,,,,,,,,,,,,,,,,,,,,,,,,,,,,,sub-111,1,random_dot,60.09936828254399,
right,right,0.0,0.0,0.0,left,0.0,8.798077400075272,,,,,,0.0,0.0,0.0,1.0,,,,,,,,,38.74254750006367,,,,,,,,,38.73909400007688,38.77561320003588,39.594966200063936,39.55960210005287,39.560081600095145,39.594966200063936,39.594966200063936,39.594966200063936,44.56004530005157,48.39369630010333,left,0.0,8.798077400075272,,48.41482950001955,48.4199250000529,48.89518900006078,,,,,,,,,,,,,,,,,,,,,,,,,,,,,,,sub-111,1,random_dot,60.09936828254399,
left,left,1.0,1.0,0.0,right,0.0,2.3629977999953558,,,,,,0.0,1.0,1.0,0.0,,,,,,,,,48.908921700087376,,,,,,,,,48.89568930002861,49.25914760003798,50.060188400093466,50.04327430005651,50.04371840006206,50.060188400093466,50.060188400093466,50.060188400093466,,52.42722730000969,right,0.0,2.3629977999953558,,52.427366900024936,52.4424880000297,52.92641300009564,52.94250970007852,,,,,,,,,,,,,,,,,,,,,,,,,,,,,,sub-111,1,random_dot,60.09936828254399,
right,right,2.0,0.0,1.0,left,0.0,0.8011441000271589,,,,,,1.0,0.0,2.0,1.0,,,,,,,,,52.94250970007852,,,,,,,,,52.926821000059135,53.74263110000175,54.54351890005637,54.52622870006599,54.5266853000503,54.54351890005637,54.54351890005637,54.54351890005637,,55.3608280000044,left,0.0,0.8011441000271589,,55.36095760005992,55.37587460002396,55.85987390007358,55.87591800000519,,,,,,,,,,,,,,,,,,,,,,,,,,,,,,sub-111,1,random_dot,60.09936828254399,
left,left,3.0,1.0,1.0,right,0.0,1.8494916000636292,,,,,,1.0,1.0,3.0,0.0,,,,,,,,,55.87591800000519,,,,,,,,,55.86068570008501,56.675969000090845,57.47690600005444,57.45994230010547,57.460394200054,57.47690600005444,57.47690600005444,57.47690600005444,,59.3273209000472,right,0.0,1.8494916000636292,,59.32751010009088,59.3428269000724,59.82643240003381,59.842603700002655,,,,,,,,,,,,,,,,,,,,,,,,,,,,,,sub-111,1,random_dot,60.09936828254399,
right,right,4.0,0.0,2.0,left,0.0,2.87354239996057,,,,,,2.0,0.0,4.0,1.0,,,,,,,,,59.842603700002655,,,,,,,,,59.82692740007769,61.04262560000643,61.84361199999694,61.82671460008714,61.8271913001081,61.84361199999694,61.84361199999694,61.84361199999694,,64.72677690000273,left,0.0,2.87354239996057,,64.72686620010063,64.74268080003094,65.22646020003594,65.24265600007493,,,,,,,,,,,,,,,,,,,,,,,,,,,,,,sub-111,1,random_dot,60.09936828254399,
left,left,5.0,1.0,2.0,left,1.0,3.264594300067984,,,,,,2.0,1.0,5.0,0.0,,,,,,,,,65.24265600007493,,,,,,,,,65.22684010001831,66.42633000004571,67.22686020005494,67.2099065000657,67.2103678000858,67.22686020005494,67.22686020005494,67.22686020005494,,70.49423420010135,left,1.0,3.264594300067984,,70.50520510005299,70.50910210004076,70.99334800010547,71.00945040001534,,,,,,,,,,,,,,,,,,,,,,,,,,,,,,sub-111,1,random_dot,60.09936828254399,
right,right,6.0,0.0,3.0,right,1.0,3.969002499943599,,,,,,3.0,0.0,6.0,1.0,,,,,,,,,71.00945040001534,,,,,,,,,70.99374490010086,72.20964930008631,73.01041170000099,72.9935034000082,72.9940576000372,73.01041170000099,73.01041170000099,73.01041170000099,,76.99418820010033,right,1.0,3.969002499943599,,76.99433230003342,77.00939720007591,77.4934752000263,77.5095685000997,,,,,,,,,,,,,,,,,,,,,,,,,,,,,,sub-111,1,random_dot,60.09936828254399,
left,left,7.0,1.0,3.0,left,1.0,3.393871699925512,,,,,,3.0,1.0,7.0,0.0,,,,,,,,,77.5095685000997,,,,,,,,,77.49399149999954,78.70971670001745,79.51018179999664,79.49357770010829,79.49402950005606,79.51018179999664,79.51018179999664,79.51018179999664,,82.91105290001724,left,1.0,3.393871699925512,,82.91118450008798,82.92607410007622,83.41017250006553,83.42625900008716,,,,,,,,,,,,,,,,,,,,,,,,,,,,,,sub-111,1,random_dot,60.09936828254399,
left,left,8.0,0.0,4.0,left,1.0,3.867820499930531,,,,,,4.0,0.0,8.0,0.0,,,,,,,,,83.42625900008716,,,,,,,,,83.41056700004265,84.22634030005429,85.02725680009462,85.0104290000163,85.01090670004487,85.02725680009462,85.02725680009462,85.02725680009462,,88.91085159999784,left,1.0,3.867820499930531,,88.91098020004574,88.92637860006653,89.41014420008287,89.42633490008302,,,,,,,,,,,,,,,,,,,,,,,,,,,,,,sub-111,1,random_dot,60.09936828254399,
right,right,9.0,1.0,4.0,right,1.0,2.1142888999311253,,,,,,4.0,1.0,9.0,1.0,,,,,,,,,89.42633490008302,,,,,,,,,89.41055480006617,90.62653390003834,91.42739070008976,91.4103635000065,91.41092070005834,91.42739070008976,91.42739070008976,91.42739070008976,,93.544255200075,right,1.0,2.1142888999311253,,93.54438180010766,93.55963690008502,94.04364490008447,94.0597725000698,,,,,,,,,,,,,,,,,,,,,,,,,,,,,,sub-111,1,random_dot,60.09936828254399,
left,left,10.0,0.0,5.0,left,1.0,5.789212199975736,,,,,,5.0,0.0,10.0,0.0,,,,,,,,,94.0597725000698,,,,,,,,,94.04401630000211,95.25989350001328,96.06084580009338,96.04391380003652,96.0443747000536,96.06084580009338,96.06084580009338,96.06084580009338,101.04424010007642,101.86090110009536,left,1.0,5.789212199975736,,101.86101420002524,101.8765019000275,102.36002930009272,102.37627440004144,,,,,,,,,,,,,,,,,,,,,,,,,,,,,,sub-111,1,random_dot,60.09936828254399,
right,right,11.0,1.0,5.0,right,1.0,2.3428132999688387,,,,,,5.0,1.0,11.0,1.0,,,,,,,,,102.37627440004144,,,,,,,,,102.360379400081,103.17642380006146,103.97761650010943,103.96070190006868,103.9611825000029,103.97761650010943,103.97761650010943,103.97761650010943,,106.32805370003916,right,1.0,2.3428132999688387,,106.3281830000924,106.34296280005948,106.8271093000658,106.84324880002532,,,,,,,,,,,,,,,,,,,,,,,,,,,,,,sub-111,1,random_dot,60.09936828254399,
left,left,12.0,0.0,6.0,left,1.0,1.9199339000042528,,,,,,6.0,0.0,12.0,0.0,,,,,,,,,106.84324880002532,,,,,,,,,106.82747710007244,107.19305270002224,107.99365100008436,107.97700740001164,107.97745450004004,107.99365100008436,107.99365100008436,107.99365100008436,,109.92758490005508,left,1.0,1.9199339000042528,,109.9278067999985,109.94288700004108,110.42677730007564,110.44265630003063,,,,,,,,,,,,,,,,,,,,,,,,,,,,,,sub-111,1,random_dot,60.09936828254399,
right,right,13.0,1.0,6.0,right,1.0,2.222288199933246,,,,,,6.0,1.0,13.0,1.0,,,,,,,,,110.44265630003063,,,,,,,,,110.42716670001391,110.7928249000106,111.59355190000495,111.57690450001974,111.57737940002698,111.59355190000495,111.59355190000495,111.59355190000495,,113.82789610000329,right,1.0,2.222288199933246,,113.82803120010068,113.84324430010749,114.32707730005497,114.34297250001693,,,,,,,,,,,,,,,,,,,,,,,,,,,,,,sub-111,1,random_dot,60.09936828254399,
left,left,14.0,0.0,7.0,right,0.0,2.320035699987784,,,,,,7.0,0.0,14.0,0.0,,,,,,,,,114.34297250001693,,,,,,,,,114.3274443000555,114.44323200010696,115.24434130010196,115.22704820008948,115.22754069999792,115.24434130010196,115.24434130010196,115.24434130010196,,117.57856770011132,right,0.0,2.320035699987784,,117.58257420000156,117.59345790010411,118.07741640007588,118.09344800002872,,,,,,,,,,,,,,,,,,,,,,,,,,,,,,sub-111,1,random_dot,60.09936828254399,
right,right,15.0,1.0,7.0,right,1.0,3.258667799993418,,,,,,7.0,1.0,15.0,1.0,,,,,,,,,118.09344800002872,,,,,,,,,118.07778990000952,118.19343800004572,118.99437190010212,118.97745570004918,118.97789249999914,118.99437190010212,118.99437190010212,118.99437190010212,,122.26158829999622,right,1.0,3.258667799993418,,122.26647610007784,122.27654840005562,122.76075360004324,122.7766711000586,,,,,,,,,,,,,,,,,,,,,,,,,,,,,,sub-111,1,random_dot,60.09936828254399,
right,right,16.0,0.0,8.0,left,0.0,1.6157445000717416,,,,,,8.0,0.0,16.0,1.0,,,,,,,,,122.7766711000586,,,,,,,,,122.7613387000747,123.97676010010764,124.77769000001716,124.7605017001042,124.76097280008253,124.77769000001716,124.77769000001716,124.77769000001716,,126.39522810000926,left,0.0,1.6157445000717416,,126.39930879999883,126.4101749000838,126.89410860009956,126.91019290010443,,,,,,,,,,,,,,,,,,,,,,,,,,,,,,sub-111,1,random_dot,60.09936828254399,
left,left,17.0,1.0,8.0,right,0.0,3.730226799962111,,,,,,8.0,1.0,17.0,0.0,,,,,,,,,126.91019290010443,,,,,,,,,126.8944997000508,127.0102603000123,127.81107690010684,127.79421130008996,127.79466890008187,127.81107690010684,127.81107690010684,127.81107690010684,,131.54473180009518,right,0.0,3.730226799962111,,131.54486220004037,131.56034680001903,132.04428770008963,132.06023000006098,,,,,,,,,,,,,,,,,,,,,,,,,,,,,,sub-111,1,random_dot,60.09936828254399,
left,left,18.0,0.0,9.0,right,0.0,4.562560899998061,,,,,,9.0,0.0,18.0,0.0,,,,,,,,,132.06023000006098,,,,,,,,,132.0447105000494,132.16035570006352,132.96126680006273,132.94433270010632,132.94476240000222,132.96126680006273,132.96126680006273,132.96126680006273,,137.52891790005378,right,0.0,4.562560899998061,,137.52906570001505,137.5439364000922,138.02768900000956,138.04380800004583,,,,,,,,,,,,,,,,,,,,,,,,,,,,,,sub-111,1,random_dot,60.09936828254399,
right,right,19.0,1.0,9.0,left,0.0,5.053589499904774,,,,,,9.0,1.0,19.0,1.0,,,,,,,,,138.04380800004583,,,,,,,,,138.02812860009726,139.24412010004744,140.0445651001064,140.02781340002548,140.02827300003264,140.0445651001064,140.0445651001064,140.0445651001064,145.02759020007215,145.11158910009544,left,0.0,5.053589499904774,,145.1117240000749,145.12715760001447,145.61121310002636,145.6272191000171,,,,,,,,,,,,,,,,,,,,,,,,,,,,,,sub-111,1,random_dot,60.09936828254399,
,,,,,,,,,,,,,,,,,,,,,,,,,,,,,,,,,,,,,,,,,,,,,,,,,,,,145.6114262000192,145.6272191000171,145.6272191000171,158.39517950010486,space,12.75434760004282,,,,,,,,,,,,,,,,,,,,,,,,sub-111,1,random_dot,60.09936828254399,
,,,,,,,,,,,,,,,,,,,,,,,,,,,,,,,,,,,,,,,,,,,,,,,,,,,,,,,,,,,158.39527120010462,158.4106882000342,158.4106882000342,170.04491740011144,space,11.629722399986347,,,,,,,,,,,,,,,,,sub-111,1,random_dot,60.09936828254399,
right,right,0.0,0.0,0.0,left,0.0,5.601256199995987,,accuracy,space,9.594675899948925,,,,,,0.0,0.0,0.0,0.0,0.0,0.0,0.0,1.0,179.72770990000572,,,,,,,,,179.72163810010534,180.92939970002044,181.7453782000812,181.7284139000112,181.728908100049,181.7453782000812,181.7453782000812,181.7453782000812,186.7287178999977,187.36241030006204,,,,,,,,,,,,,,,,,,,,,,,170.107459400082,170.11261960002594,170.11261960002594,179.71191360009834,space,9.594675899948925,,left,0.0,5.601256199995987,,,,,,sub-111,1,random_dot,60.09936828254399,
left,left,1.0,1.0,0.0,right,0.0,3.2774632999207824,,accuracy,space,9.594675899948925,,,,,,0.0,0.0,0.0,0.0,0.0,1.0,1.0,0.0,187.3776898001088,,,,,,,,,187.3629080000101,188.57781000004616,189.3787497000303,189.3618852000218,189.3623584000161,189.3787497000303,189.3787497000303,189.3787497000303,,192.6630845000036,,,,,,,,,,,,,,,,,,,,,,,,,,,,,,right,0.0,3.2774632999207824,,,,,,sub-111,1,random_dot,60.09936828254399,
left,left,2.0,0.0,1.0,left,1.0,4.329168200027198,,accuracy,space,9.594675899948925,,,,,,0.0,0.0,0.0,0.0,1.0,0.0,2.0,0.0,192.67767730006017,,,,,,,,,192.66363080008887,193.47785050002855,194.27882930007763,194.2620957000181,194.26260950008876,194.27882930007763,194.27882930007763,194.27882930007763,,198.6126753001008,,,,,,,,,,,,,,,,,,,,,,,,,,,,,,left,1.0,4.329168200027198,,,,,,sub-111,1,random_dot,60.09936828254399,
right,right,3.0,1.0,1.0,right,1.0,5.310612100060098,,accuracy,space,9.594675899948925,,,,,,0.0,0.0,0.0,0.0,1.0,1.0,3.0,1.0,198.6279443000676,,,,,,,,,198.61315170000307,198.97793819999788,199.7787414001068,199.7617152000312,199.76214190002065,199.7787414001068,199.7787414001068,199.7787414001068,204.7622088000644,205.09619200008456,,,,,,,,,,,,,,,,,,,,,,,,,,,,,,right,1.0,5.310612100060098,,,,,,sub-111,1,random_dot,60.09936828254399,
left,left,4.0,0.0,2.0,left,1.0,2.6625674000242725,,accuracy,space,9.594675899948925,,,,,,0.0,0.0,0.0,0.0,2.0,0.0,4.0,0.0,205.1113522000378,,,,,,,,,205.0967228000518,205.91136990010276,206.71230710006785,206.69536930008329,206.69583760004025,206.71230710006785,206.71230710006785,206.71230710006785,,209.379494599998,,,,,,,,,,,,,,,,,,,,,,,,,,,,,,left,1.0,2.6625674000242725,,,,,,sub-111,1,random_dot,60.09936828254399,
right,right,5.0,1.0,2.0,right,1.0,3.877133999951184,,accuracy,space,9.594675899948925,,,,,,0.0,0.0,0.0,0.0,2.0,1.0,5.0,1.0,209.39467970002443,,,,,,,,,209.3800045000389,209.4948328000028,210.2955290999962,210.27865540003404,210.2791194000747,210.2955290999962,210.2955290999962,210.2955290999962,,214.1796406001085,,,,,,,,,,,,,,,,,,,,,,,,,,,,,,right,1.0,3.877133999951184,,,,,,sub-111,1,random_dot,60.09936828254399,
left,left,6.0,0.0,3.0,right,0.0,3.499843299970962,,accuracy,space,9.594675899948925,,,,,,0.0,0.0,0.0,0.0,3.0,0.0,6.0,0.0,214.1947754001012,,,,,,,,,214.18011730001308,215.3947829999961,216.19571060000453,216.1790855000727,216.17994480009656,216.19571060000453,216.19571060000453,216.19571060000453,,219.69635560002644,,,,,,,,,,,,,,,,,,,,,,,,,,,,,,right,0.0,3.499843299970962,,,,,,sub-111,1,random_dot,60.09936828254399,
right,right,7.0,1.0,3.0,left,0.0,2.85999309993349,,accuracy,space,9.594675899948925,,,,,,0.0,0.0,0.0,0.0,3.0,1.0,7.0,1.0,219.7115623001009,,,,,,,,,219.69693150010423,220.0615238000173,220.86241990001872,220.8455130000366,220.8459844000172,220.86241990001872,220.86241990001872,220.86241990001872,,223.72966220008675,,,,,,,,,,,,,,,,,,,,,,,,,,,,,,left,0.0,2.85999309993349,,,,,,sub-111,1,random_dot,60.09936828254399,
right,right,8.0,0.0,4.0,right,1.0,4.519915100070648,,accuracy,space,9.594675899948925,,,,,,0.0,0.0,0.0,0.0,4.0,0.0,8.0,1.0,223.74487240007147,,,,,,,,,223.73057990008965,224.945050700102,225.74598620005415,225.7290297000436,225.72948290000204,225.74598620005415,225.74598620005415,225.74598620005415,,230.2799472000916,,,,,,,,,,,,,,,,,,,,,,,,,,,,,,right,1.0,4.519915100070648,,,,,,sub-111,1,random_dot,60.09936828254399,
left,left,9.0,1.0,4.0,left,1.0,2.0828374000266194,,accuracy,space,9.594675899948925,,,,,,0.0,0.0,0.0,0.0,4.0,1.0,9.0,0.0,230.29512530006468,,,,,,,,,230.28056169999763,231.0951285000192,231.89599760004785,231.8788810000988,231.8793461000314,231.89599760004785,231.89599760004785,231.89599760004785,,233.97960489999969,,,,,,,,,,,,,,,,,,,,,,,,,,,,,,left,1.0,2.0828374000266194,,,,,,sub-111,1,random_dot,60.09936828254399,
right,right,10.0,0.0,5.0,right,1.0,2.1250799999106675,,accuracy,space,9.594675899948925,,,,,,0.0,0.0,0.0,0.0,5.0,0.0,10.0,1.0,233.99518270010597,,,,,,,,,233.98015560000204,234.09532660001423,234.89589100005105,234.87887970008887,234.879303200054,234.89589100005105,234.89589100005105,234.89589100005105,,237.03001139999836,,,,,,,,,,,,,,,,,,,,,,,,,,,,,,right,1.0,2.1250799999106675,,,,,,sub-111,1,random_dot,60.09936828254399,
left,left,11.0,1.0,5.0,left,1.0,3.3686146000400186,,accuracy,space,9.594675899948925,,,,,,0.0,0.0,0.0,0.0,5.0,1.0,11.0,0.0,237.0451621999964,,,,,,,,,237.03052910009865,237.145196700003,237.9458882000763,237.9287510000868,237.9292432001093,237.9458882000763,237.9458882000763,237.9458882000763,,241.3301576001104,,,,,,,,,,,,,,,,,,,,,,,,,,,,,,left,1.0,3.3686146000400186,,,,,,sub-111,1,random_dot,60.09936828254399,
right,right,12.0,0.0,6.0,right,1.0,1.5118422999512404,,accuracy,space,9.594675899948925,,,,,,0.0,0.0,0.0,0.0,6.0,0.0,12.0,1.0,241.3452801000094,,,,,,,,,241.3306521000341,241.44515949999916,242.24605850002263,242.22908000007735,242.2295317000244,242.24605850002263,242.24605850002263,242.24605850002263,,243.76335610006936,,,,,,,,,,,,,,,,,,,,,,,,,,,,,,right,1.0,1.5118422999512404,,,,,,sub-111,1,random_dot,60.09936828254399,
left,left,13.0,1.0,6.0,left,1.0,3.4110456000780687,,accuracy,space,9.594675899948925,,,,,,0.0,0.0,0.0,0.0,6.0,1.0,13.0,0.0,243.7785404000897,,,,,,,,,243.7639247000916,244.9791671000421,245.77951740007848,245.7626559000928,245.76311680010983,245.77951740007848,245.77951740007848,245.77951740007848,,249.1974151000613,,,,,,,,,,,,,,,,,,,,,,,,,,,,,,left,1.0,3.4110456000780687,,,,,,sub-111,1,random_dot,60.09936828254399,
right,right,14.0,0.0,7.0,right,1.0,2.8755454999627545,,accuracy,space,9.594675899948925,,,,,,0.0,0.0,0.0,0.0,7.0,0.0,14.0,1.0,249.21194410009772,,,,,,,,,249.1979968000669,250.0120512000285,250.8126005000668,250.7956591000548,250.7961627000477,250.8126005000668,250.8126005000668,250.8126005000668,,253.6967880000593,,,,,,,,,,,,,,,,,,,,,,,,,,,,,,right,1.0,2.8755454999627545,,,,,,sub-111,1,random_dot,60.09936828254399,
left,left,15.0,1.0,7.0,left,1.0,2.450606200029142,,accuracy,space,9.594675899948925,,,,,,0.0,0.0,0.0,0.0,7.0,1.0,15.0,0.0,253.71204810007475,,,,,,,,,253.69728010008112,254.91213520010933,255.7129776000511,255.69613260007463,255.6966008000309,255.7129776000511,255.7129776000511,255.7129776000511,,258.1640477000037,,,,,,,,,,,,,,,,,,,,,,,,,,,,,,left,1.0,2.450606200029142,,,,,,sub-111,1,random_dot,60.09936828254399,
right,right,16.0,0.0,8.0,left,0.0,2.711913499981165,,accuracy,space,9.594675899948925,,,,,,0.0,0.0,0.0,0.0,8.0,0.0,16.0,1.0,258.1787947000703,,,,,,,,,258.1645378000103,259.3788062001113,260.1797338000033,260.1628522000974,260.163302400033,260.1797338000033,260.1797338000033,260.1797338000033,,262.8967232001014,,,,,,,,,,,,,,,,,,,,,,,,,,,,,,left,0.0,2.711913499981165,,,,,,sub-111,1,random_dot,60.09936828254399,
left,left,17.0,1.0,8.0,right,0.0,3.494884099927731,,accuracy,space,9.594675899948925,,,,,,0.0,0.0,0.0,0.0,8.0,1.0,17.0,0.0,262.9120903000003,,,,,,,,,262.8971997000044,263.0123025000794,263.81300490000285,263.7960438000737,263.7965032000793,263.81300490000285,263.81300490000285,263.81300490000285,,267.313671000069,,,,,,,,,,,,,,,,,,,,,,,,,,,,,,right,0.0,3.494884099927731,,,,,,sub-111,1,random_dot,60.09936828254399,
right,right,18.0,0.0,9.0,left,0.0,3.741799599956721,,accuracy,space,9.594675899948925,,,,,,0.0,0.0,0.0,0.0,9.0,0.0,18.0,1.0,267.3288081000792,,,,,,,,,267.3141352001112,267.67881340009626,268.47976070002187,268.4625423999969,268.46298930002376,268.47976070002187,268.47976070002187,268.47976070002187,,272.23062930000015,,,,,,,,,,,,,,,,,,,,,,,,,,,,,,left,0.0,3.741799599956721,,,,,,sub-111,1,random_dot,60.09936828254399,
left,left,19.0,1.0,9.0,left,1.0,5.001450499985367,,accuracy,space,9.594675899948925,,,,,,0.0,0.0,0.0,0.0,9.0,1.0,19.0,0.0,272.245407700073,,,,,,,,,272.23117260006256,272.3456196000334,273.1466070000315,273.1298842000542,273.1303769000806,273.1466070000315,273.1466070000315,273.1466070000315,278.12993769999593,278.1636988000246,,,,,,,,,,,,,,,,,,,,,,,,,,,,,,left,1.0,5.001450499985367,,,,,,sub-111,1,random_dot,60.09936828254399,
left,left,20.0,0.0,10.0,right,0.0,4.278297600103542,,accuracy,space,9.594675899948925,,,,,,0.0,0.0,0.0,0.0,10.0,0.0,20.0,0.0,278.1790513000451,,,,,,,,,278.1644415000919,278.5291548999958,279.3299024000298,279.3131311000325,279.3135975000914,279.3299024000298,279.3299024000298,279.3299024000298,,283.6139397000661,,,,,,,,,,,,,,,,,,,,,,,,,,,,,,right,0.0,4.278297600103542,,,,,,sub-111,1,random_dot,60.09936828254399,
right,right,21.0,1.0,10.0,right,1.0,2.4797481999266893,,accuracy,space,9.594675899948925,,,,,,0.0,0.0,0.0,0.0,10.0,1.0,21.0,1.0,283.629307400086,,,,,,,,,283.6144482000964,283.9791158000007,284.7796027000295,284.762605200056,284.76306090003345,284.7796027000295,284.7796027000295,284.7796027000295,,287.2639378000749,,,,,,,,,,,,,,,,,,,,,,,,,,,,,,right,1.0,2.4797481999266893,,,,,,sub-111,1,random_dot,60.09936828254399,
left,left,22.0,0.0,11.0,left,1.0,3.454836899996735,,accuracy,space,9.594675899948925,,,,,,0.0,0.0,0.0,0.0,11.0,0.0,22.0,0.0,287.27900050010066,,,,,,,,,287.26505700009875,288.0792217000853,288.87997680006083,288.86316160007846,288.86363640008494,288.87997680006083,288.87997680006083,288.87997680006083,,292.3481340000872,,,,,,,,,,,,,,,,,,,,,,,,,,,,,,left,1.0,3.454836899996735,,,,,,sub-111,1,random_dot,60.09936828254399,
right,right,23.0,1.0,11.0,left,0.0,3.991333300014958,,accuracy,space,9.594675899948925,,,,,,0.0,0.0,0.0,0.0,11.0,1.0,23.0,1.0,292.3626052000327,,,,,,,,,292.3486086000921,293.5626250000205,294.3635637999978,294.34676560002845,294.34722660004627,294.3635637999978,294.3635637999978,294.3635637999978,,298.3641764000058,,,,,,,,,,,,,,,,,,,,,,,,,,,,,,left,0.0,3.991333300014958,,,,,,sub-111,1,random_dot,60.09936828254399,
left,left,24.0,0.0,12.0,left,1.0,4.122148800059222,,accuracy,space,9.594675899948925,,,,,,0.0,0.0,0.0,0.0,12.0,0.0,24.0,0.0,298.3792966000037,,,,,,,,,298.36469170008786,298.4795675000641,299.28006280004047,299.2632070000982,299.2636392000132,299.28006280004047,299.28006280004047,299.28006280004047,,303.41516250011045,,,,,,,,,,,,,,,,,,,,,,,,,,,,,,left,1.0,4.122148800059222,,,,,,sub-111,1,random_dot,60.09936828254399,
right,right,25.0,1.0,12.0,right,1.0,3.644620400038548,,accuracy,space,9.594675899948925,,,,,,0.0,0.0,0.0,0.0,12.0,1.0,25.0,1.0,303.4295447000768,,,,,,,,,303.41571180010214,304.2294041001005,305.03023150004447,305.0134106000187,305.0138924000785,305.03023150004447,305.03023150004447,305.03023150004447,,308.6810391000472,,,,,,,,,,,,,,,,,,,,,,,,,,,,,,right,1.0,3.644620400038548,,,,,,sub-111,1,random_dot,60.09936828254399,
right,right,26.0,0.0,13.0,right,1.0,3.650976900011301,,accuracy,space,9.594675899948925,,,,,,0.0,0.0,0.0,0.0,13.0,0.0,26.0,1.0,308.69626890006475,,,,,,,,,308.68152610003017,309.896692700102,310.6968533000909,310.6801053000381,310.68058050004765,310.6968533000909,310.6968533000909,310.6968533000909,,314.34831490006763,,,,,,,,,,,,,,,,,,,,,,,,,,,,,,right,1.0,3.650976900011301,,,,,,sub-111,1,random_dot,60.09936828254399,
left,left,27.0,1.0,13.0,left,1.0,3.782229500007816,,accuracy,space,9.594675899948925,,,,,,0.0,0.0,0.0,0.0,13.0,1.0,27.0,0.0,314.36286920006387,,,,,,,,,314.3488420000067,314.4629367000889,315.2637800000375,315.2469156000297,315.2473574000178,315.2637800000375,315.2637800000375,315.2637800000375,,319.04760960000567,,,,,,,,,,,,,,,,,,,,,,,,,,,,,,left,1.0,3.782229500007816,,,,,,sub-111,1,random_dot,60.09936828254399,
left,left,28.0,0.0,14.0,left,1.0,1.8007454000180587,,accuracy,space,9.594675899948925,,,,,,0.0,0.0,0.0,0.0,14.0,0.0,28.0,0.0,319.0627877000952,,,,,,,,,319.0481071000686,319.1629425000865,319.9637737000594,319.94709530007094,319.94757370010484,319.9637737000594,319.9637737000594,319.9637737000594,,321.7810728000477,,,,,,,,,,,,,,,,,,,,,,,,,,,,,,left,1.0,1.8007454000180587,,,,,,sub-111,1,random_dot,60.09936828254399,
right,right,29.0,1.0,14.0,right,1.0,4.323729800060391,,accuracy,space,9.594675899948925,,,,,,0.0,0.0,0.0,0.0,14.0,1.0,29.0,1.0,321.7963537001051,,,,,,,,,321.7815535000991,322.9962839001091,323.7972023000475,323.78036299999803,323.7808311000699,323.7972023000475,323.7972023000475,323.7972023000475,,328.1314255000325,,,,,,,,,,,,,,,,,,,,,,,,,,,,,,right,1.0,4.323729800060391,,,,,,sub-111,1,random_dot,60.09936828254399,
left,left,30.0,0.0,15.0,left,1.0,2.2400352000258863,,accuracy,space,9.594675899948925,,,,,,0.0,0.0,0.0,0.0,15.0,0.0,30.0,0.0,328.14643459999934,,,,,,,,,328.1319445000263,328.94648520008195,329.7474120000843,329.7305583000416,329.7310553001007,329.7474120000843,329.7474120000843,329.7474120000843,,331.9977784000803,,,,,,,,,,,,,,,,,,,,,,,,,,,,,,left,1.0,2.2400352000258863,,,,,,sub-111,1,random_dot,60.09936828254399,
right,right,31.0,1.0,15.0,right,1.0,2.4288679000455886,,accuracy,space,9.594675899948925,,,,,,0.0,0.0,0.0,0.0,15.0,1.0,31.0,1.0,332.01321770006325,,,,,,,,,331.9982943000505,332.1131379000144,332.91398430010304,332.8970433000941,332.8975023000967,332.91398430010304,332.91398430010304,332.91398430010304,,335.34796770010144,,,,,,,,,,,,,,,,,,,,,,,,,,,,,,right,1.0,2.4288679000455886,,,,,,sub-111,1,random_dot,60.09936828254399,
left,left,32.0,0.0,16.0,left,1.0,5.579840600024909,,accuracy,space,9.594675899948925,,,,,,0.0,0.0,0.0,0.0,16.0,0.0,32.0,0.0,335.36315310001373,,,,,,,,,335.3484612000175,336.16313540004194,336.9638632000424,336.9474762000609,336.948162100045,336.9638632000424,336.9638632000424,336.9638632000424,341.947497800109,342.5479094000766,,,,,,,,,,,,,,,,,,,,,,,,,,,,,,left,1.0,5.579840600024909,,,,,,sub-111,1,random_dot,60.09936828254399,
right,right,33.0,1.0,16.0,right,1.0,3.421878599910997,,accuracy,space,9.594675899948925,,,,,,0.0,0.0,0.0,0.0,16.0,1.0,33.0,1.0,342.56332160008606,,,,,,,,,342.5486365000252,343.3630838000681,344.16426500002854,344.14739630010445,344.1478709001094,344.16426500002854,344.16426500002854,344.16426500002854,,347.5981701000128,,,,,,,,,,,,,,,,,,,,,,,,,,,,,,right,1.0,3.421878599910997,,,,,,sub-111,1,random_dot,60.09936828254399,
left,left,34.0,0.0,17.0,left,1.0,2.226879200083204,,accuracy,space,9.594675899948925,,,,,,0.0,0.0,0.0,0.0,17.0,0.0,34.0,0.0,347.61339060007595,,,,,,,,,347.5986524000764,347.7133215001086,348.5139751000097,348.4973543001106,348.4977973001078,348.5139751000097,348.5139751000097,348.5139751000097,,350.7482671000762,,,,,,,,,,,,,,,,,,,,,,,,,,,,,,left,1.0,2.226879200083204,,,,,,sub-111,1,random_dot,60.09936828254399,
right,right,35.0,1.0,17.0,left,0.0,3.3857348000165075,,accuracy,space,9.594675899948925,,,,,,0.0,0.0,0.0,0.0,17.0,1.0,35.0,1.0,350.7633497000206,,,,,,,,,350.74881780007854,351.9634627000196,352.7644163001096,352.7474016000051,352.74785640009213,352.7644163001096,352.7644163001096,352.7644163001096,,356.16479360009544,,,,,,,,,,,,,,,,,,,,,,,,,,,,,,left,0.0,3.3857348000165075,,,,,,sub-111,1,random_dot,60.09936828254399,
right,right,36.0,0.0,18.0,right,1.0,4.125406399951316,,accuracy,space,9.594675899948925,,,,,,0.0,0.0,0.0,0.0,18.0,0.0,36.0,1.0,356.1800823000958,,,,,,,,,356.16526050004177,356.28016220009886,357.08092740003485,357.063962400076,357.0643884000601,357.08092740003485,357.08092740003485,357.08092740003485,,361.21501610009,,,,,,,,,,,,,,,,,,,,,,,,,,,,,,right,1.0,4.125406399951316,,,,,,sub-111,1,random_dot,60.09936828254399,
left,left,37.0,1.0,18.0,right,0.0,2.141812500078231,,accuracy,space,9.594675899948925,,,,,,0.0,0.0,0.0,0.0,18.0,1.0,37.0,0.0,361.23023940005805,,,,,,,,,361.2161296000704,361.3303679000819,362.13100390008185,362.114090600051,362.1145092000952,362.13100390008185,362.13100390008185,362.13100390008185,,364.2821560000302,,,,,,,,,,,,,,,,,,,,,,,,,,,,,,right,0.0,2.141812500078231,,,,,,sub-111,1,random_dot,60.09936828254399,
left,left,38.0,0.0,19.0,left,1.0,2.647590099950321,,accuracy,space,9.594675899948925,,,,,,0.0,0.0,0.0,0.0,19.0,0.0,38.0,0.0,364.2968257000903,,,,,,,,,364.2826740000164,364.3969079999952,365.1977925000247,365.180803700001,365.1813555000117,365.1977925000247,365.1977925000247,365.1977925000247,,367.8481439000461,,,,,,,,,,,,,,,,,,,,,,,,,,,,,,left,1.0,2.647590099950321,,,,,,sub-111,1,random_dot,60.09936828254399,
right,right,39.0,1.0,19.0,left,0.0,3.0557874999940395,,accuracy,space,9.594675899948925,,,,,,0.0,0.0,0.0,0.0,19.0,1.0,39.0,1.0,367.8635885000695,,,,,,,,,367.8487080000341,368.2134803000372,369.01475760003086,368.9975651000859,368.9982698000968,369.01475760003086,369.01475760003086,369.01475760003086,,372.08189710008446,,,,,,,,,,,,,,,,,,,,,,,,,,,,,,left,0.0,3.0557874999940395,,,,,,sub-111,1,random_dot,60.09936828254399,
right,right,40.0,0.0,20.0,right,1.0,2.15110120002646,,accuracy,space,9.594675899948925,,,,,,0.0,0.0,0.0,0.0,20.0,0.0,40.0,1.0,372.09705300000496,,,,,,,,,372.08240040007513,372.44694990001153,373.247807100066,373.230893000029,373.231338600046,373.247807100066,373.247807100066,373.247807100066,,375.4150834000902,,,,,,,,,,,,,,,,,,,,,,,,,,,,,,right,1.0,2.15110120002646,,,,,,sub-111,1,random_dot,60.09936828254399,
left,left,41.0,1.0,20.0,right,0.0,2.1171037000603974,,accuracy,space,9.594675899948925,,,,,,0.0,0.0,0.0,0.0,20.0,1.0,41.0,0.0,375.4303714000853,,,,,,,,,375.4155475000152,375.5306340000825,376.3312396000838,376.3139965001028,376.3144159000367,376.3312396000838,376.3312396000838,376.3312396000838,,378.44904810003936,,,,,,,,,,,,,,,,,,,,,,,,,,,,,,right,0.0,2.1171037000603974,,,,,,sub-111,1,random_dot,60.09936828254399,
right,right,42.0,0.0,21.0,right,1.0,2.294185000006109,,accuracy,space,9.594675899948925,,,,,,0.0,0.0,0.0,0.0,21.0,0.0,42.0,1.0,378.4638198000612,,,,,,,,,378.4495752000949,379.2638483000919,380.0647209000308,380.0479392000707,380.04838790011127,380.0647209000308,380.0647209000308,380.0647209000308,,382.3678706000792,,,,,,,,,,,,,,,,,,,,,,,,,,,,,,right,1.0,2.294185000006109,,,,,,sub-111,1,random_dot,60.09936828254399,
left,left,43.0,1.0,21.0,left,1.0,2.1007947999751195,,accuracy,space,9.594675899948925,,,,,,0.0,0.0,0.0,0.0,21.0,1.0,43.0,0.0,382.3803897000616,,,,,,,,,382.3683256000513,383.1804623000789,383.981582300039,383.96463360008784,383.9650877000531,383.981582300039,383.981582300039,383.981582300039,,386.0988462000387,,,,,,,,,,,,,,,,,,,,,,,,,,,,,,left,1.0,2.1007947999751195,,,,,,sub-111,1,random_dot,60.09936828254399,
left,left,44.0,0.0,22.0,left,1.0,2.114832099992782,,accuracy,space,9.594675899948925,,,,,,0.0,0.0,0.0,0.0,22.0,0.0,44.0,0.0,386.1138877000194,,,,,,,,,386.0993571000872,386.4640611000359,387.26474390004296,387.24787160009146,387.2484101000009,387.26474390004296,387.26474390004296,387.26474390004296,,389.3822262000758,,,,,,,,,,,,,,,,,,,,,,,,,,,,,,left,1.0,2.114832099992782,,,,,,sub-111,1,random_dot,60.09936828254399,
right,right,45.0,1.0,22.0,right,1.0,4.017464599921368,,accuracy,space,9.594675899948925,,,,,,0.0,0.0,0.0,0.0,22.0,1.0,45.0,1.0,389.397236000048,,,,,,,,,389.3828746000072,390.1972858000081,390.998215300031,390.9813763001002,390.9818211001111,390.998215300031,390.998215300031,390.998215300031,,395.03203180001583,,,,,,,,,,,,,,,,,,,,,,,,,,,,,,right,1.0,4.017464599921368,,,,,,sub-111,1,random_dot,60.09936828254399,
right,right,46.0,0.0,23.0,left,0.0,2.1343938999343663,,accuracy,space,9.594675899948925,,,,,,0.0,0.0,0.0,0.0,23.0,0.0,46.0,1.0,395.0473280000733,,,,,,,,,395.0327304000966,396.2474458001088,397.0483315000311,397.0315142000327,397.0320056000492,397.0483315000311,397.0483315000311,397.0483315000311,,399.1986496000318,,,,,,,,,,,,,,,,,,,,,,,,,,,,,,left,0.0,2.1343938999343663,,,,,,sub-111,1,random_dot,60.09936828254399,
left,left,47.0,1.0,23.0,left,1.0,5.870613300008699,,accuracy,space,9.594675899948925,,,,,,0.0,0.0,0.0,0.0,23.0,1.0,47.0,0.0,399.2140150000341,,,,,,,,,399.1991341999965,399.56410810002126,400.3648166001076,400.348030299996,400.3485686000204,400.3648166001076,400.3648166001076,400.3648166001076,405.3481054001022,406.2490011000773,,,,,,,,,,,,,,,,,,,,,,,,,,,,,,left,1.0,5.870613300008699,,,,,,sub-111,1,random_dot,60.09936828254399,
right,right,48.0,0.0,24.0,right,1.0,1.983944099978544,,accuracy,space,9.594675899948925,,,,,,0.0,0.0,0.0,0.0,24.0,0.0,48.0,1.0,406.2641549000982,,,,,,,,,406.2495433000149,406.36428270000033,407.1650286000222,407.1478135000216,407.1482562000165,407.1650286000222,407.1650286000222,407.1650286000222,,409.1494340000209,,,,,,,,,,,,,,,,,,,,,,,,,,,,,,right,1.0,1.983944099978544,,,,,,sub-111,1,random_dot,60.09936828254399,
left,left,49.0,1.0,24.0,right,0.0,3.97794549993705,,accuracy,space,9.594675899948925,,,,,,0.0,0.0,0.0,0.0,24.0,1.0,49.0,0.0,409.1641916000517,,,,,,,,,409.1499700000277,409.9643211000366,410.7649129000493,410.7481790001039,410.7486589000328,410.7649129000493,410.7649129000493,410.7649129000493,,414.7491124001099,,,,,,,,,,,,,,,,,,,,,,,,,,,,,,right,0.0,3.97794549993705,,,,,,sub-111,1,random_dot,60.09936828254399,
left,left,50.0,0.0,25.0,left,1.0,2.813061499968171,,accuracy,space,9.594675899948925,,,,,,0.0,0.0,0.0,0.0,25.0,0.0,50.0,0.0,414.7642367000226,,,,,,,,,414.7498539000517,414.864464100101,415.66510840004776,415.648098200094,415.6485451000044,415.66510840004776,415.66510840004776,415.66510840004776,,418.4822681000224,,,,,,,,,,,,,,,,,,,,,,,,,,,,,,left,1.0,2.813061499968171,,,,,,sub-111,1,random_dot,60.09936828254399,
right,right,51.0,1.0,25.0,left,0.0,3.1151333999587223,,accuracy,space,9.594675899948925,,,,,,0.0,0.0,0.0,0.0,25.0,1.0,51.0,1.0,418.4973871000111,,,,,,,,,418.4828381000552,419.2976488000713,420.09826050000265,420.0815296000801,420.0821888000937,420.09826050000265,420.09826050000265,420.09826050000265,,423.2156955000246,,,,,,,,,,,,,,,,,,,,,,,,,,,,,,left,0.0,3.1151333999587223,,,,,,sub-111,1,random_dot,60.09936828254399,
left,left,52.0,0.0,26.0,left,1.0,2.370289699989371,,accuracy,space,9.594675899948925,,,,,,0.0,0.0,0.0,0.0,26.0,0.0,52.0,0.0,423.2345417001052,,,,,,,,,423.2161562000401,423.58109790005255,424.38186130009126,424.3650646000169,424.3655630000867,424.38186130009126,424.38186130009126,424.38186130009126,,426.7660906000529,,,,,,,,,,,,,,,,,,,,,,,,,,,,,,left,1.0,2.370289699989371,,,,,,sub-111,1,random_dot,60.09936828254399,
right,right,53.0,1.0,26.0,right,1.0,1.145734400022775,,accuracy,space,9.594675899948925,,,,,,0.0,0.0,0.0,0.0,26.0,1.0,53.0,1.0,426.7811397000914,,,,,,,,,426.7666889000684,427.1313813000452,427.9317804001039,427.9149383000331,427.9153637000127,427.9317804001039,427.9317804001039,427.9317804001039,,429.0828048000112,,,,,,,,,,,,,,,,,,,,,,,,,,,,,,right,1.0,1.145734400022775,,,,,,sub-111,1,random_dot,60.09936828254399,
left,left,54.0,0.0,27.0,left,1.0,1.0468937000259757,,accuracy,space,9.594675899948925,,,,,,0.0,0.0,0.0,0.0,27.0,0.0,54.0,0.0,429.097634500009,,,,,,,,,429.0833164000651,429.44803650002,430.2486826000968,430.2318011000752,430.2322361000115,430.2486826000968,430.2486826000968,430.2486826000968,,431.299082600046,,,,,,,,,,,,,,,,,,,,,,,,,,,,,,left,1.0,1.0468937000259757,,,,,,sub-111,1,random_dot,60.09936828254399,
right,right,55.0,1.0,27.0,right,1.0,1.3111813999712467,,accuracy,space,9.594675899948925,,,,,,0.0,0.0,0.0,0.0,27.0,1.0,55.0,1.0,431.3143336001085,,,,,,,,,431.2996196000604,432.5145440000342,433.3153965000529,433.2985602000263,433.2990623000078,433.3153965000529,433.3153965000529,433.3153965000529,,434.6327495001024,,,,,,,,,,,,,,,,,,,,,,,,,,,,,,right,1.0,1.3111813999712467,,,,,,sub-111,1,random_dot,60.09936828254399,
left,left,56.0,0.0,28.0,left,1.0,1.001136599923484,,accuracy,space,9.594675899948925,,,,,,0.0,0.0,0.0,0.0,28.0,0.0,56.0,0.0,434.6477526000235,,,,,,,,,434.63327340001706,434.9979295000667,435.7987109000096,435.7818916999968,435.7823724000482,435.7987109000096,435.7987109000096,435.7987109000096,,436.8164034000365,,,,,,,,,,,,,,,,,,,,,,,,,,,,,,left,1.0,1.001136599923484,,,,,,sub-111,1,random_dot,60.09936828254399,
right,right,57.0,1.0,28.0,right,1.0,0.943483299924992,,accuracy,space,9.594675899948925,,,,,,0.0,0.0,0.0,0.0,28.0,1.0,57.0,1.0,436.83123970008455,,,,,,,,,436.817140600062,438.0312855000375,438.832126500085,438.8152070000069,438.81568480003625,438.832126500085,438.832126500085,438.832126500085,,439.78290750004817,,,,,,,,,,,,,,,,,,,,,,,,,,,,,,right,1.0,0.943483299924992,,,,,,sub-111,1,random_dot,60.09936828254399,
left,left,58.0,0.0,29.0,left,1.0,1.513963000033982,,accuracy,space,9.594675899948925,,,,,,0.0,0.0,0.0,0.0,29.0,0.0,58.0,0.0,439.7979651000351,,,,,,,,,439.7835116001079,439.8980694001075,440.6988278001081,440.6818709000945,440.6823265000712,440.6988278001081,440.6988278001081,440.6988278001081,,442.2159220000031,,,,,,,,,,,,,,,,,,,,,,,,,,,,,,left,1.0,1.513963000033982,,,,,,sub-111,1,random_dot,60.09936828254399,
right,right,59.0,1.0,29.0,right,1.0,2.222564800060354,,accuracy,space,9.594675899948925,,,,,,0.0,0.0,0.0,0.0,29.0,1.0,59.0,1.0,442.2311622000998,,,,,,,,,442.2164533000905,442.5814099001,443.3821641000686,443.3656294000102,443.3661027000053,443.3821641000686,443.3821641000686,443.3821641000686,,445.6162324000616,,,,,,,,,,,,,,,,,,,,,,,,,,,,,,right,1.0,2.222564800060354,,,,,,sub-111,1,random_dot,60.09936828254399,
,,0.0,0.0,0.0,,,,,accuracy,space,9.594675899948925,,,,,,0.0,0.0,0.0,0.0,,,,,,,,,,,,,,,,,,,,,,,,,,,,,,,,,,,,,,,,,,,,,,,,,,,,,,,,,,,,,sub-111,1,random_dot,60.09936828254399,
left,left,0.0,0.0,0.0,left,1.0,0.8107750000199303,,speed,space,4.495007800054736,,,,,,0.0,1.0,1.0,1.0,0.0,0.0,0.0,0.0,450.1648151000263,,,,,,,,,450.15871680004057,450.948193200049,451.7491336000385,451.7321901000105,451.73264709999785,451.7491336000385,451.7491336000385,451.7491336000385,,452.5663201001007,,,,,,,,,,,,,,,,,,,,,,,445.6403820000123,445.6451000000816,445.6451000000816,450.14875900000334,space,4.495007800054736,,left,1.0,0.8107750000199303,,,,,,sub-111,1,random_dot,60.09936828254399,
right,right,1.0,1.0,0.0,right,1.0,0.9812329000560568,,speed,space,4.495007800054736,,,,,,0.0,1.0,1.0,1.0,0.0,1.0,1.0,1.0,452.5812087000813,,,,,,,,,452.56683380005416,452.93175410002,453.7324610000942,453.7154413000681,453.715920100105,453.7324610000942,453.7324610000942,453.7324610000942,,454.7164266000036,,,,,,,,,,,,,,,,,,,,,,,,,,,,,,right,1.0,0.9812329000560568,,,,,,sub-111,1,random_dot,60.09936828254399,
left,left,2.0,0.0,1.0,right,0.0,0.9382826000219212,,speed,space,4.495007800054736,,,,,,0.0,1.0,1.0,1.0,1.0,0.0,2.0,0.0,454.7312373000896,,,,,,,,,454.716897000093,455.0815968000097,455.8823831001064,455.8654727000976,455.8659240000416,455.8823831001064,455.8823831001064,455.8823831001064,,456.8330842000432,,,,,,,,,,,,,,,,,,,,,,,,,,,,,,right,0.0,0.9382826000219212,,,,,,sub-111,1,random_dot,60.09936828254399,
right,right,3.0,1.0,1.0,left,0.0,2.461656400002539,,speed,space,4.495007800054736,,,,,,0.0,1.0,1.0,1.0,1.0,1.0,3.0,1.0,456.8482296000002,,,,,,,,,456.8336128001101,457.64823970000725,458.4491545000346,458.43223920010496,458.43271400011145,458.4491545000346,458.4491545000346,458.4491545000346,,460.916449100012,,,,,,,,,,,,,,,,,,,,,,,,,,,,,,left,0.0,2.461656400002539,,,,,,sub-111,1,random_dot,60.09936828254399,
right,right,4.0,0.0,2.0,right,1.0,2.010979599901475,,speed,space,4.495007800054736,,,,,,0.0,1.0,1.0,1.0,2.0,0.0,4.0,1.0,460.9316391000757,,,,,,,,,460.9169197001029,462.1314596000593,462.93224180000834,462.915837700013,462.9162835000316,462.93224180000834,462.93224180000834,462.93224180000834,,464.94996170001104,,,,,,,,,,,,,,,,,,,,,,,,,,,,,,right,1.0,2.010979599901475,,,,,,sub-111,1,random_dot,60.09936828254399,
left,left,5.0,1.0,2.0,left,1.0,1.0599491999018935,,speed,space,4.495007800054736,,,,,,0.0,1.0,1.0,1.0,2.0,1.0,5.0,0.0,464.9649768000236,,,,,,,,,464.9505452000303,465.314864300075,466.1158755000215,466.09895600005984,466.09941260004416,466.1158755000215,466.1158755000215,466.1158755000215,,467.183078900096,,,,,,,,,,,,,,,,,,,,,,,,,,,,,,left,1.0,1.0599491999018935,,,,,,sub-111,1,random_dot,60.09936828254399,
right,right,6.0,0.0,3.0,right,1.0,1.238074399996549,,speed,space,4.495007800054736,,,,,,0.0,1.0,1.0,1.0,3.0,0.0,6.0,1.0,467.1981354000745,,,,,,,,,467.1836433000863,467.548356500105,468.3491835000459,468.3322858000174,468.3327800000552,468.3491835000459,468.3491835000459,468.3491835000459,,469.6000425000675,,,,,,,,,,,,,,,,,,,,,,,,,,,,,,right,1.0,1.238074399996549,,,,,,sub-111,1,random_dot,60.09936828254399,
left,left,7.0,1.0,3.0,left,1.0,1.158529800013639,,speed,space,4.495007800054736,,,,,,0.0,1.0,1.0,1.0,3.0,1.0,7.0,0.0,469.6151682001073,,,,,,,,,469.6005626000697,469.9651142000221,470.7659604001092,470.74903820001055,470.7494951999979,470.7659604001092,470.7659604001092,470.7659604001092,,471.9333255999954,,,,,,,,,,,,,,,,,,,,,,,,,,,,,,left,1.0,1.158529800013639,,,,,,sub-111,1,random_dot,60.09936828254399,
right,right,8.0,0.0,4.0,right,1.0,1.8574075000360608,,speed,space,4.495007800054736,,,,,,0.0,1.0,1.0,1.0,4.0,0.0,8.0,1.0,471.9485219001072,,,,,,,,,471.9338836000534,473.1482445000438,473.9494995001005,473.93253700004425,473.9329991000705,473.9494995001005,473.9494995001005,473.9494995001005,,475.8206430000719,,,,,,,,,,,,,,,,,,,,,,,,,,,,,,right,1.0,1.8574075000360608,,,,,,sub-111,1,random_dot,60.09936828254399,
left,left,9.0,1.0,4.0,left,1.0,1.021863300004043,,speed,space,4.495007800054736,,,,,,0.0,1.0,1.0,1.0,4.0,1.0,9.0,0.0,475.8318014000543,,,,,,,,,475.821156400023,475.931695700041,476.7326367000351,476.7157337000826,476.7163511000108,476.7326367000351,476.7326367000351,476.7326367000351,,477.7664508000016,,,,,,,,,,,,,,,,,,,,,,,,,,,,,,left,1.0,1.021863300004043,,,,,,sub-111,1,random_dot,60.09936828254399,
right,right,10.0,0.0,5.0,left,0.0,3.047635699971579,,speed,space,4.495007800054736,,,,,,0.0,1.0,1.0,1.0,5.0,0.0,10.0,1.0,477.781748300069,,,,,,,,,477.7669376000995,478.1319711999968,478.9326952000847,478.91609160008375,478.9165760000469,478.9326952000847,478.9326952000847,478.9326952000847,,481.9830858000787,,,,,,,,,,,,,,,,,,,,,,,,,,,,,,left,0.0,3.047635699971579,,,,,,sub-111,1,random_dot,60.09936828254399,
left,left,11.0,1.0,5.0,left,1.0,1.5539855000097305,,speed,space,4.495007800054736,,,,,,0.0,1.0,1.0,1.0,5.0,1.0,11.0,0.0,481.99853440001607,,,,,,,,,481.9835675000213,483.1986592001049,483.9994100000477,483.9826410000678,483.9831513999961,483.9994100000477,483.9994100000477,483.9994100000477,,485.5668055000715,,,,,,,,,,,,,,,,,,,,,,,,,,,,,,left,1.0,1.5539855000097305,,,,,,sub-111,1,random_dot,60.09936828254399,
right,right,12.0,0.0,6.0,right,1.0,0.8372805999824777,,speed,space,4.495007800054736,,,,,,0.0,1.0,1.0,1.0,6.0,0.0,12.0,1.0,485.581986800069,,,,,,,,,485.56728320010006,486.3819947000593,487.1829464000184,487.1660925000906,487.166545300046,487.1829464000184,487.1829464000184,487.1829464000184,,488.033401700086,,,,,,,,,,,,,,,,,,,,,,,,,,,,,,right,1.0,0.8372805999824777,,,,,,sub-111,1,random_dot,60.09936828254399,
left,left,13.0,1.0,6.0,right,0.0,3.3723974999738857,,speed,space,4.495007800054736,,,,,,0.0,1.0,1.0,1.0,6.0,1.0,13.0,0.0,488.04851910006255,,,,,,,,,488.033870400046,489.2486879000208,490.0496769000311,490.0327356000198,490.0332184000872,490.0496769000311,490.0496769000311,490.0496769000311,,493.433705600095,,,,,,,,,,,,,,,,,,,,,,,,,,,,,,right,0.0,3.3723974999738857,,,,,,sub-111,1,random_dot,60.09936828254399,
right,right,14.0,0.0,7.0,right,1.0,0.9349495000205934,,speed,space,4.495007800054736,,,,,,0.0,1.0,1.0,1.0,7.0,0.0,14.0,1.0,493.4488022000296,,,,,,,,,493.4342343000462,493.7988481000066,494.5995683000656,494.5826701000333,494.58313490008,494.5995683000656,494.5995683000656,494.5995683000656,,495.5500784000615,,,,,,,,,,,,,,,,,,,,,,,,,,,,,,right,1.0,0.9349495000205934,,,,,,sub-111,1,random_dot,60.09936828254399,
left,left,15.0,1.0,7.0,left,1.0,0.7594452999765053,,speed,space,4.495007800054736,,,,,,0.0,1.0,1.0,1.0,7.0,1.0,15.0,0.0,495.56517150008585,,,,,,,,,495.55062740005087,496.7654625000432,497.5664598000003,497.5495676000137,497.550022700103,497.5664598000003,497.5664598000003,497.5664598000003,,498.3336468000198,,,,,,,,,,,,,,,,,,,,,,,,,,,,,,left,1.0,0.7594452999765053,,,,,,sub-111,1,random_dot,60.09936828254399,
left,left,16.0,0.0,8.0,left,1.0,1.148700900026597,,speed,space,4.495007800054736,,,,,,0.0,1.0,1.0,1.0,8.0,0.0,16.0,0.0,498.34886620007455,,,,,,,,,498.334167300025,499.54844870010857,500.3494309000671,500.3326548000332,500.33314620004967,500.3494309000671,500.3494309000671,500.3494309000671,,501.5001211001072,,,,,,,,,,,,,,,,,,,,,,,,,,,,,,left,1.0,1.148700900026597,,,,,,sub-111,1,random_dot,60.09936828254399,
right,right,17.0,1.0,8.0,right,1.0,0.8522000999655575,,speed,space,4.495007800054736,,,,,,0.0,1.0,1.0,1.0,8.0,1.0,17.0,1.0,501.51546710007824,,,,,,,,,501.5006293000188,502.715537100099,503.5163936000317,503.4989434001036,503.49936440004967,503.5163936000317,503.5163936000317,503.5163936000317,,504.3839556000894,,,,,,,,,,,,,,,,,,,,,,,,,,,,,,right,1.0,0.8522000999655575,,,,,,sub-111,1,random_dot,60.09936828254399,
right,right,18.0,0.0,9.0,right,1.0,0.8669650999363512,,speed,space,4.495007800054736,,,,,,0.0,1.0,1.0,1.0,9.0,0.0,18.0,1.0,504.39886690001,,,,,,,,,504.3845227001002,505.1989437000593,505.999968899996,505.9830374000594,505.9835133000743,505.999968899996,505.999968899996,505.999968899996,,506.8839492000407,,,,,,,,,,,,,,,,,,,,,,,,,,,,,,right,1.0,0.8669650999363512,,,,,,sub-111,1,random_dot,60.09936828254399,
left,left,19.0,1.0,9.0,left,1.0,1.0795509000308812,,speed,space,4.495007800054736,,,,,,0.0,1.0,1.0,1.0,9.0,1.0,19.0,0.0,506.8989055000711,,,,,,,,,506.8845291000325,506.9989346000366,507.7996455000248,507.78294270008337,507.7833682000637,507.7996455000248,507.7996455000248,507.7996455000248,,508.8836953000864,,,,,,,,,,,,,,,,,,,,,,,,,,,,,,left,1.0,1.0795509000308812,,,,,,sub-111,1,random_dot,60.09936828254399,
left,left,20.0,0.0,10.0,left,1.0,0.7719681999878958,,speed,space,4.495007800054736,,,,,,0.0,1.0,1.0,1.0,10.0,0.0,20.0,0.0,508.89877300010994,,,,,,,,,508.88420120009687,510.0990123000229,510.89987560000736,510.8830133000156,510.8836781000719,510.89987560000736,510.89987560000736,510.89987560000736,,511.6837991001085,,,,,,,,,,,,,,,,,,,,,,,,,,,,,,left,1.0,0.7719681999878958,,,,,,sub-111,1,random_dot,60.09936828254399,
right,right,21.0,1.0,10.0,right,1.0,1.5467363999923691,,speed,space,4.495007800054736,,,,,,0.0,1.0,1.0,1.0,10.0,1.0,21.0,1.0,511.6990798000479,,,,,,,,,511.6843313000864,512.0490865000756,512.8499433000106,512.8329084001016,512.8334282001015,512.8499433000106,512.8499433000106,512.8499433000106,,514.4002427000087,,,,,,,,,,,,,,,,,,,,,,,,,,,,,,right,1.0,1.5467363999923691,,,,,,sub-111,1,random_dot,60.09936828254399,
left,left,22.0,0.0,11.0,left,1.0,1.385051800054498,,speed,space,4.495007800054736,,,,,,0.0,1.0,1.0,1.0,11.0,0.0,22.0,0.0,514.4156616000691,,,,,,,,,514.4007754001068,514.5157125000842,515.316576100071,515.2995552000357,515.2999798000092,515.316576100071,515.316576100071,515.316576100071,,516.7170729000354,,,,,,,,,,,,,,,,,,,,,,,,,,,,,,left,1.0,1.385051800054498,,,,,,sub-111,1,random_dot,60.09936828254399,
right,right,23.0,1.0,11.0,right,1.0,0.9693638000171632,,speed,space,4.495007800054736,,,,,,0.0,1.0,1.0,1.0,11.0,1.0,23.0,1.0,516.73200920003,,,,,,,,,516.7175322000403,517.9324338000733,518.7329493000871,518.7164290000219,518.7169316000072,518.7329493000871,518.7329493000871,518.7329493000871,,519.7170349000953,,,,,,,,,,,,,,,,,,,,,,,,,,,,,,right,1.0,0.9693638000171632,,,,,,sub-111,1,random_dot,60.09936828254399,
right,right,24.0,0.0,12.0,right,1.0,2.3641147000016645,,speed,space,4.495007800054736,,,,,,0.0,1.0,1.0,1.0,12.0,0.0,24.0,1.0,519.7322658000048,,,,,,,,,519.7176411000546,520.932574500097,521.7334220000776,521.7165586000774,521.7170287000481,521.7334220000776,521.7334220000776,521.7334220000776,,524.1004154999973,,,,,,,,,,,,,,,,,,,,,,,,,,,,,,right,1.0,2.3641147000016645,,,,,,sub-111,1,random_dot,60.09936828254399,
left,left,25.0,1.0,12.0,left,1.0,0.8714024999644607,,speed,space,4.495007800054736,,,,,,0.0,1.0,1.0,1.0,12.0,1.0,25.0,0.0,524.1162705000024,,,,,,,,,524.1010298000183,524.4658675000537,525.2667166000465,525.2498608001042,525.2503641000949,525.2667166000465,525.2667166000465,525.2667166000465,,526.1504249999998,,,,,,,,,,,,,,,,,,,,,,,,,,,,,,left,1.0,0.8714024999644607,,,,,,sub-111,1,random_dot,60.09936828254399,
right,right,26.0,0.0,13.0,right,1.0,1.2944052000530064,,speed,space,4.495007800054736,,,,,,0.0,1.0,1.0,1.0,13.0,0.0,26.0,1.0,526.165899900021,,,,,,,,,526.1509583001025,526.5158849,527.3167743000668,527.2998419000069,527.3003213000484,527.3167743000668,527.3167743000668,527.3167743000668,,528.6173162000487,,,,,,,,,,,,,,,,,,,,,,,,,,,,,,right,1.0,1.2944052000530064,,,,,,sub-111,1,random_dot,60.09936828254399,
left,left,27.0,1.0,13.0,left,1.0,0.897246899898164,,speed,space,4.495007800054736,,,,,,0.0,1.0,1.0,1.0,13.0,1.0,27.0,0.0,528.6325764000649,,,,,,,,,528.6177975001046,528.9826026000082,529.7835394000867,529.7664646001067,529.7669486000668,529.7835394000867,529.7835394000867,529.7835394000867,,530.6842898000032,,,,,,,,,,,,,,,,,,,,,,,,,,,,,,left,1.0,0.897246899898164,,,,,,sub-111,1,random_dot,60.09936828254399,
right,right,28.0,0.0,14.0,right,1.0,0.951342900050804,,speed,space,4.495007800054736,,,,,,0.0,1.0,1.0,1.0,14.0,0.0,28.0,1.0,530.6993652000092,,,,,,,,,530.6847725000698,530.7993252000306,531.600081600016,531.5831675000954,531.5836554000853,531.600081600016,531.600081600016,531.600081600016,,532.5674783000723,,,,,,,,,,,,,,,,,,,,,,,,,,,,,,right,1.0,0.951342900050804,,,,,,sub-111,1,random_dot,60.09936828254399,
left,left,29.0,1.0,14.0,left,1.0,1.08875390002504,,speed,space,4.495007800054736,,,,,,0.0,1.0,1.0,1.0,14.0,1.0,29.0,0.0,532.5826274000574,,,,,,,,,532.5679966000607,533.7822779000271,534.583663300029,534.5667603000766,534.567211800022,534.583663300029,534.583663300029,534.583663300029,,535.6842648000456,,,,,,,,,,,,,,,,,,,,,,,,,,,,,,left,1.0,1.08875390002504,,,,,,sub-111,1,random_dot,60.09936828254399,
right,right,30.0,0.0,15.0,right,1.0,1.1873861000640318,,speed,space,4.495007800054736,,,,,,0.0,1.0,1.0,1.0,15.0,0.0,30.0,1.0,535.6993210000219,,,,,,,,,535.6848088999977,536.0493305000709,536.8501911000349,536.8331750000361,536.8336205000523,536.8501911000349,536.8501911000349,536.8501911000349,,538.0505430001067,,,,,,,,,,,,,,,,,,,,,,,,,,,,,,right,1.0,1.1873861000640318,,,,,,sub-111,1,random_dot,60.09936828254399,
left,left,31.0,1.0,15.0,left,1.0,0.9791733999736608,,speed,space,4.495007800054736,,,,,,0.0,1.0,1.0,1.0,15.0,1.0,31.0,0.0,538.0660473000025,,,,,,,,,538.0510189000051,539.2661047000438,540.067090400029,540.0501439000946,540.0506770000793,540.067090400029,540.067090400029,540.067090400029,,541.0510411000578,,,,,,,,,,,,,,,,,,,,,,,,,,,,,,left,1.0,0.9791733999736608,,,,,,sub-111,1,random_dot,60.09936828254399,
left,left,32.0,0.0,16.0,left,1.0,1.1290424999315292,,speed,space,4.495007800054736,,,,,,0.0,1.0,1.0,1.0,16.0,0.0,32.0,0.0,541.065891400096,,,,,,,,,541.0515465000644,541.1660470000934,541.9668583000312,541.9500062000006,541.9504301000852,541.9668583000312,541.9668583000312,541.9668583000312,,543.1045491000405,,,,,,,,,,,,,,,,,,,,,,,,,,,,,,left,1.0,1.1290424999315292,,,,,,sub-111,1,random_dot,60.09936828254399,
right,right,33.0,1.0,16.0,right,1.0,1.1040550000034273,,speed,space,4.495007800054736,,,,,,0.0,1.0,1.0,1.0,16.0,1.0,33.0,1.0,543.1161375000374,,,,,,,,,543.1050228000386,544.3161294000456,545.1170973000117,545.1002040000167,545.1007857000222,545.1170973000117,545.1170973000117,545.1170973000117,,546.2342514001066,,,,,,,,,,,,,,,,,,,,,,,,,,,,,,right,1.0,1.1040550000034273,,,,,,sub-111,1,random_dot,60.09936828254399,
right,right,34.0,0.0,17.0,right,1.0,1.0203143999679014,,speed,space,4.495007800054736,,,,,,0.0,1.0,1.0,1.0,17.0,0.0,34.0,1.0,546.2494969000109,,,,,,,,,546.234731500037,546.5995965000475,547.4001576000592,547.3834115000209,547.3838788000867,547.4001576000592,547.4001576000592,547.4001576000592,,548.4347623001086,,,,,,,,,,,,,,,,,,,,,,,,,,,,,,right,1.0,1.0203143999679014,,,,,,sub-111,1,random_dot,60.09936828254399,
left,left,35.0,1.0,17.0,left,1.0,1.0656445999629796,,speed,space,4.495007800054736,,,,,,0.0,1.0,1.0,1.0,17.0,1.0,35.0,0.0,548.4498164000688,,,,,,,,,548.4352813001024,549.2495714999968,550.0505280001089,550.0335885001114,550.0340502000181,550.0505280001089,550.0505280001089,550.0505280001089,,551.1176109000808,,,,,,,,,,,,,,,,,,,,,,,,,,,,,,left,1.0,1.0656445999629796,,,,,,sub-111,1,random_dot,60.09936828254399,
left,left,36.0,0.0,18.0,right,0.0,2.4507261000107974,,speed,space,4.495007800054736,,,,,,0.0,1.0,1.0,1.0,18.0,0.0,36.0,0.0,551.1328684000764,,,,,,,,,551.1180960000493,551.2329910000553,552.0337783000432,552.0170869000722,552.0175200001104,552.0337783000432,552.0337783000432,552.0337783000432,,554.5009502000175,,,,,,,,,,,,,,,,,,,,,,,,,,,,,,right,0.0,2.4507261000107974,,,,,,sub-111,1,random_dot,60.09936828254399,
right,right,37.0,1.0,18.0,right,1.0,0.9397611999884248,,speed,space,4.495007800054736,,,,,,0.0,1.0,1.0,1.0,18.0,1.0,37.0,1.0,554.5162267000414,,,,,,,,,554.501451899996,554.6162798000732,555.4172017000383,555.4002276000101,555.4006756000454,555.4172017000383,555.4172017000383,555.4172017000383,,556.3678254000843,,,,,,,,,,,,,,,,,,,,,,,,,,,,,,right,1.0,0.9397611999884248,,,,,,sub-111,1,random_dot,60.09936828254399,
left,left,38.0,0.0,19.0,left,1.0,1.354681900003925,,speed,space,4.495007800054736,,,,,,0.0,1.0,1.0,1.0,19.0,0.0,38.0,0.0,556.3829596000724,,,,,,,,,556.3683611000888,557.5830904000904,558.3840292000677,558.3670917000854,558.3675512000918,558.3840292000677,558.3840292000677,558.3840292000677,,559.7518213000149,,,,,,,,,,,,,,,,,,,,,,,,,,,,,,left,1.0,1.354681900003925,,,,,,sub-111,1,random_dot,60.09936828254399,
right,right,39.0,1.0,19.0,left,0.0,1.9962318999459967,,speed,space,4.495007800054736,,,,,,0.0,1.0,1.0,1.0,19.0,1.0,39.0,1.0,559.7663255000953,,,,,,,,,559.7523982001003,559.8663918001112,560.6671251000371,560.6501387000317,560.6505846000509,560.6671251000371,560.6671251000371,560.6671251000371,,562.6679402000736,,,,,,,,,,,,,,,,,,,,,,,,,,,,,,left,0.0,1.9962318999459967,,,,,,sub-111,1,random_dot,60.09936828254399,
left,left,40.0,0.0,20.0,left,1.0,2.0476264000171795,,speed,space,4.495007800054736,,,,,,0.0,1.0,1.0,1.0,20.0,0.0,40.0,0.0,562.6830686000176,,,,,,,,,562.6684204000048,563.4830307000084,564.2840699000517,564.267068300047,564.2675304000732,564.2840699000517,564.2840699000517,564.2840699000517,,566.3343223000411,,,,,,,,,,,,,,,,,,,,,,,,,,,,,,left,1.0,2.0476264000171795,,,,,,sub-111,1,random_dot,60.09936828254399,
right,right,41.0,1.0,20.0,right,1.0,0.9049505000002682,,speed,space,4.495007800054736,,,,,,0.0,1.0,1.0,1.0,20.0,1.0,41.0,1.0,566.3497714000987,,,,,,,,,566.3347929000156,566.4501440000022,567.2503410000354,567.2333633000962,567.2338329000631,567.2503410000354,567.2503410000354,567.2503410000354,,568.168244700064,,,,,,,,,,,,,,,,,,,,,,,,,,,,,,right,1.0,0.9049505000002682,,,,,,sub-111,1,random_dot,60.09936828254399,
right,right,42.0,0.0,21.0,right,1.0,1.077458499930799,,speed,space,4.495007800054736,,,,,,0.0,1.0,1.0,1.0,21.0,0.0,42.0,1.0,568.1831310000271,,,,,,,,,568.168891300098,568.9831550000235,569.7838669000193,569.7668439000845,569.7672931000125,569.7838669000193,569.7838669000193,569.7838669000193,,570.8681414000457,,,,,,,,,,,,,,,,,,,,,,,,,,,,,,right,1.0,1.077458499930799,,,,,,sub-111,1,random_dot,60.09936828254399,
left,left,43.0,1.0,21.0,left,1.0,1.2539916000096127,,speed,space,4.495007800054736,,,,,,0.0,1.0,1.0,1.0,21.0,1.0,43.0,0.0,570.8832115000114,,,,,,,,,570.8687047000276,572.0830364000285,572.8841639000457,572.8671764000319,572.8676391000627,572.8841639000457,572.8841639000457,572.8841639000457,,574.1514349000063,,,,,,,,,,,,,,,,,,,,,,,,,,,,,,left,1.0,1.2539916000096127,,,,,,sub-111,1,random_dot,60.09936828254399,
left,left,44.0,0.0,22.0,left,1.0,1.254047599970363,,speed,space,4.495007800054736,,,,,,0.0,1.0,1.0,1.0,22.0,0.0,44.0,0.0,574.1665072001051,,,,,,,,,574.1519876000239,574.516660900088,575.3172840001062,575.3003186000278,575.3007916000206,575.3172840001062,575.3172840001062,575.3172840001062,,576.5845548000652,,,,,,,,,,,,,,,,,,,,,,,,,,,,,,left,1.0,1.254047599970363,,,,,,sub-111,1,random_dot,60.09936828254399,
right,right,45.0,1.0,22.0,right,1.0,0.74440379999578,,speed,space,4.495007800054736,,,,,,0.0,1.0,1.0,1.0,22.0,1.0,45.0,1.0,576.5999519000761,,,,,,,,,576.5850479000947,577.7997100000503,578.6009108000435,578.5839275000617,578.5844788000686,578.6009108000435,578.6009108000435,578.6009108000435,,579.351548400009,,,,,,,,,,,,,,,,,,,,,,,,,,,,,,right,1.0,0.74440379999578,,,,,,sub-111,1,random_dot,60.09936828254399,
left,left,46.0,0.0,23.0,left,1.0,0.7632012999383733,,speed,space,4.495007800054736,,,,,,0.0,1.0,1.0,1.0,23.0,0.0,46.0,0.0,579.3666765000671,,,,,,,,,579.3520323000848,580.1666552000679,580.9676503000082,580.9511314000702,580.9516066000797,580.9676503000082,580.9676503000082,580.9676503000082,,581.7345803000499,,,,,,,,,,,,,,,,,,,,,,,,,,,,,,left,1.0,0.7632012999383733,,,,,,sub-111,1,random_dot,60.09936828254399,
right,right,47.0,1.0,23.0,right,1.0,0.7430421999888495,,speed,space,4.495007800054736,,,,,,0.0,1.0,1.0,1.0,23.0,1.0,47.0,1.0,581.7499827001011,,,,,,,,,581.735037800041,582.9500796000939,583.750579200103,583.7337064000312,583.7341617000056,583.750579200103,583.750579200103,583.750579200103,,584.5015513000544,,,,,,,,,,,,,,,,,,,,,,,,,,,,,,right,1.0,0.7430421999888495,,,,,,sub-111,1,random_dot,60.09936828254399,
right,right,48.0,0.0,24.0,left,0.0,0.969266299973242,,speed,space,4.495007800054736,,,,,,0.0,1.0,1.0,1.0,24.0,0.0,48.0,1.0,584.5165586000076,,,,,,,,,584.5020796000026,584.8667564000934,585.667519700015,585.6507133000996,585.6512070000172,585.667519700015,585.667519700015,585.667519700015,,586.6516650000121,,,,,,,,,,,,,,,,,,,,,,,,,,,,,,left,0.0,0.969266299973242,,,,,,sub-111,1,random_dot,60.09936828254399,
left,left,49.0,1.0,24.0,left,1.0,1.0033179000020027,,speed,space,4.495007800054736,,,,,,0.0,1.0,1.0,1.0,24.0,1.0,49.0,0.0,586.6667208001018,,,,,,,,,586.652246600017,587.0166938001057,587.8173586000921,587.8010911000893,587.801552799996,587.8173586000921,587.8173586000921,587.8173586000921,,588.8346405000193,,,,,,,,,,,,,,,,,,,,,,,,,,,,,,left,1.0,1.0033179000020027,,,,,,sub-111,1,random_dot,60.09936828254399,
left,left,50.0,0.0,25.0,right,0.0,0.937449499964714,,speed,space,4.495007800054736,,,,,,0.0,1.0,1.0,1.0,25.0,0.0,50.0,0.0,588.8500683000311,,,,,,,,,588.8351183000486,589.6501886000624,590.451094500022,590.4343113000505,590.4348498000763,590.451094500022,590.451094500022,590.451094500022,,591.4023280000547,,,,,,,,,,,,,,,,,,,,,,,,,,,,,,right,0.0,0.937449499964714,,,,,,sub-111,1,random_dot,60.09936828254399,
right,right,51.0,1.0,25.0,right,1.0,1.2424638000084087,,speed,space,4.495007800054736,,,,,,0.0,1.0,1.0,1.0,25.0,1.0,51.0,1.0,591.4168443999952,,,,,,,,,591.4028576000128,592.6168429000536,593.4177704000613,593.4010240000207,593.4015028000576,593.4177704000613,593.4177704000613,593.4177704000613,,594.6684098000405,,,,,,,,,,,,,,,,,,,,,,,,,,,,,,right,1.0,1.2424638000084087,,,,,,sub-111,1,random_dot,60.09936828254399,
right,right,52.0,0.0,26.0,right,1.0,0.914807099965401,,speed,space,4.495007800054736,,,,,,0.0,1.0,1.0,1.0,26.0,0.0,52.0,1.0,594.6834725000663,,,,,,,,,594.6689244000008,595.4836254999973,596.2846647000406,596.2676012000302,596.2680956000695,596.2846647000406,596.2846647000406,596.2846647000406,,597.2021345000248,,,,,,,,,,,,,,,,,,,,,,,,,,,,,,right,1.0,0.914807099965401,,,,,,sub-111,1,random_dot,60.09936828254399,
left,left,53.0,1.0,26.0,right,0.0,1.0350251999916509,,speed,space,4.495007800054736,,,,,,0.0,1.0,1.0,1.0,26.0,1.0,53.0,0.0,597.2166764000431,,,,,,,,,597.2026241000276,597.316921700025,598.1176462000003,598.1007185000926,598.1011675000191,598.1176462000003,598.1176462000003,598.1176462000003,,599.168442800059,,,,,,,,,,,,,,,,,,,,,,,,,,,,,,right,0.0,1.0350251999916509,,,,,,sub-111,1,random_dot,60.09936828254399,
right,right,54.0,0.0,27.0,left,0.0,0.9810099999886006,,speed,space,4.495007800054736,,,,,,0.0,1.0,1.0,1.0,27.0,0.0,54.0,1.0,599.1835705999983,,,,,,,,,599.1689052000875,600.3833822000306,601.1846561999992,601.1677664000308,601.168242600048,601.1846561999992,601.1846561999992,601.1846561999992,,602.1686668000184,,,,,,,,,,,,,,,,,,,,,,,,,,,,,,left,0.0,0.9810099999886006,,,,,,sub-111,1,random_dot,60.09936828254399,
left,left,55.0,1.0,27.0,left,1.0,0.9343283000634984,,speed,space,4.495007800054736,,,,,,0.0,1.0,1.0,1.0,27.0,1.0,55.0,0.0,602.1834141000872,,,,,,,,,602.1691770000616,602.5334119000472,603.3345240000635,603.3177036000416,603.3181933000451,603.3345240000635,603.3345240000635,603.3345240000635,,604.2853085000534,,,,,,,,,,,,,,,,,,,,,,,,,,,,,,left,1.0,0.9343283000634984,,,,,,sub-111,1,random_dot,60.09936828254399,
right,right,56.0,0.0,28.0,left,0.0,3.2461687000468373,,speed,space,4.495007800054736,,,,,,0.0,1.0,1.0,1.0,28.0,0.0,56.0,1.0,604.3005182000343,,,,,,,,,604.2858126000501,604.6503712000558,605.4505419000052,605.4342150000157,605.4347345000133,605.4505419000052,605.4505419000052,605.4505419000052,,608.7017286000773,,,,,,,,,,,,,,,,,,,,,,,,,,,,,,left,0.0,3.2461687000468373,,,,,,sub-111,1,random_dot,60.09936828254399,
left,left,57.0,1.0,28.0,right,0.0,1.6506635000696406,,speed,space,4.495007800054736,,,,,,0.0,1.0,1.0,1.0,28.0,1.0,57.0,0.0,608.7170209001051,,,,,,,,,608.702217800077,609.5171435000375,610.3180261000525,610.3011541001033,610.301607200061,610.3180261000525,610.3180261000525,610.3180261000525,,611.9852203000337,,,,,,,,,,,,,,,,,,,,,,,,,,,,,,right,0.0,1.6506635000696406,,,,,,sub-111,1,random_dot,60.09936828254399,
left,left,58.0,0.0,29.0,left,1.0,2.220225000055507,,speed,space,4.495007800054736,,,,,,0.0,1.0,1.0,1.0,29.0,0.0,58.0,0.0,612.0004535000771,,,,,,,,,611.9858114001108,612.1006057000486,612.9012961999979,612.8842332001077,612.8846578000812,612.9012961999979,612.9012961999979,612.9012961999979,,615.1353555000387,,,,,,,,,,,,,,,,,,,,,,,,,,,,,,left,1.0,2.220225000055507,,,,,,sub-111,1,random_dot,60.09936828254399,
right,right,59.0,1.0,29.0,right,1.0,1.5784994000568986,,speed,space,4.495007800054736,,,,,,0.0,1.0,1.0,1.0,29.0,1.0,59.0,1.0,615.150441500009,,,,,,,,,615.1358779000584,615.9504643999971,616.7512588000391,616.7341222000541,616.7345797000453,616.7512588000391,616.7512588000391,616.7512588000391,,618.3353558999952,,,,,,,,,,,,,,,,,,,,,,,,,,,,,,right,1.0,1.5784994000568986,,,,,,sub-111,1,random_dot,60.09936828254399,
,,1.0,1.0,0.0,,,,,speed,space,4.495007800054736,,,,,,0.0,1.0,1.0,1.0,,,,,,,,,,,,,,,,,,,,,,,,,,,,,,,,,,,,,,,,,,,,,,,,,,,,,,,,,,,,,sub-111,1,random_dot,60.09936828254399,
,,,,,,,,,,,,,,,,,,,,,,,,,,,,,,,,,,,,,,,,,,,,,,,,,,,,,,,,,,,,,,,,,,,,,,,,,,,,,618.3429105000105,618.350550500094,623.3507684000069,623.3347004000098,sub-111,1,random_dot,60.09936828254399,
