direction,corrAns,randomInstr,practice_trials.thisRepN,practice_trials.thisTrialN,practice_trials.thisN,practice_trials.thisIndex,instr_trials.thisRepN,instr_trials.thisTrialN,instr_trials.thisN,instr_trials.thisIndex,test_trials.thisRepN,test_trials.thisTrialN,test_trials.thisN,test_trials.thisIndex,thisRow.t,notes,general_instruction.started,textGeneralInstr.started,respGeneralInstr.started,general_instruction.stopped,respGeneralInstr.keys,respGeneralInstr.rt,respGeneralInstr.duration,ITI.started,fixcross.started,fixcross.stopped,ITI.stopped,dots.started,backgroundDots.started,stimulusDots.started,respDots.started,dots.stopped,respDots.keys,respDots.corr,respDots.rt,respDots.duration,feedback.started,textFeedback.started,textFeedback.stopped,feedback.stopped,stimulusDots.stopped,info.started,textInfo.started,keyRespInfo.started,info.stopped,keyRespInfo.keys,keyRespInfo.rt,keyRespInfo.duration,test_instruction.started,textTestInstr.started,respTestInstr.started,test_instruction.stopped,respTestInstr.keys,respTestInstr.rt,respTestInstr.duration,random_instruction.started,textRandomInstr.started,respRandomInstr.started,random_instruction.stopped,respRandomInstr.keys,respRandomInstr.rt,respRandomInstr.duration,goodbye.started,textGoodbye.started,textGoodbye.stopped,goodbye.stopped,participant,session,expName,frameRate,Unnamed: 74
,,,,,,,,,,,,,,,,,0.014652699988801,0.0205058999708853,0.0205058999708853,22.36771720001707,space,37.06480510003166,,,,,,,,,,,,,,,,,,,,,,,,,,,,,,,,,,,,,,,,,,,,,sub-170,1.0,random_dot,59.94797713315364,
right,right,,0.0,0.0,0.0,1.0,,,,,,,,,22.395968900003936,,,,,,,,,22.392891699972097,22.48297299997648,23.283626599994022,23.267355200019665,23.26738989999285,23.283626599994022,23.283626599994022,23.283626599994022,27.534559399995487,left,0.0,18.969133400009014,,27.536110699991696,27.54995489999419,28.049719900009222,28.03381469997112,,,,,,,,,,,,,,,,,,,,,,,,,,,sub-170,1.0,random_dot,59.94797713315364,
left,left,,0.0,1.0,1.0,0.0,,,,,,,,,28.049719900009222,,,,,,,,,28.034133500012103,28.400181000004523,29.200358900008723,29.18402149999747,29.18403910001507,29.200358900008723,29.200358900008723,29.200358900008723,30.167812799976677,right,0.0,15.691711199993732,,30.16824099997757,30.183301999990363,30.6830273999949,30.66704510001,,,,,,,,,,,,,,,,,,,,,,,,,,,sub-170,1.0,random_dot,59.94797713315364,
right,right,,1.0,0.0,2.0,1.0,,,,,,,,,30.6830273999949,,,,,,,,,30.667358800012156,30.78302680002525,31.58393480000086,31.56698880001204,31.567001999996137,31.58393480000086,31.58393480000086,31.58393480000086,32.66795939998701,right,1.0,15.808850799978243,,32.66832549998071,32.68320239998866,33.18339830002515,33.16680639999686,,,,,,,,,,,,,,,,,,,,,,,,,,,sub-170,1.0,random_dot,59.94797713315364,
left,left,,1.0,1.0,3.0,0.0,,,,,,,,,33.18339830002515,,,,,,,,,33.167232499981765,34.383302800008096,35.18367599998601,35.16693750000559,35.16695330000948,35.18367599998601,35.18367599998601,35.18367599998601,36.00110210001003,left,1.0,15.533842500008175,,36.001674099999946,36.016448299982585,36.51634319999721,36.50051300000632,,,,,,,,,,,,,,,,,,,,,,,,,,,sub-170,1.0,random_dot,59.94797713315364,
left,left,,2.0,0.0,4.0,0.0,,,,,,,,,36.51634319999721,,,,,,,,,36.50081310002133,36.8665381000028,37.66706690000137,37.65038850001292,37.65040990000125,37.66706690000137,37.66706690000137,37.66706690000137,38.28473810001742,right,0.0,15.347994399955496,,38.28507129999343,38.29974119999679,38.80016179999802,38.78394140000455,,,,,,,,,,,,,,,,,,,,,,,,,,,sub-170,1.0,random_dot,59.94797713315364,
right,right,,2.0,1.0,5.0,1.0,,,,,,,,,38.80016179999802,,,,,,,,,38.78431269997964,40.00005939998664,40.80040670000017,40.783664599992335,40.78368749999208,40.80040670000017,40.80040670000017,40.80040670000017,43.28476220002631,left,0.0,17.199713700043503,,43.285123399982695,43.30002829997102,43.79986079997616,43.7838175999932,,,,,,,,,,,,,,,,,,,,,,,,,,,sub-170,1.0,random_dot,59.94797713315364,
left,left,,3.0,0.0,6.0,0.0,,,,,,,,,43.79986079997616,,,,,,,,,43.7843418000266,44.599853300023824,45.40048070001649,45.384004799998365,45.384038000018336,45.40048070001649,45.40048070001649,45.40048070001649,59.98428610002156,right,0.0,29.29928869998548,,59.98471900000004,59.99958170001628,60.4997453999822,60.48381270002574,50.38344639999559,,,,,,,,,,,,,,,,,,,,,,,,,,sub-170,1.0,random_dot,59.94797713315364,
right,right,,3.0,1.0,7.0,1.0,,,,,,,,,60.4997453999822,,,,,,,,,60.48430070001632,61.29984210000839,62.10016219998943,62.084013500018045,62.08403059997363,62.10016219998943,62.10016219998943,62.10016219998943,64.23435029998654,right,1.0,16.857612199964933,,64.23484450002434,64.24990340002114,64.75003779999679,64.73420240002451,,,,,,,,,,,,,,,,,,,,,,,,,,,sub-170,1.0,random_dot,59.94797713315364,
right,right,,4.0,0.0,8.0,1.0,,,,,,,,,64.75003779999679,,,,,,,,,64.73487179999938,65.54937909997534,66.35068660002435,66.33375729998806,66.33377249998739,66.35068660002435,66.35068660002435,66.35068660002435,67.21809530002065,left,0.0,15.597239000024274,,67.21869419998256,67.23358300002292,67.73315779998666,67.71704090002459,,,,,,,,,,,,,,,,,,,,,,,,,,,sub-170,1.0,random_dot,59.94797713315364,
left,left,,4.0,1.0,9.0,0.0,,,,,,,,,67.73315779998666,,,,,,,,,67.71750470000552,68.93325040000491,69.73359979997622,69.71705159998965,69.7170806999784,69.73359979997622,69.73359979997622,69.73359979997622,73.95112209999934,left,1.0,18.941237099992577,,73.95152030000463,73.96635499998229,74.46638459997484,74.45044970000163,,,,,,,,,,,,,,,,,,,,,,,,,,,sub-170,1.0,random_dot,59.94797713315364,
right,right,,5.0,0.0,10.0,1.0,,,,,,,,,74.46638459997484,,,,,,,,,74.45076189999236,75.66667750000488,76.46732160000829,76.45018929999787,76.45020949997706,76.46732160000829,76.46732160000829,76.46732160000829,79.55124519998208,left,0.0,17.803722399985418,,79.55161630001385,79.56661490001716,80.06679359998088,80.05022410000674,,,,,,,,,,,,,,,,,,,,,,,,,,,sub-170,1.0,random_dot,59.94797713315364,
left,left,,5.0,1.0,11.0,0.0,,,,,,,,,80.06679359998088,,,,,,,,,80.05079639999894,80.4166239000042,81.21702420001384,81.20060959999682,81.20063490001485,81.21702420001384,81.21702420001384,81.21702420001384,87.81764820002718,right,0.0,21.3234611999942,,87.81799239997054,87.83320059999824,88.33360060001723,88.31726300000446,86.20019840000896,,,,,,,,,,,,,,,,,,,,,,,,,,sub-170,1.0,random_dot,59.94797713315364,
right,right,,6.0,0.0,12.0,1.0,,,,,,,,,88.33360060001723,,,,,,,,,88.31766310002422,89.53347510000458,90.33329600002617,90.31684550002684,90.31687059998512,90.33329600002617,90.33329600002617,90.33329600002617,92.56765909999376,right,1.0,16.956605799961835,,92.56826369999908,92.5833029000205,93.08353409997652,93.0674083000049,,,,,,,,,,,,,,,,,,,,,,,,,,,sub-170,1.0,random_dot,59.94797713315364,
left,left,,6.0,1.0,13.0,0.0,,,,,,,,,93.08353409997652,,,,,,,,,93.06790249998448,93.88318910001544,94.68378979997942,94.66725030000087,94.66727370000444,94.68378979997942,94.68378979997942,94.68378979997942,96.65123760001734,left,1.0,16.683170899981633,,96.65183350001462,96.66652159998192,97.16655810002705,97.15096970001468,,,,,,,,,,,,,,,,,,,,,,,,,,,sub-170,1.0,random_dot,59.94797713315364,
left,left,,7.0,0.0,14.0,0.0,,,,,,,,,97.16655810002705,,,,,,,,,97.15146169997752,97.51635569997596,98.31701800000155,98.30057050002506,98.30059409997192,98.31701800000155,98.31701800000155,98.31701800000155,101.71759989997372,right,0.0,18.125557999999728,,101.717933500011,101.73356339999008,102.23365429998375,102.21709990000818,,,,,,,,,,,,,,,,,,,,,,,,,,,sub-170,1.0,random_dot,59.94797713315364,
right,right,,7.0,1.0,15.0,1.0,,,,,,,,,102.23365429998375,,,,,,,,,102.21742679999444,103.43309170001884,104.23345070000504,104.21705400000792,104.21707930002594,104.23345070000504,104.23345070000504,104.23345070000504,107.8682259999914,right,1.0,18.35011169995414,,107.86873919999924,107.88334020000184,108.3831349000102,108.36719469999662,,,,,,,,,,,,,,,,,,,,,,,,,,,sub-170,1.0,random_dot,59.94797713315364,
right,right,,8.0,0.0,16.0,1.0,,,,,,,,,108.3831349000102,,,,,,,,,108.36750390002273,108.4833718999871,109.2834413999808,109.26681579998694,109.26683049998246,109.2834413999808,109.2834413999808,109.2834413999808,110.66791120002743,right,1.0,16.1004699000041,,110.66844510001827,110.68305099999998,111.18319259997224,111.16720229998464,,,,,,,,,,,,,,,,,,,,,,,,,,,sub-170,1.0,random_dot,59.94797713315364,
left,left,,8.0,1.0,17.0,0.0,,,,,,,,,111.18319259997224,,,,,,,,,111.16766179999104,111.28342910000356,112.08391149999808,112.06846460001545,112.06848080002236,112.08391149999808,112.08391149999808,112.08391149999808,113.01839899999322,left,1.0,15.649443299975246,,113.0191209000186,113.0333757000044,113.53314910002518,113.51716559997294,,,,,,,,,,,,,,,,,,,,,,,,,,,sub-170,1.0,random_dot,59.94797713315364,
right,right,,9.0,0.0,18.0,1.0,,,,,,,,,113.53314910002518,,,,,,,,,113.51769700000295,113.63323689997196,114.43400649999968,114.41713040001925,114.41715310001746,114.43400649999968,114.43400649999968,114.43400649999968,115.38432680000552,right,1.0,15.665569200005848,,115.38498610001989,115.40020159998676,115.9000777999754,115.8835653999704,,,,,,,,,,,,,,,,,,,,,,,,,,,sub-170,1.0,random_dot,59.94797713315364,
left,left,,9.0,1.0,19.0,0.0,,,,,,,,,115.9000777999754,,,,,,,,,115.8840451000142,116.69981780002126,117.50058950000675,117.48422169999684,117.4842494999757,117.50058950000675,117.50058950000675,117.50058950000675,118.21780490002128,left,1.0,15.432762500015087,,118.21856880001724,118.23336349998137,118.73337259999244,118.71735480002826,,,,,,,,,,,,,,,,,,,,,,,,,,,sub-170,1.0,random_dot,59.94797713315364,
,,,,,,,,,,,,,,,,,,,,,,,,,,,,,,,,,,,,,,,,,,118.71743319998497,118.73337259999244,118.73337259999244,125.58425289997832,space,21.57249629998114,,,,,,,,,,,,,,,,,,,,sub-170,1.0,random_dot,59.94797713315364,
,,,,,,,,,,,,,,,,,,,,,,,,,,,,,,,,,,,,,,,,,,,,,,,,,125.58430280000904,125.5999456999707,125.5999456999707,139.35173769999528,space,28.46693450002931,,,,,,,,,,,,,sub-170,1.0,random_dot,59.94797713315364,
right,right,accuracy,,,,,0.0,0.0,0.0,0.0,0.0,0.0,0.0,1.0,143.33358969999244,,,,,,,,,143.3261195999803,143.43342979997396,144.23366289999103,144.2173909000121,144.21740520000458,144.23366289999103,144.23366289999103,144.23366289999103,147.1181055000052,left,0.0,17.60347209998872,,,,,,,,,,,,,,,,,,,,,139.35722689999966,139.37582399998792,139.37582399998792,143.31872839998687,space,18.673417199985124,,,,,,sub-170,1.0,random_dot,59.94797713315364,
left,left,accuracy,,,,,0.0,0.0,0.0,0.0,0.0,1.0,1.0,0.0,147.13305629999377,,,,,,,,,147.11980649997713,147.9332582000061,148.73354960000142,148.71720610000193,148.7172332999762,148.73354960000142,148.73354960000142,148.73354960000142,150.6345601999783,left,1.0,16.626499600009993,,,,,,,,,,,,,,,,,,,,,,,,,,,,,,,,sub-170,1.0,random_dot,59.94797713315364,
left,left,accuracy,,,,,0.0,0.0,0.0,0.0,1.0,0.0,2.0,0.0,150.6500777999754,,,,,,,,,150.6358912999858,151.45051539997803,152.25014319998445,152.23373209999409,152.2337532999809,152.25014319998445,152.25014319998445,152.25014319998445,155.18473739997717,right,0.0,17.66163049999159,,,,,,,,,,,,,,,,,,,,,,,,,,,,,,,,sub-170,1.0,random_dot,59.94797713315364,
right,right,accuracy,,,,,0.0,0.0,0.0,0.0,1.0,1.0,3.0,1.0,155.19978229998378,,,,,,,,,155.18591519998154,155.54975559999002,156.35061079997104,156.33424649998778,156.3342782999971,156.35061079997104,156.35061079997104,156.35061079997104,159.21802289999323,right,1.0,17.590289999963716,,,,,,,,,,,,,,,,,,,,,,,,,,,,,,,,sub-170,1.0,random_dot,59.94797713315364,
left,left,accuracy,,,,,0.0,0.0,0.0,0.0,2.0,0.0,4.0,0.0,159.23283549997723,,,,,,,,,159.21890699997311,159.5834765000036,160.38366519997362,160.36714759998722,160.36716849997174,160.38366519997362,160.38366519997362,160.38366519997362,162.16850889998022,left,1.0,16.515523299982306,,,,,,,,,,,,,,,,,,,,,,,,,,,,,,,,sub-170,1.0,random_dot,59.94797713315364,
right,right,accuracy,,,,,0.0,0.0,0.0,0.0,2.0,1.0,5.0,1.0,162.18303760001436,,,,,,,,,162.16977560002124,163.3833001999883,164.18385079997825,164.16736469999887,164.1673932999838,164.18385079997825,164.18385079997825,164.18385079997825,165.8515901999781,right,1.0,16.396359699952882,,,,,,,,,,,,,,,,,,,,,,,,,,,,,,,,sub-170,1.0,random_dot,59.94797713315364,
right,right,accuracy,,,,,0.0,0.0,0.0,0.0,3.0,0.0,6.0,1.0,165.86651309998706,,,,,,,,,165.8528612999944,166.21679899998708,167.01684609998483,167.000245800009,167.00026820000494,167.01684609998483,167.01684609998483,167.01684609998483,170.43476540001575,right,1.0,18.138028699962888,,,,,,,,,,,,,,,,,,,,,,,,,,,,,,,,sub-170,1.0,random_dot,59.94797713315364,
left,left,accuracy,,,,,0.0,0.0,0.0,0.0,3.0,1.0,7.0,0.0,170.450009400025,,,,,,,,,170.435329800006,170.80009570001857,171.60037350002676,171.58413759997347,171.5841663000174,171.60037350002676,171.60037350002676,171.60037350002676,173.05115489999298,left,1.0,16.172686699952465,,,,,,,,,,,,,,,,,,,,,,,,,,,,,,,,sub-170,1.0,random_dot,59.94797713315364,
left,left,accuracy,,,,,0.0,0.0,0.0,0.0,4.0,0.0,8.0,0.0,173.06658520002384,,,,,,,,,173.0524865000043,173.86657309997827,174.66684289998375,174.65076490002684,174.6507849000045,174.66684289998375,174.66684289998375,174.66684289998375,175.9183444000082,right,0.0,15.98078349995194,,,,,,,,,,,,,,,,,,,,,,,,,,,,,,,,sub-170,1.0,random_dot,59.94797713315364,
right,right,accuracy,,,,,0.0,0.0,0.0,0.0,4.0,1.0,9.0,1.0,175.93335200002184,,,,,,,,,175.91939649998676,176.2832894999883,177.08383630000753,177.06741999997757,177.06744379998418,177.08383630000753,177.08383630000753,177.08383630000753,178.61813239997718,right,1.0,16.25057510001352,,,,,,,,,,,,,,,,,,,,,,,,,,,,,,,,sub-170,1.0,random_dot,59.94797713315364,
left,left,accuracy,,,,,0.0,0.0,0.0,0.0,5.0,0.0,10.0,0.0,178.63309229997685,,,,,,,,,178.6192992000142,178.73334460001206,179.53366050001932,179.5174004000146,179.51743200002238,179.53366050001932,179.53366050001932,179.53366050001932,180.50076439999972,left,1.0,15.68759190000128,,,,,,,,,,,,,,,,,,,,,,,,,,,,,,,,sub-170,1.0,random_dot,59.94797713315364,
right,right,accuracy,,,,,0.0,0.0,0.0,0.0,5.0,1.0,11.0,1.0,180.51664420001907,,,,,,,,,180.50126809999347,181.700163099973,182.50034939998292,182.48330560000613,182.48332880000817,182.50034939998292,182.50034939998292,182.50034939998292,183.23452860000543,right,1.0,15.46081130002858,,,,,,,,,,,,,,,,,,,,,,,,,,,,,,,,sub-170,1.0,random_dot,59.94797713315364,
left,left,accuracy,,,,,0.0,0.0,0.0,0.0,6.0,0.0,12.0,0.0,183.24985010002277,,,,,,,,,183.2354218999972,183.59982659999517,184.4002179999952,184.38388249999844,184.38390840002103,184.4002179999952,184.4002179999952,184.4002179999952,185.0511607999797,left,1.0,15.366317000007257,,,,,,,,,,,,,,,,,,,,,,,,,,,,,,,,sub-170,1.0,random_dot,59.94797713315364,
right,right,accuracy,,,,,0.0,0.0,0.0,0.0,6.0,1.0,13.0,1.0,185.06644460000095,,,,,,,,,185.05238880001707,186.26659660000587,187.066738500027,187.0507336999872,187.0507555999793,187.066738500027,187.066738500027,187.066738500027,187.70077559998023,right,1.0,15.356379699951503,,,,,,,,,,,,,,,,,,,,,,,,,,,,,,,,sub-170,1.0,random_dot,59.94797713315364,
right,right,accuracy,,,,,0.0,0.0,0.0,0.0,7.0,0.0,14.0,1.0,187.71662090002792,,,,,,,,,187.70135240000675,188.06636669998989,188.8671114000026,188.85033029998883,188.85035750002132,188.8671114000026,188.8671114000026,188.8671114000026,190.2348966000136,right,1.0,16.097256399982143,,,,,,,,,,,,,,,,,,,,,,,,,,,,,,,,sub-170,1.0,random_dot,59.94797713315364,
left,left,accuracy,,,,,0.0,0.0,0.0,0.0,7.0,1.0,15.0,0.0,190.2499898999813,,,,,,,,,190.2364905999857,191.44982239999808,192.2505254999851,192.23387320002075,192.23389590001895,192.2505254999851,192.2505254999851,192.2505254999851,193.18473969999468,left,1.0,15.651715799991509,,,,,,,,,,,,,,,,,,,,,,,,,,,,,,,,sub-170,1.0,random_dot,59.94797713315364,
left,left,accuracy,,,,,0.0,0.0,0.0,0.0,8.0,0.0,16.0,0.0,193.19978859997357,,,,,,,,,193.1856030999916,193.99969319999215,194.80001659999837,194.78401040000608,194.78402359999015,194.80001659999837,194.80001659999837,194.80001659999837,195.86816120002183,right,0.0,15.796532300009858,,,,,,,,,,,,,,,,,,,,,,,,,,,,,,,,sub-170,1.0,random_dot,59.94797713315364,
right,right,accuracy,,,,,0.0,0.0,0.0,0.0,8.0,1.0,17.0,1.0,195.8833804000169,,,,,,,,,195.86946670000907,196.23337560001528,197.03367550001715,197.01710739999544,197.0171353999758,197.03367550001715,197.03367550001715,197.03367550001715,199.18470749998232,right,1.0,16.872077699983492,,,,,,,,,,,,,,,,,,,,,,,,,,,,,,,,sub-170,1.0,random_dot,59.94797713315364,
left,left,accuracy,,,,,0.0,0.0,0.0,0.0,9.0,0.0,18.0,0.0,199.20009370002663,,,,,,,,,199.18587430001932,200.0001317000133,200.80022839998128,200.783971900004,200.7839911999763,200.80022839998128,200.80022839998128,200.80022839998128,202.88545439997688,left,1.0,16.815737900033128,,,,,,,,,,,,,,,,,,,,,,,,,,,,,,,,sub-170,1.0,random_dot,59.94797713315364,
right,right,accuracy,,,,,0.0,0.0,0.0,0.0,9.0,1.0,19.0,1.0,202.89982200000668,,,,,,,,,202.8870564000099,203.6998560000211,204.50024909997592,204.48379139998,204.48381730000256,204.50024909997592,204.50024909997592,204.50024909997592,205.9513346999884,right,1.0,16.181590299936943,,,,,,,,,,,,,,,,,,,,,,,,,,,,,,,,sub-170,1.0,random_dot,59.94797713315364,
left,left,accuracy,,,,,0.0,0.0,0.0,0.0,10.0,0.0,20.0,0.0,205.9664830000256,,,,,,,,,205.9521067999885,206.06644959998084,206.86694139998872,206.8507755000028,206.85080140002535,206.86694139998872,206.86694139998872,206.86694139998872,209.934411299997,left,1.0,17.792679799953476,,,,,,,,,,,,,,,,,,,,,,,,,,,,,,,,sub-170,1.0,random_dot,59.94797713315364,
right,right,accuracy,,,,,0.0,0.0,0.0,0.0,10.0,1.0,21.0,1.0,209.94977070001187,,,,,,,,,209.93550040002447,210.2998672000249,211.1006943000248,211.0837641999824,211.08378839999205,211.1006943000248,211.1006943000248,211.1006943000248,211.81785779999336,right,1.0,15.441203800030053,,,,,,,,,,,,,,,,,,,,,,,,,,,,,,,,sub-170,1.0,random_dot,59.94797713315364,
left,left,accuracy,,,,,0.0,0.0,0.0,0.0,11.0,0.0,22.0,0.0,211.83324429998171,,,,,,,,,211.81870050000725,211.9334284000215,212.7337776999921,212.7171497999807,212.717169200012,212.7337776999921,212.7337776999921,212.7337776999921,214.38471710000888,left,1.0,16.370926100004,,,,,,,,,,,,,,,,,,,,,,,,,,,,,,,,sub-170,1.0,random_dot,59.94797713315364,
right,right,accuracy,,,,,0.0,0.0,0.0,0.0,11.0,1.0,23.0,1.0,214.3998083000188,,,,,,,,,214.38598249998176,215.6000371000264,216.4002590000164,216.3836922000046,216.38370539998868,216.4002590000164,216.4002590000164,216.4002590000164,217.3680514000007,right,1.0,15.695818599953782,,,,,,,,,,,,,,,,,,,,,,,,,,,,,,,,sub-170,1.0,random_dot,59.94797713315364,
right,right,accuracy,,,,,0.0,0.0,0.0,0.0,12.0,0.0,24.0,1.0,217.3835534999962,,,,,,,,,217.36941560002745,217.4834581000032,218.28389540000356,218.26716109999688,218.2671892999788,218.28389540000356,218.28389540000356,218.28389540000356,219.53456780000124,right,1.0,15.977722700044978,,,,,,,,,,,,,,,,,,,,,,,,,,,,,,,,sub-170,1.0,random_dot,59.94797713315364,
left,left,accuracy,,,,,0.0,0.0,0.0,0.0,12.0,1.0,25.0,0.0,219.5498030000017,,,,,,,,,219.53563090000532,219.6502925999812,220.4502291000099,220.43413700000383,220.43416669999715,220.4502291000099,220.4502291000099,220.4502291000099,221.2844779000152,left,1.0,15.55630369996652,,,,,,,,,,,,,,,,,,,,,,,,,,,,,,,,sub-170,1.0,random_dot,59.94797713315364,
left,left,accuracy,,,,,0.0,0.0,0.0,0.0,13.0,0.0,26.0,0.0,221.2996822000132,,,,,,,,,221.28559019998647,222.50054239999736,223.30048919998808,223.28388419997648,223.28390079998644,223.30048919998808,223.30048919998808,223.30048919998808,225.21851079998305,left,1.0,16.643701899971347,,,,,,,,,,,,,,,,,,,,,,,,,,,,,,,,sub-170,1.0,random_dot,59.94797713315364,
right,right,accuracy,,,,,0.0,0.0,0.0,0.0,13.0,1.0,27.0,1.0,225.23335240001325,,,,,,,,,225.21926939999685,225.3329988999758,226.13349039998135,226.11714679998116,226.117168799974,226.13349039998135,226.13349039998135,226.13349039998135,227.31794350000564,right,1.0,15.906430099974386,,,,,,,,,,,,,,,,,,,,,,,,,,,,,,,,sub-170,1.0,random_dot,59.94797713315364,
left,left,accuracy,,,,,0.0,0.0,0.0,0.0,14.0,0.0,28.0,0.0,227.33357900002736,,,,,,,,,227.31887429999188,227.43334240000692,228.2335545999813,228.21681249997343,228.21684379997896,228.2335545999813,228.2335545999813,228.2335545999813,229.26801270002036,left,1.0,15.757001999998463,,,,,,,,,,,,,,,,,,,,,,,,,,,,,,,,sub-170,1.0,random_dot,59.94797713315364,
right,right,accuracy,,,,,0.0,0.0,0.0,0.0,14.0,1.0,29.0,1.0,229.2831547000096,,,,,,,,,229.2687088000239,229.633785300015,230.43378149997443,230.4173169999849,230.41734380001435,230.43378149997443,230.43378149997443,230.43378149997443,231.38455299998168,right,1.0,15.678498299967032,,,,,,,,,,,,,,,,,,,,,,,,,,,,,,,,sub-170,1.0,random_dot,59.94797713315364,
left,left,accuracy,,,,,0.0,0.0,0.0,0.0,15.0,0.0,30.0,0.0,231.4001461999724,,,,,,,,,231.385659600026,232.1998340999708,233.00080989999697,232.9840763999964,232.98410270002205,233.00080989999697,233.00080989999697,233.00080989999697,233.66807469999185,left,1.0,15.38751189998584,,,,,,,,,,,,,,,,,,,,,,,,,,,,,,,,sub-170,1.0,random_dot,59.94797713315364,
right,right,accuracy,,,,,0.0,0.0,0.0,0.0,15.0,1.0,31.0,1.0,233.6831098999828,,,,,,,,,233.66971869999543,234.8831759999739,235.68356899998616,235.6672518000123,235.667276000022,235.68356899998616,235.68356899998616,235.68356899998616,236.2348841999774,right,1.0,15.277667400019707,,,,,,,,,,,,,,,,,,,,,,,,,,,,,,,,sub-170,1.0,random_dot,59.94797713315364,
right,right,accuracy,,,,,0.0,0.0,0.0,0.0,16.0,0.0,32.0,1.0,236.24966590001716,,,,,,,,,236.23595429997656,236.5999837000272,237.4003608999774,237.38385599997127,237.38388819998363,237.4003608999774,237.4003608999774,237.4003608999774,238.46815989998868,right,1.0,15.786243200011086,,,,,,,,,,,,,,,,,,,,,,,,,,,,,,,,sub-170,1.0,random_dot,59.94797713315364,
left,left,accuracy,,,,,0.0,0.0,0.0,0.0,16.0,1.0,33.0,0.0,238.4832109999843,,,,,,,,,238.4695281999884,239.68323379999487,240.4835999999777,240.4672739999951,240.4672953999834,240.4835999999777,240.4835999999777,240.4835999999777,241.13440739997893,left,1.0,15.3701361999847,,,,,,,,,,,,,,,,,,,,,,,,,,,,,,,,sub-170,1.0,random_dot,59.94797713315364,
left,left,accuracy,,,,,0.0,0.0,0.0,0.0,17.0,0.0,34.0,0.0,241.14998950000157,,,,,,,,,241.13524999999208,242.3501427000156,243.15021940000588,243.13418210000964,243.134203499998,243.15021940000588,243.15021940000588,243.15021940000588,244.08594120002817,right,0.0,15.665695999981835,,,,,,,,,,,,,,,,,,,,,,,,,,,,,,,,sub-170,1.0,random_dot,59.94797713315364,
right,right,accuracy,,,,,0.0,0.0,0.0,0.0,17.0,1.0,35.0,1.0,244.0997532000183,,,,,,,,,244.08722809999017,244.19996330002323,245.000216400018,244.9835992999724,244.98361940000905,245.000216400018,245.000216400018,245.000216400018,248.5347802999895,right,1.0,18.249951499979943,,,,,,,,,,,,,,,,,,,,,,,,,,,,,,,,sub-170,1.0,random_dot,59.94797713315364,
right,right,accuracy,,,,,0.0,0.0,0.0,0.0,18.0,0.0,36.0,1.0,248.54988690000027,,,,,,,,,248.53581839997787,249.3499164999812,250.150184899976,250.13375460001407,250.13377820001915,250.150184899976,250.150184899976,250.150184899976,251.15109890000892,right,1.0,15.7177080999827,,,,,,,,,,,,,,,,,,,,,,,,,,,,,,,,sub-170,1.0,random_dot,59.94797713315364,
left,left,accuracy,,,,,0.0,0.0,0.0,0.0,18.0,1.0,37.0,0.0,251.16656139999395,,,,,,,,,251.1523304000148,251.51707449997772,252.31707519997144,252.30035029997816,252.30036639998437,252.31707519997144,252.31707519997144,252.31707519997144,253.43511309998576,left,1.0,15.84827519999817,,,,,,,,,,,,,,,,,,,,,,,,,,,,,,,,sub-170,1.0,random_dot,59.94797713315364,
left,left,accuracy,,,,,0.0,0.0,0.0,0.0,19.0,0.0,38.0,0.0,253.4497546000057,,,,,,,,,253.4359683999792,253.79981400002723,254.60076369997117,254.58429909998085,254.584323499992,254.60076369997117,254.60076369997117,254.60076369997117,256.80103859998053,left,1.0,16.925533200032078,,,,,,,,,,,,,,,,,,,,,,,,,,,,,,,,sub-170,1.0,random_dot,59.94797713315364,
right,right,accuracy,,,,,0.0,0.0,0.0,0.0,19.0,1.0,39.0,1.0,256.8164509999915,,,,,,,,,256.8015969999833,258.0165923999739,258.8169514000183,258.800661700021,258.80067889997736,258.8169514000183,258.8169514000183,258.8169514000183,259.80162380001275,right,1.0,15.7139390000375,,,,,,,,,,,,,,,,,,,,,,,,,,,,,,,,sub-170,1.0,random_dot,59.94797713315364,
left,left,accuracy,,,,,0.0,0.0,0.0,0.0,20.0,0.0,40.0,0.0,259.81655849999515,,,,,,,,,259.80307710001944,260.1667396000121,260.9670656999806,260.9507276000222,260.9507589999703,260.9670656999806,260.9670656999806,260.9670656999806,261.63497040001675,left,1.0,15.392573899996933,,,,,,,,,,,,,,,,,,,,,,,,,,,,,,,,sub-170,1.0,random_dot,59.94797713315364,
right,right,accuracy,,,,,0.0,0.0,0.0,0.0,20.0,1.0,41.0,1.0,261.6500499999965,,,,,,,,,261.6360985999927,261.7502691000118,262.55041349999374,262.5334924000199,262.5335141000105,262.55041349999374,262.55041349999374,262.55041349999374,263.1344163999893,right,1.0,15.306034499953968,,,,,,,,,,,,,,,,,,,,,,,,,,,,,,,,sub-170,1.0,random_dot,59.94797713315364,
left,left,accuracy,,,,,0.0,0.0,0.0,0.0,21.0,0.0,42.0,0.0,263.1500316999736,,,,,,,,,263.1355487999972,263.4999635000131,264.3003763000015,264.2842441999819,264.2842802000232,264.3003763000015,264.3003763000015,264.3003763000015,264.8683606000268,left,1.0,15.291909699968528,,,,,,,,,,,,,,,,,,,,,,,,,,,,,,,,sub-170,1.0,random_dot,59.94797713315364,
right,right,accuracy,,,,,0.0,0.0,0.0,0.0,21.0,1.0,43.0,1.0,264.88321240001824,,,,,,,,,264.868928299984,265.2334837000235,266.0338915999746,266.01711459999206,266.0171299999929,266.0338915999746,266.0338915999746,266.0338915999746,266.5677064000047,right,1.0,15.263648399966767,,,,,,,,,,,,,,,,,,,,,,,,,,,,,,,,sub-170,1.0,random_dot,59.94797713315364,
right,right,accuracy,,,,,0.0,0.0,0.0,0.0,22.0,0.0,44.0,1.0,266.58336099999724,,,,,,,,,266.56833290000213,267.3831607999746,268.18377469998086,268.16737460001605,268.16740099998424,268.18377469998086,268.18377469998086,268.18377469998086,269.2011530000018,right,1.0,15.74194710003212,,,,,,,,,,,,,,,,,,,,,,,,,,,,,,,,sub-170,1.0,random_dot,59.94797713315364,
left,left,accuracy,,,,,0.0,0.0,0.0,0.0,22.0,1.0,45.0,0.0,269.2166720000096,,,,,,,,,269.20188690000214,269.3166463000234,270.1169253999833,270.1006132999901,270.10063639999134,270.1169253999833,270.1169253999833,270.1169253999833,271.0850494999904,left,1.0,15.695109499967655,,,,,,,,,,,,,,,,,,,,,,,,,,,,,,,,sub-170,1.0,random_dot,59.94797713315364,
left,left,accuracy,,,,,0.0,0.0,0.0,0.0,23.0,0.0,46.0,0.0,271.09970780002186,,,,,,,,,271.08595749997767,271.45014169998467,272.25035739998566,272.2340496000252,272.2340648000245,272.25035739998566,272.25035739998566,272.25035739998566,273.0016786999768,right,0.0,15.47952890000306,,,,,,,,,,,,,,,,,,,,,,,,,,,,,,,,sub-170,1.0,random_dot,59.94797713315364,
right,right,accuracy,,,,,0.0,0.0,0.0,0.0,23.0,1.0,47.0,1.0,273.01654829998733,,,,,,,,,273.0027466000174,274.21714470000006,275.0171626000083,275.00030000001425,275.000333199976,275.0171626000083,275.0171626000083,275.0171626000083,275.8519570999779,right,1.0,15.55880250001792,,,,,,,,,,,,,,,,,,,,,,,,,,,,,,,,sub-170,1.0,random_dot,59.94797713315364,
left,left,accuracy,,,,,0.0,0.0,0.0,0.0,24.0,0.0,48.0,0.0,275.8665464000078,,,,,,,,,275.8530644000275,277.066867800022,277.86694550001994,277.8507269999827,277.8507578999852,277.86694550001994,277.86694550001994,277.86694550001994,278.7346609000233,left,1.0,15.585605799977202,,,,,,,,,,,,,,,,,,,,,,,,,,,,,,,,sub-170,1.0,random_dot,59.94797713315364,
right,right,accuracy,,,,,0.0,0.0,0.0,0.0,24.0,1.0,49.0,1.0,278.7503266999847,,,,,,,,,278.7352493000217,278.8495977999992,279.65041529998416,279.6343614999787,279.63438750000205,279.65041529998416,279.65041529998416,279.65041529998416,280.21808419999434,right,1.0,15.287702000001444,,,,,,,,,,,,,,,,,,,,,,,,,,,,,,,,sub-170,1.0,random_dot,59.94797713315364,
right,right,accuracy,,,,,0.0,0.0,0.0,0.0,25.0,0.0,50.0,1.0,280.2334824000136,,,,,,,,,280.21916440001223,280.58316540002124,281.38396860001376,281.3669146000175,281.3669381000218,281.38396860001376,281.38396860001376,281.38396860001376,282.2177756999736,right,1.0,15.555767400015611,,,,,,,,,,,,,,,,,,,,,,,,,,,,,,,,sub-170,1.0,random_dot,59.94797713315364,
left,left,accuracy,,,,,0.0,0.0,0.0,0.0,25.0,1.0,51.0,0.0,282.2332289000042,,,,,,,,,282.2189848999842,282.5833041999722,283.3837926000124,283.3668380000163,283.36685639998177,283.3837926000124,283.3837926000124,283.3837926000124,284.10159390000626,right,0.0,15.448117099993397,,,,,,,,,,,,,,,,,,,,,,,,,,,,,,,,sub-170,1.0,random_dot,59.94797713315364,
right,right,accuracy,,,,,0.0,0.0,0.0,0.0,26.0,0.0,52.0,1.0,284.11642019997817,,,,,,,,,284.10212509997655,284.2168026000145,285.01707529998384,285.0006035999977,285.00062940001953,285.01707529998384,285.01707529998384,285.01707529998384,285.61807319999207,right,1.0,15.328650199982803,,,,,,,,,,,,,,,,,,,,,,,,,,,,,,,,sub-170,1.0,random_dot,59.94797713315364,
left,left,accuracy,,,,,0.0,0.0,0.0,0.0,26.0,1.0,53.0,0.0,285.6330601000227,,,,,,,,,285.61864220001735,285.9830882999813,286.7840779999969,286.76743910001824,286.7674552000244,286.7840779999969,286.7840779999969,286.7840779999969,287.934611100005,left,1.0,15.87491900002351,,,,,,,,,,,,,,,,,,,,,,,,,,,,,,,,sub-170,1.0,random_dot,59.94797713315364,
left,left,accuracy,,,,,0.0,0.0,0.0,0.0,27.0,0.0,54.0,0.0,287.94985709997127,,,,,,,,,287.9353480999707,288.7497971000266,289.5505921000149,289.5336354000028,289.5336628999794,289.5505921000149,289.5505921000149,289.5505921000149,290.5018495999975,left,1.0,15.670621699944604,,,,,,,,,,,,,,,,,,,,,,,,,,,,,,,,sub-170,1.0,random_dot,59.94797713315364,
right,right,accuracy,,,,,0.0,0.0,0.0,0.0,27.0,1.0,55.0,1.0,290.51679530000547,,,,,,,,,290.50240709999343,290.8669839000213,291.6673340999987,291.6507841999992,291.6508097000187,291.6673340999987,291.6673340999987,291.6673340999987,292.501459799998,right,1.0,15.55670650000684,,,,,,,,,,,,,,,,,,,,,,,,,,,,,,,,sub-170,1.0,random_dot,59.94797713315364,
left,left,accuracy,,,,,0.0,0.0,0.0,0.0,28.0,0.0,56.0,0.0,292.51678579999134,,,,,,,,,292.5022497000173,292.6166040999815,293.4169739999925,293.40045860002283,293.4004857999971,293.4169739999925,293.4169739999925,293.4169739999925,294.10146430000896,left,1.0,15.410379600012677,,,,,,,,,,,,,,,,,,,,,,,,,,,,,,,,sub-170,1.0,random_dot,59.94797713315364,
right,right,accuracy,,,,,0.0,0.0,0.0,0.0,28.0,1.0,57.0,1.0,294.1169087999733,,,,,,,,,294.1023399999831,294.4666061999742,295.26726749999216,295.25109689997043,295.2511188000208,295.26726749999216,295.26726749999216,295.26726749999216,295.91785690002143,right,1.0,15.369720600021536,,,,,,,,,,,,,,,,,,,,,,,,,,,,,,,,sub-170,1.0,random_dot,59.94797713315364,
left,left,accuracy,,,,,0.0,0.0,0.0,0.0,29.0,0.0,58.0,0.0,295.93319670000346,,,,,,,,,295.9190712000127,296.0334779000259,296.8336578999879,296.8171979999752,296.8172262000153,296.8336578999879,296.8336578999879,296.8336578999879,297.38434559997404,left,1.0,15.275014800019562,,,,,,,,,,,,,,,,,,,,,,,,,,,,,,,,sub-170,1.0,random_dot,59.94797713315364,
right,right,accuracy,,,,,0.0,0.0,0.0,0.0,29.0,1.0,59.0,1.0,297.4001111999969,,,,,,,,,297.38527289999183,297.50027359998785,298.30049370002234,298.2842256000149,298.2842508999747,298.30049370002234,298.30049370002234,298.30049370002234,298.7679877000046,right,1.0,15.1953288000077,,,,,,,,,,,,,,,,,,,,,,,,,,,,,,,,sub-170,1.0,random_dot,59.94797713315364,
,,accuracy,,,,,0.0,0.0,0.0,0.0,,,,,,,,,,,,,,,,,,,,,,,,,,,,,,,,,,,,,,,,,,,,,,,,,,,,,,,,,sub-170,1.0,random_dot,59.94797713315364,
right,right,speed,,,,,0.0,1.0,1.0,1.0,0.0,0.0,0.0,1.0,303.13304759998573,,,,,,,,,303.1233660000144,303.93331420002505,304.73373109998647,304.7169113000273,304.71692769997753,304.73373109998647,304.73373109998647,304.73373109998647,305.2014906000113,right,1.0,15.189783999987412,,,,,,,,,,,,,,,,,,,,,298.7690567999962,298.7834468000219,298.7834468000219,303.1172391999862,space,19.059819699963555,,,,,,sub-170,1.0,random_dot,59.94797713315364,
left,left,speed,,,,,0.0,1.0,1.0,1.0,0.0,1.0,1.0,0.0,305.2166076999856,,,,,,,,,305.2029630999896,306.0168035000097,306.8168288000161,306.80069270002423,306.8007085999707,306.8168288000161,306.8168288000161,306.8168288000161,307.2182090000133,left,1.0,15.128083599964157,,,,,,,,,,,,,,,,,,,,,,,,,,,,,,,,sub-170,1.0,random_dot,59.94797713315364,
right,right,speed,,,,,0.0,1.0,1.0,1.0,1.0,0.0,2.0,1.0,307.2334567999933,,,,,,,,,307.21942769997986,307.3332853000029,308.1336663999828,308.1172498000087,308.11727039999096,308.1336663999828,308.1336663999828,308.1336663999828,308.6513912000228,right,1.0,15.238053099950776,,,,,,,,,,,,,,,,,,,,,,,,,,,,,,,,sub-170,1.0,random_dot,59.94797713315364,
left,left,speed,,,,,0.0,1.0,1.0,1.0,1.0,1.0,3.0,0.0,308.666880099976,,,,,,,,,308.6524560999824,309.8663735999726,310.66689019999467,310.65071179997176,310.65072530001635,310.66689019999467,310.66689019999467,310.66689019999467,311.134438899986,left,1.0,15.187983400013763,,,,,,,,,,,,,,,,,,,,,,,,,,,,,,,,sub-170,1.0,random_dot,59.94797713315364,
right,right,speed,,,,,0.0,1.0,1.0,1.0,2.0,0.0,4.0,1.0,311.1500961999991,,,,,,,,,311.13539010001114,311.25026870000875,312.0505439999979,312.03411240002606,312.0341365999775,312.0505439999979,312.0505439999979,312.0505439999979,312.43509809998795,right,1.0,15.102282000007108,,,,,,,,,,,,,,,,,,,,,,,,,,,,,,,,sub-170,1.0,random_dot,59.94797713315364,
left,left,speed,,,,,0.0,1.0,1.0,1.0,2.0,1.0,5.0,0.0,312.44972989999224,,,,,,,,,312.4356420999975,312.79998060001526,313.60051660001045,313.5838350999984,313.583861000021,313.60051660001045,313.60051660001045,313.60051660001045,314.018349400023,left,1.0,15.144410500011873,,,,,,,,,,,,,,,,,,,,,,,,,,,,,,,,sub-170,1.0,random_dot,59.94797713315364,
left,left,speed,,,,,0.0,1.0,1.0,1.0,3.0,0.0,6.0,0.0,314.03324489999795,,,,,,,,,314.01890239998465,315.23377260001143,316.03370149998227,316.0179850999848,316.0180142999743,316.03370149998227,316.03370149998227,316.03370149998227,316.8682299000211,right,0.0,15.56436209997628,,,,,,,,,,,,,,,,,,,,,,,,,,,,,,,,sub-170,1.0,random_dot,59.94797713315364,
right,right,speed,,,,,0.0,1.0,1.0,1.0,3.0,1.0,7.0,1.0,316.8833359000273,,,,,,,,,316.8694351000013,317.23333010001807,318.0336528000189,318.0172962999786,318.0173230000073,318.0336528000189,318.0336528000189,318.0336528000189,318.8512891000137,right,1.0,15.539754800032824,,,,,,,,,,,,,,,,,,,,,,,,,,,,,,,,sub-170,1.0,random_dot,59.94797713315364,
left,left,speed,,,,,0.0,1.0,1.0,1.0,4.0,0.0,8.0,0.0,318.8663728000247,,,,,,,,,318.8520318000228,319.21664230001625,320.0169062999776,320.0008445999701,320.00086009997176,320.0169062999776,320.0169062999776,320.0169062999776,320.85146590002114,left,1.0,15.551818899984935,,,,,,,,,,,,,,,,,,,,,,,,,,,,,,,,sub-170,1.0,random_dot,59.94797713315364,
right,right,speed,,,,,0.0,1.0,1.0,1.0,4.0,1.0,9.0,1.0,320.8668286000029,,,,,,,,,320.8520286999992,321.2167279999703,322.0168673999724,322.00053129997104,322.00054759997874,322.0168673999724,322.0168673999724,322.0168673999724,322.6009627999738,right,1.0,15.307590499985965,,,,,,,,,,,,,,,,,,,,,,,,,,,,,,,,sub-170,1.0,random_dot,59.94797713315364,
left,left,speed,,,,,0.0,1.0,1.0,1.0,5.0,0.0,10.0,0.0,322.6167201999924,,,,,,,,,322.6017094000126,322.71683739998844,323.517243099981,323.5005068000173,323.50053700001445,323.517243099981,323.517243099981,323.517243099981,324.7011468000128,left,1.0,15.90263289998984,,,,,,,,,,,,,,,,,,,,,,,,,,,,,,,,sub-170,1.0,random_dot,59.94797713315364,
right,right,speed,,,,,0.0,1.0,1.0,1.0,5.0,1.0,11.0,1.0,324.71635719999904,,,,,,,,,324.7023578999797,325.91673170001013,326.7173765000189,326.700238200021,326.700256799988,326.7173765000189,326.7173765000189,326.7173765000189,327.31760499998927,right,1.0,15.32916970003862,,,,,,,,,,,,,,,,,,,,,,,,,,,,,,,,sub-170,1.0,random_dot,59.94797713315364,
left,left,speed,,,,,0.0,1.0,1.0,1.0,6.0,0.0,12.0,0.0,327.3333194999723,,,,,,,,,327.31817990000127,327.43336650001584,328.23382889997447,328.2171712000272,328.2171990000061,328.23382889997447,328.23382889997447,328.23382889997447,328.7019941000035,left,1.0,15.191086099948734,,,,,,,,,,,,,,,,,,,,,,,,,,,,,,,,sub-170,1.0,random_dot,59.94797713315364,
right,right,speed,,,,,0.0,1.0,1.0,1.0,6.0,1.0,13.0,1.0,328.7164237999823,,,,,,,,,328.703112600022,328.81668430002173,329.617107899976,329.60078049998265,329.60080559999915,329.617107899976,329.617107899976,329.617107899976,329.9847903000191,right,1.0,15.09188930003438,,,,,,,,,,,,,,,,,,,,,,,,,,,,,,,,sub-170,1.0,random_dot,59.94797713315364,
right,right,speed,,,,,0.0,1.0,1.0,1.0,7.0,0.0,14.0,1.0,330.0004547999706,,,,,,,,,329.9853545000078,330.09972210001433,330.9006716000149,330.883905900002,330.8839262999827,330.9006716000149,330.9006716000149,330.9006716000149,331.2845437999931,left,0.0,15.10029609996127,,,,,,,,,,,,,,,,,,,,,,,,,,,,,,,,sub-170,1.0,random_dot,59.94797713315364,
left,left,speed,,,,,0.0,1.0,1.0,1.0,7.0,1.0,15.0,0.0,331.2996568999952,,,,,,,,,331.28560709999874,331.3998486999772,332.2002124999999,332.18379260000074,332.1838267000276,332.2002124999999,332.2002124999999,332.2002124999999,332.8346895999857,left,1.0,15.357850300031714,,,,,,,,,,,,,,,,,,,,,,,,,,,,,,,,sub-170,1.0,random_dot,59.94797713315364,
right,right,speed,,,,,0.0,1.0,1.0,1.0,8.0,0.0,16.0,1.0,332.8503015000024,,,,,,,,,332.8353006999823,333.6497874999768,334.4504118000041,334.4344144000206,334.4344535000273,334.4504118000041,334.4504118000041,334.4504118000041,334.95112979999976,right,1.0,15.227157399989665,,,,,,,,,,,,,,,,,,,,,,,,,,,,,,,,sub-170,1.0,random_dot,59.94797713315364,
left,left,speed,,,,,0.0,1.0,1.0,1.0,8.0,1.0,17.0,0.0,334.96673260000534,,,,,,,,,334.9522830999922,336.16638549999334,336.9671509999898,336.9508479000069,336.950866899977,336.9671509999898,336.9671509999898,336.9671509999898,337.48405169998296,left,1.0,15.23607370001264,,,,,,,,,,,,,,,,,,,,,,,,,,,,,,,,sub-170,1.0,random_dot,59.94797713315364,
left,left,speed,,,,,0.0,1.0,1.0,1.0,9.0,0.0,18.0,0.0,337.49994730000617,,,,,,,,,337.4845650999923,338.6835533999838,339.4840218999889,339.466865400027,339.4668776000035,339.4840218999889,339.4840218999889,339.4840218999889,339.96825719997287,right,0.0,15.206497100007256,,,,,,,,,,,,,,,,,,,,,,,,,,,,,,,,sub-170,1.0,random_dot,59.94797713315364,
right,right,speed,,,,,0.0,1.0,1.0,1.0,9.0,1.0,19.0,1.0,339.98361009999644,,,,,,,,,339.9688139000209,340.0834920000052,340.8837481000228,340.8669413999887,340.86696229997324,340.8837481000228,340.8837481000228,340.8837481000228,341.58476120000705,right,1.0,15.424054700008128,,,,,,,,,,,,,,,,,,,,,,,,,,,,,,,,sub-170,1.0,random_dot,59.94797713315364,
left,left,speed,,,,,0.0,1.0,1.0,1.0,10.0,0.0,20.0,0.0,341.59999110002536,,,,,,,,,341.5853438000195,341.6999969999888,342.5004431999987,342.4838544999948,342.4838756999816,342.5004431999987,342.5004431999987,342.5004431999987,343.0845854000072,left,1.0,15.306536799995229,,,,,,,,,,,,,,,,,,,,,,,,,,,,,,,,sub-170,1.0,random_dot,59.94797713315364,
right,right,speed,,,,,0.0,1.0,1.0,1.0,10.0,1.0,21.0,1.0,343.0999219000223,,,,,,,,,343.08523650001734,344.2998429000145,345.1001601999742,345.08402150002075,345.0840415999992,345.1001601999742,345.1001601999742,345.1001601999742,345.5512959000189,right,1.0,15.168709199992009,,,,,,,,,,,,,,,,,,,,,,,,,,,,,,,,sub-170,1.0,random_dot,59.94797713315364,
left,left,speed,,,,,0.0,1.0,1.0,1.0,11.0,0.0,22.0,0.0,345.5665879999869,,,,,,,,,345.55247059999965,346.3667524000048,347.167414000025,347.15035479998915,347.1503741000197,347.167414000025,347.167414000025,347.167414000025,347.5847610000055,left,1.0,15.140129200008232,,,,,,,,,,,,,,,,,,,,,,,,,,,,,,,,sub-170,1.0,random_dot,59.94797713315364,
right,right,speed,,,,,0.0,1.0,1.0,1.0,11.0,1.0,23.0,1.0,347.6002436000272,,,,,,,,,347.5858464000048,348.4004176000017,349.20052650000434,349.1842361000017,349.1842602000106,349.20052650000434,349.20052650000434,349.20052650000434,349.7178311999887,right,1.0,15.236165800015442,,,,,,,,,,,,,,,,,,,,,,,,,,,,,,,,sub-170,1.0,random_dot,59.94797713315364,
left,left,speed,,,,,0.0,1.0,1.0,1.0,12.0,0.0,24.0,0.0,349.73346469999524,,,,,,,,,349.71848669997416,350.53329980000854,351.3337855999707,351.3171728000161,351.31718670000555,351.3337855999707,351.3337855999707,351.3337855999707,351.76780229998985,left,1.0,15.154105800029356,,,,,,,,,,,,,,,,,,,,,,,,,,,,,,,,sub-170,1.0,random_dot,59.94797713315364,
right,right,speed,,,,,0.0,1.0,1.0,1.0,12.0,1.0,25.0,1.0,351.7834359999979,,,,,,,,,351.7689444000134,351.88318080001045,352.6837037000223,352.6674295000266,352.66745040001115,352.6837037000223,352.6837037000223,352.6837037000223,352.98483929998474,right,1.0,15.028322600002866,,,,,,,,,,,,,,,,,,,,,,,,,,,,,,,,sub-170,1.0,random_dot,59.94797713315364,
right,right,speed,,,,,0.0,1.0,1.0,1.0,13.0,0.0,26.0,1.0,352.9998741999734,,,,,,,,,352.98593059997074,353.0997805999941,353.90067020000424,353.88470549997874,353.8847333000158,353.90067020000424,353.90067020000424,353.90067020000424,354.4179185000248,right,1.0,15.236905400000978,,,,,,,,,,,,,,,,,,,,,,,,,,,,,,,,sub-170,1.0,random_dot,59.94797713315364,
left,left,speed,,,,,0.0,1.0,1.0,1.0,13.0,1.0,27.0,0.0,354.4333350000088,,,,,,,,,354.4186757999705,355.2334294000175,356.0337216000189,356.01724549999926,356.01727630000096,356.0337216000189,356.0337216000189,356.0337216000189,356.60181879997253,left,1.0,15.286716799950227,,,,,,,,,,,,,,,,,,,,,,,,,,,,,,,,sub-170,1.0,random_dot,59.94797713315364,
left,left,speed,,,,,0.0,1.0,1.0,1.0,14.0,0.0,28.0,0.0,356.6166110999766,,,,,,,,,356.60290749999695,357.81634399999166,358.6170985000208,358.6010015999782,358.6010268999962,358.6170985000208,358.6170985000208,358.6170985000208,359.60129489999963,left,1.0,15.714283899986183,,,,,,,,,,,,,,,,,,,,,,,,,,,,,,,,sub-170,1.0,random_dot,59.94797713315364,
right,right,speed,,,,,0.0,1.0,1.0,1.0,14.0,1.0,29.0,1.0,359.61646789999213,,,,,,,,,359.60182989999885,359.71644879999803,360.5171754999901,360.500245400006,360.5002583999885,360.5171754999901,360.5171754999901,360.5171754999901,361.0176934999763,right,1.0,15.222028299991509,,,,,,,,,,,,,,,,,,,,,,,,,,,,,,,,sub-170,1.0,random_dot,59.94797713315364,
left,left,speed,,,,,0.0,1.0,1.0,1.0,15.0,0.0,30.0,0.0,361.03361510002287,,,,,,,,,361.0182577000232,361.3831695999834,362.1839002000052,362.1676077999873,362.1676303999848,362.1839002000052,362.1839002000052,362.1839002000052,362.98463899997296,left,1.0,15.52280699997209,,,,,,,,,,,,,,,,,,,,,,,,,,,,,,,,sub-170,1.0,random_dot,59.94797713315364,
right,right,speed,,,,,0.0,1.0,1.0,1.0,15.0,1.0,31.0,1.0,363.0000722000259,,,,,,,,,362.9858644999913,364.1999721999746,365.0004822000046,364.9837719000061,364.9837980999728,365.0004822000046,365.0004822000046,365.0004822000046,365.3511684000259,right,1.0,15.074139699980153,,,,,,,,,,,,,,,,,,,,,,,,,,,,,,,,sub-170,1.0,random_dot,59.94797713315364,
right,right,speed,,,,,0.0,1.0,1.0,1.0,16.0,0.0,32.0,1.0,365.3665487000253,,,,,,,,,365.3517157000024,366.5668849999784,367.3669150000205,367.3502024000045,367.3502274000202,367.3669150000205,367.3669150000205,367.3669150000205,367.8012746999739,left,0.0,15.149244799977168,,,,,,,,,,,,,,,,,,,,,,,,,,,,,,,,sub-170,1.0,random_dot,59.94797713315364,
left,left,speed,,,,,0.0,1.0,1.0,1.0,16.0,1.0,33.0,0.0,367.8168183999951,,,,,,,,,367.8023060000269,368.6166749999975,369.41697229997953,369.4006716000149,369.40071419999,369.41697229997953,369.41697229997953,369.41697229997953,370.08447140001226,left,1.0,15.389466599968728,,,,,,,,,,,,,,,,,,,,,,,,,,,,,,,,sub-170,1.0,random_dot,59.94797713315364,
left,left,speed,,,,,0.0,1.0,1.0,1.0,17.0,0.0,34.0,0.0,370.10023979999823,,,,,,,,,370.085010699986,370.2001696000225,371.0004333999823,370.9839760999894,370.9839943000116,371.0004333999823,371.0004333999823,371.0004333999823,371.4851336000138,right,0.0,15.214359300036447,,,,,,,,,,,,,,,,,,,,,,,,,,,,,,,,sub-170,1.0,random_dot,59.94797713315364,
right,right,speed,,,,,0.0,1.0,1.0,1.0,17.0,1.0,35.0,1.0,371.49992430000566,,,,,,,,,371.4864549000049,372.6998901999905,373.50048340001376,373.4836224999744,373.4836421000073,373.50048340001376,373.50048340001376,373.50048340001376,374.1677956000203,right,1.0,15.394189699960409,,,,,,,,,,,,,,,,,,,,,,,,,,,,,,,,sub-170,1.0,random_dot,59.94797713315364,
right,right,speed,,,,,0.0,1.0,1.0,1.0,18.0,0.0,36.0,1.0,374.1830466000247,,,,,,,,,374.1688657000195,374.9837097999989,375.783847099985,375.76714389998233,375.7671567000216,375.783847099985,375.783847099985,375.783847099985,376.9014169999864,left,0.0,15.837125000020023,,,,,,,,,,,,,,,,,,,,,,,,,,,,,,,,sub-170,1.0,random_dot,59.94797713315364,
left,left,speed,,,,,0.0,1.0,1.0,1.0,18.0,1.0,37.0,0.0,376.91648740001256,,,,,,,,,376.9021581999841,378.116926799994,378.9170044999919,378.9007142999908,378.9007471000077,378.9170044999919,378.9170044999919,378.9170044999919,380.1016902999836,right,0.0,15.90357289998792,,,,,,,,,,,,,,,,,,,,,,,,,,,,,,,,sub-170,1.0,random_dot,59.94797713315364,
right,right,speed,,,,,0.0,1.0,1.0,1.0,19.0,0.0,38.0,1.0,380.1166284999927,,,,,,,,,380.10223690001294,380.2164676000248,381.0170843999949,381.000499900023,381.000527199998,381.0170843999949,381.0170843999949,381.0170843999949,381.8852964999969,left,0.0,15.598185000009837,,,,,,,,,,,,,,,,,,,,,,,,,,,,,,,,sub-170,1.0,random_dot,59.94797713315364,
left,left,speed,,,,,0.0,1.0,1.0,1.0,19.0,1.0,39.0,0.0,381.9000995000242,,,,,,,,,381.8860114000272,383.1001842999831,383.9003381999792,383.88402110000607,383.88404879998416,383.9003381999792,383.9003381999792,383.9003381999792,384.6014245999977,left,1.0,15.42262019996997,,,,,,,,,,,,,,,,,,,,,,,,,,,,,,,,sub-170,1.0,random_dot,59.94797713315364,
right,right,speed,,,,,0.0,1.0,1.0,1.0,20.0,0.0,40.0,1.0,384.6165890999837,,,,,,,,,384.60253719997127,385.816917499993,386.61725000001024,386.6004990999936,386.6005157000036,386.61725000001024,386.61725000001024,386.61725000001024,387.20189129997743,right,1.0,15.314821899984963,,,,,,,,,,,,,,,,,,,,,,,,,,,,,,,,sub-170,1.0,random_dot,59.94797713315364,
left,left,speed,,,,,0.0,1.0,1.0,1.0,20.0,1.0,41.0,0.0,387.21670539997285,,,,,,,,,387.2024553000229,388.416951399995,389.2171483000275,389.2007807000191,389.20080330001656,389.2171483000275,389.2171483000275,389.2171483000275,389.7848755000159,left,1.0,15.293730399978813,,,,,,,,,,,,,,,,,,,,,,,,,,,,,,,,sub-170,1.0,random_dot,59.94797713315364,
right,right,speed,,,,,0.0,1.0,1.0,1.0,21.0,0.0,42.0,1.0,389.799796700012,,,,,,,,,389.7858937000274,390.15006529999664,390.95049179997295,390.9338418000261,390.9338666999829,390.95049179997295,390.95049179997295,390.95049179997295,391.7513199999812,right,1.0,15.520438999985345,,,,,,,,,,,,,,,,,,,,,,,,,,,,,,,,sub-170,1.0,random_dot,59.94797713315364,
left,left,speed,,,,,0.0,1.0,1.0,1.0,21.0,1.0,43.0,0.0,391.7668072999804,,,,,,,,,391.7524876000243,391.8665868000244,392.66728639998473,392.650644999987,392.6506694999989,392.66728639998473,392.66728639998473,392.66728639998473,393.28510440001264,left,1.0,15.348662799980955,,,,,,,,,,,,,,,,,,,,,,,,,,,,,,,,sub-170,1.0,random_dot,59.94797713315364,
right,right,speed,,,,,0.0,1.0,1.0,1.0,22.0,0.0,44.0,1.0,393.299623799976,,,,,,,,,393.2864857999957,394.09994919999735,394.9004068999784,394.8850302000064,394.8850631000241,394.9004068999784,394.9004068999784,394.9004068999784,395.4347247999976,right,1.0,15.256325900030788,,,,,,,,,,,,,,,,,,,,,,,,,,,,,,,,sub-170,1.0,random_dot,59.94797713315364,
left,left,speed,,,,,0.0,1.0,1.0,1.0,22.0,1.0,45.0,0.0,395.44971620000433,,,,,,,,,395.435921300028,395.79982439999,396.600225000002,396.5837258999818,396.5837459000177,396.600225000002,396.600225000002,396.600225000002,396.90131099999417,left,1.0,15.02760929998476,,,,,,,,,,,,,,,,,,,,,,,,,,,,,,,,sub-170,1.0,random_dot,59.94797713315364,
right,right,speed,,,,,0.0,1.0,1.0,1.0,23.0,0.0,46.0,1.0,396.9168770000106,,,,,,,,,396.9022559999721,397.7165752999717,398.5168903999729,398.5004230000195,398.50044879998313,398.5168903999729,398.5168903999729,398.5168903999729,399.45098989998223,right,1.0,15.65984199999366,,,,,,,,,,,,,,,,,,,,,,,,,,,,,,,,sub-170,1.0,random_dot,59.94797713315364,
left,left,speed,,,,,0.0,1.0,1.0,1.0,23.0,1.0,47.0,0.0,399.46675459999824,,,,,,,,,399.4518175999983,400.2669123000233,401.0673861000105,401.0504358999897,401.0504564999719,401.0673861000105,401.0673861000105,401.0673861000105,401.63486609997926,left,1.0,15.295199099986348,,,,,,,,,,,,,,,,,,,,,,,,,,,,,,,,sub-170,1.0,random_dot,59.94797713315364,
right,right,speed,,,,,0.0,1.0,1.0,1.0,24.0,0.0,48.0,1.0,401.6498768000165,,,,,,,,,401.6362380000064,401.7500161000062,402.5504622000153,402.5338715999969,402.53388499998255,402.5504622000153,402.5504622000153,402.5504622000153,403.0348542999709,right,1.0,15.214009999996051,,,,,,,,,,,,,,,,,,,,,,,,,,,,,,,,sub-170,1.0,random_dot,59.94797713315364,
left,left,speed,,,,,0.0,1.0,1.0,1.0,24.0,1.0,49.0,0.0,403.0499038000125,,,,,,,,,403.0357979999972,403.1496928000124,403.9504730000044,403.93451739999,403.9345474999864,403.9504730000044,403.9504730000044,403.9504730000044,404.25213769997936,left,1.0,15.03177289996529,,,,,,,,,,,,,,,,,,,,,,,,,,,,,,,,sub-170,1.0,random_dot,59.94797713315364,
right,right,speed,,,,,0.0,1.0,1.0,1.0,25.0,0.0,50.0,1.0,404.2666881000041,,,,,,,,,404.2532067999709,404.3665667999885,405.1671878999914,405.1506756999879,405.1506981999846,405.1671878999914,405.1671878999914,405.1671878999914,405.5349773999769,right,1.0,15.085824900015725,,,,,,,,,,,,,,,,,,,,,,,,,,,,,,,,sub-170,1.0,random_dot,59.94797713315364,
left,left,speed,,,,,0.0,1.0,1.0,1.0,25.0,1.0,51.0,0.0,405.5496800999972,,,,,,,,,405.5361361000105,405.6498811999918,406.450344700017,406.4347090999945,406.4347415000084,406.450344700017,406.450344700017,406.450344700017,406.751483,left,1.0,15.017326499975752,,,,,,,,,,,,,,,,,,,,,,,,,,,,,,,,sub-170,1.0,random_dot,59.94797713315364,
left,left,speed,,,,,0.0,1.0,1.0,1.0,26.0,0.0,52.0,0.0,406.7666827000212,,,,,,,,,406.7524615000002,406.8669360000058,407.66735160001554,407.651082700002,407.65110169997206,407.66735160001554,407.66735160001554,407.66735160001554,407.9676093999879,right,0.0,15.02466190000996,,,,,,,,,,,,,,,,,,,,,,,,,,,,,,,,sub-170,1.0,random_dot,59.94797713315364,
right,right,speed,,,,,0.0,1.0,1.0,1.0,26.0,1.0,53.0,1.0,407.98309910000535,,,,,,,,,407.9685909000109,408.3334227000014,409.1338136999984,409.1170391999767,409.1170617999742,409.1338136999984,409.1338136999984,409.1338136999984,409.3680014000274,left,0.0,14.96129760000622,,,,,,,,,,,,,,,,,,,,,,,,,,,,,,,,sub-170,1.0,random_dot,59.94797713315364,
right,right,speed,,,,,0.0,1.0,1.0,1.0,27.0,0.0,54.0,1.0,409.3830133000156,,,,,,,,,409.36853199999314,409.483125299972,410.2839410000015,410.26744859997416,410.2674694000161,410.2839410000015,410.2839410000015,410.2839410000015,410.8177446000045,right,1.0,15.255139600019902,,,,,,,,,,,,,,,,,,,,,,,,,,,,,,,,sub-170,1.0,random_dot,59.94797713315364,
left,left,speed,,,,,0.0,1.0,1.0,1.0,27.0,1.0,55.0,0.0,410.83347399998456,,,,,,,,,410.8183094999986,412.033255700022,412.8339461999713,412.81717739999294,412.8172013000003,412.8339461999713,412.8339461999713,412.8339461999713,413.4178516999818,left,1.0,15.301823999965563,,,,,,,,,,,,,,,,,,,,,,,,,,,,,,,,sub-170,1.0,random_dot,59.94797713315364,
right,right,speed,,,,,0.0,1.0,1.0,1.0,28.0,0.0,56.0,1.0,413.43312170001445,,,,,,,,,413.418996500026,413.78370959998574,414.5842100000009,414.5671224999824,414.5671359000262,414.5842100000009,414.5842100000009,414.5842100000009,414.9347305999836,right,1.0,15.076039700012188,,,,,,,,,,,,,,,,,,,,,,,,,,,,,,,,sub-170,1.0,random_dot,59.94797713315364,
left,left,speed,,,,,0.0,1.0,1.0,1.0,28.0,1.0,57.0,0.0,414.9501386000193,,,,,,,,,414.9360841999878,415.0504175000242,415.8507803999819,415.8337348999921,415.8337475999724,415.8507803999819,415.8507803999819,415.8507803999819,416.2347621999797,left,1.0,15.11055550002493,,,,,,,,,,,,,,,,,,,,,,,,,,,,,,,,sub-170,1.0,random_dot,59.94797713315364,
left,left,speed,,,,,0.0,1.0,1.0,1.0,29.0,0.0,58.0,0.0,416.2499401000096,,,,,,,,,416.23591250000754,417.0502573000267,417.85023119999096,417.8341413000017,417.8341613999801,417.85023119999096,417.85023119999096,417.85023119999096,419.151114200009,right,0.0,16.02677950001089,,,,,,,,,,,,,,,,,,,,,,,,,,,,,,,,sub-170,1.0,random_dot,59.94797713315364,
right,right,speed,,,,,0.0,1.0,1.0,1.0,29.0,1.0,59.0,1.0,419.1668105999706,,,,,,,,,419.152101100015,419.26691309997113,420.0671889000223,420.0508226000238,420.05085070000496,420.0671889000223,420.0671889000223,420.0671889000223,420.3179693000274,left,0.0,14.971240899991244,,,,,,,,,,,,,,,,,,,,,,,,,,,,,,,,sub-170,1.0,random_dot,59.94797713315364,
,,speed,,,,,0.0,1.0,1.0,1.0,,,,,,,,,,,,,,,,,,,,,,,,,,,,,,,,,,,,,,,,,,,,,,,,,,,,,,,,,sub-170,1.0,random_dot,59.94797713315364,
,,,,,,,,,,,,,,,,,,,,,,,,,,,,,,,,,,,,,,,,,,,,,,,,,,,,,,,,,,,,,,,420.3189124999917,420.3331742999726,425.33318169997074,425.3173689999967,sub-170,,,,
