direction,corrAns,thisN,thisTrialN,thisRepN,respDots.keys,respDots.corr,respDots.rt,respDots.duration,randomInstr,respRandomInstr.keys,respRandomInstr.rt,respRandomInstr.duration,practice_trials.thisRepN,practice_trials.thisTrialN,practice_trials.thisN,practice_trials.thisIndex,instr_trials.thisRepN,instr_trials.thisTrialN,instr_trials.thisN,instr_trials.thisIndex,test_trials.thisRepN,test_trials.thisTrialN,test_trials.thisN,test_trials.thisIndex,thisRow.t,notes,general_instruction.started,textGeneralInstr.started,respGeneralInstr.started,general_instruction.stopped,respGeneralInstr.keys,respGeneralInstr.rt,respGeneralInstr.duration,ITI.started,fixcross.started,fixcross.stopped,ITI.stopped,dots.started,backgroundDots.started,stimulusDots.started,respDots.started,stimulusDots.stopped,dots.stopped,practice_trials.respDots.keys,practice_trials.respDots.corr,practice_trials.respDots.rt,practice_trials.respDots.duration,feedback.started,textFeedback.started,feedback.stopped,textFeedback.stopped,info.started,textInfo.started,keyRespInfo.started,info.stopped,keyRespInfo.keys,keyRespInfo.rt,keyRespInfo.duration,test_instruction.started,textTestInstr.started,respTestInstr.started,test_instruction.stopped,respTestInstr.keys,respTestInstr.rt,respTestInstr.duration,random_instruction.started,textRandomInstr.started,respRandomInstr.started,random_instruction.stopped,instr_trials.respRandomInstr.keys,instr_trials.respRandomInstr.rt,instr_trials.respRandomInstr.duration,test_trials.respDots.keys,test_trials.respDots.corr,test_trials.respDots.rt,test_trials.respDots.duration,goodbye.started,textGoodbye.started,textGoodbye.stopped,goodbye.stopped,participant,session,expName,frameRate,Unnamed: 88
,,,,,,,,,,,,,,,,,,,,,,,,,,,0.0081314169999586,0.0171485830001074,0.0171485830001074,25.677561292000064,space,25.61564249999992,,,,,,,,,,,,,,,,,,,,,,,,,,,,,,,,,,,,,,,,,,,,,,,,,sub-085,1,random_dot,,
left,left,0.0,0.0,0.0,left,1.0,5.246631208000053,,,,,,0.0,0.0,0.0,0.0,,,,,,,,,25.72404941700006,,,,,,,,,25.70005683299996,26.88398004200008,27.687832542000024,27.66807404200017,27.66853375000005,27.687832542000024,27.687832542000024,27.687832542000024,32.66689404199997,32.937313124999946,left,1.0,5.246631208000053,,32.94741104200011,33.0187766250001,33.44487012500008,,,,,,,,,,,,,,,,,,,,,,,,,,,,,,,sub-085,1,random_dot,,
right,right,1.0,1.0,0.0,right,1.0,2.140254790999961,,,,,,0.0,1.0,1.0,1.0,,,,,,,,,33.45050549999996,,,,,,,,,33.445321124999964,33.78425320800011,34.58702483299999,34.57880387499995,34.57940066700007,34.58702483299999,34.58702483299999,34.58702483299999,,36.72909141700006,right,1.0,2.140254790999961,,36.72918116699998,36.733914625000125,37.21786937499997,37.22809183300001,,,,,,,,,,,,,,,,,,,,,,,,,,,,,,sub-085,1,random_dot,,
left,left,2.0,0.0,1.0,left,1.0,1.5766604160000952,,,,,,1.0,0.0,2.0,0.0,,,,,,,,,37.22809183300001,,,,,,,,,37.21823579200009,37.57807600000001,38.37005029200009,38.362167624999984,38.362626208000165,38.37005029200009,38.37005029200009,38.37005029200009,,39.95299962500008,left,1.0,1.5766604160000952,,39.95309412500001,39.96026170799996,40.44551208300004,40.45111320800015,,,,,,,,,,,,,,,,,,,,,,,,,,,,,,sub-085,1,random_dot,,
right,right,3.0,1.0,1.0,left,0.0,2.187031124999976,,,,,,1.0,1.0,3.0,1.0,,,,,,,,,40.45111320800015,,,,,,,,,40.44597145800003,40.55161666699996,41.35333595800012,41.345421042,41.345868333,41.35333595800012,41.35333595800012,41.35333595800012,,43.54520683300007,left,0.0,2.187031124999976,,43.550524042000006,43.56944112500014,44.05040129200006,,,,,,,,,,,,,,,,,,,,,,,,,,,,,,,sub-085,1,random_dot,,
left,left,4.0,0.0,2.0,right,0.0,4.12250904199982,,,,,,2.0,0.0,4.0,0.0,,,,,,,,,44.06137600000011,,,,,,,,,44.05085237499998,45.234277625,46.026454792000095,46.01790862500002,46.01834962500016,46.026454792000095,46.026454792000095,46.026454792000095,,50.15096145799998,right,0.0,4.12250904199982,,50.15109070800008,50.159729666999965,50.64561445799996,50.651369208000006,,,,,,,,,,,,,,,,,,,,,,,,,,,,,,sub-085,1,random_dot,,
right,right,5.0,1.0,2.0,left,0.0,5.463603207999995,,,,,,2.0,1.0,5.0,1.0,,,,,,,,,50.651369208000006,,,,,,,,,50.646082750000005,50.750452,51.54342270799998,51.53384225000013,51.53426395800011,51.54342270799998,51.54342270799998,51.54342270799998,56.52823041700003,57.013269875000105,left,0.0,5.463603207999995,,57.01342312500015,57.0235271250001,57.5119326250001,57.51746950000006,,,,,,,,,,,,,,,,,,,,,,,,,,,,,,sub-085,1,random_dot,,
right,right,6.0,0.0,3.0,right,1.0,1.7202304170000389,,,,,,3.0,0.0,6.0,1.0,,,,,,,,,57.51746950000006,,,,,,,,,57.51232195800003,58.71134937500005,59.50296820800008,59.49539295800014,59.49583966700016,59.50296820800008,59.50296820800008,59.50296820800008,,61.22955154200008,right,1.0,1.7202304170000389,,61.233075375,61.24056895800004,61.72857620800005,61.73408325000014,,,,,,,,,,,,,,,,,,,,,,,,,,,,,,sub-085,1,random_dot,,
left,left,7.0,1.0,3.0,left,1.0,4.536047458999974,,,,,,3.0,1.0,7.0,0.0,,,,,,,,,61.73408325000014,,,,,,,,,61.72894458300016,62.527967042,63.320378207999966,63.31223583300016,63.3127978330001,63.320378207999966,63.320378207999966,63.320378207999966,,67.86301562500012,left,1.0,4.536047458999974,,67.86314633300003,67.87081070800014,68.36197341699994,68.36711775000003,,,,,,,,,,,,,,,,,,,,,,,,,,,,,,sub-085,1,random_dot,,
left,left,8.0,0.0,4.0,left,1.0,1.9418137080001543,,,,,,4.0,0.0,8.0,0.0,,,,,,,,,68.36711775000003,,,,,,,,,68.36233779200006,69.56143154200004,70.35317112500002,70.345389458,70.34584170800008,70.35317112500002,70.35317112500002,70.35317112500002,,72.30186566700013,left,1.0,1.9418137080001543,,72.301983458,72.30967958300016,72.79530799999998,72.80103625000015,,,,,,,,,,,,,,,,,,,,,,,,,,,,,,sub-085,1,random_dot,,
right,right,9.0,1.0,4.0,right,1.0,3.362211041999899,,,,,,4.0,1.0,9.0,1.0,,,,,,,,,72.80103625000015,,,,,,,,,72.79576608299999,73.60088441700009,74.39305337500014,74.38438441700009,74.38481279200005,74.39305337500014,74.39305337500014,74.39305337500014,,77.76287908300014,right,1.0,3.362211041999899,,77.76299795800014,77.77031591700006,78.262025042,78.26717470800008,,,,,,,,,,,,,,,,,,,,,,,,,,,,,,sub-085,1,random_dot,,
right,right,10.0,0.0,5.0,left,0.0,5.90319025000008,,,,,,5.0,0.0,10.0,1.0,,,,,,,,,78.26717470800008,,,,,,,,,78.26238583300005,79.06126033300006,79.85363033299996,79.84552974999997,79.84608933300001,79.85363033299996,79.85363033299996,79.85363033299996,84.84461904199998,85.76326949999998,left,0.0,5.90319025000008,,85.76773820800008,85.77756245800015,86.26219212499996,86.26797529200007,,,,,,,,,,,,,,,,,,,,,,,,,,,,,,sub-085,1,random_dot,,
left,left,11.0,1.0,5.0,right,0.0,2.584183459000087,,,,,,5.0,1.0,11.0,0.0,,,,,,,,,86.26797529200007,,,,,,,,,86.26266841699999,87.06137966699998,87.85345275000009,87.84530158300004,87.84578545800014,87.85345275000009,87.85345275000009,87.85345275000009,,90.44543683300004,right,0.0,2.584183459000087,,90.4455351250001,90.45262470800004,90.94540837500016,90.95087966699998,,,,,,,,,,,,,,,,,,,,,,,,,,,,,,sub-085,1,random_dot,,
right,right,12.0,0.0,6.0,left,0.0,1.0055170410000756,,,,,,6.0,0.0,12.0,1.0,,,,,,,,,90.95087966699998,,,,,,,,,90.94586012500008,91.0350302920001,91.82635133300003,91.81799945800005,91.81841862500004,91.82635133300003,91.82635133300003,91.82635133300003,,92.83445574999996,left,0.0,1.0055170410000756,,92.83455437500017,92.84339645800014,93.32884916700004,93.33471833299996,,,,,,,,,,,,,,,,,,,,,,,,,,,,,,sub-085,1,random_dot,,
left,left,13.0,1.0,6.0,left,1.0,3.151920582999992,,,,,,6.0,1.0,13.0,0.0,,,,,,,,,93.33471833299996,,,,,,,,,93.32931841699995,93.68402587500007,94.47637266700008,94.46787525000012,94.468325542,94.47637266700008,94.47637266700008,94.47637266700008,,97.63515566700016,left,1.0,3.151920582999992,,97.637919,97.64590900000007,98.13437062499996,98.14448600000014,,,,,,,,,,,,,,,,,,,,,,,,,,,,,,sub-085,1,random_dot,,
right,right,14.0,0.0,7.0,right,1.0,1.2015521670000453,,,,,,7.0,0.0,14.0,1.0,,,,,,,,,98.14448600000014,,,,,,,,,98.13475979200008,98.23423775000016,99.02634175000004,99.017683542,99.01811300000008,99.02634175000004,99.02634175000004,99.02634175000004,,100.22993904200008,right,1.0,1.2015521670000453,,100.23003654200012,100.23697241700006,100.72877541699997,100.734148625,,,,,,,,,,,,,,,,,,,,,,,,,,,,,,sub-085,1,random_dot,,
left,left,15.0,1.0,7.0,left,1.0,0.9996307500000512,,,,,,7.0,1.0,15.0,0.0,,,,,,,,,100.734148625,,,,,,,,,100.72915925000008,101.52800541700005,102.31976425000016,102.31190404200017,102.31236670800013,102.31976425000016,102.31976425000016,102.31976425000016,,103.3290937920001,left,1.0,0.9996307500000512,,103.32918658300014,103.33602195799996,103.82854583300012,103.83370725000007,,,,,,,,,,,,,,,,,,,,,,,,,,,,,,sub-085,1,random_dot,,
left,left,16.0,0.0,8.0,right,0.0,0.6437859160000698,,,,,,8.0,0.0,16.0,0.0,,,,,,,,,103.83370725000007,,,,,,,,,103.82891391700014,104.62778591699998,105.42019608300006,105.41210379200017,105.41265491700004,105.42019608300006,105.42019608300006,105.42019608300006,,106.06864758300004,right,0.0,0.6437859160000698,,106.07119287499997,106.09401608300004,106.57808691700006,,,,,,,,,,,,,,,,,,,,,,,,,,,,,,,sub-085,1,random_dot,,
right,right,17.0,1.0,8.0,left,0.0,0.902489082999864,,,,,,8.0,1.0,17.0,1.0,,,,,,,,,106.583947458,,,,,,,,,106.57861979200015,106.917260875,107.709754708,107.70066783300013,107.70111325000016,107.709754708,107.709754708,107.709754708,,108.618967375,left,0.0,0.902489082999864,,108.61908458300012,108.62630441700004,109.11179366700004,109.11707087500008,,,,,,,,,,,,,,,,,,,,,,,,,,,,,,sub-085,1,random_dot,,
right,right,18.0,0.0,9.0,right,1.0,3.785119957999996,,,,,,9.0,0.0,18.0,1.0,,,,,,,,,109.11707087500008,,,,,,,,,109.11217920800004,109.91808079199996,110.71999804200004,110.71216900000012,110.71272979200012,110.71999804200004,110.71999804200004,110.71999804200004,,114.511904083,right,1.0,3.785119957999996,,114.51457900000014,114.52179241700014,115.012098917,115.01720016700006,,,,,,,,,,,,,,,,,,,,,,,,,,,,,,sub-085,1,random_dot,,
left,left,19.0,1.0,9.0,right,0.0,1.9095152500001404,,,,,,9.0,1.0,19.0,0.0,,,,,,,,,115.01720016700006,,,,,,,,,115.01246937500014,115.80106550000004,116.59303387499996,116.5847476670001,116.58523058300013,116.59303387499996,116.59303387499996,116.59303387499996,,118.51271029200008,right,0.0,1.9095152500001404,,118.51559700000008,118.52285158300016,119.01185491700016,119.01953545800006,,,,,,,,,,,,,,,,,,,,,,,,,,,,,,sub-085,1,random_dot,,
,,,,,,,,,,,,,,,,,,,,,,,,,,,,,,,,,,,,,,,,,,,,,,,,,,,,119.01201633300002,119.01953545800006,119.01953545800006,124.75265975000002,space,5.727597084000081,,,,,,,,,,,,,,,,,,,,,,,,sub-085,1,random_dot,,
,,,,,,,,,,,,,,,,,,,,,,,,,,,,,,,,,,,,,,,,,,,,,,,,,,,,,,,,,,,124.75275766699995,124.76547716699996,124.76547716699996,130.83609070800003,space,6.064251334000119,,,,,,,,,,,,,,,,,sub-085,1,random_dot,,
left,left,0.0,0.0,0.0,right,0.0,0.7744522919999781,,speed,space,2.412524084000097,,,,,,0.0,0.0,0.0,1.0,0.0,0.0,0.0,0.0,133.29940191700007,,,,,,,,,133.29223479200004,133.3777943330001,134.17022970800008,134.16189733300007,134.16246716700016,134.17022970800008,134.17022970800008,134.17022970800008,,134.94681887499996,,,,,,,,,,,,,,,,,,,,,,,130.85771191699996,130.86570700000016,130.86570700000016,133.28079054199998,space,2.412524084000097,,right,0.0,0.7744522919999781,,,,,,sub-085,1,random_dot,,
right,right,1.0,1.0,0.0,left,0.0,0.6053129580000132,,speed,space,2.412524084000097,,,,,,0.0,0.0,0.0,1.0,0.0,1.0,1.0,1.0,134.9541233750001,,,,,,,,,134.94739333300004,135.29451158300003,136.086046333,136.07843070800004,136.07887195800004,136.086046333,136.086046333,136.086046333,,136.69621962500014,,,,,,,,,,,,,,,,,,,,,,,,,,,,,,left,0.0,0.6053129580000132,,,,,,sub-085,1,random_dot,,
left,left,2.0,0.0,1.0,right,0.0,0.4414939159998994,,speed,space,2.412524084000097,,,,,,0.0,0.0,0.0,1.0,1.0,0.0,2.0,0.0,136.70332641699997,,,,,,,,,136.69669129199997,137.494571125,138.28649066699995,138.27862787499998,138.27918283300005,138.28649066699995,138.28649066699995,138.28649066699995,,138.734337417,,,,,,,,,,,,,,,,,,,,,,,,,,,,,,right,0.0,0.4414939159998994,,,,,,sub-085,1,random_dot,,
right,right,3.0,1.0,1.0,left,0.0,0.5714397919998646,,speed,space,2.412524084000097,,,,,,0.0,0.0,0.0,1.0,1.0,1.0,3.0,1.0,138.7435411250001,,,,,,,,,138.73465245800003,139.93399350000004,140.72631875000002,140.71717583300006,140.7175903750001,140.72631875000002,140.72631875000002,140.72631875000002,,141.3027696250001,,,,,,,,,,,,,,,,,,,,,,,,,,,,,,left,0.0,0.5714397919998646,,,,,,sub-085,1,random_dot,,
right,right,4.0,0.0,2.0,left,0.0,0.6417182499999399,,speed,space,2.412524084000097,,,,,,0.0,0.0,0.0,1.0,2.0,0.0,4.0,1.0,141.309585083,,,,,,,,,141.3031067500001,142.50129995800012,143.29291525000008,143.28474129200004,143.28516637500002,143.29291525000008,143.29291525000008,143.29291525000008,,143.93617262500015,,,,,,,,,,,,,,,,,,,,,,,,,,,,,,left,0.0,0.6417182499999399,,,,,,sub-085,1,random_dot,,
left,left,5.0,1.0,2.0,right,0.0,1.863836999999876,,speed,space,2.412524084000097,,,,,,0.0,0.0,0.0,1.0,2.0,1.0,5.0,0.0,143.943071292,,,,,,,,,143.93649737500004,144.0334438330001,144.82629787500014,144.81755087500005,144.81800450000014,144.82629787500014,144.82629787500014,144.82629787500014,,146.69588595799996,,,,,,,,,,,,,,,,,,,,,,,,,,,,,,right,0.0,1.863836999999876,,,,,,sub-085,1,random_dot,,
right,right,6.0,0.0,3.0,left,0.0,1.6856807079998362,,speed,space,2.412524084000097,,,,,,0.0,0.0,0.0,1.0,3.0,0.0,6.0,1.0,146.70308,,,,,,,,,146.69638191700005,146.79451612499997,147.58704783300004,147.57881333299997,147.57926762500006,147.58704783300004,147.58704783300004,147.58704783300004,,149.279330458,,,,,,,,,,,,,,,,,,,,,,,,,,,,,,left,0.0,1.6856807079998362,,,,,,sub-085,1,random_dot,,
left,left,7.0,1.0,3.0,right,0.0,2.9106035410000004,,speed,space,2.412524084000097,,,,,,0.0,0.0,0.0,1.0,3.0,1.0,7.0,0.0,149.28667229200005,,,,,,,,,149.279759667,150.07770266700004,150.86988204199997,150.8617877920001,150.86223500000006,150.86988204199997,150.86988204199997,150.86988204199997,,153.78431254199995,,,,,,,,,,,,,,,,,,,,,,,,,,,,,,right,0.0,2.9106035410000004,,,,,,sub-085,1,random_dot,,
left,left,8.0,0.0,4.0,right,0.0,1.463159583000106,,speed,space,2.412524084000097,,,,,,0.0,0.0,0.0,1.0,4.0,0.0,8.0,0.0,153.7928548750001,,,,,,,,,153.784635708,153.88319049999996,154.67623504200014,154.66754008299995,154.66799512500006,154.67623504200014,154.67623504200014,154.67623504200014,,156.1458412920001,,,,,,,,,,,,,,,,,,,,,,,,,,,,,,right,0.0,1.463159583000106,,,,,,sub-085,1,random_dot,,
right,right,9.0,1.0,4.0,left,0.0,1.0916041250000037,,speed,space,2.412524084000097,,,,,,0.0,0.0,0.0,1.0,4.0,1.0,9.0,1.0,156.15304279199995,,,,,,,,,156.14626475,156.94458791700004,157.73634545799996,157.72845129200005,157.7289961670001,157.73634545799996,157.73634545799996,157.73634545799996,,158.8338066670001,,,,,,,,,,,,,,,,,,,,,,,,,,,,,,left,0.0,1.0916041250000037,,,,,,sub-085,1,random_dot,,
left,left,10.0,0.0,5.0,left,1.0,2.1490550000000894,,speed,space,2.412524084000097,,,,,,0.0,0.0,0.0,1.0,5.0,0.0,10.0,0.0,158.84331595799995,,,,,,,,,158.83421729199995,159.17780887499998,159.97120191700014,159.96238391700012,159.96317929199995,159.97120191700014,159.97120191700014,159.97120191700014,,162.12943670799996,,,,,,,,,,,,,,,,,,,,,,,,,,,,,,left,1.0,2.1490550000000894,,,,,,sub-085,1,random_dot,,
right,right,11.0,1.0,5.0,right,1.0,1.8988043750000545,,speed,space,2.412524084000097,,,,,,0.0,0.0,0.0,1.0,5.0,1.0,11.0,1.0,162.136865875,,,,,,,,,162.12991245800004,162.47764104199996,163.26936750000004,163.26175183300006,163.26221687500015,163.26936750000004,163.26936750000004,163.26936750000004,,165.1701969170001,,,,,,,,,,,,,,,,,,,,,,,,,,,,,,right,1.0,1.8988043750000545,,,,,,sub-085,1,random_dot,,
left,left,12.0,0.0,6.0,left,1.0,1.036075209000046,,speed,space,2.412524084000097,,,,,,0.0,0.0,0.0,1.0,6.0,0.0,12.0,0.0,165.1772027080001,,,,,,,,,165.17053887500015,165.96758987500016,166.75948470799997,166.75116720799997,166.75160579199996,166.75948470799997,166.75948470799997,166.75948470799997,,167.80110945800016,,,,,,,,,,,,,,,,,,,,,,,,,,,,,,left,1.0,1.036075209000046,,,,,,sub-085,1,random_dot,,
right,right,13.0,1.0,6.0,right,1.0,1.5208207089999632,,speed,space,2.412524084000097,,,,,,0.0,0.0,0.0,1.0,6.0,1.0,13.0,1.0,167.8095531250001,,,,,,,,,167.80145479199996,168.5943130830001,169.386597167,169.3785814580001,169.3791174580001,169.386597167,169.386597167,169.386597167,,170.91208904200016,,,,,,,,,,,,,,,,,,,,,,,,,,,,,,right,1.0,1.5208207089999632,,,,,,sub-085,1,random_dot,,
right,right,14.0,0.0,7.0,right,1.0,1.6008591669999532,,speed,space,2.412524084000097,,,,,,0.0,0.0,0.0,1.0,7.0,0.0,14.0,1.0,170.918837875,,,,,,,,,170.91240108300008,171.7014227080001,172.50312908299998,172.49522204200002,172.49566595800002,172.50312908299998,172.50312908299998,172.50312908299998,,174.110730417,,,,,,,,,,,,,,,,,,,,,,,,,,,,,,right,1.0,1.6008591669999532,,,,,,sub-085,1,random_dot,,
left,left,15.0,1.0,7.0,left,1.0,1.821157708000101,,speed,space,2.412524084000097,,,,,,0.0,0.0,0.0,1.0,7.0,1.0,15.0,0.0,174.11759670800006,,,,,,,,,174.11108208300016,174.451462042,175.24279137500002,175.23444208299998,175.23487225000008,175.24279137500002,175.24279137500002,175.24279137500002,,177.06754237500013,,,,,,,,,,,,,,,,,,,,,,,,,,,,,,left,1.0,1.821157708000101,,,,,,sub-085,1,random_dot,,
left,left,16.0,0.0,8.0,left,1.0,2.568720041999996,,speed,space,2.412524084000097,,,,,,0.0,0.0,0.0,1.0,8.0,0.0,16.0,0.0,177.07616174999998,,,,,,,,,177.06786041700002,177.1668565,177.9595669580001,177.95038641700012,177.9508195830001,177.9595669580001,177.9595669580001,177.9595669580001,,180.5390500420001,,,,,,,,,,,,,,,,,,,,,,,,,,,,,,left,1.0,2.568720041999996,,,,,,sub-085,1,random_dot,,
right,right,17.0,1.0,8.0,right,1.0,1.3351532080000652,,speed,space,2.412524084000097,,,,,,0.0,0.0,0.0,1.0,8.0,1.0,17.0,1.0,180.5427433330001,,,,,,,,,180.53937775000009,181.7339467500001,182.52610612500007,182.5175995,182.518043542,182.52610612500007,182.52610612500007,182.52610612500007,,183.86713883300013,,,,,,,,,,,,,,,,,,,,,,,,,,,,,,right,1.0,1.3351532080000652,,,,,,sub-085,1,random_dot,,
right,right,18.0,0.0,9.0,left,0.0,3.058844458000067,,speed,space,2.412524084000097,,,,,,0.0,0.0,0.0,1.0,9.0,0.0,18.0,1.0,183.87698350000005,,,,,,,,,183.867443375,185.0671789170001,185.869036417,185.86165574999995,185.862101125,185.869036417,185.869036417,185.869036417,,188.930061667,,,,,,,,,,,,,,,,,,,,,,,,,,,,,,left,0.0,3.058844458000067,,,,,,sub-085,1,random_dot,,
left,left,19.0,1.0,9.0,left,1.0,2.5383520420000423,,speed,space,2.412524084000097,,,,,,0.0,0.0,0.0,1.0,9.0,1.0,19.0,0.0,188.9374492080001,,,,,,,,,188.930655875,189.27754270800008,190.0699468750001,190.06181879200017,190.062371792,190.0699468750001,190.0699468750001,190.0699468750001,,192.6123479580001,,,,,,,,,,,,,,,,,,,,,,,,,,,,,,left,1.0,2.5383520420000423,,,,,,sub-085,1,random_dot,,
right,right,20.0,0.0,10.0,left,0.0,1.015962083000204,,speed,space,2.412524084000097,,,,,,0.0,0.0,0.0,1.0,10.0,0.0,20.0,1.0,192.617043167,,,,,,,,,192.612680833,192.96119862499995,193.75321362500017,193.7453356670001,193.74588900000003,193.75321362500017,193.75321362500017,193.75321362500017,,194.77786337500012,,,,,,,,,,,,,,,,,,,,,,,,,,,,,,left,0.0,1.015962083000204,,,,,,sub-085,1,random_dot,,
left,left,21.0,1.0,10.0,right,0.0,1.346724457999926,,speed,space,2.412524084000097,,,,,,0.0,0.0,0.0,1.0,10.0,1.0,21.0,0.0,194.78455775,,,,,,,,,194.778183917,195.9671363750001,196.75946900000008,196.75070908299995,196.7511414170001,196.75946900000008,196.75946900000008,196.75946900000008,,198.1127382080001,,,,,,,,,,,,,,,,,,,,,,,,,,,,,,right,0.0,1.346724457999926,,,,,,sub-085,1,random_dot,,
left,left,22.0,0.0,11.0,right,0.0,2.3431652079998457,,speed,space,2.412524084000097,,,,,,0.0,0.0,0.0,1.0,11.0,0.0,22.0,0.0,198.12038120800003,,,,,,,,,198.1132614170001,199.310924917,200.10402091700007,200.09523070800012,200.09579775,200.10402091700007,200.10402091700007,200.10402091700007,,202.451024792,,,,,,,,,,,,,,,,,,,,,,,,,,,,,,right,0.0,2.3431652079998457,,,,,,sub-085,1,random_dot,,
right,right,23.0,1.0,11.0,right,1.0,2.1799275829998805,,speed,space,2.412524084000097,,,,,,0.0,0.0,0.0,1.0,11.0,1.0,23.0,1.0,202.45931158300004,,,,,,,,,202.4513393750001,203.651622958,204.45309962500005,204.44530195800007,204.44587650000017,204.45309962500005,204.45309962500005,204.45309962500005,,206.63564095800007,,,,,,,,,,,,,,,,,,,,,,,,,,,,,,right,1.0,2.1799275829998805,,,,,,sub-085,1,random_dot,,
right,right,24.0,0.0,12.0,right,1.0,0.9350953329999356,,speed,space,2.412524084000097,,,,,,0.0,0.0,0.0,1.0,12.0,0.0,24.0,1.0,206.64295641700005,,,,,,,,,206.635952375,207.83433841700003,208.626129583,208.61757808300013,208.618011542,208.626129583,208.626129583,208.626129583,,209.56803208300016,,,,,,,,,,,,,,,,,,,,,,,,,,,,,,right,1.0,0.9350953329999356,,,,,,sub-085,1,random_dot,,
left,left,25.0,1.0,12.0,left,1.0,0.793074666999928,,speed,space,2.412524084000097,,,,,,0.0,0.0,0.0,1.0,12.0,1.0,25.0,0.0,209.5760395,,,,,,,,,209.568372833,209.91760320799995,210.7190204170001,210.711642083,210.71210158300005,210.7190204170001,210.7190204170001,210.7190204170001,,211.5142537920001,,,,,,,,,,,,,,,,,,,,,,,,,,,,,,left,1.0,0.793074666999928,,,,,,sub-085,1,random_dot,,
left,left,26.0,0.0,13.0,right,0.0,1.1203274169999986,,speed,space,2.412524084000097,,,,,,0.0,0.0,0.0,1.0,13.0,0.0,26.0,0.0,211.526829208,,,,,,,,,211.5144284580001,212.71100883300005,213.50291170800008,213.49507866700012,213.4956360830001,213.50291170800008,213.50291170800008,213.50291170800008,,214.62962200000013,,,,,,,,,,,,,,,,,,,,,,,,,,,,,,right,0.0,1.1203274169999986,,,,,,sub-085,1,random_dot,,
right,right,27.0,1.0,13.0,right,1.0,3.315742,,speed,space,2.412524084000097,,,,,,0.0,0.0,0.0,1.0,13.0,1.0,27.0,1.0,214.6365571670001,,,,,,,,,214.63000245800004,215.82691708300013,216.619558375,216.61177650000013,216.61222925000013,216.619558375,216.619558375,216.619558375,,219.9449991670001,,,,,,,,,,,,,,,,,,,,,,,,,,,,,,right,1.0,3.315742,,,,,,sub-085,1,random_dot,,
right,right,28.0,0.0,14.0,right,1.0,2.0849697500000275,,speed,space,2.412524084000097,,,,,,0.0,0.0,0.0,1.0,14.0,0.0,28.0,1.0,219.9525174580001,,,,,,,,,219.9455352080001,220.033110333,220.82608275000007,220.817766875,220.81819533299995,220.82608275000007,220.82608275000007,220.82608275000007,,222.91310308300007,,,,,,,,,,,,,,,,,,,,,,,,,,,,,,right,1.0,2.0849697500000275,,,,,,sub-085,1,random_dot,,
left,left,29.0,1.0,14.0,left,1.0,1.01796212499994,,speed,space,2.412524084000097,,,,,,0.0,0.0,0.0,1.0,14.0,1.0,29.0,0.0,222.92028804200004,,,,,,,,,222.91347058300016,224.1109059580001,224.9032607080001,224.895188167,224.895756875,224.9032607080001,224.9032607080001,224.9032607080001,,225.92868525000017,,,,,,,,,,,,,,,,,,,,,,,,,,,,,,left,1.0,1.01796212499994,,,,,,sub-085,1,random_dot,,
left,left,30.0,0.0,15.0,left,1.0,1.9015907079999577,,speed,space,2.412524084000097,,,,,,0.0,0.0,0.0,1.0,15.0,0.0,30.0,0.0,225.93562891700003,,,,,,,,,225.929023917,226.02750537500012,226.819257333,226.8114444580001,226.81189037500008,226.819257333,226.819257333,226.819257333,,228.7281881670001,,,,,,,,,,,,,,,,,,,,,,,,,,,,,,left,1.0,1.9015907079999577,,,,,,sub-085,1,random_dot,,
right,right,31.0,1.0,15.0,left,0.0,2.348197083000059,,speed,space,2.412524084000097,,,,,,0.0,0.0,0.0,1.0,15.0,1.0,31.0,1.0,228.734886792,,,,,,,,,228.7285031250001,229.51743054200008,230.3093549170001,230.30101737500013,230.301443417,230.3093549170001,230.3093549170001,230.3093549170001,,232.660702875,,,,,,,,,,,,,,,,,,,,,,,,,,,,,,left,0.0,2.348197083000059,,,,,,sub-085,1,random_dot,,
left,left,32.0,0.0,16.0,right,0.0,1.298579749999817,,speed,space,2.412524084000097,,,,,,0.0,0.0,0.0,1.0,16.0,0.0,32.0,0.0,232.66512891699995,,,,,,,,,232.6610235830001,233.451361875,234.2534746670001,234.24531616700008,234.24590825,234.2534746670001,234.2534746670001,234.2534746670001,,235.56259325,,,,,,,,,,,,,,,,,,,,,,,,,,,,,,right,0.0,1.298579749999817,,,,,,sub-085,1,random_dot,,
right,right,33.0,1.0,16.0,right,1.0,2.111274791999904,,speed,space,2.412524084000097,,,,,,0.0,0.0,0.0,1.0,16.0,1.0,33.0,1.0,235.5702755,,,,,,,,,235.563062875,236.760896583,237.5526828330001,237.5449355000001,237.545516333,237.5526828330001,237.5526828330001,237.5526828330001,,239.66859687500005,,,,,,,,,,,,,,,,,,,,,,,,,,,,,,right,1.0,2.111274791999904,,,,,,sub-085,1,random_dot,,
right,right,34.0,0.0,17.0,left,0.0,1.1388817500001096,,speed,space,2.412524084000097,,,,,,0.0,0.0,0.0,1.0,17.0,0.0,34.0,1.0,239.675994125,,,,,,,,,239.6689201250001,240.01640995800017,240.8093000000001,240.8004766670001,240.8008890000001,240.8093000000001,240.8093000000001,240.8093000000001,,241.9519290000001,,,,,,,,,,,,,,,,,,,,,,,,,,,,,,left,0.0,1.1388817500001096,,,,,,sub-085,1,random_dot,,
left,left,35.0,1.0,17.0,right,0.0,2.225118957999939,,speed,space,2.412524084000097,,,,,,0.0,0.0,0.0,1.0,17.0,1.0,35.0,0.0,241.9592230830001,,,,,,,,,241.952341125,243.15049175000013,243.94262037500016,243.93362837500013,243.93404091699995,243.94262037500016,243.94262037500016,243.94262037500016,,246.17941399999995,,,,,,,,,,,,,,,,,,,,,,,,,,,,,,right,0.0,2.225118957999939,,,,,,sub-085,1,random_dot,,
right,right,36.0,0.0,18.0,right,1.0,2.590893750000077,,speed,space,2.412524084000097,,,,,,0.0,0.0,0.0,1.0,18.0,0.0,36.0,1.0,246.18712408300007,,,,,,,,,246.17993637500007,246.5275416250001,247.31975450000004,247.311671917,247.31222887500007,247.31975450000004,247.31975450000004,247.31975450000004,,249.9165579170001,,,,,,,,,,,,,,,,,,,,,,,,,,,,,,right,1.0,2.590893750000077,,,,,,sub-085,1,random_dot,,
left,left,37.0,1.0,18.0,right,0.0,2.168496875000073,,speed,space,2.412524084000097,,,,,,0.0,0.0,0.0,1.0,18.0,1.0,37.0,0.0,249.9271670420001,,,,,,,,,249.916896708,250.710922708,251.50311445800003,251.49496558300007,251.495518208,251.50311445800003,251.50311445800003,251.50311445800003,,253.6788858330001,,,,,,,,,,,,,,,,,,,,,,,,,,,,,,right,0.0,2.168496875000073,,,,,,sub-085,1,random_dot,,
right,right,38.0,0.0,19.0,left,0.0,1.2049016250000475,,speed,space,2.412524084000097,,,,,,0.0,0.0,0.0,1.0,19.0,0.0,38.0,1.0,253.6860207920001,,,,,,,,,253.67934408300016,254.0275267920001,254.8194887500001,254.8115834170001,254.812121083,254.8194887500001,254.8194887500001,254.8194887500001,,256.02853975000016,,,,,,,,,,,,,,,,,,,,,,,,,,,,,,left,0.0,1.2049016250000475,,,,,,sub-085,1,random_dot,,
left,left,39.0,1.0,19.0,left,1.0,1.3526124590000563,,speed,space,2.412524084000097,,,,,,0.0,0.0,0.0,1.0,19.0,1.0,39.0,0.0,256.0355905000001,,,,,,,,,256.029081333,257.227500833,258.01962208300006,258.01152112499994,258.01206916700016,258.01962208300006,258.01962208300006,258.01962208300006,,259.3779784170001,,,,,,,,,,,,,,,,,,,,,,,,,,,,,,left,1.0,1.3526124590000563,,,,,,sub-085,1,random_dot,,
left,left,40.0,0.0,20.0,right,0.0,1.4019056659999478,,speed,space,2.412524084000097,,,,,,0.0,0.0,0.0,1.0,20.0,0.0,40.0,0.0,259.38516575000017,,,,,,,,,259.37843087500005,259.717868042,260.50938125000016,260.50109420800004,260.501535292,260.50938125000016,260.50938125000016,260.50938125000016,,261.91730099999995,,,,,,,,,,,,,,,,,,,,,,,,,,,,,,right,0.0,1.4019056659999478,,,,,,sub-085,1,random_dot,,
right,right,41.0,1.0,20.0,left,0.0,1.456574584000009,,speed,space,2.412524084000097,,,,,,0.0,0.0,0.0,1.0,20.0,1.0,41.0,1.0,261.92597487500007,,,,,,,,,261.9176085420001,262.716899667,263.5092414170001,263.50037075,263.5008082080001,263.5092414170001,263.5092414170001,263.5092414170001,,264.9685617080001,,,,,,,,,,,,,,,,,,,,,,,,,,,,,,left,0.0,1.456574584000009,,,,,,sub-085,1,random_dot,,
right,right,42.0,0.0,21.0,right,1.0,1.5087952500000483,,speed,space,2.412524084000097,,,,,,0.0,0.0,0.0,1.0,21.0,0.0,42.0,1.0,264.975931083,,,,,,,,,264.9688690830001,265.0665529170001,265.859477833,265.8511107500001,265.85153612500017,265.859477833,265.859477833,265.859477833,,267.37915216700003,,,,,,,,,,,,,,,,,,,,,,,,,,,,,,right,1.0,1.5087952500000483,,,,,,sub-085,1,random_dot,,
left,left,43.0,1.0,21.0,left,1.0,1.2764003750000938,,speed,space,2.412524084000097,,,,,,0.0,0.0,0.0,1.0,21.0,1.0,43.0,0.0,267.38627025000005,,,,,,,,,267.379637042,268.57747562500003,269.3694311250001,269.361527458,269.362078417,269.3694311250001,269.3694311250001,269.3694311250001,,270.65300137500003,,,,,,,,,,,,,,,,,,,,,,,,,,,,,,left,1.0,1.2764003750000938,,,,,,sub-085,1,random_dot,,
right,right,44.0,0.0,22.0,right,1.0,2.293329459000006,,speed,space,2.412524084000097,,,,,,0.0,0.0,0.0,1.0,22.0,0.0,44.0,1.0,270.660116625,,,,,,,,,270.653404833,270.749589625,271.542580625,271.53409387500005,271.534530833,271.542580625,271.542580625,271.542580625,,273.845839333,,,,,,,,,,,,,,,,,,,,,,,,,,,,,,right,1.0,2.293329459000006,,,,,,sub-085,1,random_dot,,
left,left,45.0,1.0,22.0,left,1.0,1.508214708999958,,speed,space,2.412524084000097,,,,,,0.0,0.0,0.0,1.0,22.0,1.0,45.0,0.0,273.85330725000017,,,,,,,,,273.846337708,275.04413825000006,275.83612395800014,275.8282442080001,275.82879912500016,275.83612395800014,275.83612395800014,275.83612395800014,,277.34649941700013,,,,,,,,,,,,,,,,,,,,,,,,,,,,,,left,1.0,1.508214708999958,,,,,,sub-085,1,random_dot,,
left,left,46.0,0.0,23.0,right,0.0,1.3857700829998976,,speed,space,2.412524084000097,,,,,,0.0,0.0,0.0,1.0,23.0,0.0,46.0,0.0,277.353805167,,,,,,,,,277.34697570799995,277.6940071250001,278.48624095800005,278.478069042,278.4786374170001,278.48624095800005,278.48624095800005,278.48624095800005,,279.87790329200016,,,,,,,,,,,,,,,,,,,,,,,,,,,,,,right,0.0,1.3857700829998976,,,,,,sub-085,1,random_dot,,
right,right,47.0,1.0,23.0,left,0.0,1.692581082999823,,speed,space,2.412524084000097,,,,,,0.0,0.0,0.0,1.0,23.0,1.0,47.0,1.0,279.88493229200003,,,,,,,,,279.878335292,279.966270958,280.7593005000001,280.75122612500013,280.75165712500007,280.7593005000001,280.7593005000001,280.7593005000001,,282.46226325,,,,,,,,,,,,,,,,,,,,,,,,,,,,,,left,0.0,1.692581082999823,,,,,,sub-085,1,random_dot,,
right,right,48.0,0.0,24.0,left,0.0,2.6521150410001155,,speed,space,2.412524084000097,,,,,,0.0,0.0,0.0,1.0,24.0,0.0,48.0,1.0,282.469056292,,,,,,,,,282.4625833750001,283.660764708,284.452934125,284.4449265830001,284.44537612500017,284.452934125,284.452934125,284.452934125,,287.11206575000006,,,,,,,,,,,,,,,,,,,,,,,,,,,,,,left,0.0,2.6521150410001155,,,,,,sub-085,1,random_dot,,
left,left,49.0,1.0,24.0,right,0.0,1.7798910419999174,,speed,space,2.412524084000097,,,,,,0.0,0.0,0.0,1.0,24.0,1.0,49.0,0.0,287.11893766699995,,,,,,,,,287.11239525,288.31085558300015,289.10302,289.09489495800017,289.095466792,289.10302,289.10302,289.10302,,290.88553283300007,,,,,,,,,,,,,,,,,,,,,,,,,,,,,,right,0.0,1.7798910419999174,,,,,,sub-085,1,random_dot,,
right,right,50.0,0.0,25.0,right,1.0,1.135875083000201,,speed,space,2.412524084000097,,,,,,0.0,0.0,0.0,1.0,25.0,0.0,50.0,1.0,290.89237212500007,,,,,,,,,290.8858661250001,292.0840243750001,292.87603137500014,292.867830917,292.868274125,292.87603137500014,292.87603137500014,292.87603137500014,,294.01955324999994,,,,,,,,,,,,,,,,,,,,,,,,,,,,,,right,1.0,1.135875083000201,,,,,,sub-085,1,random_dot,,
left,left,51.0,1.0,25.0,left,1.0,1.01351016600006,,speed,space,2.412524084000097,,,,,,0.0,0.0,0.0,1.0,25.0,1.0,51.0,0.0,294.0266489170001,,,,,,,,,294.01994616700017,294.81692658300017,295.60932470800003,295.600703417,295.60114420800005,295.60932470800003,295.60932470800003,295.60932470800003,,296.62922950000006,,,,,,,,,,,,,,,,,,,,,,,,,,,,,,left,1.0,1.01351016600006,,,,,,sub-085,1,random_dot,,
left,left,52.0,0.0,26.0,left,1.0,1.0906506660001014,,speed,space,2.412524084000097,,,,,,0.0,0.0,0.0,1.0,26.0,0.0,52.0,0.0,296.6362905420001,,,,,,,,,296.62966925,296.72747070800006,297.52006970800016,297.51174645800006,297.512389792,297.52006970800016,297.52006970800016,297.52006970800016,,298.61812625000016,,,,,,,,,,,,,,,,,,,,,,,,,,,,,,left,1.0,1.0906506660001014,,,,,,sub-085,1,random_dot,,
right,right,53.0,1.0,26.0,right,1.0,1.0264674160000595,,speed,space,2.412524084000097,,,,,,0.0,0.0,0.0,1.0,26.0,1.0,53.0,1.0,298.6258821250001,,,,,,,,,298.6184537920001,299.41722708300017,300.209280625,300.20074929199995,300.2012043330001,300.209280625,300.209280625,300.209280625,,301.24423812500004,,,,,,,,,,,,,,,,,,,,,,,,,,,,,,right,1.0,1.0264674160000595,,,,,,sub-085,1,random_dot,,
right,right,54.0,0.0,27.0,left,0.0,0.9261292090000096,,speed,space,2.412524084000097,,,,,,0.0,0.0,0.0,1.0,27.0,0.0,54.0,1.0,301.2511132920001,,,,,,,,,301.2446479580001,302.4339547500001,303.22588462500016,303.21765270800006,303.218097208,303.22588462500016,303.22588462500016,303.22588462500016,,304.16202783300014,,,,,,,,,,,,,,,,,,,,,,,,,,,,,,left,0.0,0.9261292090000096,,,,,,sub-085,1,random_dot,,
left,left,55.0,1.0,27.0,left,1.0,1.359165166999901,,speed,space,2.412524084000097,,,,,,0.0,0.0,0.0,1.0,27.0,1.0,55.0,0.0,304.16904925000017,,,,,,,,,304.1624521250001,305.36066395800003,306.15306775,306.14477658300007,306.14532733300007,306.15306775,306.15306775,306.15306775,,307.51928312500013,,,,,,,,,,,,,,,,,,,,,,,,,,,,,,left,1.0,1.359165166999901,,,,,,sub-085,1,random_dot,,
left,left,56.0,0.0,28.0,right,0.0,0.7693567090000215,,speed,space,2.412524084000097,,,,,,0.0,0.0,0.0,1.0,28.0,0.0,56.0,0.0,307.52658875,,,,,,,,,307.51970600000004,308.7169912080001,309.50911625000003,309.50063316700016,309.50106833300015,309.50911625000003,309.50911625000003,309.50911625000003,,310.28590295799995,,,,,,,,,,,,,,,,,,,,,,,,,,,,,,right,0.0,0.7693567090000215,,,,,,sub-085,1,random_dot,,
right,right,57.0,1.0,28.0,left,0.0,0.778658458000109,,speed,space,2.412524084000097,,,,,,0.0,0.0,0.0,1.0,28.0,1.0,57.0,1.0,310.29283483300014,,,,,,,,,310.286234167,311.08335616700015,311.875813292,311.8673462080001,311.86776058300006,311.875813292,311.875813292,311.875813292,,312.66239491700003,,,,,,,,,,,,,,,,,,,,,,,,,,,,,,left,0.0,0.778658458000109,,,,,,sub-085,1,random_dot,,
left,left,58.0,0.0,29.0,left,1.0,0.8916850410000734,,speed,space,2.412524084000097,,,,,,0.0,0.0,0.0,1.0,29.0,0.0,58.0,0.0,312.66935675000013,,,,,,,,,312.662885042,313.010689042,313.802571917,313.794572042,313.795038042,313.802571917,313.802571917,313.802571917,,314.6964196250001,,,,,,,,,,,,,,,,,,,,,,,,,,,,,,left,1.0,0.8916850410000734,,,,,,sub-085,1,random_dot,,
right,right,59.0,1.0,29.0,right,1.0,0.7284586250000302,,speed,space,2.412524084000097,,,,,,0.0,0.0,0.0,1.0,29.0,1.0,59.0,1.0,314.7036894580001,,,,,,,,,314.6969750420001,315.49399800000015,316.2861202920001,316.278124792,316.27859679200014,316.2861202920001,316.2861202920001,316.2861202920001,,317.0193583330001,,,,,,,,,,,,,,,,,,,,,,,,,,,,,,right,1.0,0.7284586250000302,,,,,,sub-085,1,random_dot,,
,,0.0,0.0,0.0,,,,,speed,space,2.412524084000097,,,,,,0.0,0.0,0.0,1.0,,,,,,,,,,,,,,,,,,,,,,,,,,,,,,,,,,,,,,,,,,,,,,,,,,,,,,,,,,,,,sub-085,1,random_dot,,
left,left,0.0,0.0,0.0,right,0.0,0.9092070419999344,,accuracy,space,7.87692104100006,,,,,,0.0,1.0,1.0,0.0,0.0,0.0,0.0,0.0,324.94632745800004,,,,,,,,,324.937583292,325.277378583,326.069691958,326.061643542,326.0621067080001,326.069691958,326.069691958,326.069691958,,326.9844438750001,,,,,,,,,,,,,,,,,,,,,,,317.0342732920001,317.0407458750001,317.0407458750001,324.9292404170001,space,7.87692104100006,,right,0.0,0.9092070419999344,,,,,,sub-085,1,random_dot,,
right,right,1.0,1.0,0.0,right,1.0,1.2908350000000155,,accuracy,space,7.87692104100006,,,,,,0.0,1.0,1.0,0.0,0.0,1.0,1.0,1.0,326.992408375,,,,,,,,,326.984789958,327.3273555830001,328.1199226670001,328.111573875,328.11212212500004,328.1199226670001,328.1199226670001,328.1199226670001,,329.41815795800017,,,,,,,,,,,,,,,,,,,,,,,,,,,,,,right,1.0,1.2908350000000155,,,,,,sub-085,1,random_dot,,
left,left,2.0,0.0,1.0,right,0.0,2.219417208000096,,accuracy,space,7.87692104100006,,,,,,0.0,1.0,1.0,0.0,1.0,0.0,2.0,0.0,329.42574012499995,,,,,,,,,329.4184728330001,329.516245458,330.3091547920001,330.30046370800005,330.30091666700014,330.3091547920001,330.3091547920001,330.3091547920001,,332.53476083300006,,,,,,,,,,,,,,,,,,,,,,,,,,,,,,right,0.0,2.219417208000096,,,,,,sub-085,1,random_dot,,
right,right,3.0,1.0,1.0,left,0.0,0.7974731249998968,,accuracy,space,7.87692104100006,,,,,,0.0,1.0,1.0,0.0,1.0,1.0,3.0,1.0,332.5424082080001,,,,,,,,,332.535090417,332.632845417,333.4258090830001,333.41705820800007,333.417492583,333.4258090830001,333.4258090830001,333.4258090830001,,334.2284333750001,,,,,,,,,,,,,,,,,,,,,,,,,,,,,,left,0.0,0.7974731249998968,,,,,,sub-085,1,random_dot,,
left,left,4.0,0.0,2.0,left,1.0,1.5304583329998422,,accuracy,space,7.87692104100006,,,,,,0.0,1.0,1.0,0.0,2.0,0.0,4.0,0.0,334.235963958,,,,,,,,,334.2288940830001,335.4273893750001,336.2195462080001,336.2114347500001,336.21199208300004,336.2195462080001,336.2195462080001,336.2195462080001,,337.762606708,,,,,,,,,,,,,,,,,,,,,,,,,,,,,,left,1.0,1.5304583329998422,,,,,,sub-085,1,random_dot,,
right,right,5.0,1.0,2.0,right,1.0,1.510435791999953,,accuracy,space,7.87692104100006,,,,,,0.0,1.0,1.0,0.0,2.0,1.0,5.0,1.0,337.7703107080001,,,,,,,,,337.76309600000013,338.960647417,339.7527794580001,339.744688625,339.74523512500014,339.7527794580001,339.7527794580001,339.7527794580001,,341.2675978750001,,,,,,,,,,,,,,,,,,,,,,,,,,,,,,right,1.0,1.510435791999953,,,,,,sub-085,1,random_dot,,
left,left,6.0,0.0,3.0,left,1.0,0.8967609169999378,,accuracy,space,7.87692104100006,,,,,,0.0,1.0,1.0,0.0,3.0,0.0,6.0,0.0,341.275715042,,,,,,,,,341.26790870800005,341.617669125,342.419082958,342.4113835830001,342.41193350000003,342.419082958,342.419082958,342.419082958,,343.318090125,,,,,,,,,,,,,,,,,,,,,,,,,,,,,,left,1.0,0.8967609169999378,,,,,,sub-085,1,random_dot,,
right,right,7.0,1.0,3.0,right,1.0,2.340515249999953,,accuracy,space,7.87692104100006,,,,,,0.0,1.0,1.0,0.0,3.0,1.0,7.0,1.0,343.32578645800004,,,,,,,,,343.3183919580001,344.517374625,345.30909662500017,345.300550083,345.30097883300004,345.30909662500017,345.30909662500017,345.30909662500017,,347.6617866250001,,,,,,,,,,,,,,,,,,,,,,,,,,,,,,right,1.0,2.340515249999953,,,,,,sub-085,1,random_dot,,
right,right,8.0,0.0,4.0,left,0.0,1.585894416000201,,accuracy,space,7.87692104100006,,,,,,0.0,1.0,1.0,0.0,4.0,0.0,8.0,1.0,347.6687259170001,,,,,,,,,347.662129417,348.010725458,348.802937125,348.79476654200016,348.79531791700015,348.802937125,348.802937125,348.802937125,,350.3942017080001,,,,,,,,,,,,,,,,,,,,,,,,,,,,,,left,0.0,1.585894416000201,,,,,,sub-085,1,random_dot,,
left,left,9.0,1.0,4.0,right,0.0,1.884121708999828,,accuracy,space,7.87692104100006,,,,,,0.0,1.0,1.0,0.0,4.0,1.0,9.0,0.0,350.4009659170001,,,,,,,,,350.394526542,351.18345087500006,351.98547375,351.977863417,351.97830925000017,351.98547375,351.98547375,351.98547375,,353.87831270800007,,,,,,,,,,,,,,,,,,,,,,,,,,,,,,right,0.0,1.884121708999828,,,,,,sub-085,1,random_dot,,
right,right,10.0,0.0,5.0,left,0.0,1.575176416999966,,accuracy,space,7.87692104100006,,,,,,0.0,1.0,1.0,0.0,5.0,0.0,10.0,1.0,353.8851662500001,,,,,,,,,353.878628792,354.2167126250001,355.0090741670001,355.00056591700013,355.00099387499995,355.0090741670001,355.0090741670001,355.0090741670001,,356.5958760000001,,,,,,,,,,,,,,,,,,,,,,,,,,,,,,left,0.0,1.575176416999966,,,,,,sub-085,1,random_dot,,
left,left,11.0,1.0,5.0,left,1.0,1.0085688330000266,,accuracy,space,7.87692104100006,,,,,,0.0,1.0,1.0,0.0,5.0,1.0,11.0,0.0,356.60304362500005,,,,,,,,,356.596360542,356.94388700000013,357.736037292,357.72790687500014,357.728459875,357.736037292,357.736037292,357.736037292,,358.7523032920001,,,,,,,,,,,,,,,,,,,,,,,,,,,,,,left,1.0,1.0085688330000266,,,,,,sub-085,1,random_dot,,
left,left,12.0,0.0,6.0,left,1.0,1.177601083000127,,accuracy,space,7.87692104100006,,,,,,0.0,1.0,1.0,0.0,6.0,0.0,12.0,0.0,358.75963716700016,,,,,,,,,358.752716833,359.95072904200015,360.752359417,360.744542292,360.745007083,360.752359417,360.752359417,360.752359417,,361.9352655830001,,,,,,,,,,,,,,,,,,,,,,,,,,,,,,left,1.0,1.177601083000127,,,,,,sub-085,1,random_dot,,
right,right,13.0,1.0,6.0,right,1.0,0.971025667000049,,accuracy,space,7.87692104100006,,,,,,0.0,1.0,1.0,0.0,6.0,1.0,13.0,1.0,361.942238542,,,,,,,,,361.935634125,362.0328447500001,362.825727792,362.817121667,362.8175464170001,362.825727792,362.825727792,362.825727792,,363.8024130420001,,,,,,,,,,,,,,,,,,,,,,,,,,,,,,right,1.0,0.971025667000049,,,,,,sub-085,1,random_dot,,
right,right,14.0,0.0,7.0,left,0.0,0.7351389160000963,,accuracy,space,7.87692104100006,,,,,,0.0,1.0,1.0,0.0,7.0,0.0,14.0,1.0,363.80911475000016,,,,,,,,,363.802727042,365.000118958,365.7923196250001,365.78375670800006,365.7841814170001,365.7923196250001,365.7923196250001,365.7923196250001,,366.529421833,,,,,,,,,,,,,,,,,,,,,,,,,,,,,,left,0.0,0.7351389160000963,,,,,,sub-085,1,random_dot,,
left,left,15.0,1.0,7.0,right,0.0,0.8476472079998985,,accuracy,space,7.87692104100006,,,,,,0.0,1.0,1.0,0.0,7.0,1.0,15.0,0.0,366.5361432500001,,,,,,,,,366.529794667,366.877401125,367.669526833,367.661432875,367.66198695800017,367.669526833,367.669526833,367.669526833,,368.528815208,,,,,,,,,,,,,,,,,,,,,,,,,,,,,,right,0.0,0.8476472079998985,,,,,,sub-085,1,random_dot,,
left,left,16.0,0.0,8.0,left,1.0,0.6729585409998435,,accuracy,space,7.87692104100006,,,,,,0.0,1.0,1.0,0.0,8.0,0.0,16.0,0.0,368.5358160420001,,,,,,,,,368.529249792,369.3272640830001,370.118949958,370.1111659580001,370.11163950000014,370.118949958,370.118949958,370.118949958,,370.795621167,,,,,,,,,,,,,,,,,,,,,,,,,,,,,,left,1.0,0.6729585409998435,,,,,,sub-085,1,random_dot,,
right,right,17.0,1.0,8.0,left,0.0,0.7522762920000332,,accuracy,space,7.87692104100006,,,,,,0.0,1.0,1.0,0.0,8.0,1.0,17.0,1.0,370.802751708,,,,,,,,,370.796089833,371.993970083,372.7862870000001,372.7780068750001,372.778567375,372.7862870000001,372.7862870000001,372.7862870000001,,373.545022625,,,,,,,,,,,,,,,,,,,,,,,,,,,,,,left,0.0,0.7522762920000332,,,,,,sub-085,1,random_dot,,
right,right,18.0,0.0,9.0,left,0.0,1.535753459000034,,accuracy,space,7.87692104100006,,,,,,0.0,1.0,1.0,0.0,9.0,0.0,18.0,1.0,373.5518393330001,,,,,,,,,373.545342292,374.7437607920001,375.5358872080001,375.52799637500016,375.528539792,375.5358872080001,375.5358872080001,375.5358872080001,,377.07833766700014,,,,,,,,,,,,,,,,,,,,,,,,,,,,,,left,0.0,1.535753459000034,,,,,,sub-085,1,random_dot,,
left,left,19.0,1.0,9.0,right,0.0,0.619246333999854,,accuracy,space,7.87692104100006,,,,,,0.0,1.0,1.0,0.0,9.0,1.0,19.0,0.0,377.085064333,,,,,,,,,377.078656958,377.1772245,377.969197917,377.961308083,377.961770375,377.969197917,377.969197917,377.969197917,,378.5953998330001,,,,,,,,,,,,,,,,,,,,,,,,,,,,,,right,0.0,0.619246333999854,,,,,,sub-085,1,random_dot,,
right,right,20.0,0.0,10.0,left,0.0,0.7791355829999702,,accuracy,space,7.87692104100006,,,,,,0.0,1.0,1.0,0.0,10.0,0.0,20.0,1.0,378.602650542,,,,,,,,,378.59585916700007,378.943979917,379.735919833,379.728031208,379.728596125,379.735919833,379.735919833,379.735919833,,380.5174010830001,,,,,,,,,,,,,,,,,,,,,,,,,,,,,,left,0.0,0.7791355829999702,,,,,,sub-085,1,random_dot,,
left,left,21.0,1.0,10.0,left,1.0,0.5689185000001089,,accuracy,space,7.87692104100006,,,,,,0.0,1.0,1.0,0.0,10.0,1.0,21.0,0.0,380.5260579170001,,,,,,,,,380.5177394580001,381.31815029200015,382.1202880000001,382.1114902920001,382.1120860830001,382.1202880000001,382.1202880000001,382.1202880000001,,382.694008167,,,,,,,,,,,,,,,,,,,,,,,,,,,,,,left,1.0,0.5689185000001089,,,,,,sub-085,1,random_dot,,
right,right,22.0,0.0,11.0,left,0.0,0.7728575000001001,,accuracy,space,7.87692104100006,,,,,,0.0,1.0,1.0,0.0,11.0,0.0,22.0,1.0,382.701126958,,,,,,,,,382.69436833300006,382.7826896250001,383.57597891700016,383.566279833,383.5667041670001,383.57597891700016,383.57597891700016,383.57597891700016,,384.352616208,,,,,,,,,,,,,,,,,,,,,,,,,,,,,,left,0.0,0.7728575000001001,,,,,,sub-085,1,random_dot,,
left,left,23.0,1.0,11.0,right,0.0,0.3923087499999838,,accuracy,space,7.87692104100006,,,,,,0.0,1.0,1.0,0.0,11.0,1.0,23.0,0.0,384.3596358750001,,,,,,,,,384.3529605420001,385.55017962500006,386.3422685000001,386.33382470800007,386.33425016700016,386.3422685000001,386.3422685000001,386.3422685000001,,386.7453928750001,,,,,,,,,,,,,,,,,,,,,,,,,,,,,,right,0.0,0.3923087499999838,,,,,,sub-085,1,random_dot,,
right,right,24.0,0.0,12.0,right,1.0,0.6525930830000561,,accuracy,space,7.87692104100006,,,,,,0.0,1.0,1.0,0.0,12.0,0.0,24.0,1.0,386.75237733300014,,,,,,,,,386.74581383300006,386.8437603750001,387.635717875,387.627867292,387.62832075000006,387.635717875,387.635717875,387.635717875,,388.294452417,,,,,,,,,,,,,,,,,,,,,,,,,,,,,,right,1.0,0.6525930830000561,,,,,,sub-085,1,random_dot,,
left,left,25.0,1.0,12.0,right,0.0,0.6578339579998556,,accuracy,space,7.87692104100006,,,,,,0.0,1.0,1.0,0.0,12.0,1.0,25.0,0.0,388.301958042,,,,,,,,,388.294909,388.6351542080001,389.4361630420001,389.4278918750001,389.4283579170001,389.4361630420001,389.4361630420001,389.4361630420001,,390.0958861250001,,,,,,,,,,,,,,,,,,,,,,,,,,,,,,right,0.0,0.6578339579998556,,,,,,sub-085,1,random_dot,,
right,right,26.0,0.0,13.0,left,0.0,0.5586275830000886,,accuracy,space,7.87692104100006,,,,,,0.0,1.0,1.0,0.0,13.0,0.0,26.0,1.0,390.1008306670001,,,,,,,,,390.09632054200006,390.89382312500015,391.68558900000016,391.6777997920001,391.6782767500001,391.68558900000016,391.68558900000016,391.68558900000016,,392.24630308300016,,,,,,,,,,,,,,,,,,,,,,,,,,,,,,left,0.0,0.5586275830000886,,,,,,sub-085,1,random_dot,,
left,left,27.0,1.0,13.0,right,0.0,0.5766304999999647,,accuracy,space,7.87692104100006,,,,,,0.0,1.0,1.0,0.0,13.0,1.0,27.0,0.0,392.2531146250001,,,,,,,,,392.246655208,392.34361720800007,393.13596425000014,393.1278809580001,393.12845425,393.13596425000014,393.13596425000014,393.13596425000014,,393.718140875,,,,,,,,,,,,,,,,,,,,,,,,,,,,,,right,0.0,0.5766304999999647,,,,,,sub-085,1,random_dot,,
right,right,28.0,0.0,14.0,right,1.0,0.49779654200006,,accuracy,space,7.87692104100006,,,,,,0.0,1.0,1.0,0.0,14.0,0.0,28.0,1.0,393.726013125,,,,,,,,,393.718474458,394.066253125,394.85895325,394.850597333,394.8510482500001,394.85895325,394.85895325,394.85895325,,395.3602712920001,,,,,,,,,,,,,,,,,,,,,,,,,,,,,,right,1.0,0.49779654200006,,,,,,sub-085,1,random_dot,,
left,left,29.0,1.0,14.0,right,0.0,0.5725023749998854,,accuracy,space,7.87692104100006,,,,,,0.0,1.0,1.0,0.0,14.0,1.0,29.0,0.0,395.36729537500014,,,,,,,,,395.36068725,395.4493621670001,396.242235292,396.233657542,396.23410145800017,396.242235292,396.242235292,396.242235292,,396.8185262920001,,,,,,,,,,,,,,,,,,,,,,,,,,,,,,right,0.0,0.5725023749998854,,,,,,sub-085,1,random_dot,,
right,right,30.0,0.0,15.0,left,0.0,0.991753208000091,,accuracy,space,7.87692104100006,,,,,,0.0,1.0,1.0,0.0,15.0,0.0,30.0,1.0,396.82535604200007,,,,,,,,,396.818836208,397.61750937500005,398.41982062500006,398.411241,398.41178412500017,398.41982062500006,398.41982062500006,398.41982062500006,,399.41722700000014,,,,,,,,,,,,,,,,,,,,,,,,,,,,,,left,0.0,0.991753208000091,,,,,,sub-085,1,random_dot,,
left,left,31.0,1.0,15.0,left,1.0,1.148011792000034,,accuracy,space,7.87692104100006,,,,,,0.0,1.0,1.0,0.0,15.0,1.0,31.0,0.0,399.425911583,,,,,,,,,399.417620958,400.210430958,401.002624625,400.994518583,400.994966083,401.002624625,401.002624625,401.002624625,,402.1614984170001,,,,,,,,,,,,,,,,,,,,,,,,,,,,,,left,1.0,1.148011792000034,,,,,,sub-085,1,random_dot,,
right,right,32.0,0.0,16.0,right,1.0,0.8496167499999956,,accuracy,space,7.87692104100006,,,,,,0.0,1.0,1.0,0.0,16.0,0.0,32.0,1.0,402.1683517080001,,,,,,,,,402.161817833,403.360466292,404.152626583,404.1445166250001,404.1450850420001,404.152626583,404.152626583,404.152626583,,405.0120975,,,,,,,,,,,,,,,,,,,,,,,,,,,,,,right,1.0,0.8496167499999956,,,,,,sub-085,1,random_dot,,
left,left,33.0,1.0,16.0,right,0.0,2.19206783300001,,accuracy,space,7.87692104100006,,,,,,0.0,1.0,1.0,0.0,16.0,1.0,33.0,0.0,405.01934004200007,,,,,,,,,405.0125122080001,406.210533917,407.0022180830001,406.994492,406.9949381670001,407.0022180830001,407.0022180830001,407.0022180830001,,409.199277083,,,,,,,,,,,,,,,,,,,,,,,,,,,,,,right,0.0,2.19206783300001,,,,,,sub-085,1,random_dot,,
left,left,34.0,0.0,17.0,left,1.0,0.8320117079999818,,accuracy,space,7.87692104100006,,,,,,0.0,1.0,1.0,0.0,17.0,0.0,34.0,0.0,409.210177708,,,,,,,,,409.199586875,409.993696042,410.7858657920001,410.77792516700015,410.778476208,410.7858657920001,410.7858657920001,410.7858657920001,,411.6282309170001,,,,,,,,,,,,,,,,,,,,,,,,,,,,,,left,1.0,0.8320117079999818,,,,,,sub-085,1,random_dot,,
right,right,35.0,1.0,17.0,right,1.0,0.729583292000143,,accuracy,space,7.87692104100006,,,,,,0.0,1.0,1.0,0.0,17.0,1.0,35.0,1.0,411.63185054200017,,,,,,,,,411.628575833,412.427172875,413.2189995000001,413.2112044170001,413.21174095800006,413.2189995000001,413.2189995000001,413.2189995000001,,413.95016225,,,,,,,,,,,,,,,,,,,,,,,,,,,,,,right,1.0,0.729583292000143,,,,,,sub-085,1,random_dot,,
right,right,36.0,0.0,18.0,left,0.0,0.7158385830000498,,accuracy,space,7.87692104100006,,,,,,0.0,1.0,1.0,0.0,18.0,0.0,36.0,1.0,413.958964875,,,,,,,,,413.950476833,414.293759792,415.08532512500005,415.0777257080001,415.0781655420001,415.08532512500005,415.08532512500005,415.08532512500005,,415.812129292,,,,,,,,,,,,,,,,,,,,,,,,,,,,,,left,0.0,0.7158385830000498,,,,,,sub-085,1,random_dot,,
left,left,37.0,1.0,18.0,right,0.0,0.9428043339999022,,accuracy,space,7.87692104100006,,,,,,0.0,1.0,1.0,0.0,18.0,1.0,37.0,0.0,415.81917991700016,,,,,,,,,415.81266125,417.0105616670001,417.8028348330001,417.7947642920001,417.795341583,417.8028348330001,417.8028348330001,417.8028348330001,,418.75070429200014,,,,,,,,,,,,,,,,,,,,,,,,,,,,,,right,0.0,0.9428043339999022,,,,,,sub-085,1,random_dot,,
right,right,38.0,0.0,19.0,left,0.0,1.101633666999987,,accuracy,space,7.87692104100006,,,,,,0.0,1.0,1.0,0.0,19.0,0.0,38.0,1.0,418.7587820420001,,,,,,,,,418.7510340000001,418.849235792,419.6421808750001,419.633622417,419.634037667,419.6421808750001,419.6421808750001,419.6421808750001,,420.74608208300015,,,,,,,,,,,,,,,,,,,,,,,,,,,,,,left,0.0,1.101633666999987,,,,,,sub-085,1,random_dot,,
left,left,39.0,1.0,19.0,right,0.0,1.386443499999814,,accuracy,space,7.87692104100006,,,,,,0.0,1.0,1.0,0.0,19.0,1.0,39.0,0.0,420.753008125,,,,,,,,,420.7464749170001,421.5437669170001,422.33548591700014,422.32768016700015,422.32813016700015,422.33548591700014,422.33548591700014,422.33548591700014,,423.7286335000001,,,,,,,,,,,,,,,,,,,,,,,,,,,,,,right,0.0,1.386443499999814,,,,,,sub-085,1,random_dot,,
right,right,40.0,0.0,20.0,left,0.0,2.9018162919999213,,accuracy,space,7.87692104100006,,,,,,0.0,1.0,1.0,0.0,20.0,0.0,40.0,1.0,423.73564212500014,,,,,,,,,423.729087167,424.9272202080001,425.7194267080001,425.7109061670001,425.7113549580001,425.7194267080001,425.7194267080001,425.7194267080001,,428.627504,,,,,,,,,,,,,,,,,,,,,,,,,,,,,,left,0.0,2.9018162919999213,,,,,,sub-085,1,random_dot,,
left,left,41.0,1.0,20.0,left,1.0,2.034216750000041,,accuracy,space,7.87692104100006,,,,,,0.0,1.0,1.0,0.0,20.0,1.0,41.0,0.0,428.6341950420001,,,,,,,,,428.627819583,428.96754287500016,429.76854170800016,429.76100695800005,429.761462917,429.76854170800016,429.76854170800016,429.76854170800016,,431.81232475,,,,,,,,,,,,,,,,,,,,,,,,,,,,,,left,1.0,2.034216750000041,,,,,,sub-085,1,random_dot,,
left,left,42.0,0.0,21.0,right,0.0,0.7462638750000679,,accuracy,space,7.87692104100006,,,,,,0.0,1.0,1.0,0.0,21.0,0.0,42.0,0.0,431.8197512920001,,,,,,,,,431.8128473750001,432.61045475000014,433.4023647080001,433.3945551250001,433.39500629200006,433.4023647080001,433.4023647080001,433.4023647080001,,434.151699667,,,,,,,,,,,,,,,,,,,,,,,,,,,,,,right,0.0,0.7462638750000679,,,,,,sub-085,1,random_dot,,
right,right,43.0,1.0,21.0,right,1.0,1.3321637910000843,,accuracy,space,7.87692104100006,,,,,,0.0,1.0,1.0,0.0,21.0,1.0,43.0,1.0,434.1588630420001,,,,,,,,,434.15202287500006,434.5006047080001,435.30265825000015,435.294588667,435.29512475,435.30265825000015,435.30265825000015,435.30265825000015,,436.645187292,,,,,,,,,,,,,,,,,,,,,,,,,,,,,,right,1.0,1.3321637910000843,,,,,,sub-085,1,random_dot,,
right,right,44.0,0.0,22.0,right,1.0,2.190645750000158,,accuracy,space,7.87692104100006,,,,,,0.0,1.0,1.0,0.0,22.0,0.0,44.0,1.0,436.6525775,,,,,,,,,436.64562891700007,437.8437255000001,438.63547129200015,438.62763400000017,438.628166167,438.63547129200015,438.63547129200015,438.63547129200015,,440.8366698750001,,,,,,,,,,,,,,,,,,,,,,,,,,,,,,right,1.0,2.190645750000158,,,,,,sub-085,1,random_dot,,
left,left,45.0,1.0,22.0,left,1.0,1.1301596670000436,,accuracy,space,7.87692104100006,,,,,,0.0,1.0,1.0,0.0,22.0,1.0,45.0,0.0,440.84210020800015,,,,,,,,,440.837001375,441.63329987500015,442.42545875,442.4171743330001,442.417612875,442.42545875,442.42545875,442.42545875,,443.5600689580001,,,,,,,,,,,,,,,,,,,,,,,,,,,,,,left,1.0,1.1301596670000436,,,,,,sub-085,1,random_dot,,
right,right,46.0,0.0,23.0,right,1.0,1.7314540419999958,,accuracy,space,7.87692104100006,,,,,,0.0,1.0,1.0,0.0,23.0,0.0,46.0,1.0,443.566858917,,,,,,,,,443.56038141700014,444.7499062500001,445.542130458,445.5335822080001,445.53401154200014,445.542130458,445.542130458,445.542130458,,447.2779424170001,,,,,,,,,,,,,,,,,,,,,,,,,,,,,,right,1.0,1.7314540419999958,,,,,,sub-085,1,random_dot,,
left,left,47.0,1.0,23.0,left,1.0,1.4139900829998169,,accuracy,space,7.87692104100006,,,,,,0.0,1.0,1.0,0.0,23.0,1.0,47.0,0.0,447.28490929200007,,,,,,,,,447.278377458,447.376976667,448.168954,448.16099016700014,448.16146008300007,448.168954,448.168954,448.168954,,449.585226208,,,,,,,,,,,,,,,,,,,,,,,,,,,,,,left,1.0,1.4139900829998169,,,,,,sub-085,1,random_dot,,
right,right,48.0,0.0,24.0,left,0.0,2.323854875000052,,accuracy,space,7.87692104100006,,,,,,0.0,1.0,1.0,0.0,24.0,0.0,48.0,1.0,449.5925331250001,,,,,,,,,449.58568975,449.68268745800015,450.4755305420001,450.466452833,450.46691929200006,450.4755305420001,450.4755305420001,450.4755305420001,,452.80189637500007,,,,,,,,,,,,,,,,,,,,,,,,,,,,,,left,0.0,2.323854875000052,,,,,,sub-085,1,random_dot,,
left,left,49.0,1.0,24.0,left,1.0,2.2255021670000588,,accuracy,space,7.87692104100006,,,,,,0.0,1.0,1.0,0.0,24.0,1.0,49.0,0.0,452.80882633300007,,,,,,,,,452.8022181250001,454.000969125,454.80214308300015,454.7943532500001,454.7947911670001,454.80214308300015,454.80214308300015,454.80214308300015,,457.033420083,,,,,,,,,,,,,,,,,,,,,,,,,,,,,,left,1.0,2.2255021670000588,,,,,,sub-085,1,random_dot,,
left,left,50.0,0.0,25.0,right,0.0,2.102057584000022,,accuracy,space,7.87692104100006,,,,,,0.0,1.0,1.0,0.0,25.0,0.0,50.0,0.0,457.042460333,,,,,,,,,457.033743708,457.132666083,457.9254128330001,457.9170005420001,457.917437375,457.9254128330001,457.9254128330001,457.9254128330001,,460.03758195800015,,,,,,,,,,,,,,,,,,,,,,,,,,,,,,right,0.0,2.102057584000022,,,,,,sub-085,1,random_dot,,
right,right,51.0,1.0,25.0,right,1.0,2.103691207999873,,accuracy,space,7.87692104100006,,,,,,0.0,1.0,1.0,0.0,25.0,1.0,51.0,1.0,460.0420414580001,,,,,,,,,460.037904625,460.8330993750001,461.625466,461.6164872080001,461.616911375,461.625466,461.625466,461.625466,,463.735460458,,,,,,,,,,,,,,,,,,,,,,,,,,,,,,right,1.0,2.103691207999873,,,,,,sub-085,1,random_dot,,
right,right,52.0,0.0,26.0,left,0.0,1.590108207999947,,accuracy,space,7.87692104100006,,,,,,0.0,1.0,1.0,0.0,26.0,0.0,52.0,1.0,463.7428285830001,,,,,,,,,463.7358965000001,463.832576583,464.6254725420001,464.617449458,464.61787175,464.6254725420001,464.6254725420001,464.6254725420001,,466.217613625,,,,,,,,,,,,,,,,,,,,,,,,,,,,,,left,0.0,1.590108207999947,,,,,,sub-085,1,random_dot,,
left,left,53.0,1.0,26.0,left,1.0,2.3241362500000378,,accuracy,space,7.87692104100006,,,,,,0.0,1.0,1.0,0.0,26.0,1.0,53.0,0.0,466.2257547500001,,,,,,,,,466.2179691670001,466.318284833,467.119532792,467.11112908300015,467.111696792,467.119532792,467.119532792,467.119532792,,469.445543458,,,,,,,,,,,,,,,,,,,,,,,,,,,,,,left,1.0,2.3241362500000378,,,,,,sub-085,1,random_dot,,
left,left,54.0,0.0,27.0,left,1.0,2.206708333999813,,accuracy,space,7.87692104100006,,,,,,0.0,1.0,1.0,0.0,27.0,0.0,54.0,0.0,469.4501674170001,,,,,,,,,469.445907458,470.6436053330001,471.436293708,471.4278938750001,471.4284574170001,471.436293708,471.436293708,471.436293708,,473.6452334580001,,,,,,,,,,,,,,,,,,,,,,,,,,,,,,left,1.0,2.206708333999813,,,,,,sub-085,1,random_dot,,
right,right,55.0,1.0,27.0,left,0.0,2.1918978329999845,,accuracy,space,7.87692104100006,,,,,,0.0,1.0,1.0,0.0,27.0,1.0,55.0,1.0,473.652175917,,,,,,,,,473.64559283300014,473.743615417,474.535296667,474.5275245,474.527958292,474.535296667,474.535296667,474.535296667,,476.7292895000001,,,,,,,,,,,,,,,,,,,,,,,,,,,,,,left,0.0,2.1918978329999845,,,,,,sub-085,1,random_dot,,
left,left,56.0,0.0,28.0,left,1.0,1.2980855420000807,,accuracy,space,7.87692104100006,,,,,,0.0,1.0,1.0,0.0,28.0,0.0,56.0,0.0,476.73622912500014,,,,,,,,,476.72965925000017,477.077057,477.86901591700007,477.86108450000006,477.8616399170001,477.86901591700007,477.86901591700007,477.86901591700007,,479.169270292,,,,,,,,,,,,,,,,,,,,,,,,,,,,,,left,1.0,1.2980855420000807,,,,,,sub-085,1,random_dot,,
right,right,57.0,1.0,28.0,right,1.0,1.301222874999894,,accuracy,space,7.87692104100006,,,,,,0.0,1.0,1.0,0.0,28.0,1.0,57.0,1.0,479.176571125,,,,,,,,,479.1697905420001,479.5167335830001,480.308940958,480.3000057500001,480.3004760000001,480.308940958,480.308940958,480.308940958,,481.612199208,,,,,,,,,,,,,,,,,,,,,,,,,,,,,,right,1.0,1.301222874999894,,,,,,sub-085,1,random_dot,,
left,left,58.0,0.0,29.0,right,0.0,1.425951959000031,,accuracy,space,7.87692104100006,,,,,,0.0,1.0,1.0,0.0,29.0,0.0,58.0,0.0,481.61937791700007,,,,,,,,,481.612638458,481.96017375,482.75172920800014,482.7442530830001,482.744698125,482.75172920800014,482.75172920800014,482.75172920800014,,484.1847117500001,,,,,,,,,,,,,,,,,,,,,,,,,,,,,,right,0.0,1.425951959000031,,,,,,sub-085,1,random_dot,,
right,right,59.0,1.0,29.0,left,0.0,0.9966214170001422,,accuracy,space,7.87692104100006,,,,,,0.0,1.0,1.0,0.0,29.0,1.0,59.0,1.0,484.1917061670001,,,,,,,,,484.185053792,484.53413379200015,485.33535633300016,485.3276510830001,485.32808379200014,485.33535633300016,485.33535633300016,485.33535633300016,,486.33368162500005,,,,,,,,,,,,,,,,,,,,,,,,,,,,,,left,0.0,0.9966214170001422,,,,,,sub-085,1,random_dot,,
,,1.0,1.0,0.0,,,,,accuracy,space,7.87692104100006,,,,,,0.0,1.0,1.0,0.0,,,,,,,,,,,,,,,,,,,,,,,,,,,,,,,,,,,,,,,,,,,,,,,,,,,,,,,,,,,,,sub-085,1,random_dot,,
,,,,,,,,,,,,,,,,,,,,,,,,,,,,,,,,,,,,,,,,,,,,,,,,,,,,,,,,,,,,,,,,,,,,,,,,,,,,,486.33912691700016,486.346157708,491.343456583,491.33306912500007,sub-085,1,random_dot,,
