wordCTK,colorCTK,corrAnsCTK,congruentCTK,thisN,thisTrialN,thisRepN,keyResp_CTK.keys,keyResp_CTK.corr,keyResp_CTK.rt,keyResp_CTK.duration,wordPractice,colorPractice,corrAnsPractice,congruentPractice,respPractice.keys,respPractice.corr,respPractice.rt,respPractice.duration,word,color,corrAns,congruent,keyResp_test_run.keys,keyResp_test_run.corr,keyResp_test_run.rt,keyResp_test_run.duration,trials_CTK.thisRepN,trials_CTK.thisTrialN,trials_CTK.thisN,trials_CTK.thisIndex,trials_practice.thisRepN,trials_practice.thisTrialN,trials_practice.thisN,trials_practice.thisIndex,trials_test.thisRepN,trials_test.thisTrialN,trials_test.thisN,trials_test.thisIndex,thisRow.t,notes,instruction.started,instr_text.started,instr_image.started,instr_resp.started,instruction.stopped,instr_resp.keys,instr_resp.rt,instr_resp.duration,instr_color_to_key.started,instr_ctk.started,resp_ctk.started,instr_color_to_key.stopped,resp_ctk.keys,resp_ctk.rt,resp_ctk.duration,ITI.started,fixcross.started,fixcross.stopped,ITI.stopped,color_to_key_run.started,stimulus_CTK.started,keyResp_CTK.started,color_to_key_run.stopped,trials_CTK.keyResp_CTK.keys,trials_CTK.keyResp_CTK.corr,trials_CTK.keyResp_CTK.rt,trials_CTK.keyResp_CTK.duration,instr_practice.started,instr_practice_text.started,instr_practice_resp.started,instr_practice.stopped,instr_practice_resp.keys,instr_practice_resp.rt,instr_practice_resp.duration,practice_run.started,stimulus_practice.started,respPractice.started,practice_run.stopped,trials_practice.respPractice.keys,trials_practice.respPractice.corr,trials_practice.respPractice.rt,trials_practice.respPractice.duration,feedback.started,textFeedback.started,textFeedback.stopped,feedback.stopped,instr_test.started,instr_test_text.started,instr_test_resp.started,instr_test.stopped,instr_test_resp.keys,instr_test_resp.rt,instr_test_resp.duration,test_run.started,stimulus_test_run.started,keyResp_test_run.started,test_run.stopped,trials_test.keyResp_test_run.keys,trials_test.keyResp_test_run.corr,trials_test.keyResp_test_run.rt,trials_test.keyResp_test_run.duration,goodbye.started,textGoodbye.started,goodbye.stopped,participant,session,expName,frameRate,Unnamed: 112
,,,,,,,,,,,,,,,,,,,,,,,,,,,,,,,,,,,,,,,,,0.0030328000430017,0.0392928000073879,0.0392928000073879,0.0392928000073879,34.7958762999624,space,34.74849749985151,,,,,,,,,,,,,,,,,,,,,,,,,,,,,,,,,,,,,,,,,,,,,,,,,,,,,,,,,,sub-181,1,stroop_test,60.086801368693465,
,,,,,,,,,,,,,,,,,,,,,,,,,,,,,,,,,,,,,,,,,,,,,,,,,34.79591940017417,34.80759280011989,34.80759280011989,38.972690399969,space,4.157648199936375,,,,,,,,,,,,,,,,,,,,,,,,,,,,,,,,,,,,,,,,,,,,,,,,,,,sub-181,1,stroop_test,60.086801368693465,
test,blue,b,1.0,0.0,0.0,0.0,b,1.0,1.4688542999792844,,,,,,,,,,,,,,,,,,0.0,0.0,0.0,2.0,,,,,,,,,38.98861170001328,,,,,,,,,,,,,,,,,38.98068580008112,39.08802690007724,39.88774160016328,39.87148390011862,39.87817859998904,39.88774160016328,39.88774160016328,41.37090930016711,b,1.0,1.4688542999792844,,,,,,,,,,,,,,,,,,,,,,,,,,,,,,,,,,,,,,,sub-181,1,stroop_test,60.086801368693465,
test,yellow,g,1.0,1.0,1.0,0.0,r,0.0,1.229692199965939,,,,,,,,,,,,,,,,,,0.0,1.0,1.0,1.0,,,,,,,,,41.38676310004666,,,,,,,,,,,,,,,,,41.37118190014735,42.5862136001233,43.385390000185,43.36943119997159,43.3699003001675,43.385390000185,43.385390000185,44.6191285001114,r,0.0,1.229692199965939,,,,,,,,,,,,,,,,,,,,,,,,,,,,,,,,,,,,,,,sub-181,1,stroop_test,60.086801368693465,
test,red,r,1.0,2.0,2.0,0.0,r,1.0,1.1980276999529451,,,,,,,,,,,,,,,,,,0.0,2.0,2.0,0.0,,,,,,,,,44.63468450005166,,,,,,,,,,,,,,,,,44.619445299962536,44.98478709999472,45.78424700000323,45.76796209998429,45.76848189998418,45.78424700000323,45.78424700000323,46.984258900163695,r,1.0,1.1980276999529451,,,,,,,,,,,,,,,,,,,,,,,,,,,,,,,,,,,,,,,sub-181,1,stroop_test,60.086801368693465,
test,blue,b,1.0,3.0,0.0,1.0,b,1.0,0.6967702999245375,,,,,,,,,,,,,,,,,,1.0,0.0,3.0,2.0,,,,,,,,,46.99979729996994,,,,,,,,,,,,,,,,,46.984573600115255,47.08327810000628,47.88278009998612,47.86680830013938,47.86725110001862,47.88278009998612,47.88278009998612,48.58334710006602,b,1.0,0.6967702999245375,,,,,,,,,,,,,,,,,,,,,,,,,,,,,,,,,,,,,,,sub-181,1,stroop_test,60.086801368693465,
test,yellow,g,1.0,4.0,1.0,1.0,b,0.0,1.184239099966362,,,,,,,,,,,,,,,,,,1.0,1.0,4.0,1.0,,,,,,,,,48.598793500103056,,,,,,,,,,,,,,,,,48.58365060016513,49.79819060000591,50.59782969998196,50.58179820002988,50.582256600027904,50.59782969998196,50.59782969998196,51.79837460000999,b,0.0,1.184239099966362,,,,,,,,,,,,,,,,,,,,,,,,,,,,,,,,,,,,,,,sub-181,1,stroop_test,60.086801368693465,
test,red,r,1.0,5.0,2.0,1.0,r,1.0,1.0585620999336245,,,,,,,,,,,,,,,,,,1.0,2.0,5.0,0.0,,,,,,,,,51.81393690011464,,,,,,,,,,,,,,,,,51.79869920015335,53.01312200003304,53.812401900067925,53.79631660017185,53.79679589997977,53.812401900067925,53.812401900067925,54.879541100002825,r,1.0,1.0585620999336245,,,,,,,,,,,,,,,,,,,,,,,,,,,,,,,,,,,,,,,sub-181,1,stroop_test,60.086801368693465,
test,blue,b,1.0,6.0,0.0,2.0,b,1.0,0.8039195998571813,,,,,,,,,,,,,,,,,,2.0,0.0,6.0,2.0,,,,,,,,,54.89518690016121,,,,,,,,,,,,,,,,,54.87986099999398,55.69472320005298,56.49438660009764,56.47799629997462,56.47846290003508,56.49438660009764,56.49438660009764,57.31147200008854,b,1.0,0.8039195998571813,,,,,,,,,,,,,,,,,,,,,,,,,,,,,,,,,,,,,,,sub-181,1,stroop_test,60.086801368693465,
test,red,r,1.0,7.0,1.0,2.0,r,1.0,0.9475785000249743,,,,,,,,,,,,,,,,,,2.0,1.0,7.0,0.0,,,,,,,,,57.32720239995979,,,,,,,,,,,,,,,,,57.31173419998959,58.1264013000764,58.92593050003052,58.90963500016369,58.91006620018743,58.92593050003052,58.92593050003052,59.8765203000512,r,1.0,0.9475785000249743,,,,,,,,,,,,,,,,,,,,,,,,,,,,,,,,,,,,,,,sub-181,1,stroop_test,60.086801368693465,
test,yellow,g,1.0,8.0,2.0,2.0,g,1.0,0.5570916999131441,,,,,,,,,,,,,,,,,,2.0,2.0,8.0,1.0,,,,,,,,,59.89210409997031,,,,,,,,,,,,,,,,,59.876847400097176,61.09127360000275,61.89103769999929,61.87501540011726,61.87551170005463,61.89103769999929,61.89103769999929,62.458291799994186,g,1.0,0.5570916999131441,,,,,,,,,,,,,,,,,,,,,,,,,,,,,,,,,,,,,,,sub-181,1,stroop_test,60.086801368693465,
test,yellow,g,1.0,9.0,0.0,3.0,g,1.0,0.5910246998537332,,,,,,,,,,,,,,,,,,3.0,0.0,9.0,1.0,,,,,,,,,62.47395350015722,,,,,,,,,,,,,,,,,62.45863330014981,62.57368839997798,63.37328519998118,63.357227800181136,63.35771950008348,63.37328519998118,63.37328519998118,63.97366390004754,g,1.0,0.5910246998537332,,,,,,,,,,,,,,,,,,,,,,,,,,,,,,,,,,,,,,,sub-181,1,stroop_test,60.086801368693465,
test,blue,b,1.0,10.0,1.0,3.0,b,1.0,1.1073720001149925,,,,,,,,,,,,,,,,,,3.0,1.0,10.0,2.0,,,,,,,,,63.98981690010987,,,,,,,,,,,,,,,,,63.97388010006398,65.18888310017064,65.98823840008117,65.97241519996896,65.97293960000388,65.98823840008117,65.98823840008117,67.10544610000215,b,1.0,1.1073720001149925,,,,,,,,,,,,,,,,,,,,,,,,,,,,,,,,,,,,,,,sub-181,1,stroop_test,60.086801368693465,
test,red,r,1.0,11.0,2.0,3.0,r,1.0,0.68112160009332,,,,,,,,,,,,,,,,,,3.0,2.0,11.0,0.0,,,,,,,,,67.12099039996974,,,,,,,,,,,,,,,,,67.10580840008333,67.47078049997799,68.27025680011138,68.25432870001532,68.25474780006334,68.27025680011138,68.27025680011138,68.95457540010102,r,1.0,0.68112160009332,,,,,,,,,,,,,,,,,,,,,,,,,,,,,,,,,,,,,,,sub-181,1,stroop_test,60.086801368693465,
,,,,,,,,,,,,,,,,,,,,,,,,,,,,,,,,,,,,,,,,,,,,,,,,,,,,,,,,,,,,,,,,,,,,68.95474139996804,68.97032550000586,68.97032550000586,74.55127150006592,space,5.57246799999848,,,,,,,,,,,,,,,,,,,,,,,,,,,,,,,,sub-181,1,stroop_test,60.086801368693465,
,,,,0.0,0.0,0.0,,,,,gelb,yellow,g,1.0,g,1.0,0.9292994998395444,,,,,,,,,,,,,,0.0,0.0,0.0,11.0,,,,,74.5664058001712,,,,,,,,,,,,,,,,,74.5598434000276,74.66656580008566,75.4659299000632,75.44993470003828,,,,,,,,,,,,,,,,75.45592189999297,75.4659299000632,75.4659299000632,76.39976930012926,g,1.0,0.9292994998395444,,76.40733060007915,76.4157859000843,77.41484400001355,77.39888860005885,,,,,,,,,,,,,,,,,,,sub-181,1,stroop_test,60.086801368693465,
,,,,1.0,1.0,0.0,,,,,rot,red,r,1.0,r,1.0,0.8339046998880804,,,,,,,,,,,,,,0.0,1.0,1.0,0.0,,,,,77.41484400001355,,,,,,,,,,,,,,,,,77.39916020003147,78.21419960004278,79.01387540018186,78.99768490018323,,,,,,,,,,,,,,,,79.00339399999939,79.01387540018186,79.01387540018186,79.8651133000385,r,1.0,0.8339046998880804,,79.86575570004061,79.87999809999019,80.87924590008333,80.86346510006115,,,,,,,,,,,,,,,,,,,sub-181,1,stroop_test,60.086801368693465,
,,,,2.0,2.0,0.0,,,,,blau,blue,b,1.0,b,1.0,0.4805927001871168,,,,,,,,,,,,,,0.0,2.0,2.0,6.0,,,,,80.87924590008333,,,,,,,,,,,,,,,,,80.86388020007871,81.6786305999849,82.47835320001468,82.46208250010386,,,,,,,,,,,,,,,,82.46749370009638,82.47835320001468,82.47835320001468,82.96260800003074,b,1.0,0.4805927001871168,,82.96313300007023,82.97804890014231,83.97758210008033,83.96147510013543,,,,,,,,,,,,,,,,,,,sub-181,1,stroop_test,60.086801368693465,
,,,,3.0,3.0,0.0,,,,,gelb,yellow,g,1.0,g,1.0,0.7312984000891447,,,,,,,,,,,,,,0.0,3.0,3.0,10.0,,,,,83.97758210008033,,,,,,,,,,,,,,,,,83.96171880001202,85.17638249997981,85.97637420007959,85.96027000015602,,,,,,,,,,,,,,,,85.96299810009077,85.97637420007959,85.97637420007959,86.71048090001568,g,1.0,0.7312984000891447,,86.710975300055,86.72578340000473,87.7251363999676,87.7092214000877,,,,,,,,,,,,,,,,,,,sub-181,1,stroop_test,60.086801368693465,
,,,,4.0,4.0,0.0,,,,,rot,yellow,g,0.0,g,1.0,0.89849209995009,,,,,,,,,,,,,,0.0,4.0,4.0,3.0,,,,,87.7251363999676,,,,,,,,,,,,,,,,,87.7095402001869,87.82522320002317,88.62456450005993,88.60871970001608,,,,,,,,,,,,,,,,88.6125413000118,88.62456450005993,88.62456450005993,89.52551740012132,g,1.0,0.89849209995009,,89.52620480000041,89.54057000018656,90.54013670003042,90.52417420013808,,,,,,,,,,,,,,,,,,,sub-181,1,stroop_test,60.086801368693465,
,,,,5.0,5.0,0.0,,,,,blau,blue,b,1.0,b,1.0,0.5999074000865221,,,,,,,,,,,,,,0.0,5.0,5.0,5.0,,,,,90.54013670003042,,,,,,,,,,,,,,,,,90.52444349997675,90.88976990012452,91.68958260002546,91.67320750001818,,,,,,,,,,,,,,,,91.67553919996136,91.68958260002546,91.68958260002546,92.30649700015783,b,1.0,0.5999074000865221,,92.3069452000782,92.32239500014111,93.32191359996796,93.30552060017362,,,,,,,,,,,,,,,,,,,sub-181,1,stroop_test,60.086801368693465,
,,,,6.0,6.0,0.0,,,,,rot,red,r,1.0,r,1.0,0.7610356998629868,,,,,,,,,,,,,,0.0,6.0,6.0,1.0,,,,,93.32191359996796,,,,,,,,,,,,,,,,,93.30576160014608,93.67133320006542,94.47105520009065,94.45489799999632,,,,,,,,,,,,,,,,94.45834130002186,94.47105520009065,94.47105520009065,95.23838660004547,r,1.0,0.7610356998629868,,95.23887650016697,95.25415230006912,96.25309829995967,96.23721900000236,,,,,,,,,,,,,,,,,,,sub-181,1,stroop_test,60.086801368693465,
,,,,7.0,7.0,0.0,,,,,gelb,blue,b,0.0,b,1.0,0.8388863999862224,,,,,,,,,,,,,,0.0,7.0,7.0,9.0,,,,,96.25309829995967,,,,,,,,,,,,,,,,,96.23749740002675,96.35318870004268,97.15280310017988,97.1365744001232,,,,,,,,,,,,,,,,97.13951899996027,97.15280310017988,97.15280310017988,98.00319590000436,b,1.0,0.8388863999862224,,98.0037575000897,98.01885920017958,99.01821970008314,99.00206890003756,,,,,,,,,,,,,,,,,,,sub-181,1,stroop_test,60.086801368693465,
,,,,8.0,8.0,0.0,,,,,gelb,red,r,0.0,r,1.0,0.7572528999298811,,,,,,,,,,,,,,0.0,8.0,8.0,8.0,,,,,99.01821970008314,,,,,,,,,,,,,,,,,99.00239620008506,99.11803540005349,99.91755580017345,99.9017575001344,,,,,,,,,,,,,,,,99.90223970008084,99.91755580017345,99.91755580017345,100.68509080004878,r,1.0,0.7572528999298811,,100.68560190009885,100.7008424999658,101.6999723999761,101.684215700021,,,,,,,,,,,,,,,,,,,sub-181,1,stroop_test,60.086801368693465,
,,,,9.0,9.0,0.0,,,,,blau,yellow,g,0.0,b,0.0,1.3743135000113398,,,,,,,,,,,,,,0.0,9.0,9.0,7.0,,,,,101.6999723999761,,,,,,,,,,,,,,,,,101.68465720000675,102.89908600016496,103.69877400016412,103.68244650005364,,,,,,,,,,,,,,,,103.68568460014647,103.69877400016412,103.69877400016412,105.08238220005296,b,0.0,1.3743135000113398,,105.08778910012916,105.09800860006362,106.09741659997962,106.08122400008142,,,,,,,,,,,,,,,,,,,sub-181,1,stroop_test,60.086801368693465,
,,,,10.0,10.0,0.0,,,,,rot,blue,b,0.0,b,1.0,0.8481219001114368,,,,,,,,,,,,,,0.0,10.0,10.0,2.0,,,,,106.09741659997962,,,,,,,,,,,,,,,,,106.08152660005726,106.89680220000446,107.69609470013528,107.6801331001334,,,,,,,,,,,,,,,,107.68336370005272,107.69609470013528,107.69609470013528,108.54689350002444,b,1.0,0.8481219001114368,,108.55111750005744,108.56219900003634,109.56152890017256,109.54558799997903,,,,,,,,,,,,,,,,,,,sub-181,1,stroop_test,60.086801368693465,
,,,,11.0,11.0,0.0,,,,,blau,red,r,0.0,r,1.0,0.7253907998092473,,,,,,,,,,,,,,0.0,11.0,11.0,4.0,,,,,109.56152890017256,,,,,,,,,,,,,,,,,109.54588950006293,110.76090190000832,111.56043289997616,111.54434050014244,,,,,,,,,,,,,,,,111.54761560005136,111.56043289997616,111.56043289997616,112.29453269997612,r,1.0,0.7253907998092473,,112.29504620004444,112.31038120016456,113.30939260008743,113.2933657001704,,,,,,,,,,,,,,,,,,,sub-181,1,stroop_test,60.086801368693465,
,,,,12.0,0.0,1.0,,,,,gelb,yellow,g,1.0,g,1.0,0.8688980999868363,,,,,,,,,,,,,,1.0,0.0,12.0,10.0,,,,,113.30939260008743,,,,,,,,,,,,,,,,,113.29372519999744,114.10907480004244,114.90878319996408,114.8922980001662,,,,,,,,,,,,,,,,114.89528629998676,114.90878319996408,114.90878319996408,115.7922027001623,g,1.0,0.8688980999868363,,115.7927077000495,115.80772619997153,116.8072766000405,116.79156070016325,,,,,,,,,,,,,,,,,,,sub-181,1,stroop_test,60.086801368693465,
,,,,13.0,1.0,1.0,,,,,gelb,red,r,0.0,r,1.0,0.8748654001392424,,,,,,,,,,,,,,1.0,1.0,13.0,8.0,,,,,116.8072766000405,,,,,,,,,,,,,,,,,116.79186780005692,117.15711640007794,117.95649310015142,117.94069990003482,,,,,,,,,,,,,,,,117.94116020016372,117.95649310015142,117.95649310015142,118.84067930001764,r,1.0,0.8748654001392424,,118.84116650000216,118.85595600004308,119.8552507001441,119.83933740016072,,,,,,,,,,,,,,,,,,,sub-181,1,stroop_test,60.086801368693465,
,,,,14.0,2.0,1.0,,,,,rot,yellow,g,0.0,g,1.0,2.3201393999625,,,,,,,,,,,,,,1.0,2.0,14.0,3.0,,,,,119.8552507001441,,,,,,,,,,,,,,,,,119.8395227000583,119.95527669996956,120.75476190005428,120.73894140007906,,,,,,,,,,,,,,,,120.74273890000768,120.75476190005428,120.75476190005428,123.08785980008544,g,1.0,2.3201393999625,,123.08832330000588,123.10355650004932,124.10293609998187,124.08679550001398,,,,,,,,,,,,,,,,,,,sub-181,1,stroop_test,60.086801368693465,
,,,,15.0,3.0,1.0,,,,,blau,blue,b,1.0,b,1.0,0.6673535001464188,,,,,,,,,,,,,,1.0,3.0,15.0,5.0,,,,,124.10293609998187,,,,,,,,,,,,,,,,,124.08707430004142,124.20266479998828,125.00242110015824,124.98628620011732,,,,,,,,,,,,,,,,124.98926080018282,125.00242110015824,125.00242110015824,125.68634440004826,b,1.0,0.6673535001464188,,125.6868175000418,125.70192020013928,126.70132200000808,126.68511960003524,,,,,,,,,,,,,,,,,,,sub-181,1,stroop_test,60.086801368693465,
,,,,16.0,4.0,1.0,,,,,gelb,yellow,g,1.0,g,1.0,0.6376016000285745,,,,,,,,,,,,,,1.0,4.0,16.0,11.0,,,,,126.70132200000808,,,,,,,,,,,,,,,,,126.68540060007945,126.80111910006964,127.6006497000344,127.58476770017296,,,,,,,,,,,,,,,,127.5873926000204,127.6006497000344,127.6006497000344,128.2515410000924,g,1.0,0.6376016000285745,,128.25200240011327,128.2670271000825,129.26636820007116,129.2503800999839,,,,,,,,,,,,,,,,,,,sub-181,1,stroop_test,60.086801368693465,
,,,,17.0,5.0,1.0,,,,,blau,red,r,0.0,r,1.0,1.1391243999823928,,,,,,,,,,,,,,1.0,5.0,17.0,4.0,,,,,129.26636820007116,,,,,,,,,,,,,,,,,129.25069190002978,130.46585270017383,131.26528799999505,131.24898659996688,,,,,,,,,,,,,,,,131.25289320014417,131.26528799999505,131.26528799999505,132.41574309999123,r,1.0,1.1391243999823928,,132.41625660005957,132.43133270018734,133.43049000017345,133.41437830007635,,,,,,,,,,,,,,,,,,,sub-181,1,stroop_test,60.086801368693465,
,,,,18.0,6.0,1.0,,,,,rot,red,r,1.0,r,1.0,0.8451571001205593,,,,,,,,,,,,,,1.0,6.0,18.0,0.0,,,,,133.43049000017345,,,,,,,,,,,,,,,,,133.41467940015718,133.53028020006604,134.3297439001035,134.314149599988,,,,,,,,,,,,,,,,134.31757860002108,134.3297439001035,134.3297439001035,135.1799761999864,r,1.0,0.8451571001205593,,135.1804751001764,135.1957710001152,136.19527609995566,136.17964750016108,,,,,,,,,,,,,,,,,,,sub-181,1,stroop_test,60.086801368693465,
,,,,19.0,7.0,1.0,,,,,gelb,blue,b,0.0,b,1.0,0.6131796000991017,,,,,,,,,,,,,,1.0,7.0,19.0,9.0,,,,,136.19527609995566,,,,,,,,,,,,,,,,,136.17987740016542,137.39473749999888,138.1941863000393,138.1783839999698,,,,,,,,,,,,,,,,138.18185660010204,138.1941863000393,138.1941863000393,138.81185920001008,b,1.0,0.6131796000991017,,138.81247870018706,138.82738739997149,,139.82698150002398,,,,,,,,,,,,,,,,,,,sub-181,1,stroop_test,60.086801368693465,
,,,,20.0,8.0,1.0,,,,,rot,red,r,1.0,r,1.0,0.7586680999957025,,,,,,,,,,,,,,1.0,8.0,20.0,1.0,,,,,139.8428414000664,,,,,,,,,,,,,,,,,139.8271892000921,141.02571550011635,141.82508780015633,141.8093252000399,,,,,,,,,,,,,,,,141.81377000012435,141.82508780015633,141.82508780015633,142.5929819000885,r,1.0,0.7586680999957025,,142.5935824001208,142.60803989996202,143.60744410008192,143.59170280001126,,,,,,,,,,,,,,,,,,,sub-181,1,stroop_test,60.086801368693465,
,,,,21.0,9.0,1.0,,,,,blau,blue,b,1.0,b,1.0,0.678954399889335,,,,,,,,,,,,,,1.0,9.0,21.0,6.0,,,,,143.60744410008192,,,,,,,,,,,,,,,,,143.5921079001855,143.95753800007515,144.756774000125,144.7409526000265,,,,,,,,,,,,,,,,144.74425139999948,144.756774000125,144.756774000125,145.44116470008157,b,1.0,0.678954399889335,,145.4416549000889,145.45667640003376,146.45575510011986,146.43996650003828,,,,,,,,,,,,,,,,,,,sub-181,1,stroop_test,60.086801368693465,
,,,,22.0,10.0,1.0,,,,,blau,yellow,g,0.0,g,1.0,1.1251236000098288,,,,,,,,,,,,,,1.0,10.0,22.0,7.0,,,,,146.45575510011986,,,,,,,,,,,,,,,,,146.44031279999763,147.65500570018776,148.45464440016076,148.4386995001696,,,,,,,,,,,,,,,,148.43913760012947,148.45464440016076,148.45464440016076,149.5882755999919,g,1.0,1.1251236000098288,,149.588686699979,149.6039837000426,150.60363989998586,150.58745039999485,,,,,,,,,,,,,,,,,,,sub-181,1,stroop_test,60.086801368693465,
,,,,23.0,11.0,1.0,,,,,rot,blue,b,0.0,b,1.0,1.000028199981898,,,,,,,,,,,,,,1.0,11.0,23.0,2.0,,,,,150.60363989998586,,,,,,,,,,,,,,,,,150.58774260012433,151.80269800010137,152.60205430001952,152.5862296000123,,,,,,,,,,,,,,,,152.59012700011954,152.60205430001952,152.60205430001952,153.6190529000014,b,1.0,1.000028199981898,,153.61957840016112,153.63503640005365,154.63429339998402,154.61834310018455,,,,,,,,,,,,,,,,,,,sub-181,1,stroop_test,60.086801368693465,
,,,,,,,,,,,,,,,,,,,,,,,,,,,,,,,,,,,,,,,,,,,,,,,,,,,,,,,,,,,,,,,,,,,,,,,,,,,,,,,,,,,,,,,154.61847250000574,154.63429339998402,154.63429339998402,159.382181199966,space,4.733454100089148,,,,,,,,,,,,,sub-181,1,stroop_test,60.086801368693465,
,,,,0.0,0.0,0.0,,,,,,,,,,,,,gelb,blue,b,0.0,b,1.0,1.5328353999648243,,,,,,,,,,0.0,0.0,0.0,9.0,159.39772830018774,,,,,,,,,,,,,,,,,159.39275910006836,159.74776779999956,160.5473847000394,160.53137740003876,,,,,,,,,,,,,,,,,,,,,,,,,,,,,,,,,,,160.5346368001774,160.5473847000394,160.5473847000394,162.0975339000579,b,1.0,1.5328353999648243,,,,,sub-181,1,stroop_test,60.086801368693465,
,,,,1.0,1.0,0.0,,,,,,,,,,,,,gelb,yellow,g,1.0,g,1.0,1.5359663001727313,,,,,,,,,,0.0,1.0,1.0,11.0,162.1132300000172,,,,,,,,,,,,,,,,,162.0979090000037,162.46260920003988,163.26219939999282,163.24644779996015,,,,,,,,,,,,,,,,,,,,,,,,,,,,,,,,,,,163.24693839997053,163.26219939999282,163.26219939999282,164.81244010012597,g,1.0,1.5359663001727313,,,,,sub-181,1,stroop_test,60.086801368693465,
,,,,2.0,2.0,0.0,,,,,,,,,,,,,rot,red,r,1.0,r,1.0,1.0839948998764155,,,,,,,,,,0.0,2.0,2.0,1.0,164.82787320017815,,,,,,,,,,,,,,,,,164.81279510003515,165.177616200177,165.9771204001736,165.96118940017186,,,,,,,,,,,,,,,,,,,,,,,,,,,,,,,,,,,165.96456030011177,165.9771204001736,165.9771204001736,167.0778636999894,r,1.0,1.0839948998764155,,,,,sub-181,1,stroop_test,60.086801368693465,
,,,,3.0,3.0,0.0,,,,,,,,,,,,,blau,yellow,g,0.0,g,1.0,0.9506714998278768,,,,,,,,,,0.0,3.0,3.0,7.0,167.09306810004637,,,,,,,,,,,,,,,,,167.07823750004172,167.1929610001389,167.99317650008015,167.97658670018427,,,,,,,,,,,,,,,,,,,,,,,,,,,,,,,,,,,167.97984790010378,167.99317650008015,167.99317650008015,168.9601500001736,g,1.0,0.9506714998278768,,,,,sub-181,1,stroop_test,60.086801368693465,
,,,,4.0,4.0,0.0,,,,,,,,,,,,,gelb,red,r,0.0,b,0.0,0.8833513001445681,,,,,,,,,,0.0,4.0,4.0,8.0,168.9753913001623,,,,,,,,,,,,,,,,,168.96056470018812,169.07525490014814,169.87497270014137,169.858896400081,,,,,,,,,,,,,,,,,,,,,,,,,,,,,,,,,,,169.86233260016888,169.87497270014137,169.87497270014137,170.77536120009609,b,0.0,0.8833513001445681,,,,,sub-181,1,stroop_test,60.086801368693465,
,,,,5.0,5.0,0.0,,,,,,,,,,,,,rot,blue,b,0.0,b,1.0,1.175538599956781,,,,,,,,,,0.0,5.0,5.0,2.0,170.79081710008904,,,,,,,,,,,,,,,,,170.7757745999843,171.99037170014344,172.78977779997513,172.77385780005716,,,,,,,,,,,,,,,,,,,,,,,,,,,,,,,,,,,172.77816800004803,172.78977779997513,172.78977779997513,173.9737246001605,b,1.0,1.175538599956781,,,,,sub-181,1,stroop_test,60.086801368693465,
,,,,6.0,6.0,0.0,,,,,,,,,,,,,blau,blue,b,1.0,b,1.0,0.6513388000894338,,,,,,,,,,0.0,6.0,6.0,6.0,173.98900329996832,,,,,,,,,,,,,,,,,173.9741346000228,175.1881665000692,175.98793400009163,175.97201560018584,,,,,,,,,,,,,,,,,,,,,,,,,,,,,,,,,,,175.97584940004162,175.98793400009163,175.98793400009163,176.65540440008044,b,1.0,0.6513388000894338,,,,,sub-181,1,stroop_test,60.086801368693465,
,,,,7.0,7.0,0.0,,,,,,,,,,,,,rot,red,r,1.0,r,1.0,0.7012959998100996,,,,,,,,,,0.0,7.0,7.0,0.0,176.67060360009782,,,,,,,,,,,,,,,,,176.65577790001407,177.8700157001149,178.6695026999805,178.65367280016653,,,,,,,,,,,,,,,,,,,,,,,,,,,,,,,,,,,178.65717869997025,178.6695026999805,178.6695026999805,179.38712660013698,r,1.0,0.7012959998100996,,,,,sub-181,1,stroop_test,60.086801368693465,
,,,,8.0,8.0,0.0,,,,,,,,,,,,,rot,yellow,g,0.0,g,1.0,0.7994578999932855,,,,,,,,,,0.0,8.0,8.0,3.0,179.40246270014904,,,,,,,,,,,,,,,,,179.38749820017256,179.50221220008098,180.3017955999821,180.2855760001112,,,,,,,,,,,,,,,,,,,,,,,,,,,,,,,,,,,180.2860833001323,180.3017955999821,180.3017955999821,181.102622800041,g,1.0,0.7994578999932855,,,,,sub-181,1,stroop_test,60.086801368693465,
,,,,9.0,9.0,0.0,,,,,,,,,,,,,blau,red,r,0.0,r,1.0,0.9688804000616074,,,,,,,,,,0.0,9.0,9.0,4.0,181.11788020003587,,,,,,,,,,,,,,,,,181.10299370018765,181.21780530014075,182.0175396001432,182.0013320001308,,,,,,,,,,,,,,,,,,,,,,,,,,,,,,,,,,,182.0047712000087,182.0175396001432,182.0175396001432,183.0011211000383,r,1.0,0.9688804000616074,,,,,sub-181,1,stroop_test,60.086801368693465,
,,,,10.0,10.0,0.0,,,,,,,,,,,,,blau,blue,b,1.0,b,1.0,0.643526199972257,,,,,,,,,,0.0,10.0,10.0,5.0,183.01681990013455,,,,,,,,,,,,,,,,,183.00146070006303,183.1169712000992,183.9164446000941,183.900289000012,,,,,,,,,,,,,,,,,,,,,,,,,,,,,,,,,,,183.900713799987,183.9164446000941,183.9164446000941,184.56708590011112,b,1.0,0.643526199972257,,,,,sub-181,1,stroop_test,60.086801368693465,
,,,,11.0,11.0,0.0,,,,,,,,,,,,,gelb,yellow,g,1.0,g,1.0,1.2680140000302345,,,,,,,,,,0.0,11.0,11.0,10.0,184.58247980009764,,,,,,,,,,,,,,,,,184.5674170001876,185.78164630010724,186.5813675001264,186.5651583999861,,,,,,,,,,,,,,,,,,,,,,,,,,,,,,,,,,,186.5681390000973,186.5813675001264,186.5813675001264,187.864794800058,g,1.0,1.2680140000302345,,,,,sub-181,1,stroop_test,60.086801368693465,
,,,,12.0,0.0,1.0,,,,,,,,,,,,,rot,blue,b,0.0,b,1.0,0.8285441000480205,,,,,,,,,,1.0,0.0,12.0,2.0,187.8808136000298,,,,,,,,,,,,,,,,,187.86509490013125,188.68010290013623,189.47946890001185,189.46348380018023,,,,,,,,,,,,,,,,,,,,,,,,,,,,,,,,,,,189.46651239995845,189.47946890001185,189.47946890001185,190.31329210009423,b,1.0,0.8285441000480205,,,,,sub-181,1,stroop_test,60.086801368693465,
,,,,13.0,1.0,1.0,,,,,,,,,,,,,blau,yellow,g,0.0,g,1.0,1.2891588998027146,,,,,,,,,,1.0,1.0,13.0,7.0,190.32895620004277,,,,,,,,,,,,,,,,,190.31367269996557,190.67892390000637,191.4780890000984,191.46203820011576,,,,,,,,,,,,,,,,,,,,,,,,,,,,,,,,,,,191.46430230000988,191.4780890000984,191.4780890000984,192.77852350007743,g,1.0,1.2891588998027146,,,,,sub-181,1,stroop_test,60.086801368693465,
,,,,14.0,2.0,1.0,,,,,,,,,,,,,gelb,yellow,g,1.0,g,1.0,0.6742793000303209,,,,,,,,,,1.0,2.0,14.0,11.0,192.79437900008637,,,,,,,,,,,,,,,,,192.7788692000322,193.9933301000856,194.79291610000652,194.77679960010573,,,,,,,,,,,,,,,,,,,,,,,,,,,,,,,,,,,194.7798830000684,194.79291610000652,194.79291610000652,195.4768791999668,g,1.0,0.6742793000303209,,,,,sub-181,1,stroop_test,60.086801368693465,
,,,,15.0,3.0,1.0,,,,,,,,,,,,,blau,blue,b,1.0,b,1.0,0.6546817000489682,,,,,,,,,,1.0,3.0,15.0,5.0,195.49271470005624,,,,,,,,,,,,,,,,,195.47720980015583,195.59264359995723,196.39221810013987,196.3762491000816,,,,,,,,,,,,,,,,,,,,,,,,,,,,,,,,,,,196.38106130016968,196.39221810013987,196.39221810013987,197.05990390013903,b,1.0,0.6546817000489682,,,,,sub-181,1,stroop_test,60.086801368693465,
,,,,16.0,4.0,1.0,,,,,,,,,,,,,rot,red,r,1.0,r,1.0,0.4643444998655468,,,,,,,,,,1.0,4.0,16.0,0.0,197.0747800001409,,,,,,,,,,,,,,,,,197.0603992000688,197.8745328001678,198.67423710017465,198.657956100069,,,,,,,,,,,,,,,,,,,,,,,,,,,,,,,,,,,198.66117660002783,198.67423710017465,198.67423710017465,199.14127900009044,r,1.0,0.4643444998655468,,,,,sub-181,1,stroop_test,60.086801368693465,
,,,,17.0,5.0,1.0,,,,,,,,,,,,,rot,yellow,g,0.0,g,1.0,0.9688482999335974,,,,,,,,,,1.0,5.0,17.0,3.0,199.1568356000353,,,,,,,,,,,,,,,,,199.1416154000908,199.49001930002123,200.28962200018577,200.27375980000943,,,,,,,,,,,,,,,,,,,,,,,,,,,,,,,,,,,200.27420370001343,200.28962200018577,200.28962200018577,201.273855100153,g,1.0,0.9688482999335974,,,,,sub-181,1,stroop_test,60.086801368693465,
,,,,18.0,6.0,1.0,,,,,,,,,,,,,blau,red,r,0.0,r,1.0,1.6171587000135332,,,,,,,,,,1.0,6.0,18.0,4.0,201.28912400011905,,,,,,,,,,,,,,,,,201.27422550017943,202.48836469999517,203.2879791001324,203.2719713000115,,,,,,,,,,,,,,,,,,,,,,,,,,,,,,,,,,,203.2753479999956,203.2879791001324,203.2879791001324,204.92129930015653,r,1.0,1.6171587000135332,,,,,sub-181,1,stroop_test,60.086801368693465,
,,,,19.0,7.0,1.0,,,,,,,,,,,,,rot,red,r,1.0,r,1.0,0.7383250000420958,,,,,,,,,,1.0,7.0,19.0,1.0,204.93674680008556,,,,,,,,,,,,,,,,,204.92167409998365,205.0367962999735,205.83624200010672,205.82036180002612,,,,,,,,,,,,,,,,,,,,,,,,,,,,,,,,,,,205.8237864000257,205.83624200010672,205.83624200010672,206.5867249001749,r,1.0,0.7383250000420958,,,,,sub-181,1,stroop_test,60.086801368693465,
,,,,20.0,8.0,1.0,,,,,,,,,,,,,gelb,yellow,g,1.0,g,1.0,0.682362399995327,,,,,,,,,,1.0,8.0,20.0,10.0,206.60247960011475,,,,,,,,,,,,,,,,,206.58706910000183,206.70234610000625,207.50175170018335,207.48590700002387,,,,,,,,,,,,,,,,,,,,,,,,,,,,,,,,,,,207.48908940004185,207.50175170018335,207.50175170018335,208.18597780005075,g,1.0,0.682362399995327,,,,,sub-181,1,stroop_test,60.086801368693465,
,,,,21.0,9.0,1.0,,,,,,,,,,,,,gelb,blue,b,0.0,b,1.0,0.4314184000249952,,,,,,,,,,1.0,9.0,21.0,9.0,208.20125330006704,,,,,,,,,,,,,,,,,208.18632290000096,209.4006205999758,210.20032620010895,210.18450210010636,,,,,,,,,,,,,,,,,,,,,,,,,,,,,,,,,,,210.1850960000884,210.20032620010895,210.20032620010895,210.6344856000505,b,1.0,0.4314184000249952,,,,,sub-181,1,stroop_test,60.086801368693465,
,,,,22.0,10.0,1.0,,,,,,,,,,,,,gelb,red,r,0.0,r,1.0,0.4427154001314193,,,,,,,,,,1.0,10.0,22.0,8.0,210.6498763000127,,,,,,,,,,,,,,,,,210.6348389000632,211.44953060010448,212.2487664001528,212.23277650005184,,,,,,,,,,,,,,,,,,,,,,,,,,,,,,,,,,,212.2332107999828,212.2487664001528,212.2487664001528,212.69993580016308,r,1.0,0.4427154001314193,,,,,sub-181,1,stroop_test,60.086801368693465,
,,,,23.0,11.0,1.0,,,,,,,,,,,,,blau,blue,b,1.0,b,1.0,0.9406936999876052,,,,,,,,,,1.0,11.0,23.0,6.0,212.71546540013517,,,,,,,,,,,,,,,,,212.70031390013173,213.06531580002047,213.8646842001472,213.84855990018696,,,,,,,,,,,,,,,,,,,,,,,,,,,,,,,,,,,213.8517162001226,213.8646842001472,213.8646842001472,214.8148718001321,b,1.0,0.9406936999876052,,,,,sub-181,1,stroop_test,60.086801368693465,
,,,,24.0,0.0,2.0,,,,,,,,,,,,,gelb,blue,b,0.0,b,1.0,0.6930581999476999,,,,,,,,,,2.0,0.0,24.0,9.0,214.8306637001224,,,,,,,,,,,,,,,,,214.8150904001668,215.1639682000969,215.9634979001712,215.94747150014155,,,,,,,,,,,,,,,,,,,,,,,,,,,,,,,,,,,215.95070579997264,215.9634979001712,215.9634979001712,216.6643120001536,b,1.0,0.6930581999476999,,,,,sub-181,1,stroop_test,60.086801368693465,
,,,,25.0,1.0,2.0,,,,,,,,,,,,,blau,blue,b,1.0,b,1.0,0.5960695000831038,,,,,,,,,,2.0,1.0,25.0,5.0,216.6794506001752,,,,,,,,,,,,,,,,,216.6647218000144,216.7795450000558,217.5789664001204,217.5631687999703,,,,,,,,,,,,,,,,,,,,,,,,,,,,,,,,,,,217.56704890006225,217.5789664001204,217.5789664001204,218.17993140011092,b,1.0,0.5960695000831038,,,,,sub-181,1,stroop_test,60.086801368693465,
,,,,26.0,2.0,2.0,,,,,,,,,,,,,rot,blue,b,0.0,b,1.0,0.9179301001131536,,,,,,,,,,2.0,2.0,26.0,2.0,218.1952613000758,,,,,,,,,,,,,,,,,218.1803413999733,219.3946283000987,220.19418900017627,220.1780384001322,,,,,,,,,,,,,,,,,,,,,,,,,,,,,,,,,,,220.18124080006965,220.19418900017627,220.19418900017627,221.127930900082,b,1.0,0.9179301001131536,,,,,sub-181,1,stroop_test,60.086801368693465,
,,,,27.0,3.0,2.0,,,,,,,,,,,,,rot,yellow,g,0.0,g,1.0,1.043111100094393,,,,,,,,,,2.0,3.0,27.0,3.0,221.14342460012995,,,,,,,,,,,,,,,,,221.12829240015708,221.94306410010904,222.74269420001656,222.72645780001767,,,,,,,,,,,,,,,,,,,,,,,,,,,,,,,,,,,222.72692520008425,222.74269420001656,222.74269420001656,223.7929994000588,g,1.0,1.043111100094393,,,,,sub-181,1,stroop_test,60.086801368693465,
,,,,28.0,4.0,2.0,,,,,,,,,,,,,rot,red,r,1.0,r,1.0,1.6674473001621664,,,,,,,,,,2.0,4.0,28.0,1.0,223.80871420004405,,,,,,,,,,,,,,,,,223.79338450008072,225.00795630016364,225.80724720004943,225.79153740010224,,,,,,,,,,,,,,,,,,,,,,,,,,,,,,,,,,,225.79198630014437,225.80724720004943,225.80724720004943,227.49085619999096,r,1.0,1.6674473001621664,,,,,sub-181,1,stroop_test,60.086801368693465,
,,,,29.0,5.0,2.0,,,,,,,,,,,,,blau,yellow,g,0.0,g,1.0,0.8998481000307947,,,,,,,,,,2.0,5.0,29.0,7.0,227.5065187001601,,,,,,,,,,,,,,,,,227.49119880003852,228.3056826000102,229.10583210014735,229.08929300005548,,,,,,,,,,,,,,,,,,,,,,,,,,,,,,,,,,,229.0934922001325,229.10583210014735,229.10583210014735,230.0225222001318,g,1.0,0.8998481000307947,,,,,sub-181,1,stroop_test,60.086801368693465,
,,,,30.0,6.0,2.0,,,,,,,,,,,,,blau,red,r,0.0,r,1.0,0.8344401998911053,,,,,,,,,,2.0,6.0,30.0,4.0,230.03816900006493,,,,,,,,,,,,,,,,,230.02287780004556,231.2374973001424,232.036925500026,232.02078770007935,,,,,,,,,,,,,,,,,,,,,,,,,,,,,,,,,,,232.02126380009577,232.036925500026,232.036925500026,232.88737720018253,r,1.0,0.8344401998911053,,,,,sub-181,1,stroop_test,60.086801368693465,
,,,,31.0,7.0,2.0,,,,,,,,,,,,,rot,red,r,1.0,r,1.0,0.5620321000460535,,,,,,,,,,2.0,7.0,31.0,0.0,232.9032393000089,,,,,,,,,,,,,,,,,232.8877381000202,232.98629510006867,233.7856853001285,233.7699693001341,,,,,,,,,,,,,,,,,,,,,,,,,,,,,,,,,,,233.7732164000627,233.7856853001285,233.7856853001285,234.3532000000123,r,1.0,0.5620321000460535,,,,,sub-181,1,stroop_test,60.086801368693465,
,,,,32.0,8.0,2.0,,,,,,,,,,,,,gelb,red,r,0.0,r,1.0,0.9140264999587088,,,,,,,,,,2.0,8.0,32.0,8.0,234.3687648000196,,,,,,,,,,,,,,,,,234.353558300063,234.46859850012697,235.26817569998093,235.25215249997564,,,,,,,,,,,,,,,,,,,,,,,,,,,,,,,,,,,235.25511789997108,235.26817569998093,235.26817569998093,236.18572890013456,r,1.0,0.9140264999587088,,,,,sub-181,1,stroop_test,60.086801368693465,
,,,,33.0,9.0,2.0,,,,,,,,,,,,,gelb,yellow,g,1.0,g,1.0,1.1842239000834525,,,,,,,,,,2.0,9.0,33.0,10.0,236.201104799984,,,,,,,,,,,,,,,,,236.18608140014112,236.30100340000357,237.10060980007984,237.08436800003983,,,,,,,,,,,,,,,,,,,,,,,,,,,,,,,,,,,237.08483489998616,237.10060980007984,237.10060980007984,238.30088370013985,g,1.0,1.1842239000834525,,,,,sub-181,1,stroop_test,60.086801368693465,
,,,,34.0,10.0,2.0,,,,,,,,,,,,,blau,blue,b,1.0,b,1.0,0.8623003999236971,,,,,,,,,,2.0,10.0,34.0,6.0,238.3164357000496,,,,,,,,,,,,,,,,,238.3012445999775,238.66628840006888,239.4655500999652,239.44974529999308,,,,,,,,,,,,,,,,,,,,,,,,,,,,,,,,,,,239.4530130000785,239.4655500999652,239.4655500999652,240.33324140007608,b,1.0,0.8623003999236971,,,,,sub-181,1,stroop_test,60.086801368693465,
,,,,35.0,11.0,2.0,,,,,,,,,,,,,gelb,yellow,g,1.0,g,1.0,0.6602499999571592,,,,,,,,,,2.0,11.0,35.0,11.0,240.3484585001133,,,,,,,,,,,,,,,,,240.3335922001861,240.4485361000989,241.24799689999784,241.23200940014797,,,,,,,,,,,,,,,,,,,,,,,,,,,,,,,,,,,241.23486370011236,241.24799689999784,241.24799689999784,241.91568300011568,g,1.0,0.6602499999571592,,,,,sub-181,1,stroop_test,60.086801368693465,
,,,,36.0,0.0,3.0,,,,,,,,,,,,,blau,blue,b,1.0,b,1.0,0.5323524000123143,,,,,,,,,,3.0,0.0,36.0,6.0,241.9309716001153,,,,,,,,,,,,,,,,,241.9160372000188,242.03065009997223,242.8304992001504,242.8143723001704,,,,,,,,,,,,,,,,,,,,,,,,,,,,,,,,,,,242.8175672001671,242.8304992001504,242.8304992001504,243.36499210004692,b,1.0,0.5323524000123143,,,,,sub-181,1,stroop_test,60.086801368693465,
,,,,37.0,1.0,3.0,,,,,,,,,,,,,rot,red,r,1.0,r,1.0,0.7078013001009822,,,,,,,,,,3.0,1.0,37.0,1.0,243.38001350010745,,,,,,,,,,,,,,,,,243.36547800013795,244.57931659999304,245.378877799958,245.36273050005548,,,,,,,,,,,,,,,,,,,,,,,,,,,,,,,,,,,245.3666336000897,245.378877799958,245.378877799958,246.0962279001251,r,1.0,0.7078013001009822,,,,,sub-181,1,stroop_test,60.086801368693465,
,,,,38.0,2.0,3.0,,,,,,,,,,,,,gelb,blue,b,0.0,r,0.0,0.8550494001246989,,,,,,,,,,3.0,2.0,38.0,9.0,246.11150930006988,,,,,,,,,,,,,,,,,246.09657569997944,247.31100600003265,248.1104266999755,248.09439930017103,,,,,,,,,,,,,,,,,,,,,,,,,,,,,,,,,,,248.09720299998295,248.1104266999755,248.1104266999755,248.97770630009472,r,0.0,0.8550494001246989,,,,,sub-181,1,stroop_test,60.086801368693465,
,,,,39.0,3.0,3.0,,,,,,,,,,,,,gelb,yellow,g,1.0,g,1.0,0.6075077999848872,,,,,,,,,,3.0,3.0,39.0,10.0,248.9930304000154,,,,,,,,,,,,,,,,,248.97804490011185,250.1923064000439,250.9920851001516,250.9757495999802,,,,,,,,,,,,,,,,,,,,,,,,,,,,,,,,,,,250.976262500044,250.9920851001516,250.9920851001516,251.6090255000163,g,1.0,0.6075077999848872,,,,,sub-181,1,stroop_test,60.086801368693465,
,,,,40.0,4.0,3.0,,,,,,,,,,,,,blau,yellow,g,0.0,g,1.0,1.524850900052115,,,,,,,,,,3.0,4.0,40.0,7.0,251.62491350015625,,,,,,,,,,,,,,,,,251.60925300000235,252.42432900005952,253.22390640014785,253.2079360999633,,,,,,,,,,,,,,,,,,,,,,,,,,,,,,,,,,,253.21139449998736,253.22390640014785,253.22390640014785,254.7575187000912,g,1.0,1.524850900052115,,,,,sub-181,1,stroop_test,60.086801368693465,
,,,,41.0,5.0,3.0,,,,,,,,,,,,,gelb,yellow,g,1.0,g,1.0,0.5572023999411613,,,,,,,,,,3.0,5.0,41.0,11.0,254.77293520001692,,,,,,,,,,,,,,,,,254.757873600116,254.87271530018188,255.67256880016063,255.65627210005184,,,,,,,,,,,,,,,,,,,,,,,,,,,,,,,,,,,255.6592423999682,255.67256880016063,255.67256880016063,256.2400114000775,g,1.0,0.5572023999411613,,,,,sub-181,1,stroop_test,60.086801368693465,
,,,,42.0,6.0,3.0,,,,,,,,,,,,,gelb,red,r,0.0,r,1.0,0.7576193001586944,,,,,,,,,,3.0,6.0,42.0,8.0,256.2553658001125,,,,,,,,,,,,,,,,,256.24036390008405,256.60514190001413,257.4047197001055,257.38865600014105,,,,,,,,,,,,,,,,,,,,,,,,,,,,,,,,,,,257.3892256000545,257.4047197001055,257.4047197001055,258.1723281000741,r,1.0,0.7576193001586944,,,,,sub-181,1,stroop_test,60.086801368693465,
,,,,43.0,7.0,3.0,,,,,,,,,,,,,rot,yellow,g,0.0,g,1.0,1.0077188001014292,,,,,,,,,,3.0,7.0,43.0,3.0,258.1876145000569,,,,,,,,,,,,,,,,,258.1727537000552,258.9871642000508,259.78642180003226,259.77044990006834,,,,,,,,,,,,,,,,,,,,,,,,,,,,,,,,,,,259.77327050012536,259.78642180003226,259.78642180003226,260.80379740009084,g,1.0,1.0077188001014292,,,,,sub-181,1,stroop_test,60.086801368693465,
,,,,44.0,8.0,3.0,,,,,,,,,,,,,blau,blue,b,1.0,b,1.0,0.5915497001260519,,,,,,,,,,3.0,8.0,44.0,5.0,260.8194663999602,,,,,,,,,,,,,,,,,260.80412750015967,261.169018200133,261.9685984000098,261.95313729997724,,,,,,,,,,,,,,,,,,,,,,,,,,,,,,,,,,,261.9568603001535,261.9685984000098,261.9685984000098,262.56967080011964,b,1.0,0.5915497001260519,,,,,sub-181,1,stroop_test,60.086801368693465,
,,,,45.0,9.0,3.0,,,,,,,,,,,,,rot,red,r,1.0,r,1.0,0.5309452000074089,,,,,,,,,,3.0,9.0,45.0,0.0,262.58503130008467,,,,,,,,,,,,,,,,,262.5700743000489,263.384330800036,264.1839421000332,264.16775160003453,,,,,,,,,,,,,,,,,,,,,,,,,,,,,,,,,,,264.1711728000082,264.1839421000332,264.1839421000332,264.7180290000979,r,1.0,0.5309452000074089,,,,,sub-181,1,stroop_test,60.086801368693465,
,,,,46.0,10.0,3.0,,,,,,,,,,,,,rot,blue,b,0.0,b,1.0,1.2173206999432296,,,,,,,,,,3.0,10.0,46.0,2.0,264.7334957001731,,,,,,,,,,,,,,,,,264.7183598000556,265.08323420002125,265.8829598999582,265.86690230015665,,,,,,,,,,,,,,,,,,,,,,,,,,,,,,,,,,,265.86738510010764,265.8829598999582,265.8829598999582,267.11668650014326,b,1.0,1.2173206999432296,,,,,sub-181,1,stroop_test,60.086801368693465,
,,,,47.0,11.0,3.0,,,,,,,,,,,,,blau,red,r,0.0,r,1.0,0.9808914999011904,,,,,,,,,,3.0,11.0,47.0,4.0,267.13209780002944,,,,,,,,,,,,,,,,,267.1171109999996,267.48175240005367,268.281305000186,268.26543210004456,,,,,,,,,,,,,,,,,,,,,,,,,,,,,,,,,,,268.2695256001316,268.281305000186,268.281305000186,269.2655994000379,r,1.0,0.9808914999011904,,,,,sub-181,1,stroop_test,60.086801368693465,
,,,,48.0,0.0,4.0,,,,,,,,,,,,,gelb,red,r,0.0,r,1.0,0.9300950998440384,,,,,,,,,,4.0,0.0,48.0,8.0,269.2806444000453,,,,,,,,,,,,,,,,,269.2660267001484,270.08033160003833,270.87993130018003,270.8638701001182,,,,,,,,,,,,,,,,,,,,,,,,,,,,,,,,,,,270.86670690006576,270.87993130018003,270.87993130018003,271.8136180001311,r,1.0,0.9300950998440384,,,,,sub-181,1,stroop_test,60.086801368693465,
,,,,49.0,1.0,4.0,,,,,,,,,,,,,blau,blue,b,1.0,b,1.0,0.6814893998671323,,,,,,,,,,4.0,1.0,49.0,5.0,271.82909430004656,,,,,,,,,,,,,,,,,271.81397390016355,272.62880420009606,273.4286541000474,273.41203190013766,,,,,,,,,,,,,,,,,,,,,,,,,,,,,,,,,,,273.4150972000789,273.4286541000474,273.4286541000474,274.11211790004745,b,1.0,0.6814893998671323,,,,,sub-181,1,stroop_test,60.086801368693465,
,,,,50.0,2.0,4.0,,,,,,,,,,,,,blau,red,r,0.0,r,1.0,1.058012799825519,,,,,,,,,,4.0,2.0,50.0,4.0,274.12767690001056,,,,,,,,,,,,,,,,,274.1124354000204,274.92746340017766,275.72683160007,275.71107250009663,,,,,,,,,,,,,,,,,,,,,,,,,,,,,,,,,,,275.7116428001318,275.72683160007,275.72683160007,276.7939917000476,r,1.0,1.058012799825519,,,,,sub-181,1,stroop_test,60.086801368693465,
,,,,51.0,3.0,4.0,,,,,,,,,,,,,blau,yellow,g,0.0,g,1.0,0.8584851000923663,,,,,,,,,,4.0,3.0,51.0,7.0,276.80939670000225,,,,,,,,,,,,,,,,,276.79442090005614,276.9095695000142,277.7088840000797,277.692899600137,,,,,,,,,,,,,,,,,,,,,,,,,,,,,,,,,,,277.69344149995595,277.7088840000797,277.7088840000797,278.576119299978,g,1.0,0.8584851000923663,,,,,sub-181,1,stroop_test,60.086801368693465,
,,,,52.0,4.0,4.0,,,,,,,,,,,,,gelb,blue,b,0.0,b,1.0,1.159779299981892,,,,,,,,,,4.0,4.0,52.0,9.0,278.5916100000032,,,,,,,,,,,,,,,,,278.57645380008034,278.6915880001616,279.49144380004145,279.4750272000674,,,,,,,,,,,,,,,,,,,,,,,,,,,,,,,,,,,279.4779098001309,279.49144380004145,279.49144380004145,280.6584459000733,b,1.0,1.159779299981892,,,,,sub-181,1,stroop_test,60.086801368693465,
,,,,53.0,5.0,4.0,,,,,,,,,,,,,rot,yellow,g,0.0,g,1.0,1.3937228000722826,,,,,,,,,,4.0,5.0,53.0,3.0,280.6739546000026,,,,,,,,,,,,,,,,,280.6587732001208,281.0235709999688,281.8229525999632,281.8069279000629,,,,,,,,,,,,,,,,,,,,,,,,,,,,,,,,,,,281.8099834001623,281.8229525999632,281.8229525999632,283.22495810012333,g,1.0,1.3937228000722826,,,,,sub-181,1,stroop_test,60.086801368693465,
,,,,54.0,6.0,4.0,,,,,,,,,,,,,rot,red,r,1.0,r,1.0,0.6308653000742197,,,,,,,,,,4.0,6.0,54.0,1.0,283.2390617001802,,,,,,,,,,,,,,,,,283.2257678001188,283.58893980016,284.3883726000786,284.3729398001451,,,,,,,,,,,,,,,,,,,,,,,,,,,,,,,,,,,284.3740964999888,284.3883726000786,284.3883726000786,285.0223912000656,r,1.0,0.6308653000742197,,,,,sub-181,1,stroop_test,60.086801368693465,
,,,,55.0,7.0,4.0,,,,,,,,,,,,,gelb,yellow,g,1.0,g,1.0,0.7548316000029445,,,,,,,,,,4.0,7.0,55.0,10.0,285.0375735000707,,,,,,,,,,,,,,,,,285.0227910000831,285.1377606000751,285.93717290018685,285.9212396000512,,,,,,,,,,,,,,,,,,,,,,,,,,,,,,,,,,,285.9251208000351,285.93717290018685,285.93717290018685,286.70472230017185,g,1.0,0.7548316000029445,,,,,sub-181,1,stroop_test,60.086801368693465,
,,,,56.0,8.0,4.0,,,,,,,,,,,,,rot,red,r,1.0,r,1.0,0.8807240000460297,,,,,,,,,,4.0,8.0,56.0,0.0,286.71997990016825,,,,,,,,,,,,,,,,,286.7051254999824,287.06993260001764,287.8693629000336,287.8531545000151,,,,,,,,,,,,,,,,,,,,,,,,,,,,,,,,,,,287.855165099958,287.8693629000336,287.8693629000336,288.75348439998925,r,1.0,0.8807240000460297,,,,,sub-181,1,stroop_test,60.086801368693465,
,,,,57.0,9.0,4.0,,,,,,,,,,,,,gelb,yellow,g,1.0,g,1.0,0.9222558001056314,,,,,,,,,,4.0,9.0,57.0,11.0,288.76901940000243,,,,,,,,,,,,,,,,,288.7537955001462,289.9681069999933,290.7679133000784,290.7516983000096,,,,,,,,,,,,,,,,,,,,,,,,,,,,,,,,,,,290.75473250006326,290.7679133000784,290.7679133000784,291.7019269000739,g,1.0,0.9222558001056314,,,,,sub-181,1,stroop_test,60.086801368693465,
,,,,58.0,10.0,4.0,,,,,,,,,,,,,rot,blue,b,0.0,b,1.0,1.084281399846077,,,,,,,,,,4.0,10.0,58.0,2.0,291.7172284000553,,,,,,,,,,,,,,,,,291.702400600072,291.817288500024,292.61639880016446,292.60052340012044,,,,,,,,,,,,,,,,,,,,,,,,,,,,,,,,,,,292.6042327999603,292.61639880016446,292.61639880016446,293.7173552000895,b,1.0,1.084281399846077,,,,,sub-181,1,stroop_test,60.086801368693465,
,,,,59.0,11.0,4.0,,,,,,,,,,,,,blau,blue,b,1.0,b,1.0,0.5988559999968857,,,,,,,,,,4.0,11.0,59.0,6.0,293.7325971000828,,,,,,,,,,,,,,,,,293.71775800012983,294.9318166000303,295.7315712000709,295.7151607000269,,,,,,,,,,,,,,,,,,,,,,,,,,,,,,,,,,,295.7187963000033,295.7315712000709,295.7315712000709,296.33235250017606,b,1.0,0.5988559999968857,,,,,sub-181,1,stroop_test,60.086801368693465,
,,,,60.0,0.0,5.0,,,,,,,,,,,,,gelb,red,r,0.0,r,1.0,0.949805699987337,,,,,,,,,,5.0,0.0,60.0,8.0,296.34766210010275,,,,,,,,,,,,,,,,,296.3327658001799,296.6976040001028,297.49686830001883,297.4809024999849,,,,,,,,,,,,,,,,,,,,,,,,,,,,,,,,,,,297.4842862000223,297.49686830001883,297.49686830001883,298.44828930008225,r,1.0,0.949805699987337,,,,,sub-181,1,stroop_test,60.086801368693465,
,,,,61.0,1.0,5.0,,,,,,,,,,,,,gelb,yellow,g,1.0,g,1.0,0.7617001000326127,,,,,,,,,,5.0,1.0,61.0,10.0,298.4631908000447,,,,,,,,,,,,,,,,,298.4487080001272,298.56274359999225,299.36256549996324,299.34662590012886,,,,,,,,,,,,,,,,,,,,,,,,,,,,,,,,,,,299.34707859996706,299.36256549996324,299.36256549996324,300.1296830000356,g,1.0,0.7617001000326127,,,,,sub-181,1,stroop_test,60.086801368693465,
,,,,62.0,2.0,5.0,,,,,,,,,,,,,blau,yellow,g,0.0,g,1.0,0.7861536999698728,,,,,,,,,,5.0,2.0,62.0,7.0,300.1453301999718,,,,,,,,,,,,,,,,,300.13002230017446,300.9446803000756,301.744221100118,301.7283322000876,,,,,,,,,,,,,,,,,,,,,,,,,,,,,,,,,,,301.7324845001567,301.744221100118,301.744221100118,302.54493930004537,g,1.0,0.7861536999698728,,,,,sub-181,1,stroop_test,60.086801368693465,
,,,,63.0,3.0,5.0,,,,,,,,,,,,,gelb,blue,b,0.0,b,1.0,1.010487199993804,,,,,,,,,,5.0,3.0,63.0,9.0,302.56039830017835,,,,,,,,,,,,,,,,,302.54533650004305,303.35979510005563,304.1593627000693,304.14345950004645,,,,,,,,,,,,,,,,,,,,,,,,,,,,,,,,,,,304.14663770003244,304.1593627000693,304.1593627000693,305.1769475999754,b,1.0,1.010487199993804,,,,,sub-181,1,stroop_test,60.086801368693465,
,,,,64.0,4.0,5.0,,,,,,,,,,,,,rot,blue,b,0.0,b,1.0,0.7980239000171423,,,,,,,,,,5.0,4.0,64.0,2.0,305.1919861000497,,,,,,,,,,,,,,,,,305.17735440004617,305.2921033001039,306.09167750016786,306.07566340011545,,,,,,,,,,,,,,,,,,,,,,,,,,,,,,,,,,,306.07969949999824,306.09167750016786,306.09167750016786,306.8919416000135,b,1.0,0.7980239000171423,,,,,sub-181,1,stroop_test,60.086801368693465,
,,,,65.0,5.0,5.0,,,,,,,,,,,,,rot,red,r,1.0,r,1.0,0.6531926000025123,,,,,,,,,,5.0,5.0,65.0,1.0,306.90796520002186,,,,,,,,,,,,,,,,,306.89224970014766,307.707299800124,308.50682200002484,308.49081670003943,,,,,,,,,,,,,,,,,,,,,,,,,,,,,,,,,,,308.49133230000734,308.50682200002484,308.50682200002484,309.17409240012057,r,1.0,0.6531926000025123,,,,,sub-181,1,stroop_test,60.086801368693465,
,,,,66.0,6.0,5.0,,,,,,,,,,,,,blau,blue,b,1.0,b,1.0,1.11351289995946,,,,,,,,,,5.0,6.0,66.0,5.0,309.18966990010813,,,,,,,,,,,,,,,,,309.1743942000903,310.38912940002047,311.1888600001112,311.17254270007834,,,,,,,,,,,,,,,,,,,,,,,,,,,,,,,,,,,311.1758398001548,311.1888600001112,311.1888600001112,312.3057836000808,b,1.0,1.11351289995946,,,,,sub-181,1,stroop_test,60.086801368693465,
,,,,67.0,7.0,5.0,,,,,,,,,,,,,blau,blue,b,1.0,b,1.0,0.6375710999127477,,,,,,,,,,5.0,7.0,67.0,6.0,312.32120959996246,,,,,,,,,,,,,,,,,312.30610160017386,312.67091109999456,313.4705937001854,313.45486759999767,,,,,,,,,,,,,,,,,,,,,,,,,,,,,,,,,,,313.45540380012244,313.4705937001854,313.4705937001854,314.1216299000662,b,1.0,0.6375710999127477,,,,,sub-181,1,stroop_test,60.086801368693465,
,,,,68.0,8.0,5.0,,,,,,,,,,,,,gelb,yellow,g,1.0,g,1.0,0.6944894001353532,,,,,,,,,,5.0,8.0,68.0,11.0,314.1367206000723,,,,,,,,,,,,,,,,,314.1220307999756,315.3361082000192,316.1355743999593,316.1196424001828,,,,,,,,,,,,,,,,,,,,,,,,,,,,,,,,,,,316.12406020006165,316.1355743999593,316.1355743999593,316.83689830009826,g,1.0,0.6944894001353532,,,,,sub-181,1,stroop_test,60.086801368693465,
,,,,69.0,9.0,5.0,,,,,,,,,,,,,rot,yellow,g,0.0,r,0.0,0.6847050001379102,,,,,,,,,,5.0,9.0,69.0,3.0,316.8516989001073,,,,,,,,,,,,,,,,,316.8374348001089,317.2015933000948,318.0008968000766,317.98517590016127,,,,,,,,,,,,,,,,,,,,,,,,,,,,,,,,,,,317.98805549996905,318.0008968000766,318.0008968000766,318.7017879001796,r,0.0,0.6847050001379102,,,,,sub-181,1,stroop_test,60.086801368693465,
,,,,70.0,10.0,5.0,,,,,,,,,,,,,blau,red,r,0.0,r,1.0,1.1144346999935806,,,,,,,,,,5.0,10.0,70.0,4.0,318.7171716000885,,,,,,,,,,,,,,,,,318.70214070007205,319.51662520016544,320.3162088000681,320.30077520012856,,,,,,,,,,,,,,,,,,,,,,,,,,,,,,,,,,,320.30754790012725,320.3162088000681,320.3162088000681,321.4335775000509,r,1.0,1.1144346999935806,,,,,sub-181,1,stroop_test,60.086801368693465,
,,,,71.0,11.0,5.0,,,,,,,,,,,,,rot,red,r,1.0,r,1.0,0.8012823001481593,,,,,,,,,,5.0,11.0,71.0,0.0,321.4488926001359,,,,,,,,,,,,,,,,,321.4339580000378,321.54896800010465,322.34841109998524,322.3323029000312,,,,,,,,,,,,,,,,,,,,,,,,,,,,,,,,,,,322.33607219997793,322.34841109998524,322.34841109998524,323.1657489000354,r,1.0,0.8012823001481593,,,,,sub-181,1,stroop_test,60.086801368693465,
,,,,72.0,0.0,6.0,,,,,,,,,,,,,blau,yellow,g,0.0,g,1.0,1.1546813000459224,,,,,,,,,,6.0,0.0,72.0,7.0,323.1810204000212,,,,,,,,,,,,,,,,,323.16613889997825,323.5310216001235,324.3303110001143,324.3143219000194,,,,,,,,,,,,,,,,,,,,,,,,,,,,,,,,,,,324.31786349997856,324.3303110001143,324.3303110001143,325.49783050012775,g,1.0,1.1546813000459224,,,,,sub-181,1,stroop_test,60.086801368693465,
,,,,73.0,1.0,6.0,,,,,,,,,,,,,gelb,blue,b,0.0,b,1.0,1.0316069000400605,,,,,,,,,,6.0,1.0,73.0,9.0,325.51290050009266,,,,,,,,,,,,,,,,,325.4982161000371,326.71228069998324,327.5118903000839,327.4956614000257,,,,,,,,,,,,,,,,,,,,,,,,,,,,,,,,,,,327.49826900009066,327.5118903000839,327.5118903000839,328.54522730014287,b,1.0,1.0316069000400605,,,,,sub-181,1,stroop_test,60.086801368693465,
,,,,74.0,2.0,6.0,,,,,,,,,,,,,gelb,red,r,0.0,r,1.0,1.0687525998800993,,,,,,,,,,6.0,2.0,74.0,8.0,328.5611617001705,,,,,,,,,,,,,,,,,328.54552479996346,329.7606008001603,330.5599366000388,330.5438928999938,,,,,,,,,,,,,,,,,,,,,,,,,,,,,,,,,,,330.54438520013355,330.5599366000388,330.5599366000388,331.64399400004186,r,1.0,1.0687525998800993,,,,,sub-181,1,stroop_test,60.086801368693465,
,,,,75.0,3.0,6.0,,,,,,,,,,,,,rot,red,r,1.0,r,1.0,0.5631155001465231,,,,,,,,,,6.0,3.0,75.0,1.0,331.65919829998165,,,,,,,,,,,,,,,,,331.644360100152,332.0090700001456,332.80844000005163,332.7927088001743,,,,,,,,,,,,,,,,,,,,,,,,,,,,,,,,,,,332.7963984000962,332.80844000005163,332.80844000005163,333.3760900001507,r,1.0,0.5631155001465231,,,,,sub-181,1,stroop_test,60.086801368693465,
,,,,76.0,4.0,6.0,,,,,,,,,,,,,rot,yellow,g,0.0,g,1.0,0.8342712998855859,,,,,,,,,,6.0,4.0,76.0,3.0,333.3913966000546,,,,,,,,,,,,,,,,,333.37647280003875,334.1910557001829,334.9906476000324,334.97438440006226,,,,,,,,,,,,,,,,,,,,,,,,,,,,,,,,,,,334.97483620001003,334.9906476000324,334.9906476000324,335.84126790007576,g,1.0,0.8342712998855859,,,,,sub-181,1,stroop_test,60.086801368693465,
,,,,77.0,5.0,6.0,,,,,,,,,,,,,gelb,yellow,g,1.0,g,1.0,0.5389340999536216,,,,,,,,,,6.0,5.0,77.0,10.0,335.85674339998513,,,,,,,,,,,,,,,,,335.841598900035,336.6561328000389,337.45595380011946,337.4400373999961,,,,,,,,,,,,,,,,,,,,,,,,,,,,,,,,,,,337.4433863000013,337.45595380011946,337.45595380011946,338.0066563000437,g,1.0,0.5389340999536216,,,,,sub-181,1,stroop_test,60.086801368693465,
,,,,78.0,6.0,6.0,,,,,,,,,,,,,blau,red,r,0.0,r,1.0,1.3248294999357313,,,,,,,,,,6.0,6.0,78.0,4.0,338.02191640017554,,,,,,,,,,,,,,,,,338.0070553000551,338.1219131001272,338.9214771001134,338.90541730006225,,,,,,,,,,,,,,,,,,,,,,,,,,,,,,,,,,,338.9098235000856,338.9214771001134,338.9214771001134,340.2554723001085,r,1.0,1.3248294999357313,,,,,sub-181,1,stroop_test,60.086801368693465,
,,,,79.0,7.0,6.0,,,,,,,,,,,,,blau,blue,b,1.0,b,1.0,0.6485307000111789,,,,,,,,,,6.0,7.0,79.0,6.0,340.2707836001646,,,,,,,,,,,,,,,,,340.2558746000286,340.62042709998786,341.4201093001757,341.4038109001704,,,,,,,,,,,,,,,,,,,,,,,,,,,,,,,,,,,341.4042694000527,341.4201093001757,341.4201093001757,342.070508700097,b,1.0,0.6485307000111789,,,,,sub-181,1,stroop_test,60.086801368693465,
,,,,80.0,8.0,6.0,,,,,,,,,,,,,rot,blue,b,0.0,b,1.0,0.400467500090599,,,,,,,,,,6.0,8.0,80.0,2.0,342.0863383000251,,,,,,,,,,,,,,,,,342.070872399956,342.88562429999,343.6853567999788,343.6692352001555,,,,,,,,,,,,,,,,,,,,,,,,,,,,,,,,,,,343.6724702999927,343.6853567999788,343.6853567999788,344.1027031000704,b,1.0,0.400467500090599,,,,,sub-181,1,stroop_test,60.086801368693465,
,,,,81.0,9.0,6.0,,,,,,,,,,,,,blau,blue,b,1.0,b,1.0,0.4827892000321299,,,,,,,,,,6.0,9.0,81.0,5.0,344.1182985000778,,,,,,,,,,,,,,,,,344.1030547001865,345.3175164000131,346.1170809001196,346.10114790010266,,,,,,,,,,,,,,,,,,,,,,,,,,,,,,,,,,,346.10437109996565,346.1170809001196,346.1170809001196,346.6013772999868,b,1.0,0.4827892000321299,,,,,sub-181,1,stroop_test,60.086801368693465,
,,,,82.0,10.0,6.0,,,,,,,,,,,,,gelb,yellow,g,1.0,g,1.0,1.0374386999756098,,,,,,,,,,6.0,10.0,82.0,11.0,346.6169384000823,,,,,,,,,,,,,,,,,346.6017301999964,346.71690130000934,347.5162868001498,347.5003818999976,,,,,,,,,,,,,,,,,,,,,,,,,,,,,,,,,,,347.5032228000928,347.5162868001498,347.5162868001498,348.56695570005104,g,1.0,1.0374386999756098,,,,,sub-181,1,stroop_test,60.086801368693465,
,,,,83.0,11.0,6.0,,,,,,,,,,,,,rot,red,r,1.0,r,1.0,0.6284848998766392,,,,,,,,,,6.0,11.0,83.0,0.0,348.58237290009856,,,,,,,,,,,,,,,,,348.56731970002875,349.38162540015765,350.1814332001377,350.1652569000144,,,,,,,,,,,,,,,,,,,,,,,,,,,,,,,,,,,350.1687133000232,350.1814332001377,350.1814332001377,350.81529800011776,r,1.0,0.6284848998766392,,,,,sub-181,1,stroop_test,60.086801368693465,
,,,,84.0,0.0,7.0,,,,,,,,,,,,,gelb,yellow,g,1.0,g,1.0,0.7432376998476684,,,,,,,,,,7.0,0.0,84.0,11.0,350.83076180005446,,,,,,,,,,,,,,,,,350.8156513001304,351.630560599966,352.42974920012057,352.41404479998164,,,,,,,,,,,,,,,,,,,,,,,,,,,,,,,,,,,352.4169183000922,352.42974920012057,352.42974920012057,353.18050760007463,g,1.0,0.7432376998476684,,,,,sub-181,1,stroop_test,60.086801368693465,
,,,,85.0,1.0,7.0,,,,,,,,,,,,,rot,red,r,1.0,r,1.0,0.3570218000095337,,,,,,,,,,7.0,1.0,85.0,1.0,353.1963051001076,,,,,,,,,,,,,,,,,353.1808676000219,353.9956979001872,354.7953054001555,354.77930900012143,,,,,,,,,,,,,,,,,,,,,,,,,,,,,,,,,,,354.7830515000969,354.7953054001555,354.7953054001555,355.16299540014006,r,1.0,0.3570218000095337,,,,,sub-181,1,stroop_test,60.086801368693465,
,,,,86.0,2.0,7.0,,,,,,,,,,,,,gelb,blue,b,0.0,b,1.0,0.9977378998883067,,,,,,,,,,7.0,2.0,86.0,9.0,355.1783634000458,,,,,,,,,,,,,,,,,355.1633356001694,356.3775614001788,357.17705689999275,357.1611463001464,,,,,,,,,,,,,,,,,,,,,,,,,,,,,,,,,,,357.1648389999755,357.17705689999275,357.17705689999275,358.17744860006496,b,1.0,0.9977378998883067,,,,,sub-181,1,stroop_test,60.086801368693465,
,,,,87.0,3.0,7.0,,,,,,,,,,,,,blau,red,r,0.0,r,1.0,1.5360918000806123,,,,,,,,,,7.0,3.0,87.0,4.0,358.1930017000996,,,,,,,,,,,,,,,,,358.17776950006373,358.9926881000865,359.7920115001034,359.7760515001137,,,,,,,,,,,,,,,,,,,,,,,,,,,,,,,,,,,359.7794463001192,359.7920115001034,359.7920115001034,361.3431399001274,r,1.0,1.5360918000806123,,,,,sub-181,1,stroop_test,60.086801368693465,
,,,,88.0,4.0,7.0,,,,,,,,,,,,,rot,yellow,g,0.0,g,1.0,1.5031716998200864,,,,,,,,,,7.0,4.0,88.0,3.0,361.35769470012747,,,,,,,,,,,,,,,,,361.3438035000581,361.7077813001815,362.5072721000761,362.49098660005257,,,,,,,,,,,,,,,,,,,,,,,,,,,,,,,,,,,362.4947987000924,362.5072721000761,362.5072721000761,364.0241555999965,g,1.0,1.5031716998200864,,,,,sub-181,1,stroop_test,60.086801368693465,
,,,,89.0,5.0,7.0,,,,,,,,,,,,,blau,yellow,g,0.0,g,1.0,0.5873775999061763,,,,,,,,,,7.0,5.0,89.0,7.0,364.0396057001781,,,,,,,,,,,,,,,,,364.02456180006266,364.1394746000879,364.9390714000911,364.9231790001504,,,,,,,,,,,,,,,,,,,,,,,,,,,,,,,,,,,364.9277390001808,364.9390714000911,364.9390714000911,365.5399327999912,g,1.0,0.5873775999061763,,,,,sub-181,1,stroop_test,60.086801368693465,
,,,,90.0,6.0,7.0,,,,,,,,,,,,,rot,red,r,1.0,r,1.0,0.6486347001045942,,,,,,,,,,7.0,6.0,90.0,0.0,365.5551031001378,,,,,,,,,,,,,,,,,365.5403932000045,365.9049525000155,366.704521600157,366.6884773999918,,,,,,,,,,,,,,,,,,,,,,,,,,,,,,,,,,,366.69173160009086,366.704521600157,366.704521600157,367.3549830999691,r,1.0,0.6486347001045942,,,,,sub-181,1,stroop_test,60.086801368693465,
,,,,91.0,7.0,7.0,,,,,,,,,,,,,rot,blue,b,0.0,b,1.0,0.7642060001380742,,,,,,,,,,7.0,7.0,91.0,2.0,367.3706939001568,,,,,,,,,,,,,,,,,367.35528390016407,367.4539099000394,368.2538974999916,368.2377096000128,,,,,,,,,,,,,,,,,,,,,,,,,,,,,,,,,,,368.2382434001193,368.2538974999916,368.2538974999916,369.0213028001599,b,1.0,0.7642060001380742,,,,,sub-181,1,stroop_test,60.086801368693465,
,,,,92.0,8.0,7.0,,,,,,,,,,,,,blau,blue,b,1.0,b,1.0,0.7877124999649823,,,,,,,,,,7.0,8.0,92.0,5.0,369.036312900018,,,,,,,,,,,,,,,,,369.0217057999689,370.23567420011386,371.0349467000924,371.0191803001799,,,,,,,,,,,,,,,,,,,,,,,,,,,,,,,,,,,371.02357580000535,371.0349467000924,371.0349467000924,371.8358440999873,b,1.0,0.7877124999649823,,,,,sub-181,1,stroop_test,60.086801368693465,
,,,,93.0,9.0,7.0,,,,,,,,,,,,,gelb,red,r,0.0,r,1.0,0.9568416001275182,,,,,,,,,,7.0,9.0,93.0,8.0,371.8513995001558,,,,,,,,,,,,,,,,,371.8361841000151,371.9513801999856,372.7510669000913,372.7346550000366,,,,,,,,,,,,,,,,,,,,,,,,,,,,,,,,,,,372.7375892000273,372.7510669000913,372.7510669000913,373.7183038000949,r,1.0,0.9568416001275182,,,,,sub-181,1,stroop_test,60.086801368693465,
,,,,94.0,10.0,7.0,,,,,,,,,,,,,blau,blue,b,1.0,b,1.0,0.6708607999607921,,,,,,,,,,7.0,10.0,94.0,6.0,373.7336256999988,,,,,,,,,,,,,,,,,373.7186567001045,374.9330158000812,375.7323773000389,375.7164537999779,,,,,,,,,,,,,,,,,,,,,,,,,,,,,,,,,,,375.7196865000296,375.7323773000389,375.7323773000389,376.4165087000001,b,1.0,0.6708607999607921,,,,,sub-181,1,stroop_test,60.086801368693465,
,,,,95.0,11.0,7.0,,,,,,,,,,,,,gelb,yellow,g,1.0,g,1.0,1.0683997001033276,,,,,,,,,,7.0,11.0,95.0,10.0,376.43185320007615,,,,,,,,,,,,,,,,,376.41682040016167,376.5319912000559,377.3314310000278,377.31541160005145,,,,,,,,,,,,,,,,,,,,,,,,,,,,,,,,,,,377.3181239000987,377.3314310000278,377.3314310000278,378.41512500005774,g,1.0,1.0683997001033276,,,,,sub-181,1,stroop_test,60.086801368693465,
,,,,96.0,0.0,8.0,,,,,,,,,,,,,blau,blue,b,1.0,b,1.0,0.8355471000541002,,,,,,,,,,8.0,0.0,96.0,6.0,378.4305606000125,,,,,,,,,,,,,,,,,378.41546030016616,378.7805864000693,379.5801896001212,379.5642633000389,,,,,,,,,,,,,,,,,,,,,,,,,,,,,,,,,,,379.5675918001216,379.5801896001212,379.5801896001212,380.4310151999816,b,1.0,0.8355471000541002,,,,,sub-181,1,stroop_test,60.086801368693465,
,,,,97.0,1.0,8.0,,,,,,,,,,,,,gelb,yellow,g,1.0,g,1.0,0.6275691001210362,,,,,,,,,,8.0,1.0,97.0,10.0,380.4460546001792,,,,,,,,,,,,,,,,,380.4313863001298,380.79607979999855,381.5956268000882,381.5793696001638,,,,,,,,,,,,,,,,,,,,,,,,,,,,,,,,,,,381.58244150015526,381.5956268000882,381.5956268000882,382.2298706001602,g,1.0,0.6275691001210362,,,,,sub-181,1,stroop_test,60.086801368693465,
,,,,98.0,2.0,8.0,,,,,,,,,,,,,blau,red,r,0.0,r,1.0,0.5902378000319004,,,,,,,,,,8.0,2.0,98.0,4.0,382.2450425999705,,,,,,,,,,,,,,,,,382.2302375000436,383.4444929000456,384.2437029001303,384.2278981001582,,,,,,,,,,,,,,,,,,,,,,,,,,,,,,,,,,,384.23140300018713,384.2437029001303,384.2437029001303,384.84463060018606,r,1.0,0.5902378000319004,,,,,sub-181,1,stroop_test,60.086801368693465,
,,,,99.0,3.0,8.0,,,,,,,,,,,,,gelb,red,r,0.0,r,1.0,0.8361770999617875,,,,,,,,,,8.0,3.0,99.0,8.0,384.8603217001073,,,,,,,,,,,,,,,,,384.8450109001715,386.0592643001583,386.859025800135,386.8431047999766,,,,,,,,,,,,,,,,,,,,,,,,,,,,,,,,,,,386.84671230008826,386.859025800135,386.859025800135,387.7094707000069,r,1.0,0.8361770999617875,,,,,sub-181,1,stroop_test,60.086801368693465,
,,,,100.0,4.0,8.0,,,,,,,,,,,,,gelb,yellow,g,1.0,g,1.0,0.7290450998116285,,,,,,,,,,8.0,4.0,100.0,11.0,387.7249186001718,,,,,,,,,,,,,,,,,387.7098483999725,387.8250653001014,388.6244594999589,388.608582300134,,,,,,,,,,,,,,,,,,,,,,,,,,,,,,,,,,,388.6090804000851,388.6244594999589,388.6244594999589,389.3585922999773,g,1.0,0.7290450998116285,,,,,sub-181,1,stroop_test,60.086801368693465,
,,,,101.0,5.0,8.0,,,,,,,,,,,,,rot,blue,b,0.0,b,1.0,1.092178199905902,,,,,,,,,,8.0,5.0,101.0,2.0,389.373861100059,,,,,,,,,,,,,,,,,389.3589578999672,390.173426500056,390.9727255001199,390.9565461000893,,,,,,,,,,,,,,,,,,,,,,,,,,,,,,,,,,,390.958738300018,390.9727255001199,390.9727255001199,392.0736676000524,b,1.0,1.092178199905902,,,,,sub-181,1,stroop_test,60.086801368693465,
,,,,102.0,6.0,8.0,,,,,,,,,,,,,blau,blue,b,1.0,b,1.0,0.6238566001411527,,,,,,,,,,8.0,6.0,102.0,5.0,392.0891365001444,,,,,,,,,,,,,,,,,392.07410089997575,392.4388353000395,393.238289500121,393.2222260001581,,,,,,,,,,,,,,,,,,,,,,,,,,,,,,,,,,,393.225651100045,393.238289500121,393.238289500121,393.8723164000549,b,1.0,0.6238566001411527,,,,,sub-181,1,stroop_test,60.086801368693465,
,,,,103.0,7.0,8.0,,,,,,,,,,,,,rot,yellow,g,0.0,g,1.0,0.9240306001156569,,,,,,,,,,8.0,7.0,103.0,3.0,393.8876746001188,,,,,,,,,,,,,,,,,393.872636300046,394.2380058001727,395.03729080013,395.0212062001228,,,,,,,,,,,,,,,,,,,,,,,,,,,,,,,,,,,395.0251893000677,395.03729080013,395.03729080013,395.9713881001808,g,1.0,0.9240306001156569,,,,,sub-181,1,stroop_test,60.086801368693465,
,,,,104.0,8.0,8.0,,,,,,,,,,,,,rot,red,r,1.0,r,1.0,0.7670308998785913,,,,,,,,,,8.0,8.0,104.0,0.0,395.9865578999743,,,,,,,,,,,,,,,,,395.9718152000569,397.18581170006655,397.9855245000217,397.969637000002,,,,,,,,,,,,,,,,,,,,,,,,,,,,,,,,,,,397.9701769000385,397.9855245000217,397.9855245000217,398.7696971001569,r,1.0,0.7670308998785913,,,,,sub-181,1,stroop_test,60.086801368693465,
,,,,105.0,9.0,8.0,,,,,,,,,,,,,blau,yellow,g,0.0,g,1.0,0.7818362999241799,,,,,,,,,,8.0,9.0,105.0,7.0,398.784951900132,,,,,,,,,,,,,,,,,398.7700988999568,399.134604900144,399.934447000036,399.9181386001874,,,,,,,,,,,,,,,,,,,,,,,,,,,,,,,,,,,399.9201249000616,399.934447000036,399.934447000036,400.71833669999614,g,1.0,0.7818362999241799,,,,,sub-181,1,stroop_test,60.086801368693465,
,,,,106.0,10.0,8.0,,,,,,,,,,,,,rot,red,r,1.0,r,1.0,0.47826540004462,,,,,,,,,,8.0,10.0,106.0,1.0,400.7337148000952,,,,,,,,,,,,,,,,,400.7186982999556,400.8335341999773,401.6331729001831,401.6169824001845,,,,,,,,,,,,,,,,,,,,,,,,,,,,,,,,,,,401.6207592000719,401.6331729001831,401.6331729001831,402.1173555999994,r,1.0,0.47826540004462,,,,,sub-181,1,stroop_test,60.086801368693465,
,,,,107.0,11.0,8.0,,,,,,,,,,,,,gelb,blue,b,0.0,b,1.0,1.1153154999483377,,,,,,,,,,8.0,11.0,107.0,9.0,402.1327627999708,,,,,,,,,,,,,,,,,402.1177126001567,402.9325021000113,403.7320475999732,403.71606300002895,,,,,,,,,,,,,,,,,,,,,,,,,,,,,,,,,,,403.7189152999781,403.7320475999732,403.7320475999732,404.8491565999575,b,1.0,1.1153154999483377,,,,,sub-181,1,stroop_test,60.086801368693465,
,,,,108.0,0.0,9.0,,,,,,,,,,,,,rot,red,r,1.0,r,1.0,1.3401520000770688,,,,,,,,,,9.0,0.0,108.0,1.0,404.864460100187,,,,,,,,,,,,,,,,,404.84950580005534,404.96450929995626,405.7654728000052,405.7481494999956,,,,,,,,,,,,,,,,,,,,,,,,,,,,,,,,,,,405.7601183000952,405.7654728000052,405.7654728000052,407.114320800174,r,1.0,1.3401520000770688,,,,,sub-181,1,stroop_test,60.086801368693465,
,,,,109.0,1.0,9.0,,,,,,,,,,,,,rot,red,r,1.0,r,1.0,0.541794499848038,,,,,,,,,,9.0,1.0,109.0,0.0,407.1300248000771,,,,,,,,,,,,,,,,,407.1147330000531,408.3291714000516,409.1287328000181,409.1127224001102,,,,,,,,,,,,,,,,,,,,,,,,,,,,,,,,,,,409.1132611001376,409.1287328000181,409.1287328000181,409.6798046999611,r,1.0,0.541794499848038,,,,,sub-181,1,stroop_test,60.086801368693465,
,,,,110.0,2.0,9.0,,,,,,,,,,,,,gelb,yellow,g,1.0,g,1.0,1.627523599890992,,,,,,,,,,9.0,2.0,110.0,10.0,409.6950664999895,,,,,,,,,,,,,,,,,409.68021050002426,409.7947820001282,410.5943563999608,410.578330000164,,,,,,,,,,,,,,,,,,,,,,,,,,,,,,,,,,,410.5818575001322,410.5943563999608,410.5943563999608,412.2280711000785,g,1.0,1.627523599890992,,,,,sub-181,1,stroop_test,60.086801368693465,
,,,,111.0,3.0,9.0,,,,,,,,,,,,,gelb,red,r,0.0,r,1.0,1.5344992999453098,,,,,,,,,,9.0,3.0,111.0,8.0,412.2432773001492,,,,,,,,,,,,,,,,,412.2284948001616,412.5930916999933,413.3928152001463,413.37679490004666,,,,,,,,,,,,,,,,,,,,,,,,,,,,,,,,,,,413.37736929999664,413.3928152001463,413.3928152001463,414.9429850999732,r,1.0,1.5344992999453098,,,,,sub-181,1,stroop_test,60.086801368693465,
,,,,112.0,4.0,9.0,,,,,,,,,,,,,blau,red,r,0.0,r,1.0,0.9211784000508488,,,,,,,,,,9.0,4.0,112.0,4.0,414.95812109997496,,,,,,,,,,,,,,,,,414.9433532999829,415.308390500024,416.10762460017577,416.0915227001533,,,,,,,,,,,,,,,,,,,,,,,,,,,,,,,,,,,416.0951235999819,416.10762460017577,416.10762460017577,417.0418496001512,r,1.0,0.9211784000508488,,,,,sub-181,1,stroop_test,60.086801368693465,
,,,,113.0,5.0,9.0,,,,,,,,,,,,,gelb,yellow,g,1.0,g,1.0,0.6637576997745782,,,,,,,,,,9.0,5.0,113.0,11.0,417.0569678000175,,,,,,,,,,,,,,,,,417.0422257001046,417.8565701001789,418.6559882999864,418.64007690013386,,,,,,,,,,,,,,,,,,,,,,,,,,,,,,,,,,,418.6430852001067,418.6559882999864,418.6559882999864,419.3234745999798,g,1.0,0.6637576997745782,,,,,sub-181,1,stroop_test,60.086801368693465,
,,,,114.0,6.0,9.0,,,,,,,,,,,,,rot,yellow,g,0.0,g,1.0,1.1230348001699897,,,,,,,,,,9.0,6.0,114.0,3.0,419.3388503000606,,,,,,,,,,,,,,,,,419.32384690013714,420.13871109997854,420.93817310011946,420.9218969000504,,,,,,,,,,,,,,,,,,,,,,,,,,,,,,,,,,,420.9259460000321,420.93817310011946,420.93817310011946,422.0718358000741,g,1.0,1.1230348001699897,,,,,sub-181,1,stroop_test,60.086801368693465,
,,,,115.0,7.0,9.0,,,,,,,,,,,,,gelb,blue,b,0.0,b,1.0,1.0481334999203682,,,,,,,,,,9.0,7.0,115.0,9.0,422.0872588001657,,,,,,,,,,,,,,,,,422.0722064999864,423.2865087999962,424.08600999997,424.0703180001583,,,,,,,,,,,,,,,,,,,,,,,,,,,,,,,,,,,424.0732671001461,424.08600999997,424.08600999997,425.1365971001797,b,1.0,1.0481334999203682,,,,,sub-181,1,stroop_test,60.086801368693465,
,,,,116.0,8.0,9.0,,,,,,,,,,,,,blau,yellow,g,0.0,g,1.0,0.907560700085014,,,,,,,,,,9.0,8.0,116.0,7.0,425.15202930010855,,,,,,,,,,,,,,,,,425.1369734001346,425.9515327999834,426.75163560011424,426.7350400001742,,,,,,,,,,,,,,,,,,,,,,,,,,,,,,,,,,,426.7382992000785,426.75163560011424,426.75163560011424,427.6682631000877,g,1.0,0.907560700085014,,,,,sub-181,1,stroop_test,60.086801368693465,
,,,,117.0,9.0,9.0,,,,,,,,,,,,,rot,blue,b,0.0,b,1.0,1.6812245999462905,,,,,,,,,,9.0,9.0,117.0,2.0,427.683747400064,,,,,,,,,,,,,,,,,427.6686134000775,428.4834939001594,429.28280200017616,429.26719230017625,,,,,,,,,,,,,,,,,,,,,,,,,,,,,,,,,,,429.2710804999806,429.28280200017616,429.28280200017616,430.96628729999065,b,1.0,1.6812245999462905,,,,,sub-181,1,stroop_test,60.086801368693465,
,,,,118.0,10.0,9.0,,,,,,,,,,,,,blau,blue,b,1.0,b,1.0,0.7408746997825801,,,,,,,,,,9.0,10.0,118.0,6.0,430.9817828000523,,,,,,,,,,,,,,,,,430.9666626001708,432.18122810008936,432.9806578001008,432.9647260000929,,,,,,,,,,,,,,,,,,,,,,,,,,,,,,,,,,,432.9680976001546,432.9806578001008,432.9806578001008,433.731311700074,b,1.0,0.7408746997825801,,,,,sub-181,1,stroop_test,60.086801368693465,
,,,,119.0,11.0,9.0,,,,,,,,,,,,,blau,blue,b,1.0,b,1.0,0.6094710999168456,,,,,,,,,,9.0,11.0,119.0,5.0,433.747056200169,,,,,,,,,,,,,,,,,433.7316759000532,433.846928199986,434.6463436000049,434.6303691000212,,,,,,,,,,,,,,,,,,,,,,,,,,,,,,,,,,,434.6308489001822,434.6463436000049,434.6463436000049,435.2638757000677,b,1.0,0.6094710999168456,,,,,sub-181,1,stroop_test,60.086801368693465,
,,,,,,,,,,,,,,,,,,,,,,,,,,,,,,,,,,,,,,,,,,,,,,,,,,,,,,,,,,,,,,,,,,,,,,,,,,,,,,,,,,,,,,,,,,,,,,,,,,,,,,435.2640511000063,435.2792750999797,440.27635299996473,sub-181,1,stroop_test,60.086801368693465,
