wordCTK,colorCTK,corrAnsCTK,congruentCTK,thisN,thisTrialN,thisRepN,keyResp_CTK.keys,keyResp_CTK.corr,keyResp_CTK.rt,keyResp_CTK.duration,wordPractice,colorPractice,corrAnsPractice,congruentPractice,respPractice.keys,respPractice.corr,respPractice.rt,respPractice.duration,word,color,corrAns,congruent,keyResp_test_run.keys,keyResp_test_run.corr,keyResp_test_run.rt,keyResp_test_run.duration,trials_CTK.thisRepN,trials_CTK.thisTrialN,trials_CTK.thisN,trials_CTK.thisIndex,trials_practice.thisRepN,trials_practice.thisTrialN,trials_practice.thisN,trials_practice.thisIndex,trials_test.thisRepN,trials_test.thisTrialN,trials_test.thisN,trials_test.thisIndex,thisRow.t,notes,instruction.started,instr_text.started,instr_image.started,instr_resp.started,instruction.stopped,instr_resp.keys,instr_resp.rt,instr_resp.duration,instr_color_to_key.started,instr_ctk.started,resp_ctk.started,instr_color_to_key.stopped,resp_ctk.keys,resp_ctk.rt,resp_ctk.duration,ITI.started,fixcross.started,fixcross.stopped,ITI.stopped,color_to_key_run.started,stimulus_CTK.started,keyResp_CTK.started,color_to_key_run.stopped,trials_CTK.keyResp_CTK.keys,trials_CTK.keyResp_CTK.corr,trials_CTK.keyResp_CTK.rt,trials_CTK.keyResp_CTK.duration,instr_practice.started,instr_practice_text.started,instr_practice_resp.started,instr_practice.stopped,instr_practice_resp.keys,instr_practice_resp.rt,instr_practice_resp.duration,practice_run.started,stimulus_practice.started,respPractice.started,practice_run.stopped,trials_practice.respPractice.keys,trials_practice.respPractice.corr,trials_practice.respPractice.rt,trials_practice.respPractice.duration,feedback.started,textFeedback.started,feedback.stopped,textFeedback.stopped,instr_test.started,instr_test_text.started,instr_test_resp.started,instr_test.stopped,instr_test_resp.keys,instr_test_resp.rt,instr_test_resp.duration,test_run.started,stimulus_test_run.started,keyResp_test_run.started,test_run.stopped,trials_test.keyResp_test_run.keys,trials_test.keyResp_test_run.corr,trials_test.keyResp_test_run.rt,trials_test.keyResp_test_run.duration,goodbye.started,textGoodbye.started,textGoodbye.stopped,goodbye.stopped,participant,session,expName,frameRate,Unnamed: 113
,,,,,,,,,,,,,,,,,,,,,,,,,,,,,,,,,,,,,,,,,0.0073559999999872,0.0275756669999793,0.0275756669999793,0.0275756669999793,37.67690987499998,space,37.629296208,,,,,,,,,,,,,,,,,,,,,,,,,,,,,,,,,,,,,,,,,,,,,,,,,,,,,,,,,,,sub-227,1,stroop_test,,
,,,,,,,,,,,,,,,,,,,,,,,,,,,,,,,,,,,,,,,,,,,,,,,,,37.676967125,37.68249075,37.68249075,46.718755792,space,9.029824792,,,,,,,,,,,,,,,,,,,,,,,,,,,,,,,,,,,,,,,,,,,,,,,,,,,,sub-227,1,stroop_test,,
test,red,r,1.0,0.0,0.0,0.0,r,1.0,1.258313333000018,,,,,,,,,,,,,,,,,,0.0,0.0,0.0,0.0,,,,,,,,,46.755803375,,,,,,,,,,,,,,,,,46.73828275,46.81547245799999,47.61488433299999,47.600837708,47.608176625,47.61488433299999,47.61488433299999,48.87536170799999,r,1.0,1.258313333000018,,,,,,,,,,,,,,,,,,,,,,,,,,,,,,,,,,,,,,,,sub-227,1,stroop_test,,
test,yellow,g,1.0,1.0,1.0,0.0,g,1.0,0.8718896670000049,,,,,,,,,,,,,,,,,,0.0,1.0,1.0,1.0,,,,,,,,,48.8851525,,,,,,,,,,,,,,,,,48.8760015,49.673037333,50.465284333,50.45701945799999,50.457610542,50.465284333,50.465284333,51.34128741699999,g,1.0,0.8718896670000049,,,,,,,,,,,,,,,,,,,,,,,,,,,,,,,,,,,,,,,,sub-227,1,stroop_test,,
test,blue,b,1.0,2.0,2.0,0.0,b,1.0,0.5055083329999945,,,,,,,,,,,,,,,,,,0.0,2.0,2.0,2.0,,,,,,,,,51.351449167,,,,,,,,,,,,,,,,,51.34180866699998,52.53927941699999,53.333060666999984,53.322777332999976,53.32336245799999,53.333060666999984,53.333060666999984,53.84101641699999,b,1.0,0.5055083329999945,,,,,,,,,,,,,,,,,,,,,,,,,,,,,,,,,,,,,,,,sub-227,1,stroop_test,,
test,blue,b,1.0,3.0,0.0,1.0,b,1.0,0.814367749999974,,,,,,,,,,,,,,,,,,1.0,0.0,3.0,2.0,,,,,,,,,53.851601458000005,,,,,,,,,,,,,,,,,53.84149454199999,53.94105470799997,54.741807042000005,54.73421158299999,54.73495995799999,54.741807042000005,54.741807042000005,55.55826774999997,b,1.0,0.814367749999974,,,,,,,,,,,,,,,,,,,,,,,,,,,,,,,,,,,,,,,,sub-227,1,stroop_test,,
test,yellow,g,1.0,4.0,1.0,1.0,g,1.0,1.1361541669999724,,,,,,,,,,,,,,,,,,1.0,1.0,4.0,1.0,,,,,,,,,55.56876345799998,,,,,,,,,,,,,,,,,55.55883020800002,55.90562862499996,56.698607917,56.68967941699998,56.69023974999999,56.698607917,56.698607917,57.84602233300001,g,1.0,1.1361541669999724,,,,,,,,,,,,,,,,,,,,,,,,,,,,,,,,,,,,,,,,sub-227,1,stroop_test,,
test,red,r,1.0,5.0,2.0,1.0,r,1.0,0.9615140840000436,,,,,,,,,,,,,,,,,,1.0,2.0,5.0,0.0,,,,,,,,,57.85177337499999,,,,,,,,,,,,,,,,,57.846472707999965,58.189585541999975,58.981932083,58.973270333000016,58.973847292000016,58.981932083,58.981932083,59.952178833000005,r,1.0,0.9615140840000436,,,,,,,,,,,,,,,,,,,,,,,,,,,,,,,,,,,,,,,,sub-227,1,stroop_test,,
test,blue,b,1.0,6.0,0.0,2.0,b,1.0,0.585294666999971,,,,,,,,,,,,,,,,,,2.0,0.0,6.0,2.0,,,,,,,,,59.961695292,,,,,,,,,,,,,,,,,59.95274945799997,61.150260375000016,61.94122866700002,61.934097374999965,61.93468687500001,61.94122866700002,61.94122866700002,62.53533683299997,b,1.0,0.585294666999971,,,,,,,,,,,,,,,,,,,,,,,,,,,,,,,,,,,,,,,,sub-227,1,stroop_test,,
test,yellow,g,1.0,7.0,1.0,2.0,g,1.0,0.9988962500000298,,,,,,,,,,,,,,,,,,2.0,1.0,7.0,1.0,,,,,,,,,62.545139000000006,,,,,,,,,,,,,,,,,62.53587299999998,62.883091208,63.674524374999976,63.66743116700002,63.668025667,63.674524374999976,63.674524374999976,64.67549820799996,g,1.0,0.9988962500000298,,,,,,,,,,,,,,,,,,,,,,,,,,,,,,,,,,,,,,,,sub-227,1,stroop_test,,
test,red,r,1.0,8.0,2.0,2.0,r,1.0,0.5733932080000272,,,,,,,,,,,,,,,,,,2.0,2.0,8.0,0.0,,,,,,,,,64.68542633300001,,,,,,,,,,,,,,,,,64.67611929200001,65.87246704199998,66.66516829199998,66.656808125,66.65739170799998,66.66516829199998,66.66516829199998,67.241190292,r,1.0,0.5733932080000272,,,,,,,,,,,,,,,,,,,,,,,,,,,,,,,,,,,,,,,,sub-227,1,stroop_test,,
test,yellow,g,1.0,9.0,0.0,3.0,g,1.0,0.9026302919999694,,,,,,,,,,,,,,,,,,3.0,0.0,9.0,1.0,,,,,,,,,67.251861792,,,,,,,,,,,,,,,,,67.241691833,68.44049841700001,69.24189849999999,69.23417808300002,69.23492525,69.24189849999999,69.24189849999999,70.15203070799998,g,1.0,0.9026302919999694,,,,,,,,,,,,,,,,,,,,,,,,,,,,,,,,,,,,,,,,sub-227,1,stroop_test,,
test,blue,b,1.0,10.0,1.0,3.0,b,1.0,0.8514929590000406,,,,,,,,,,,,,,,,,,3.0,1.0,10.0,2.0,,,,,,,,,70.161947167,,,,,,,,,,,,,,,,,70.15256899999997,70.500185542,71.29197508300001,71.28429875,71.28504404199998,71.29197508300001,71.29197508300001,72.15200075000001,b,1.0,0.8514929590000406,,,,,,,,,,,,,,,,,,,,,,,,,,,,,,,,,,,,,,,,sub-227,1,stroop_test,,
test,red,r,1.0,11.0,2.0,3.0,r,1.0,0.84751325000002,,,,,,,,,,,,,,,,,,3.0,2.0,11.0,0.0,,,,,,,,,72.16185662499998,,,,,,,,,,,,,,,,,72.15256512499997,73.35012054200001,74.14105024999998,74.134291625,74.134800708,74.14105024999998,74.14105024999998,74.99187775000001,r,1.0,0.84751325000002,,,,,,,,,,,,,,,,,,,,,,,,,,,,,,,,,,,,,,,,sub-227,1,stroop_test,,
,,,,,,,,,,,,,,,,,,,,,,,,,,,,,,,,,,,,,,,,,,,,,,,,,,,,,,,,,,,,,,,,,,,,74.992104208,75.00466479199997,75.00466479199997,79.42941541699997,space,4.413289625000004,,,,,,,,,,,,,,,,,,,,,,,,,,,,,,,,,sub-227,1,stroop_test,,
,,,,0.0,0.0,0.0,,,,,gelb,yellow,g,1.0,g,1.0,0.4879020409999839,,,,,,,,,,,,,,0.0,0.0,0.0,10.0,,,,,79.44515174999998,,,,,,,,,,,,,,,,,79.44093129200002,79.52238733299998,80.31932679199997,80.30610387499996,,,,,,,,,,,,,,,,80.31264425,80.31932679199997,80.31932679199997,80.83502416699997,g,1.0,0.4879020409999839,,80.84395579199997,80.86639958299997,81.83930145799997,,,,,,,,,,,,,,,,,,,,,sub-227,1,stroop_test,,
,,,,1.0,1.0,0.0,,,,,blau,blue,b,1.0,b,1.0,0.593486208999991,,,,,,,,,,,,,,0.0,1.0,1.0,6.0,,,,,81.85018708299998,,,,,,,,,,,,,,,,,81.83982116699997,82.18337374999999,82.98110162500001,82.967470375,,,,,,,,,,,,,,,,82.974202875,82.98110162500001,82.98110162500001,83.58558070800001,b,1.0,0.593486208999991,,83.58650054200001,83.59853537499998,84.584027833,84.5891815,,,,,,,,,,,,,,,,,,,,sub-227,1,stroop_test,,
,,,,2.0,2.0,0.0,,,,,blau,yellow,g,0.0,g,1.0,0.6680545830000142,,,,,,,,,,,,,,0.0,2.0,2.0,7.0,,,,,84.5891815,,,,,,,,,,,,,,,,,84.58444587499997,85.78351187499999,86.57418858299997,86.56739945800001,,,,,,,,,,,,,,,,86.56791587499998,86.57418858299997,86.57418858299997,87.25205970799999,g,1.0,0.6680545830000142,,87.25292587500002,87.26488733299999,88.250647125,88.25578383300001,,,,,,,,,,,,,,,,,,,,sub-227,1,stroop_test,,
,,,,3.0,3.0,0.0,,,,,gelb,red,r,0.0,b,0.0,0.6927384589999974,,,,,,,,,,,,,,0.0,3.0,3.0,8.0,,,,,88.25578383300001,,,,,,,,,,,,,,,,,88.25106179199997,88.600213,89.395619625,89.38416179199999,,,,,,,,,,,,,,,,89.38849995800001,89.395619625,89.395619625,90.091099833,b,0.0,0.6927384589999974,,90.097410583,90.10578549999995,91.09014637500002,91.10007587500002,,,,,,,,,,,,,,,,,,,,sub-227,1,stroop_test,,
,,,,4.0,4.0,0.0,,,,,rot,red,r,1.0,r,1.0,0.7137349160000213,,,,,,,,,,,,,,0.0,4.0,4.0,1.0,,,,,91.10007587500002,,,,,,,,,,,,,,,,,91.09055137500002,91.43946479199997,92.238893667,92.223390667,,,,,,,,,,,,,,,,92.23204066699998,92.238893667,92.238893667,92.95769,r,1.0,0.7137349160000213,,92.96280070799996,92.972533458,93.965486708,,,,,,,,,,,,,,,,,,,,,sub-227,1,stroop_test,,
,,,,5.0,5.0,0.0,,,,,gelb,blue,b,0.0,b,1.0,0.8952612090000116,,,,,,,,,,,,,,0.0,5.0,5.0,9.0,,,,,93.97049233299998,,,,,,,,,,,,,,,,,93.96613974999995,95.155644167,95.94941562499996,95.939551708,,,,,,,,,,,,,,,,95.94255933299996,95.94941562499996,95.94941562499996,96.85204683299996,b,1.0,0.8952612090000116,,96.8529105,96.864716833,97.850816667,97.85632870799998,,,,,,,,,,,,,,,,,,,,sub-227,1,stroop_test,,
,,,,6.0,6.0,0.0,,,,,blau,red,r,0.0,r,1.0,0.9507152909999944,,,,,,,,,,,,,,0.0,6.0,6.0,4.0,,,,,97.85632870799998,,,,,,,,,,,,,,,,,97.851238583,98.200076917,98.9957865,98.9844425,,,,,,,,,,,,,,,,98.98879095799998,98.9957865,98.9957865,99.95116037499996,r,1.0,0.9507152909999944,,99.951986083,99.9635085,100.950916625,100.95673529199996,,,,,,,,,,,,,,,,,,,,sub-227,1,stroop_test,,
,,,,7.0,7.0,0.0,,,,,blau,blue,b,1.0,b,1.0,0.7827042499999948,,,,,,,,,,,,,,0.0,7.0,7.0,5.0,,,,,100.95673529199996,,,,,,,,,,,,,,,,,100.951430083,101.7502525,102.54192208299996,102.534392417,,,,,,,,,,,,,,,,102.5351435,102.54192208299996,102.54192208299996,103.33538229199996,b,1.0,0.7827042499999948,,103.33632079199998,103.347776333,104.334206667,104.33962654199996,,,,,,,,,,,,,,,,,,,,sub-227,1,stroop_test,,
,,,,8.0,8.0,0.0,,,,,gelb,yellow,g,1.0,g,1.0,0.839204417000019,,,,,,,,,,,,,,0.0,8.0,8.0,11.0,,,,,104.33962654199996,,,,,,,,,,,,,,,,,104.33474508299996,104.683679833,105.478124875,105.46729079199996,,,,,,,,,,,,,,,,105.47116212499998,105.478124875,105.478124875,106.330239958,g,1.0,0.839204417000019,,106.330791708,106.33593137499996,107.32363954199997,107.333426292,,,,,,,,,,,,,,,,,,,,sub-227,1,stroop_test,,
,,,,9.0,9.0,0.0,,,,,rot,yellow,g,0.0,g,1.0,0.785172541999998,,,,,,,,,,,,,,0.0,9.0,9.0,3.0,,,,,107.333426292,,,,,,,,,,,,,,,,,107.32405091699997,107.42363345799998,108.228950875,108.21751070799996,,,,,,,,,,,,,,,,108.221834667,108.228950875,108.228950875,109.018530958,g,1.0,0.785172541999998,,109.01931679199998,109.031022792,110.0174205,110.02306849999997,,,,,,,,,,,,,,,,,,,,sub-227,1,stroop_test,,
,,,,10.0,10.0,0.0,,,,,rot,red,r,1.0,r,1.0,1.1019890420000138,,,,,,,,,,,,,,0.0,10.0,10.0,0.0,,,,,110.02306849999997,,,,,,,,,,,,,,,,,110.017955125,110.816669542,111.608005667,111.60075645799998,,,,,,,,,,,,,,,,111.601355833,111.608005667,111.608005667,112.717667667,r,1.0,1.1019890420000138,,112.71826025,112.72666516699996,113.71741974999998,113.722741417,,,,,,,,,,,,,,,,,,,,sub-227,1,stroop_test,,
,,,,11.0,11.0,0.0,,,,,rot,blue,b,0.0,b,1.0,0.886030250000033,,,,,,,,,,,,,,0.0,11.0,11.0,2.0,,,,,113.722741417,,,,,,,,,,,,,,,,,113.717843958,114.90680620799998,115.70830662499998,115.700828875,,,,,,,,,,,,,,,,115.70157933299998,115.70830662499998,115.70830662499998,116.602291083,b,1.0,0.886030250000033,,116.603229,116.61521783299996,117.600922583,117.606585375,,,,,,,,,,,,,,,,,,,,sub-227,1,stroop_test,,
,,,,12.0,0.0,1.0,,,,,blau,yellow,g,0.0,g,1.0,1.0456669170000057,,,,,,,,,,,,,,1.0,0.0,12.0,7.0,,,,,117.606585375,,,,,,,,,,,,,,,,,117.60145274999996,118.39962045800002,119.19701125,119.18434520799995,,,,,,,,,,,,,,,,119.18998983299996,119.19701125,119.19701125,120.25223458300002,g,1.0,1.0456669170000057,,120.25318233299998,120.264956417,121.250964792,121.25664808300002,,,,,,,,,,,,,,,,,,,,sub-227,1,stroop_test,,
,,,,13.0,1.0,1.0,,,,,gelb,yellow,g,1.0,g,1.0,0.6240371250000294,,,,,,,,,,,,,,1.0,1.0,13.0,11.0,,,,,121.25664808300002,,,,,,,,,,,,,,,,,121.25139658299996,122.450160333,123.24589774999998,123.234096292,,,,,,,,,,,,,,,,123.238883417,123.24589774999998,123.24589774999998,123.87476825,g,1.0,0.6240371250000294,,123.875563833,123.88758541699995,124.87355654200002,124.88324120800002,,,,,,,,,,,,,,,,,,,,sub-227,1,stroop_test,,
,,,,14.0,2.0,1.0,,,,,blau,red,r,0.0,r,1.0,1.237202375000038,,,,,,,,,,,,,,1.0,2.0,14.0,4.0,,,,,124.88324120800002,,,,,,,,,,,,,,,,,124.87396958300002,126.07297108299996,126.868464167,126.856805792,,,,,,,,,,,,,,,,126.86047404199996,126.868464167,126.868464167,128.10821920799998,r,1.0,1.237202375000038,,128.109225875,128.120654958,129.10661654199998,129.11711979199998,,,,,,,,,,,,,,,,,,,,sub-227,1,stroop_test,,
,,,,15.0,3.0,1.0,,,,,rot,red,r,1.0,r,1.0,0.8339959999999564,,,,,,,,,,,,,,1.0,3.0,15.0,1.0,,,,,129.11711979199998,,,,,,,,,,,,,,,,,129.106919792,129.455782833,130.26651566699996,130.23956029199996,,,,,,,,,,,,,,,,130.243125583,130.26651566699996,130.26651566699996,131.10367504199996,r,1.0,0.8339959999999564,,131.10467508300002,131.1159995,132.10090325,132.10684937499997,,,,,,,,,,,,,,,,,,,,sub-227,1,stroop_test,,
,,,,16.0,4.0,1.0,,,,,blau,blue,b,1.0,b,1.0,0.7217577920000053,,,,,,,,,,,,,,1.0,4.0,16.0,6.0,,,,,132.10684937499997,,,,,,,,,,,,,,,,,132.101443125,132.20015324999997,132.995708042,132.984160208,,,,,,,,,,,,,,,,132.988647792,132.995708042,132.995708042,133.730269292,b,1.0,0.7217577920000053,,133.73083225,133.736120208,134.722257292,134.733705875,,,,,,,,,,,,,,,,,,,,sub-227,1,stroop_test,,
,,,,17.0,5.0,1.0,,,,,blau,blue,b,1.0,b,1.0,0.6413016669999934,,,,,,,,,,,,,,1.0,5.0,17.0,5.0,,,,,134.733705875,,,,,,,,,,,,,,,,,134.72261625,135.07427829199997,135.875861417,135.867865167,,,,,,,,,,,,,,,,135.868675708,135.875861417,135.875861417,136.52932099999998,b,1.0,0.6413016669999934,,136.52983070799996,136.535740917,137.523723625,137.53350079199998,,,,,,,,,,,,,,,,,,,,sub-227,1,stroop_test,,
,,,,18.0,6.0,1.0,,,,,rot,red,r,1.0,r,1.0,0.691536708000001,,,,,,,,,,,,,,1.0,6.0,18.0,0.0,,,,,137.53350079199998,,,,,,,,,,,,,,,,,137.52406225,137.87311091699996,138.668630833,138.656849625,,,,,,,,,,,,,,,,138.660509917,138.668630833,138.668630833,139.368608,r,1.0,0.691536708000001,,139.36942816699997,139.380745333,140.36765283299997,140.373377125,,,,,,,,,,,,,,,,,,,,sub-227,1,stroop_test,,
,,,,19.0,7.0,1.0,,,,,gelb,blue,b,0.0,b,1.0,1.02295320799999,,,,,,,,,,,,,,1.0,7.0,19.0,9.0,,,,,140.373377125,,,,,,,,,,,,,,,,,140.36819670799997,140.4666795,141.26376725,141.25079208299996,,,,,,,,,,,,,,,,141.256616,141.26376725,141.26376725,142.291309625,b,1.0,1.02295320799999,,142.292062208,142.304318625,143.29002104199998,143.300011417,,,,,,,,,,,,,,,,,,,,sub-227,1,stroop_test,,
,,,,20.0,8.0,1.0,,,,,rot,blue,b,0.0,b,1.0,0.7015369590000091,,,,,,,,,,,,,,1.0,8.0,20.0,2.0,,,,,143.300011417,,,,,,,,,,,,,,,,,143.29044366699998,144.488822792,145.299687958,145.272932958,,,,,,,,,,,,,,,,145.27653620799998,145.299687958,145.299687958,146.01241108300002,b,1.0,0.7015369590000091,,146.01303274999998,146.01938391699997,147.00565174999997,147.01664999999997,,,,,,,,,,,,,,,,,,,,sub-227,1,stroop_test,,
,,,,21.0,9.0,1.0,,,,,gelb,yellow,g,1.0,g,1.0,0.9506883330000164,,,,,,,,,,,,,,1.0,9.0,21.0,10.0,,,,,147.01664999999997,,,,,,,,,,,,,,,,,147.005985,147.35611362499998,148.166377167,148.13942587499997,,,,,,,,,,,,,,,,148.143112208,148.166377167,148.166377167,149.119516792,g,1.0,0.9506883330000164,,149.12052445799998,149.13162,150.1175515,150.122922083,,,,,,,,,,,,,,,,,,,,sub-227,1,stroop_test,,
,,,,22.0,10.0,1.0,,,,,gelb,red,r,0.0,r,1.0,1.3479220829999576,,,,,,,,,,,,,,1.0,10.0,22.0,8.0,,,,,150.122922083,,,,,,,,,,,,,,,,,150.11797829199998,151.31657174999998,152.107666833,152.10065591699998,,,,,,,,,,,,,,,,152.101237958,152.107666833,152.107666833,153.457888917,r,1.0,1.3479220829999576,,153.458618375,153.470933833,154.455989208,154.466596417,,,,,,,,,,,,,,,,,,,,sub-227,1,stroop_test,,
,,,,23.0,11.0,1.0,,,,,rot,yellow,g,0.0,g,1.0,0.9817780829999948,,,,,,,,,,,,,,1.0,11.0,23.0,3.0,,,,,154.466596417,,,,,,,,,,,,,,,,,154.456398708,155.25632779199998,156.05197175,156.04020574999998,,,,,,,,,,,,,,,,156.04373012499997,156.05197175,156.05197175,157.03601720799998,g,1.0,0.9817780829999948,,157.037037875,157.048244333,158.03418483299998,158.041923542,,,,,,,,,,,,,,,,,,,,sub-227,1,stroop_test,,
,,,,,,,,,,,,,,,,,,,,,,,,,,,,,,,,,,,,,,,,,,,,,,,,,,,,,,,,,,,,,,,,,,,,,,,,,,,,,,,,,,,,,,,158.03439520799998,158.041923542,158.041923542,162.36855958299998,space,4.316825458000039,,,,,,,,,,,,,,sub-227,1,stroop_test,,
,,,,0.0,0.0,0.0,,,,,,,,,,,,,gelb,yellow,g,1.0,g,1.0,0.9337165000000028,,,,,,,,,,0.0,0.0,0.0,11.0,162.386725292,,,,,,,,,,,,,,,,,162.38004,163.566784417,164.362626083,164.35097587500002,,,,,,,,,,,,,,,,,,,,,,,,,,,,,,,,,,,164.35561204200002,164.362626083,164.362626083,165.30218204199997,g,1.0,0.9337165000000028,,,,,,sub-227,1,stroop_test,,
,,,,1.0,1.0,0.0,,,,,,,,,,,,,rot,red,r,1.0,r,1.0,0.7227915409999923,,,,,,,,,,0.0,1.0,1.0,1.0,165.312072875,,,,,,,,,,,,,,,,,165.30293983299998,165.40023354199997,166.19606333299998,166.18411837499997,,,,,,,,,,,,,,,,,,,,,,,,,,,,,,,,,,,166.18870516699997,166.19606333299998,166.19606333299998,166.92447249999998,r,1.0,0.7227915409999923,,,,,,sub-227,1,stroop_test,,
,,,,2.0,2.0,0.0,,,,,,,,,,,,,blau,yellow,g,0.0,g,1.0,1.4843316669999922,,,,,,,,,,0.0,2.0,2.0,7.0,166.93516512499997,,,,,,,,,,,,,,,,,166.925034875,167.022263625,167.832981167,167.806444708,,,,,,,,,,,,,,,,,,,,,,,,,,,,,,,,,,,167.81008708299998,167.832981167,167.832981167,169.329413542,g,1.0,1.4843316669999922,,,,,,sub-227,1,stroop_test,,
,,,,3.0,3.0,0.0,,,,,,,,,,,,,blau,red,r,0.0,r,1.0,0.8189141660000132,,,,,,,,,,0.0,3.0,3.0,4.0,169.33455416699996,,,,,,,,,,,,,,,,,169.329832292,170.12321099999997,170.91513637499995,170.907162125,,,,,,,,,,,,,,,,,,,,,,,,,,,,,,,,,,,170.90775637499996,170.91513637499995,170.91513637499995,171.74740674999998,r,1.0,0.8189141660000132,,,,,,sub-227,1,stroop_test,,
,,,,4.0,4.0,0.0,,,,,,,,,,,,,gelb,red,r,0.0,r,1.0,1.2151564159999566,,,,,,,,,,0.0,4.0,4.0,8.0,171.75250379199997,,,,,,,,,,,,,,,,,171.747834458,172.937323875,173.73510266699998,173.723407292,,,,,,,,,,,,,,,,,,,,,,,,,,,,,,,,,,,173.72651283300002,173.73510266699998,173.73510266699998,174.95273533299996,r,1.0,1.2151564159999566,,,,,,sub-227,1,stroop_test,,
,,,,5.0,5.0,0.0,,,,,,,,,,,,,rot,yellow,g,0.0,g,1.0,0.6650285420000159,,,,,,,,,,0.0,5.0,5.0,3.0,174.96403725,,,,,,,,,,,,,,,,,174.95355975,175.750088667,176.54506454199998,176.53395966699998,,,,,,,,,,,,,,,,,,,,,,,,,,,,,,,,,,,176.5379345,176.54506454199998,176.54506454199998,177.21857566699998,g,1.0,0.6650285420000159,,,,,,sub-227,1,stroop_test,,
,,,,6.0,6.0,0.0,,,,,,,,,,,,,rot,red,r,1.0,r,1.0,1.4522585000000277,,,,,,,,,,0.0,6.0,6.0,0.0,177.22959383299997,,,,,,,,,,,,,,,,,177.21926075,177.316772,178.108622958,178.1008625,,,,,,,,,,,,,,,,,,,,,,,,,,,,,,,,,,,178.101619125,178.108622958,178.108622958,179.56847029199997,r,1.0,1.4522585000000277,,,,,,sub-227,1,stroop_test,,
,,,,7.0,7.0,0.0,,,,,,,,,,,,,rot,blue,b,0.0,b,1.0,0.9783786670000154,,,,,,,,,,0.0,7.0,7.0,2.0,179.57781983299998,,,,,,,,,,,,,,,,,179.56916187499996,179.916696958,180.708872167,180.700955375,,,,,,,,,,,,,,,,,,,,,,,,,,,,,,,,,,,180.7017845,180.708872167,180.708872167,181.690563167,b,1.0,0.9783786670000154,,,,,,sub-227,1,stroop_test,,
,,,,8.0,8.0,0.0,,,,,,,,,,,,,gelb,blue,b,0.0,b,1.0,0.509634124999991,,,,,,,,,,0.0,8.0,8.0,9.0,181.698270417,,,,,,,,,,,,,,,,,181.690968875,182.890233958,183.695514833,183.684092833,,,,,,,,,,,,,,,,,,,,,,,,,,,,,,,,,,,183.688525,183.695514833,183.695514833,184.207947417,b,1.0,0.509634124999991,,,,,,sub-227,1,stroop_test,,
,,,,9.0,9.0,0.0,,,,,,,,,,,,,blau,blue,b,1.0,b,1.0,0.670048415999986,,,,,,,,,,0.0,9.0,9.0,6.0,184.216508208,,,,,,,,,,,,,,,,,184.208462167,184.305446583,185.101865792,185.090440375,,,,,,,,,,,,,,,,,,,,,,,,,,,,,,,,,,,185.094105333,185.101865792,185.101865792,185.774499,b,1.0,0.670048415999986,,,,,,sub-227,1,stroop_test,,
,,,,10.0,10.0,0.0,,,,,,,,,,,,,blau,blue,b,1.0,b,1.0,0.6033527499999991,,,,,,,,,,0.0,10.0,10.0,5.0,185.783069833,,,,,,,,,,,,,,,,,185.775000708,186.122629333,186.915096542,186.906723125,,,,,,,,,,,,,,,,,,,,,,,,,,,,,,,,,,,186.907318042,186.915096542,186.915096542,187.524801875,b,1.0,0.6033527499999991,,,,,,sub-227,1,stroop_test,,
,,,,11.0,11.0,0.0,,,,,,,,,,,,,gelb,yellow,g,1.0,g,1.0,0.6175383329999704,,,,,,,,,,0.0,11.0,11.0,10.0,187.535097042,,,,,,,,,,,,,,,,,187.525354542,188.322602292,189.118004208,189.105931417,,,,,,,,,,,,,,,,,,,,,,,,,,,,,,,,,,,189.110431458,189.118004208,189.118004208,189.741263458,g,1.0,0.6175383329999704,,,,,,sub-227,1,stroop_test,,
,,,,12.0,0.0,1.0,,,,,,,,,,,,,blau,red,r,0.0,r,1.0,0.8747863329999745,,,,,,,,,,1.0,0.0,12.0,4.0,189.766346417,,,,,,,,,,,,,,,,,189.741821333,189.839507792,190.63488475,190.623257875,,,,,,,,,,,,,,,,,,,,,,,,,,,,,,,,,,,190.626883417,190.63488475,190.63488475,191.518622083,r,1.0,0.8747863329999745,,,,,,sub-227,1,stroop_test,,
,,,,13.0,1.0,1.0,,,,,,,,,,,,,rot,blue,b,0.0,b,1.0,1.4059396669999842,,,,,,,,,,1.0,1.0,13.0,2.0,191.529344792,,,,,,,,,,,,,,,,,191.5193,191.866691042,192.661715792,192.6506305,,,,,,,,,,,,,,,,,,,,,,,,,,,,,,,,,,,192.654467458,192.661715792,192.661715792,194.079979833,b,1.0,1.4059396669999842,,,,,,sub-227,1,stroop_test,,
,,,,14.0,2.0,1.0,,,,,,,,,,,,,rot,red,r,1.0,r,1.0,0.9710197499999822,,,,,,,,,,1.0,2.0,14.0,1.0,194.085411375,,,,,,,,,,,,,,,,,194.080525583,194.174073375,194.975196333,194.967471875,,,,,,,,,,,,,,,,,,,,,,,,,,,,,,,,,,,194.968234208,194.975196333,194.975196333,195.951850875,r,1.0,0.9710197499999822,,,,,,sub-227,1,stroop_test,,
,,,,15.0,3.0,1.0,,,,,,,,,,,,,rot,red,r,1.0,r,1.0,0.5191413340000395,,,,,,,,,,1.0,3.0,15.0,0.0,195.962310833,,,,,,,,,,,,,,,,,195.952501292,196.050171583,196.841170292,196.834045417,,,,,,,,,,,,,,,,,,,,,,,,,,,,,,,,,,,196.834643417,196.841170292,196.841170292,197.368718125,r,1.0,0.5191413340000395,,,,,,sub-227,1,stroop_test,,
,,,,16.0,4.0,1.0,,,,,,,,,,,,,gelb,yellow,g,1.0,g,1.0,0.6874884580000185,,,,,,,,,,1.0,4.0,16.0,10.0,197.379529708,,,,,,,,,,,,,,,,,197.369414833,197.46665825,198.262734583,198.250972292,,,,,,,,,,,,,,,,,,,,,,,,,,,,,,,,,,,198.255590667,198.262734583,198.262734583,198.952776917,g,1.0,0.6874884580000185,,,,,,sub-227,1,stroop_test,,
,,,,17.0,5.0,1.0,,,,,,,,,,,,,gelb,blue,b,0.0,b,1.0,0.7528958750000356,,,,,,,,,,1.0,5.0,17.0,9.0,198.963672667,,,,,,,,,,,,,,,,,198.953565167,199.049997542,199.841517917,199.834152625,,,,,,,,,,,,,,,,,,,,,,,,,,,,,,,,,,,199.834825458,199.841517917,199.841517917,200.602068375,b,1.0,0.7528958750000356,,,,,,sub-227,1,stroop_test,,
,,,,18.0,6.0,1.0,,,,,,,,,,,,,gelb,yellow,g,1.0,g,1.0,0.6994693330000246,,,,,,,,,,1.0,6.0,18.0,11.0,200.612859833,,,,,,,,,,,,,,,,,200.602765167,201.399926333,202.191726625,202.184220333,,,,,,,,,,,,,,,,,,,,,,,,,,,,,,,,,,,202.184995208,202.191726625,202.191726625,202.901931208,g,1.0,0.6994693330000246,,,,,,sub-227,1,stroop_test,,
,,,,19.0,7.0,1.0,,,,,,,,,,,,,gelb,red,r,0.0,r,1.0,1.3885527080000202,,,,,,,,,,1.0,7.0,19.0,8.0,202.912623792,,,,,,,,,,,,,,,,,202.902601833,202.999890083,203.791452375,203.7840455,,,,,,,,,,,,,,,,,,,,,,,,,,,,,,,,,,,203.784649,203.791452375,203.791452375,205.185314833,r,1.0,1.3885527080000202,,,,,,sub-227,1,stroop_test,,
,,,,20.0,8.0,1.0,,,,,,,,,,,,,blau,blue,b,1.0,b,1.0,0.6156144169999607,,,,,,,,,,1.0,8.0,20.0,5.0,205.195955792,,,,,,,,,,,,,,,,,205.18603825,205.983328708,206.778592917,206.7675895,,,,,,,,,,,,,,,,,,,,,,,,,,,,,,,,,,,206.771562167,206.778592917,206.778592917,207.401689792,b,1.0,0.6156144169999607,,,,,,sub-227,1,stroop_test,,
,,,,21.0,9.0,1.0,,,,,,,,,,,,,rot,yellow,g,0.0,g,1.0,0.854790874999992,,,,,,,,,,1.0,9.0,21.0,3.0,207.411543125,,,,,,,,,,,,,,,,,207.402180333,208.199994042,208.995870958,208.983951,,,,,,,,,,,,,,,,,,,,,,,,,,,,,,,,,,,208.988569458,208.995870958,208.995870958,209.863924625,g,1.0,0.854790874999992,,,,,,sub-227,1,stroop_test,,
,,,,22.0,10.0,1.0,,,,,,,,,,,,,blau,blue,b,1.0,b,1.0,0.7315494170000534,,,,,,,,,,1.0,10.0,22.0,6.0,209.867829667,,,,,,,,,,,,,,,,,209.864355292,210.20509525,211.002268208,210.990190083,,,,,,,,,,,,,,,,,,,,,,,,,,,,,,,,,,,210.994961333,211.002268208,211.002268208,211.744934125,b,1.0,0.7315494170000534,,,,,,sub-227,1,stroop_test,,
,,,,23.0,11.0,1.0,,,,,,,,,,,,,blau,yellow,g,0.0,g,1.0,1.0104396250000036,,,,,,,,,,1.0,11.0,23.0,7.0,211.749267083,,,,,,,,,,,,,,,,,211.745296917,212.0881125,212.881784792,212.873353542,,,,,,,,,,,,,,,,,,,,,,,,,,,,,,,,,,,212.873930625,212.881784792,212.881784792,213.90205025,g,1.0,1.0104396250000036,,,,,,sub-227,1,stroop_test,,
,,,,24.0,0.0,2.0,,,,,,,,,,,,,gelb,red,r,0.0,r,1.0,0.9382423749999588,,,,,,,,,,2.0,0.0,24.0,8.0,213.911894958,,,,,,,,,,,,,,,,,213.902677208,215.100106958,215.895999667,215.884416833,,,,,,,,,,,,,,,,,,,,,,,,,,,,,,,,,,,215.888952667,215.895999667,215.895999667,216.845296125,r,1.0,0.9382423749999588,,,,,,sub-227,1,stroop_test,,
,,,,25.0,1.0,2.0,,,,,,,,,,,,,rot,red,r,1.0,r,1.0,0.9075717500000452,,,,,,,,,,2.0,1.0,25.0,0.0,216.851646,,,,,,,,,,,,,,,,,216.845828875,216.939855292,217.74971475,217.722991167,,,,,,,,,,,,,,,,,,,,,,,,,,,,,,,,,,,217.726452208,217.74971475,217.74971475,218.668347042,r,1.0,0.9075717500000452,,,,,,sub-227,1,stroop_test,,
,,,,26.0,2.0,2.0,,,,,,,,,,,,,blau,blue,b,1.0,b,1.0,0.8541388339999685,,,,,,,,,,2.0,2.0,26.0,5.0,218.673724042,,,,,,,,,,,,,,,,,218.668831083,218.766770292,219.562601167,219.550897667,,,,,,,,,,,,,,,,,,,,,,,,,,,,,,,,,,,219.555316667,219.562601167,219.562601167,220.419098083,b,1.0,0.8541388339999685,,,,,,sub-227,1,stroop_test,,
,,,,27.0,3.0,2.0,,,,,,,,,,,,,rot,yellow,g,0.0,g,1.0,0.8990639579999993,,,,,,,,,,2.0,3.0,27.0,3.0,220.429291833,,,,,,,,,,,,,,,,,220.419845333,220.516700833,221.311788125,221.300608625,,,,,,,,,,,,,,,,,,,,,,,,,,,,,,,,,,,221.304592833,221.311788125,221.311788125,222.218452917,g,1.0,0.8990639579999993,,,,,,sub-227,1,stroop_test,,
,,,,28.0,4.0,2.0,,,,,,,,,,,,,gelb,blue,b,0.0,b,1.0,0.8713414169999965,,,,,,,,,,2.0,4.0,28.0,9.0,222.227680458,,,,,,,,,,,,,,,,,222.218940708,223.016609417,223.812737417,223.801121042,,,,,,,,,,,,,,,,,,,,,,,,,,,,,,,,,,,223.805796625,223.812737417,223.812737417,224.696851125,b,1.0,0.8713414169999965,,,,,,sub-227,1,stroop_test,,
,,,,29.0,5.0,2.0,,,,,,,,,,,,,blau,red,r,0.0,r,1.0,1.0477328330000546,,,,,,,,,,2.0,5.0,29.0,4.0,224.70131825,,,,,,,,,,,,,,,,,224.69730075,224.789585958,225.599727583,225.572862,,,,,,,,,,,,,,,,,,,,,,,,,,,,,,,,,,,225.5767025,225.599727583,225.599727583,226.652043542,r,1.0,1.0477328330000546,,,,,,sub-227,1,stroop_test,,
,,,,30.0,6.0,2.0,,,,,,,,,,,,,blau,yellow,g,0.0,g,1.0,0.7710048330000063,,,,,,,,,,2.0,6.0,30.0,7.0,226.662061333,,,,,,,,,,,,,,,,,226.652649167,226.750073583,227.540971417,227.53394975,,,,,,,,,,,,,,,,,,,,,,,,,,,,,,,,,,,227.534541958,227.540971417,227.540971417,228.318618542,g,1.0,0.7710048330000063,,,,,,sub-227,1,stroop_test,,
,,,,31.0,7.0,2.0,,,,,,,,,,,,,blau,blue,b,1.0,b,1.0,0.5942247080000129,,,,,,,,,,2.0,7.0,31.0,6.0,228.328525542,,,,,,,,,,,,,,,,,228.319241875,228.666572958,229.459681625,229.450875417,,,,,,,,,,,,,,,,,,,,,,,,,,,,,,,,,,,229.451462917,229.459681625,229.459681625,230.057730125,b,1.0,0.5942247080000129,,,,,,sub-227,1,stroop_test,,
,,,,32.0,8.0,2.0,,,,,,,,,,,,,gelb,yellow,g,1.0,g,1.0,0.8423880839999924,,,,,,,,,,2.0,8.0,32.0,10.0,230.0680685,,,,,,,,,,,,,,,,,230.05828675,231.256361667,232.0663705,232.039664,,,,,,,,,,,,,,,,,,,,,,,,,,,,,,,,,,,232.043325917,232.0663705,232.0663705,232.918517875,g,1.0,0.8423880839999924,,,,,,sub-227,1,stroop_test,,
,,,,33.0,9.0,2.0,,,,,,,,,,,,,rot,red,r,1.0,r,1.0,0.7624018330000126,,,,,,,,,,2.0,9.0,33.0,1.0,232.928507833,,,,,,,,,,,,,,,,,232.919122625,233.016758625,233.812562208,233.800909208,,,,,,,,,,,,,,,,,,,,,,,,,,,,,,,,,,,233.805314458,233.812562208,233.812562208,234.585333458,r,1.0,0.7624018330000126,,,,,,sub-227,1,stroop_test,,
,,,,34.0,10.0,2.0,,,,,,,,,,,,,gelb,yellow,g,1.0,g,1.0,0.6233497499999885,,,,,,,,,,2.0,10.0,34.0,11.0,234.595399833,,,,,,,,,,,,,,,,,234.585928708,235.383277292,236.178073,236.16721925,,,,,,,,,,,,,,,,,,,,,,,,,,,,,,,,,,,236.171067125,236.178073,236.178073,236.812592542,g,1.0,0.6233497499999885,,,,,,sub-227,1,stroop_test,,
,,,,35.0,11.0,2.0,,,,,,,,,,,,,rot,blue,b,0.0,b,1.0,1.1662742920000255,,,,,,,,,,2.0,11.0,35.0,2.0,236.818253792,,,,,,,,,,,,,,,,,236.813070042,237.606188833,238.412423458,238.400796083,,,,,,,,,,,,,,,,,,,,,,,,,,,,,,,,,,,238.405034292,238.412423458,238.412423458,239.585270292,b,1.0,1.1662742920000255,,,,,,sub-227,1,stroop_test,,
,,,,36.0,0.0,3.0,,,,,,,,,,,,,gelb,blue,b,0.0,b,1.0,1.0804159159999926,,,,,,,,,,3.0,0.0,36.0,9.0,239.595401667,,,,,,,,,,,,,,,,,239.585897083,239.68351625,240.479085333,240.467461542,,,,,,,,,,,,,,,,,,,,,,,,,,,,,,,,,,,240.471825458,240.479085333,240.479085333,241.569144542,b,1.0,1.0804159159999926,,,,,,sub-227,1,stroop_test,,
,,,,37.0,1.0,3.0,,,,,,,,,,,,,blau,yellow,g,0.0,g,1.0,1.3879184590000475,,,,,,,,,,3.0,1.0,37.0,7.0,241.579151208,,,,,,,,,,,,,,,,,241.56981975,242.366795458,243.162375,243.150814542,,,,,,,,,,,,,,,,,,,,,,,,,,,,,,,,,,,243.155338583,243.162375,243.162375,244.552864292,g,1.0,1.3879184590000475,,,,,,sub-227,1,stroop_test,,
,,,,38.0,2.0,3.0,,,,,,,,,,,,,rot,blue,b,0.0,b,1.0,1.3242081660000051,,,,,,,,,,3.0,2.0,38.0,2.0,244.562802125,,,,,,,,,,,,,,,,,244.553571708,244.650058542,245.44551325,245.434070625,,,,,,,,,,,,,,,,,,,,,,,,,,,,,,,,,,,245.438363958,245.44551325,245.44551325,246.774409708,b,1.0,1.3242081660000051,,,,,,sub-227,1,stroop_test,,
,,,,39.0,3.0,3.0,,,,,,,,,,,,,gelb,yellow,g,1.0,g,1.0,0.8095542089999981,,,,,,,,,,3.0,3.0,39.0,11.0,246.78299925,,,,,,,,,,,,,,,,,246.774904875,247.123215042,247.918795542,247.906395375,,,,,,,,,,,,,,,,,,,,,,,,,,,,,,,,,,,247.911126917,247.918795542,247.918795542,248.73520775,g,1.0,0.8095542089999981,,,,,,sub-227,1,stroop_test,,
,,,,40.0,4.0,3.0,,,,,,,,,,,,,gelb,red,r,0.0,r,1.0,0.5753655830000071,,,,,,,,,,3.0,4.0,40.0,8.0,248.744963708,,,,,,,,,,,,,,,,,248.735853667,249.08332575,249.87526225,249.86748225,,,,,,,,,,,,,,,,,,,,,,,,,,,,,,,,,,,249.868257917,249.87526225,249.87526225,250.46346675,r,1.0,0.5753655830000071,,,,,,sub-227,1,stroop_test,,
,,,,41.0,5.0,3.0,,,,,,,,,,,,,rot,red,r,1.0,r,1.0,0.5711453750000146,,,,,,,,,,3.0,5.0,41.0,0.0,250.467985333,,,,,,,,,,,,,,,,,250.463921125,250.80664025,251.612445,251.600866042,,,,,,,,,,,,,,,,,,,,,,,,,,,,,,,,,,,251.605375458,251.612445,251.612445,252.18629025,r,1.0,0.5711453750000146,,,,,,sub-227,1,stroop_test,,
,,,,42.0,6.0,3.0,,,,,,,,,,,,,blau,blue,b,1.0,b,1.0,0.8627512919999845,,,,,,,,,,3.0,6.0,42.0,6.0,252.196348667,,,,,,,,,,,,,,,,,252.187012958,253.383494208,254.178803583,254.167492667,,,,,,,,,,,,,,,,,,,,,,,,,,,,,,,,,,,254.171731833,254.178803583,254.178803583,255.0518615,b,1.0,0.8627512919999845,,,,,,sub-227,1,stroop_test,,
,,,,43.0,7.0,3.0,,,,,,,,,,,,,blau,red,r,0.0,r,1.0,0.6418150000000082,,,,,,,,,,3.0,7.0,43.0,4.0,255.061740167,,,,,,,,,,,,,,,,,255.052455583,256.249962167,257.041667042,257.034246292,,,,,,,,,,,,,,,,,,,,,,,,,,,,,,,,,,,257.034846125,257.041667042,257.041667042,257.686263958,r,1.0,0.6418150000000082,,,,,,sub-227,1,stroop_test,,
,,,,44.0,8.0,3.0,,,,,,,,,,,,,gelb,yellow,g,1.0,g,1.0,0.6123962499999607,,,,,,,,,,3.0,8.0,44.0,10.0,257.696152542,,,,,,,,,,,,,,,,,257.687002042,258.03336625,258.828948875,258.817402167,,,,,,,,,,,,,,,,,,,,,,,,,,,,,,,,,,,258.82171325,258.828948875,258.828948875,259.451993375,g,1.0,0.6123962499999607,,,,,,sub-227,1,stroop_test,,
,,,,45.0,9.0,3.0,,,,,,,,,,,,,blau,blue,b,1.0,b,1.0,1.5950427500000046,,,,,,,,,,3.0,9.0,45.0,5.0,259.46195875,,,,,,,,,,,,,,,,,259.452597208,260.249914125,261.044883625,261.033987458,,,,,,,,,,,,,,,,,,,,,,,,,,,,,,,,,,,261.0381075,261.044883625,261.044883625,262.650422958,b,1.0,1.5950427500000046,,,,,,sub-227,1,stroop_test,,
,,,,46.0,10.0,3.0,,,,,,,,,,,,,rot,yellow,g,0.0,g,1.0,0.7653126249999787,,,,,,,,,,3.0,10.0,46.0,3.0,262.655510792,,,,,,,,,,,,,,,,,262.650809083,262.99002025,263.784808,263.773134292,,,,,,,,,,,,,,,,,,,,,,,,,,,,,,,,,,,263.776622875,263.784808,263.784808,264.552454375,g,1.0,0.7653126249999787,,,,,,sub-227,1,stroop_test,,
,,,,47.0,11.0,3.0,,,,,,,,,,,,,rot,red,r,1.0,r,1.0,0.615688791000025,,,,,,,,,,3.0,11.0,47.0,1.0,264.562410708,,,,,,,,,,,,,,,,,264.553153792,264.650135292,265.441425042,265.434003875,,,,,,,,,,,,,,,,,,,,,,,,,,,,,,,,,,,265.434611208,265.441425042,265.441425042,266.068129583,r,1.0,0.615688791000025,,,,,,sub-227,1,stroop_test,,
,,,,48.0,0.0,4.0,,,,,,,,,,,,,gelb,yellow,g,1.0,g,1.0,0.6367862910000213,,,,,,,,,,4.0,0.0,48.0,10.0,266.074009333,,,,,,,,,,,,,,,,,266.06874675,267.266610917,268.063849375,268.050802917,,,,,,,,,,,,,,,,,,,,,,,,,,,,,,,,,,,268.056769708,268.063849375,268.063849375,268.703038625,g,1.0,0.6367862910000213,,,,,,sub-227,1,stroop_test,,
,,,,49.0,1.0,4.0,,,,,,,,,,,,,gelb,blue,b,0.0,b,1.0,1.2684522920000063,,,,,,,,,,4.0,1.0,49.0,9.0,268.713014375,,,,,,,,,,,,,,,,,268.703790208,268.799865833,269.591592458,269.584065333,,,,,,,,,,,,,,,,,,,,,,,,,,,,,,,,,,,269.58466175,269.591592458,269.591592458,270.868761167,b,1.0,1.2684522920000063,,,,,,sub-227,1,stroop_test,,
,,,,50.0,2.0,4.0,,,,,,,,,,,,,blau,blue,b,1.0,b,1.0,0.5891197500000089,,,,,,,,,,4.0,2.0,50.0,5.0,270.878488875,,,,,,,,,,,,,,,,,270.869405625,270.966620792,271.761829167,271.750730375,,,,,,,,,,,,,,,,,,,,,,,,,,,,,,,,,,,271.755000083,271.761829167,271.761829167,272.362187375,b,1.0,0.5891197500000089,,,,,,sub-227,1,stroop_test,,
,,,,51.0,3.0,4.0,,,,,,,,,,,,,rot,red,r,1.0,r,1.0,0.7221887910000078,,,,,,,,,,4.0,3.0,51.0,0.0,272.368341042,,,,,,,,,,,,,,,,,272.362679917,272.456095208,273.262555167,273.250864708,,,,,,,,,,,,,,,,,,,,,,,,,,,,,,,,,,,273.255422292,273.262555167,273.262555167,273.995669833,r,1.0,0.7221887910000078,,,,,,sub-227,1,stroop_test,,
,,,,52.0,4.0,4.0,,,,,,,,,,,,,blau,yellow,g,0.0,g,1.0,1.0829508330000408,,,,,,,,,,4.0,4.0,52.0,7.0,274.001353542,,,,,,,,,,,,,,,,,273.996154375,274.34018775,275.135014833,275.123477708,,,,,,,,,,,,,,,,,,,,,,,,,,,,,,,,,,,275.127110625,275.135014833,275.135014833,276.228711708,g,1.0,1.0829508330000408,,,,,,sub-227,1,stroop_test,,
,,,,53.0,5.0,4.0,,,,,,,,,,,,,rot,red,r,1.0,r,1.0,0.7685224999999605,,,,,,,,,,4.0,5.0,53.0,1.0,276.234931292,,,,,,,,,,,,,,,,,276.229218708,277.422935083,278.23287325,278.206230042,,,,,,,,,,,,,,,,,,,,,,,,,,,,,,,,,,,278.20976675,278.23287325,278.23287325,279.012932,r,1.0,0.7685224999999605,,,,,,sub-227,1,stroop_test,,
,,,,54.0,6.0,4.0,,,,,,,,,,,,,blau,red,r,0.0,r,1.0,0.9541852500000232,,,,,,,,,,4.0,6.0,54.0,4.0,279.018686,,,,,,,,,,,,,,,,,279.013431625,279.356729833,280.166378792,280.139845958,,,,,,,,,,,,,,,,,,,,,,,,,,,,,,,,,,,280.143402125,280.166378792,280.166378792,281.124624333,r,1.0,0.9541852500000232,,,,,,sub-227,1,stroop_test,,
,,,,55.0,7.0,4.0,,,,,,,,,,,,,rot,blue,b,0.0,b,1.0,0.9215202500000146,,,,,,,,,,4.0,7.0,55.0,2.0,281.134961,,,,,,,,,,,,,,,,,281.125177792,281.472742667,282.268312333,282.25644275,,,,,,,,,,,,,,,,,,,,,,,,,,,,,,,,,,,282.2599805,282.268312333,282.268312333,283.201346958,b,1.0,0.9215202500000146,,,,,,sub-227,1,stroop_test,,
,,,,56.0,8.0,4.0,,,,,,,,,,,,,rot,yellow,g,0.0,g,1.0,1.442371249999951,,,,,,,,,,4.0,8.0,56.0,3.0,283.206909292,,,,,,,,,,,,,,,,,283.201884083,283.549996708,284.341973958,284.33409075,,,,,,,,,,,,,,,,,,,,,,,,,,,,,,,,,,,284.334892542,284.341973958,284.341973958,285.795710583,g,1.0,1.442371249999951,,,,,,sub-227,1,stroop_test,,
,,,,57.0,9.0,4.0,,,,,,,,,,,,,gelb,red,r,0.0,r,1.0,0.931828875000008,,,,,,,,,,4.0,9.0,57.0,8.0,285.801374292,,,,,,,,,,,,,,,,,285.796185167,285.889149125,286.685707833,286.673602083,,,,,,,,,,,,,,,,,,,,,,,,,,,,,,,,,,,286.678452792,286.685707833,286.685707833,287.630534958,r,1.0,0.931828875000008,,,,,,sub-227,1,stroop_test,,
,,,,58.0,10.0,4.0,,,,,,,,,,,,,blau,blue,b,1.0,b,1.0,0.7568754170000034,,,,,,,,,,4.0,10.0,58.0,6.0,287.634430792,,,,,,,,,,,,,,,,,287.630945167,288.822816458,289.632951,289.606005292,,,,,,,,,,,,,,,,,,,,,,,,,,,,,,,,,,,289.609727833,289.632951,289.632951,290.392224458,b,1.0,0.7568754170000034,,,,,,sub-227,1,stroop_test,,
,,,,59.0,11.0,4.0,,,,,,,,,,,,,gelb,yellow,g,1.0,g,1.0,0.7058207499999867,,,,,,,,,,4.0,11.0,59.0,11.0,290.402592208,,,,,,,,,,,,,,,,,290.39287,290.489576458,291.299622042,291.27283975,,,,,,,,,,,,,,,,,,,,,,,,,,,,,,,,,,,291.276492625,291.299622042,291.299622042,292.007413917,g,1.0,0.7058207499999867,,,,,,sub-227,1,stroop_test,,
,,,,60.0,0.0,5.0,,,,,,,,,,,,,blau,red,r,0.0,r,1.0,1.0161399579999966,,,,,,,,,,5.0,0.0,60.0,4.0,292.03299875,,,,,,,,,,,,,,,,,292.007873458,293.2059315,294.00149125,293.990048875,,,,,,,,,,,,,,,,,,,,,,,,,,,,,,,,,,,293.993731542,294.00149125,294.00149125,295.029019042,r,1.0,1.0161399579999966,,,,,,sub-227,1,stroop_test,,
,,,,61.0,1.0,5.0,,,,,,,,,,,,,blau,blue,b,1.0,b,1.0,0.7313124169999696,,,,,,,,,,5.0,1.0,61.0,5.0,295.034721208,,,,,,,,,,,,,,,,,295.029493208,295.823458458,296.625337542,296.617499125,,,,,,,,,,,,,,,,,,,,,,,,,,,,,,,,,,,296.618298167,296.625337542,296.625337542,297.368015833,b,1.0,0.7313124169999696,,,,,,sub-227,1,stroop_test,,
,,,,62.0,2.0,5.0,,,,,,,,,,,,,gelb,yellow,g,1.0,g,1.0,0.7157669169999963,,,,,,,,,,5.0,2.0,62.0,11.0,297.373352417,,,,,,,,,,,,,,,,,297.368486292,297.466625583,298.262068583,298.250689833,,,,,,,,,,,,,,,,,,,,,,,,,,,,,,,,,,,298.25502125,298.262068583,298.262068583,298.985119125,g,1.0,0.7157669169999963,,,,,,sub-227,1,stroop_test,,
,,,,63.0,3.0,5.0,,,,,,,,,,,,,gelb,red,r,0.0,r,1.0,0.5727862500000356,,,,,,,,,,5.0,3.0,63.0,8.0,298.995412125,,,,,,,,,,,,,,,,,298.985734625,299.783368792,300.575184417,300.567439917,,,,,,,,,,,,,,,,,,,,,,,,,,,,,,,,,,,300.568180042,300.575184417,300.575184417,301.15216025,r,1.0,0.5727862500000356,,,,,,sub-227,1,stroop_test,,
,,,,64.0,4.0,5.0,,,,,,,,,,,,,blau,yellow,g,0.0,g,1.0,1.288656499999945,,,,,,,,,,5.0,4.0,64.0,7.0,301.162696292,,,,,,,,,,,,,,,,,301.152855875,302.34982025,303.145605542,303.134055167,,,,,,,,,,,,,,,,,,,,,,,,,,,,,,,,,,,303.138602708,303.145605542,303.145605542,304.445988208,g,1.0,1.288656499999945,,,,,,sub-227,1,stroop_test,,
,,,,65.0,5.0,5.0,,,,,,,,,,,,,gelb,yellow,g,1.0,g,1.0,0.5763751250000269,,,,,,,,,,5.0,5.0,65.0,10.0,304.451649708,,,,,,,,,,,,,,,,,304.446504542,305.240407875,306.035964458,306.023440458,,,,,,,,,,,,,,,,,,,,,,,,,,,,,,,,,,,306.028513833,306.035964458,306.035964458,306.6188215,g,1.0,0.5763751250000269,,,,,,sub-227,1,stroop_test,,
,,,,66.0,6.0,5.0,,,,,,,,,,,,,rot,yellow,g,0.0,g,1.0,1.251923291999958,,,,,,,,,,5.0,6.0,66.0,3.0,306.629290792,,,,,,,,,,,,,,,,,306.619463833,306.71680425,307.512598833,307.500767708,,,,,,,,,,,,,,,,,,,,,,,,,,,,,,,,,,,307.505330042,307.512598833,307.512598833,308.768761292,g,1.0,1.251923291999958,,,,,,sub-227,1,stroop_test,,
,,,,67.0,7.0,5.0,,,,,,,,,,,,,blau,blue,b,1.0,b,1.0,0.747289124999952,,,,,,,,,,5.0,7.0,67.0,6.0,308.779193917,,,,,,,,,,,,,,,,,308.76943825,309.116762333,309.91156175000003,309.900626042,,,,,,,,,,,,,,,,,,,,,,,,,,,,,,,,,,,309.904553458,309.91156175000003,309.91156175000003,310.668692333,b,1.0,0.747289124999952,,,,,,sub-227,1,stroop_test,,
,,,,68.0,8.0,5.0,,,,,,,,,,,,,rot,red,r,1.0,r,1.0,0.69230979200006,,,,,,,,,,5.0,8.0,68.0,0.0,310.678865042,,,,,,,,,,,,,,,,,310.66934504200003,310.76655808299995,311.562153,311.55077275,,,,,,,,,,,,,,,,,,,,,,,,,,,,,,,,,,,311.554851792,311.562153,311.562153,312.25750741699994,r,1.0,0.69230979200006,,,,,,sub-227,1,stroop_test,,
,,,,69.0,9.0,5.0,,,,,,,,,,,,,gelb,blue,b,0.0,b,1.0,0.6638963750000357,,,,,,,,,,5.0,9.0,69.0,9.0,312.268408875,,,,,,,,,,,,,,,,,312.258052833,312.355429167,313.14965604199995,313.139291458,,,,,,,,,,,,,,,,,,,,,,,,,,,,,,,,,,,313.142829375,313.14965604199995,313.14965604199995,313.818525542,b,1.0,0.6638963750000357,,,,,,sub-227,1,stroop_test,,
,,,,70.0,10.0,5.0,,,,,,,,,,,,,rot,red,r,1.0,r,1.0,0.698768624999957,,,,,,,,,,5.0,10.0,70.0,1.0,313.82889575,,,,,,,,,,,,,,,,,313.819141167,315.01660541699994,315.81227208300004,315.800684083,,,,,,,,,,,,,,,,,,,,,,,,,,,,,,,,,,,315.804767375,315.81227208300004,315.81227208300004,316.518517667,r,1.0,0.698768624999957,,,,,,sub-227,1,stroop_test,,
,,,,71.0,11.0,5.0,,,,,,,,,,,,,rot,blue,b,0.0,b,1.0,0.9467239170000994,,,,,,,,,,5.0,11.0,71.0,2.0,316.52875637499994,,,,,,,,,,,,,,,,,316.51913983299994,317.31649300000004,318.10762991699994,318.100631542,,,,,,,,,,,,,,,,,,,,,,,,,,,,,,,,,,,318.101234458,318.10762991699994,318.10762991699994,319.05790108300005,b,1.0,0.9467239170000994,,,,,,sub-227,1,stroop_test,,
,,,,72.0,0.0,6.0,,,,,,,,,,,,,blau,blue,b,1.0,b,1.0,0.8373302499999227,,,,,,,,,,6.0,0.0,72.0,5.0,319.068920792,,,,,,,,,,,,,,,,,319.05844441700003,319.40630320799994,320.21637729199995,320.189680417,,,,,,,,,,,,,,,,,,,,,,,,,,,,,,,,,,,320.193275125,320.21637729199995,320.21637729199995,321.05741254199995,b,1.0,0.8373302499999227,,,,,,sub-227,1,stroop_test,,
,,,,73.0,1.0,6.0,,,,,,,,,,,,,blau,red,r,0.0,r,1.0,0.7115986250000788,,,,,,,,,,6.0,1.0,73.0,4.0,321.068513417,,,,,,,,,,,,,,,,,321.057981083,321.155462708,321.948895333,321.93982870799994,,,,,,,,,,,,,,,,,,,,,,,,,,,,,,,,,,,321.94040675,321.948895333,321.948895333,322.668714625,r,1.0,0.7115986250000788,,,,,,sub-227,1,stroop_test,,
,,,,74.0,2.0,6.0,,,,,,,,,,,,,gelb,yellow,g,1.0,g,1.0,0.7571475409999948,,,,,,,,,,6.0,2.0,74.0,11.0,322.67901762500003,,,,,,,,,,,,,,,,,322.669360333,323.467005792,324.26441750000004,324.250688833,,,,,,,,,,,,,,,,,,,,,,,,,,,,,,,,,,,324.258003208,324.26441750000004,324.26441750000004,325.023975458,g,1.0,0.7571475409999948,,,,,,sub-227,1,stroop_test,,
,,,,75.0,3.0,6.0,,,,,,,,,,,,,rot,red,r,1.0,r,1.0,0.8321317500000305,,,,,,,,,,6.0,3.0,75.0,0.0,325.032385708,,,,,,,,,,,,,,,,,325.02446562499995,325.822618917,326.618247375,326.606503333,,,,,,,,,,,,,,,,,,,,,,,,,,,,,,,,,,,326.61006825000004,326.618247375,326.618247375,327.462581583,r,1.0,0.8321317500000305,,,,,,sub-227,1,stroop_test,,
,,,,76.0,4.0,6.0,,,,,,,,,,,,,gelb,red,r,0.0,r,1.0,0.9506611250000104,,,,,,,,,,6.0,4.0,76.0,8.0,327.468004208,,,,,,,,,,,,,,,,,327.463026583,328.656789958,329.451672583,329.439852083,,,,,,,,,,,,,,,,,,,,,,,,,,,,,,,,,,,329.44365437499994,329.451672583,329.451672583,330.407733583,r,1.0,0.9506611250000104,,,,,,sub-227,1,stroop_test,,
,,,,77.0,5.0,6.0,,,,,,,,,,,,,gelb,blue,b,0.0,b,1.0,0.6770689590000529,,,,,,,,,,6.0,5.0,77.0,9.0,330.41841112500003,,,,,,,,,,,,,,,,,330.408292542,330.75648683299994,331.54872691699995,331.540097167,,,,,,,,,,,,,,,,,,,,,,,,,,,,,,,,,,,331.54067795799995,331.54872691699995,331.54872691699995,332.2354915,b,1.0,0.6770689590000529,,,,,,sub-227,1,stroop_test,,
,,,,78.0,6.0,6.0,,,,,,,,,,,,,gelb,yellow,g,1.0,g,1.0,0.7703610830000116,,,,,,,,,,6.0,6.0,78.0,10.0,332.24514683300004,,,,,,,,,,,,,,,,,332.23615425,332.333429292,333.125310042,333.117488708,,,,,,,,,,,,,,,,,,,,,,,,,,,,,,,,,,,333.11823141699995,333.125310042,333.125310042,333.90214125,g,1.0,0.7703610830000116,,,,,,sub-227,1,stroop_test,,
,,,,79.0,7.0,6.0,,,,,,,,,,,,,rot,yellow,g,0.0,g,1.0,1.1820337919999702,,,,,,,,,,6.0,7.0,79.0,3.0,333.91147554199995,,,,,,,,,,,,,,,,,333.902838625,334.699927708,335.495558042,335.483980375,,,,,,,,,,,,,,,,,,,,,,,,,,,,,,,,,,,335.488388708,335.495558042,335.495558042,336.685156667,g,1.0,1.1820337919999702,,,,,,sub-227,1,stroop_test,,
,,,,80.0,8.0,6.0,,,,,,,,,,,,,rot,blue,b,0.0,b,1.0,1.0122785000000931,,,,,,,,,,6.0,8.0,80.0,2.0,336.695035333,,,,,,,,,,,,,,,,,336.68577837500004,337.883400167,338.674973,338.66758779199995,,,,,,,,,,,,,,,,,,,,,,,,,,,,,,,,,,,338.66835779199994,338.674973,338.674973,339.69123625,b,1.0,1.0122785000000931,,,,,,sub-227,1,stroop_test,,
,,,,81.0,9.0,6.0,,,,,,,,,,,,,blau,blue,b,1.0,b,1.0,0.9553474169999844,,,,,,,,,,6.0,9.0,81.0,6.0,339.70172079199995,,,,,,,,,,,,,,,,,339.691786125,340.890232333,341.695086708,341.683850333,,,,,,,,,,,,,,,,,,,,,,,,,,,,,,,,,,,341.68783729200004,341.695086708,341.695086708,342.652767917,b,1.0,0.9553474169999844,,,,,,sub-227,1,stroop_test,,
,,,,82.0,10.0,6.0,,,,,,,,,,,,,blau,yellow,g,0.0,g,1.0,1.1342631659999824,,,,,,,,,,6.0,10.0,82.0,7.0,342.662960625,,,,,,,,,,,,,,,,,342.65350454199995,343.450139625,344.24167575,344.233929708,,,,,,,,,,,,,,,,,,,,,,,,,,,,,,,,,,,344.234681333,344.24167575,344.24167575,345.385461042,g,1.0,1.1342631659999824,,,,,,sub-227,1,stroop_test,,
,,,,83.0,11.0,6.0,,,,,,,,,,,,,rot,red,r,1.0,r,1.0,1.1110885000000508,,,,,,,,,,6.0,11.0,83.0,1.0,345.395368708,,,,,,,,,,,,,,,,,345.386191167,346.183311375,346.97876762500005,346.967352625,,,,,,,,,,,,,,,,,,,,,,,,,,,,,,,,,,,346.971568792,346.97876762500005,346.97876762500005,348.102495417,r,1.0,1.1110885000000508,,,,,,sub-227,1,stroop_test,,
,,,,84.0,0.0,7.0,,,,,,,,,,,,,rot,blue,b,0.0,b,1.0,1.338110709000034,,,,,,,,,,7.0,0.0,84.0,2.0,348.116521208,,,,,,,,,,,,,,,,,348.102857375,348.450006292,349.24146125000004,349.23405079199995,,,,,,,,,,,,,,,,,,,,,,,,,,,,,,,,,,,349.234791417,349.24146125000004,349.24146125000004,350.58511720800004,b,1.0,1.338110709000034,,,,,,sub-227,1,stroop_test,,
,,,,85.0,1.0,7.0,,,,,,,,,,,,,gelb,red,r,0.0,r,1.0,1.1279895840000336,,,,,,,,,,7.0,1.0,85.0,8.0,350.595868083,,,,,,,,,,,,,,,,,350.58577037500004,350.683200542,351.480691333,351.46744883299993,,,,,,,,,,,,,,,,,,,,,,,,,,,,,,,,,,,351.473603,351.480691333,351.480691333,352.618318083,r,1.0,1.1279895840000336,,,,,,sub-227,1,stroop_test,,
,,,,86.0,2.0,7.0,,,,,,,,,,,,,blau,blue,b,1.0,b,1.0,0.6051448340000434,,,,,,,,,,7.0,2.0,86.0,5.0,352.628171083,,,,,,,,,,,,,,,,,352.618796292,352.966764833,353.762345708,353.750758917,,,,,,,,,,,,,,,,,,,,,,,,,,,,,,,,,,,353.755195042,353.762345708,353.762345708,354.379667208,b,1.0,0.6051448340000434,,,,,,sub-227,1,stroop_test,,
,,,,87.0,3.0,7.0,,,,,,,,,,,,,blau,red,r,0.0,r,1.0,1.4976994589999322,,,,,,,,,,7.0,3.0,87.0,4.0,354.385285208,,,,,,,,,,,,,,,,,354.38019162499995,354.47230725,355.273652375,355.26719845799994,,,,,,,,,,,,,,,,,,,,,,,,,,,,,,,,,,,355.26769549999995,355.273652375,355.273652375,356.774467167,r,1.0,1.4976994589999322,,,,,,sub-227,1,stroop_test,,
,,,,88.0,4.0,7.0,,,,,,,,,,,,,rot,red,r,1.0,r,1.0,0.6439614160000247,,,,,,,,,,7.0,4.0,88.0,0.0,356.785197542,,,,,,,,,,,,,,,,,356.77502341699994,357.1226375,357.933062042,357.90609637499995,,,,,,,,,,,,,,,,,,,,,,,,,,,,,,,,,,,357.90961237499994,357.933062042,357.933062042,358.585351208,r,1.0,0.6439614160000247,,,,,,sub-227,1,stroop_test,,
,,,,89.0,5.0,7.0,,,,,,,,,,,,,blau,yellow,g,0.0,g,1.0,0.826138750000041,,,,,,,,,,7.0,5.0,89.0,7.0,358.596055458,,,,,,,,,,,,,,,,,358.585971417,358.933320292,359.72912087500004,359.71732675,,,,,,,,,,,,,,,,,,,,,,,,,,,,,,,,,,,359.721866083,359.72912087500004,359.72912087500004,360.557645083,g,1.0,0.826138750000041,,,,,,sub-227,1,stroop_test,,
,,,,90.0,6.0,7.0,,,,,,,,,,,,,rot,yellow,g,0.0,g,1.0,1.2586638750000247,,,,,,,,,,7.0,6.0,90.0,3.0,360.568373792,,,,,,,,,,,,,,,,,360.55820975,360.6554825,361.449716292,361.439096083,,,,,,,,,,,,,,,,,,,,,,,,,,,,,,,,,,,361.44264691699993,361.449716292,361.449716292,362.718505958,g,1.0,1.2586638750000247,,,,,,sub-227,1,stroop_test,,
,,,,91.0,7.0,7.0,,,,,,,,,,,,,blau,blue,b,1.0,b,1.0,0.5722541249999722,,,,,,,,,,7.0,7.0,91.0,6.0,362.729394958,,,,,,,,,,,,,,,,,362.719157917,363.516647708,364.31209825,364.300717583,,,,,,,,,,,,,,,,,,,,,,,,,,,,,,,,,,,364.305062083,364.31209825,364.31209825,364.896201292,b,1.0,0.5722541249999722,,,,,,sub-227,1,stroop_test,,
,,,,92.0,8.0,7.0,,,,,,,,,,,,,gelb,yellow,g,1.0,g,1.0,1.1346612920000323,,,,,,,,,,7.0,8.0,92.0,11.0,364.901982208,,,,,,,,,,,,,,,,,364.896750542,365.239518042,366.034846292,366.022960458,,,,,,,,,,,,,,,,,,,,,,,,,,,,,,,,,,,366.026725667,366.034846292,366.034846292,367.175181333,g,1.0,1.1346612920000323,,,,,,sub-227,1,stroop_test,,
,,,,93.0,9.0,7.0,,,,,,,,,,,,,gelb,yellow,g,1.0,g,1.0,0.492837459000043,,,,,,,,,,7.0,9.0,93.0,10.0,367.185775708,,,,,,,,,,,,,,,,,367.1757645830001,367.97274841699993,368.765081333,368.756755083,,,,,,,,,,,,,,,,,,,,,,,,,,,,,,,,,,,368.757330833,368.765081333,368.765081333,369.268660667,g,1.0,0.492837459000043,,,,,,sub-227,1,stroop_test,,
,,,,94.0,10.0,7.0,,,,,,,,,,,,,rot,red,r,1.0,r,1.0,1.2627110839999889,,,,,,,,,,7.0,10.0,94.0,1.0,369.27957975,,,,,,,,,,,,,,,,,369.269417167,369.616594667,370.41422725,370.400937458,,,,,,,,,,,,,,,,,,,,,,,,,,,,,,,,,,,370.406936083,370.41422725,370.41422725,371.685414792,r,1.0,1.2627110839999889,,,,,,sub-227,1,stroop_test,,
,,,,95.0,11.0,7.0,,,,,,,,,,,,,gelb,blue,b,0.0,b,1.0,0.7641633749999528,,,,,,,,,,7.0,11.0,95.0,9.0,371.694858958,,,,,,,,,,,,,,,,,371.686034083,371.783308833,372.578681333,372.567323167,,,,,,,,,,,,,,,,,,,,,,,,,,,,,,,,,,,372.571745917,372.578681333,372.578681333,373.351929708,b,1.0,0.7641633749999528,,,,,,sub-227,1,stroop_test,,
,,,,96.0,0.0,8.0,,,,,,,,,,,,,gelb,red,r,0.0,r,1.0,0.9646512909999956,,,,,,,,,,8.0,0.0,96.0,8.0,373.361232708,,,,,,,,,,,,,,,,,373.35258175,374.550049042,375.341013208,375.333871542,,,,,,,,,,,,,,,,,,,,,,,,,,,,,,,,,,,375.334462667,375.341013208,375.341013208,376.30788775,r,1.0,0.9646512909999956,,,,,,sub-227,1,stroop_test,,
,,,,97.0,1.0,8.0,,,,,,,,,,,,,rot,yellow,g,0.0,g,1.0,0.8266786249999996,,,,,,,,,,8.0,1.0,97.0,3.0,376.31855475,,,,,,,,,,,,,,,,,376.308547167,376.406156583,377.216329417,377.189192125,,,,,,,,,,,,,,,,,,,,,,,,,,,,,,,,,,,377.192811833,377.216329417,377.216329417,378.051908417,g,1.0,0.8266786249999996,,,,,,sub-227,1,stroop_test,,
,,,,98.0,2.0,8.0,,,,,,,,,,,,,gelb,yellow,g,1.0,g,1.0,0.9336433330000772,,,,,,,,,,8.0,2.0,98.0,11.0,378.061888458,,,,,,,,,,,,,,,,,378.052544,378.149865083,378.945049375,378.933946042,,,,,,,,,,,,,,,,,,,,,,,,,,,,,,,,,,,378.93801275,378.945049375,378.945049375,379.885902417,g,1.0,0.9336433330000772,,,,,,sub-227,1,stroop_test,,
,,,,99.0,3.0,8.0,,,,,,,,,,,,,gelb,blue,b,0.0,b,1.0,1.0973480420000217,,,,,,,,,,8.0,3.0,99.0,9.0,379.895943875,,,,,,,,,,,,,,,,,379.886652833,381.083487375,381.875069792,381.8675315,,,,,,,,,,,,,,,,,,,,,,,,,,,,,,,,,,,381.8683025,381.875069792,381.875069792,382.974844917,b,1.0,1.0973480420000217,,,,,,sub-227,1,stroop_test,,
,,,,100.0,4.0,8.0,,,,,,,,,,,,,blau,yellow,g,0.0,g,1.0,0.883750415999998,,,,,,,,,,8.0,4.0,100.0,7.0,382.985356333,,,,,,,,,,,,,,,,,382.975481458,384.171530667,384.983016625,384.956490625,,,,,,,,,,,,,,,,,,,,,,,,,,,,,,,,,,,384.960125792,384.983016625,384.983016625,385.869337625,g,1.0,0.883750415999998,,,,,,sub-227,1,stroop_test,,
,,,,101.0,5.0,8.0,,,,,,,,,,,,,rot,red,r,1.0,r,1.0,0.6608962919999612,,,,,,,,,,8.0,5.0,101.0,0.0,385.879345208,,,,,,,,,,,,,,,,,385.870083208,386.666624958,387.462419083,387.4508217500001,,,,,,,,,,,,,,,,,,,,,,,,,,,,,,,,,,,387.455179792,387.462419083,387.462419083,388.135490917,r,1.0,0.6608962919999612,,,,,,sub-227,1,stroop_test,,
,,,,102.0,6.0,8.0,,,,,,,,,,,,,blau,red,r,0.0,r,1.0,0.8914309169999797,,,,,,,,,,8.0,6.0,102.0,4.0,388.143050917,,,,,,,,,,,,,,,,,388.13605825,388.933415458,389.730264583,389.717552458,,,,,,,,,,,,,,,,,,,,,,,,,,,,,,,,,,,389.723585125,389.730264583,389.730264583,390.624400875,r,1.0,0.8914309169999797,,,,,,sub-227,1,stroop_test,,
,,,,103.0,7.0,8.0,,,,,,,,,,,,,rot,red,r,1.0,r,1.0,0.6307099590000007,,,,,,,,,,8.0,7.0,103.0,1.0,390.649641125,,,,,,,,,,,,,,,,,390.62493825,391.422978958,392.228837583,392.217342125,,,,,,,,,,,,,,,,,,,,,,,,,,,,,,,,,,,392.221389708,392.228837583,392.228837583,392.868584167,r,1.0,0.6307099590000007,,,,,,sub-227,1,stroop_test,,
,,,,104.0,8.0,8.0,,,,,,,,,,,,,blau,blue,b,1.0,b,1.0,0.8548490839999658,,,,,,,,,,8.0,8.0,104.0,5.0,392.877882417,,,,,,,,,,,,,,,,,392.869197792,394.066691917,394.862284625,394.8507664170001,,,,,,,,,,,,,,,,,,,,,,,,,,,,,,,,,,,394.855147958,394.862284625,394.862284625,395.729158042,b,1.0,0.8548490839999658,,,,,,sub-227,1,stroop_test,,
,,,,105.0,9.0,8.0,,,,,,,,,,,,,blau,blue,b,1.0,b,1.0,0.527149541999961,,,,,,,,,,8.0,9.0,105.0,6.0,395.73486812499993,,,,,,,,,,,,,,,,,395.729594042,395.8223255,396.615126833,396.60647625,,,,,,,,,,,,,,,,,,,,,,,,,,,,,,,,,,,396.607059667,396.615126833,396.615126833,397.151997625,b,1.0,0.527149541999961,,,,,,sub-227,1,stroop_test,,
,,,,106.0,10.0,8.0,,,,,,,,,,,,,rot,blue,b,0.0,b,1.0,0.7490440000000262,,,,,,,,,,8.0,10.0,106.0,2.0,397.161729125,,,,,,,,,,,,,,,,,397.152643958,398.350031333,399.14514625,399.133898625,,,,,,,,,,,,,,,,,,,,,,,,,,,,,,,,,,,399.13797525,399.14514625,399.14514625,399.902132208,b,1.0,0.7490440000000262,,,,,,sub-227,1,stroop_test,,
,,,,107.0,11.0,8.0,,,,,,,,,,,,,gelb,yellow,g,1.0,g,1.0,0.6050923750000265,,,,,,,,,,8.0,11.0,107.0,10.0,399.911946125,,,,,,,,,,,,,,,,,399.90280975,401.0999965,401.895391208,401.88401975,,,,,,,,,,,,,,,,,,,,,,,,,,,,,,,,,,,401.888343,401.895391208,401.895391208,402.503417292,g,1.0,0.6050923750000265,,,,,,sub-227,1,stroop_test,,
,,,,108.0,0.0,9.0,,,,,,,,,,,,,gelb,yellow,g,1.0,g,1.0,0.4259624170000506,,,,,,,,,,9.0,0.0,108.0,11.0,402.513275833,,,,,,,,,,,,,,,,,402.504170708,403.300025,404.091297208,404.083845458,,,,,,,,,,,,,,,,,,,,,,,,,,,,,,,,,,,404.084514667,404.091297208,404.091297208,404.529780875,g,1.0,0.4259624170000506,,,,,,sub-227,1,stroop_test,,
,,,,109.0,1.0,9.0,,,,,,,,,,,,,rot,red,r,1.0,r,1.0,0.6742476249999072,,,,,,,,,,9.0,1.0,109.0,0.0,404.534891375,,,,,,,,,,,,,,,,,404.530252042,404.624413458,405.4290925,405.417273708,,,,,,,,,,,,,,,,,,,,,,,,,,,,,,,,,,,405.421754083,405.4290925,405.4290925,406.108089667,r,1.0,0.6742476249999072,,,,,,sub-227,1,stroop_test,,
,,,,110.0,2.0,9.0,,,,,,,,,,,,,rot,red,r,1.0,r,1.0,0.441625333999923,,,,,,,,,,9.0,2.0,110.0,1.0,406.118564458,,,,,,,,,,,,,,,,,406.1086435,406.205586208,406.998335875,406.989676,,,,,,,,,,,,,,,,,,,,,,,,,,,,,,,,,,,406.990254667,406.998335875,406.998335875,407.450283417,r,1.0,0.441625333999923,,,,,,sub-227,1,stroop_test,,
,,,,111.0,3.0,9.0,,,,,,,,,,,,,rot,yellow,g,0.0,g,1.0,1.2145449590000226,,,,,,,,,,9.0,3.0,111.0,3.0,407.45515875,,,,,,,,,,,,,,,,,407.45074475,407.538733042,408.331653917,408.32346975,,,,,,,,,,,,,,,,,,,,,,,,,,,,,,,,,,,408.324029917,408.331653917,408.331653917,409.551810708,g,1.0,1.2145449590000226,,,,,,sub-227,1,stroop_test,,
,,,,112.0,4.0,9.0,,,,,,,,,,,,,blau,yellow,g,0.0,g,1.0,1.0481273750000355,,,,,,,,,,9.0,4.0,112.0,7.0,409.561252,,,,,,,,,,,,,,,,,409.55239225,410.749921542,411.546930125,411.533991042,,,,,,,,,,,,,,,,,,,,,,,,,,,,,,,,,,,411.540048792,411.546930125,411.546930125,412.601545958,g,1.0,1.0481273750000355,,,,,,sub-227,1,stroop_test,,
,,,,113.0,5.0,9.0,,,,,,,,,,,,,gelb,blue,b,0.0,b,1.0,0.7771481659999608,,,,,,,,,,9.0,5.0,113.0,9.0,412.609322125,,,,,,,,,,,,,,,,,412.6020156670001,413.399842667,414.194740917,414.183912292,,,,,,,,,,,,,,,,,,,,,,,,,,,,,,,,,,,414.187759083,414.194740917,414.194740917,414.974504375,b,1.0,0.7771481659999608,,,,,,sub-227,1,stroop_test,,
,,,,114.0,6.0,9.0,,,,,,,,,,,,,rot,blue,b,0.0,b,1.0,0.6085090839999339,,,,,,,,,,9.0,6.0,114.0,2.0,414.984653667,,,,,,,,,,,,,,,,,414.975077375,416.172906125,416.968317833,416.95667608299993,,,,,,,,,,,,,,,,,,,,,,,,,,,,,,,,,,,416.960222625,416.968317833,416.968317833,417.585363625,b,1.0,0.6085090839999339,,,,,,sub-227,1,stroop_test,,
,,,,115.0,7.0,9.0,,,,,,,,,,,,,gelb,red,r,0.0,r,1.0,0.9148015419999638,,,,,,,,,,9.0,7.0,115.0,8.0,417.594916458,,,,,,,,,,,,,,,,,417.585982083,417.683342708,418.478696625,418.467420125,,,,,,,,,,,,,,,,,,,,,,,,,,,,,,,,,,,418.471776625,418.478696625,418.478696625,419.401890708,r,1.0,0.9148015419999638,,,,,,sub-227,1,stroop_test,,
,,,,116.0,8.0,9.0,,,,,,,,,,,,,blau,red,r,0.0,r,1.0,0.8724939169999288,,,,,,,,,,9.0,8.0,116.0,4.0,419.41153375,,,,,,,,,,,,,,,,,419.4025376670001,420.199827917,420.9952422500001,420.98411525,,,,,,,,,,,,,,,,,,,,,,,,,,,,,,,,,,,420.988345083,420.9952422500001,420.9952422500001,421.878491375,r,1.0,0.8724939169999288,,,,,,sub-227,1,stroop_test,,
,,,,117.0,9.0,9.0,,,,,,,,,,,,,gelb,yellow,g,1.0,g,1.0,0.6112945000000991,,,,,,,,,,9.0,9.0,117.0,10.0,421.884739958,,,,,,,,,,,,,,,,,421.878968417,421.972129417,422.768215583,422.756720833,,,,,,,,,,,,,,,,,,,,,,,,,,,,,,,,,,,422.760457542,422.768215583,422.768215583,423.385261167,g,1.0,0.6112945000000991,,,,,,sub-227,1,stroop_test,,
,,,,118.0,10.0,9.0,,,,,,,,,,,,,blau,blue,b,1.0,b,1.0,1.0395941669999047,,,,,,,,,,9.0,10.0,118.0,5.0,423.394569417,,,,,,,,,,,,,,,,,423.385873333,423.733287708,424.5281095,424.5172,,,,,,,,,,,,,,,,,,,,,,,,,,,,,,,,,,,424.521073792,424.5281095,424.5281095,425.578710167,b,1.0,1.0395941669999047,,,,,,sub-227,1,stroop_test,,
,,,,119.0,11.0,9.0,,,,,,,,,,,,,blau,blue,b,1.0,b,1.0,0.7557169579999936,,,,,,,,,,9.0,11.0,119.0,6.0,425.585036167,,,,,,,,,,,,,,,,,425.579250542,426.372600167,427.165063,427.156414292,,,,,,,,,,,,,,,,,,,,,,,,,,,,,,,,,,,427.15699275,427.165063,427.165063,427.924523917,b,1.0,0.7557169579999936,,,,,,sub-227,1,stroop_test,,
,,,,,,,,,,,,,,,,,,,,,,,,,,,,,,,,,,,,,,,,,,,,,,,,,,,,,,,,,,,,,,,,,,,,,,,,,,,,,,,,,,,,,,,,,,,,,,,,,,,,,,427.924743542,427.934970875,432.933176333,432.923309167,sub-227,1,stroop_test,,
