direction,corrAns,randomInstr,practice_trials.thisRepN,practice_trials.thisTrialN,practice_trials.thisN,practice_trials.thisIndex,instr_trials.thisRepN,instr_trials.thisTrialN,instr_trials.thisN,instr_trials.thisIndex,test_trials.thisRepN,test_trials.thisTrialN,test_trials.thisN,test_trials.thisIndex,thisRow.t,notes,general_instruction.started,textGeneralInstr.started,respGeneralInstr.started,general_instruction.stopped,respGeneralInstr.keys,respGeneralInstr.rt,respGeneralInstr.duration,ITI.started,fixcross.started,fixcross.stopped,ITI.stopped,dots.started,backgroundDots.started,stimulusDots.started,respDots.started,dots.stopped,respDots.keys,respDots.corr,respDots.rt,respDots.duration,feedback.started,textFeedback.started,feedback.stopped,textFeedback.stopped,info.started,textInfo.started,keyRespInfo.started,info.stopped,keyRespInfo.keys,keyRespInfo.rt,keyRespInfo.duration,test_instruction.started,textTestInstr.started,respTestInstr.started,test_instruction.stopped,respTestInstr.keys,respTestInstr.rt,respTestInstr.duration,random_instruction.started,textRandomInstr.started,respRandomInstr.started,random_instruction.stopped,respRandomInstr.keys,respRandomInstr.rt,respRandomInstr.duration,stimulusDots.stopped,goodbye.started,textGoodbye.started,goodbye.stopped,participant,session,expName,frameRate,Unnamed: 73
,,,,,,,,,,,,,,,,,0.0044068999122828,0.0091413999907672,0.0091413999907672,22.017341499915347,space,37.91953620011918,,,,,,,,,,,,,,,,,,,,,,,,,,,,,,,,,,,,,,,,,,,,sub-202,1.0,random_dot,59.90520597764109,
left,left,,0.0,0.0,0.0,0.0,,,,,,,,,22.03296500002034,,,,,,,,,22.02788900001906,22.132874300004914,22.949123499915004,22.93223139992915,22.9322524999734,22.949123499915004,22.949123499915004,22.949123499915004,24.349924500100315,right,0.0,17.307509999955073,,24.35110739991069,24.375450399937108,24.86418549995869,,,,,,,,,,,,,,,,,,,,,,,,,,,sub-202,1.0,random_dot,59.90520597764109,
right,right,,0.0,1.0,1.0,1.0,,,,,,,,,24.88043899997137,,,,,,,,,24.864638400031254,25.663357800105587,26.46375490003265,26.44735289993696,26.447392700007185,26.46375490003265,26.46375490003265,26.46375490003265,27.44764839997515,right,1.0,16.90564120002091,,27.448028200073168,27.46255880012177,27.94636719999835,27.96209569997154,,,,,,,,,,,,,,,,,,,,,,,,,,sub-202,1.0,random_dot,59.90520597764109,
right,right,,1.0,0.0,2.0,1.0,,,,,,,,,27.96209569997154,,,,,,,,,27.947083299979568,28.76138440007344,29.56197419995442,29.54511169996113,29.545132600003853,29.56197419995442,29.56197419995442,29.56197419995442,30.69581039994955,right,1.0,17.045016600051895,,30.69639319996349,30.71038520010188,31.19389760005288,31.20985629991628,,,,,,,,,,,,,,,,,,,,,,,,,,sub-202,1.0,random_dot,59.90520597764109,
left,left,,1.0,1.0,3.0,0.0,,,,,,,,,31.20985629991628,,,,,,,,,31.194304399890825,31.5598623000551,32.360316100064665,32.343666000058874,32.34370690002106,32.360316100064665,32.360316100064665,32.360316100064665,33.22714269999415,left,1.0,16.781000099843368,,33.22753309994005,33.24240539991297,33.72591660008766,33.74181149993092,,,,,,,,,,,,,,,,,,,,,,,,,,sub-202,1.0,random_dot,59.90520597764109,
left,left,,2.0,0.0,4.0,0.0,,,,,,,,,33.74181149993092,,,,,,,,,33.72633900004439,34.940959099913016,35.74161859997548,35.72467839997262,35.7246985998936,35.74161859997548,35.74161859997548,35.74161859997548,37.308393199928105,right,0.0,17.475959500065073,,37.30898259999231,37.3229012999218,37.80648280004971,37.82269879989326,,,,,,,,,,,,,,,,,,,,,,,,,,sub-202,1.0,random_dot,59.90520597764109,
right,right,,2.0,1.0,5.0,1.0,,,,,,,,,37.82269879989326,,,,,,,,,37.80677199992351,38.17253610002808,38.972844700096175,38.95586319989525,38.95588909997605,38.972844700096175,38.972844700096175,38.972844700096175,39.806455000070855,right,1.0,16.746378799900413,,39.80690989992581,39.82163030002266,40.305109600070864,40.32119609997608,,,,,,,,,,,,,,,,,,,,,,,,,,sub-202,1.0,random_dot,59.90520597764109,
left,left,,3.0,0.0,6.0,0.0,,,,,,,,,40.32119609997608,,,,,,,,,40.30569569999352,41.520286000100896,42.32074899994768,42.30408319993876,42.30411039991304,42.32074899994768,42.32074899994768,42.32074899994768,46.05252039991319,left,1.0,19.639435300137848,,46.05341359996237,46.06735099991784,46.55099099990912,46.56695290002972,,,,,,,,,,,,,,,,,,,,,,,,,,sub-202,1.0,random_dot,59.90520597764109,
right,right,,3.0,1.0,7.0,1.0,,,,,,,,,46.56695290002972,,,,,,,,,46.551370200002566,47.36665900005028,48.16748790000565,48.15114250010811,48.15119639993645,48.16748790000565,48.16748790000565,48.16748790000565,48.95092729991302,right,1.0,16.69875849992968,,48.95131790009327,48.96612080000341,49.44957290007733,49.46544490009546,,,,,,,,,,,,,,,,,,,,,,,,,,sub-202,1.0,random_dot,59.90520597764109,
left,left,,4.0,0.0,8.0,0.0,,,,,,,,,49.46544490009546,,,,,,,,,49.44994889991358,50.26493569999002,51.06539379991591,51.04832009994425,51.04834239999764,51.06539379991591,51.06539379991591,51.06539379991591,52.21610830002464,left,1.0,17.07143300003372,,52.216752799926326,52.23052529990673,52.714322899933904,52.730369800003245,,,,,,,,,,,,,,,,,,,,,,,,,,sub-202,1.0,random_dot,59.90520597764109,
right,right,,4.0,1.0,9.0,1.0,,,,,,,,,52.730369800003245,,,,,,,,,52.71460990002379,52.83015389996581,53.63081189990044,53.614054000005126,53.61406820011325,53.63081189990044,53.63081189990044,53.63081189990044,54.83128589997068,right,1.0,17.108359799953178,,54.83206030004658,54.84573330008425,55.3291356000118,55.34522409993224,,,,,,,,,,,,,,,,,,,,,,,,,,sub-202,1.0,random_dot,59.90520597764109,
left,left,,5.0,0.0,10.0,0.0,,,,,,,,,55.34522409993224,,,,,,,,,55.32958590006456,56.54448199993931,57.34482220001519,57.32786770001985,57.32788760005496,57.34482220001519,57.34482220001519,57.34482220001519,58.49517300003208,left,1.0,17.0661427997984,,58.495656500104815,58.50993430009112,58.993674899917096,59.00974170002155,,,,,,,,,,,,,,,,,,,,,,,,,,sub-202,1.0,random_dot,59.90520597764109,
right,right,,5.0,1.0,11.0,1.0,,,,,,,,,59.00974170002155,,,,,,,,,58.99406759999693,60.2089100999292,61.00938679999672,60.99286099988967,60.99290190008469,61.00938679999672,61.00938679999672,61.00938679999672,61.64385230001062,right,1.0,16.551267399918288,,61.644667299930006,61.65795630007051,62.14213420008309,62.157933899899945,,,,,,,,,,,,,,,,,,,,,,,,,,sub-202,1.0,random_dot,59.90520597764109,
left,left,,6.0,0.0,12.0,0.0,,,,,,,,,62.157933899899945,,,,,,,,,62.1427762999665,63.35700480011292,64.15761439991184,64.14032860007137,64.14034910011105,64.15761439991184,64.15761439991184,64.15761439991184,64.82484719995409,left,1.0,16.574472500011325,,64.82550629996695,64.83943199994974,65.32306639989838,65.33899340010248,,,,,,,,,,,,,,,,,,,,,,,,,,sub-202,1.0,random_dot,59.90520597764109,
right,right,,6.0,1.0,13.0,1.0,,,,,,,,,65.33899340010248,,,,,,,,,65.32354320003651,66.53845739993267,67.33873709989712,67.32197989989072,67.32200779998675,67.33873709989712,67.33873709989712,67.33873709989712,67.92282989993691,right,1.0,16.50107829994522,,67.9235098999925,67.9375237999484,68.42113630007952,68.43734650011174,,,,,,,,,,,,,,,,,,,,,,,,,,sub-202,1.0,random_dot,59.90520597764109,
left,left,,7.0,0.0,14.0,0.0,,,,,,,,,68.43734650011174,,,,,,,,,68.4216040999163,69.63638380006887,70.43682059994899,70.42015239992179,70.42017830000259,70.43682059994899,70.43682059994899,70.43682059994899,72.03710120008327,left,1.0,17.5084972998593,,72.03783209994435,72.05182910012081,72.53550220001489,72.55132009997033,,,,,,,,,,,,,,,,,,,,,,,,,,sub-202,1.0,random_dot,59.90520597764109,
right,right,,7.0,1.0,15.0,1.0,,,,,,,,,72.55132009997033,,,,,,,,,72.5360226999037,73.75063050002791,74.55101380008273,74.53423890005797,74.53426779992878,74.55101380008273,74.55101380008273,74.55101380008273,75.40189910004847,right,1.0,16.758568099932745,,75.40268509997986,75.4162508000154,75.8998569000978,75.91608599992469,,,,,,,,,,,,,,,,,,,,,,,,,,sub-202,1.0,random_dot,59.90520597764109,
left,left,,8.0,0.0,16.0,0.0,,,,,,,,,75.91608599992469,,,,,,,,,75.90013769990765,76.2659078000579,77.06644010008313,77.04975709994324,77.04980099992827,77.06644010008313,77.06644010008313,77.06644010008313,78.06658930005506,left,1.0,16.921899300068617,,78.06700809998438,78.08148980000988,78.56540729990229,78.58118640002795,,,,,,,,,,,,,,,,,,,,,,,,,,sub-202,1.0,random_dot,59.90520597764109,
right,right,,8.0,1.0,17.0,1.0,,,,,,,,,78.58118640002795,,,,,,,,,78.56604980002157,78.93057480012067,79.73134779999964,79.71484900009818,79.71488999994472,79.73134779999964,79.73134779999964,79.73134779999964,80.49879970005713,right,1.0,16.68159669986926,,80.499485099921,80.51335059991106,80.99680329998955,81.01308110007085,,,,,,,,,,,,,,,,,,,,,,,,,,sub-202,1.0,random_dot,59.90520597764109,
left,left,,9.0,0.0,18.0,0.0,,,,,,,,,81.01308110007085,,,,,,,,,80.99730430007912,82.21223650011234,83.01273289998062,82.9957508998923,82.99577670008875,83.01273289998062,83.01273289998062,83.01273289998062,83.62973459996283,right,0.0,16.531204900005832,,83.6302559999749,83.64470830000937,84.12827760004438,84.14418810000643,,,,,,,,,,,,,,,,,,,,,,,,,,sub-202,1.0,random_dot,59.90520597764109,
right,right,,9.0,1.0,19.0,1.0,,,,,,,,,84.14418810000643,,,,,,,,,84.12868650001474,85.34379830001853,86.14421830000356,86.12727280007675,86.1273076001089,86.14421830000356,86.14421830000356,86.14421830000356,86.8286510000471,right,1.0,16.5989174998831,,86.82961979997344,86.84264670009725,87.32639709999785,87.34265589993447,,,,,,,,,,,,,,,,,,,,,,,,,,sub-202,1.0,random_dot,59.90520597764109,
,,,,,,,,,,,,,,,,,,,,,,,,,,,,,,,,,,,,,,,,,87.32647700002417,87.34265589993447,87.34265589993447,90.69161450001413,space,19.26052669994533,,,,,,,,,,,,,,,,,,,,sub-202,1.0,random_dot,59.90520597764109,
,,,,,,,,,,,,,,,,,,,,,,,,,,,,,,,,,,,,,,,,,,,,,,,,90.69166120002046,90.7074223998934,90.7074223998934,100.51854610000736,space,25.729483700124547,,,,,,,,,,,,,sub-202,1.0,random_dot,59.90520597764109,
left,left,accuracy,,,,,0.0,0.0,0.0,0.0,0.0,0.0,0.0,0.0,104.16530249989592,,,,,,,,,104.15821280004457,105.3647964000702,106.16499150008896,106.14805700001308,106.14808399998584,106.16499150008896,106.16499150008896,106.16499150008896,107.63177999993786,left,1.0,17.38192620011978,,,,,,,,,,,,,,,,,,,,100.5217103001196,100.54436719999649,100.54436719999649,104.1499934999738,space,19.524463700130585,,,,,,sub-202,1.0,random_dot,59.90520597764109,
right,right,accuracy,,,,,0.0,0.0,0.0,0.0,0.0,1.0,1.0,1.0,107.64661850011908,,,,,,,,,107.63297999999486,108.44606989994644,109.24653179990128,109.22954649990425,109.22957319999114,109.24653179990128,109.24653179990128,109.24653179990128,110.2804388999939,right,1.0,16.952696399996057,,,,,,,,,,,,,,,,,,,,,,,,,,,,,,,sub-202,1.0,random_dot,59.90520597764109,
left,left,accuracy,,,,,0.0,0.0,0.0,0.0,1.0,0.0,2.0,0.0,110.29515490005724,,,,,,,,,110.28132429998368,111.09442290011792,111.89482069993392,111.8778397999704,111.87785940011965,111.89482069993392,111.89482069993392,111.89482069993392,113.74471489991991,left,1.0,17.769211100181565,,,,,,,,,,,,,,,,,,,,,,,,,,,,,,,sub-202,1.0,random_dot,59.90520597764109,
right,right,accuracy,,,,,0.0,0.0,0.0,0.0,1.0,1.0,3.0,1.0,113.75961200008167,,,,,,,,,113.7458480000496,114.55895680002868,115.35926620010288,115.34219080000184,115.3422060001176,115.35926620010288,115.35926620010288,115.35926620010288,119.59169130004013,right,1.0,20.14223250001669,,,,,,,,,,,,,,,,,,,,,,,,,,,,,,,sub-202,1.0,random_dot,59.90520597764109,
right,right,accuracy,,,,,0.0,0.0,0.0,0.0,2.0,0.0,4.0,1.0,119.60604760004207,,,,,,,,,119.59313739999196,120.80511209997348,121.60578670003451,121.58878060011192,121.58880489994772,121.60578670003451,121.60578670003451,121.60578670003451,122.57371510006487,right,1.0,16.888839799910784,,,,,,,,,,,,,,,,,,,,,,,,,,,,,,,sub-202,1.0,random_dot,59.90520597764109,
left,left,accuracy,,,,,0.0,0.0,0.0,0.0,2.0,1.0,5.0,0.0,122.58743209997192,,,,,,,,,122.57562320004216,123.38716810010374,124.18736499990337,124.17100890004076,124.171050200006,124.18736499990337,124.18736499990337,124.18736499990337,125.23807689989916,left,1.0,16.956784300040454,,,,,,,,,,,,,,,,,,,,,,,,,,,,,,,sub-202,1.0,random_dot,59.90520597764109,
right,right,accuracy,,,,,0.0,0.0,0.0,0.0,3.0,0.0,6.0,1.0,125.25264890003018,,,,,,,,,125.23974990006536,126.0520921999123,126.85234039998612,126.83555050008,126.8355771000497,126.85234039998612,126.85234039998612,126.85234039998612,127.83641440002248,right,1.0,16.897769400151446,,,,,,,,,,,,,,,,,,,,,,,,,,,,,,,sub-202,1.0,random_dot,59.90520597764109,
left,left,accuracy,,,,,0.0,0.0,0.0,0.0,3.0,1.0,7.0,0.0,127.85100800008512,,,,,,,,,127.83784710010514,127.95100170001388,128.75118170003407,128.73443700000644,128.7344643000979,128.75118170003407,128.75118170003407,128.75118170003407,135.7143147001043,right,0.0,22.877112000016496,,,,,,,,,,,,,,,,,,,,,,,,,,,133.74807469989173,,,,sub-202,1.0,random_dot,59.90520597764109,
left,left,accuracy,,,,,0.0,0.0,0.0,0.0,4.0,0.0,8.0,0.0,135.7290817999747,,,,,,,,,135.71515669999644,136.9289120999165,137.72911550011486,137.71212229994126,137.71214359998703,137.72911550011486,137.72911550011486,137.72911550011486,139.66225240007043,left,1.0,17.844976500142366,,,,,,,,,,,,,,,,,,,,,,,,,,,,,,,sub-202,1.0,random_dot,59.90520597764109,
right,right,accuracy,,,,,0.0,0.0,0.0,0.0,4.0,1.0,9.0,1.0,139.67698629992083,,,,,,,,,139.6633725001011,140.476524699945,141.27704109996557,141.25999350007623,141.26001799991354,141.27704109996557,141.27704109996557,141.27704109996557,142.64402020000853,right,1.0,17.28741170000285,,,,,,,,,,,,,,,,,,,,,,,,,,,,,,,sub-202,1.0,random_dot,59.90520597764109,
left,left,accuracy,,,,,0.0,0.0,0.0,0.0,5.0,0.0,10.0,0.0,142.65848780004308,,,,,,,,,142.64535310002975,143.8577839999925,144.65831690002233,144.64136540004984,144.6413865000941,144.65831690002233,144.65831690002233,144.65831690002233,145.82520429999568,left,1.0,17.084866599878296,,,,,,,,,,,,,,,,,,,,,,,,,,,,,,,sub-202,1.0,random_dot,59.90520597764109,
right,right,accuracy,,,,,0.0,0.0,0.0,0.0,5.0,1.0,11.0,1.0,145.84006690001115,,,,,,,,,145.8263310000766,146.18985740002245,146.9901548998896,146.9731944000814,146.97321780002676,146.9901548998896,146.9901548998896,146.9901548998896,148.57378420000896,right,1.0,17.490057999966666,,,,,,,,,,,,,,,,,,,,,,,,,,,,,,,sub-202,1.0,random_dot,59.90520597764109,
right,right,accuracy,,,,,0.0,0.0,0.0,0.0,6.0,0.0,12.0,1.0,148.5883394998964,,,,,,,,,148.57506459997967,148.93796260003,149.73857649997808,149.72139149997383,149.7214154000394,149.73857649997808,149.73857649997808,149.73857649997808,150.971842299914,right,1.0,17.149386199889705,,,,,,,,,,,,,,,,,,,,,,,,,,,,,,,sub-202,1.0,random_dot,59.90520597764109,
left,left,accuracy,,,,,0.0,0.0,0.0,0.0,6.0,1.0,13.0,0.0,150.98689249996096,,,,,,,,,150.97257280000483,151.08673699991778,151.8870520000346,151.87031399994157,151.87033779988997,151.8870520000346,151.8870520000346,151.8870520000346,153.63712120009586,left,1.0,17.658762499922886,,,,,,,,,,,,,,,,,,,,,,,,,,,,,,,sub-202,1.0,random_dot,59.90520597764109,
left,left,accuracy,,,,,0.0,0.0,0.0,0.0,7.0,0.0,14.0,0.0,153.65196179994382,,,,,,,,,153.6384093998931,154.00174469989724,154.80199100007303,154.78521739994176,154.78524100012146,154.80199100007303,154.80199100007303,154.80199100007303,157.4344860999845,right,0.0,18.539470499847084,,,,,,,,,,,,,,,,,,,,,,,,,,,,,,,sub-202,1.0,random_dot,59.90520597764109,
right,right,accuracy,,,,,0.0,0.0,0.0,0.0,7.0,1.0,15.0,1.0,157.44936460000463,,,,,,,,,157.43535110005178,157.54936689999886,158.34985679993406,158.33300730003975,158.33303470001556,158.34985679993406,158.34985679993406,158.34985679993406,160.73279529996216,right,1.0,18.3013154999353,,,,,,,,,,,,,,,,,,,,,,,,,,,,,,,sub-202,1.0,random_dot,59.90520597764109,
left,left,accuracy,,,,,0.0,0.0,0.0,0.0,8.0,0.0,16.0,0.0,160.747390500037,,,,,,,,,160.73412319994532,160.84734490001574,161.64778929995373,161.63131510000676,161.63134999992326,161.64778929995373,161.64778929995373,161.64778929995373,163.03163539990783,left,1.0,17.295183700043708,,,,,,,,,,,,,,,,,,,,,,,,,,,,,,,sub-202,1.0,random_dot,59.90520597764109,
right,right,accuracy,,,,,0.0,0.0,0.0,0.0,8.0,1.0,17.0,1.0,163.04611909994856,,,,,,,,,163.03288890002295,163.3960609000642,164.1962538000662,164.17974140006118,164.17977580009028,164.1962538000662,164.1962538000662,164.1962538000662,165.91293490002863,right,1.0,17.63774019991979,,,,,,,,,,,,,,,,,,,,,,,,,,,,,,,sub-202,1.0,random_dot,59.90520597764109,
left,left,accuracy,,,,,0.0,0.0,0.0,0.0,9.0,0.0,18.0,0.0,165.9276040000841,,,,,,,,,165.91426580003463,166.02750610001385,166.8281403000001,166.81063800002448,166.81065339990892,166.8281403000001,166.8281403000001,166.8281403000001,168.04550489992835,left,1.0,17.135495299939066,,,,,,,,,,,,,,,,,,,,,,,,,,,,,,,sub-202,1.0,random_dot,59.90520597764109,
right,right,accuracy,,,,,0.0,0.0,0.0,0.0,9.0,1.0,19.0,1.0,168.0597922001034,,,,,,,,,168.04742059996352,168.8591221999377,169.65980969998054,169.64269490004517,169.6427194001153,169.65980969998054,169.65980969998054,169.65980969998054,171.11019630008377,right,1.0,17.36142489989288,,,,,,,,,,,,,,,,,,,,,,,,,,,,,,,sub-202,1.0,random_dot,59.90520597764109,
left,left,accuracy,,,,,0.0,0.0,0.0,0.0,10.0,0.0,20.0,0.0,171.12482320005074,,,,,,,,,171.11183480010368,171.22426829999313,172.02504629991017,172.00814900011756,172.00818410003558,172.02504629991017,172.02504629991017,172.02504629991017,173.57530710007995,left,1.0,17.46519310004078,,,,,,,,,,,,,,,,,,,,,,,,,,,,,,,sub-202,1.0,random_dot,59.90520597764109,
right,right,accuracy,,,,,0.0,0.0,0.0,0.0,10.0,1.0,21.0,1.0,173.58949219994247,,,,,,,,,173.5769760000985,174.3890523998998,175.18958489992656,175.1732834998984,175.1733275000006,175.18958489992656,175.18958489992656,175.18958489992656,176.93939869990572,right,1.0,17.663835999788716,,,,,,,,,,,,,,,,,,,,,,,,,,,,,,,sub-202,1.0,random_dot,59.90520597764109,
right,right,accuracy,,,,,0.0,0.0,0.0,0.0,11.0,0.0,22.0,1.0,176.9544730999041,,,,,,,,,176.94018310005777,177.75393219990656,178.55435899994336,178.53726970008574,178.53729350003414,178.55435899994336,178.55435899994336,178.55435899994336,181.70374169992283,left,0.0,19.067860400071368,,,,,,,,,,,,,,,,,,,,,,,,,,,,,,,sub-202,1.0,random_dot,59.90520597764109,
left,left,accuracy,,,,,0.0,0.0,0.0,0.0,11.0,1.0,23.0,0.0,181.71808680007237,,,,,,,,,181.7051510000601,181.81787159992385,182.6182574001141,182.60127199999988,182.601289199898,182.6182574001141,182.6182574001141,182.6182574001141,184.43420629994944,left,1.0,17.729259999934584,,,,,,,,,,,,,,,,,,,,,,,,,,,,,,,sub-202,1.0,random_dot,59.90520597764109,
left,left,accuracy,,,,,0.0,0.0,0.0,0.0,12.0,0.0,24.0,0.0,184.4492842000909,,,,,,,,,184.43501499993727,185.6489464000333,186.4493541000411,186.4323422999587,186.43236640002576,186.4493541000411,186.4493541000411,186.4493541000411,187.93362060002983,left,1.0,17.39146599988453,,,,,,,,,,,,,,,,,,,,,,,,,,,,,,,sub-202,1.0,random_dot,59.90520597764109,
right,right,accuracy,,,,,0.0,0.0,0.0,0.0,12.0,1.0,25.0,1.0,187.94747169991024,,,,,,,,,187.93551380001009,188.7471610000357,189.54738139989783,189.5306842001155,189.530710299965,189.54738139989783,189.54738139989783,189.54738139989783,190.8646780001,right,1.0,17.237824499839917,,,,,,,,,,,,,,,,,,,,,,,,,,,,,,,sub-202,1.0,random_dot,59.90520597764109,
left,left,accuracy,,,,,0.0,0.0,0.0,0.0,13.0,0.0,26.0,0.0,190.8790937999729,,,,,,,,,190.86609299993145,192.07843949995004,192.87865879992023,192.86206820001823,192.8620941999834,192.87865879992023,192.87865879992023,192.87865879992023,194.96202090010047,left,1.0,17.996927399886772,,,,,,,,,,,,,,,,,,,,,,,,,,,,,,,sub-202,1.0,random_dot,59.90520597764109,
right,right,accuracy,,,,,0.0,0.0,0.0,0.0,13.0,1.0,27.0,1.0,194.9766355000902,,,,,,,,,194.96342559996992,195.07658000011,195.8770455000922,195.8599487999454,195.8599747000262,195.8770455000922,195.8770455000922,195.8770455000922,197.54399170004763,right,1.0,17.588222600053996,,,,,,,,,,,,,,,,,,,,,,,,,,,,,,,sub-202,1.0,random_dot,59.90520597764109,
left,left,accuracy,,,,,0.0,0.0,0.0,0.0,14.0,0.0,28.0,0.0,197.55841229995715,,,,,,,,,197.5454029999673,198.7575111000333,199.5579309000168,199.54112680000253,199.5411569001153,199.5579309000168,199.5579309000168,199.5579309000168,201.3748323000036,left,1.0,17.736395000014454,,,,,,,,,,,,,,,,,,,,,,,,,,,,,,,sub-202,1.0,random_dot,59.90520597764109,
right,right,accuracy,,,,,0.0,0.0,0.0,0.0,14.0,1.0,29.0,1.0,201.3894561000634,,,,,,,,,201.3762399000116,202.1889410999138,202.98939369991425,202.97230569995008,202.97233140002936,202.98939369991425,202.98939369991425,202.98939369991425,204.67263950011693,right,1.0,17.59513089992106,,,,,,,,,,,,,,,,,,,,,,,,,,,,,,,sub-202,1.0,random_dot,59.90520597764109,
right,right,accuracy,,,,,0.0,0.0,0.0,0.0,15.0,0.0,30.0,1.0,204.68765250011347,,,,,,,,,204.6733476999216,205.8867313999217,206.6869751000777,206.66995069989932,206.6699783001095,206.6869751000777,206.6869751000777,206.6869751000777,213.13407979998735,right,1.0,22.36753369984217,,,,,,,,,,,,,,,,,,,,,,,,,,,211.6838414000813,,,,sub-202,1.0,random_dot,59.90520597764109,
left,left,accuracy,,,,,0.0,0.0,0.0,0.0,15.0,1.0,31.0,0.0,213.14862370002083,,,,,,,,,213.1353647001088,213.4986940000672,214.29905849997888,214.28222299995832,214.2822553999722,214.29905849997888,214.29905849997888,214.29905849997888,215.4998055000324,left,1.0,17.117857600096613,,,,,,,,,,,,,,,,,,,,,,,,,,,,,,,sub-202,1.0,random_dot,59.90520597764109,
left,left,accuracy,,,,,0.0,0.0,0.0,0.0,16.0,0.0,32.0,0.0,215.5139474000316,,,,,,,,,215.5015928000212,216.71339110005647,217.51363370008767,217.4972437999677,217.4972878000699,217.51363370008767,217.51363370008767,217.51363370008767,219.14740110002455,left,1.0,17.553474300075322,,,,,,,,,,,,,,,,,,,,,,,,,,,,,,,sub-202,1.0,random_dot,59.90520597764109,
right,right,accuracy,,,,,0.0,0.0,0.0,0.0,16.0,1.0,33.0,1.0,219.16174899996255,,,,,,,,,219.14881830010563,219.51128340000287,220.3120893999003,220.29519239999357,220.29522469989024,220.3120893999003,220.3120893999003,220.3120893999003,222.1619500000961,right,1.0,17.762284999946132,,,,,,,,,,,,,,,,,,,,,,,,,,,,,,,sub-202,1.0,random_dot,59.90520597764109,
right,right,accuracy,,,,,0.0,0.0,0.0,0.0,17.0,0.0,34.0,1.0,222.1764358000364,,,,,,,,,222.16288540000096,222.5263368000742,223.3267433999572,223.3099944998976,223.3100179999601,223.3267433999572,223.3267433999572,223.3267433999572,225.57651740009896,right,1.0,18.15655640000477,,,,,,,,,,,,,,,,,,,,,,,,,,,,,,,sub-202,1.0,random_dot,59.90520597764109,
left,left,accuracy,,,,,0.0,0.0,0.0,0.0,17.0,1.0,35.0,0.0,225.59139610012065,,,,,,,,,225.57743509998545,225.9409258000087,226.74151750002056,226.72440099995583,226.72442679991943,226.74151750002056,226.74151750002056,226.74151750002056,227.6916873001028,left,1.0,16.861365199787542,,,,,,,,,,,,,,,,,,,,,,,,,,,,,,,sub-202,1.0,random_dot,59.90520597764109,
left,left,accuracy,,,,,0.0,0.0,0.0,0.0,18.0,0.0,36.0,0.0,227.7063887999393,,,,,,,,,227.6927374000661,228.9058882999234,229.70612289989367,229.6893772999756,229.68940440006557,229.70612289989367,229.70612289989367,229.70612289989367,231.92277369997464,left,1.0,18.13783319992945,,,,,,,,,,,,,,,,,,,,,,,,,,,,,,,sub-202,1.0,random_dot,59.90520597764109,
right,right,accuracy,,,,,0.0,0.0,0.0,0.0,18.0,1.0,37.0,1.0,231.93718430004083,,,,,,,,,231.9240488000214,233.13651009998284,233.93697910010812,233.92029360006563,233.92032589996236,233.93697910010812,233.93697910010812,233.93697910010812,235.0549951000139,right,1.0,17.039053400047123,,,,,,,,,,,,,,,,,,,,,,,,,,,,,,,sub-202,1.0,random_dot,59.90520597764109,
right,right,accuracy,,,,,0.0,0.0,0.0,0.0,19.0,0.0,38.0,1.0,235.068667100044,,,,,,,,,235.0569806999993,235.8684004000388,236.6686233000364,236.6519599999301,236.65199510008097,236.6686233000364,236.6686233000364,236.6686233000364,237.9194863999728,right,1.0,17.16830819984898,,,,,,,,,,,,,,,,,,,,,,,,,,,,,,,sub-202,1.0,random_dot,59.90520597764109,
left,left,accuracy,,,,,0.0,0.0,0.0,0.0,19.0,1.0,39.0,0.0,237.93358760001135,,,,,,,,,237.9214039000217,238.0336569999345,238.8338784000371,238.81695659994148,238.81698030000555,238.8338784000371,238.8338784000371,238.8338784000371,240.6172913000919,left,1.0,17.694203599821776,,,,,,,,,,,,,,,,,,,,,,,,,,,,,,,sub-202,1.0,random_dot,59.90520597764109,
right,right,accuracy,,,,,0.0,0.0,0.0,0.0,20.0,0.0,40.0,1.0,240.6318644999992,,,,,,,,,240.61856939992867,240.98166369996036,241.782262200024,241.76538189989515,241.7654045999516,241.782262200024,241.782262200024,241.782262200024,243.1659077999648,right,1.0,17.302506599808112,,,,,,,,,,,,,,,,,,,,,,,,,,,,,,,sub-202,1.0,random_dot,59.90520597764109,
left,left,accuracy,,,,,0.0,0.0,0.0,0.0,20.0,1.0,41.0,0.0,243.18033970007676,,,,,,,,,243.16717509995212,243.28048170008697,244.0806603000965,244.06374799995683,244.06376900011676,244.0806603000965,244.0806603000965,244.0806603000965,245.73074549995363,left,1.0,17.56354340002872,,,,,,,,,,,,,,,,,,,,,,,,,,,,,,,sub-202,1.0,random_dot,59.90520597764109,
right,right,accuracy,,,,,0.0,0.0,0.0,0.0,21.0,0.0,42.0,1.0,245.74516530008987,,,,,,,,,245.73158399993557,246.54499220009893,247.3456290999893,247.32891010004096,247.3289421999361,247.3456290999893,247.3456290999893,247.3456290999893,249.145929899998,right,1.0,17.714495700085536,,,,,,,,,,,,,,,,,,,,,,,,,,,,,,,sub-202,1.0,random_dot,59.90520597764109,
left,left,accuracy,,,,,0.0,0.0,0.0,0.0,21.0,1.0,43.0,0.0,249.16000519995575,,,,,,,,,249.1476523000747,250.3593947000336,251.1598018000368,251.14323340007104,251.14326880010776,251.1598018000368,251.1598018000368,251.1598018000368,252.2603511998896,left,1.0,17.007783999899402,,,,,,,,,,,,,,,,,,,,,,,,,,,,,,,sub-202,1.0,random_dot,59.90520597764109,
right,right,accuracy,,,,,0.0,0.0,0.0,0.0,22.0,0.0,44.0,1.0,252.27510949992572,,,,,,,,,252.2618307999801,253.07450550002977,253.8750132001005,253.8581721000373,253.8582045000512,253.8750132001005,253.8750132001005,253.8750132001005,255.65865939995277,right,1.0,17.70280579989776,,,,,,,,,,,,,,,,,,,,,,,,,,,,,,,sub-202,1.0,random_dot,59.90520597764109,
left,left,accuracy,,,,,0.0,0.0,0.0,0.0,22.0,1.0,45.0,0.0,255.67271979991347,,,,,,,,,255.6604518000968,256.4723424001131,257.2726483999286,257.2557397999335,257.2557634001132,257.2726483999286,257.2726483999286,257.2726483999286,258.6898330000695,left,1.0,17.324007800081745,,,,,,,,,,,,,,,,,,,,,,,,,,,,,,,sub-202,1.0,random_dot,59.90520597764109,
right,right,accuracy,,,,,0.0,0.0,0.0,0.0,23.0,0.0,46.0,1.0,258.704205899965,,,,,,,,,258.69147829990834,259.50377160008065,260.3041930999607,260.2873237999156,260.2873378000222,260.3041930999607,260.3041930999607,260.3041930999607,261.70457369997166,right,1.0,17.31673640012741,,,,,,,,,,,,,,,,,,,,,,,,,,,,,,,sub-202,1.0,random_dot,59.90520597764109,
left,left,accuracy,,,,,0.0,0.0,0.0,0.0,23.0,1.0,47.0,0.0,261.7189581000712,,,,,,,,,261.7059667999856,261.81914500007406,262.6193860000931,262.6027498000767,262.60277549992315,262.6193860000931,262.6193860000931,262.6193860000931,264.1702990999911,left,1.0,17.46919439989142,,,,,,,,,,,,,,,,,,,,,,,,,,,,,,,sub-202,1.0,random_dot,59.90520597764109,
right,right,accuracy,,,,,0.0,0.0,0.0,0.0,24.0,0.0,48.0,1.0,264.1841331999749,,,,,,,,,264.1719523000065,264.983881900087,265.78429970005527,265.7678300999105,265.7678765999153,265.78429970005527,265.78429970005527,265.78429970005527,267.3178123999387,left,0.0,17.44085679994896,,,,,,,,,,,,,,,,,,,,,,,,,,,,,,,sub-202,1.0,random_dot,59.90520597764109,
left,left,accuracy,,,,,0.0,0.0,0.0,0.0,24.0,1.0,49.0,0.0,267.3323296001181,,,,,,,,,267.3192557001021,267.43236159998924,268.2325983000919,268.21592100011185,268.21594580006786,268.2325983000919,268.2325983000919,268.2325983000919,269.7165337000042,left,1.0,17.3906060999725,,,,,,,,,,,,,,,,,,,,,,,,,,,,,,,sub-202,1.0,random_dot,59.90520597764109,
left,left,accuracy,,,,,0.0,0.0,0.0,0.0,25.0,0.0,50.0,0.0,269.7307875999249,,,,,,,,,269.71817140001804,270.5303052000236,271.330781100085,271.31411739997566,271.31415160000324,271.330781100085,271.330781100085,271.330781100085,273.0306847000029,left,1.0,17.6066880999133,,,,,,,,,,,,,,,,,,,,,,,,,,,,,,,sub-202,1.0,random_dot,59.90520597764109,
right,right,accuracy,,,,,0.0,0.0,0.0,0.0,25.0,1.0,51.0,1.0,273.0456121000461,,,,,,,,,273.03178209997714,273.3951860999223,274.1957489999477,274.1788647999056,274.1788854000624,274.1957489999477,274.1957489999477,274.1957489999477,275.2626640999224,right,1.0,16.979792999802157,,,,,,,,,,,,,,,,,,,,,,,,,,,,,,,sub-202,1.0,random_dot,59.90520597764109,
right,right,accuracy,,,,,0.0,0.0,0.0,0.0,26.0,0.0,52.0,1.0,275.27731769997627,,,,,,,,,275.26372239994816,276.4766846001148,277.2770382000599,277.2603849999141,277.26041210000403,277.2770382000599,277.2770382000599,277.2770382000599,278.8109401999973,right,1.0,17.452675699954852,,,,,,,,,,,,,,,,,,,,,,,,,,,,,,,sub-202,1.0,random_dot,59.90520597764109,
left,left,accuracy,,,,,0.0,0.0,0.0,0.0,26.0,1.0,53.0,0.0,278.8252222998999,,,,,,,,,278.8124540001154,279.6247747000307,280.425319599919,280.4086655001156,280.4087066000793,280.425319599919,280.425319599919,280.425319599919,281.725919800112,left,1.0,17.217116399900988,,,,,,,,,,,,,,,,,,,,,,,,,,,,,,,sub-202,1.0,random_dot,59.90520597764109,
right,right,accuracy,,,,,0.0,0.0,0.0,0.0,27.0,0.0,54.0,1.0,281.74022569996305,,,,,,,,,281.72758119995706,281.8401214000769,282.6406320000533,282.62358150002547,282.6236113999039,282.6406320000533,282.6406320000533,282.6406320000533,283.99081590003334,right,1.0,17.26153660006821,,,,,,,,,,,,,,,,,,,,,,,,,,,,,,,sub-202,1.0,random_dot,59.90520597764109,
left,left,accuracy,,,,,0.0,0.0,0.0,0.0,27.0,1.0,55.0,0.0,284.00549010001123,,,,,,,,,283.99171849992126,285.2047079000622,286.0051694998984,285.98837159993127,285.9884037000593,286.0051694998984,286.0051694998984,286.0051694998984,287.1558175999671,left,1.0,17.0697560000699,,,,,,,,,,,,,,,,,,,,,,,,,,,,,,,sub-202,1.0,random_dot,59.90520597764109,
left,left,accuracy,,,,,0.0,0.0,0.0,0.0,28.0,0.0,56.0,0.0,287.1700907999184,,,,,,,,,287.15746039990336,288.3694313000888,289.16977560007945,289.1531072999351,289.15313480002806,289.16977560007945,289.16977560007945,289.16977560007945,290.3544987998903,left,1.0,17.104761800030246,,,,,,,,,,,,,,,,,,,,,,,,,,,,,,,sub-202,1.0,random_dot,59.90520597764109,
right,right,accuracy,,,,,0.0,0.0,0.0,0.0,28.0,1.0,57.0,1.0,290.3682343000546,,,,,,,,,290.3565374999307,291.56747730006464,292.3679194999859,292.3514203000814,292.3514545999933,292.3679194999859,292.3679194999859,292.3679194999859,293.38492260011844,right,1.0,16.924708499806002,,,,,,,,,,,,,,,,,,,,,,,,,,,,,,,sub-202,1.0,random_dot,59.90520597764109,
right,right,accuracy,,,,,0.0,0.0,0.0,0.0,29.0,0.0,58.0,1.0,293.4000903000124,,,,,,,,,293.38566330005415,293.49979860009626,294.3001627000049,294.2834290999453,294.2834578000475,294.3001627000049,294.3001627000049,294.3001627000049,295.53409039997496,right,1.0,17.15373110002838,,,,,,,,,,,,,,,,,,,,,,,,,,,,,,,sub-202,1.0,random_dot,59.90520597764109,
left,left,accuracy,,,,,0.0,0.0,0.0,0.0,29.0,1.0,59.0,0.0,295.5483001000248,,,,,,,,,295.53569580009207,296.74760639993474,297.5482338999864,297.53134070010856,297.53137119999155,297.5482338999864,297.5482338999864,297.5482338999864,298.5488768001087,left,1.0,16.914208500180393,,,,,,,,,,,,,,,,,,,,,,,,,,,,,,,sub-202,1.0,random_dot,59.90520597764109,
,,accuracy,,,,,0.0,0.0,0.0,0.0,,,,,,,,,,,,,,,,,,,,,,,,,,,,,,,,,,,,,,,,,,,,,,,,,,,,,,,,sub-202,1.0,random_dot,59.90520597764109,
left,left,speed,,,,,0.0,1.0,1.0,1.0,0.0,0.0,0.0,0.0,301.4111814000644,,,,,,,,,301.4018788000103,302.61076630000025,303.4110900000669,303.3940878000576,303.3941083000973,303.4110900000669,303.4110900000669,303.4110900000669,304.14528040005825,left,1.0,16.647352500120178,,,,,,,,,,,,,,,,,,,,298.55050250003114,298.56483309995383,298.56483309995383,301.3955971999094,space,18.75172460009344,,,,,,sub-202,1.0,random_dot,59.90520597764109,
right,right,speed,,,,,0.0,1.0,1.0,1.0,0.0,1.0,1.0,1.0,304.1597390000243,,,,,,,,,304.1465743998997,305.35897179995663,306.1596931999084,306.14260819996707,306.14262939989567,306.1596931999084,306.1596931999084,306.1596931999084,306.6771136999596,right,1.0,16.430550100049004,,,,,,,,,,,,,,,,,,,,,,,,,,,,,,,sub-202,1.0,random_dot,59.90520597764109,
right,right,speed,,,,,0.0,1.0,1.0,1.0,1.0,0.0,2.0,1.0,306.69170619989745,,,,,,,,,306.6784055000171,307.0413047000766,307.8417897000909,307.8252069998998,307.82524010003544,307.8417897000909,307.8417897000909,307.8417897000909,308.4597974999342,left,0.0,16.52891939994879,,,,,,,,,,,,,,,,,,,,,,,,,,,,,,,sub-202,1.0,random_dot,59.90520597764109,
left,left,speed,,,,,0.0,1.0,1.0,1.0,1.0,1.0,3.0,0.0,308.4738010999281,,,,,,,,,308.46156809991226,308.82365770009346,309.6242164000869,309.60728650004603,309.60731899994425,309.6242164000869,309.6242164000869,309.6242164000869,310.22453029989265,left,1.0,16.5216669999063,,,,,,,,,,,,,,,,,,,,,,,,,,,,,,,sub-202,1.0,random_dot,59.90520597764109,
right,right,speed,,,,,0.0,1.0,1.0,1.0,2.0,0.0,4.0,1.0,310.23964949999936,,,,,,,,,310.2254663000349,311.03886940004304,311.83937479997985,311.8226389999036,311.8226683998946,311.83937479997985,311.83937479997985,311.83937479997985,312.4069572999142,right,1.0,16.484132200013846,,,,,,,,,,,,,,,,,,,,,,,,,,,,,,,sub-202,1.0,random_dot,59.90520597764109,
left,left,speed,,,,,0.0,1.0,1.0,1.0,2.0,1.0,5.0,0.0,312.42147179995663,,,,,,,,,312.4085230000783,313.2208630000241,314.0214817998931,314.00451670004986,314.00454539991915,314.0214817998931,314.0214817998931,314.0214817998931,314.5724603999406,left,1.0,16.459358100080863,,,,,,,,,,,,,,,,,,,,,,,,,,,,,,,sub-202,1.0,random_dot,59.90520597764109,
right,right,speed,,,,,0.0,1.0,1.0,1.0,3.0,0.0,6.0,1.0,314.58671039994806,,,,,,,,,314.5740656000562,315.7859447998926,316.5863938999828,316.5695330000017,316.5695617001038,316.5863938999828,316.5863938999828,316.5863938999828,317.0875075000804,right,1.0,16.415817300090566,,,,,,,,,,,,,,,,,,,,,,,,,,,,,,,sub-202,1.0,random_dot,59.90520597764109,
left,left,speed,,,,,0.0,1.0,1.0,1.0,3.0,1.0,7.0,0.0,317.1018219999969,,,,,,,,,317.08906330005266,317.20174330007285,318.0022525000386,317.98562070005573,317.98565139994025,318.0022525000386,318.0022525000386,318.0022525000386,319.2361898999661,right,0.0,17.154148699948564,,,,,,,,,,,,,,,,,,,,,,,,,,,,,,,sub-202,1.0,random_dot,59.90520597764109,
left,left,speed,,,,,0.0,1.0,1.0,1.0,4.0,0.0,8.0,0.0,319.2504773000255,,,,,,,,,319.237943300046,319.3504423999693,320.15085129998624,320.1341170000378,320.13414560002275,320.15085129998624,320.15085129998624,320.15085129998624,321.0183802000247,left,1.0,16.773751199943945,,,,,,,,,,,,,,,,,,,,,,,,,,,,,,,sub-202,1.0,random_dot,59.90520597764109,
right,right,speed,,,,,0.0,1.0,1.0,1.0,4.0,1.0,9.0,1.0,321.03299139998853,,,,,,,,,321.0199132999405,321.8323325999081,322.6326967999339,322.6159657998942,322.615994800115,322.6326967999339,322.6326967999339,322.6326967999339,323.1338444000576,right,1.0,16.420896800002083,,,,,,,,,,,,,,,,,,,,,,,,,,,,,,,sub-202,1.0,random_dot,59.90520597764109,
right,right,speed,,,,,0.0,1.0,1.0,1.0,5.0,0.0,10.0,1.0,323.14810210000724,,,,,,,,,323.13555849995464,323.94771849992685,324.74810190009885,324.73131570010446,324.7313445999753,324.74810190009885,324.74810190009885,324.74810190009885,325.415609800024,left,0.0,16.58974329987541,,,,,,,,,,,,,,,,,,,,,,,,,,,,,,,sub-202,1.0,random_dot,59.90520597764109,
left,left,speed,,,,,0.0,1.0,1.0,1.0,5.0,1.0,11.0,0.0,325.4303594001103,,,,,,,,,325.4163784000557,326.2295788999181,327.02997489995323,327.0131971000228,327.0132198999636,327.02997489995323,327.02997489995323,327.02997489995323,327.83076849998906,left,1.0,16.717586599988863,,,,,,,,,,,,,,,,,,,,,,,,,,,,,,,sub-202,1.0,random_dot,59.90520597764109,
left,left,speed,,,,,0.0,1.0,1.0,1.0,6.0,0.0,12.0,0.0,327.8451586998999,,,,,,,,,327.8320436999202,328.64489999995567,329.4452470000833,329.4286877999548,329.4287199000828,329.4452470000833,329.4452470000833,329.4452470000833,330.0798583999276,left,1.0,16.552748000016436,,,,,,,,,,,,,,,,,,,,,,,,,,,,,,,sub-202,1.0,random_dot,59.90520597764109,
right,right,speed,,,,,0.0,1.0,1.0,1.0,6.0,1.0,13.0,1.0,330.0941781001165,,,,,,,,,330.08162309997715,330.443615199998,331.24408479989506,331.22735689999536,331.2273818999529,331.24408479989506,331.24408479989506,331.24408479989506,332.06158239999786,right,1.0,16.73745959997177,,,,,,,,,,,,,,,,,,,,,,,,,,,,,,,sub-202,1.0,random_dot,59.90520597764109,
left,left,speed,,,,,0.0,1.0,1.0,1.0,7.0,0.0,14.0,0.0,332.07598680001684,,,,,,,,,332.06304690008983,332.4259182000533,333.22634890000336,333.20940520009026,333.2094328000676,333.22634890000336,333.22634890000336,333.22634890000336,333.794044499984,left,1.0,16.48166669998318,,,,,,,,,,,,,,,,,,,,,,,,,,,,,,,sub-202,1.0,random_dot,59.90520597764109,
right,right,speed,,,,,0.0,1.0,1.0,1.0,7.0,1.0,15.0,1.0,333.80824330006726,,,,,,,,,333.79551710002124,333.9082951999735,334.708679900039,334.691981199896,334.69200789998285,334.708679900039,334.708679900039,334.708679900039,335.3594289000612,right,1.0,16.570937799988315,,,,,,,,,,,,,,,,,,,,,,,,,,,,,,,sub-202,1.0,random_dot,59.90520597764109,
left,left,speed,,,,,0.0,1.0,1.0,1.0,8.0,0.0,16.0,0.0,335.3741522000637,,,,,,,,,335.36091820010915,335.4739109000657,336.27442179992795,336.25750629999675,336.257523200009,336.27442179992795,336.27442179992795,336.27442179992795,337.00850749993697,left,1.0,16.656060499837622,,,,,,,,,,,,,,,,,,,,,,,,,,,,,,,sub-202,1.0,random_dot,59.90520597764109,
right,right,speed,,,,,0.0,1.0,1.0,1.0,8.0,1.0,17.0,1.0,337.0232432000339,,,,,,,,,337.00962319993414,337.8228511000052,338.6231750000734,338.6064706000034,338.60651160008274,338.6231750000734,338.6231750000734,338.6231750000734,339.2898373999633,right,1.0,16.578188000014052,,,,,,,,,,,,,,,,,,,,,,,,,,,,,,,sub-202,1.0,random_dot,59.90520597764109,
right,right,speed,,,,,0.0,1.0,1.0,1.0,9.0,0.0,18.0,1.0,339.3047237000428,,,,,,,,,339.29058569995686,340.10454680002294,340.9048770000227,340.8886355001014,340.8886794000864,340.9048770000227,340.9048770000227,340.9048770000227,341.47267320007086,left,0.0,16.482424300163984,,,,,,,,,,,,,,,,,,,,,,,,,,,,,,,sub-202,1.0,random_dot,59.90520597764109,
left,left,speed,,,,,0.0,1.0,1.0,1.0,9.0,1.0,19.0,0.0,341.4871276000049,,,,,,,,,341.4739868999459,341.5870964000933,342.387602499919,342.3706459000241,342.3706809999421,342.387602499919,342.387602499919,342.387602499919,343.2710627000779,left,1.0,16.79835439985618,,,,,,,,,,,,,,,,,,,,,,,,,,,,,,,sub-202,1.0,random_dot,59.90520597764109,
left,left,speed,,,,,0.0,1.0,1.0,1.0,10.0,0.0,20.0,0.0,343.28575480007567,,,,,,,,,343.27207599999383,343.38571790000424,344.1862554999534,344.1699308999814,344.1699916999787,344.1862554999534,344.1862554999534,344.1862554999534,344.9037742000073,left,1.0,16.634342100005597,,,,,,,,,,,,,,,,,,,,,,,,,,,,,,,sub-202,1.0,random_dot,59.90520597764109,
right,right,speed,,,,,0.0,1.0,1.0,1.0,10.0,1.0,21.0,1.0,344.91819339990616,,,,,,,,,344.9050243999809,345.7176409000531,346.51807649992406,346.50115950009786,346.5011861999519,346.51807649992406,346.51807649992406,346.51807649992406,347.1024138999637,right,1.0,16.501506000058725,,,,,,,,,,,,,,,,,,,,,,,,,,,,,,,sub-202,1.0,random_dot,59.90520597764109,
right,right,speed,,,,,0.0,1.0,1.0,1.0,11.0,0.0,22.0,1.0,347.1168506999966,,,,,,,,,347.1037298999727,347.4669206000399,348.26712319999933,348.25048679998145,348.2505171999801,348.26712319999933,348.26712319999933,348.26712319999933,348.8845629999414,left,0.0,16.535366100026295,,,,,,,,,,,,,,,,,,,,,,,,,,,,,,,sub-202,1.0,random_dot,59.90520597764109,
left,left,speed,,,,,0.0,1.0,1.0,1.0,11.0,1.0,23.0,0.0,348.8990635999944,,,,,,,,,348.8859647999052,348.99922550003976,349.79953769990243,349.78247569990344,349.7825015000999,349.79953769990243,349.79953769990243,349.79953769990243,350.41690209996887,left,1.0,16.523749999934807,,,,,,,,,,,,,,,,,,,,,,,,,,,,,,,sub-202,1.0,random_dot,59.90520597764109,
right,right,speed,,,,,0.0,1.0,1.0,1.0,12.0,0.0,24.0,1.0,350.43164670001715,,,,,,,,,350.4182826001197,351.2311482001096,352.0315509000793,352.0147798000835,352.0148034000304,352.0315509000793,352.0315509000793,352.0315509000793,352.64886349998415,right,1.0,16.530911199981347,,,,,,,,,,,,,,,,,,,,,,,,,,,,,,,sub-202,1.0,random_dot,59.90520597764109,
left,left,speed,,,,,0.0,1.0,1.0,1.0,12.0,1.0,25.0,0.0,352.66332529997453,,,,,,,,,352.65014549996704,353.4629866001196,354.2633980000392,354.246638600016,354.2466700999066,354.2633980000392,354.2633980000392,354.2633980000392,354.8139859000221,left,1.0,16.46938670007512,,,,,,,,,,,,,,,,,,,,,,,,,,,,,,,sub-202,1.0,random_dot,59.90520597764109,
left,left,speed,,,,,0.0,1.0,1.0,1.0,13.0,0.0,26.0,0.0,354.8287233998999,,,,,,,,,354.8150212999899,356.02829240006395,356.8286017999053,356.811478599906,356.8114974000491,356.8286017999053,356.8286017999053,356.8286017999053,357.3627539000008,left,1.0,16.446280899923295,,,,,,,,,,,,,,,,,,,,,,,,,,,,,,,sub-202,1.0,random_dot,59.90520597764109,
right,right,speed,,,,,0.0,1.0,1.0,1.0,13.0,1.0,27.0,1.0,357.37714780005626,,,,,,,,,357.3640844000038,358.57672829995863,359.3771738000214,359.3603481000755,359.3603862999007,359.3771738000214,359.3771738000214,359.3771738000214,359.9113894999027,right,1.0,16.445611200062558,,,,,,,,,,,,,,,,,,,,,,,,,,,,,,,sub-202,1.0,random_dot,59.90520597764109,
right,right,speed,,,,,0.0,1.0,1.0,1.0,14.0,0.0,28.0,1.0,359.92573089990765,,,,,,,,,359.91292809997685,360.2756564998999,361.0760765001178,361.0590601000004,361.0590792999137,361.0760765001178,361.0760765001178,361.0760765001178,361.6432161000557,right,1.0,16.487085999920964,,,,,,,,,,,,,,,,,,,,,,,,,,,,,,,sub-202,1.0,random_dot,59.90520597764109,
left,left,speed,,,,,0.0,1.0,1.0,1.0,14.0,1.0,29.0,0.0,361.6581580999773,,,,,,,,,361.6440163000953,361.7578020999208,362.5584887999576,362.5414315999951,362.5414605000988,362.5584887999576,362.5584887999576,362.5584887999576,363.343483600067,left,1.0,16.706538200145587,,,,,,,,,,,,,,,,,,,,,,,,,,,,,,,sub-202,1.0,random_dot,59.90520597764109,
right,right,speed,,,,,0.0,1.0,1.0,1.0,15.0,0.0,30.0,1.0,363.3570534000173,,,,,,,,,363.3452475999948,363.70721219992265,364.52383480011486,364.5070193998981,364.5070428000763,364.52383480011486,364.52383480011486,364.52383480011486,365.008256000001,right,1.0,16.40100140008144,,,,,,,,,,,,,,,,,,,,,,,,,,,,,,,sub-202,1.0,random_dot,59.90520597764109,
left,left,speed,,,,,0.0,1.0,1.0,1.0,15.0,1.0,31.0,0.0,365.0227526999079,,,,,,,,,365.0095226999838,366.2217723999638,367.0223105999176,367.005358699942,367.0053854999133,367.0223105999176,367.0223105999176,367.0223105999176,367.5901393000968,left,1.0,16.488199000013992,,,,,,,,,,,,,,,,,,,,,,,,,,,,,,,sub-202,1.0,random_dot,59.90520597764109,
right,right,speed,,,,,0.0,1.0,1.0,1.0,16.0,0.0,32.0,1.0,367.6043710000813,,,,,,,,,367.591603100067,368.8037785999477,369.60414339997806,369.5871548000723,369.587182899937,369.60414339997806,369.60414339997806,369.60414339997806,370.3050718999002,right,1.0,16.61558680003509,,,,,,,,,,,,,,,,,,,,,,,,,,,,,,,sub-202,1.0,random_dot,59.90520597764109,
left,left,speed,,,,,0.0,1.0,1.0,1.0,16.0,1.0,33.0,0.0,370.3193045998924,,,,,,,,,370.30655590002425,371.5185295001138,372.3192332999315,372.3022934999317,372.30232000001706,372.3192332999315,372.3192332999315,372.3192332999315,372.93695309991017,left,1.0,16.53907399997115,,,,,,,,,,,,,,,,,,,,,,,,,,,,,,,sub-202,1.0,random_dot,59.90520597764109,
left,left,speed,,,,,0.0,1.0,1.0,1.0,17.0,0.0,34.0,0.0,372.95097199990414,,,,,,,,,372.9384079000447,374.1504768999293,374.9508177000098,374.9340790000279,374.9341066000052,374.9508177000098,374.9508177000098,374.9508177000098,375.7016272000037,right,0.0,16.657474799780175,,,,,,,,,,,,,,,,,,,,,,,,,,,,,,,sub-202,1.0,random_dot,59.90520597764109,
right,right,speed,,,,,0.0,1.0,1.0,1.0,17.0,1.0,35.0,1.0,375.7159935000818,,,,,,,,,375.7031169999391,376.06582790007815,376.866467700107,376.8496546000242,376.8496860999148,376.866467700107,376.866467700107,376.866467700107,377.66739320009947,right,1.0,16.70705860015005,,,,,,,,,,,,,,,,,,,,,,,,,,,,,,,sub-202,1.0,random_dot,59.90520597764109,
right,right,speed,,,,,0.0,1.0,1.0,1.0,18.0,0.0,36.0,1.0,377.68165939999744,,,,,,,,,377.66919309995137,378.03129440010525,378.8317323999945,378.81514460011385,378.815177399898,378.8317323999945,378.8317323999945,378.8317323999945,379.86605160008185,right,1.0,16.952309800079092,,,,,,,,,,,,,,,,,,,,,,,,,,,,,,,sub-202,1.0,random_dot,59.90520597764109,
left,left,speed,,,,,0.0,1.0,1.0,1.0,18.0,1.0,37.0,0.0,379.8803391000256,,,,,,,,,379.8678325000219,380.2299381000921,381.0306631999556,381.0134489999618,381.01346289995126,381.0306631999556,381.0306631999556,381.0306631999556,382.0979502000846,left,1.0,16.974420299986377,,,,,,,,,,,,,,,,,,,,,,,,,,,,,,,sub-202,1.0,random_dot,59.90520597764109,
right,right,speed,,,,,0.0,1.0,1.0,1.0,19.0,0.0,38.0,1.0,382.11225500004366,,,,,,,,,382.0996071998961,383.3115326999687,384.111811199924,384.0951630999334,384.095193099929,384.111811199924,384.111811199924,384.111811199924,384.7296849000268,right,1.0,16.534346099942923,,,,,,,,,,,,,,,,,,,,,,,,,,,,,,,sub-202,1.0,random_dot,59.90520597764109,
left,left,speed,,,,,0.0,1.0,1.0,1.0,19.0,1.0,39.0,0.0,384.74400019994937,,,,,,,,,384.7313477999997,385.94323659990914,386.7435538999271,386.72674679989,386.72676929994486,386.7435538999271,386.7435538999271,386.7435538999271,387.7606442000251,left,1.0,16.933680100133643,,,,,,,,,,,,,,,,,,,,,,,,,,,,,,,sub-202,1.0,random_dot,59.90520597764109,
left,left,speed,,,,,0.0,1.0,1.0,1.0,20.0,0.0,40.0,0.0,387.7752642999403,,,,,,,,,387.76180740003474,388.5750472999644,389.3754893001169,389.358507799916,389.3585320001002,389.3754893001169,389.3754893001169,389.3754893001169,389.99294180003926,left,1.0,16.52541170013137,,,,,,,,,,,,,,,,,,,,,,,,,,,,,,,sub-202,1.0,random_dot,59.90520597764109,
right,right,speed,,,,,0.0,1.0,1.0,1.0,20.0,1.0,41.0,1.0,390.0074080000632,,,,,,,,,389.9942685998976,390.1074244999327,390.9078081001062,390.89067950006574,390.89070379990153,390.9078081001062,390.9078081001062,390.9078081001062,391.9916373000015,right,1.0,16.997762399958447,,,,,,,,,,,,,,,,,,,,,,,,,,,,,,,sub-202,1.0,random_dot,59.90520597764109,
left,left,speed,,,,,0.0,1.0,1.0,1.0,21.0,0.0,42.0,0.0,392.0062516001053,,,,,,,,,391.9929500999861,392.1060734998901,392.9066021000035,392.8896639999002,392.88968800008297,392.9066021000035,392.9066021000035,392.9066021000035,393.407440100098,left,1.0,16.41511269984767,,,,,,,,,,,,,,,,,,,,,,,,,,,,,,,sub-202,1.0,random_dot,59.90520597764109,
right,right,speed,,,,,0.0,1.0,1.0,1.0,21.0,1.0,43.0,1.0,393.4219718999229,,,,,,,,,393.4087561999913,394.6211099000648,395.4215092000086,395.4046992000658,395.40472620003857,395.4215092000086,395.4215092000086,395.4215092000086,396.0890760999173,right,1.0,16.583358600037172,,,,,,,,,,,,,,,,,,,,,,,,,,,,,,,sub-202,1.0,random_dot,59.90520597764109,
left,left,speed,,,,,0.0,1.0,1.0,1.0,22.0,0.0,44.0,0.0,396.1037163999863,,,,,,,,,396.0906094999518,397.3027731999755,398.1033119000495,398.0865128999576,398.0865338000003,398.1033119000495,398.1033119000495,398.1033119000495,398.7708024000749,left,1.0,16.579790899995714,,,,,,,,,,,,,,,,,,,,,,,,,,,,,,,sub-202,1.0,random_dot,59.90520597764109,
right,right,speed,,,,,0.0,1.0,1.0,1.0,22.0,1.0,45.0,1.0,398.7852650000714,,,,,,,,,398.77153060003184,399.5846504000947,400.38514610007405,400.3682204000652,400.3682409999892,400.38514610007405,400.38514610007405,400.38514610007405,401.019450499909,right,1.0,16.55524089979008,,,,,,,,,,,,,,,,,,,,,,,,,,,,,,,sub-202,1.0,random_dot,59.90520597764109,
left,left,speed,,,,,0.0,1.0,1.0,1.0,23.0,0.0,46.0,0.0,401.0338357000146,,,,,,,,,401.0205904000904,401.13376790005714,401.9342318000272,401.91731969988905,401.9173431999516,401.9342318000272,401.9342318000272,401.9342318000272,402.7517667999491,left,1.0,16.72981490008533,,,,,,,,,,,,,,,,,,,,,,,,,,,,,,,sub-202,1.0,random_dot,59.90520597764109,
right,right,speed,,,,,0.0,1.0,1.0,1.0,23.0,1.0,47.0,1.0,402.7662210999988,,,,,,,,,402.75309580005705,402.86609479994513,403.6663963000756,403.6497702999041,403.6497941999696,403.6663963000756,403.6663963000756,403.6663963000756,404.6337031000294,right,1.0,16.878884800011292,,,,,,,,,,,,,,,,,,,,,,,,,,,,,,,sub-202,1.0,random_dot,59.90520597764109,
left,left,speed,,,,,0.0,1.0,1.0,1.0,24.0,0.0,48.0,0.0,404.6483197000344,,,,,,,,,404.634841500083,404.99814249994233,405.7982795001008,405.7817806999665,405.7818124000914,405.7982795001008,405.7982795001008,405.7982795001008,407.38194200000726,right,0.0,17.49124430003576,,,,,,,,,,,,,,,,,,,,,,,,,,,,,,,sub-202,1.0,random_dot,59.90520597764109,
right,right,speed,,,,,0.0,1.0,1.0,1.0,24.0,1.0,49.0,1.0,407.39658210007474,,,,,,,,,407.3828757998999,408.5961438000668,409.3964750000741,409.3797911000438,409.379804499913,409.3964750000741,409.3964750000741,409.3964750000741,410.18029360007495,right,1.0,16.703688699984923,,,,,,,,,,,,,,,,,,,,,,,,,,,,,,,sub-202,1.0,random_dot,59.90520597764109,
right,right,speed,,,,,0.0,1.0,1.0,1.0,25.0,0.0,50.0,1.0,410.1949638999067,,,,,,,,,410.1811440000311,411.3943709000014,412.1946201999672,412.1777981000487,412.1778259999119,412.1946201999672,412.1946201999672,412.1946201999672,412.9617989999242,right,1.0,16.67738899984397,,,,,,,,,,,,,,,,,,,,,,,,,,,,,,,sub-202,1.0,random_dot,59.90520597764109,
left,left,speed,,,,,0.0,1.0,1.0,1.0,25.0,1.0,51.0,0.0,412.9765385000501,,,,,,,,,412.9626806001179,413.7762859999202,414.5765227000229,414.55954160005786,414.55956150009297,414.5765227000229,414.5765227000229,414.5765227000229,415.2607847000472,left,1.0,16.601393399992958,,,,,,,,,,,,,,,,,,,,,,,,,,,,,,,sub-202,1.0,random_dot,59.90520597764109,
left,left,speed,,,,,0.0,1.0,1.0,1.0,26.0,0.0,52.0,0.0,415.2751869000495,,,,,,,,,415.2618217999116,416.0748431000393,416.8754137000069,416.8583116000518,416.85833239997737,416.8754137000069,416.8754137000069,416.8754137000069,417.5592217999511,left,1.0,16.603737000143155,,,,,,,,,,,,,,,,,,,,,,,,,,,,,,,sub-202,1.0,random_dot,59.90520597764109,
right,right,speed,,,,,0.0,1.0,1.0,1.0,26.0,1.0,53.0,1.0,417.573749500094,,,,,,,,,417.560324100079,417.9236272999551,418.7239270999562,418.7069653000217,418.7069856999442,418.7239270999562,418.7239270999562,418.7239270999562,419.5748682999984,right,1.0,16.77089020004496,,,,,,,,,,,,,,,,,,,,,,,,,,,,,,,sub-202,1.0,random_dot,59.90520597764109,
right,right,speed,,,,,0.0,1.0,1.0,1.0,27.0,0.0,54.0,1.0,419.5893198999111,,,,,,,,,419.5759705998935,419.93900509993546,420.73958800011314,420.72270840010606,420.7227320999373,420.73958800011314,420.73958800011314,420.73958800011314,421.457020400092,right,1.0,16.63479040004313,,,,,,,,,,,,,,,,,,,,,,,,,,,,,,,sub-202,1.0,random_dot,59.90520597764109,
left,left,speed,,,,,0.0,1.0,1.0,1.0,27.0,1.0,55.0,0.0,421.471417499939,,,,,,,,,421.45827999990433,422.6706101000309,423.47101969993673,423.4542179999408,423.454244799912,423.47101969993673,423.47101969993673,423.47101969993673,424.0718733998947,left,1.0,16.507482999935746,,,,,,,,,,,,,,,,,,,,,,,,,,,,,,,sub-202,1.0,random_dot,59.90520597764109,
left,left,speed,,,,,0.0,1.0,1.0,1.0,28.0,0.0,56.0,0.0,424.0863699999172,,,,,,,,,424.0728684000205,425.2858027999755,426.0861041999888,426.069346500095,426.0693729000632,426.0861041999888,426.0861041999888,426.0861041999888,426.85394760011695,left,1.0,16.677638000110164,,,,,,,,,,,,,,,,,,,,,,,,,,,,,,,sub-202,1.0,random_dot,59.90520597764109,
right,right,speed,,,,,0.0,1.0,1.0,1.0,28.0,1.0,57.0,1.0,426.8682788000442,,,,,,,,,426.8554084999487,428.06732230004855,428.8680006999057,428.8508276999928,428.8508460999001,428.8680006999057,428.8680006999057,428.8680006999057,429.7350288000889,right,1.0,16.78576000011526,,,,,,,,,,,,,,,,,,,,,,,,,,,,,,,sub-202,1.0,random_dot,59.90520597764109,
right,right,speed,,,,,0.0,1.0,1.0,1.0,29.0,0.0,58.0,1.0,429.7495959000662,,,,,,,,,429.7360910999123,430.099642300047,430.8999010000844,430.8828851999715,430.8828998000826,430.8999010000844,430.8999010000844,430.8999010000844,431.8836801999714,right,1.0,16.902350299991667,,,,,,,,,,,,,,,,,,,,,,,,,,,,,,,sub-202,1.0,random_dot,59.90520597764109,
left,left,speed,,,,,0.0,1.0,1.0,1.0,29.0,1.0,59.0,0.0,431.8983555000741,,,,,,,,,431.884851400042,432.2484601999168,433.0485370000824,433.0318012998905,433.03182090003975,433.0485370000824,433.0485370000824,433.0485370000824,434.2655195998959,left,1.0,17.12433240003884,,,,,,,,,,,,,,,,,,,,,,,,,,,,,,,sub-202,1.0,random_dot,59.90520597764109,
,,speed,,,,,0.0,1.0,1.0,1.0,,,,,,,,,,,,,,,,,,,,,,,,,,,,,,,,,,,,,,,,,,,,,,,,,,,,,,,,sub-202,1.0,random_dot,59.90520597764109,
,,,,,,,,,,,,,,,,,,,,,,,,,,,,,,,,,,,,,,,,,,,,,,,,,,,,,,,,,,,,,,,434.2663145000115,434.2802937000524,439.2776182999369,sub-202,,,,
