direction,corrAns,randomInstr,practice_trials.thisRepN,practice_trials.thisTrialN,practice_trials.thisN,practice_trials.thisIndex,instr_trials.thisRepN,instr_trials.thisTrialN,instr_trials.thisN,instr_trials.thisIndex,test_trials.thisRepN,test_trials.thisTrialN,test_trials.thisN,test_trials.thisIndex,thisRow.t,notes,general_instruction.started,textGeneralInstr.started,respGeneralInstr.started,general_instruction.stopped,respGeneralInstr.keys,respGeneralInstr.rt,respGeneralInstr.duration,ITI.started,fixcross.started,fixcross.stopped,ITI.stopped,dots.started,backgroundDots.started,stimulusDots.started,respDots.started,dots.stopped,respDots.keys,respDots.corr,respDots.rt,respDots.duration,feedback.started,textFeedback.started,textFeedback.stopped,feedback.stopped,info.started,textInfo.started,keyRespInfo.started,info.stopped,keyRespInfo.keys,keyRespInfo.rt,keyRespInfo.duration,test_instruction.started,textTestInstr.started,respTestInstr.started,test_instruction.stopped,respTestInstr.keys,respTestInstr.rt,respTestInstr.duration,random_instruction.started,textRandomInstr.started,respRandomInstr.started,random_instruction.stopped,respRandomInstr.keys,respRandomInstr.rt,respRandomInstr.duration,goodbye.started,textGoodbye.started,participant,session,expName,frameRate,Unnamed: 71
,,,,,,,,,,,,,,,,,0.0358683000013115,0.0411260000037145,0.0411260000037145,2.74426620000304,space,19.692606099997647,,,,,,,,,,,,,,,,,,,,,,,,,,,,,,,,,,,,,,,,,,sub-008,1.0,random_dot,60.24339536427741,
right,right,,0.0,0.0,0.0,1.0,,,,,,,,,2.759032200003276,,,,,,,,,2.751865900005214,3.108891100004257,3.909381199999189,3.8930431000044337,3.89306580000266,3.909381199999189,3.909381199999189,3.909381199999189,4.8442647000047145,right,1.0,17.923315099993488,,4.845188400002371,4.857431299999007,5.357395999999426,5.343767600003048,,,,,,,,,,,,,,,,,,,,,,,,sub-008,1.0,random_dot,60.24339536427741,
left,left,,0.0,1.0,1.0,0.0,,,,,,,,,5.357395999999426,,,,,,,,,5.34475580000435,5.457472699999926,6.2578590999983135,6.24191140000039,6.241941300002509,6.2578590999983135,6.2578590999983135,6.2578590999983135,7.326935400000366,left,1.0,18.059401899998196,,7.327732199999446,7.339677800002391,7.839525499999581,7.823929900005169,,,,,,,,,,,,,,,,,,,,,,,,sub-008,1.0,random_dot,60.24339536427741,
right,right,,1.0,0.0,2.0,1.0,,,,,,,,,7.839525499999581,,,,,,,,,7.8244389000028605,8.189267500005371,8.989797300004284,8.972767300001578,8.97280590000446,8.989797300004284,8.989797300004284,8.989797300004284,9.707040000001143,right,1.0,17.700980899993738,,9.707545500001288,9.721501500003797,10.221293499998865,10.20689520000451,,,,,,,,,,,,,,,,,,,,,,,,sub-008,1.0,random_dot,60.24339536427741,
left,left,,1.0,1.0,3.0,0.0,,,,,,,,,10.221293499998865,,,,,,,,,10.207961400003114,10.321471100003691,11.121515400001954,11.104778000000806,11.104803200003516,11.121515400001954,11.121515400001954,11.121515400001954,11.889001700001243,left,1.0,17.746379499993054,,11.8894736000002,11.903292100003457,12.402971000003165,12.387765500003296,,,,,,,,,,,,,,,,,,,,,,,,sub-008,1.0,random_dot,60.24339536427741,
right,right,,2.0,0.0,4.0,1.0,,,,,,,,,12.402971000003165,,,,,,,,,12.388342600002945,13.602341400001023,14.402782400000431,14.386037700001909,14.38606570000411,14.402782400000431,14.402782400000431,14.402782400000431,15.436695600001258,right,1.0,18.0254047999988,,15.437225400004536,15.451195300003748,15.95082579999871,15.935610799999267,,,,,,,,,,,,,,,,,,,,,,,,sub-008,1.0,random_dot,60.24339536427741,
left,left,,2.0,1.0,5.0,0.0,,,,,,,,,15.95082579999871,,,,,,,,,15.9362226000012,16.3005570000023,17.10105779999867,17.084430599999905,17.084468900000502,17.10105779999867,17.10105779999867,17.10105779999867,18.069476299999224,left,1.0,17.944550399995933,,18.070273800003637,18.08286750000116,18.58246550000331,18.56741570000304,,,,,,,,,,,,,,,,,,,,,,,,sub-008,1.0,random_dot,60.24339536427741,
left,left,,3.0,0.0,6.0,0.0,,,,,,,,,18.58246550000331,,,,,,,,,18.567934999999125,19.78241379999963,20.59896980000485,20.5827930000014,20.58281810000335,20.59896980000485,20.59896980000485,20.59896980000485,21.88418150000507,right,0.0,18.27687560000049,,21.884837500001595,21.896791800005303,22.396696900003008,22.38116589999845,,,,,,,,,,,,,,,,,,,,,,,,sub-008,1.0,random_dot,60.24339536427741,
right,right,,3.0,1.0,7.0,1.0,,,,,,,,,22.396696900003008,,,,,,,,,22.381735399998437,22.49658600000112,23.29749140000058,23.28133959999832,23.28137979999883,23.29749140000058,23.29749140000058,23.29749140000058,24.81646049999836,right,1.0,18.509163299990178,,24.817168699999456,24.828728400003456,25.32838569999876,25.313394000004337,,,,,,,,,,,,,,,,,,,,,,,,sub-008,1.0,random_dot,60.24339536427741,
right,right,,4.0,0.0,8.0,1.0,,,,,,,,,25.32838569999876,,,,,,,,,25.31421119999868,25.42815690000134,26.228881700000784,26.213007300000758,26.213092400001187,26.228881700000784,26.228881700000784,26.228881700000784,27.26292950000061,left,0.0,18.02465139999549,,27.263420800001768,27.276875499999733,27.77697330000228,27.76219320000382,,,,,,,,,,,,,,,,,,,,,,,,sub-008,1.0,random_dot,60.24339536427741,
left,left,,4.0,1.0,9.0,0.0,,,,,,,,,27.77697330000228,,,,,,,,,27.76318110000284,28.976044600000023,29.776342500001192,29.759552700001223,29.759575900003256,29.776342500001192,29.776342500001192,29.776342500001192,30.67714060000435,left,1.0,17.88047479999659,,30.67770250000467,30.69127750000189,31.19101159999991,31.175890700003947,,,,,,,,,,,,,,,,,,,,,,,,sub-008,1.0,random_dot,60.24339536427741,
left,left,,5.0,0.0,10.0,0.0,,,,,,,,,31.19101159999991,,,,,,,,,31.176433100001304,31.54079289999936,32.341548299998976,32.325711199999205,32.32576220000192,32.341548299998976,32.341548299998976,32.341548299998976,34.20916730000317,right,0.0,18.849503999997975,,34.20986090000224,34.22267160000047,34.72252600000502,34.70716760000505,,,,,,,,,,,,,,,,,,,,,,,,sub-008,1.0,random_dot,60.24339536427741,
right,right,,5.0,1.0,11.0,1.0,,,,,,,,,34.72252600000502,,,,,,,,,34.70847660000436,35.07206530000258,35.87278309999965,35.856923300001654,35.856957000003604,35.87278309999965,35.87278309999965,35.87278309999965,38.02244480000081,left,0.0,19.130892499990296,,38.02301309999893,38.03661999999895,38.53639480000129,38.52115210000193,,,,,,,,,,,,,,,,,,,,,,,,sub-008,1.0,random_dot,60.24339536427741,
left,left,,6.0,0.0,12.0,0.0,,,,,,,,,38.53639480000129,,,,,,,,,38.52160849999928,39.73545279999962,40.53635560000112,40.519891000003554,40.51997380000103,40.53635560000112,40.53635560000112,40.53635560000112,41.27173480000056,left,1.0,17.713989199990465,,41.27289540000493,41.28469220000261,41.78435400000308,41.769043100001,,,,,,,,,,,,,,,,,,,,,,,,sub-008,1.0,random_dot,60.24339536427741,
right,right,,6.0,1.0,13.0,1.0,,,,,,,,,41.78435400000308,,,,,,,,,41.76951669999835,42.58403150000231,43.38467870000022,43.367578800003685,43.36760530000174,43.38467870000022,43.38467870000022,43.38467870000022,43.95305190000363,right,1.0,17.553172899992205,,43.95385940000415,43.96673780000128,44.466125300001295,44.45061730000453,,,,,,,,,,,,,,,,,,,,,,,,sub-008,1.0,random_dot,60.24339536427741,
left,left,,7.0,0.0,14.0,0.0,,,,,,,,,44.466125300001295,,,,,,,,,44.451141199999256,45.66525980000006,46.46569860000454,46.449836600004346,46.44986250000511,46.46569860000454,46.46569860000454,46.46569860000454,47.03410160000203,left,1.0,17.549571299998206,,47.034728200000245,47.04779860000417,47.54778459999943,47.53294599999936,,,,,,,,,,,,,,,,,,,,,,,,sub-008,1.0,random_dot,60.24339536427741,
right,right,,7.0,1.0,15.0,1.0,,,,,,,,,47.54778459999943,,,,,,,,,47.53412100000424,47.64738380000199,48.44792679999955,48.43205650000164,48.432144600003085,48.44792679999955,48.44792679999955,48.44792679999955,48.93392920000042,right,1.0,17.46445309999399,,48.9353861999989,48.94677180000144,49.44610110000213,49.43057090000366,,,,,,,,,,,,,,,,,,,,,,,,sub-008,1.0,random_dot,60.24339536427741,
right,right,,8.0,0.0,16.0,1.0,,,,,,,,,49.44610110000213,,,,,,,,,49.431074400003126,50.64534470000217,51.446007800004736,51.42948910000269,51.42951420000463,51.446007800004736,51.446007800004736,51.446007800004736,51.88071350000246,right,1.0,17.424339199991664,,51.88136240000313,51.89467120000336,52.39426810000441,52.37873670000408,,,,,,,,,,,,,,,,,,,,,,,,sub-008,1.0,random_dot,60.24339536427741,
left,left,,8.0,1.0,17.0,0.0,,,,,,,,,52.39426810000441,,,,,,,,,52.37919189999957,52.494370000000345,53.29473990000406,53.277978600002825,53.27800099999877,53.29473990000406,53.29473990000406,53.29473990000406,53.84690810000029,left,1.0,17.53308649999235,,53.847816699999385,53.86010890000034,54.35976130000199,54.344436700004735,,,,,,,,,,,,,,,,,,,,,,,,sub-008,1.0,random_dot,60.24339536427741,
left,left,,9.0,0.0,18.0,0.0,,,,,,,,,54.35976130000199,,,,,,,,,54.34496200000285,54.7097797000024,55.51014540000324,55.49340140000277,55.49343590000353,55.51014540000324,55.51014540000324,55.51014540000324,55.94485900000291,right,0.0,17.414475999998103,,55.9454182000045,55.95886780000001,56.458724600001005,56.44351720000122,,,,,,,,,,,,,,,,,,,,,,,,sub-008,1.0,random_dot,60.24339536427741,
right,right,,9.0,1.0,19.0,1.0,,,,,,,,,56.458724600001005,,,,,,,,,56.44425690000208,56.55847070000164,57.35886780000146,57.34182570000121,57.34185029999935,57.35886780000146,57.35886780000146,57.35886780000146,57.8764560999989,left,0.0,17.509706999997434,,57.8768801000042,57.89089339999919,58.39065649999975,58.37520110000332,,,,,,,,,,,,,,,,,,,,,,,,sub-008,1.0,random_dot,60.24339536427741,
,,,,,,,,,,,,,,,,,,,,,,,,,,,,,,,,,,,,,,,,,58.37529050000012,58.39065649999975,58.39065649999975,61.12629839999863,space,19.72385840000061,,,,,,,,,,,,,,,,,,sub-008,1.0,random_dot,60.24339536427741,
,,,,,,,,,,,,,,,,,,,,,,,,,,,,,,,,,,,,,,,,,,,,,,,,61.12641100000474,61.13877930000308,61.13877930000308,65.00543150000158,space,20.84654639999644,,,,,,,,,,,sub-008,1.0,random_dot,60.24339536427741,
right,right,accuracy,,,,,0.0,0.0,0.0,0.0,0.0,0.0,0.0,1.0,66.7686662000051,,,,,,,,,66.75884510000469,66.86843700000463,67.66885259999981,67.65233620000072,67.65236079999886,67.66885259999981,67.66885259999981,67.66885259999981,69.7864583000046,right,1.0,19.09702560000005,,,,,,,,,,,,,,,,,,,,65.00892569999996,65.02708680000069,65.02708680000069,66.75298509999993,space,18.71445159999712,,,,sub-008,1.0,random_dot,60.24339536427741,
left,left,accuracy,,,,,0.0,0.0,0.0,0.0,0.0,1.0,1.0,0.0,69.8001951000042,,,,,,,,,69.7888082999998,70.99933020000026,71.80029659999855,71.78374530000292,71.78382680000504,71.80029659999855,71.80029659999855,71.80029659999855,72.58475570000155,left,1.0,17.774013799993554,,,,,,,,,,,,,,,,,,,,,,,,,,,,,sub-008,1.0,random_dot,60.24339536427741,
left,left,accuracy,,,,,0.0,0.0,0.0,0.0,1.0,0.0,2.0,0.0,72.59839279999869,,,,,,,,,72.58618099999876,72.69845260000147,73.4986807000023,73.48280610000074,73.48286139999982,73.4986807000023,73.4986807000023,73.4986807000023,75.16577870000037,right,0.0,18.65258399999584,,,,,,,,,,,,,,,,,,,,,,,,,,,,,sub-008,1.0,random_dot,60.24339536427741,
right,right,accuracy,,,,,0.0,0.0,0.0,0.0,1.0,1.0,3.0,1.0,75.1798534000045,,,,,,,,,75.16694780000398,76.37909170000057,77.1798637000029,77.16343060000509,77.16350529999909,77.1798637000029,77.1798637000029,77.1798637000029,78.51367160000518,right,1.0,18.3237261999966,,,,,,,,,,,,,,,,,,,,,,,,,,,,,sub-008,1.0,random_dot,60.24339536427741,
right,right,accuracy,,,,,0.0,0.0,0.0,0.0,2.0,0.0,4.0,1.0,78.52772959999857,,,,,,,,,78.51474050000252,78.87748880000436,79.67809449999913,79.66143600000214,79.66145770000003,79.67809449999913,79.67809449999913,79.67809449999913,81.24653430000035,right,1.0,18.550268099992536,,,,,,,,,,,,,,,,,,,,,,,,,,,,,sub-008,1.0,random_dot,60.24339536427741,
left,left,accuracy,,,,,0.0,0.0,0.0,0.0,2.0,1.0,5.0,0.0,81.25915920000261,,,,,,,,,81.2486315999995,81.60911480000505,82.40949769999861,82.39291270000103,82.39293449999968,82.40949769999861,82.40949769999861,82.40949769999861,83.02733029999945,left,1.0,17.605921199996374,,,,,,,,,,,,,,,,,,,,,,,,,,,,,sub-008,1.0,random_dot,60.24339536427741,
left,left,accuracy,,,,,0.0,0.0,0.0,0.0,3.0,0.0,6.0,0.0,83.0415095999997,,,,,,,,,83.02833710000414,83.8411841000052,84.64173410000512,84.6257637000017,84.62579130000086,84.64173410000512,84.64173410000512,84.64173410000512,86.45881000000372,left,1.0,18.80615179999586,,,,,,,,,,,,,,,,,,,,,,,,,,,,,sub-008,1.0,random_dot,60.24339536427741,
right,right,accuracy,,,,,0.0,0.0,0.0,0.0,3.0,1.0,7.0,1.0,86.47282429999905,,,,,,,,,86.45994330000394,87.27216640000552,88.07270830000198,88.05603930000507,88.05606110000372,88.07270830000198,88.07270830000198,88.07270830000198,89.97235470000305,right,1.0,18.876434199992215,,,,,,,,,,,,,,,,,,,,,,,,,,,,,sub-008,1.0,random_dot,60.24339536427741,
left,left,accuracy,,,,,0.0,0.0,0.0,0.0,4.0,0.0,8.0,0.0,89.9867721000046,,,,,,,,,89.97336219999852,91.18627730000298,91.987037400002,91.97116220000316,91.9711957000036,91.987037400002,91.987037400002,91.987037400002,93.0217727000054,left,1.0,18.013568499998655,,,,,,,,,,,,,,,,,,,,,,,,,,,,,sub-008,1.0,random_dot,60.24339536427741,
right,right,accuracy,,,,,0.0,0.0,0.0,0.0,4.0,1.0,9.0,1.0,93.03511300000535,,,,,,,,,93.02271140000084,93.83500279999862,94.63508290000028,94.61896020000133,94.6189871000024,94.63508290000028,94.63508290000028,94.63508290000028,96.86933770000178,left,0.0,19.221631799991883,,,,,,,,,,,,,,,,,,,,,,,,,,,,,sub-008,1.0,random_dot,60.24339536427741,
right,right,accuracy,,,,,0.0,0.0,0.0,0.0,5.0,0.0,10.0,1.0,96.88264760000312,,,,,,,,,96.87086110000382,96.98265350000293,97.78316020000057,97.76698630000465,97.76705010000296,97.78316020000057,97.78316020000057,97.78316020000057,99.70081909999864,left,0.0,18.900844699994195,,,,,,,,,,,,,,,,,,,,,,,,,,,,,sub-008,1.0,random_dot,60.24339536427741,
left,left,accuracy,,,,,0.0,0.0,0.0,0.0,5.0,1.0,11.0,0.0,99.71410440000182,,,,,,,,,99.70217460000276,100.9140228000033,101.71436630000244,101.69856110000546,101.69861620000302,101.71436630000244,101.71436630000244,101.71436630000244,102.43151180000132,left,1.0,17.70131309999124,,,,,,,,,,,,,,,,,,,,,,,,,,,,,sub-008,1.0,random_dot,60.24339536427741,
right,right,accuracy,,,,,0.0,0.0,0.0,0.0,6.0,0.0,12.0,1.0,102.44579140000133,,,,,,,,,102.43248650000169,103.64522900000156,104.44567559999996,104.42985380000027,104.42988210000476,104.44567559999996,104.44567559999996,104.44567559999996,107.59563670000352,right,1.0,20.13125479999144,,,,,,,,,,,,,,,,,,,,,,,,,,,,,sub-008,1.0,random_dot,60.24339536427741,
left,left,accuracy,,,,,0.0,0.0,0.0,0.0,6.0,1.0,13.0,0.0,107.6093114000032,,,,,,,,,107.59709390000351,107.95918430000164,108.75949129999935,108.74256389999935,108.74258570000528,108.75949129999935,108.75949129999935,108.75949129999935,110.17822760000126,left,1.0,18.409349799992924,,,,,,,,,,,,,,,,,,,,,,,,,,,,,sub-008,1.0,random_dot,60.24339536427741,
left,left,accuracy,,,,,0.0,0.0,0.0,0.0,7.0,0.0,14.0,0.0,110.19090570000115,,,,,,,,,110.17934010000316,110.9909117999996,111.80780190000225,111.79165970000032,111.79173330000047,111.80780190000225,111.80780190000225,111.80780190000225,114.52465099999972,left,1.0,19.706404999997176,,,,,,,,,,,,,,,,,,,,,,,,,,,,,sub-008,1.0,random_dot,60.24339536427741,
right,right,accuracy,,,,,0.0,0.0,0.0,0.0,7.0,1.0,15.0,1.0,114.53843639999832,,,,,,,,,114.52565270000196,115.33811960000456,116.15510180000274,116.13827989999844,116.1383077999999,116.15510180000274,116.15510180000274,116.15510180000274,117.4552158000006,right,1.0,18.277222099997743,,,,,,,,,,,,,,,,,,,,,,,,,,,,,sub-008,1.0,random_dot,60.24339536427741,
right,right,accuracy,,,,,0.0,0.0,0.0,0.0,8.0,0.0,16.0,1.0,117.4696183000051,,,,,,,,,117.4561576000051,117.5695440000054,118.3701691000024,118.35377710000466,118.35380609999991,118.3701691000024,118.3701691000024,118.3701691000024,120.02030000000376,right,1.0,18.630031699998653,,,,,,,,,,,,,,,,,,,,,,,,,,,,,sub-008,1.0,random_dot,60.24339536427741,
left,left,accuracy,,,,,0.0,0.0,0.0,0.0,8.0,1.0,17.0,0.0,120.03467169999932,,,,,,,,,120.02130279999984,120.13458959999844,120.93508629999997,120.91855840000062,120.91859680000198,120.93508629999997,120.93508629999997,120.93508629999997,121.9363755000013,left,1.0,17.97904259999632,,,,,,,,,,,,,,,,,,,,,,,,,,,,,sub-008,1.0,random_dot,60.24339536427741,
right,right,accuracy,,,,,0.0,0.0,0.0,0.0,9.0,0.0,18.0,1.0,121.95033140000304,,,,,,,,,121.93766830000096,122.05023259999872,122.8509389000028,122.83489869999904,122.83493660000386,122.8509389000028,122.8509389000028,122.8509389000028,125.43402710000372,left,0.0,19.569057899992917,,,,,,,,,,,,,,,,,,,,,,,,,,,,,sub-008,1.0,random_dot,60.24339536427741,
left,left,accuracy,,,,,0.0,0.0,0.0,0.0,9.0,1.0,19.0,0.0,125.44807589999982,,,,,,,,,125.4351284000004,125.5480172000025,126.34870420000516,126.33269270000164,126.33273130000453,126.34870420000516,126.34870420000516,126.34870420000516,127.46600200000104,left,1.0,18.096020199998748,,,,,,,,,,,,,,,,,,,,,,,,,,,,,sub-008,1.0,random_dot,60.24339536427741,
left,left,accuracy,,,,,0.0,0.0,0.0,0.0,10.0,0.0,20.0,0.0,127.47983110000496,,,,,,,,,127.46696660000453,128.67962020000414,129.47987970000395,129.4631423000028,129.4631664000044,129.47987970000395,129.47987970000395,129.47987970000395,131.02979939999932,left,1.0,18.52925829999731,,,,,,,,,,,,,,,,,,,,,,,,,,,,,sub-008,1.0,random_dot,60.24339536427741,
right,right,accuracy,,,,,0.0,0.0,0.0,0.0,10.0,1.0,21.0,1.0,131.04419620000408,,,,,,,,,131.03070529999968,131.84392830000434,132.64454390000174,132.6279932000034,132.62801990000298,132.64454390000174,132.64454390000174,132.64454390000174,134.345318700005,right,1.0,18.68649899999582,,,,,,,,,,,,,,,,,,,,,,,,,,,,,sub-008,1.0,random_dot,60.24339536427741,
left,left,accuracy,,,,,0.0,0.0,0.0,0.0,11.0,0.0,22.0,0.0,134.3587692000001,,,,,,,,,134.34650530000363,135.15824229999998,135.95915349999996,135.94284100000368,135.94286609999835,135.95915349999996,135.95915349999996,135.95915349999996,138.4590776000041,left,1.0,19.48073260000092,,,,,,,,,,,,,,,,,,,,,,,,,,,,,sub-008,1.0,random_dot,60.24339536427741,
right,right,accuracy,,,,,0.0,0.0,0.0,0.0,11.0,1.0,23.0,1.0,138.47307010000077,,,,,,,,,138.4600231000004,139.67267430000356,140.48971529999835,140.47295999999915,140.47298650000448,140.48971529999835,140.48971529999835,140.48971529999835,141.6230265999984,right,1.0,18.11201789999177,,,,,,,,,,,,,,,,,,,,,,,,,,,,,sub-008,1.0,random_dot,60.24339536427741,
left,left,accuracy,,,,,0.0,0.0,0.0,0.0,12.0,0.0,24.0,0.0,141.63766069999838,,,,,,,,,141.62398340000072,142.83706760000496,143.63747500000318,143.62101980000443,143.621077900003,143.63747500000318,143.63747500000318,143.63747500000318,145.7215509000016,left,1.0,19.06627899999876,,,,,,,,,,,,,,,,,,,,,,,,,,,,,sub-008,1.0,random_dot,60.24339536427741,
right,right,accuracy,,,,,0.0,0.0,0.0,0.0,12.0,1.0,25.0,1.0,145.73508720000245,,,,,,,,,145.72298030000093,146.934754599999,147.7349408000009,147.7184535999986,147.71848570000293,147.7349408000009,147.7349408000009,147.7349408000009,148.7018565000035,right,1.0,17.944708999995783,,,,,,,,,,,,,,,,,,,,,,,,,,,,,sub-008,1.0,random_dot,60.24339536427741,
left,left,accuracy,,,,,0.0,0.0,0.0,0.0,13.0,0.0,26.0,0.0,148.71641900000395,,,,,,,,,148.70270529999834,149.916535700002,150.7331301000013,150.71771699999954,150.7177511000045,150.7331301000013,150.7331301000013,150.7331301000013,152.10056440000335,left,1.0,18.34898779998912,,,,,,,,,,,,,,,,,,,,,,,,,,,,,sub-008,1.0,random_dot,60.24339536427741,
right,right,accuracy,,,,,0.0,0.0,0.0,0.0,13.0,1.0,27.0,1.0,152.11415670000133,,,,,,,,,152.10170700000162,152.91391030000523,153.71457350000128,153.6980681999994,153.6981489000027,153.71457350000128,153.71457350000128,153.71457350000128,154.732222300001,right,1.0,18.008669799994095,,,,,,,,,,,,,,,,,,,,,,,,,,,,,sub-008,1.0,random_dot,60.24339536427741,
right,right,accuracy,,,,,0.0,0.0,0.0,0.0,14.0,0.0,28.0,1.0,154.7458903000006,,,,,,,,,154.73322600000392,154.8458954000016,155.64694130000134,155.63101570000435,155.63107370000216,155.64694130000134,155.64694130000134,155.64694130000134,157.2149905000042,left,0.0,18.55269409999892,,,,,,,,,,,,,,,,,,,,,,,,,,,,,sub-008,1.0,random_dot,60.24339536427741,
left,left,accuracy,,,,,0.0,0.0,0.0,0.0,14.0,1.0,29.0,0.0,157.22790579999855,,,,,,,,,157.21768929999962,158.02728330000537,158.8282107999985,158.8126104000039,158.8126684000017,158.8282107999985,158.8282107999985,158.8282107999985,160.56254980000085,left,1.0,18.72064889999456,,,,,,,,,,,,,,,,,,,,,,,,,,,,,sub-008,1.0,random_dot,60.24339536427741,
left,left,accuracy,,,,,0.0,0.0,0.0,0.0,15.0,0.0,30.0,0.0,160.57545290000417,,,,,,,,,160.5636359000055,160.6755450000055,161.47627210000064,161.45988940000098,161.4599201000019,161.47627210000064,161.47627210000064,161.47627210000064,162.52792110000155,left,1.0,18.030591099995945,,,,,,,,,,,,,,,,,,,,,,,,,,,,,sub-008,1.0,random_dot,60.24339536427741,
right,right,accuracy,,,,,0.0,0.0,0.0,0.0,15.0,1.0,31.0,1.0,162.54092270000547,,,,,,,,,162.52968530000362,163.74024540000391,164.54096920000302,164.52428760000475,164.52431179999985,164.54096920000302,164.54096920000302,164.54096920000302,165.4415588000047,right,1.0,17.87909199999558,,,,,,,,,,,,,,,,,,,,,,,,,,,,,sub-008,1.0,random_dot,60.24339536427741,
left,left,accuracy,,,,,0.0,0.0,0.0,0.0,16.0,0.0,32.0,0.0,165.45563300000504,,,,,,,,,165.4429416999992,166.25522020000062,167.05592080000497,167.0394729000036,167.0394979000048,167.05592080000497,167.05592080000497,167.05592080000497,169.9557754999987,right,0.0,19.88456729999598,,,,,,,,,,,,,,,,,,,,,,,,,,,,,sub-008,1.0,random_dot,60.24339536427741,
right,right,accuracy,,,,,0.0,0.0,0.0,0.0,16.0,1.0,33.0,1.0,169.96963780000078,,,,,,,,,169.95726280000235,170.31938430000446,171.12015010000323,171.10366010000143,171.10368450000533,171.12015010000323,171.12015010000323,171.12015010000323,172.33745420000196,right,1.0,18.197493799998483,,,,,,,,,,,,,,,,,,,,,,,,,,,,,sub-008,1.0,random_dot,60.24339536427741,
right,right,accuracy,,,,,0.0,0.0,0.0,0.0,17.0,0.0,34.0,1.0,172.35156540000025,,,,,,,,,172.33902910000324,173.15104900000006,173.95169840000017,173.93470389999857,173.93476940000255,173.95169840000017,173.95169840000017,173.95169840000017,174.93600020000304,right,1.0,17.96057579999615,,,,,,,,,,,,,,,,,,,,,,,,,,,,,sub-008,1.0,random_dot,60.24339536427741,
left,left,accuracy,,,,,0.0,0.0,0.0,0.0,17.0,1.0,35.0,0.0,174.9497607000012,,,,,,,,,174.93703670000104,176.1491931000055,176.94974419999926,176.93288420000317,176.9329257999998,176.94974419999926,176.94974419999926,176.94974419999926,177.8836295000001,left,1.0,17.92102789999626,,,,,,,,,,,,,,,,,,,,,,,,,,,,,sub-008,1.0,random_dot,60.24339536427741,
right,right,accuracy,,,,,0.0,0.0,0.0,0.0,18.0,0.0,36.0,1.0,177.89775970000483,,,,,,,,,177.88475910000125,178.24786210000457,179.0482011999993,179.03213530000355,179.03216480000265,179.0482011999993,179.0482011999993,179.0482011999993,180.23237150000205,right,1.0,18.169172099995198,,,,,,,,,,,,,,,,,,,,,,,,,,,,,sub-008,1.0,random_dot,60.24339536427741,
left,left,accuracy,,,,,0.0,0.0,0.0,0.0,18.0,1.0,37.0,0.0,180.2466241000002,,,,,,,,,180.23395720000556,180.34669540000323,181.14692849999847,181.13080620000252,181.13083860000188,181.14692849999847,181.14692849999847,181.14692849999847,183.8800104000038,left,1.0,19.713936399995877,,,,,,,,,,,,,,,,,,,,,,,,,,,,,sub-008,1.0,random_dot,60.24339536427741,
left,left,accuracy,,,,,0.0,0.0,0.0,0.0,19.0,0.0,38.0,0.0,183.89444460000232,,,,,,,,,183.88088190000417,183.99406920000183,184.7946374000021,184.77768160000412,184.7777017000044,184.7946374000021,184.7946374000021,184.7946374000021,186.92781359999933,left,1.0,19.110568500000227,,,,,,,,,,,,,,,,,,,,,,,,,,,,,sub-008,1.0,random_dot,60.24339536427741,
right,right,accuracy,,,,,0.0,0.0,0.0,0.0,19.0,1.0,39.0,1.0,186.9422339000012,,,,,,,,,186.92883010000517,187.04204890000256,187.8427626000048,187.82635160000063,187.8263850000003,187.8427626000048,187.8427626000048,187.8427626000048,189.743132100004,right,1.0,18.889148000002024,,,,,,,,,,,,,,,,,,,,,,,,,,,,,sub-008,1.0,random_dot,60.24339536427741,
left,left,accuracy,,,,,0.0,0.0,0.0,0.0,20.0,0.0,40.0,0.0,189.7572186000034,,,,,,,,,189.7441228000025,190.9564210000026,191.75698450000343,191.74155880000035,191.74160290000145,191.75698450000343,191.75698450000343,191.75698450000343,193.12463380000557,left,1.0,18.350807999995595,,,,,,,,,,,,,,,,,,,,,,,,,,,,,sub-008,1.0,random_dot,60.24339536427741,
right,right,accuracy,,,,,0.0,0.0,0.0,0.0,20.0,1.0,41.0,1.0,193.13825770000403,,,,,,,,,193.1259976000001,193.2383829000028,194.03878210000403,194.02222370000527,194.02225739999997,194.03878210000403,194.03878210000403,194.03878210000403,195.67330840000068,right,1.0,18.619101099990075,,,,,,,,,,,,,,,,,,,,,,,,,,,,,sub-008,1.0,random_dot,60.24339536427741,
right,right,accuracy,,,,,0.0,0.0,0.0,0.0,21.0,0.0,42.0,1.0,195.68673780000245,,,,,,,,,195.6746615000011,196.0365963000004,196.8370609999984,196.8206913000031,196.8207554000037,196.8370609999984,196.8370609999984,196.8370609999984,199.37049190000107,left,0.0,19.515754299995024,,,,,,,,,,,,,,,,,,,,,,,,,,,,,sub-008,1.0,random_dot,60.24339536427741,
left,left,accuracy,,,,,0.0,0.0,0.0,0.0,21.0,1.0,43.0,0.0,199.38425980000463,,,,,,,,,199.3717901999989,199.48429990000292,200.28461900000548,200.26777980000043,200.26781050000136,200.28461900000548,200.28461900000548,200.28461900000548,201.35328320000556,left,1.0,18.058949799997208,,,,,,,,,,,,,,,,,,,,,,,,,,,,,sub-008,1.0,random_dot,60.24339536427741,
left,left,accuracy,,,,,0.0,0.0,0.0,0.0,22.0,0.0,44.0,0.0,201.3663863000038,,,,,,,,,201.3550792000024,202.56572569999844,203.36590180000348,203.3498200000031,203.3498448000028,203.36590180000348,203.36590180000348,203.36590180000348,205.4998038999984,right,0.0,19.124659399996744,,,,,,,,,,,,,,,,,,,,,,,,,,,,,sub-008,1.0,random_dot,60.24339536427741,
right,right,accuracy,,,,,0.0,0.0,0.0,0.0,22.0,1.0,45.0,1.0,205.51358820000317,,,,,,,,,205.50080249999883,205.6140220000016,206.41405040000245,206.39754930000345,206.39758760000404,206.41405040000245,206.41405040000245,206.41405040000245,208.01541890000223,right,1.0,18.582041699999536,,,,,,,,,,,,,,,,,,,,,,,,,,,,,sub-008,1.0,random_dot,60.24339536427741,
left,left,accuracy,,,,,0.0,0.0,0.0,0.0,23.0,0.0,46.0,0.0,208.0288159000047,,,,,,,,,208.01821210000344,208.82873780000227,209.64542169999916,209.62885950000052,209.6288840999987,209.64542169999916,209.64542169999916,209.64542169999916,210.7628909999985,left,1.0,18.097762999990664,,,,,,,,,,,,,,,,,,,,,,,,,,,,,sub-008,1.0,random_dot,60.24339536427741,
right,right,accuracy,,,,,0.0,0.0,0.0,0.0,23.0,1.0,47.0,1.0,210.77697940000508,,,,,,,,,210.7643745000023,211.1267892000033,211.9276297000033,211.91112019999852,211.91115269999864,211.9276297000033,211.9276297000033,211.9276297000033,213.1787534000032,right,1.0,18.235629699993297,,,,,,,,,,,,,,,,,,,,,,,,,,,,,sub-008,1.0,random_dot,60.24339536427741,
left,left,accuracy,,,,,0.0,0.0,0.0,0.0,24.0,0.0,48.0,0.0,213.1922354999988,,,,,,,,,213.1803227000055,213.99166060000425,214.79245900000387,214.7757808000024,214.775839300004,214.79245900000387,214.79245900000387,214.79245900000387,216.1424135000052,left,1.0,18.32933619999676,,,,,,,,,,,,,,,,,,,,,,,,,,,,,sub-008,1.0,random_dot,60.24339536427741,
right,right,accuracy,,,,,0.0,0.0,0.0,0.0,24.0,1.0,49.0,1.0,216.15694829999848,,,,,,,,,216.1433184999987,217.3562426999997,218.15674430000217,218.14023219999945,218.14025540000148,218.15674430000217,218.15674430000217,218.15674430000217,220.0749605000019,right,1.0,18.9044189999986,,,,,,,,,,,,,,,,,,,,,,,,,,,,,sub-008,1.0,random_dot,60.24339536427741,
right,right,accuracy,,,,,0.0,0.0,0.0,0.0,25.0,0.0,50.0,1.0,220.0879688999994,,,,,,,,,220.07678200000373,221.2872361000045,222.08761940000116,222.07162310000425,222.07165550000357,222.08761940000116,222.08761940000116,222.08761940000116,224.03791569999885,left,0.0,18.92863940000097,,,,,,,,,,,,,,,,,,,,,,,,,,,,,sub-008,1.0,random_dot,60.24339536427741,
left,left,accuracy,,,,,0.0,0.0,0.0,0.0,25.0,1.0,51.0,0.0,224.05186959999992,,,,,,,,,224.03891410000503,225.2512726999994,226.05205289999867,226.0367839000028,226.03684420000357,226.05205289999867,226.05205289999867,226.05205289999867,228.1353708000024,left,1.0,19.07391789999383,,,,,,,,,,,,,,,,,,,,,,,,,,,,,sub-008,1.0,random_dot,60.24339536427741,
right,right,accuracy,,,,,0.0,0.0,0.0,0.0,26.0,0.0,52.0,1.0,228.14915200000544,,,,,,,,,228.1362719000026,228.94900069999855,229.7492199000044,229.73275980000471,229.7327884000042,229.7492199000044,229.7492199000044,229.7492199000044,230.46670409999933,right,1.0,17.699901100000716,,,,,,,,,,,,,,,,,,,,,,,,,,,,,sub-008,1.0,random_dot,60.24339536427741,
left,left,accuracy,,,,,0.0,0.0,0.0,0.0,26.0,1.0,53.0,0.0,230.481068400004,,,,,,,,,230.46768149999843,230.831334100003,231.63170620000164,231.61552479999955,231.61556280000516,231.63170620000164,231.63170620000164,231.63170620000164,232.8829485000024,left,1.0,18.24220559999958,,,,,,,,,,,,,,,,,,,,,,,,,,,,,sub-008,1.0,random_dot,60.24339536427741,
left,left,accuracy,,,,,0.0,0.0,0.0,0.0,27.0,0.0,54.0,0.0,232.89620560000185,,,,,,,,,232.8845526000005,232.99631120000413,233.7968086000037,233.78003270000045,233.78005230000417,233.7968086000037,233.7968086000037,233.7968086000037,235.26585740000155,left,1.0,18.45746479999798,,,,,,,,,,,,,,,,,,,,,,,,,,,,,sub-008,1.0,random_dot,60.24339536427741,
right,right,accuracy,,,,,0.0,0.0,0.0,0.0,27.0,1.0,55.0,1.0,235.2781852000044,,,,,,,,,235.2668946000049,235.62802690000532,236.42859609999869,236.41252480000549,236.41256129999965,236.42859609999869,236.42859609999869,236.42859609999869,237.89594660000148,right,1.0,18.443681599994303,,,,,,,,,,,,,,,,,,,,,,,,,,,,,sub-008,1.0,random_dot,60.24339536427741,
left,left,accuracy,,,,,0.0,0.0,0.0,0.0,28.0,0.0,56.0,0.0,237.90985380000348,,,,,,,,,237.89706139999907,238.00996770000347,238.81053560000143,238.7934730000052,238.79349830000135,238.81053560000143,238.81053560000143,238.81053560000143,240.27719700000307,left,1.0,18.45452249999653,,,,,,,,,,,,,,,,,,,,,,,,,,,,,sub-008,1.0,random_dot,60.24339536427741,
right,right,accuracy,,,,,0.0,0.0,0.0,0.0,28.0,1.0,57.0,1.0,240.2916208000024,,,,,,,,,240.27821830000173,240.39192780000303,241.19207969999843,241.17584490000445,241.1758688000045,241.19207969999843,241.19207969999843,241.19207969999843,243.14230379999933,right,1.0,18.929764499996963,,,,,,,,,,,,,,,,,,,,,,,,,,,,,sub-008,1.0,random_dot,60.24339536427741,
right,right,accuracy,,,,,0.0,0.0,0.0,0.0,29.0,0.0,58.0,1.0,243.15632650000043,,,,,,,,,243.1443943999984,243.50620889999848,244.3069450000039,244.29048550000152,244.2905100999997,244.3069450000039,244.3069450000039,244.3069450000039,245.8078788999992,right,1.0,18.47785350000049,,,,,,,,,,,,,,,,,,,,,,,,,,,,,sub-008,1.0,random_dot,60.24339536427741,
left,left,accuracy,,,,,0.0,0.0,0.0,0.0,29.0,1.0,59.0,0.0,245.8214288000017,,,,,,,,,245.8091779000024,247.02070050000475,247.8215296000053,247.80484920000163,247.8049205999996,247.8215296000053,247.8215296000053,247.8215296000053,248.88945420000528,left,1.0,18.05535549999331,,,,,,,,,,,,,,,,,,,,,,,,,,,,,sub-008,1.0,random_dot,60.24339536427741,
,,accuracy,,,,,0.0,0.0,0.0,0.0,,,,,,,,,,,,,,,,,,,,,,,,,,,,,,,,,,,,,,,,,,,,,,,,,,,,,,sub-008,1.0,random_dot,60.24339536427741,
left,left,speed,,,,,0.0,1.0,1.0,1.0,0.0,0.0,0.0,0.0,252.01730289999975,,,,,,,,,252.0085448000027,252.81710820000444,253.61768719999964,253.6006960000013,253.6007194999984,253.61768719999964,253.61768719999964,253.61768719999964,254.3356827000025,left,1.0,17.70233929999813,,,,,,,,,,,,,,,,,,,,248.89106750000064,248.90278210000545,248.90278210000545,252.00258179999943,space,20.08661669999128,,,,sub-008,1.0,random_dot,60.24339536427741,
right,right,speed,,,,,0.0,1.0,1.0,1.0,0.0,1.0,1.0,1.0,254.3494456000044,,,,,,,,,254.3373161999989,254.6994067999985,255.49968920000535,255.48332400000072,255.48335159999988,255.49968920000535,255.49968920000535,255.49968920000535,256.11889850000443,right,1.0,17.597816199995577,,,,,,,,,,,,,,,,,,,,,,,,,,,,,sub-008,1.0,random_dot,60.24339536427741,
right,right,speed,,,,,0.0,1.0,1.0,1.0,1.0,0.0,2.0,1.0,256.13151780000044,,,,,,,,,256.12002960000245,256.2317065000025,257.03203049999865,257.01554970000143,257.0155771999998,257.03203049999865,257.03203049999865,257.03203049999865,257.7512043000024,left,0.0,17.710672699999122,,,,,,,,,,,,,,,,,,,,,,,,,,,,,sub-008,1.0,random_dot,60.24339536427741,
left,left,speed,,,,,0.0,1.0,1.0,1.0,1.0,1.0,3.0,0.0,257.76377250000223,,,,,,,,,257.7525464999999,258.11380420000205,258.9142637000041,258.8992453000028,258.8993042000002,258.9142637000041,258.9142637000041,258.9142637000041,259.73340889999963,left,1.0,17.80903639999451,,,,,,,,,,,,,,,,,,,,,,,,,,,,,sub-008,1.0,random_dot,60.24339536427741,
left,left,speed,,,,,0.0,1.0,1.0,1.0,2.0,0.0,4.0,0.0,259.74596400000155,,,,,,,,,259.7344815000033,260.9451459000047,261.7457235000038,261.7288727999985,261.72889600000053,261.7457235000038,261.7457235000038,261.7457235000038,262.61342900000454,left,1.0,17.85578610000084,,,,,,,,,,,,,,,,,,,,,,,,,,,,,sub-008,1.0,random_dot,60.24339536427741,
right,right,speed,,,,,0.0,1.0,1.0,1.0,2.0,1.0,5.0,1.0,262.62737010000274,,,,,,,,,262.61447050000424,263.4268226999993,264.22747650000383,264.2117854000025,264.21185870000045,264.22747650000383,264.22747650000383,264.22747650000383,264.69565729999886,right,1.0,17.45664649999526,,,,,,,,,,,,,,,,,,,,,,,,,,,,,sub-008,1.0,random_dot,60.24339536427741,
left,left,speed,,,,,0.0,1.0,1.0,1.0,3.0,0.0,6.0,0.0,264.70928060000006,,,,,,,,,264.6968887000039,265.05934949999937,265.859844300001,265.84309740000026,265.8431255000032,265.859844300001,265.859844300001,265.859844300001,267.0943297000049,left,1.0,18.218693999995597,,,,,,,,,,,,,,,,,,,,,,,,,,,,,sub-008,1.0,random_dot,60.24339536427741,
right,right,speed,,,,,0.0,1.0,1.0,1.0,3.0,1.0,7.0,1.0,267.1078626000017,,,,,,,,,267.09529280000424,267.2081848000016,268.0088214999996,267.9928071000031,267.9928422000012,268.0088214999996,268.0088214999996,268.0088214999996,268.9091718999989,right,1.0,17.88861049999832,,,,,,,,,,,,,,,,,,,,,,,,,,,,,sub-008,1.0,random_dot,60.24339536427741,
right,right,speed,,,,,0.0,1.0,1.0,1.0,4.0,0.0,8.0,1.0,268.92341260000103,,,,,,,,,268.91000400000485,269.023454400005,269.8239599000008,269.8071474000026,269.80717550000554,269.8239599000008,269.8239599000008,269.8239599000008,270.8577903000041,right,1.0,18.012916699990456,,,,,,,,,,,,,,,,,,,,,,,,,,,,,sub-008,1.0,random_dot,60.24339536427741,
left,left,speed,,,,,0.0,1.0,1.0,1.0,4.0,1.0,9.0,0.0,270.8720184000049,,,,,,,,,270.8588230000023,272.0713736000034,272.87200100000337,272.8555903000015,272.8556166000053,272.87200100000337,272.87200100000337,272.87200100000337,273.9396033000012,left,1.0,18.051953099995444,,,,,,,,,,,,,,,,,,,,,,,,,,,,,sub-008,1.0,random_dot,60.24339536427741,
right,right,speed,,,,,0.0,1.0,1.0,1.0,5.0,0.0,10.0,1.0,273.9542752999987,,,,,,,,,273.94069680000393,274.30347150000307,275.1042285000003,275.08764180000435,275.08766680000554,275.1042285000003,275.1042285000003,275.1042285000003,275.65601230000175,right,1.0,17.543014499999117,,,,,,,,,,,,,,,,,,,,,,,,,,,,,sub-008,1.0,random_dot,60.24339536427741,
left,left,speed,,,,,0.0,1.0,1.0,1.0,5.0,1.0,11.0,0.0,275.6692480999991,,,,,,,,,275.6573117000007,276.8683402000024,277.668846200002,277.65261470000405,277.6526888000008,277.668846200002,277.668846200002,277.668846200002,278.2373164000019,left,1.0,17.55696850000095,,,,,,,,,,,,,,,,,,,,,,,,,,,,,sub-008,1.0,random_dot,60.24339536427741,
right,right,speed,,,,,0.0,1.0,1.0,1.0,6.0,0.0,12.0,1.0,278.25101830000494,,,,,,,,,278.2385446000044,279.0504574000006,279.8510816999988,279.8347395000019,279.8347705000051,279.8510816999988,279.8510816999988,279.8510816999988,280.30261240000254,right,1.0,17.432457399998384,,,,,,,,,,,,,,,,,,,,,,,,,,,,,sub-008,1.0,random_dot,60.24339536427741,
left,left,speed,,,,,0.0,1.0,1.0,1.0,6.0,1.0,13.0,0.0,280.31625400000485,,,,,,,,,280.3041519000035,281.1160506000015,281.9160338000001,281.9000534000006,281.90012630000274,281.9160338000001,281.9160338000001,281.9160338000001,282.6518436000042,left,1.0,17.717020799995225,,,,,,,,,,,,,,,,,,,,,,,,,,,,,sub-008,1.0,random_dot,60.24339536427741,
left,left,speed,,,,,0.0,1.0,1.0,1.0,7.0,0.0,14.0,0.0,282.66471420000016,,,,,,,,,282.65297550000105,283.8639475000018,284.66449130000547,284.64805239999987,284.6480837000054,284.66449130000547,284.66449130000547,284.66449130000547,285.21801060000143,right,0.0,17.54197879999265,,,,,,,,,,,,,,,,,,,,,,,,,,,,,sub-008,1.0,random_dot,60.24339536427741,
right,right,speed,,,,,0.0,1.0,1.0,1.0,7.0,1.0,15.0,1.0,285.229680299999,,,,,,,,,285.2200432000027,285.5795780000044,286.3802396000028,286.36365579999983,286.36368439999933,286.3802396000028,286.3802396000028,286.3802396000028,287.04796550000174,right,1.0,17.645358099995065,,,,,,,,,,,,,,,,,,,,,,,,,,,,,sub-008,1.0,random_dot,60.24339536427741,
left,left,speed,,,,,0.0,1.0,1.0,1.0,8.0,0.0,16.0,0.0,287.0620643000002,,,,,,,,,287.0490390999985,287.16172630000074,287.96252449999884,287.9469022999983,287.9469551000002,287.96252449999884,287.96252449999884,287.96252449999884,288.64748659999896,left,1.0,17.666436699997575,,,,,,,,,,,,,,,,,,,,,,,,,,,,,sub-008,1.0,random_dot,60.24339536427741,
right,right,speed,,,,,0.0,1.0,1.0,1.0,8.0,1.0,17.0,1.0,288.66090680000343,,,,,,,,,288.6486221000014,289.4602693000052,290.2610123000049,290.24573780000355,290.2458006000016,290.2610123000049,290.2610123000049,290.2610123000049,290.8955516999995,right,1.0,17.61553529999219,,,,,,,,,,,,,,,,,,,,,,,,,,,,,sub-008,1.0,random_dot,60.24339536427741,
left,left,speed,,,,,0.0,1.0,1.0,1.0,9.0,0.0,18.0,0.0,290.9094194999998,,,,,,,,,290.89667740000004,291.25919490000524,292.0599188999986,292.04336129999865,292.04337930000474,292.0599188999986,292.0599188999986,292.0599188999986,292.7443263000023,left,1.0,17.670873099996243,,,,,,,,,,,,,,,,,,,,,,,,,,,,,sub-008,1.0,random_dot,60.24339536427741,
right,right,speed,,,,,0.0,1.0,1.0,1.0,9.0,1.0,19.0,1.0,292.7583272000047,,,,,,,,,292.74533570000494,293.1082346000039,293.90879380000115,293.8921459999983,293.8921721000006,293.90879380000115,293.90879380000115,293.90879380000115,294.409905600005,right,1.0,17.482105799994315,,,,,,,,,,,,,,,,,,,,,,,,,,,,,sub-008,1.0,random_dot,60.24339536427741,
left,left,speed,,,,,0.0,1.0,1.0,1.0,10.0,0.0,20.0,0.0,294.42394420000346,,,,,,,,,294.41086850000283,294.52399100000184,295.3245257000017,295.3084622000024,295.30849290000333,295.3245257000017,295.3245257000017,295.3245257000017,296.2752918000042,left,1.0,17.929058800000348,,,,,,,,,,,,,,,,,,,,,,,,,,,,,sub-008,1.0,random_dot,60.24339536427741,
right,right,speed,,,,,0.0,1.0,1.0,1.0,10.0,1.0,21.0,1.0,296.2893736000042,,,,,,,,,296.2763011999996,296.63929700000153,297.4402756999989,297.42350050000096,297.4235282000009,297.4402756999989,297.4402756999989,297.4402756999989,297.9747636000029,right,1.0,17.519993299996713,,,,,,,,,,,,,,,,,,,,,,,,,,,,,sub-008,1.0,random_dot,60.24339536427741,
right,right,speed,,,,,0.0,1.0,1.0,1.0,11.0,0.0,22.0,1.0,297.98830470000394,,,,,,,,,297.9760538000046,298.3384733999992,299.13873550000426,299.1225737999994,299.12260580000293,299.13873550000426,299.13873550000426,299.13873550000426,300.24028030000045,right,1.0,18.078667099995076,,,,,,,,,,,,,,,,,,,,,,,,,,,,,sub-008,1.0,random_dot,60.24339536427741,
left,left,speed,,,,,0.0,1.0,1.0,1.0,11.0,1.0,23.0,0.0,300.2536237000022,,,,,,,,,300.24264860000403,300.60325659999944,301.40410020000127,301.3874011000007,301.3874316000001,301.40410020000127,301.40410020000127,301.40410020000127,302.1223236000005,left,1.0,17.709857799993188,,,,,,,,,,,,,,,,,,,,,,,,,,,,,sub-008,1.0,random_dot,60.24339536427741,
left,left,speed,,,,,0.0,1.0,1.0,1.0,12.0,0.0,24.0,0.0,302.13565989999915,,,,,,,,,302.123322200001,302.4856360999984,303.2859720000052,303.27011190000485,303.27012990000367,303.2859720000052,303.2859720000052,303.2859720000052,304.17021110000496,left,1.0,17.863951999992423,,,,,,,,,,,,,,,,,,,,,,,,,,,,,sub-008,1.0,random_dot,60.24339536427741,
right,right,speed,,,,,0.0,1.0,1.0,1.0,12.0,1.0,25.0,1.0,304.1842670000042,,,,,,,,,304.1711338000023,305.38390540000546,306.18404230000306,306.1676587000038,306.16769990000466,306.18404230000306,306.18404230000306,306.18404230000306,307.0517265000017,right,1.0,17.847957599995425,,,,,,,,,,,,,,,,,,,,,,,,,,,,,sub-008,1.0,random_dot,60.24339536427741,
left,left,speed,,,,,0.0,1.0,1.0,1.0,13.0,0.0,26.0,0.0,307.0659164000026,,,,,,,,,307.0528676000031,307.16631710000365,307.96660520000296,307.9502033000026,307.9502301000029,307.96660520000296,307.96660520000296,307.96660520000296,309.1512035999985,left,1.0,18.16419419999147,,,,,,,,,,,,,,,,,,,,,,,,,,,,,sub-008,1.0,random_dot,60.24339536427741,
right,right,speed,,,,,0.0,1.0,1.0,1.0,13.0,1.0,27.0,1.0,309.16450160000386,,,,,,,,,309.1524561000042,309.2646615999984,310.0650453999988,310.0484652000014,310.04848550000315,310.0650453999988,310.0650453999988,310.0650453999988,310.9319428000017,right,1.0,17.855272899992997,,,,,,,,,,,,,,,,,,,,,,,,,,,,,sub-008,1.0,random_dot,60.24339536427741,
left,left,speed,,,,,0.0,1.0,1.0,1.0,14.0,0.0,28.0,0.0,310.94652280000446,,,,,,,,,310.9328986000037,311.7461183999985,312.54663480000454,312.5305834000028,312.53064150000137,312.54663480000454,312.54663480000454,312.54663480000454,313.2976684000023,left,1.0,17.730886199999077,,,,,,,,,,,,,,,,,,,,,,,,,,,,,sub-008,1.0,random_dot,60.24339536427741,
right,right,speed,,,,,0.0,1.0,1.0,1.0,14.0,1.0,29.0,1.0,313.3120076999985,,,,,,,,,313.2985575999992,313.41215780000493,314.21257999999943,314.1962477000052,314.1962741000025,314.21257999999943,314.21257999999943,314.21257999999943,314.86310380000214,right,1.0,17.640848799994274,,,,,,,,,,,,,,,,,,,,,,,,,,,,,sub-008,1.0,random_dot,60.24339536427741,
left,left,speed,,,,,0.0,1.0,1.0,1.0,15.0,0.0,30.0,0.0,314.8777524000034,,,,,,,,,314.8639250000051,315.6771241000024,316.47797070000524,316.4608982999998,316.4609217000034,316.47797070000524,316.47797070000524,316.47797070000524,317.1962077999997,left,1.0,17.707805299993197,,,,,,,,,,,,,,,,,,,,,,,,,,,,,sub-008,1.0,random_dot,60.24339536427741,
right,right,speed,,,,,0.0,1.0,1.0,1.0,15.0,1.0,31.0,1.0,317.20957830000407,,,,,,,,,317.1982943000039,318.40852150000137,319.2093141000005,319.19261969999934,319.1926463999989,319.2093141000005,319.2093141000005,319.2093141000005,319.9277543999997,right,1.0,17.70004599999811,,,,,,,,,,,,,,,,,,,,,,,,,,,,,sub-008,1.0,random_dot,60.24339536427741,
left,left,speed,,,,,0.0,1.0,1.0,1.0,16.0,0.0,32.0,0.0,319.941135400004,,,,,,,,,319.9291047000006,320.7405268000002,321.54106909999973,321.5246951000008,321.5247199000005,321.54106909999973,321.54106909999973,321.54106909999973,322.3590708000047,left,1.0,17.801002499996684,,,,,,,,,,,,,,,,,,,,,,,,,,,,,sub-008,1.0,random_dot,60.24339536427741,
right,right,speed,,,,,0.0,1.0,1.0,1.0,16.0,1.0,33.0,1.0,322.3729772000006,,,,,,,,,322.3605976000036,322.7228499000048,323.52304990000266,323.5063652000026,323.5063913999984,323.52304990000266,323.52304990000266,323.52304990000266,324.2239689999988,right,1.0,17.689279199999874,,,,,,,,,,,,,,,,,,,,,,,,,,,,,sub-008,1.0,random_dot,60.24339536427741,
left,left,speed,,,,,0.0,1.0,1.0,1.0,17.0,0.0,34.0,0.0,324.2380973000036,,,,,,,,,324.224799100004,324.5881980000049,325.3885942000052,325.37247149999894,325.3725057000047,325.3885942000052,325.3885942000052,325.3885942000052,326.00687100000505,left,1.0,17.605402599998342,,,,,,,,,,,,,,,,,,,,,,,,,,,,,sub-008,1.0,random_dot,60.24339536427741,
right,right,speed,,,,,0.0,1.0,1.0,1.0,17.0,1.0,35.0,1.0,326.02038190000167,,,,,,,,,326.0081543000051,326.12048700000014,326.9209134000048,326.90412820000347,326.9041514000055,326.9209134000048,326.9209134000048,326.9209134000048,327.63848639999924,right,1.0,17.707115899997007,,,,,,,,,,,,,,,,,,,,,,,,,,,,,sub-008,1.0,random_dot,60.24339536427741,
right,right,speed,,,,,0.0,1.0,1.0,1.0,18.0,0.0,36.0,1.0,327.65300690000004,,,,,,,,,327.6394588000039,328.0027726000044,328.8032705000005,328.78660310000123,328.7866291000028,328.8032705000005,328.8032705000005,328.8032705000005,329.50429760000407,right,1.0,17.691854999997304,,,,,,,,,,,,,,,,,,,,,,,,,,,,,sub-008,1.0,random_dot,60.24339536427741,
left,left,speed,,,,,0.0,1.0,1.0,1.0,18.0,1.0,37.0,0.0,329.5182577000014,,,,,,,,,329.5051949000044,329.61869590000424,330.41863880000164,330.4029085000002,330.4029340000052,330.41863880000164,330.41863880000164,330.41863880000164,331.15288800000417,left,1.0,17.710948099993402,,,,,,,,,,,,,,,,,,,,,,,,,,,,,sub-008,1.0,random_dot,60.24339536427741,
left,left,speed,,,,,0.0,1.0,1.0,1.0,19.0,0.0,38.0,0.0,331.1673458000005,,,,,,,,,331.1540238000016,331.9667970000009,332.7674932000009,332.7508840000009,332.75097200000164,332.7674932000009,332.7674932000009,332.7674932000009,333.38513239999884,right,0.0,17.60413079999853,,,,,,,,,,,,,,,,,,,,,,,,,,,,,sub-008,1.0,random_dot,60.24339536427741,
right,right,speed,,,,,0.0,1.0,1.0,1.0,19.0,1.0,39.0,1.0,333.3992941000033,,,,,,,,,333.38640229999874,334.5984271000052,335.3994232000041,335.38292950000323,335.38299990000087,335.3994232000041,335.3994232000041,335.3994232000041,336.2500207000048,right,1.0,17.840043199998036,,,,,,,,,,,,,,,,,,,,,,,,,,,,,sub-008,1.0,random_dot,60.24339536427741,
right,right,speed,,,,,0.0,1.0,1.0,1.0,20.0,0.0,40.0,1.0,336.26409409999906,,,,,,,,,336.25089400000434,336.6138119000025,337.4143043000004,337.3977381000004,337.3977640000012,337.4143043000004,337.4143043000004,337.4143043000004,338.1166053000052,right,1.0,17.69187069999316,,,,,,,,,,,,,,,,,,,,,,,,,,,,,sub-008,1.0,random_dot,60.24339536427741,
left,left,speed,,,,,0.0,1.0,1.0,1.0,20.0,1.0,41.0,0.0,338.12938040000154,,,,,,,,,338.1177095000021,338.4793034000031,339.27984780000406,339.26339250000456,339.26342190000287,339.27984780000406,339.27984780000406,339.27984780000406,339.931928900005,left,1.0,17.641472199997224,,,,,,,,,,,,,,,,,,,,,,,,,,,,,sub-008,1.0,random_dot,60.24339536427741,
right,right,speed,,,,,0.0,1.0,1.0,1.0,21.0,0.0,42.0,1.0,339.9449557000044,,,,,,,,,339.9330244000012,341.1442682000052,341.9452212000033,341.9293670000043,341.9294149999987,341.9452212000033,341.9452212000033,341.9452212000033,342.5957295000044,right,1.0,17.63809709999623,,,,,,,,,,,,,,,,,,,,,,,,,,,,,sub-008,1.0,random_dot,60.24339536427741,
left,left,speed,,,,,0.0,1.0,1.0,1.0,21.0,1.0,43.0,0.0,342.6099740999998,,,,,,,,,342.5965317000009,343.8093424000035,344.6099628000011,344.59509999999864,344.59516799999983,344.6099628000011,344.6099628000011,344.6099628000011,345.4109406999996,left,1.0,17.785983299996587,,,,,,,,,,,,,,,,,,,,,,,,,,,,,sub-008,1.0,random_dot,60.24339536427741,
right,right,speed,,,,,0.0,1.0,1.0,1.0,22.0,0.0,44.0,1.0,345.42472819999966,,,,,,,,,345.4121761999995,345.5248428999985,346.3253638000024,346.3087143000012,346.308741300003,346.3253638000024,346.3253638000024,346.3253638000024,346.9432375000033,right,1.0,17.601684299996123,,,,,,,,,,,,,,,,,,,,,,,,,,,,,sub-008,1.0,random_dot,60.24339536427741,
left,left,speed,,,,,0.0,1.0,1.0,1.0,22.0,1.0,45.0,0.0,346.95724530000007,,,,,,,,,346.9443656000003,347.0572628000009,347.85766680000233,347.8410976000014,347.84112319999986,347.85766680000233,347.85766680000233,347.85766680000233,348.70853080000234,right,0.0,17.83492989998922,,,,,,,,,,,,,,,,,,,,,,,,,,,,,sub-008,1.0,random_dot,60.24339536427741,
left,left,speed,,,,,0.0,1.0,1.0,1.0,23.0,0.0,46.0,0.0,348.7226096000013,,,,,,,,,348.7094905000049,349.52214720000484,350.32286020000174,350.3068446000034,350.3068710000007,350.32286020000174,350.32286020000174,350.32286020000174,351.3570886000016,right,0.0,18.010619099994074,,,,,,,,,,,,,,,,,,,,,,,,,,,,,sub-008,1.0,random_dot,60.24339536427741,
right,right,speed,,,,,0.0,1.0,1.0,1.0,23.0,1.0,47.0,1.0,351.3709308000034,,,,,,,,,351.3590575000053,351.47097719999874,352.27154410000367,352.2557362000007,352.25575870000466,352.27154410000367,352.27154410000367,352.27154410000367,353.48917860000074,right,1.0,18.204803799999357,,,,,,,,,,,,,,,,,,,,,,,,,,,,,sub-008,1.0,random_dot,60.24339536427741,
right,right,speed,,,,,0.0,1.0,1.0,1.0,24.0,0.0,48.0,1.0,353.50367830000323,,,,,,,,,353.4902854000029,353.6030940000055,354.40323889999854,354.38727089999884,354.3872945000039,354.40323889999854,354.40323889999854,354.40323889999854,357.1199198000031,right,1.0,19.69748499999696,,,,,,,,,,,,,,,,,,,,,,,,,,,,,sub-008,1.0,random_dot,60.24339536427741,
left,left,speed,,,,,0.0,1.0,1.0,1.0,24.0,1.0,49.0,0.0,357.13393910000013,,,,,,,,,357.1212532999998,357.9335879999999,358.7343636000005,358.7171875999993,358.7172152999992,358.7343636000005,358.7343636000005,358.7343636000005,359.585582300002,left,1.0,17.841066399996635,,,,,,,,,,,,,,,,,,,,,,,,,,,,,sub-008,1.0,random_dot,60.24339536427741,
left,left,speed,,,,,0.0,1.0,1.0,1.0,25.0,0.0,50.0,0.0,359.5991714000047,,,,,,,,,359.58665390000533,359.9493503000049,360.74956500000553,360.7331839000035,360.73321510000096,360.74956500000553,360.74956500000553,360.74956500000553,362.03332560000126,left,1.0,18.26631559999805,,,,,,,,,,,,,,,,,,,,,,,,,,,,,sub-008,1.0,random_dot,60.24339536427741,
right,right,speed,,,,,0.0,1.0,1.0,1.0,25.0,1.0,51.0,1.0,362.047813600002,,,,,,,,,362.0342409000005,362.1475524999987,362.9482302000033,362.9323576000024,362.9323855000039,362.9482302000033,362.9482302000033,362.9482302000033,363.7835971000022,right,1.0,17.820181399998546,,,,,,,,,,,,,,,,,,,,,,,,,,,,,sub-008,1.0,random_dot,60.24339536427741,
right,right,speed,,,,,0.0,1.0,1.0,1.0,26.0,0.0,52.0,1.0,363.7965537000055,,,,,,,,,363.7852136000001,364.595871000005,365.3965424999988,365.3804259000026,365.38045430000057,365.3965424999988,365.3965424999988,365.3965424999988,366.28105280000455,left,0.0,17.86788169999636,,,,,,,,,,,,,,,,,,,,,,,,,,,,,sub-008,1.0,random_dot,60.24339536427741,
left,left,speed,,,,,0.0,1.0,1.0,1.0,26.0,1.0,53.0,0.0,366.2948146999988,,,,,,,,,366.2819817999989,366.64461709999887,367.4452268000023,367.4286611999996,367.4286855000028,367.4452268000023,367.4452268000023,367.4452268000023,368.7804666000011,left,1.0,18.3261721999952,,,,,,,,,,,,,,,,,,,,,,,,,,,,,sub-008,1.0,random_dot,60.24339536427741,
left,left,speed,,,,,0.0,1.0,1.0,1.0,27.0,0.0,54.0,0.0,368.79325280000194,,,,,,,,,368.7818094000031,369.14328640000167,369.9437060000055,369.9273720000056,369.9273949000053,369.9437060000055,369.9437060000055,369.9437060000055,371.3450838999997,left,1.0,18.38376810000045,,,,,,,,,,,,,,,,,,,,,,,,,,,,,sub-008,1.0,random_dot,60.24339536427741,
right,right,speed,,,,,0.0,1.0,1.0,1.0,27.0,1.0,55.0,1.0,371.3583218999993,,,,,,,,,371.34666760000255,372.1578240000017,372.9582999999984,372.9416779000021,372.9417016000007,372.9582999999984,372.9582999999984,372.9582999999984,374.026228900002,right,1.0,18.049371399996744,,,,,,,,,,,,,,,,,,,,,,,,,,,,,sub-008,1.0,random_dot,60.24339536427741,
right,right,speed,,,,,0.0,1.0,1.0,1.0,28.0,0.0,56.0,1.0,374.0399139000001,,,,,,,,,374.02747340000496,374.3897013000024,375.190691900003,375.17362590000266,375.1736525000015,375.190691900003,375.190691900003,375.190691900003,376.8093774000008,right,1.0,18.59529720000137,,,,,,,,,,,,,,,,,,,,,,,,,,,,,sub-008,1.0,random_dot,60.24339536427741,
left,left,speed,,,,,0.0,1.0,1.0,1.0,28.0,1.0,57.0,0.0,376.8218660999992,,,,,,,,,376.8106093000024,377.1713638000001,377.97224560000177,377.9564711999992,377.9565184000021,377.97224560000177,377.97224560000177,377.97224560000177,379.0389912000028,left,1.0,18.050469499998144,,,,,,,,,,,,,,,,,,,,,,,,,,,,,sub-008,1.0,random_dot,60.24339536427741,
left,left,speed,,,,,0.0,1.0,1.0,1.0,29.0,0.0,58.0,0.0,379.05344889999833,,,,,,,,,379.0398353000055,380.2528070000044,381.0533641000002,381.0369317000004,381.0369534999991,381.0533641000002,381.0533641000002,381.0533641000002,382.47052700000495,left,1.0,18.399316499991983,,,,,,,,,,,,,,,,,,,,,,,,,,,,,sub-008,1.0,random_dot,60.24339536427741,
right,right,speed,,,,,0.0,1.0,1.0,1.0,29.0,1.0,59.0,1.0,382.48454850000417,,,,,,,,,382.4714033000055,382.5846337000039,383.38530490000267,383.3699118000004,383.3699755999987,383.38530490000267,383.38530490000267,383.38530490000267,384.47051810000266,right,1.0,18.06341249999969,,,,,,,,,,,,,,,,,,,,,,,,,,,,,sub-008,1.0,random_dot,60.24339536427741,
,,speed,,,,,0.0,1.0,1.0,1.0,,,,,,,,,,,,,,,,,,,,,,,,,,,,,,,,,,,,,,,,,,,,,,,,,,,,,,sub-008,1.0,random_dot,60.24339536427741,
,,,,,,,,,,,,,,,,,,,,,,,,,,,,,,,,,,,,,,,,,,,,,,,,,,,,,,,,,,,,,,384.47120300000097,384.4834648000033,sub-008,,,,
