direction,corrAns,randomInstr,practice_trials.thisRepN,practice_trials.thisTrialN,practice_trials.thisN,practice_trials.thisIndex,instr_trials.thisRepN,instr_trials.thisTrialN,instr_trials.thisN,instr_trials.thisIndex,test_trials.thisRepN,test_trials.thisTrialN,test_trials.thisN,test_trials.thisIndex,thisRow.t,notes,general_instruction.started,textGeneralInstr.started,respGeneralInstr.started,general_instruction.stopped,respGeneralInstr.keys,respGeneralInstr.rt,respGeneralInstr.duration,ITI.started,fixcross.started,fixcross.stopped,ITI.stopped,dots.started,backgroundDots.started,stimulusDots.started,respDots.started,dots.stopped,respDots.keys,respDots.corr,respDots.rt,respDots.duration,feedback.started,textFeedback.started,textFeedback.stopped,feedback.stopped,stimulusDots.stopped,info.started,textInfo.started,keyRespInfo.started,info.stopped,keyRespInfo.keys,keyRespInfo.rt,keyRespInfo.duration,test_instruction.started,textTestInstr.started,respTestInstr.started,test_instruction.stopped,respTestInstr.keys,respTestInstr.rt,respTestInstr.duration,random_instruction.started,textRandomInstr.started,respRandomInstr.started,random_instruction.stopped,respRandomInstr.keys,respRandomInstr.rt,respRandomInstr.duration,goodbye.started,textGoodbye.started,goodbye.stopped,participant,session,expName,frameRate,Unnamed: 73
,,,,,,,,,,,,,,,,,0.0065209999447688,0.0120820999145507,0.0120820999145507,41.64021609991323,space,66.75842389999889,,,,,,,,,,,,,,,,,,,,,,,,,,,,,,,,,,,,,,,,,,,,sub-230,1.0,random_dot,60.06842991699003,
left,left,,0.0,0.0,0.0,0.0,,,,,,,,,41.66384439996909,,,,,,,,,41.660716100013815,42.45425909990445,43.25457099999767,43.238007799955085,43.238038199953735,43.25457099999767,43.25457099999767,43.25457099999767,45.68778389994986,left,1.0,27.57461340003647,,45.68881079996936,45.70208780001849,46.20193609991111,46.185933299944736,,,,,,,,,,,,,,,,,,,,,,,,,,sub-230,1.0,random_dot,60.06842991699003,
right,right,,0.0,1.0,1.0,1.0,,,,,,,,,46.20193609991111,,,,,,,,,46.18636900000274,46.30192719993647,47.10234300000593,47.08595320000313,47.0859964999836,47.10234300000593,47.10234300000593,47.10234300000593,50.318650999921374,left,0.0,28.34545830008574,,50.31966249994002,50.33468849991914,,50.83260089997202,,,,,,,,,,,,,,,,,,,,,,,,,,sub-230,1.0,random_dot,60.06842991699003,
right,right,,1.0,0.0,2.0,1.0,,,,,,,,,50.84915219992399,,,,,,,,,50.83318949991372,51.63199599995278,52.432377799996175,52.41519969992805,52.415214699925855,52.432377799996175,52.432377799996175,52.432377799996175,55.78155829990283,left,0.0,28.478052200051025,,55.78228849999141,55.79603749990929,56.295726599986665,56.27958319999743,,,,,,,,,,,,,,,,,,,,,,,,,,sub-230,1.0,random_dot,60.06842991699003,
left,left,,1.0,1.0,3.0,0.0,,,,,,,,,56.295726599986665,,,,,,,,,56.27993119996973,56.39583269995637,57.19614789995831,57.17963259993121,57.17966909997631,57.19614789995831,57.19614789995831,57.19614789995831,61.34532369999215,right,0.0,29.277666400070306,,61.346323799924,61.35941519995686,61.85897569998633,61.84326739993412,,,,,,,,,,,,,,,,,,,,,,,,,,sub-230,1.0,random_dot,60.06842991699003,
left,left,,2.0,0.0,4.0,0.0,,,,,,,,,61.85897569998633,,,,,,,,,61.84384380001575,61.95907450001687,62.75943659991026,62.74246909993235,62.7424963999074,62.75943659991026,62.75943659991026,62.75943659991026,69.35636619990692,left,1.0,31.737697800039317,,69.35708759992849,69.37109739996959,69.87081809993833,69.85507920000236,67.75617919990327,,,,,,,,,,,,,,,,,,,,,,,,,sub-230,1.0,random_dot,60.06842991699003,
right,right,,2.0,1.0,5.0,1.0,,,,,,,,,69.87081809993833,,,,,,,,,69.85579469997901,69.97076669998933,70.77084429992829,70.75381249992643,70.75382839993108,70.77084429992829,70.77084429992829,70.77084429992829,75.93531289999373,left,0.0,30.30658120010048,,75.93567069992423,75.95001189992763,76.45001269993372,76.43414489994757,75.76799019996542,,,,,,,,,,,,,,,,,,,,,,,,,sub-230,1.0,random_dot,60.06842991699003,
left,left,,3.0,0.0,6.0,0.0,,,,,,,,,76.45001269993372,,,,,,,,,76.43468669999857,76.54999540001154,77.35035099997185,77.3333328999579,77.33335560001433,77.35035099997185,77.35035099997185,77.35035099997185,83.23070710001048,left,1.0,31.0101791000925,,83.2310342999408,83.24599969992414,83.74557369994,83.72996359993704,82.34719409991521,,,,,,,,,,,,,,,,,,,,,,,,,sub-230,1.0,random_dot,60.06842991699003,
right,right,,3.0,1.0,7.0,1.0,,,,,,,,,83.74557369994,,,,,,,,,83.73063269990962,84.9448019999545,85.74508969997987,85.72836389997974,85.7283890999388,85.74508969997987,85.74508969997987,85.74508969997987,88.21153919992503,right,1.0,27.60506010008976,,88.21222939994186,88.22612559993286,88.72587179997936,88.71016739995684,,,,,,,,,,,,,,,,,,,,,,,,,,sub-230,1.0,random_dot,60.06842991699003,
left,left,,4.0,0.0,8.0,0.0,,,,,,,,,88.72587179997936,,,,,,,,,88.71095139998943,89.9251506999135,90.72559389995877,90.70888179994654,90.7089170999825,90.72559389995877,90.72559389995877,90.72559389995877,93.55811799992809,left,1.0,27.96900010004174,,93.55881319998298,93.57284499995876,94.0726590999402,94.05725929990876,,,,,,,,,,,,,,,,,,,,,,,,,,sub-230,1.0,random_dot,60.06842991699003,
right,right,,4.0,1.0,9.0,1.0,,,,,,,,,94.0726590999402,,,,,,,,,94.05818099994212,94.4222837999696,95.2227746999124,95.2060749999946,95.20610830001532,95.2227746999124,95.2227746999124,95.2227746999124,98.40489429992158,right,1.0,28.310489799943756,,98.40529849997256,98.41987209999934,98.9194916000124,98.9033431999851,,,,,,,,,,,,,,,,,,,,,,,,,,sub-230,1.0,random_dot,60.06842991699003,
left,left,,5.0,0.0,10.0,0.0,,,,,,,,,98.9194916000124,,,,,,,,,98.90364089992364,99.2695425999118,100.06967210001312,100.05279240000527,100.05281549994834,100.06967210001312,100.06967210001312,100.06967210001312,101.80290499993134,left,1.0,26.87659620004706,,101.80343410000204,101.81776279991028,102.31737299996894,102.30148479994386,,,,,,,,,,,,,,,,,,,,,,,,,,sub-230,1.0,random_dot,60.06842991699003,
right,right,,5.0,1.0,11.0,1.0,,,,,,,,,102.31737299996894,,,,,,,,,102.30196889990476,103.51677250000648,104.31706169992684,104.30018299992662,104.30020249995869,104.31706169992684,104.31706169992684,104.31706169992684,107.96601769991685,right,1.0,28.790241900016557,,107.9667054999154,107.98060929996429,108.48026489990298,108.46429659996647,,,,,,,,,,,,,,,,,,,,,,,,,,sub-230,1.0,random_dot,60.06842991699003,
right,right,,6.0,0.0,12.0,1.0,,,,,,,,,108.48026489990298,,,,,,,,,108.46478749997914,108.58029660000466,109.38064399990252,109.3636938999407,109.3637137999758,109.38064399990252,109.38064399990252,109.38064399990252,112.54652039997744,right,1.0,28.308459800085984,,112.54721250000875,112.56112179998308,113.0607773999218,113.04487019998489,,,,,,,,,,,,,,,,,,,,,,,,,,sub-230,1.0,random_dot,60.06842991699003,
left,left,,6.0,1.0,13.0,0.0,,,,,,,,,113.0607773999218,,,,,,,,,113.04536009998992,114.26000789995304,115.06052960001398,115.043750599958,115.0437800999498,115.06052960001398,115.06052960001398,115.06052960001398,118.009857499972,left,1.0,28.092846700106747,,118.01046189991756,118.02444700000342,118.5240299999714,118.50825359998272,,,,,,,,,,,,,,,,,,,,,,,,,,sub-230,1.0,random_dot,60.06842991699003,
left,left,,7.0,0.0,14.0,0.0,,,,,,,,,118.5240299999714,,,,,,,,,118.508755799965,118.87399549991824,119.67439059994648,119.65730500000063,119.65731789998244,119.67439059994648,119.67439059994648,119.67439059994648,123.506443799939,left,1.0,28.972311199991964,,123.50704289996064,123.52107359992806,124.02074449998328,124.00484399998096,,,,,,,,,,,,,,,,,,,,,,,,,,sub-230,1.0,random_dot,60.06842991699003,
right,right,,7.0,1.0,15.0,1.0,,,,,,,,,124.02074449998328,,,,,,,,,124.00533019995784,124.819995299913,125.62034409993794,125.60323689994402,125.60325059993193,125.62034409993794,125.62034409993794,125.62034409993794,128.86967239994556,right,1.0,28.39192239998374,,128.87016189994756,128.88441119994968,129.3840949999867,129.36810739990324,,,,,,,,,,,,,,,,,,,,,,,,,,sub-230,1.0,random_dot,60.06842991699003,
right,right,,8.0,0.0,16.0,1.0,,,,,,,,,129.3840949999867,,,,,,,,,129.36853279999923,129.73391399998218,130.5342466000002,130.51730119995773,130.51732049998827,130.5342466000002,130.5342466000002,130.5342466000002,133.18359749997035,left,0.0,27.7909828000702,,133.18395500001498,133.19844820001163,133.69811959995425,133.68207979993895,,,,,,,,,,,,,,,,,,,,,,,,,,sub-230,1.0,random_dot,60.06842991699003,
left,left,,8.0,1.0,17.0,0.0,,,,,,,,,133.69811959995425,,,,,,,,,133.68250829994213,134.49766090000048,135.29795999999624,135.28116699995007,135.2811935999198,135.29795999999624,135.29795999999624,135.29795999999624,136.8316089999862,left,1.0,26.662729900097474,,136.8322606999427,136.8462502999464,137.3459536000155,137.32968650001567,,,,,,,,,,,,,,,,,,,,,,,,,,sub-230,1.0,random_dot,60.06842991699003,
left,left,,9.0,0.0,18.0,0.0,,,,,,,,,137.3459536000155,,,,,,,,,137.33003319997806,137.44593329995405,138.24625759990886,138.22921639995184,138.2292393000098,138.24625759990886,138.24625759990886,138.24625759990886,141.97840659995563,left,1.0,28.86767659999896,,141.9790048999712,141.99302719999105,142.49276789999567,142.47660559997894,,,,,,,,,,,,,,,,,,,,,,,,,,sub-230,1.0,random_dot,60.06842991699003,
right,right,,9.0,1.0,19.0,1.0,,,,,,,,,142.49276789999567,,,,,,,,,142.47684439993463,143.29227839992382,144.09266580000985,144.0755689999787,144.0755852999864,144.09266580000985,144.09266580000985,144.09266580000985,146.32572650001384,right,1.0,27.366655600024387,,146.3263601999497,146.34041439997964,146.84021509997547,146.8242365999613,,,,,,,,,,,,,,,,,,,,,,,,,,sub-230,1.0,random_dot,60.06842991699003,
,,,,,,,,,,,,,,,,,,,,,,,,,,,,,,,,,,,,,,,,,,146.82432409992907,146.84021509997547,146.84021509997547,154.0709654999664,space,32.371593400021084,,,,,,,,,,,,,,,,,,,sub-230,1.0,random_dot,60.06842991699003,
,,,,,,,,,,,,,,,,,,,,,,,,,,,,,,,,,,,,,,,,,,,,,,,,,154.0710257999599,154.08605089993216,154.08605089993216,162.98075559991412,space,34.03255700005684,,,,,,,,,,,,sub-230,1.0,random_dot,60.06842991699003,
left,left,accuracy,,,,,0.0,0.0,0.0,0.0,0.0,0.0,0.0,0.0,167.3272504999768,,,,,,,,,167.3165042999899,168.5268673999235,169.327218899969,169.31082979997154,169.31088130001444,169.327218899969,169.327218899969,169.327218899969,169.81121790001637,right,0.0,25.62032370013185,,,,,,,,,,,,,,,,,,,,,162.98323569993954,162.996721399948,162.996721399948,167.31147770001553,space,29.44546060007997,,,,,sub-230,1.0,random_dot,60.06842991699003,
right,right,accuracy,,,,,0.0,0.0,0.0,0.0,0.0,1.0,1.0,1.0,169.82588039990517,,,,,,,,,169.8126950999722,170.62548609997611,171.42581990000326,171.4089070999762,171.40892899991013,171.42581990000326,171.42581990000326,171.42581990000326,173.6418943000026,right,1.0,27.348756300052628,,,,,,,,,,,,,,,,,,,,,,,,,,,,,,,sub-230,1.0,random_dot,60.06842991699003,
left,left,accuracy,,,,,0.0,0.0,0.0,0.0,1.0,0.0,2.0,0.0,173.65690850000829,,,,,,,,,173.64261569990776,174.4563877999317,175.25690679997206,175.2403828999959,175.24041939992458,175.25690679997206,175.25690679997206,175.25690679997206,176.27431309991516,left,1.0,26.147201900021173,,,,,,,,,,,,,,,,,,,,,,,,,,,,,,,sub-230,1.0,random_dot,60.06842991699003,
right,right,accuracy,,,,,0.0,0.0,0.0,0.0,1.0,1.0,3.0,1.0,176.2885938999243,,,,,,,,,176.27580189995933,176.63845209998544,177.43878580001183,177.42196029995102,177.42198859993368,177.43878580001183,177.43878580001183,177.43878580001183,179.18941290001385,left,0.0,26.892647300031967,,,,,,,,,,,,,,,,,,,,,,,,,,,,,,,sub-230,1.0,random_dot,60.06842991699003,
right,right,accuracy,,,,,0.0,0.0,0.0,0.0,2.0,0.0,4.0,1.0,179.20356319996063,,,,,,,,,179.19123629992828,179.3034879999468,180.10383139993064,180.08696139999665,180.08698619995266,180.10383139993064,180.10383139993064,180.10383139993064,181.72156939993147,left,0.0,26.760934000019915,,,,,,,,,,,,,,,,,,,,,,,,,,,,,,,sub-230,1.0,random_dot,60.06842991699003,
left,left,accuracy,,,,,0.0,0.0,0.0,0.0,2.0,1.0,5.0,0.0,181.73528869997244,,,,,,,,,181.72352699993644,182.93438280001283,183.7349422000116,183.71795089996888,183.7179727999028,183.7349422000116,183.7349422000116,183.7349422000116,188.23350089997984,right,0.0,29.640157400048334,,,,,,,,,,,,,,,,,,,,,,,,,,,,,,,sub-230,1.0,random_dot,60.06842991699003,
right,right,accuracy,,,,,0.0,0.0,0.0,0.0,3.0,0.0,6.0,1.0,188.24792489991523,,,,,,,,,188.2349938999396,189.44735529995523,190.2477990000043,190.23122199997303,190.23127419990487,190.2477990000043,190.2477990000043,190.2477990000043,194.81254539999645,right,1.0,29.705110100097954,,,,,,,,,,,,,,,,,,,,,,,,,,,,,,,sub-230,1.0,random_dot,60.06842991699003,
left,left,accuracy,,,,,0.0,0.0,0.0,0.0,3.0,1.0,7.0,0.0,194.8271841999376,,,,,,,,,194.8137420999119,194.92712639993988,195.72750649997036,195.7104459999828,195.71046059997752,195.72750649997036,195.72750649997036,195.72750649997036,198.9768452999415,left,1.0,28.38412320008501,,,,,,,,,,,,,,,,,,,,,,,,,,,,,,,sub-230,1.0,random_dot,60.06842991699003,
right,right,accuracy,,,,,0.0,0.0,0.0,0.0,4.0,0.0,8.0,1.0,198.9912911999272,,,,,,,,,198.9782705999678,199.0912493999349,199.89170599996575,199.87485579994973,199.8748807999073,199.89170599996575,199.89170599996575,199.89170599996575,202.3587019999977,right,1.0,27.610987700056285,,,,,,,,,,,,,,,,,,,,,,,,,,,,,,,sub-230,1.0,random_dot,60.06842991699003,
left,left,accuracy,,,,,0.0,0.0,0.0,0.0,4.0,1.0,9.0,0.0,202.3725521999877,,,,,,,,,202.36018449999392,202.72253909998108,203.52282289997677,203.506000299938,203.50602969992903,203.52282289997677,203.52282289997677,203.52282289997677,208.78696299996227,right,0.0,30.403085400001142,,,,,,208.51976219995413,,,,,,,,,,,,,,,,,,,,,,,,,sub-230,1.0,random_dot,60.06842991699003,
right,right,accuracy,,,,,0.0,0.0,0.0,0.0,5.0,0.0,10.0,1.0,208.80185149994213,,,,,,,,,208.78778609994333,209.1517742999131,209.9520227999892,209.9347437999677,209.93476049997844,209.9520227999892,209.9520227999892,209.9520227999892,213.25112329993863,right,1.0,28.42955170001369,,,,,,,,,,,,,,,,,,,,,,,,,,,,,,,sub-230,1.0,random_dot,60.06842991699003,
left,left,accuracy,,,,,0.0,0.0,0.0,0.0,5.0,1.0,11.0,0.0,213.26586029992905,,,,,,,,,213.25214909994972,214.0654258999275,214.86573479999788,214.84859479998704,214.8486095999833,214.86573479999788,214.86573479999788,214.86573479999788,217.03208949998952,left,1.0,27.30555699998513,,,,,,,,,,,,,,,,,,,,,,,,,,,,,,,sub-230,1.0,random_dot,60.06842991699003,
right,right,accuracy,,,,,0.0,0.0,0.0,0.0,6.0,0.0,12.0,1.0,217.0468234999571,,,,,,,,,217.0332745999331,217.8463369999081,218.64681509998627,218.6300717999693,218.63010149996265,218.64681509998627,218.64681509998627,218.64681509998627,223.678914399934,right,1.0,30.1760470001027,,,,,,223.64365769992585,,,,,,,,,,,,,,,,,,,,,,,,,sub-230,1.0,random_dot,60.06842991699003,
left,left,accuracy,,,,,0.0,0.0,0.0,0.0,6.0,1.0,13.0,0.0,223.69280530000103,,,,,,,,,223.68048699991775,223.79282759991477,224.59310269996055,224.5760817999253,224.5760961999185,224.59310269996055,224.59310269996055,224.59310269996055,229.02568779990543,left,1.0,29.57648250006605,,,,,,,,,,,,,,,,,,,,,,,,,,,,,,,sub-230,1.0,random_dot,60.06842991699003,
right,right,accuracy,,,,,0.0,0.0,0.0,0.0,7.0,0.0,14.0,1.0,229.0394878999796,,,,,,,,,229.02727059996687,230.23875489993952,231.0392096999567,231.0221591999289,231.0221740999259,231.0392096999567,231.0392096999567,231.0392096999567,234.2214303999208,right,1.0,28.31234800000675,,,,,,,,,,,,,,,,,,,,,,,,,,,,,,,sub-230,1.0,random_dot,60.06842991699003,
left,left,accuracy,,,,,0.0,0.0,0.0,0.0,7.0,1.0,15.0,0.0,234.23626279993917,,,,,,,,,234.22235830000136,234.33642059995327,235.13672299997413,235.11995500000197,235.1199806999648,235.13672299997413,235.13672299997413,235.13672299997413,236.38706609990916,left,1.0,26.38182750006672,,,,,,,,,,,,,,,,,,,,,,,,,,,,,,,sub-230,1.0,random_dot,60.06842991699003,
left,left,accuracy,,,,,0.0,0.0,0.0,0.0,8.0,0.0,16.0,0.0,236.40158519998656,,,,,,,,,236.3883926999988,237.6010285000084,238.40133369993416,238.38440809992608,238.38443360000383,238.40133369993416,238.40133369993416,238.40133369993416,241.60089000000156,left,1.0,28.338867499958724,,,,,,,,,,,,,,,,,,,,,,,,,,,,,,,sub-230,1.0,random_dot,60.06842991699003,
right,right,accuracy,,,,,0.0,0.0,0.0,0.0,8.0,1.0,17.0,1.0,241.61505279992707,,,,,,,,,241.6023673999589,241.9648831000086,242.76536759990267,242.74854339996816,242.7485696999356,242.76536759990267,242.76536759990267,242.76536759990267,245.69787209993228,right,1.0,28.069857700029388,,,,,,,,,,,,,,,,,,,,,,,,,,,,,,,sub-230,1.0,random_dot,60.06842991699003,
left,left,accuracy,,,,,0.0,0.0,0.0,0.0,9.0,0.0,18.0,0.0,245.71259369992185,,,,,,,,,245.6990352999419,246.91182549996304,247.7122336999746,247.6957678999752,247.69580759992823,247.7122336999746,247.7122336999746,247.7122336999746,249.1123981999699,left,1.0,26.53612270008307,,,,,,,,,,,,,,,,,,,,,,,,,,,,,,,sub-230,1.0,random_dot,60.06842991699003,
right,right,accuracy,,,,,0.0,0.0,0.0,0.0,9.0,1.0,19.0,1.0,249.1270586999599,,,,,,,,,249.1135648000054,250.3265159999719,251.12681429996155,251.10996029991657,251.1099855999928,251.12681429996155,251.12681429996155,251.12681429996155,253.77628959994763,right,1.0,27.792038800078444,,,,,,,,,,,,,,,,,,,,,,,,,,,,,,,sub-230,1.0,random_dot,60.06842991699003,
right,right,accuracy,,,,,0.0,0.0,0.0,0.0,10.0,0.0,20.0,1.0,253.79098339995835,,,,,,,,,253.77745850000065,253.8910141999368,254.69150149996855,254.67469349992464,254.67473019997124,254.69150149996855,254.69150149996855,254.69150149996855,260.03966569993645,left,0.0,30.48667070001829,,,,,,259.68823949992657,,,,,,,,,,,,,,,,,,,,,,,,,sub-230,1.0,random_dot,60.06842991699003,
left,left,accuracy,,,,,0.0,0.0,0.0,0.0,10.0,1.0,21.0,0.0,260.0537836999865,,,,,,,,,260.04165919998195,260.153796199942,260.9541798999999,260.93695649993606,260.9369690999156,260.9541798999999,260.9541798999999,260.9541798999999,264.4862223999808,left,1.0,28.66562029998749,,,,,,,,,,,,,,,,,,,,,,,,,,,,,,,sub-230,1.0,random_dot,60.06842991699003,
right,right,accuracy,,,,,0.0,0.0,0.0,0.0,11.0,0.0,22.0,1.0,264.5010848999955,,,,,,,,,264.48725939996075,265.7003432000056,266.5007134999614,266.48378759995103,266.4838075999869,266.5007134999614,266.5007134999614,266.5007134999614,270.69903279992286,right,1.0,29.3328751999652,,,,,,,,,,,,,,,,,,,,,,,,,,,,,,,sub-230,1.0,random_dot,60.06842991699003,
left,left,accuracy,,,,,0.0,0.0,0.0,0.0,11.0,1.0,23.0,0.0,270.7138025999302,,,,,,,,,270.7000544000184,271.9133113999851,272.71356139995623,272.6966742000077,272.69669969996903,272.71356139995623,272.71356139995623,272.71356139995623,274.813358000014,left,1.0,27.24041550012771,,,,,,,,,,,,,,,,,,,,,,,,,,,,,,,sub-230,1.0,random_dot,60.06842991699003,
right,right,accuracy,,,,,0.0,0.0,0.0,0.0,12.0,0.0,24.0,1.0,274.8279503999511,,,,,,,,,274.81462939991616,275.62760679994244,276.4281602000119,276.4106937999604,276.4107114999788,276.4281602000119,276.4281602000119,276.4281602000119,278.1114768999396,right,1.0,26.816558700054884,,,,,,,,,,,,,,,,,,,,,,,,,,,,,,,sub-230,1.0,random_dot,60.06842991699003,
left,left,accuracy,,,,,0.0,0.0,0.0,0.0,12.0,1.0,25.0,0.0,278.12597679998726,,,,,,,,,278.11280040000565,279.3252564999275,280.1255621999735,280.108724199934,280.1087366999127,280.1255621999735,280.1255621999735,280.1255621999735,281.9088935999898,left,1.0,26.92173950001597,,,,,,,,,,,,,,,,,,,,,,,,,,,,,,,sub-230,1.0,random_dot,60.06842991699003,
right,right,accuracy,,,,,0.0,0.0,0.0,0.0,13.0,0.0,26.0,1.0,281.92359489994124,,,,,,,,,281.9100614999188,282.0235898999963,282.82392929994967,282.8071637999965,282.8071879999479,282.82392929994967,282.82392929994967,282.82392929994967,284.5238542999141,right,1.0,26.8335081001278,,,,,,,,,,,,,,,,,,,,,,,,,,,,,,,sub-230,1.0,random_dot,60.06842991699003,
left,left,accuracy,,,,,0.0,0.0,0.0,0.0,13.0,1.0,27.0,0.0,284.5387020999333,,,,,,,,,284.524516299949,285.7377515999833,286.5384236999089,286.5212589999428,286.52127649995964,286.5384236999089,286.5384236999089,286.5384236999089,288.25517259992193,left,1.0,26.85789590002969,,,,,,,,,,,,,,,,,,,,,,,,,,,,,,,sub-230,1.0,random_dot,60.06842991699003,
left,left,accuracy,,,,,0.0,0.0,0.0,0.0,14.0,0.0,28.0,0.0,288.26972410001326,,,,,,,,,288.2563244999619,288.3697477999376,289.1701804999029,289.15351279999595,289.1535487999208,289.1701804999029,289.1701804999029,289.1701804999029,291.1698511999566,left,1.0,27.142208200064488,,,,,,,,,,,,,,,,,,,,,,,,,,,,,,,sub-230,1.0,random_dot,60.06842991699003,
right,right,accuracy,,,,,0.0,0.0,0.0,0.0,14.0,1.0,29.0,1.0,291.1846060999669,,,,,,,,,291.17087929998524,291.5344822999323,292.3348935999675,292.318244199967,292.3182804000098,292.3348935999675,292.3348935999675,292.3348935999675,293.60162580001634,right,1.0,26.397913600085303,,,,,,,,,,,,,,,,,,,,,,,,,,,,,,,sub-230,1.0,random_dot,60.06842991699003,
right,right,accuracy,,,,,0.0,0.0,0.0,0.0,15.0,0.0,30.0,1.0,293.6164180999622,,,,,,,,,293.60268859995995,293.71644049999304,294.51680849993136,294.4998452999862,294.4998674999224,294.51680849993136,294.51680849993136,294.51680849993136,295.6340749999508,right,1.0,26.25773830001708,,,,,,,,,,,,,,,,,,,,,,,,,,,,,,,sub-230,1.0,random_dot,60.06842991699003,
left,left,accuracy,,,,,0.0,0.0,0.0,0.0,15.0,1.0,31.0,0.0,295.64850439992733,,,,,,,,,295.6354058999568,296.44825149991084,297.2484043999575,297.23170299991034,297.2317278999835,297.2484043999575,297.2484043999575,297.2484043999575,300.46400349994656,left,1.0,28.3477921000449,,,,,,,,,,,,,,,,,,,,,,,,,,,,,,,sub-230,1.0,random_dot,60.06842991699003,
left,left,accuracy,,,,,0.0,0.0,0.0,0.0,16.0,0.0,32.0,0.0,300.4788327999413,,,,,,,,,300.46503009996377,301.67836579994764,302.47854809998535,302.46169829997234,302.4617203999078,302.47854809998535,302.47854809998535,302.47854809998535,304.9116328000091,left,1.0,27.56352840003092,,,,,,,,,,,,,,,,,,,,,,,,,,,,,,,sub-230,1.0,random_dot,60.06842991699003,
right,right,accuracy,,,,,0.0,0.0,0.0,0.0,16.0,1.0,33.0,1.0,304.9261451999191,,,,,,,,,304.9130068999948,306.1253424999304,306.92587059992366,306.9101911999751,306.91020729998127,306.92587059992366,306.92587059992366,306.92587059992366,308.8092024999205,right,1.0,27.018539499957114,,,,,,,,,,,,,,,,,,,,,,,,,,,,,,,sub-230,1.0,random_dot,60.06842991699003,
right,right,accuracy,,,,,0.0,0.0,0.0,0.0,17.0,0.0,34.0,1.0,308.8238202999346,,,,,,,,,308.81035039993003,308.92380439990666,309.7240422000177,309.7070826999843,309.7071022000164,309.7240422000177,309.7240422000177,309.7240422000177,313.0732619999908,right,1.0,28.48886450007558,,,,,,,,,,,,,,,,,,,,,,,,,,,,,,,sub-230,1.0,random_dot,60.06842991699003,
left,left,accuracy,,,,,0.0,0.0,0.0,0.0,17.0,1.0,35.0,0.0,313.08775860001333,,,,,,,,,313.07460539997555,313.4376805999782,314.2380106999772,314.2209713999182,314.22099089995027,314.2380106999772,314.2380106999772,314.2380106999772,317.3372166999616,left,1.0,28.243413600022905,,,,,,,,,,,,,,,,,,,,,,,,,,,,,,,sub-230,1.0,random_dot,60.06842991699003,
left,left,accuracy,,,,,0.0,0.0,0.0,0.0,18.0,0.0,36.0,0.0,317.35183169995435,,,,,,,,,317.3383749999339,317.4517309999792,318.2521417000098,318.23513859999366,318.23515309998766,318.2521417000098,318.2521417000098,318.2521417000098,322.7005195999518,left,1.0,29.581815500045195,,,,,,,,,,,,,,,,,,,,,,,,,,,,,,,sub-230,1.0,random_dot,60.06842991699003,
right,right,accuracy,,,,,0.0,0.0,0.0,0.0,18.0,1.0,37.0,1.0,322.7152200000128,,,,,,,,,322.70167909993324,323.5147881999146,324.3151502999244,324.29801119992044,324.298026299919,324.3151502999244,324.3151502999244,324.3151502999244,326.6645649999846,right,1.0,27.48437700001523,,,,,,,,,,,,,,,,,,,,,,,,,,,,,,,sub-230,1.0,random_dot,60.06842991699003,
left,left,accuracy,,,,,0.0,0.0,0.0,0.0,19.0,0.0,38.0,0.0,326.67940299992915,,,,,,,,,326.6655909999972,327.4790808999678,328.27945219993126,328.2623274999205,328.26233779999893,328.27945219993126,328.27945219993126,328.27945219993126,329.6129719999153,left,1.0,26.471829600050118,,,,,,,,,,,,,,,,,,,,,,,,,,,,,,,sub-230,1.0,random_dot,60.06842991699003,
right,right,accuracy,,,,,0.0,0.0,0.0,0.0,19.0,1.0,39.0,1.0,329.627661800012,,,,,,,,,329.61412739998195,330.82694739999715,331.6273191999644,331.61042579996865,331.61045059992466,331.6273191999644,331.6273191999644,331.6273191999644,335.8591776000103,right,1.0,29.37307830003556,,,,,,,,,,,,,,,,,,,,,,,,,,,,,,,sub-230,1.0,random_dot,60.06842991699003,
left,left,accuracy,,,,,0.0,0.0,0.0,0.0,20.0,0.0,40.0,0.0,335.87372799997684,,,,,,,,,335.86040669993963,336.67344899999443,337.4737280999543,337.45673279999755,337.4567471999908,337.4737280999543,337.4737280999543,337.4737280999543,338.9071210999973,left,1.0,26.5692559001036,,,,,,,,,,,,,,,,,,,,,,,,,,,,,,,sub-230,1.0,random_dot,60.06842991699003,
right,right,accuracy,,,,,0.0,0.0,0.0,0.0,20.0,1.0,41.0,1.0,338.921912199934,,,,,,,,,338.9082734999247,340.12120329996105,340.9215227999957,340.90479559998494,340.9048303000164,340.9215227999957,340.9215227999957,340.9215227999957,343.12145269999746,right,1.0,27.335613999981437,,,,,,,,,,,,,,,,,,,,,,,,,,,,,,,sub-230,1.0,random_dot,60.06842991699003,
right,right,accuracy,,,,,0.0,0.0,0.0,0.0,21.0,0.0,42.0,1.0,343.13597969990224,,,,,,,,,343.1227901999373,344.33537689992227,345.135740299942,345.1191390999593,345.1191756000044,345.135740299942,345.135740299942,345.135740299942,346.46901120000985,right,1.0,26.465955800027587,,,,,,,,,,,,,,,,,,,,,,,,,,,,,,,sub-230,1.0,random_dot,60.06842991699003,
left,left,accuracy,,,,,0.0,0.0,0.0,0.0,21.0,1.0,43.0,0.0,346.4838626999408,,,,,,,,,346.46993769996334,347.6832265999401,348.48366129992064,348.4670503999805,348.4670865999069,348.48366129992064,348.48366129992064,348.48366129992064,350.0334964999929,left,1.0,26.68735879997257,,,,,,,,,,,,,,,,,,,,,,,,,,,,,,,sub-230,1.0,random_dot,60.06842991699003,
right,right,accuracy,,,,,0.0,0.0,0.0,0.0,22.0,0.0,44.0,1.0,350.0484936999856,,,,,,,,,350.03422939998563,350.3982752999291,351.1986460000044,351.18179439997766,351.1818237999687,351.1986460000044,351.1986460000044,351.1986460000044,353.36531989998184,right,1.0,27.30216510000173,,,,,,,,,,,,,,,,,,,,,,,,,,,,,,,sub-230,1.0,random_dot,60.06842991699003,
left,left,accuracy,,,,,0.0,0.0,0.0,0.0,22.0,1.0,45.0,0.0,353.3796559999464,,,,,,,,,353.36680809990503,353.7294377000071,354.52991739998106,354.51305649999995,354.513081299956,354.52991739998106,354.52991739998106,354.52991739998106,355.46342919999734,left,1.0,26.073569800006226,,,,,,,,,,,,,,,,,,,,,,,,,,,,,,,sub-230,1.0,random_dot,60.06842991699003,
left,left,accuracy,,,,,0.0,0.0,0.0,0.0,23.0,0.0,46.0,0.0,355.4783094999148,,,,,,,,,355.46438409993425,355.82824750000145,356.6285894999746,356.6116397000151,356.6116613999475,356.6285894999746,356.6285894999746,356.6285894999746,360.49388620001264,left,1.0,28.99650270014536,,,,,,,,,,,,,,,,,,,,,,,,,,,,,,,sub-230,1.0,random_dot,60.06842991699003,
right,right,accuracy,,,,,0.0,0.0,0.0,0.0,23.0,1.0,47.0,1.0,360.5086386000039,,,,,,,,,360.49504419998266,361.3082404999295,362.1085627999855,362.0917716999538,362.0917960999068,362.1085627999855,362.1085627999855,362.1085627999855,363.0090545999119,right,1.0,26.033188799978237,,,,,,,,,,,,,,,,,,,,,,,,,,,,,,,sub-230,1.0,random_dot,60.06842991699003,
left,left,accuracy,,,,,0.0,0.0,0.0,0.0,24.0,0.0,48.0,0.0,363.0237155999057,,,,,,,,,363.0102130000014,364.2231066999957,365.0233955999138,365.0064134999411,365.0064329999732,365.0233955999138,365.0233955999138,365.0233955999138,366.5730596999638,left,1.0,26.680567900068127,,,,,,,,,,,,,,,,,,,,,,,,,,,,,,,sub-230,1.0,random_dot,60.06842991699003,
right,right,accuracy,,,,,0.0,0.0,0.0,0.0,24.0,1.0,49.0,1.0,366.5879866000032,,,,,,,,,366.5738795999205,366.9382002999773,367.7384122000076,367.7213668000186,367.7213841999183,367.7384122000076,367.7384122000076,367.7384122000076,368.6221271000104,right,1.0,26.0185736999847,,,,,,,,,,,,,,,,,,,,,,,,,,,,,,,sub-230,1.0,random_dot,60.06842991699003,
right,right,accuracy,,,,,0.0,0.0,0.0,0.0,25.0,0.0,50.0,1.0,368.6367000999162,,,,,,,,,368.6231929999776,369.8361123999348,370.6366765999701,370.61960979993455,370.6196321999887,370.6366765999701,370.6366765999701,370.6366765999701,373.30267519992776,right,1.0,27.801761600072496,,,,,,,,,,,,,,,,,,,,,,,,,,,,,,,sub-230,1.0,random_dot,60.06842991699003,
left,left,accuracy,,,,,0.0,0.0,0.0,0.0,25.0,1.0,51.0,0.0,373.3174257999053,,,,,,,,,373.3036240999354,373.6672273000004,374.46760909992736,374.4505878000055,374.45059999998193,374.46760909992736,374.46760909992736,374.46760909992736,377.6332092999946,left,1.0,28.295255500008352,,,,,,,,,,,,,,,,,,,,,,,,,,,,,,,sub-230,1.0,random_dot,60.06842991699003,
left,left,accuracy,,,,,0.0,0.0,0.0,0.0,26.0,0.0,52.0,0.0,377.648059799918,,,,,,,,,377.63418059994,378.8474601999624,379.6477675999049,379.6309971999144,379.63102719991,379.6477675999049,379.6477675999049,379.6477675999049,382.7303551000077,left,1.0,28.21407530014403,,,,,,,,,,,,,,,,,,,,,,,,,,,,,,,sub-230,1.0,random_dot,60.06842991699003,
right,right,accuracy,,,,,0.0,0.0,0.0,0.0,26.0,1.0,53.0,1.0,382.7449248000048,,,,,,,,,382.73168490000535,383.0948776999721,383.8952241999796,383.8784368999768,383.8784656999633,383.8952241999796,383.8952241999796,383.8952241999796,385.54546009993646,right,1.0,26.78984720003791,,,,,,,,,,,,,,,,,,,,,,,,,,,,,,,sub-230,1.0,random_dot,60.06842991699003,
left,left,accuracy,,,,,0.0,0.0,0.0,0.0,27.0,0.0,54.0,0.0,385.559900399996,,,,,,,,,385.5467928999569,386.3596170999808,387.1597859999165,387.1427629999816,387.1427827000152,387.1597859999165,387.1597859999165,387.1597859999165,389.54285089997575,left,1.0,27.51483580004424,,,,,,,,,,,,,,,,,,,,,,,,,,,,,,,sub-230,1.0,random_dot,60.06842991699003,
right,right,accuracy,,,,,0.0,0.0,0.0,0.0,27.0,1.0,55.0,1.0,389.55752919998486,,,,,,,,,389.5440940000117,390.7566926999716,391.5571664000163,391.5403404999525,391.54036559991073,391.5571664000163,391.5571664000163,391.5571664000163,392.3911420999793,right,1.0,25.9764514999697,,,,,,,,,,,,,,,,,,,,,,,,,,,,,,,sub-230,1.0,random_dot,60.06842991699003,
left,left,accuracy,,,,,0.0,0.0,0.0,0.0,28.0,0.0,56.0,0.0,392.40565039997455,,,,,,,,,392.3924670999404,392.7555655000033,393.556107499986,393.5399077999173,393.5399844999192,393.556107499986,393.556107499986,393.556107499986,394.82299719995353,left,1.0,26.396781099960208,,,,,,,,,,,,,,,,,,,,,,,,,,,,,,,sub-230,1.0,random_dot,60.06842991699003,
right,right,accuracy,,,,,0.0,0.0,0.0,0.0,28.0,1.0,57.0,1.0,394.8374854999129,,,,,,,,,394.82435439992696,395.6370934000006,396.43754099996295,396.4203504999168,396.4203715999611,396.43754099996295,396.43754099996295,396.43754099996295,398.5038652999792,right,1.0,27.207043000031263,,,,,,,,,,,,,,,,,,,,,,,,,,,,,,,sub-230,1.0,random_dot,60.06842991699003,
right,right,accuracy,,,,,0.0,0.0,0.0,0.0,29.0,0.0,58.0,1.0,398.518544599996,,,,,,,,,398.5048873999622,399.3181593999034,400.1185794000048,400.1018479999621,400.1018772999523,400.1185794000048,400.1185794000048,400.1185794000048,402.15157859993633,right,1.0,27.166899299947545,,,,,,,,,,,,,,,,,,,,,,,,,,,,,,,sub-230,1.0,random_dot,60.06842991699003,
left,left,accuracy,,,,,0.0,0.0,0.0,0.0,29.0,1.0,59.0,0.0,402.1662972999038,,,,,,,,,402.1526136000175,403.3656544999685,404.1660921999719,404.1494963999139,404.1495302999392,404.1660921999719,404.1660921999719,404.1660921999719,407.63171039999,left,1.0,28.607808400061916,,,,,,,,,,,,,,,,,,,,,,,,,,,,,,,sub-230,1.0,random_dot,60.06842991699003,
,,accuracy,,,,,0.0,0.0,0.0,0.0,,,,,,,,,,,,,,,,,,,,,,,,,,,,,,,,,,,,,,,,,,,,,,,,,,,,,,,,sub-230,1.0,random_dot,60.06842991699003,
right,right,speed,,,,,0.0,1.0,1.0,1.0,0.0,0.0,0.0,1.0,412.6099146999186,,,,,,,,,412.6020602999488,412.9598060999997,413.7600855999626,413.7432557999855,413.74328379996587,413.7600855999626,413.7600855999626,413.7600855999626,415.242974499939,right,1.0,26.6124927001074,,,,,,,,,,,,,,,,,,,,,407.6328354999423,407.6464378999081,407.6464378999081,412.594503399916,space,30.08294530003332,,,,,sub-230,1.0,random_dot,60.06842991699003,
left,left,speed,,,,,0.0,1.0,1.0,1.0,0.0,1.0,1.0,0.0,415.2580938999308,,,,,,,,,415.2437802999048,415.6080948999152,416.40852299996186,416.3917265000055,416.3917506999569,416.40852299996186,416.40852299996186,416.40852299996186,417.225770299905,left,1.0,25.95896270009689,,,,,,,,,,,,,,,,,,,,,,,,,,,,,,,sub-230,1.0,random_dot,60.06842991699003,
left,left,speed,,,,,0.0,1.0,1.0,1.0,1.0,0.0,2.0,0.0,417.240377399954,,,,,,,,,417.227112499997,417.3401815999532,418.14081139990594,418.1241859999718,418.12421619996894,418.14081139990594,418.14081139990594,418.14081139990594,420.0568472999148,left,1.0,27.05104030005168,,,,,,,,,,,,,,,,,,,,,,,,,,,,,,,sub-230,1.0,random_dot,60.06842991699003,
right,right,speed,,,,,0.0,1.0,1.0,1.0,1.0,1.0,3.0,1.0,420.0720711000031,,,,,,,,,420.05751469999086,420.17200289992616,420.9724357000087,420.95531109999865,420.95533659996,420.9724357000087,420.9724357000087,420.9724357000087,421.6732494999888,right,1.0,25.841887500020675,,,,,,,,,,,,,,,,,,,,,,,,,,,,,,,sub-230,1.0,random_dot,60.06842991699003,
right,right,speed,,,,,0.0,1.0,1.0,1.0,2.0,0.0,4.0,1.0,421.6876424999209,,,,,,,,,421.6746376999654,422.8869924999308,423.6872876000125,423.6705994999502,423.6706291999435,423.6872876000125,423.6872876000125,423.6872876000125,424.8542043999769,right,1.0,26.297422399977226,,,,,,,,,,,,,,,,,,,,,,,,,,,,,,,sub-230,1.0,random_dot,60.06842991699003,
left,left,speed,,,,,0.0,1.0,1.0,1.0,2.0,1.0,5.0,0.0,424.8689926000079,,,,,,,,,424.85512109997217,425.218835299951,426.0192975999089,426.0018867999315,426.00190169992857,426.0192975999089,426.0192975999089,426.0192975999089,426.7524823999265,left,1.0,25.864673399948515,,,,,,,,,,,,,,,,,,,,,,,,,,,,,,,sub-230,1.0,random_dot,60.06842991699003,
right,right,speed,,,,,0.0,1.0,1.0,1.0,3.0,0.0,6.0,1.0,426.7675836000126,,,,,,,,,426.75345720001496,427.1176730999723,427.9182111999253,427.9015127000166,427.9015483999392,427.9182111999253,427.9182111999253,427.9182111999253,428.7179452999262,right,1.0,25.938770700013265,,,,,,,,,,,,,,,,,,,,,,,,,,,,,,,sub-230,1.0,random_dot,60.06842991699003,
left,left,speed,,,,,0.0,1.0,1.0,1.0,3.0,1.0,7.0,0.0,428.7331571999239,,,,,,,,,428.7185658999952,428.8334942999063,429.6336442999309,429.616585199954,429.61660129996017,429.6336442999309,429.6336442999309,429.6336442999309,430.4339948999696,left,1.0,25.933884600060992,,,,,,,,,,,,,,,,,,,,,,,,,,,,,,,sub-230,1.0,random_dot,60.06842991699003,
right,right,speed,,,,,0.0,1.0,1.0,1.0,4.0,0.0,8.0,1.0,430.4489604999544,,,,,,,,,430.43462019995786,431.2484251999995,432.0489625999471,432.0323080999078,432.0323441999499,432.0489625999471,432.0489625999471,432.0489625999471,434.1151849000016,right,1.0,27.206130699953064,,,,,,,,,,,,,,,,,,,,,,,,,,,,,,,sub-230,1.0,random_dot,60.06842991699003,
left,left,speed,,,,,0.0,1.0,1.0,1.0,4.0,1.0,9.0,0.0,434.130037899944,,,,,,,,,434.1162237999961,434.92948920000345,435.7299012999283,435.7130397999426,435.713061699993,435.7299012999283,435.7299012999283,435.7299012999283,437.0632172999904,left,1.0,26.464220100082457,,,,,,,,,,,,,,,,,,,,,,,,,,,,,,,sub-230,1.0,random_dot,60.06842991699003,
right,right,speed,,,,,0.0,1.0,1.0,1.0,5.0,0.0,10.0,1.0,437.0782467999961,,,,,,,,,437.06385969999246,438.2775123999454,439.0777696999721,439.0611949999584,439.06122459995095,439.0777696999721,439.0777696999721,439.0777696999721,441.6452697999776,left,0.0,27.711172300041653,,,,,,,,,,,,,,,,,,,,,,,,,,,,,,,sub-230,1.0,random_dot,60.06842991699003,
left,left,speed,,,,,0.0,1.0,1.0,1.0,5.0,1.0,11.0,0.0,441.6588387999218,,,,,,,,,441.64724749990273,441.7586444999324,442.5591406999156,442.5424597999081,442.5424980999669,442.5591406999156,442.5591406999156,442.5591406999156,443.809454799979,left,1.0,26.38563929998781,,,,,,,,,,,,,,,,,,,,,,,,,,,,,,,sub-230,1.0,random_dot,60.06842991699003,
left,left,speed,,,,,0.0,1.0,1.0,1.0,6.0,0.0,12.0,0.0,443.8239880999317,,,,,,,,,443.8107730000047,443.9240683999378,444.72437279997393,444.7079221999738,444.7079586999025,444.72437279997393,444.72437279997393,444.72437279997393,448.19009249995,left,1.0,28.60012560000177,,,,,,,,,,,,,,,,,,,,,,,,,,,,,,,sub-230,1.0,random_dot,60.06842991699003,
right,right,speed,,,,,0.0,1.0,1.0,1.0,6.0,1.0,13.0,1.0,448.2046892999206,,,,,,,,,448.1912637999049,448.5545416999376,449.3549023999367,449.3380194999045,449.3380442999769,449.3549023999367,449.3549023999367,449.3549023999367,450.2890015000012,right,1.0,26.07809440011624,,,,,,,,,,,,,,,,,,,,,,,,,,,,,,,sub-230,1.0,random_dot,60.06842991699003,
left,left,speed,,,,,0.0,1.0,1.0,1.0,7.0,0.0,14.0,0.0,450.30337609990966,,,,,,,,,450.29015599994455,451.103182699997,451.9034370000009,451.8869437999092,451.8869830999756,451.9034370000009,451.9034370000009,451.9034370000009,453.23713439994026,left,1.0,26.471410099999048,,,,,,,,,,,,,,,,,,,,,,,,,,,,,,,sub-230,1.0,random_dot,60.06842991699003,
right,right,speed,,,,,0.0,1.0,1.0,1.0,7.0,1.0,15.0,1.0,453.2515625999076,,,,,,,,,453.2384619999211,453.601203499944,454.401721399976,454.3848750999896,454.3848995999433,454.401721399976,454.401721399976,454.401721399976,455.2196506999898,right,1.0,25.94601200008765,,,,,,,,,,,,,,,,,,,,,,,,,,,,,,,sub-230,1.0,random_dot,60.06842991699003,
left,left,speed,,,,,0.0,1.0,1.0,1.0,8.0,0.0,16.0,0.0,455.2337630999973,,,,,,,,,455.2216225999873,456.4331013999181,457.23337179992814,457.2167684999295,457.2167986999266,457.23337179992814,457.23337179992814,457.23337179992814,458.1678111999063,left,1.0,26.078616500017237,,,,,,,,,,,,,,,,,,,,,,,,,,,,,,,sub-230,1.0,random_dot,60.06842991699003,
right,right,speed,,,,,0.0,1.0,1.0,1.0,8.0,1.0,17.0,1.0,458.18195659993216,,,,,,,,,458.1689737999113,459.3809743999736,460.1817168999696,460.1650835999753,460.1651201999048,460.1817168999696,460.1817168999696,460.1817168999696,461.9981957999989,left,0.0,26.959655900020152,,,,,,,,,,,,,,,,,,,,,,,,,,,,,,,sub-230,1.0,random_dot,60.06842991699003,
right,right,speed,,,,,0.0,1.0,1.0,1.0,9.0,0.0,18.0,1.0,462.0129370999057,,,,,,,,,461.9992296999553,462.3626392999431,463.1631636999082,463.1468258999521,463.1468736999668,463.1631636999082,463.1631636999082,463.1631636999082,464.7963944999501,right,1.0,26.7729629999958,,,,,,,,,,,,,,,,,,,,,,,,,,,,,,,sub-230,1.0,random_dot,60.06842991699003,
left,left,speed,,,,,0.0,1.0,1.0,1.0,9.0,1.0,19.0,0.0,464.8111461999361,,,,,,,,,464.7976158999372,465.61068499996327,466.4110656999983,466.3940370999044,466.3940510000102,466.4110656999983,466.4110656999983,466.4110656999983,467.41138169995975,left,1.0,26.137767300009727,,,,,,,,,,,,,,,,,,,,,,,,,,,,,,,sub-230,1.0,random_dot,60.06842991699003,
left,left,speed,,,,,0.0,1.0,1.0,1.0,10.0,0.0,20.0,0.0,467.426146499929,,,,,,,,,467.4124186999397,468.22566329990514,469.026163399918,469.00947699998505,469.0095068999799,469.026163399918,469.026163399918,469.026163399918,470.0763474999694,left,1.0,26.193986300029792,,,,,,,,,,,,,,,,,,,,,,,,,,,,,,,sub-230,1.0,random_dot,60.06842991699003,
right,right,speed,,,,,0.0,1.0,1.0,1.0,10.0,1.0,21.0,1.0,470.09121509990655,,,,,,,,,470.0770129999146,470.8908058999805,471.6912169000134,471.6744612999028,471.6744924999075,471.6912169000134,471.6912169000134,471.6912169000134,472.34160859999247,right,1.0,25.78203320002649,,,,,,,,,,,,,,,,,,,,,,,,,,,,,,,sub-230,1.0,random_dot,60.06842991699003,
right,right,speed,,,,,0.0,1.0,1.0,1.0,11.0,0.0,22.0,1.0,472.3564705000026,,,,,,,,,472.3423225999577,473.1561403999804,473.95647560001817,473.9395483999979,473.9395735999569,473.95647560001817,473.95647560001817,473.95647560001817,474.8409861999098,right,1.0,26.015944299986582,,,,,,,,,,,,,,,,,,,,,,,,,,,,,,,sub-230,1.0,random_dot,60.06842991699003,
left,left,speed,,,,,0.0,1.0,1.0,1.0,11.0,1.0,23.0,0.0,474.85508259991184,,,,,,,,,474.8429289999185,476.0543501999928,476.85476639994886,476.8383801999735,476.8384264999768,476.85476639994886,476.85476639994886,476.85476639994886,477.5213718999876,left,1.0,25.805048000067472,,,,,,,,,,,,,,,,,,,,,,,,,,,,,,,sub-230,1.0,random_dot,60.06842991699003,
left,left,speed,,,,,0.0,1.0,1.0,1.0,12.0,0.0,24.0,0.0,477.5366625000024,,,,,,,,,477.52200969995465,478.7359278999502,479.53630509995855,479.51930159993935,479.5193164999364,479.53630509995855,479.53630509995855,479.53630509995855,481.7691722000018,left,1.0,27.373499300098047,,,,,,,,,,,,,,,,,,,,,,,,,,,,,,,sub-230,1.0,random_dot,60.06842991699003,
right,right,speed,,,,,0.0,1.0,1.0,1.0,12.0,1.0,25.0,1.0,481.7839955999516,,,,,,,,,481.7700934999157,482.9836398999905,483.7839306999231,483.7665854999796,483.76659739995375,483.7839306999231,483.7839306999231,483.7839306999231,486.5999728000024,right,1.0,27.96006309997756,,,,,,,,,,,,,,,,,,,,,,,,,,,,,,,sub-230,1.0,random_dot,60.06842991699003,
right,right,speed,,,,,0.0,1.0,1.0,1.0,13.0,0.0,26.0,1.0,486.6143872999819,,,,,,,,,486.60119879990816,487.4139594999142,488.2143256999552,488.1976225000108,488.1976517000003,488.2143256999552,488.2143256999552,488.2143256999552,490.11398089991417,right,1.0,27.03117640002165,,,,,,,,,,,,,,,,,,,,,,,,,,,,,,,sub-230,1.0,random_dot,60.06842991699003,
left,left,speed,,,,,0.0,1.0,1.0,1.0,13.0,1.0,27.0,0.0,490.12890839995816,,,,,,,,,490.1147507999558,491.3284754999913,492.1286459999392,492.11147289990913,492.1114905999275,492.1286459999392,492.1286459999392,492.1286459999392,493.2459079999244,left,1.0,26.24663419998251,,,,,,,,,,,,,,,,,,,,,,,,,,,,,,,sub-230,1.0,random_dot,60.06842991699003,
left,left,speed,,,,,0.0,1.0,1.0,1.0,14.0,0.0,28.0,0.0,493.2604133000132,,,,,,,,,493.2473083999939,494.05998239992186,494.8603499999736,494.8433164999588,494.843341599917,494.8603499999736,494.8603499999736,494.8603499999736,496.5113432999933,left,1.0,26.779096800019037,,,,,,,,,,,,,,,,,,,,,,,,,,,,,,,sub-230,1.0,random_dot,60.06842991699003,
right,right,speed,,,,,0.0,1.0,1.0,1.0,14.0,1.0,29.0,1.0,496.5251103999326,,,,,,,,,496.5139453000156,496.6250182999065,497.42531590000726,497.4084333999781,497.4084578999318,497.42531590000726,497.42531590000726,497.42531590000726,498.17608789994847,right,1.0,25.88635070004966,,,,,,,,,,,,,,,,,,,,,,,,,,,,,,,sub-230,1.0,random_dot,60.06842991699003,
right,right,speed,,,,,0.0,1.0,1.0,1.0,15.0,0.0,30.0,1.0,498.1906426999485,,,,,,,,,498.17742269998416,498.990095899906,499.79065729992,499.77379229990765,499.7738217000151,499.79065729992,499.79065729992,499.79065729992,500.9917211999418,left,0.0,26.33696260012221,,,,,,,,,,,,,,,,,,,,,,,,,,,,,,,sub-230,1.0,random_dot,60.06842991699003,
left,left,speed,,,,,0.0,1.0,1.0,1.0,15.0,1.0,31.0,0.0,501.00568539998494,,,,,,,,,500.99369489995297,501.8051729999716,502.60553509998135,502.5886001999024,502.5886250999756,502.60553509998135,502.60553509998135,502.60553509998135,503.9565272999462,left,1.0,26.489721900084987,,,,,,,,,,,,,,,,,,,,,,,,,,,,,,,sub-230,1.0,random_dot,60.06842991699003,
right,right,speed,,,,,0.0,1.0,1.0,1.0,16.0,0.0,32.0,1.0,503.970419399906,,,,,,,,,503.9584957999177,504.0704707999248,504.8709121999564,504.8542981999926,504.85433479992207,504.8709121999564,504.8709121999564,504.8709121999564,506.8051019000122,right,1.0,27.077764600049704,,,,,,,,,,,,,,,,,,,,,,,,,,,,,,,sub-230,1.0,random_dot,60.06842991699003,
left,left,speed,,,,,0.0,1.0,1.0,1.0,16.0,1.0,33.0,0.0,506.8187650999753,,,,,,,,,506.807046599919,507.61789829994086,508.4186576999491,508.4019619999453,508.4019957999699,508.4186576999491,508.4186576999491,508.4186576999491,509.4194384999573,left,1.0,26.14157099998556,,,,,,,,,,,,,,,,,,,,,,,,,,,,,,,sub-230,1.0,random_dot,60.06842991699003,
right,right,speed,,,,,0.0,1.0,1.0,1.0,17.0,0.0,34.0,1.0,509.43385229993146,,,,,,,,,509.4210083999205,509.5338290999644,510.3341097999364,510.3176075000083,510.31764409993775,510.3341097999364,510.3341097999364,510.3341097999364,511.5510473999893,right,1.0,26.355593499960374,,,,,,,,,,,,,,,,,,,,,,,,,,,,,,,sub-230,1.0,random_dot,60.06842991699003,
left,left,speed,,,,,0.0,1.0,1.0,1.0,17.0,1.0,35.0,0.0,511.565711400006,,,,,,,,,511.5522667999612,511.6657050999347,512.4660631999141,512.4495713999495,512.4496106000151,512.4660631999141,512.4660631999141,512.4660631999141,513.167449099943,left,1.0,25.84270090004429,,,,,,,,,,,,,,,,,,,,,,,,,,,,,,,sub-230,1.0,random_dot,60.06842991699003,
right,right,speed,,,,,0.0,1.0,1.0,1.0,18.0,0.0,36.0,1.0,513.1814293999923,,,,,,,,,513.1693919999525,513.5312558999285,514.3317332000006,514.3148750999244,514.3149042999139,514.3317332000006,514.3317332000006,514.3317332000006,515.5486126999604,right,1.0,26.35845529998187,,,,,,,,,,,,,,,,,,,,,,,,,,,,,,,sub-230,1.0,random_dot,60.06842991699003,
left,left,speed,,,,,0.0,1.0,1.0,1.0,18.0,1.0,37.0,0.0,515.5632856999291,,,,,,,,,515.5497835999122,515.6631946999114,516.4636493999278,516.4468254999956,516.4468536999775,516.4636493999278,516.4636493999278,516.4636493999278,517.8474289999576,left,1.0,26.51750570011791,,,,,,,,,,,,,,,,,,,,,,,,,,,,,,,sub-230,1.0,random_dot,60.06842991699003,
right,right,speed,,,,,0.0,1.0,1.0,1.0,19.0,0.0,38.0,1.0,517.8618559999159,,,,,,,,,517.8489264999516,518.6615661999676,519.4618915999308,519.4453307999065,519.445370499976,519.4618915999308,519.4618915999308,519.4618915999308,520.2464586999267,right,1.0,25.920052500092424,,,,,,,,,,,,,,,,,,,,,,,,,,,,,,,sub-230,1.0,random_dot,60.06842991699003,
left,left,speed,,,,,0.0,1.0,1.0,1.0,19.0,1.0,39.0,0.0,520.26042159996,,,,,,,,,520.2484084999887,521.4597803999204,522.260132699972,522.2439404999604,522.2440018999623,522.260132699972,522.260132699972,522.260132699972,523.4278487999691,left,1.0,26.301211099955253,,,,,,,,,,,,,,,,,,,,,,,,,,,,,,,sub-230,1.0,random_dot,60.06842991699003,
left,left,speed,,,,,0.0,1.0,1.0,1.0,20.0,0.0,40.0,0.0,523.4417852999177,,,,,,,,,523.429828299908,523.5417751999339,524.3421628999058,524.3256936999969,524.325729599921,524.3421628999058,524.3421628999058,524.3421628999058,525.775769699947,left,1.0,26.56402679998428,,,,,,,,,,,,,,,,,,,,,,,,,,,,,,,sub-230,1.0,random_dot,60.06842991699003,
right,right,speed,,,,,0.0,1.0,1.0,1.0,20.0,1.0,41.0,1.0,525.790291299927,,,,,,,,,525.7772199999308,526.9895771999145,527.7899327999912,527.7733918000013,527.7734275999246,527.7899327999912,527.7899327999912,527.7899327999912,528.4738932999317,right,1.0,25.824853800004348,,,,,,,,,,,,,,,,,,,,,,,,,,,,,,,sub-230,1.0,random_dot,60.06842991699003,
left,left,speed,,,,,0.0,1.0,1.0,1.0,21.0,0.0,42.0,0.0,528.4886500999564,,,,,,,,,528.4750475999899,528.5886372999521,529.3890626999782,529.3717408999801,529.3717576999916,529.3890626999782,529.3890626999782,529.3890626999782,530.5225544999121,left,1.0,26.270519400015477,,,,,,,,,,,,,,,,,,,,,,,,,,,,,,,sub-230,1.0,random_dot,60.06842991699003,
right,right,speed,,,,,0.0,1.0,1.0,1.0,21.0,1.0,43.0,1.0,530.5374776999233,,,,,,,,,530.5233253999613,531.3369937000098,532.137387399911,532.1206279000035,532.1206571999937,532.137387399911,532.137387399911,532.137387399911,532.8387916999636,right,1.0,25.83890899992548,,,,,,,,,,,,,,,,,,,,,,,,,,,,,,,sub-230,1.0,random_dot,60.06842991699003,
left,left,speed,,,,,0.0,1.0,1.0,1.0,22.0,0.0,44.0,0.0,532.852728299913,,,,,,,,,532.8407497999724,534.0520204999484,534.8524097999325,534.8357152999379,534.8357489999617,534.8524097999325,534.8524097999325,534.8524097999325,537.0354568999028,left,1.0,27.311602500034496,,,,,,,,,,,,,,,,,,,,,,,,,,,,,,,sub-230,1.0,random_dot,60.06842991699003,
right,right,speed,,,,,0.0,1.0,1.0,1.0,22.0,1.0,45.0,1.0,537.0501001999946,,,,,,,,,537.0368651999161,537.8496506999945,538.6501128999516,538.6333874999546,538.6334230999928,538.6501128999516,538.6501128999516,538.6501128999516,539.7995819000062,right,1.0,26.290113599970937,,,,,,,,,,,,,,,,,,,,,,,,,,,,,,,sub-230,1.0,random_dot,60.06842991699003,
left,left,speed,,,,,0.0,1.0,1.0,1.0,23.0,0.0,46.0,0.0,539.8151759000029,,,,,,,,,539.8002647999674,540.1650056999642,540.9651446999051,540.9486743999878,540.9487038999796,540.9651446999051,540.9651446999051,540.9651446999051,541.5992000999395,left,1.0,25.769657199969515,,,,,,,,,,,,,,,,,,,,,,,,,,,,,,,sub-230,1.0,random_dot,60.06842991699003,
right,right,speed,,,,,0.0,1.0,1.0,1.0,23.0,1.0,47.0,1.0,541.6139217999298,,,,,,,,,541.6004652999109,541.963985899929,542.7641345999436,542.7470564999385,542.7470709999325,542.7641345999436,542.7641345999436,542.7641345999436,543.4145876999246,right,1.0,25.78956340008881,,,,,,,,,,,,,,,,,,,,,,,,,,,,,,,sub-230,1.0,random_dot,60.06842991699003,
left,left,speed,,,,,0.0,1.0,1.0,1.0,24.0,0.0,48.0,0.0,543.4294857999776,,,,,,,,,543.4156211999943,543.5295348999789,544.3298724999186,544.3133647999493,544.3133985999739,544.3298724999186,544.3298724999186,544.3298724999186,545.7967384000076,left,1.0,26.605038800043985,,,,,,,,,,,,,,,,,,,,,,,,,,,,,,,sub-230,1.0,random_dot,60.06842991699003,
right,right,speed,,,,,0.0,1.0,1.0,1.0,24.0,1.0,49.0,1.0,545.8112826999277,,,,,,,,,545.7978998000035,547.0106983999722,547.8110637000063,547.7943524000002,547.7943813999882,547.8110637000063,547.8110637000063,547.8110637000063,550.3776786999078,right,1.0,27.705743300030008,,,,,,,,,,,,,,,,,,,,,,,,,,,,,,,sub-230,1.0,random_dot,60.06842991699003,
left,left,speed,,,,,0.0,1.0,1.0,1.0,25.0,0.0,50.0,0.0,550.391882399912,,,,,,,,,550.3796439999714,550.7417014999082,551.5420155000174,551.5249703999143,551.5249851999106,551.5420155000174,551.5420155000174,551.5420155000174,554.224798399955,right,0.0,27.81418109999504,,,,,,,,,,,,,,,,,,,,,,,,,,,,,,,sub-230,1.0,random_dot,60.06842991699003,
right,right,speed,,,,,0.0,1.0,1.0,1.0,25.0,1.0,51.0,1.0,554.2394717999268,,,,,,,,,554.2259527000133,555.0391149999341,555.8393880999647,555.8225174999097,555.8225426999852,555.8393880999647,555.8393880999647,555.8393880999647,557.089899100014,right,1.0,26.38377510011196,,,,,,,,,,,,,,,,,,,,,,,,,,,,,,,sub-230,1.0,random_dot,60.06842991699003,
left,left,speed,,,,,0.0,1.0,1.0,1.0,26.0,0.0,52.0,0.0,557.104367599939,,,,,,,,,557.0912214999553,557.4542665999616,558.2545915999217,558.2377505999757,558.2377841999987,558.2545915999217,558.2545915999217,558.2545915999217,559.0052874999819,left,1.0,25.881094299955294,,,,,,,,,,,,,,,,,,,,,,,,,,,,,,,sub-230,1.0,random_dot,60.06842991699003,
right,right,speed,,,,,0.0,1.0,1.0,1.0,26.0,1.0,53.0,1.0,559.019885799964,,,,,,,,,559.0064420999261,560.2191497000167,561.0196575999726,561.0027907999465,561.0028205999406,561.0196575999726,561.0196575999726,561.0196575999726,561.6867530000163,right,1.0,25.80592100007925,,,,,,,,,,,,,,,,,,,,,,,,,,,,,,,sub-230,1.0,random_dot,60.06842991699003,
right,right,speed,,,,,0.0,1.0,1.0,1.0,27.0,0.0,54.0,1.0,561.7016192999436,,,,,,,,,561.6877809999278,562.9010555999121,563.7014335999265,563.6841139999451,563.6841261999216,563.7014335999265,563.7014335999265,563.7014335999265,565.6178877999773,right,1.0,27.054177399957556,,,,,,,,,,,,,,,,,,,,,,,,,,,,,,,sub-230,1.0,random_dot,60.06842991699003,
left,left,speed,,,,,0.0,1.0,1.0,1.0,27.0,1.0,55.0,0.0,565.6324321000138,,,,,,,,,565.6190993000055,565.9822683999082,566.7827243999345,566.7651851999108,566.7651965999976,566.7827243999345,566.7827243999345,566.7827243999345,567.6500257999869,left,1.0,25.99884030001704,,,,,,,,,,,,,,,,,,,,,,,,,,,,,,,sub-230,1.0,random_dot,60.06842991699003,
left,left,speed,,,,,0.0,1.0,1.0,1.0,28.0,0.0,56.0,0.0,567.6645225000102,,,,,,,,,567.6513484999305,568.8637937000021,569.6642929000081,569.6473990000086,569.64742319996,569.6642929000081,569.6642929000081,569.6642929000081,570.9643027000129,left,1.0,26.43251529999543,,,,,,,,,,,,,,,,,,,,,,,,,,,,,,,sub-230,1.0,random_dot,60.06842991699003,
right,right,speed,,,,,0.0,1.0,1.0,1.0,28.0,1.0,57.0,1.0,570.9791138999863,,,,,,,,,570.9651172999293,571.3291254999349,572.1294502000092,572.112290799967,572.112305299961,572.1294502000092,572.1294502000092,572.1294502000092,572.7799322999781,right,1.0,25.78416899999138,,,,,,,,,,,,,,,,,,,,,,,,,,,,,,,sub-230,1.0,random_dot,60.06842991699003,
right,right,speed,,,,,0.0,1.0,1.0,1.0,29.0,0.0,58.0,1.0,572.7946778999176,,,,,,,,,572.7809540999588,572.8947596999351,573.695141299977,573.678225099924,573.6782494999934,573.695141299977,573.695141299977,573.695141299977,575.0279555999441,left,0.0,26.462460200069472,,,,,,,,,,,,,,,,,,,,,,,,,,,,,,,sub-230,1.0,random_dot,60.06842991699003,
left,left,speed,,,,,0.0,1.0,1.0,1.0,29.0,1.0,59.0,0.0,575.0431184999179,,,,,,,,,575.0285790999187,575.1433099999558,575.9437318999553,575.926923199906,575.9269522000104,575.9437318999553,575.9437318999553,575.9437318999553,577.1605074999388,left,1.0,26.359332200023346,,,,,,,,,,,,,,,,,,,,,,,,,,,,,,,sub-230,1.0,random_dot,60.06842991699003,
,,speed,,,,,0.0,1.0,1.0,1.0,,,,,,,,,,,,,,,,,,,,,,,,,,,,,,,,,,,,,,,,,,,,,,,,,,,,,,,,sub-230,1.0,random_dot,60.06842991699003,
,,,,,,,,,,,,,,,,,,,,,,,,,,,,,,,,,,,,,,,,,,,,,,,,,,,,,,,,,,,,,,,577.1610340999905,577.1754560999107,582.1725686999271,sub-230,,,,
