wordCTK,colorCTK,corrAnsCTK,congruentCTK,thisN,thisTrialN,thisRepN,keyResp_CTK.keys,keyResp_CTK.corr,keyResp_CTK.rt,keyResp_CTK.duration,wordPractice,colorPractice,corrAnsPractice,congruentPractice,respPractice.keys,respPractice.corr,respPractice.rt,respPractice.duration,word,color,corrAns,congruent,keyResp_test_run.keys,keyResp_test_run.corr,keyResp_test_run.rt,keyResp_test_run.duration,trials_CTK.thisRepN,trials_CTK.thisTrialN,trials_CTK.thisN,trials_CTK.thisIndex,trials_practice.thisRepN,trials_practice.thisTrialN,trials_practice.thisN,trials_practice.thisIndex,trials_test.thisRepN,trials_test.thisTrialN,trials_test.thisN,trials_test.thisIndex,thisRow.t,notes,instruction.started,instr_text.started,instr_image.started,instr_resp.started,instruction.stopped,instr_resp.keys,instr_resp.rt,instr_resp.duration,instr_color_to_key.started,instr_ctk.started,resp_ctk.started,instr_color_to_key.stopped,resp_ctk.keys,resp_ctk.rt,resp_ctk.duration,ITI.started,fixcross.started,fixcross.stopped,ITI.stopped,color_to_key_run.started,stimulus_CTK.started,keyResp_CTK.started,color_to_key_run.stopped,trials_CTK.keyResp_CTK.keys,trials_CTK.keyResp_CTK.corr,trials_CTK.keyResp_CTK.rt,trials_CTK.keyResp_CTK.duration,instr_practice.started,instr_practice_text.started,instr_practice_resp.started,instr_practice.stopped,instr_practice_resp.keys,instr_practice_resp.rt,instr_practice_resp.duration,practice_run.started,stimulus_practice.started,respPractice.started,practice_run.stopped,trials_practice.respPractice.keys,trials_practice.respPractice.corr,trials_practice.respPractice.rt,trials_practice.respPractice.duration,feedback.started,textFeedback.started,textFeedback.stopped,feedback.stopped,instr_test.started,instr_test_text.started,instr_test_resp.started,instr_test.stopped,instr_test_resp.keys,instr_test_resp.rt,instr_test_resp.duration,test_run.started,stimulus_test_run.started,keyResp_test_run.started,test_run.stopped,trials_test.keyResp_test_run.keys,trials_test.keyResp_test_run.corr,trials_test.keyResp_test_run.rt,trials_test.keyResp_test_run.duration,goodbye.started,textGoodbye.started,goodbye.stopped,participant,session,expName,frameRate,Unnamed: 112
,,,,,,,,,,,,,,,,,,,,,,,,,,,,,,,,,,,,,,,,,0.0017374998424202,0.0391666998621076,0.0391666998621076,0.0391666998621076,102.25665490003304,space,102.139631500002,,,,,,,,,,,,,,,,,,,,,,,,,,,,,,,,,,,,,,,,,,,,,,,,,,,,,,,,,,sub-026,1,stroop_test,60.01774123966133,
,,,,,,,,,,,,,,,,,,,,,,,,,,,,,,,,,,,,,,,,,,,,,,,,,102.25671129999682,102.26049009989949,102.26049009989949,106.11830059997736,space,3.841337300138548,,,,,,,,,,,,,,,,,,,,,,,,,,,,,,,,,,,,,,,,,,,,,,,,,,,sub-026,1,stroop_test,60.01774123966133,
test,blue,b,1.0,0.0,0.0,0.0,b,1.0,0.9263096998911352,,,,,,,,,,,,,,,,,,0.0,0.0,0.0,2.0,,,,,,,,,106.13340789987706,,,,,,,,,,,,,,,,,106.12729369988664,106.9328707999084,107.73213579994626,107.71651279996148,107.72364700003529,107.73213579994626,107.73213579994626,108.66616989998148,b,1.0,0.9263096998911352,,,,,,,,,,,,,,,,,,,,,,,,,,,,,,,,,,,,,,,sub-026,1,stroop_test,60.01774123966133,
test,yellow,g,1.0,1.0,1.0,0.0,g,1.0,1.2204726999625564,,,,,,,,,,,,,,,,,,0.0,1.0,1.0,1.0,,,,,,,,,108.68136389995924,,,,,,,,,,,,,,,,,108.66649749991484,109.03084749984556,109.83017189987004,109.81424880004488,109.814661399927,109.83017189987004,109.83017189987004,111.0632005999796,g,1.0,1.2204726999625564,,,,,,,,,,,,,,,,,,,,,,,,,,,,,,,,,,,,,,,sub-026,1,stroop_test,60.01774123966133,
test,red,r,1.0,2.0,2.0,0.0,r,1.0,0.7103929999284446,,,,,,,,,,,,,,,,,,0.0,2.0,2.0,0.0,,,,,,,,,111.07943809987046,,,,,,,,,,,,,,,,,111.06340899993666,111.16275519994088,111.96227009990253,111.946422399953,111.94697429984808,111.96227009990253,111.96227009990253,112.67984079988672,r,1.0,0.7103929999284446,,,,,,,,,,,,,,,,,,,,,,,,,,,,,,,,,,,,,,,sub-026,1,stroop_test,60.01774123966133,
test,blue,b,1.0,3.0,0.0,1.0,b,1.0,0.8624778999947011,,,,,,,,,,,,,,,,,,1.0,0.0,3.0,2.0,,,,,,,,,112.69461350003256,,,,,,,,,,,,,,,,,112.68022089987062,113.49410560005344,114.29327779985032,114.27764269988984,114.2783339000307,114.29327779985032,114.29327779985032,115.16094089997932,b,1.0,0.8624778999947011,,,,,,,,,,,,,,,,,,,,,,,,,,,,,,,,,,,,,,,sub-026,1,stroop_test,60.01774123966133,
test,red,r,1.0,4.0,1.0,1.0,r,1.0,0.7482406999915838,,,,,,,,,,,,,,,,,,1.0,1.0,4.0,0.0,,,,,,,,,115.17592670000158,,,,,,,,,,,,,,,,,115.16131959995256,115.5256213999819,116.32508799992502,116.3095843999181,116.31016510003246,116.32508799992502,116.32508799992502,117.0762235999573,r,1.0,0.7482406999915838,,,,,,,,,,,,,,,,,,,,,,,,,,,,,,,,,,,,,,,sub-026,1,stroop_test,60.01774123966133,
test,yellow,g,1.0,5.0,2.0,1.0,g,1.0,0.86167800007388,,,,,,,,,,,,,,,,,,1.0,2.0,5.0,1.0,,,,,,,,,117.0910048999358,,,,,,,,,,,,,,,,,117.07664099987596,117.1910434998572,117.99027920002118,117.97469179984182,117.9752434999682,117.99027920002118,117.99027920002118,118.8573697998654,g,1.0,0.86167800007388,,,,,,,,,,,,,,,,,,,,,,,,,,,,,,,,,,,,,,,sub-026,1,stroop_test,60.01774123966133,
test,yellow,g,1.0,6.0,0.0,2.0,g,1.0,0.5306844001170248,,,,,,,,,,,,,,,,,,2.0,0.0,6.0,1.0,,,,,,,,,118.87278109998442,,,,,,,,,,,,,,,,,118.85778920003212,118.97279269993304,119.77243810007349,119.7565234999638,119.75699419993909,119.77243810007349,119.77243810007349,120.30665030004457,g,1.0,0.5306844001170248,,,,,,,,,,,,,,,,,,,,,,,,,,,,,,,,,,,,,,,sub-026,1,stroop_test,60.01774123966133,
test,red,r,1.0,7.0,1.0,2.0,r,1.0,0.6419212000910193,,,,,,,,,,,,,,,,,,2.0,1.0,7.0,0.0,,,,,,,,,120.32164320000447,,,,,,,,,,,,,,,,,120.30702780000864,120.67147609987296,121.47074089990927,121.45471109985374,121.45524539984764,121.47074089990927,121.47074089990927,122.12125899991952,r,1.0,0.6419212000910193,,,,,,,,,,,,,,,,,,,,,,,,,,,,,,,,,,,,,,,sub-026,1,stroop_test,60.01774123966133,
test,blue,b,1.0,8.0,2.0,2.0,b,1.0,0.7460852998774499,,,,,,,,,,,,,,,,,,2.0,2.0,8.0,2.0,,,,,,,,,122.13689700001852,,,,,,,,,,,,,,,,,122.1215627999045,122.4867932999041,123.28600719990207,123.27060279995204,123.27124989987352,123.28600719990207,123.28600719990207,124.03626349987462,b,1.0,0.7460852998774499,,,,,,,,,,,,,,,,,,,,,,,,,,,,,,,,,,,,,,,sub-026,1,stroop_test,60.01774123966133,
test,red,r,1.0,9.0,0.0,3.0,r,1.0,2.054278500145301,,,,,,,,,,,,,,,,,,3.0,0.0,9.0,0.0,,,,,,,,,124.05185259995052,,,,,,,,,,,,,,,,,124.03650659997948,124.13509829994292,124.93470119987614,124.91901930002496,124.919672699878,124.93470119987614,124.93470119987614,127.00046839984134,r,1.0,2.054278500145301,,,,,,,,,,,,,,,,,,,,,,,,,,,,,,,,,,,,,,,sub-026,1,stroop_test,60.01774123966133,
test,yellow,g,1.0,10.0,1.0,3.0,g,1.0,1.3700842000544071,,,,,,,,,,,,,,,,,,3.0,1.0,10.0,1.0,,,,,,,,,127.01638170005754,,,,,,,,,,,,,,,,,127.0007726000622,128.21525179990567,129.01443029986694,128.9986161000561,128.99912979989313,129.01443029986694,129.01443029986694,130.39706069999374,g,1.0,1.3700842000544071,,,,,,,,,,,,,,,,,,,,,,,,,,,,,,,,,,,,,,,sub-026,1,stroop_test,60.01774123966133,
test,blue,b,1.0,11.0,2.0,3.0,b,1.0,0.974526399979368,,,,,,,,,,,,,,,,,,3.0,2.0,11.0,2.0,,,,,,,,,130.41325119999237,,,,,,,,,,,,,,,,,130.39724770002067,130.74670660006814,131.56224239990115,131.54611600004137,131.54645369993523,131.56224239990115,131.56224239990115,132.54639469995163,b,1.0,0.974526399979368,,,,,,,,,,,,,,,,,,,,,,,,,,,,,,,,,,,,,,,sub-026,1,stroop_test,60.01774123966133,
,,,,,,,,,,,,,,,,,,,,,,,,,,,,,,,,,,,,,,,,,,,,,,,,,,,,,,,,,,,,,,,,,,,,132.54654500004835,132.5615576999262,132.5615576999262,135.90970720001496,space,3.332940899999812,,,,,,,,,,,,,,,,,,,,,,,,,,,,,,,,sub-026,1,stroop_test,60.01774123966133,
,,,,0.0,0.0,0.0,,,,,blau,blue,b,1.0,b,1.0,1.162157000042498,,,,,,,,,,,,,,0.0,0.0,0.0,6.0,,,,,135.92548560001887,,,,,,,,,,,,,,,,,135.91573629993945,136.72497459989972,137.52426739991645,137.50849529984407,,,,,,,,,,,,,,,,137.51360289985314,137.52426739991645,137.52426739991645,138.69165779999457,b,1.0,1.162157000042498,,138.6982779998798,138.70641799992882,139.70593439997174,139.69030570005998,,,,,,,,,,,,,,,,,,,sub-026,1,stroop_test,60.01774123966133,
,,,,1.0,1.0,0.0,,,,,blau,blue,b,1.0,b,1.0,0.6201324998401105,,,,,,,,,,,,,,0.0,1.0,1.0,5.0,,,,,139.70593439997174,,,,,,,,,,,,,,,,,139.69070729985833,139.80594029999338,140.6051288000308,140.58934189984575,,,,,,,,,,,,,,,,140.58989559998736,140.6051288000308,140.6051288000308,141.23964489996433,b,1.0,0.6201324998401105,,141.24025619984604,141.25435679988004,142.25348569988273,142.23754250002094,,,,,,,,,,,,,,,,,,,sub-026,1,stroop_test,60.01774123966133,
,,,,2.0,2.0,0.0,,,,,blau,yellow,g,0.0,g,1.0,0.5544733998831362,,,,,,,,,,,,,,0.0,2.0,2.0,7.0,,,,,142.25348569988273,,,,,,,,,,,,,,,,,142.23781169997528,142.35348890000023,143.1527467998676,143.1366413999349,,,,,,,,,,,,,,,,143.1370482000057,143.1527467998676,143.1527467998676,143.72078550001606,g,1.0,0.5544733998831362,,143.72135269991122,143.73566120001487,144.73479450005107,144.71900240005925,,,,,,,,,,,,,,,,,,,sub-026,1,stroop_test,60.01774123966133,
,,,,3.0,3.0,0.0,,,,,gelb,red,r,0.0,r,1.0,0.6550779999233782,,,,,,,,,,,,,,0.0,3.0,3.0,8.0,,,,,144.73479450005107,,,,,,,,,,,,,,,,,144.71933849994093,145.9340957000386,146.73352400003932,146.71762240002863,,,,,,,,,,,,,,,,146.72167699993588,146.73352400003932,146.73352400003932,147.40095170005225,r,1.0,0.6550779999233782,,147.40152579988353,147.4161896998994,148.41524480003864,148.39956169994548,,,,,,,,,,,,,,,,,,,sub-026,1,stroop_test,60.01774123966133,
,,,,4.0,4.0,0.0,,,,,gelb,yellow,g,1.0,g,1.0,1.1907176000531765,,,,,,,,,,,,,,0.0,4.0,4.0,10.0,,,,,148.41524480003864,,,,,,,,,,,,,,,,,148.39993179985322,148.5151998999063,149.3142548999749,149.29802950005978,,,,,,,,,,,,,,,,149.29828669992276,149.3142548999749,149.3142548999749,150.5143575000111,g,1.0,1.1907176000531765,,150.5148610000033,150.53003799985163,151.52945789997466,151.5138840000145,,,,,,,,,,,,,,,,,,,sub-026,1,stroop_test,60.01774123966133,
,,,,5.0,5.0,0.0,,,,,gelb,blue,b,0.0,g,0.0,0.9888557000085711,,,,,,,,,,,,,,0.0,5.0,5.0,9.0,,,,,151.52945789997466,,,,,,,,,,,,,,,,,151.51430130004883,151.62943909992464,152.42835119995289,152.41265459987335,,,,,,,,,,,,,,,,152.41311990004033,152.42835119995289,152.42835119995289,153.4292919000145,g,0.0,0.9888557000085711,,153.43483139993623,153.44415590004064,154.44367749989033,154.42796949995682,,,,,,,,,,,,,,,,,,,sub-026,1,stroop_test,60.01774123966133,
,,,,6.0,6.0,0.0,,,,,blau,red,r,0.0,r,1.0,0.5293356999754906,,,,,,,,,,,,,,0.0,6.0,6.0,4.0,,,,,154.44367749989033,,,,,,,,,,,,,,,,,154.4284097000491,155.2432220999617,156.04256600001827,156.02673080004752,,,,,,,,,,,,,,,,156.0302672998514,156.04256600001827,156.04256600001827,156.57680619996972,r,1.0,0.5293356999754906,,156.58086550002918,156.5916603000369,157.5910431998782,157.575416599866,,,,,,,,,,,,,,,,,,,sub-026,1,stroop_test,60.01774123966133,
,,,,7.0,7.0,0.0,,,,,rot,red,r,1.0,r,1.0,0.5189383001998067,,,,,,,,,,,,,,0.0,7.0,7.0,1.0,,,,,157.5910431998782,,,,,,,,,,,,,,,,,157.57583069987595,157.69109979993664,158.4902945999056,158.47466249996796,,,,,,,,,,,,,,,,158.4805228000041,158.4902945999056,158.4902945999056,159.02464319998398,r,1.0,0.5189383001998067,,159.0250957000535,159.04018449992873,160.03923549992032,160.0235264999792,,,,,,,,,,,,,,,,,,,sub-026,1,stroop_test,60.01774123966133,
,,,,8.0,8.0,0.0,,,,,rot,yellow,g,0.0,g,1.0,0.6523778000846505,,,,,,,,,,,,,,0.0,8.0,8.0,3.0,,,,,160.03923549992032,,,,,,,,,,,,,,,,,160.0239693999756,160.139093299862,160.93821080005728,160.9224940999411,,,,,,,,,,,,,,,,160.92294660001062,160.93821080005728,160.93821080005728,161.60500139999203,g,1.0,0.6523778000846505,,161.60536969988607,161.62077849986963,162.62015410000458,162.60468439990655,,,,,,,,,,,,,,,,,,,sub-026,1,stroop_test,60.01774123966133,
,,,,9.0,9.0,0.0,,,,,rot,blue,b,0.0,b,1.0,0.8293860999401659,,,,,,,,,,,,,,0.0,9.0,9.0,2.0,,,,,162.62015410000458,,,,,,,,,,,,,,,,,162.60519200004637,163.8192381998524,164.61839689989574,164.60268400004134,,,,,,,,,,,,,,,,164.60319719999097,164.61839689989574,164.61839689989574,165.45190179999918,b,1.0,0.8293860999401659,,165.45230469992384,165.4678843000438,166.46708089997992,166.4514393999707,,,,,,,,,,,,,,,,,,,sub-026,1,stroop_test,60.01774123966133,
,,,,10.0,10.0,0.0,,,,,gelb,yellow,g,1.0,g,1.0,0.6567835998721421,,,,,,,,,,,,,,0.0,10.0,10.0,11.0,,,,,166.46708089997992,,,,,,,,,,,,,,,,,166.45176249998622,167.66622560005635,168.46536549995653,168.44916299986653,,,,,,,,,,,,,,,,168.45150309987366,168.46536549995653,168.46536549995653,169.13317300006747,g,1.0,0.6567835998721421,,169.13374009984545,169.14823709987104,170.14725419995375,170.1313904998824,,,,,,,,,,,,,,,,,,,sub-026,1,stroop_test,60.01774123966133,
,,,,11.0,11.0,0.0,,,,,rot,red,r,1.0,r,1.0,0.5410589000675827,,,,,,,,,,,,,,0.0,11.0,11.0,0.0,,,,,170.14725419995375,,,,,,,,,,,,,,,,,170.13172359997407,171.34628050005995,172.14568079984747,172.12974360003136,,,,,,,,,,,,,,,,172.13241499988362,172.14568079984747,172.14568079984747,172.69594400003552,r,1.0,0.5410589000675827,,172.69632319989614,172.7117526999209,173.71120759984478,173.69557809992693,,,,,,,,,,,,,,,,,,,sub-026,1,stroop_test,60.01774123966133,
,,,,12.0,0.0,1.0,,,,,blau,red,r,0.0,r,1.0,1.4493280001915991,,,,,,,,,,,,,,1.0,0.0,12.0,4.0,,,,,173.71120759984478,,,,,,,,,,,,,,,,,173.695950999856,174.5102363000624,175.3098164999392,175.29406720004044,,,,,,,,,,,,,,,,175.2971326999832,175.3098164999392,175.3098164999392,176.76109799998812,r,1.0,1.4493280001915991,,176.76169169996865,176.7751221000217,177.77428480004892,177.75841829995625,,,,,,,,,,,,,,,,,,,sub-026,1,stroop_test,60.01774123966133,
,,,,13.0,1.0,1.0,,,,,gelb,blue,b,0.0,g,0.0,0.7590078001376241,,,,,,,,,,,,,,1.0,1.0,13.0,9.0,,,,,177.77428480004892,,,,,,,,,,,,,,,,,177.75868379999883,178.12397449999116,178.92362020001747,178.90790389990434,,,,,,,,,,,,,,,,178.91161219985224,178.92362020001747,178.92362020001747,179.690794599941,g,0.0,0.7590078001376241,,179.69251600001007,179.70616209995933,180.7052225000225,180.6890996999573,,,,,,,,,,,,,,,,,,,sub-026,1,stroop_test,60.01774123966133,
,,,,14.0,2.0,1.0,,,,,rot,red,r,1.0,r,1.0,0.5267235999926925,,,,,,,,,,,,,,1.0,2.0,14.0,0.0,,,,,180.7052225000225,,,,,,,,,,,,,,,,,180.6892988998443,181.05517229996624,181.85447359993125,181.83892669994384,,,,,,,,,,,,,,,,181.84188109985556,181.85447359993125,181.85447359993125,182.3887897999957,r,1.0,0.5267235999926925,,182.39159430004656,182.4037887998857,183.40305019984956,183.387014699867,,,,,,,,,,,,,,,,,,,sub-026,1,stroop_test,60.01774123966133,
,,,,15.0,3.0,1.0,,,,,blau,blue,b,1.0,b,1.0,0.7132985000498593,,,,,,,,,,,,,,1.0,3.0,15.0,6.0,,,,,183.40305019984956,,,,,,,,,,,,,,,,,183.38729009986852,183.75275009986944,184.5521676000208,184.53649029997175,,,,,,,,,,,,,,,,184.54032130003907,184.5521676000208,184.5521676000208,185.26983650005425,b,1.0,0.7132985000498593,,185.27020459994677,185.2849133000709,186.2841367998626,186.2683472998906,,,,,,,,,,,,,,,,,,,sub-026,1,stroop_test,60.01774123966133,
,,,,16.0,4.0,1.0,,,,,blau,blue,b,1.0,b,1.0,1.1120929000899196,,,,,,,,,,,,,,1.0,4.0,16.0,5.0,,,,,186.2841367998626,,,,,,,,,,,,,,,,,186.2686745999381,187.0832201000303,187.88296269997957,187.86748280003667,,,,,,,,,,,,,,,,187.8680815999396,187.88296269997957,187.88296269997957,189.000177500071,b,1.0,1.1120929000899196,,189.00071549997665,189.01506810006688,190.014216999989,189.9986026999541,,,,,,,,,,,,,,,,,,,sub-026,1,stroop_test,60.01774123966133,
,,,,17.0,5.0,1.0,,,,,gelb,yellow,g,1.0,g,1.0,0.5626536998897791,,,,,,,,,,,,,,1.0,5.0,17.0,11.0,,,,,190.014216999989,,,,,,,,,,,,,,,,,189.99890420003797,190.8138480999041,191.62945179990493,191.61340170004405,,,,,,,,,,,,,,,,191.6157072999049,191.62945179990493,191.62945179990493,192.19752569985576,g,1.0,0.5626536998897791,,192.1979862998705,192.2127280000132,193.2118553000037,193.19633459998292,,,,,,,,,,,,,,,,,,,sub-026,1,stroop_test,60.01774123966133,
,,,,18.0,6.0,1.0,,,,,gelb,red,r,0.0,r,1.0,1.1172531000338497,,,,,,,,,,,,,,1.0,6.0,18.0,8.0,,,,,193.2118553000037,,,,,,,,,,,,,,,,,193.19678039988503,194.0110865999013,194.810165300034,194.79413819988255,,,,,,,,,,,,,,,,194.79443029989488,194.810165300034,194.810165300034,195.9441199998837,r,1.0,1.1172531000338497,,195.9446819999721,195.95976889994927,,196.9585796999745,,,,,,,,,,,,,,,,,,,sub-026,1,stroop_test,60.01774123966133,
,,,,19.0,7.0,1.0,,,,,rot,blue,b,0.0,b,1.0,1.4816715000197291,,,,,,,,,,,,,,1.0,7.0,19.0,2.0,,,,,196.97526949993332,,,,,,,,,,,,,,,,,196.95882359985265,197.05870179994963,197.85790599999015,197.84245159989223,,,,,,,,,,,,,,,,197.8466362999752,197.85790599999015,197.85790599999015,199.34214839991185,b,1.0,1.4816715000197291,,199.34285519993864,199.35668229986916,200.3559175999835,200.3396792998537,,,,,,,,,,,,,,,,,,,sub-026,1,stroop_test,60.01774123966133,
,,,,20.0,8.0,1.0,,,,,rot,yellow,g,0.0,g,1.0,0.673050400102511,,,,,,,,,,,,,,1.0,8.0,20.0,3.0,,,,,200.3559175999835,,,,,,,,,,,,,,,,,200.3399556998629,200.45566300000064,201.25512790004723,201.23952659987845,,,,,,,,,,,,,,,,201.2400678000413,201.25512790004723,201.25512790004723,201.93938639992848,g,1.0,0.673050400102511,,201.9397931999993,201.95461470005105,202.95370169985108,202.9378076000139,,,,,,,,,,,,,,,,,,,sub-026,1,stroop_test,60.01774123966133,
,,,,21.0,9.0,1.0,,,,,blau,yellow,g,0.0,g,1.0,0.8892280000727624,,,,,,,,,,,,,,1.0,9.0,21.0,7.0,,,,,202.95370169985108,,,,,,,,,,,,,,,,,202.9381392998621,204.15279179997745,204.95213499991223,204.93638690002263,,,,,,,,,,,,,,,,204.9395087999292,204.95213499991223,204.95213499991223,205.8530554999597,g,1.0,0.8892280000727624,,205.8537140998524,205.8677906000521,206.86706970003436,206.85109629994255,,,,,,,,,,,,,,,,,,,sub-026,1,stroop_test,60.01774123966133,
,,,,22.0,10.0,1.0,,,,,rot,red,r,1.0,r,1.0,0.5553162998985499,,,,,,,,,,,,,,1.0,10.0,22.0,1.0,,,,,206.86706970003436,,,,,,,,,,,,,,,,,206.85137240006588,208.0663828998804,208.8654906998854,208.84975069994107,,,,,,,,,,,,,,,,208.85270779998973,208.8654906998854,208.8654906998854,209.4335290999152,r,1.0,0.5553162998985499,,209.4340071999468,209.4481782000512,210.4472228998784,210.4314560999628,,,,,,,,,,,,,,,,,,,sub-026,1,stroop_test,60.01774123966133,
,,,,23.0,11.0,1.0,,,,,gelb,yellow,g,1.0,g,1.0,0.7162110998760909,,,,,,,,,,,,,,1.0,11.0,23.0,10.0,,,,,210.4472228998784,,,,,,,,,,,,,,,,,210.43172869994305,211.64631309988908,212.4460338000208,212.43034969992004,,,,,,,,,,,,,,,,212.43422119994648,212.4460338000208,212.4460338000208,213.1641853000037,g,1.0,0.7162110998760909,,213.16474489984105,213.1786213000305,214.17789429984987,214.16222649998963,,,,,,,,,,,,,,,,,,,sub-026,1,stroop_test,60.01774123966133,
,,,,,,,,,,,,,,,,,,,,,,,,,,,,,,,,,,,,,,,,,,,,,,,,,,,,,,,,,,,,,,,,,,,,,,,,,,,,,,,,,,,,,,,214.16240369994196,214.17789429984987,214.17789429984987,218.79252119991,space,4.607772100018337,,,,,,,,,,,,,sub-026,1,stroop_test,60.01774123966133,
,,,,0.0,0.0,0.0,,,,,,,,,,,,,rot,red,r,1.0,r,1.0,0.5882480000145733,,,,,,,,,,0.0,0.0,0.0,1.0,218.80718449992128,,,,,,,,,,,,,,,,,218.80130110005848,219.15679929987527,219.95638150000013,219.9407657000702,,,,,,,,,,,,,,,,,,,,,,,,,,,,,,,,,,,219.94474449986592,219.95638150000013,219.95638150000013,220.55761360004544,r,1.0,0.5882480000145733,,,,,sub-026,1,stroop_test,60.01774123966133,
,,,,1.0,1.0,0.0,,,,,,,,,,,,,blau,yellow,g,0.0,g,1.0,0.5560924999881536,,,,,,,,,,0.0,1.0,1.0,7.0,220.57265480002388,,,,,,,,,,,,,,,,,220.5580332998652,221.7714960000012,222.57088049990125,222.55479960003868,,,,,,,,,,,,,,,,,,,,,,,,,,,,,,,,,,,222.55773469991985,222.57088049990125,222.57088049990125,223.13830409990624,g,1.0,0.5560924999881536,,,,,sub-026,1,stroop_test,60.01774123966133,
,,,,2.0,2.0,0.0,,,,,,,,,,,,,gelb,yellow,g,1.0,g,1.0,0.5078815000597388,,,,,,,,,,0.0,2.0,2.0,10.0,223.15352139994505,,,,,,,,,,,,,,,,,223.1387066000607,223.9532709999476,224.75254129990932,224.7369854999706,,,,,,,,,,,,,,,,,,,,,,,,,,,,,,,,,,,224.74032770004123,224.75254129990932,224.75254129990932,225.2696101998445,g,1.0,0.5078815000597388,,,,,sub-026,1,stroop_test,60.01774123966133,
,,,,3.0,3.0,0.0,,,,,,,,,,,,,blau,red,r,0.0,r,1.0,0.5283908999990672,,,,,,,,,,0.0,3.0,3.0,4.0,225.2849594000727,,,,,,,,,,,,,,,,,225.26991180004552,225.385035000043,226.18473530001936,226.16880530002527,,,,,,,,,,,,,,,,,,,,,,,,,,,,,,,,,,,226.1716026000213,226.18473530001936,226.18473530001936,226.71838039997965,r,1.0,0.5283908999990672,,,,,sub-026,1,stroop_test,60.01774123966133,
,,,,4.0,4.0,0.0,,,,,,,,,,,,,gelb,yellow,g,1.0,g,1.0,0.502921300008893,,,,,,,,,,0.0,4.0,4.0,11.0,226.7338449000381,,,,,,,,,,,,,,,,,226.71872909995727,226.83395139989443,227.6335481000133,227.61784720001745,,,,,,,,,,,,,,,,,,,,,,,,,,,,,,,,,,,227.6211057000328,227.6335481000133,227.6335481000133,228.1504720998928,g,1.0,0.502921300008893,,,,,sub-026,1,stroop_test,60.01774123966133,
,,,,5.0,5.0,0.0,,,,,,,,,,,,,blau,blue,b,1.0,b,1.0,0.385149999987334,,,,,,,,,,0.0,5.0,5.0,5.0,228.1659794000443,,,,,,,,,,,,,,,,,228.1507532999385,229.3651588999201,230.16438840003684,230.1490120999515,,,,,,,,,,,,,,,,,,,,,,,,,,,,,,,,,,,230.15168949984945,230.16438840003684,230.16438840003684,230.56498469994403,b,1.0,0.385149999987334,,,,,sub-026,1,stroop_test,60.01774123966133,
,,,,6.0,6.0,0.0,,,,,,,,,,,,,gelb,blue,b,0.0,b,1.0,0.6191555000841618,,,,,,,,,,0.0,6.0,6.0,9.0,230.5807339998428,,,,,,,,,,,,,,,,,230.5652817999944,230.91399340005592,231.7133229998872,231.6976447000634,,,,,,,,,,,,,,,,,,,,,,,,,,,,,,,,,,,231.70186290005225,231.7133229998872,231.7133229998872,232.34788629994728,b,1.0,0.6191555000841618,,,,,sub-026,1,stroop_test,60.01774123966133,
,,,,7.0,7.0,0.0,,,,,,,,,,,,,rot,red,r,1.0,r,1.0,0.3393611998762935,,,,,,,,,,0.0,7.0,7.0,0.0,232.362905099988,,,,,,,,,,,,,,,,,232.3482701999601,233.16216269996949,233.9615581000689,233.9455901000183,,,,,,,,,,,,,,,,,,,,,,,,,,,,,,,,,,,233.9473067999352,233.9615581000689,233.9615581000689,234.31287889997475,r,1.0,0.3393611998762935,,,,,sub-026,1,stroop_test,60.01774123966133,
,,,,8.0,8.0,0.0,,,,,,,,,,,,,rot,blue,b,0.0,b,1.0,0.5429555999580771,,,,,,,,,,0.0,8.0,8.0,2.0,234.32789750001396,,,,,,,,,,,,,,,,,234.313282399904,234.42787729995325,235.2275483000558,235.21148839988743,,,,,,,,,,,,,,,,,,,,,,,,,,,,,,,,,,,235.2119984000456,235.2275483000558,235.2275483000558,235.7771399999037,b,1.0,0.5429555999580771,,,,,sub-026,1,stroop_test,60.01774123966133,
,,,,9.0,9.0,0.0,,,,,,,,,,,,,rot,yellow,g,0.0,g,1.0,0.3443040000274777,,,,,,,,,,0.0,9.0,9.0,3.0,235.79334410000592,,,,,,,,,,,,,,,,,235.77734029991552,236.5925948000513,237.39193909987807,237.37586879986335,,,,,,,,,,,,,,,,,,,,,,,,,,,,,,,,,,,237.37628760002556,237.39193909987807,237.39193909987807,237.7422654000111,g,1.0,0.3443040000274777,,,,,sub-026,1,stroop_test,60.01774123966133,
,,,,10.0,10.0,0.0,,,,,,,,,,,,,gelb,red,r,0.0,r,1.0,0.4308197998907417,,,,,,,,,,0.0,10.0,10.0,8.0,237.75835809996352,,,,,,,,,,,,,,,,,237.7425611000508,238.5575411999598,239.35687200003304,239.34148499998264,,,,,,,,,,,,,,,,,,,,,,,,,,,,,,,,,,,239.34481479995884,239.35687200003304,239.35687200003304,239.79121840000155,r,1.0,0.4308197998907417,,,,,sub-026,1,stroop_test,60.01774123966133,
,,,,11.0,11.0,0.0,,,,,,,,,,,,,blau,blue,b,1.0,b,1.0,0.3814924000762403,,,,,,,,,,0.0,11.0,11.0,6.0,239.8063103000168,,,,,,,,,,,,,,,,,239.79156619985588,240.60597589984536,241.40531950001605,241.3893253998831,,,,,,,,,,,,,,,,,,,,,,,,,,,,,,,,,,,241.3914113000501,241.40531950001605,241.40531950001605,241.7899847999215,b,1.0,0.3814924000762403,,,,,sub-026,1,stroop_test,60.01774123966133,
,,,,12.0,0.0,1.0,,,,,,,,,,,,,gelb,yellow,g,1.0,b,0.0,0.4285843998659402,,,,,,,,,,1.0,0.0,12.0,10.0,241.80483929999173,,,,,,,,,,,,,,,,,241.79046080005355,242.60421509994197,243.4035823000595,243.38769909995608,,,,,,,,,,,,,,,,,,,,,,,,,,,,,,,,,,,243.3904607000295,243.4035823000595,243.4035823000595,243.83772149984725,b,0.0,0.4285843998659402,,,,,sub-026,1,stroop_test,60.01774123966133,
,,,,13.0,1.0,1.0,,,,,,,,,,,,,gelb,yellow,g,1.0,g,1.0,0.5732432999648154,,,,,,,,,,1.0,1.0,13.0,11.0,243.85318919993009,,,,,,,,,,,,,,,,,243.83803189988248,243.9532188999001,244.75249159988016,244.73684959998357,,,,,,,,,,,,,,,,,,,,,,,,,,,,,,,,,,,244.73750379984267,244.75249159988016,244.75249159988016,245.3373387998436,g,1.0,0.5732432999648154,,,,,sub-026,1,stroop_test,60.01774123966133,
,,,,14.0,2.0,1.0,,,,,,,,,,,,,gelb,blue,b,0.0,b,1.0,0.6599068001378328,,,,,,,,,,1.0,2.0,14.0,9.0,245.3522085999139,,,,,,,,,,,,,,,,,245.33772589988075,246.1514588999562,246.95105429994877,246.93502069986425,,,,,,,,,,,,,,,,,,,,,,,,,,,,,,,,,,,246.9356100000441,246.95105429994877,246.95105429994877,247.6180968999397,b,1.0,0.6599068001378328,,,,,sub-026,1,stroop_test,60.01774123966133,
,,,,15.0,3.0,1.0,,,,,,,,,,,,,gelb,red,r,0.0,r,1.0,0.6408918001689017,,,,,,,,,,1.0,3.0,15.0,8.0,247.6332622000482,,,,,,,,,,,,,,,,,247.61845720000565,248.8324068998918,249.6317292000167,249.61604580003768,,,,,,,,,,,,,,,,,,,,,,,,,,,,,,,,,,,249.61645359988324,249.6317292000167,249.6317292000167,250.2829716999549,r,1.0,0.6408918001689017,,,,,sub-026,1,stroop_test,60.01774123966133,
,,,,16.0,4.0,1.0,,,,,,,,,,,,,blau,blue,b,1.0,b,1.0,0.6994884999003261,,,,,,,,,,1.0,4.0,16.0,5.0,250.29784490005116,,,,,,,,,,,,,,,,,250.28334590001032,251.09716170001772,251.89651079988107,251.88087860005908,,,,,,,,,,,,,,,,,,,,,,,,,,,,,,,,,,,251.8842007999774,251.89651079988107,251.89651079988107,252.5980584998615,b,1.0,0.6994884999003261,,,,,sub-026,1,stroop_test,60.01774123966133,
,,,,17.0,5.0,1.0,,,,,,,,,,,,,rot,red,r,1.0,r,1.0,0.504592299927026,,,,,,,,,,1.0,5.0,17.0,1.0,252.61281359987333,,,,,,,,,,,,,,,,,252.59848219994456,252.71259079989977,253.5121345999651,253.49652659986168,,,,,,,,,,,,,,,,,,,,,,,,,,,,,,,,,,,253.4996718000621,253.5121345999651,253.5121345999651,254.0295971999876,r,1.0,0.504592299927026,,,,,sub-026,1,stroop_test,60.01774123966133,
,,,,18.0,6.0,1.0,,,,,,,,,,,,,blau,yellow,g,0.0,g,1.0,0.534460199996829,,,,,,,,,,1.0,6.0,18.0,7.0,254.0448578998912,,,,,,,,,,,,,,,,,254.02995710005047,254.3945412999019,255.19422940001823,255.17838439997288,,,,,,,,,,,,,,,,,,,,,,,,,,,,,,,,,,,255.18214219994843,255.19422940001823,255.19422940001823,255.74535880004987,g,1.0,0.534460199996829,,,,,sub-026,1,stroop_test,60.01774123966133,
,,,,19.0,7.0,1.0,,,,,,,,,,,,,rot,blue,b,0.0,b,1.0,0.5893914999905974,,,,,,,,,,1.0,7.0,19.0,2.0,255.76011759997343,,,,,,,,,,,,,,,,,255.745814899914,256.5594917999115,257.35853790002875,257.342356499983,,,,,,,,,,,,,,,,,,,,,,,,,,,,,,,,,,,257.34407330001704,257.35853790002875,257.35853790002875,257.959148599999,b,1.0,0.5893914999905974,,,,,sub-026,1,stroop_test,60.01774123966133,
,,,,20.0,8.0,1.0,,,,,,,,,,,,,rot,red,r,1.0,r,1.0,0.6127073001116514,,,,,,,,,,1.0,8.0,20.0,0.0,257.974720899947,,,,,,,,,,,,,,,,,257.95942169986665,258.32474639988504,259.1241353000514,259.1077872000169,,,,,,,,,,,,,,,,,,,,,,,,,,,,,,,,,,,259.1081664999947,259.1241353000514,259.1241353000514,259.7425621000584,r,1.0,0.6127073001116514,,,,,sub-026,1,stroop_test,60.01774123966133,
,,,,21.0,9.0,1.0,,,,,,,,,,,,,blau,blue,b,1.0,b,1.0,0.4980488000437617,,,,,,,,,,1.0,9.0,21.0,6.0,259.7569917999208,,,,,,,,,,,,,,,,,259.7430380000733,260.1068388998974,260.9059414998628,260.89024479989894,,,,,,,,,,,,,,,,,,,,,,,,,,,,,,,,,,,260.89358290005475,260.9059414998628,260.9059414998628,261.40627669985406,b,1.0,0.4980488000437617,,,,,sub-026,1,stroop_test,60.01774123966133,
,,,,22.0,10.0,1.0,,,,,,,,,,,,,blau,red,r,0.0,r,1.0,0.7980738000478595,,,,,,,,,,1.0,10.0,22.0,4.0,261.4220563999843,,,,,,,,,,,,,,,,,261.40657759993337,262.2214859998785,263.0207129998598,263.0051519998815,,,,,,,,,,,,,,,,,,,,,,,,,,,,,,,,,,,263.005846099928,263.0207129998598,263.0207129998598,263.8218036000617,r,1.0,0.7980738000478595,,,,,sub-026,1,stroop_test,60.01774123966133,
,,,,23.0,11.0,1.0,,,,,,,,,,,,,rot,yellow,g,0.0,g,1.0,0.5340776999946684,,,,,,,,,,1.0,11.0,23.0,3.0,263.83687729993835,,,,,,,,,,,,,,,,,263.8222644999624,264.18664289987646,264.9860205999576,264.969855299918,,,,,,,,,,,,,,,,,,,,,,,,,,,,,,,,,,,264.9719146999996,264.9860205999576,264.9860205999576,265.5367244000081,g,1.0,0.5340776999946684,,,,,sub-026,1,stroop_test,60.01774123966133,
,,,,24.0,0.0,2.0,,,,,,,,,,,,,gelb,blue,b,0.0,g,0.0,0.8106390000320971,,,,,,,,,,2.0,0.0,24.0,9.0,265.55230290000327,,,,,,,,,,,,,,,,,265.5369527998846,265.90191129990853,266.7012755998876,266.6854085000232,,,,,,,,,,,,,,,,,,,,,,,,,,,,,,,,,,,266.68882429995574,266.7012755998876,266.7012755998876,267.5181567000691,g,0.0,0.8106390000320971,,,,,sub-026,1,stroop_test,60.01774123966133,
,,,,25.0,1.0,2.0,,,,,,,,,,,,,blau,blue,b,1.0,b,1.0,0.7450248999521136,,,,,,,,,,2.0,1.0,25.0,6.0,267.53363840002567,,,,,,,,,,,,,,,,,267.5184450999368,267.8833991999272,268.68305979995057,268.6674430998973,,,,,,,,,,,,,,,,,,,,,,,,,,,,,,,,,,,268.6704812999815,268.68305979995057,268.68305979995057,269.43394470005296,b,1.0,0.7450248999521136,,,,,sub-026,1,stroop_test,60.01774123966133,
,,,,26.0,2.0,2.0,,,,,,,,,,,,,blau,yellow,g,0.0,g,1.0,0.6488604000769556,,,,,,,,,,2.0,2.0,26.0,7.0,269.4488386998419,,,,,,,,,,,,,,,,,269.4343860000372,270.2482127000112,271.0475488000084,271.03173809987493,,,,,,,,,,,,,,,,,,,,,,,,,,,,,,,,,,,271.03246019990183,271.0475488000084,271.0475488000084,271.698519699974,g,1.0,0.6488604000769556,,,,,sub-026,1,stroop_test,60.01774123966133,
,,,,27.0,3.0,2.0,,,,,,,,,,,,,blau,blue,b,1.0,b,1.0,0.8455032999627292,,,,,,,,,,2.0,3.0,27.0,5.0,271.7138022999279,,,,,,,,,,,,,,,,,271.6988609000109,272.51331810001284,273.31239219987765,273.29663040000014,,,,,,,,,,,,,,,,,,,,,,,,,,,,,,,,,,,273.2971450998448,273.31239219987765,273.31239219987765,274.1631690000649,b,1.0,0.8455032999627292,,,,,sub-026,1,stroop_test,60.01774123966133,
,,,,28.0,4.0,2.0,,,,,,,,,,,,,blau,red,r,0.0,r,1.0,0.5437451999168843,,,,,,,,,,2.0,4.0,28.0,4.0,274.1784550000448,,,,,,,,,,,,,,,,,274.16350200003944,274.27835649997,275.0777215000708,275.06188199995086,,,,,,,,,,,,,,,,,,,,,,,,,,,,,,,,,,,275.06245069997385,275.0777215000708,275.0777215000708,275.62910220003687,r,1.0,0.5437451999168843,,,,,sub-026,1,stroop_test,60.01774123966133,
,,,,29.0,5.0,2.0,,,,,,,,,,,,,rot,red,r,1.0,r,1.0,0.5281242998316884,,,,,,,,,,2.0,5.0,29.0,0.0,275.643803199986,,,,,,,,,,,,,,,,,275.62946549989283,275.743999700062,276.54305989993736,276.5272538000718,,,,,,,,,,,,,,,,,,,,,,,,,,,,,,,,,,,276.52978700003587,276.54305989993736,276.54305989993736,277.076911999844,r,1.0,0.5281242998316884,,,,,sub-026,1,stroop_test,60.01774123966133,
,,,,30.0,6.0,2.0,,,,,,,,,,,,,gelb,yellow,g,1.0,g,1.0,0.426283200038597,,,,,,,,,,2.0,6.0,30.0,10.0,277.0929494998418,,,,,,,,,,,,,,,,,277.0771728998516,277.1760422000661,277.97542649996467,277.9597741998732,,,,,,,,,,,,,,,,,,,,,,,,,,,,,,,,,,,277.9634066999424,277.97542649996467,277.97542649996467,278.41001689992845,g,1.0,0.426283200038597,,,,,sub-026,1,stroop_test,60.01774123966133,
,,,,31.0,7.0,2.0,,,,,,,,,,,,,gelb,red,r,0.0,r,1.0,0.6162906000390649,,,,,,,,,,2.0,7.0,31.0,8.0,278.4249358000234,,,,,,,,,,,,,,,,,278.4103536999319,278.5250859998632,279.34066789993085,279.3245657000225,,,,,,,,,,,,,,,,,,,,,,,,,,,,,,,,,,,279.3250204999931,279.34066789993085,279.34066789993085,279.9586020000279,r,1.0,0.6162906000390649,,,,,sub-026,1,stroop_test,60.01774123966133,
,,,,32.0,8.0,2.0,,,,,,,,,,,,,rot,blue,b,0.0,b,1.0,1.1406385998707265,,,,,,,,,,2.0,8.0,32.0,2.0,279.9732470000163,,,,,,,,,,,,,,,,,279.9589602998458,280.77302029985003,281.57230670005083,281.5561118000187,,,,,,,,,,,,,,,,,,,,,,,,,,,,,,,,,,,281.557944299886,281.57230670005083,281.57230670005083,282.72211440000683,b,1.0,1.1406385998707265,,,,,sub-026,1,stroop_test,60.01774123966133,
,,,,33.0,9.0,2.0,,,,,,,,,,,,,rot,yellow,g,0.0,r,0.0,0.6295785999391228,,,,,,,,,,2.0,9.0,33.0,3.0,282.73767110006884,,,,,,,,,,,,,,,,,282.7223791000433,283.07116100005805,283.8704345000442,283.8546934998594,,,,,,,,,,,,,,,,,,,,,,,,,,,,,,,,,,,283.8552103000693,283.8704345000442,283.8704345000442,284.50513119995594,r,0.0,0.6295785999391228,,,,,sub-026,1,stroop_test,60.01774123966133,
,,,,34.0,10.0,2.0,,,,,,,,,,,,,rot,red,r,1.0,r,1.0,0.6283410999458283,,,,,,,,,,2.0,10.0,34.0,1.0,284.519892100012,,,,,,,,,,,,,,,,,284.5055098999292,284.8694096999243,285.66876449994743,285.652702299878,,,,,,,,,,,,,,,,,,,,,,,,,,,,,,,,,,,285.6532059998717,285.66876449994743,285.66876449994743,286.30341030005366,r,1.0,0.6283410999458283,,,,,sub-026,1,stroop_test,60.01774123966133,
,,,,35.0,11.0,2.0,,,,,,,,,,,,,gelb,yellow,g,1.0,b,0.0,0.669584599789232,,,,,,,,,,2.0,11.0,35.0,11.0,286.3181936999317,,,,,,,,,,,,,,,,,286.3037942000665,287.11791589995846,287.91713889990933,287.90128199988976,,,,,,,,,,,,,,,,,,,,,,,,,,,,,,,,,,,287.90429069986567,287.91713889990933,287.91713889990933,288.6015130998567,b,0.0,0.669584599789232,,,,,sub-026,1,stroop_test,60.01774123966133,
,,,,36.0,0.0,3.0,,,,,,,,,,,,,gelb,yellow,g,1.0,g,1.0,0.5502086000051349,,,,,,,,,,3.0,0.0,36.0,11.0,288.6164669999853,,,,,,,,,,,,,,,,,288.60192180005834,289.4158496998716,290.2150599998422,290.19933299999684,,,,,,,,,,,,,,,,,,,,,,,,,,,,,,,,,,,290.19980359985493,290.2150599998422,290.2150599998422,290.7818118999712,g,1.0,0.5502086000051349,,,,,sub-026,1,stroop_test,60.01774123966133,
,,,,37.0,1.0,3.0,,,,,,,,,,,,,blau,red,r,0.0,r,1.0,0.9167591999284924,,,,,,,,,,3.0,1.0,37.0,4.0,290.79779249988496,,,,,,,,,,,,,,,,,290.78203969984315,290.88112489995547,291.6804177998565,291.66487889993005,,,,,,,,,,,,,,,,,,,,,,,,,,,,,,,,,,,291.66760100005195,291.6804177998565,291.6804177998565,292.59933939995244,r,1.0,0.9167591999284924,,,,,sub-026,1,stroop_test,60.01774123966133,
,,,,38.0,2.0,3.0,,,,,,,,,,,,,blau,blue,b,1.0,b,1.0,0.7330516998190433,,,,,,,,,,3.0,2.0,38.0,5.0,292.6132916000206,,,,,,,,,,,,,,,,,292.5997380998451,293.8122081998736,294.6116591000464,294.59597470005974,,,,,,,,,,,,,,,,,,,,,,,,,,,,,,,,,,,294.5966860000044,294.6116591000464,294.6116591000464,295.34657080005854,b,1.0,0.7330516998190433,,,,,sub-026,1,stroop_test,60.01774123966133,
,,,,39.0,3.0,3.0,,,,,,,,,,,,,rot,red,r,1.0,r,1.0,0.546410100068897,,,,,,,,,,3.0,3.0,39.0,0.0,295.3608240999747,,,,,,,,,,,,,,,,,295.3469873999711,295.7107066998724,296.509767399868,296.49387630005367,,,,,,,,,,,,,,,,,,,,,,,,,,,,,,,,,,,296.4967104999814,296.509767399868,296.509767399868,297.06012519984506,r,1.0,0.546410100068897,,,,,sub-026,1,stroop_test,60.01774123966133,
,,,,40.0,4.0,3.0,,,,,,,,,,,,,blau,yellow,g,0.0,g,1.0,0.8217077001463622,,,,,,,,,,3.0,4.0,40.0,7.0,297.07590910000727,,,,,,,,,,,,,,,,,297.0604598999489,297.1592862000689,297.95877519994974,297.9432783999946,,,,,,,,,,,,,,,,,,,,,,,,,,,,,,,,,,,297.9464270998724,297.95877519994974,297.95877519994974,298.7924484999385,g,1.0,0.8217077001463622,,,,,sub-026,1,stroop_test,60.01774123966133,
,,,,41.0,5.0,3.0,,,,,,,,,,,,,gelb,blue,b,0.0,b,1.0,1.1825554000679404,,,,,,,,,,3.0,5.0,41.0,9.0,298.80832710000686,,,,,,,,,,,,,,,,,298.79277150006965,299.60762279992923,300.40671859984286,300.3911762998905,,,,,,,,,,,,,,,,,,,,,,,,,,,,,,,,,,,300.3943216998596,300.40671859984286,300.40671859984286,301.59032949991524,b,1.0,1.1825554000679404,,,,,sub-026,1,stroop_test,60.01774123966133,
,,,,42.0,6.0,3.0,,,,,,,,,,,,,rot,red,r,1.0,r,1.0,0.5344407998491079,,,,,,,,,,3.0,6.0,42.0,1.0,301.6055206998717,,,,,,,,,,,,,,,,,301.59060900006443,301.95563709991984,302.75455889990553,302.7388503998518,,,,,,,,,,,,,,,,,,,,,,,,,,,,,,,,,,,302.7421825998463,302.75455889990553,302.75455889990553,303.30549279996194,r,1.0,0.5344407998491079,,,,,sub-026,1,stroop_test,60.01774123966133,
,,,,43.0,7.0,3.0,,,,,,,,,,,,,rot,yellow,g,0.0,g,1.0,0.6131847999058664,,,,,,,,,,3.0,7.0,43.0,3.0,303.32115109986626,,,,,,,,,,,,,,,,,303.30569429998286,303.67073539993726,304.47022949997336,304.4543393999338,,,,,,,,,,,,,,,,,,,,,,,,,,,,,,,,,,,304.4549312000163,304.47022949997336,304.47022949997336,305.0869813999161,g,1.0,0.6131847999058664,,,,,sub-026,1,stroop_test,60.01774123966133,
,,,,44.0,8.0,3.0,,,,,,,,,,,,,gelb,red,r,0.0,b,0.0,0.8560905000194907,,,,,,,,,,3.0,8.0,44.0,8.0,305.1025914999191,,,,,,,,,,,,,,,,,305.08725999994203,305.1859766000416,305.9855533998925,305.96991440001875,,,,,,,,,,,,,,,,,,,,,,,,,,,,,,,,,,,305.97457069996744,305.9855533998925,305.9855533998925,306.8528187999036,b,0.0,0.8560905000194907,,,,,sub-026,1,stroop_test,60.01774123966133,
,,,,45.0,9.0,3.0,,,,,,,,,,,,,gelb,yellow,g,1.0,g,1.0,0.9931419999338686,,,,,,,,,,3.0,9.0,45.0,10.0,306.8681441999506,,,,,,,,,,,,,,,,,306.8531825998798,308.0671641000081,308.8666083998978,308.8509343999904,,,,,,,,,,,,,,,,,,,,,,,,,,,,,,,,,,,308.8515759999864,308.8666083998978,308.8666083998978,309.86718579987064,g,1.0,0.9931419999338686,,,,,sub-026,1,stroop_test,60.01774123966133,
,,,,46.0,10.0,3.0,,,,,,,,,,,,,rot,blue,b,0.0,b,1.0,0.8729977000039071,,,,,,,,,,3.0,10.0,46.0,2.0,309.88220539991744,,,,,,,,,,,,,,,,,309.8676090000663,310.68149089999497,311.4808370000683,311.4650478998665,,,,,,,,,,,,,,,,,,,,,,,,,,,,,,,,,,,311.4680774998851,311.4808370000683,311.4808370000683,312.365123399999,b,1.0,0.8729977000039071,,,,,sub-026,1,stroop_test,60.01774123966133,
,,,,47.0,11.0,3.0,,,,,,,,,,,,,blau,blue,b,1.0,b,1.0,1.1038076998665929,,,,,,,,,,3.0,11.0,47.0,6.0,312.3803220000118,,,,,,,,,,,,,,,,,312.3655457999557,312.48031340003945,313.279730200069,313.26407360006124,,,,,,,,,,,,,,,,,,,,,,,,,,,,,,,,,,,313.26730499998666,313.279730200069,313.279730200069,314.39626950002275,b,1.0,1.1038076998665929,,,,,sub-026,1,stroop_test,60.01774123966133,
,,,,48.0,0.0,4.0,,,,,,,,,,,,,rot,red,r,1.0,r,1.0,0.4837102999445051,,,,,,,,,,4.0,0.0,48.0,0.0,314.411526999902,,,,,,,,,,,,,,,,,314.3965684999712,314.7614750999492,315.5608556000516,315.54500989988446,,,,,,,,,,,,,,,,,,,,,,,,,,,,,,,,,,,315.54827899998054,315.5608556000516,315.5608556000516,316.06156870001,r,1.0,0.4837102999445051,,,,,sub-026,1,stroop_test,60.01774123966133,
,,,,49.0,1.0,4.0,,,,,,,,,,,,,rot,yellow,g,0.0,g,1.0,0.7498951000161469,,,,,,,,,,4.0,1.0,49.0,3.0,316.07725339988247,,,,,,,,,,,,,,,,,316.0618096999824,316.4105469998904,317.209607699886,317.194019000046,,,,,,,,,,,,,,,,,,,,,,,,,,,,,,,,,,,317.1946202998515,317.209607699886,317.209607699886,317.976022799965,g,1.0,0.7498951000161469,,,,,sub-026,1,stroop_test,60.01774123966133,
,,,,50.0,2.0,4.0,,,,,,,,,,,,,gelb,yellow,g,1.0,g,1.0,0.7834094001445919,,,,,,,,,,4.0,2.0,50.0,11.0,317.9921307999175,,,,,,,,,,,,,,,,,317.9762535998598,318.0754356000107,318.87476539984345,318.8592381000053,,,,,,,,,,,,,,,,,,,,,,,,,,,,,,,,,,,318.8627484999597,318.87476539984345,318.87476539984345,319.67480699997395,g,1.0,0.7834094001445919,,,,,sub-026,1,stroop_test,60.01774123966133,
,,,,51.0,3.0,4.0,,,,,,,,,,,,,gelb,red,r,0.0,r,1.0,1.1063761999830604,,,,,,,,,,4.0,3.0,51.0,8.0,319.690721699968,,,,,,,,,,,,,,,,,319.675034099957,320.8898535000626,321.6890277999919,321.6737202999648,,,,,,,,,,,,,,,,,,,,,,,,,,,,,,,,,,,321.67428410006687,321.6890277999919,321.6890277999919,322.8054865999148,r,1.0,1.1063761999830604,,,,,sub-026,1,stroop_test,60.01774123966133,
,,,,52.0,4.0,4.0,,,,,,,,,,,,,blau,blue,b,1.0,b,1.0,0.6607428002171218,,,,,,,,,,4.0,4.0,52.0,5.0,322.8214594000019,,,,,,,,,,,,,,,,,322.8057607000228,323.15453170007095,323.95392349991016,323.9382871000562,,,,,,,,,,,,,,,,,,,,,,,,,,,,,,,,,,,323.9409620000515,323.95392349991016,323.95392349991016,324.6218125000596,b,1.0,0.6607428002171218,,,,,sub-026,1,stroop_test,60.01774123966133,
,,,,53.0,5.0,4.0,,,,,,,,,,,,,gelb,blue,b,0.0,b,1.0,0.4055376998148858,,,,,,,,,,4.0,5.0,53.0,9.0,324.6368372000288,,,,,,,,,,,,,,,,,324.62216969998553,325.436279000016,326.2354869998526,326.2198067998979,,,,,,,,,,,,,,,,,,,,,,,,,,,,,,,,,,,326.22364760003984,326.2354869998526,326.2354869998526,326.6534164999612,b,1.0,0.4055376998148858,,,,,sub-026,1,stroop_test,60.01774123966133,
,,,,54.0,6.0,4.0,,,,,,,,,,,,,rot,blue,b,0.0,r,0.0,0.6406477000564337,,,,,,,,,,4.0,6.0,54.0,2.0,326.6684636999853,,,,,,,,,,,,,,,,,326.6537444998976,326.76865380001254,327.5678435000591,327.552179899998,,,,,,,,,,,,,,,,,,,,,,,,,,,,,,,,,,,327.556005399907,327.5678435000591,327.5678435000591,328.2187562000472,r,0.0,0.6406477000564337,,,,,sub-026,1,stroop_test,60.01774123966133,
,,,,55.0,7.0,4.0,,,,,,,,,,,,,blau,red,r,0.0,r,1.0,0.5974367000162601,,,,,,,,,,4.0,7.0,55.0,4.0,328.23393190000206,,,,,,,,,,,,,,,,,328.2190829999745,329.43274089996703,330.2321039999369,330.2166512999684,,,,,,,,,,,,,,,,,,,,,,,,,,,,,,,,,,,330.2200231999159,330.2321039999369,330.2321039999369,330.8324434000533,r,1.0,0.5974367000162601,,,,,sub-026,1,stroop_test,60.01774123966133,
,,,,56.0,8.0,4.0,,,,,,,,,,,,,blau,yellow,g,0.0,g,1.0,0.999420200008899,,,,,,,,,,4.0,8.0,56.0,7.0,330.8482347999234,,,,,,,,,,,,,,,,,330.8326357000042,331.1813890999183,331.9808976999484,331.9653487999458,,,,,,,,,,,,,,,,,,,,,,,,,,,,,,,,,,,331.9659861000255,331.9808976999484,331.9808976999484,332.9827111000195,g,1.0,0.999420200008899,,,,,sub-026,1,stroop_test,60.01774123966133,
,,,,57.0,9.0,4.0,,,,,,,,,,,,,rot,red,r,1.0,r,1.0,0.9216062000487,,,,,,,,,,4.0,9.0,57.0,1.0,332.9968876000494,,,,,,,,,,,,,,,,,332.9831586999353,333.795977700036,334.59505390003324,334.5794667999726,,,,,,,,,,,,,,,,,,,,,,,,,,,,,,,,,,,334.582448199857,334.59505390003324,334.59505390003324,335.5284110000357,r,1.0,0.9216062000487,,,,,sub-026,1,stroop_test,60.01774123966133,
,,,,58.0,10.0,4.0,,,,,,,,,,,,,gelb,yellow,g,1.0,g,1.0,0.8936367998830974,,,,,,,,,,4.0,10.0,58.0,10.0,335.544265500037,,,,,,,,,,,,,,,,,335.52873510005884,335.6276680000592,336.42731070006266,336.4116565999575,,,,,,,,,,,,,,,,,,,,,,,,,,,,,,,,,,,336.41534219984896,336.42731070006266,336.42731070006266,337.3280845999252,g,1.0,0.8936367998830974,,,,,sub-026,1,stroop_test,60.01774123966133,
,,,,59.0,11.0,4.0,,,,,,,,,,,,,blau,blue,b,1.0,b,1.0,1.029494500020519,,,,,,,,,,4.0,11.0,59.0,6.0,337.3432372999377,,,,,,,,,,,,,,,,,337.3285945998505,337.69286529999226,338.4919447998982,338.4764252998866,,,,,,,,,,,,,,,,,,,,,,,,,,,,,,,,,,,338.4793847000692,338.4919447998982,338.4919447998982,339.5251915999688,b,1.0,1.029494500020519,,,,,sub-026,1,stroop_test,60.01774123966133,
,,,,60.0,0.0,5.0,,,,,,,,,,,,,blau,blue,b,1.0,b,1.0,0.8969169000629336,,,,,,,,,,5.0,0.0,60.0,6.0,339.5410012998618,,,,,,,,,,,,,,,,,339.5254971999675,340.34095670003444,341.13996999990195,341.1243366999552,,,,,,,,,,,,,,,,,,,,,,,,,,,,,,,,,,,341.1249194999691,341.13996999990195,341.13996999990195,342.04018240002915,b,1.0,0.8969169000629336,,,,,sub-026,1,stroop_test,60.01774123966133,
,,,,61.0,1.0,5.0,,,,,,,,,,,,,rot,red,r,1.0,r,1.0,0.5400394999887794,,,,,,,,,,5.0,1.0,61.0,1.0,342.0560051999055,,,,,,,,,,,,,,,,,342.0405212000478,342.4053177998867,343.20465500000864,343.189252599841,,,,,,,,,,,,,,,,,,,,,,,,,,,,,,,,,,,343.1932574000675,343.20465500000864,343.20465500000864,343.75610610004514,r,1.0,0.5400394999887794,,,,,sub-026,1,stroop_test,60.01774123966133,
,,,,62.0,2.0,5.0,,,,,,,,,,,,,blau,yellow,g,0.0,g,1.0,0.9835785999894142,,,,,,,,,,5.0,2.0,62.0,7.0,343.7711280998774,,,,,,,,,,,,,,,,,343.7564447999466,344.9703774000518,345.7695106000174,345.7539345000405,,,,,,,,,,,,,,,,,,,,,,,,,,,,,,,,,,,345.75719969999045,345.7695106000174,345.7695106000174,346.7693777999375,g,1.0,0.9835785999894142,,,,,sub-026,1,stroop_test,60.01774123966133,
,,,,63.0,3.0,5.0,,,,,,,,,,,,,blau,blue,b,1.0,b,1.0,0.6298973001539707,,,,,,,,,,5.0,3.0,63.0,5.0,346.7849911998492,,,,,,,,,,,,,,,,,346.769677599892,347.13487569987774,347.93401560001075,347.91817279998213,,,,,,,,,,,,,,,,,,,,,,,,,,,,,,,,,,,347.91874059988186,347.93401560001075,347.93401560001075,348.56808890006505,b,1.0,0.6298973001539707,,,,,sub-026,1,stroop_test,60.01774123966133,
,,,,64.0,4.0,5.0,,,,,,,,,,,,,gelb,red,r,0.0,r,1.0,1.030272200005129,,,,,,,,,,5.0,4.0,64.0,8.0,348.58362619997934,,,,,,,,,,,,,,,,,348.56837549991906,348.68352319998667,349.4831125000492,349.4674315999728,,,,,,,,,,,,,,,,,,,,,,,,,,,,,,,,,,,349.470713299932,349.4831125000492,349.4831125000492,350.51704629999585,r,1.0,1.030272200005129,,,,,sub-026,1,stroop_test,60.01774123966133,
,,,,65.0,5.0,5.0,,,,,,,,,,,,,rot,blue,b,0.0,b,1.0,0.79488670011051,,,,,,,,,,5.0,5.0,65.0,2.0,350.53219749988057,,,,,,,,,,,,,,,,,350.51746129989624,351.33156770002097,352.1310169000644,352.1152162998915,,,,,,,,,,,,,,,,,,,,,,,,,,,,,,,,,,,352.1190140999388,352.1310169000644,352.1310169000644,352.9308261000551,b,1.0,0.79488670011051,,,,,sub-026,1,stroop_test,60.01774123966133,
,,,,66.0,6.0,5.0,,,,,,,,,,,,,gelb,yellow,g,1.0,g,1.0,0.6324434999842197,,,,,,,,,,5.0,6.0,66.0,11.0,352.94676019996405,,,,,,,,,,,,,,,,,352.9311017999425,353.03004910005257,353.82958050002344,353.8137835999951,,,,,,,,,,,,,,,,,,,,,,,,,,,,,,,,,,,353.817727799993,353.82958050002344,353.82958050002344,354.46327780000865,g,1.0,0.6324434999842197,,,,,sub-026,1,stroop_test,60.01774123966133,
,,,,67.0,7.0,5.0,,,,,,,,,,,,,rot,yellow,g,0.0,r,0.0,0.6492951000109315,,,,,,,,,,5.0,7.0,67.0,3.0,354.4786926000379,,,,,,,,,,,,,,,,,354.4635854999069,355.2779486998916,356.077778799925,356.06192060001194,,,,,,,,,,,,,,,,,,,,,,,,,,,,,,,,,,,356.0658064999152,356.077778799925,356.077778799925,356.7284768000245,r,0.0,0.6492951000109315,,,,,sub-026,1,stroop_test,60.01774123966133,
,,,,68.0,8.0,5.0,,,,,,,,,,,,,rot,red,r,1.0,r,1.0,0.6909131000284106,,,,,,,,,,5.0,8.0,68.0,0.0,356.7435820000246,,,,,,,,,,,,,,,,,356.7288422000129,357.9427056000568,358.74197359988466,358.72641590004787,,,,,,,,,,,,,,,,,,,,,,,,,,,,,,,,,,,358.7270527998917,358.74197359988466,358.74197359988466,359.4422321000602,r,1.0,0.6909131000284106,,,,,sub-026,1,stroop_test,60.01774123966133,
,,,,69.0,9.0,5.0,,,,,,,,,,,,,gelb,blue,b,0.0,b,1.0,0.954332900000736,,,,,,,,,,5.0,9.0,69.0,9.0,359.45792189985514,,,,,,,,,,,,,,,,,359.4424890000373,360.6570834000595,361.4565642999951,361.44084619986825,,,,,,,,,,,,,,,,,,,,,,,,,,,,,,,,,,,361.4447804999072,361.4565642999951,361.4565642999951,362.4234922998585,b,1.0,0.954332900000736,,,,,sub-026,1,stroop_test,60.01774123966133,
,,,,70.0,10.0,5.0,,,,,,,,,,,,,gelb,yellow,g,1.0,g,1.0,0.7187775999773294,,,,,,,,,,5.0,10.0,70.0,10.0,362.4389190999791,,,,,,,,,,,,,,,,,362.4237945999485,363.6381999999285,364.4374954998493,364.4218441999983,,,,,,,,,,,,,,,,,,,,,,,,,,,,,,,,,,,364.4224419000093,364.4374954998493,364.4374954998493,365.1714854000602,g,1.0,0.7187775999773294,,,,,sub-026,1,stroop_test,60.01774123966133,
,,,,71.0,11.0,5.0,,,,,,,,,,,,,blau,red,r,0.0,r,1.0,0.8078047998715192,,,,,,,,,,5.0,11.0,71.0,4.0,365.1865498998668,,,,,,,,,,,,,,,,,365.1718309998978,365.9860795999412,366.7853653000202,366.7700406999793,,,,,,,,,,,,,,,,,,,,,,,,,,,,,,,,,,,366.7730578000192,366.7853653000202,366.7853653000202,367.6031899000518,r,1.0,0.8078047998715192,,,,,sub-026,1,stroop_test,60.01774123966133,
,,,,72.0,0.0,6.0,,,,,,,,,,,,,rot,yellow,g,0.0,g,1.0,0.904864699812606,,,,,,,,,,6.0,0.0,72.0,3.0,367.618255399866,,,,,,,,,,,,,,,,,367.6035225999076,367.7179262000136,368.5175334999804,368.5017365000677,,,,,,,,,,,,,,,,,,,,,,,,,,,,,,,,,,,368.50462689995766,368.5175334999804,368.5175334999804,369.4339532998856,g,1.0,0.904864699812606,,,,,sub-026,1,stroop_test,60.01774123966133,
,,,,73.0,1.0,6.0,,,,,,,,,,,,,rot,red,r,1.0,r,1.0,0.7441028000321239,,,,,,,,,,6.0,1.0,73.0,0.0,369.4497167998925,,,,,,,,,,,,,,,,,369.43424479989335,369.53302029985934,370.3325511999428,370.3169529000297,,,,,,,,,,,,,,,,,,,,,,,,,,,,,,,,,,,370.3175931998994,370.3325511999428,370.3325511999428,371.0829157999251,r,1.0,0.7441028000321239,,,,,sub-026,1,stroop_test,60.01774123966133,
,,,,74.0,2.0,6.0,,,,,,,,,,,,,gelb,yellow,g,1.0,g,1.0,0.5687937999609858,,,,,,,,,,6.0,2.0,74.0,11.0,371.0984636999201,,,,,,,,,,,,,,,,,371.08325689984486,371.1986535999458,371.9977563000284,371.98159640003,,,,,,,,,,,,,,,,,,,,,,,,,,,,,,,,,,,371.9843194000423,371.9977563000284,371.9977563000284,372.5824722999241,g,1.0,0.5687937999609858,,,,,sub-026,1,stroop_test,60.01774123966133,
,,,,75.0,3.0,6.0,,,,,,,,,,,,,blau,blue,b,1.0,b,1.0,0.5741768998559564,,,,,,,,,,6.0,3.0,75.0,5.0,372.59739720006473,,,,,,,,,,,,,,,,,372.58292469987646,373.7964439999778,374.5958614998963,374.580314300023,,,,,,,,,,,,,,,,,,,,,,,,,,,,,,,,,,,374.5834605998825,374.5958614998963,374.5958614998963,375.18025129986927,b,1.0,0.5741768998559564,,,,,sub-026,1,stroop_test,60.01774123966133,
,,,,76.0,4.0,6.0,,,,,,,,,,,,,blau,blue,b,1.0,b,1.0,1.205921400105581,,,,,,,,,,6.0,4.0,76.0,6.0,375.1952450999525,,,,,,,,,,,,,,,,,375.1806884999387,375.9947178999428,376.79404639988206,376.77810609992594,,,,,,,,,,,,,,,,,,,,,,,,,,,,,,,,,,,376.7785664000549,376.79404639988206,376.79404639988206,378.011540699983,b,1.0,1.205921400105581,,,,,sub-026,1,stroop_test,60.01774123966133,
,,,,77.0,5.0,6.0,,,,,,,,,,,,,gelb,blue,b,0.0,b,1.0,0.8340972999576479,,,,,,,,,,6.0,5.0,77.0,9.0,378.0264361000154,,,,,,,,,,,,,,,,,378.0118859000504,379.2252992000431,380.0247241000179,380.00899760006,,,,,,,,,,,,,,,,,,,,,,,,,,,,,,,,,,,380.01191959995776,380.0247241000179,380.0247241000179,380.874922499992,b,1.0,0.8340972999576479,,,,,sub-026,1,stroop_test,60.01774123966133,
,,,,78.0,6.0,6.0,,,,,,,,,,,,,gelb,yellow,g,1.0,g,1.0,0.824694300070405,,,,,,,,,,6.0,6.0,78.0,10.0,380.89082199987024,,,,,,,,,,,,,,,,,380.87522599985823,381.2404519000556,382.03954799985513,382.023953899974,,,,,,,,,,,,,,,,,,,,,,,,,,,,,,,,,,,382.0245860000141,382.03954799985513,382.03954799985513,382.8728849999607,g,1.0,0.824694300070405,,,,,sub-026,1,stroop_test,60.01774123966133,
,,,,79.0,7.0,6.0,,,,,,,,,,,,,gelb,red,r,0.0,r,1.0,0.603516599861905,,,,,,,,,,6.0,7.0,79.0,8.0,382.8885933998972,,,,,,,,,,,,,,,,,382.8731614998542,383.2383937998675,384.0378370999824,384.0217999999877,,,,,,,,,,,,,,,,,,,,,,,,,,,,,,,,,,,384.02228010003455,384.0378370999824,384.0378370999824,384.6555619998835,r,1.0,0.603516599861905,,,,,sub-026,1,stroop_test,60.01774123966133,
,,,,80.0,8.0,6.0,,,,,,,,,,,,,rot,blue,b,0.0,b,1.0,0.7847273999359459,,,,,,,,,,6.0,8.0,80.0,2.0,384.6709235999733,,,,,,,,,,,,,,,,,384.6559277998749,384.7707743998617,385.5699050999247,385.5537952999584,,,,,,,,,,,,,,,,,,,,,,,,,,,,,,,,,,,385.55615249997936,385.5699050999247,385.5699050999247,386.37015650002286,b,1.0,0.7847273999359459,,,,,sub-026,1,stroop_test,60.01774123966133,
,,,,81.0,9.0,6.0,,,,,,,,,,,,,rot,red,r,1.0,r,1.0,0.9245791998691856,,,,,,,,,,6.0,9.0,81.0,1.0,386.385803299956,,,,,,,,,,,,,,,,,386.3705187998712,387.5850799998734,388.3844329998829,388.3688475000672,,,,,,,,,,,,,,,,,,,,,,,,,,,,,,,,,,,388.3693252999801,388.3844329998829,388.3844329998829,389.318348400062,r,1.0,0.9245791998691856,,,,,sub-026,1,stroop_test,60.01774123966133,
,,,,82.0,10.0,6.0,,,,,,,,,,,,,blau,yellow,g,0.0,g,1.0,0.5126744001172483,,,,,,,,,,6.0,10.0,82.0,7.0,389.3337220000103,,,,,,,,,,,,,,,,,389.3187543998938,390.132692999905,390.9324596999213,390.9168801000342,,,,,,,,,,,,,,,,,,,,,,,,,,,,,,,,,,,390.920410499908,390.9324596999213,390.9324596999213,391.4498930999544,g,1.0,0.5126744001172483,,,,,sub-026,1,stroop_test,60.01774123966133,
,,,,83.0,11.0,6.0,,,,,,,,,,,,,blau,red,r,0.0,r,1.0,0.9327863999642432,,,,,,,,,,6.0,11.0,83.0,4.0,391.4650491999928,,,,,,,,,,,,,,,,,391.4502150998451,391.8147278998513,392.6140852998942,392.5982564999722,,,,,,,,,,,,,,,,,,,,,,,,,,,,,,,,,,,392.5987327999901,392.6140852998942,392.6140852998942,393.54803649988025,r,1.0,0.9327863999642432,,,,,sub-026,1,stroop_test,60.01774123966133,
,,,,84.0,0.0,7.0,,,,,,,,,,,,,rot,blue,b,0.0,b,1.0,1.1009215000085533,,,,,,,,,,7.0,0.0,84.0,2.0,393.563399199862,,,,,,,,,,,,,,,,,393.548350200057,394.3627543000039,395.1620920998976,395.1464120000601,,,,,,,,,,,,,,,,,,,,,,,,,,,,,,,,,,,395.1506715000141,395.1620920998976,395.1620920998976,396.27848430001177,b,1.0,1.1009215000085533,,,,,sub-026,1,stroop_test,60.01774123966133,
,,,,85.0,1.0,7.0,,,,,,,,,,,,,blau,blue,b,1.0,b,1.0,1.0022098999470472,,,,,,,,,,7.0,1.0,85.0,6.0,396.2942667999305,,,,,,,,,,,,,,,,,396.2787399999797,397.0935803998728,397.8931708999444,397.87760160001926,,,,,,,,,,,,,,,,,,,,,,,,,,,,,,,,,,,397.8805958000012,397.8931708999444,397.8931708999444,398.9108917999547,b,1.0,1.0022098999470472,,,,,sub-026,1,stroop_test,60.01774123966133,
,,,,86.0,2.0,7.0,,,,,,,,,,,,,rot,red,r,1.0,r,1.0,0.4565753999631852,,,,,,,,,,7.0,2.0,86.0,1.0,398.9257338999305,,,,,,,,,,,,,,,,,398.911291099852,400.12467260006815,400.9242191000376,400.90846999990754,,,,,,,,,,,,,,,,,,,,,,,,,,,,,,,,,,,400.91185209993273,400.9242191000376,400.9242191000376,401.391686799936,r,1.0,0.4565753999631852,,,,,sub-026,1,stroop_test,60.01774123966133,
,,,,87.0,3.0,7.0,,,,,,,,,,,,,rot,red,r,1.0,r,1.0,0.6348159997723997,,,,,,,,,,7.0,3.0,87.0,0.0,401.40678379987366,,,,,,,,,,,,,,,,,401.3919814999681,401.5069857998751,402.30644769989885,402.290757099865,,,,,,,,,,,,,,,,,,,,,,,,,,,,,,,,,,,402.29133430006914,402.30644769989885,402.30644769989885,402.956902399892,r,1.0,0.6348159997723997,,,,,sub-026,1,stroop_test,60.01774123966133,
,,,,88.0,4.0,7.0,,,,,,,,,,,,,gelb,yellow,g,1.0,g,1.0,0.4885901999659836,,,,,,,,,,7.0,4.0,88.0,11.0,402.97259479993954,,,,,,,,,,,,,,,,,402.9570893999189,404.1716704000719,404.97115159989335,404.9552517998964,,,,,,,,,,,,,,,,,,,,,,,,,,,,,,,,,,,404.9593020998873,404.97115159989335,404.97115159989335,405.47229409986176,g,1.0,0.4885901999659836,,,,,sub-026,1,stroop_test,60.01774123966133,
,,,,89.0,5.0,7.0,,,,,,,,,,,,,gelb,blue,b,0.0,g,0.0,0.9845604000147432,,,,,,,,,,7.0,5.0,89.0,9.0,405.4872419000603,,,,,,,,,,,,,,,,,405.4727175000589,405.5873519999441,406.4029051000253,406.3869227999821,,,,,,,,,,,,,,,,,,,,,,,,,,,,,,,,,,,406.3877109999303,406.4029051000253,406.4029051000253,407.40340749989264,g,0.0,0.9845604000147432,,,,,sub-026,1,stroop_test,60.01774123966133,
,,,,90.0,6.0,7.0,,,,,,,,,,,,,rot,yellow,g,0.0,g,1.0,0.6379233000334352,,,,,,,,,,7.0,6.0,90.0,3.0,407.41874939994887,,,,,,,,,,,,,,,,,407.4038124999497,407.51862920005806,408.31801719986834,408.3021656000056,,,,,,,,,,,,,,,,,,,,,,,,,,,,,,,,,,,408.3038208999205,408.31801719986834,408.31801719986834,408.9683344999794,g,1.0,0.6379233000334352,,,,,sub-026,1,stroop_test,60.01774123966133,
,,,,91.0,7.0,7.0,,,,,,,,,,,,,blau,blue,b,1.0,b,1.0,0.6179438000544906,,,,,,,,,,7.0,7.0,91.0,5.0,408.9840094000101,,,,,,,,,,,,,,,,,408.9687073000241,409.7834765000735,410.5824644998647,410.5664900999982,,,,,,,,,,,,,,,,,,,,,,,,,,,,,,,,,,,410.5689194998704,410.5824644998647,410.5824644998647,411.2172321998514,b,1.0,0.6179438000544906,,,,,sub-026,1,stroop_test,60.01774123966133,
,,,,92.0,8.0,7.0,,,,,,,,,,,,,gelb,red,r,0.0,r,1.0,0.5995509000495076,,,,,,,,,,7.0,8.0,92.0,8.0,411.2322853999213,,,,,,,,,,,,,,,,,411.2176291998476,411.33219180000015,412.1312589000445,412.1152712998446,,,,,,,,,,,,,,,,,,,,,,,,,,,,,,,,,,,412.117685199948,412.1312589000445,412.1312589000445,412.73258730000816,r,1.0,0.5995509000495076,,,,,sub-026,1,stroop_test,60.01774123966133,
,,,,93.0,9.0,7.0,,,,,,,,,,,,,blau,yellow,g,0.0,g,1.0,0.8800901998765767,,,,,,,,,,7.0,9.0,93.0,7.0,412.7475443999283,,,,,,,,,,,,,,,,,412.73306360002607,412.84757349989377,413.6469582999125,413.6312090998981,,,,,,,,,,,,,,,,,,,,,,,,,,,,,,,,,,,413.6338158000726,413.6469582999125,413.6469582999125,414.52984309988096,g,1.0,0.8800901998765767,,,,,sub-026,1,stroop_test,60.01774123966133,
,,,,94.0,10.0,7.0,,,,,,,,,,,,,blau,red,r,0.0,r,1.0,0.6502692000940442,,,,,,,,,,7.0,10.0,94.0,4.0,414.5459065998439,,,,,,,,,,,,,,,,,414.530053799972,415.7450437999796,416.5445495999884,416.5285735998768,,,,,,,,,,,,,,,,,,,,,,,,,,,,,,,,,,,416.529066399904,416.5445495999884,416.5445495999884,417.212176400004,r,1.0,0.6502692000940442,,,,,sub-026,1,stroop_test,60.01774123966133,
,,,,95.0,11.0,7.0,,,,,,,,,,,,,gelb,yellow,g,1.0,g,1.0,0.6766021999064833,,,,,,,,,,7.0,11.0,95.0,10.0,417.2274378000293,,,,,,,,,,,,,,,,,417.21262039989233,417.3273356999271,418.1267047000583,418.1108404998668,,,,,,,,,,,,,,,,,,,,,,,,,,,,,,,,,,,418.1134945999365,418.1267047000583,418.1267047000583,418.8106050998904,g,1.0,0.6766021999064833,,,,,sub-026,1,stroop_test,60.01774123966133,
,,,,96.0,0.0,8.0,,,,,,,,,,,,,gelb,red,r,0.0,r,1.0,0.5720077999867499,,,,,,,,,,8.0,0.0,96.0,8.0,418.8256441999693,,,,,,,,,,,,,,,,,418.81102410005406,418.9260412000585,419.72515039984137,419.709770699963,,,,,,,,,,,,,,,,,,,,,,,,,,,,,,,,,,,419.71044779988006,419.72515039984137,419.72515039984137,420.30951469996944,r,1.0,0.5720077999867499,,,,,sub-026,1,stroop_test,60.01774123966133,
,,,,97.0,1.0,8.0,,,,,,,,,,,,,gelb,yellow,g,1.0,g,1.0,0.5214100999291986,,,,,,,,,,8.0,1.0,97.0,10.0,420.3247030000202,,,,,,,,,,,,,,,,,420.3098989999853,421.12396489991806,421.92325440002605,421.90765569987707,,,,,,,,,,,,,,,,,,,,,,,,,,,,,,,,,,,421.9082201998681,421.92325440002605,421.92325440002605,422.4572272999212,g,1.0,0.5214100999291986,,,,,sub-026,1,stroop_test,60.01774123966133,
,,,,98.0,2.0,8.0,,,,,,,,,,,,,gelb,yellow,g,1.0,g,1.0,0.4582185999024659,,,,,,,,,,8.0,2.0,98.0,11.0,422.47260460001417,,,,,,,,,,,,,,,,,422.4576711000409,423.6717661998701,424.4715952998959,424.45572709990665,,,,,,,,,,,,,,,,,,,,,,,,,,,,,,,,,,,424.45641039987095,424.4715952998959,424.4715952998959,424.9393648998812,g,1.0,0.4582185999024659,,,,,sub-026,1,stroop_test,60.01774123966133,
,,,,99.0,3.0,8.0,,,,,,,,,,,,,rot,red,r,1.0,r,1.0,0.6013497000094503,,,,,,,,,,8.0,3.0,99.0,0.0,424.95436309999786,,,,,,,,,,,,,,,,,424.93971529998817,425.05444619990885,425.8535021999851,425.8378387000412,,,,,,,,,,,,,,,,,,,,,,,,,,,,,,,,,,,425.8406767998822,425.8535021999851,425.8535021999851,426.4713778998703,r,1.0,0.6013497000094503,,,,,sub-026,1,stroop_test,60.01774123966133,
,,,,100.0,4.0,8.0,,,,,,,,,,,,,blau,yellow,g,0.0,g,1.0,0.4938314999453723,,,,,,,,,,8.0,4.0,100.0,7.0,426.4863273999654,,,,,,,,,,,,,,,,,426.4716998999938,427.2858766999561,428.0852212999016,428.0696990999859,,,,,,,,,,,,,,,,,,,,,,,,,,,,,,,,,,,428.07266979990527,428.0852212999016,428.0852212999016,428.586454999866,g,1.0,0.4938314999453723,,,,,sub-026,1,stroop_test,60.01774123966133,
,,,,101.0,5.0,8.0,,,,,,,,,,,,,gelb,blue,b,0.0,b,1.0,0.9398201999720186,,,,,,,,,,8.0,5.0,101.0,9.0,428.6015794000122,,,,,,,,,,,,,,,,,428.586830599932,429.8005097999703,430.6001464999281,430.58474570000544,,,,,,,,,,,,,,,,,,,,,,,,,,,,,,,,,,,430.5872041999828,430.6001464999281,430.6001464999281,431.5509404998738,b,1.0,0.9398201999720186,,,,,sub-026,1,stroop_test,60.01774123966133,
,,,,102.0,6.0,8.0,,,,,,,,,,,,,rot,blue,b,0.0,b,1.0,0.4170325000304729,,,,,,,,,,8.0,6.0,102.0,2.0,431.56584619986825,,,,,,,,,,,,,,,,,431.55120019987226,432.7649785999674,433.5643356000073,433.5489070999902,,,,,,,,,,,,,,,,,,,,,,,,,,,,,,,,,,,433.55273419991136,433.5643356000073,433.5643356000073,433.9986155999359,b,1.0,0.4170325000304729,,,,,sub-026,1,stroop_test,60.01774123966133,
,,,,103.0,7.0,8.0,,,,,,,,,,,,,blau,red,r,0.0,r,1.0,0.598580300109461,,,,,,,,,,8.0,7.0,103.0,4.0,434.013773099985,,,,,,,,,,,,,,,,,433.9989851999562,435.2128071999177,436.01215169997886,435.9965957000386,,,,,,,,,,,,,,,,,,,,,,,,,,,,,,,,,,,435.99918049992993,436.01215169997886,436.01215169997886,436.6137852999382,r,1.0,0.598580300109461,,,,,sub-026,1,stroop_test,60.01774123966133,
,,,,104.0,8.0,8.0,,,,,,,,,,,,,rot,red,r,1.0,r,1.0,0.5464739000890404,,,,,,,,,,8.0,8.0,104.0,1.0,436.6286192999687,,,,,,,,,,,,,,,,,436.6140914999414,437.8274578000419,438.6267796000466,438.6104617000092,,,,,,,,,,,,,,,,,,,,,,,,,,,,,,,,,,,438.61324099986814,438.6267796000466,438.6267796000466,439.1771869000513,r,1.0,0.5464739000890404,,,,,sub-026,1,stroop_test,60.01774123966133,
,,,,105.0,9.0,8.0,,,,,,,,,,,,,blau,blue,b,1.0,b,1.0,0.9342849000822752,,,,,,,,,,8.0,9.0,105.0,6.0,439.1929808999412,,,,,,,,,,,,,,,,,439.1774744000286,439.9923274999019,440.7914450999815,440.7756447999273,,,,,,,,,,,,,,,,,,,,,,,,,,,,,,,,,,,440.77857750002295,440.7914450999815,440.7914450999815,441.74179359991103,b,1.0,0.9342849000822752,,,,,sub-026,1,stroop_test,60.01774123966133,
,,,,106.0,10.0,8.0,,,,,,,,,,,,,blau,blue,b,1.0,b,1.0,0.6278697999659926,,,,,,,,,,8.0,10.0,106.0,5.0,441.7573281000368,,,,,,,,,,,,,,,,,441.7420892999508,441.8574307998642,442.6568827000447,442.64102089987136,,,,,,,,,,,,,,,,,,,,,,,,,,,,,,,,,,,442.6415971000679,442.6568827000447,442.6568827000447,443.2901465999894,b,1.0,0.6278697999659926,,,,,sub-026,1,stroop_test,60.01774123966133,
,,,,107.0,11.0,8.0,,,,,,,,,,,,,rot,yellow,g,0.0,g,1.0,0.5333537999540567,,,,,,,,,,8.0,11.0,107.0,3.0,443.3059765999205,,,,,,,,,,,,,,,,,443.290355599951,444.1054044999182,444.90481289988384,444.8889172000345,,,,,,,,,,,,,,,,,,,,,,,,,,,,,,,,,,,444.8921131000389,444.90481289988384,444.90481289988384,445.4405201000627,g,1.0,0.5333537999540567,,,,,sub-026,1,stroop_test,60.01774123966133,
,,,,108.0,0.0,9.0,,,,,,,,,,,,,gelb,red,r,0.0,r,1.0,0.3893059999682009,,,,,,,,,,9.0,0.0,108.0,8.0,445.4545312998816,,,,,,,,,,,,,,,,,445.44093809998594,445.804245099891,446.6194467998576,446.6036002999172,,,,,,,,,,,,,,,,,,,,,,,,,,,,,,,,,,,446.6062880998943,446.6194467998576,446.6194467998576,447.0204129999038,r,1.0,0.3893059999682009,,,,,sub-026,1,stroop_test,60.01774123966133,
,,,,109.0,1.0,9.0,,,,,,,,,,,,,blau,blue,b,1.0,b,1.0,0.6191718999762088,,,,,,,,,,9.0,1.0,109.0,5.0,447.0359050999396,,,,,,,,,,,,,,,,,447.0207640000153,447.3856478000525,448.1848432999104,448.1689563998953,,,,,,,,,,,,,,,,,,,,,,,,,,,,,,,,,,,448.17115399986506,448.1848432999104,448.1848432999104,448.8197371000424,b,1.0,0.6191718999762088,,,,,sub-026,1,stroop_test,60.01774123966133,
,,,,110.0,2.0,9.0,,,,,,,,,,,,,blau,yellow,g,0.0,g,1.0,0.6883284000214189,,,,,,,,,,9.0,2.0,110.0,7.0,448.8346553000156,,,,,,,,,,,,,,,,,448.8201967999339,449.18444099999033,449.9838604000397,449.9680544999428,,,,,,,,,,,,,,,,,,,,,,,,,,,,,,,,,,,449.9686252998654,449.9838604000397,449.9838604000397,450.683527499903,g,1.0,0.6883284000214189,,,,,sub-026,1,stroop_test,60.01774123966133,
,,,,111.0,3.0,9.0,,,,,,,,,,,,,rot,red,r,1.0,r,1.0,1.0130826998502016,,,,,,,,,,9.0,3.0,111.0,1.0,450.6994610000402,,,,,,,,,,,,,,,,,450.68376230006106,451.8987676000688,452.697820100002,452.681969899917,,,,,,,,,,,,,,,,,,,,,,,,,,,,,,,,,,,452.68459379998967,452.697820100002,452.697820100002,453.7155220999848,r,1.0,1.0130826998502016,,,,,sub-026,1,stroop_test,60.01774123966133,
,,,,112.0,4.0,9.0,,,,,,,,,,,,,rot,blue,b,0.0,b,1.0,1.0333730999846011,,,,,,,,,,9.0,4.0,112.0,2.0,453.7306681000628,,,,,,,,,,,,,,,,,453.71579979988746,454.9295232000295,455.7289394000545,455.7130962000229,,,,,,,,,,,,,,,,,,,,,,,,,,,,,,,,,,,455.7135785999708,455.7289394000545,455.7289394000545,456.77940270002,b,1.0,1.0333730999846011,,,,,sub-026,1,stroop_test,60.01774123966133,
,,,,113.0,5.0,9.0,,,,,,,,,,,,,blau,red,r,0.0,b,0.0,0.5527395999524742,,,,,,,,,,9.0,5.0,113.0,4.0,456.7947184999939,,,,,,,,,,,,,,,,,456.7798017000314,456.8948410998564,457.710600099992,457.6943703000434,,,,,,,,,,,,,,,,,,,,,,,,,,,,,,,,,,,457.69665180007,457.710600099992,457.710600099992,458.2776160999201,b,0.0,0.5527395999524742,,,,,sub-026,1,stroop_test,60.01774123966133,
,,,,114.0,6.0,9.0,,,,,,,,,,,,,gelb,yellow,g,1.0,g,1.0,0.6548493001610041,,,,,,,,,,9.0,6.0,114.0,10.0,458.2934892000631,,,,,,,,,,,,,,,,,458.2779428998474,458.6431741998531,459.4427499999292,459.4267704000231,,,,,,,,,,,,,,,,,,,,,,,,,,,,,,,,,,,459.4310773999896,459.4427499999292,459.4427499999292,460.1101495998446,g,1.0,0.6548493001610041,,,,,sub-026,1,stroop_test,60.01774123966133,
,,,,115.0,7.0,9.0,,,,,,,,,,,,,gelb,blue,b,0.0,b,1.0,0.7858023000881076,,,,,,,,,,9.0,7.0,115.0,9.0,460.125242699869,,,,,,,,,,,,,,,,,460.1105487998575,461.32431049994193,462.1238162999507,462.1080501000397,,,,,,,,,,,,,,,,,,,,,,,,,,,,,,,,,,,462.1086267998908,462.1238162999507,462.1238162999507,462.924734900007,b,1.0,0.7858023000881076,,,,,sub-026,1,stroop_test,60.01774123966133,
,,,,116.0,8.0,9.0,,,,,,,,,,,,,blau,blue,b,1.0,b,1.0,0.4826563999522477,,,,,,,,,,9.0,8.0,116.0,6.0,462.9397274998482,,,,,,,,,,,,,,,,,462.92509309994057,463.03972960007377,463.83896519988775,463.82317669992335,,,,,,,,,,,,,,,,,,,,,,,,,,,,,,,,,,,463.8256743999664,463.83896519988775,463.83896519988775,464.3230149999727,b,1.0,0.4826563999522477,,,,,sub-026,1,stroop_test,60.01774123966133,
,,,,117.0,9.0,9.0,,,,,,,,,,,,,rot,red,r,1.0,r,1.0,0.5043381999712437,,,,,,,,,,9.0,9.0,117.0,0.0,464.3383770000655,,,,,,,,,,,,,,,,,464.3232980999164,464.68838129984215,465.48757059988566,465.4718637999613,,,,,,,,,,,,,,,,,,,,,,,,,,,,,,,,,,,465.4748966000043,465.48757059988566,465.48757059988566,466.0046659999061,r,1.0,0.5043381999712437,,,,,sub-026,1,stroop_test,60.01774123966133,
,,,,118.0,10.0,9.0,,,,,,,,,,,,,rot,yellow,g,0.0,g,1.0,0.693668199935928,,,,,,,,,,9.0,10.0,118.0,3.0,466.0204129999038,,,,,,,,,,,,,,,,,466.0050281998701,466.12013940000907,466.9196641000453,466.9040951000061,,,,,,,,,,,,,,,,,,,,,,,,,,,,,,,,,,,466.9046652999241,466.9196641000453,466.9196641000453,467.6203960999847,g,1.0,0.693668199935928,,,,,sub-026,1,stroop_test,60.01774123966133,
,,,,119.0,11.0,9.0,,,,,,,,,,,,,gelb,yellow,g,1.0,g,1.0,0.9166468000039458,,,,,,,,,,9.0,11.0,119.0,11.0,467.6357946000062,,,,,,,,,,,,,,,,,467.6207572000567,468.4352473998442,469.2345531999599,469.2189152999781,,,,,,,,,,,,,,,,,,,,,,,,,,,,,,,,,,,469.222763299942,469.2345531999599,469.2345531999599,470.16865110001527,g,1.0,0.9166468000039458,,,,,sub-026,1,stroop_test,60.01774123966133,
,,,,,,,,,,,,,,,,,,,,,,,,,,,,,,,,,,,,,,,,,,,,,,,,,,,,,,,,,,,,,,,,,,,,,,,,,,,,,,,,,,,,,,,,,,,,,,,,,,,,,,470.1688303998672,470.183870999841,475.17977659986354,sub-026,1,stroop_test,60.01774123966133,
