direction,corrAns,thisN,thisTrialN,thisRepN,respDots.keys,respDots.corr,respDots.rt,respDots.duration,randomInstr,respRandomInstr.keys,respRandomInstr.rt,respRandomInstr.duration,practice_trials.thisRepN,practice_trials.thisTrialN,practice_trials.thisN,practice_trials.thisIndex,instr_trials.thisRepN,instr_trials.thisTrialN,instr_trials.thisN,instr_trials.thisIndex,test_trials.thisRepN,test_trials.thisTrialN,test_trials.thisN,test_trials.thisIndex,thisRow.t,notes,general_instruction.started,textGeneralInstr.started,respGeneralInstr.started,general_instruction.stopped,respGeneralInstr.keys,respGeneralInstr.rt,respGeneralInstr.duration,ITI.started,fixcross.started,fixcross.stopped,ITI.stopped,dots.started,backgroundDots.started,stimulusDots.started,respDots.started,dots.stopped,practice_trials.respDots.keys,practice_trials.respDots.corr,practice_trials.respDots.rt,practice_trials.respDots.duration,feedback.started,textFeedback.started,feedback.stopped,textFeedback.stopped,info.started,textInfo.started,keyRespInfo.started,info.stopped,keyRespInfo.keys,keyRespInfo.rt,keyRespInfo.duration,test_instruction.started,textTestInstr.started,respTestInstr.started,test_instruction.stopped,respTestInstr.keys,respTestInstr.rt,respTestInstr.duration,random_instruction.started,textRandomInstr.started,respRandomInstr.started,random_instruction.stopped,instr_trials.respRandomInstr.keys,instr_trials.respRandomInstr.rt,instr_trials.respRandomInstr.duration,test_trials.respDots.keys,test_trials.respDots.corr,test_trials.respDots.rt,test_trials.respDots.duration,goodbye.started,textGoodbye.started,textGoodbye.stopped,goodbye.stopped,participant,session,expName,frameRate,Unnamed: 87
,,,,,,,,,,,,,,,,,,,,,,,,,,,0.0091546670009847,0.0233799589987029,0.0233799589987029,6.191329583998595,space,6.024379708003835,,,,,,,,,,,,,,,,,,,,,,,,,,,,,,,,,,,,,,,,,,,,,,,,sub-115,1,random_dot,120.45864725709136,
left,left,0.0,0.0,0.0,left,1.0,1.0829745829978492,,,,,,0.0,0.0,0.0,0.0,,,,,,,,,6.2203307500021765,,,,,,,,,6.210797833999095,6.9928367090033134,7.798518959003559,7.781655124999816,7.782282334002957,7.798518959003559,7.798518959003559,7.798518959003559,8.889363750000484,left,1.0,1.0829745829978492,,8.897205042005226,8.998190834005072,9.398067417001585,,,,,,,,,,,,,,,,,,,,,,,,,,,,,,,sub-115,1,random_dot,120.45864725709136,
right,right,1.0,1.0,0.0,right,1.0,1.362701874000777,,,,,,0.0,1.0,1.0,1.0,,,,,,,,,9.403512292003144,,,,,,,,,9.39857683399896,9.738733459002106,10.539904792000016,10.53156837500137,10.532169999998588,10.539904792000016,10.539904792000016,10.539904792000016,11.905687209000462,right,1.0,1.362701874000777,,11.905853000003844,11.918267542001558,12.404244750003272,12.414590167005372,,,,,,,,,,,,,,,,,,,,,,,,,,,,,,sub-115,1,random_dot,120.45864725709136,
left,left,2.0,0.0,1.0,right,0.0,0.8936034580037813,,,,,,1.0,0.0,2.0,0.0,,,,,,,,,12.414590167005372,,,,,,,,,12.404740000005404,13.205469625005207,14.006666375003988,13.998436500005482,13.99900670900388,14.006666375003988,14.006666375003988,14.006666375003988,14.90574487500271,right,0.0,0.8936034580037813,,14.912852583998756,14.928943209000863,15.414784167005564,,,,,,,,,,,,,,,,,,,,,,,,,,,,,,,sub-115,1,random_dot,120.45864725709136,
right,right,3.0,1.0,1.0,left,0.0,1.1368603329974576,,,,,,1.0,1.0,3.0,1.0,,,,,,,,,15.420288334004,,,,,,,,,15.41531550000218,16.205459333999897,17.006613208999624,16.998162250005407,16.998746124998434,17.006613208999624,17.006613208999624,17.006613208999624,18.148671625000134,left,0.0,1.1368603329974576,,18.14882845900138,18.157489584002175,18.648461417004,18.65438633400481,,,,,,,,,,,,,,,,,,,,,,,,,,,,,,sub-115,1,random_dot,120.45864725709136,
right,right,4.0,0.0,2.0,right,1.0,1.1657163749987376,,,,,,2.0,0.0,4.0,1.0,,,,,,,,,18.65438633400481,,,,,,,,,18.649058875002083,18.739130417001437,19.54065500000433,19.53177570900152,19.532445625001856,19.54065500000433,19.54065500000433,19.54065500000433,20.715495292002743,right,1.0,1.1657163749987376,,20.71954541699961,20.72794729200541,21.214827959003745,21.220257834000225,,,,,,,,,,,,,,,,,,,,,,,,,,,,,,sub-115,1,random_dot,120.45864725709136,
left,left,5.0,1.0,2.0,right,0.0,1.1133021659989026,,,,,,2.0,1.0,5.0,0.0,,,,,,,,,21.220257834000225,,,,,,,,,21.215321250005218,21.30556445899856,22.10653170900332,22.09837095900002,22.09894337500009,22.10653170900332,22.10653170900332,22.10653170900332,23.22317425000074,right,0.0,1.1133021659989026,,23.226675334000905,23.23566416700487,23.720652709002024,23.731442042000708,,,,,,,,,,,,,,,,,,,,,,,,,,,,,,sub-115,1,random_dot,120.45864725709136,
left,left,6.0,0.0,3.0,right,0.0,1.129212040999846,,,,,,3.0,0.0,6.0,0.0,,,,,,,,,23.731442042000708,,,,,,,,,23.72112279200519,24.521969250003167,25.323365084004763,25.31499029200495,25.3155719589995,25.323365084004763,25.323365084004763,25.323365084004763,26.45551129199885,right,0.0,1.129212040999846,,26.45562558399979,26.463407458999427,26.94847270900209,26.953966792003484,,,,,,,,,,,,,,,,,,,,,,,,,,,,,,sub-115,1,random_dot,120.45864725709136,
right,right,7.0,1.0,3.0,left,0.0,0.8767326239976683,,,,,,3.0,1.0,7.0,1.0,,,,,,,,,26.953966792003484,,,,,,,,,26.948958500004665,27.75443137500406,28.547491124998487,28.537438042003487,28.538120042001538,28.547491124998487,28.547491124998487,28.547491124998487,29.43225354199967,left,0.0,0.8767326239976683,,29.432396417003478,29.44055020900123,29.931752750002488,29.93763895900338,,,,,,,,,,,,,,,,,,,,,,,,,,,,,,sub-115,1,random_dot,120.45864725709136,
left,left,8.0,0.0,4.0,right,0.0,1.6636491659955936,,,,,,4.0,0.0,8.0,0.0,,,,,,,,,29.93763895900338,,,,,,,,,29.9322281249988,30.022027125000022,30.823159709005267,30.815141833998496,30.815683959001035,30.823159709005267,30.823159709005267,30.823159709005267,32.48975983400305,right,0.0,1.6636491659955936,,32.489902917004656,32.4984207919988,32.98182208400249,32.98755345900281,,,,,,,,,,,,,,,,,,,,,,,,,,,,,,sub-115,1,random_dot,120.45864725709136,
right,right,9.0,1.0,4.0,left,0.0,0.8181410409961245,,,,,,4.0,1.0,9.0,1.0,,,,,,,,,32.98755345900281,,,,,,,,,32.982270584005164,34.18909075000556,34.990671084000496,34.982032375002746,34.982697542000096,34.990671084000496,34.990671084000496,34.990671084000496,35.81614016700041,left,0.0,0.8181410409961245,,35.81632004200219,35.82491516700247,36.31518700000015,36.32096958400507,,,,,,,,,,,,,,,,,,,,,,,,,,,,,,sub-115,1,random_dot,120.45864725709136,
right,right,10.0,0.0,5.0,right,1.0,1.4709192910013371,,,,,,5.0,0.0,10.0,1.0,,,,,,,,,36.32096958400507,,,,,,,,,36.31576966700232,37.11496783400071,37.90735508400394,37.89857383400522,37.89911437500268,37.90735508400394,37.90735508400394,37.90735508400394,39.38230695899984,right,1.0,1.4709192910013371,,39.3859012920002,39.39416970900493,39.882011583998974,39.88785229199857,,,,,,,,,,,,,,,,,,,,,,,,,,,,,,sub-115,1,random_dot,120.45864725709136,
left,left,11.0,1.0,5.0,left,1.0,0.7294957080011955,,,,,,5.0,1.0,11.0,0.0,,,,,,,,,39.88785229199857,,,,,,,,,39.882491249998566,41.072704958998656,41.87405116700393,41.865427084005205,41.866117500001565,41.87405116700393,41.87405116700393,41.87405116700393,42.60642358400219,left,1.0,0.7294957080011955,,42.60656745899905,42.61506420899968,43.09878195900092,43.10456587500085,,,,,,,,,,,,,,,,,,,,,,,,,,,,,,sub-115,1,random_dot,120.45864725709136,
left,left,12.0,0.0,6.0,left,1.0,0.769669998997415,,,,,,6.0,0.0,12.0,0.0,,,,,,,,,43.10456587500085,,,,,,,,,43.09938441700069,43.20609570899978,44.006820458998845,43.99865000000136,43.99924529200507,44.006820458998845,44.006820458998845,44.006820458998845,44.78228320900234,left,1.0,0.769669998997415,,44.78239400000166,44.79002087499976,45.28204104200268,45.287894375003816,,,,,,,,,,,,,,,,,,,,,,,,,,,,,,sub-115,1,random_dot,120.45864725709136,
right,right,13.0,1.0,6.0,left,0.0,0.6633897080027964,,,,,,6.0,1.0,13.0,1.0,,,,,,,,,45.287894375003816,,,,,,,,,45.28253308399872,46.47276629200496,47.27450558399869,47.26550479200523,47.26619804200163,47.27450558399869,47.27450558399869,47.27450558399869,47.93944129200099,left,0.0,0.6633897080027964,,47.943442374999,47.952518625003,48.43825700000161,48.44838754200464,,,,,,,,,,,,,,,,,,,,,,,,,,,,,,sub-115,1,random_dot,120.45864725709136,
left,left,14.0,0.0,7.0,left,1.0,0.6569410829979461,,,,,,7.0,0.0,14.0,0.0,,,,,,,,,48.44838754200464,,,,,,,,,48.43870116700418,48.7889142089989,49.590348249999806,49.58207533400128,49.58267541700479,49.590348249999806,49.590348249999806,49.590348249999806,50.24908833399968,left,1.0,0.6569410829979461,,50.25247650000529,50.260821959003806,50.74876891700114,50.75437216700084,,,,,,,,,,,,,,,,,,,,,,,,,,,,,,sub-115,1,random_dot,120.45864725709136,
right,right,15.0,1.0,7.0,left,0.0,0.8086662069981685,,,,,,7.0,1.0,15.0,1.0,,,,,,,,,50.75437216700084,,,,,,,,,50.749243584003125,51.08898858400062,51.89032412500092,51.88217091700062,51.882733875005215,51.89032412500092,51.89032412500092,51.89032412500092,52.7061542090014,left,0.0,0.8086662069981685,,52.70934387500165,52.7192445000037,53.20505116700224,53.21517345900065,,,,,,,,,,,,,,,,,,,,,,,,,,,,,,sub-115,1,random_dot,120.45864725709136,
left,left,16.0,0.0,8.0,left,1.0,1.2220054999997956,,,,,,8.0,0.0,16.0,0.0,,,,,,,,,53.21517345900065,,,,,,,,,53.20553791700513,53.55578945900197,54.35721816700243,54.34888612500072,54.34948100000474,54.35721816700243,54.35721816700243,54.35721816700243,55.5826462920013,left,1.0,1.2220054999997956,,55.58626616700349,55.5946447919996,56.082214375004696,56.088169542003016,,,,,,,,,,,,,,,,,,,,,,,,,,,,,,sub-115,1,random_dot,120.45864725709136,
right,right,17.0,1.0,8.0,right,1.0,1.3073461239982862,,,,,,8.0,1.0,17.0,1.0,,,,,,,,,56.088169542003016,,,,,,,,,56.08269133399881,57.27160337500391,58.07384583400562,58.06547004200547,58.06605500000296,58.07384583400562,58.07384583400562,58.07384583400562,59.382394209002086,right,1.0,1.3073461239982862,,59.38253266700485,59.39093816700188,59.88223487500363,59.88807091700437,,,,,,,,,,,,,,,,,,,,,,,,,,,,,,sub-115,1,random_dot,120.45864725709136,
right,right,18.0,0.0,9.0,left,0.0,1.2621665819970076,,,,,,9.0,0.0,18.0,1.0,,,,,,,,,59.88807091700437,,,,,,,,,59.882723209004325,61.07250279200525,61.8735950840055,61.86540845900163,61.86596108400408,61.8735950840055,61.8735950840055,61.8735950840055,63.13932654200471,left,0.0,1.2621665819970076,,63.14243154200085,63.1525457500029,63.63825841699872,63.64840600000025,,,,,,,,,,,,,,,,,,,,,,,,,,,,,,sub-115,1,random_dot,120.45864725709136,
left,left,19.0,1.0,9.0,right,0.0,1.3526712079983554,,,,,,9.0,1.0,19.0,0.0,,,,,,,,,63.64840600000025,,,,,,,,,63.63876095900196,64.4391858750023,65.24066595900513,65.23221454200393,65.23279837500013,65.24066595900513,65.24066595900513,65.24066595900513,66.59929916699912,right,0.0,1.3526712079983554,,66.59941141700256,66.60701766700367,67.09898658400198,67.10718279200228,,,,,,,,,,,,,,,,,,,,,,,,,,,,,,sub-115,1,random_dot,120.45864725709136,
,,,,,,,,,,,,,,,,,,,,,,,,,,,,,,,,,,,,,,,,,,,,,,,,,,,67.09918512500008,67.10718279200228,67.10718279200228,69.83376991700061,space,2.722147873995709,,,,,,,,,,,,,,,,,,,,,,,,sub-115,1,random_dot,120.45864725709136,
,,,,,,,,,,,,,,,,,,,,,,,,,,,,,,,,,,,,,,,,,,,,,,,,,,,,,,,,,,69.83395629200095,69.84607258400501,69.84607258400501,73.84997637500055,space,3.9982404990005302,,,,,,,,,,,,,,,,,sub-115,1,random_dot,120.45864725709136,
right,right,0.0,0.0,0.0,left,0.0,0.884833873999014,,accuracy,space,2.196983458001341,,,,,,0.0,0.0,0.0,0.0,0.0,0.0,0.0,1.0,76.10253908400045,,,,,,,,,76.09394025000074,76.1813990840019,76.97455016700405,76.9659164590048,76.96660779200465,76.97455016700405,76.97455016700405,76.97455016700405,77.86630616700131,,,,,,,,,,,,,,,,,,,,,,,73.8746010840041,73.88388379200478,73.88388379200478,76.08374895900488,space,2.196983458001341,,left,0.0,0.884833873999014,,,,,,sub-115,1,random_dot,120.45864725709136,
left,left,1.0,1.0,0.0,right,0.0,1.2905943330042646,,accuracy,space,2.196983458001341,,,,,,0.0,0.0,0.0,0.0,0.0,1.0,1.0,0.0,77.87444716699974,,,,,,,,,77.86679070899845,78.20525500000076,78.99824325000372,78.9884238750019,78.98903033399984,78.99824325000372,78.99824325000372,78.99824325000372,80.29013408400351,,,,,,,,,,,,,,,,,,,,,,,,,,,,,,right,0.0,1.2905943330042646,,,,,,sub-115,1,random_dot,120.45864725709136,
right,right,2.0,0.0,1.0,right,1.0,0.8519715820002602,,accuracy,space,2.196983458001341,,,,,,0.0,0.0,0.0,0.0,1.0,0.0,2.0,1.0,80.29788216700399,,,,,,,,,80.29062245900423,81.48988954200468,82.29043395900226,82.28242779200082,82.28297949999978,82.29043395900226,82.29043395900226,82.29043395900226,83.14965916700021,,,,,,,,,,,,,,,,,,,,,,,,,,,,,,right,1.0,0.8519715820002602,,,,,,sub-115,1,random_dot,120.45864725709136,
left,left,3.0,1.0,1.0,right,0.0,1.3629116239972063,,accuracy,space,2.196983458001341,,,,,,0.0,0.0,0.0,0.0,1.0,1.0,3.0,0.0,83.1577416670043,,,,,,,,,83.1501342920019,83.93987970900343,84.74150120899867,84.732619334005,84.73329745900264,84.74150120899867,84.74150120899867,84.74150120899867,86.10653358400305,,,,,,,,,,,,,,,,,,,,,,,,,,,,,,right,0.0,1.3629116239972063,,,,,,sub-115,1,random_dot,120.45864725709136,
left,left,4.0,0.0,2.0,right,0.0,1.3362302500027,,accuracy,space,2.196983458001341,,,,,,0.0,0.0,0.0,0.0,2.0,0.0,4.0,0.0,86.11431745900336,,,,,,,,,86.10704500000429,86.4563439170015,87.24826170899905,87.23911012500321,87.2397044169993,87.24826170899905,87.24826170899905,87.24826170899905,88.59038495900313,,,,,,,,,,,,,,,,,,,,,,,,,,,,,,right,0.0,1.3362302500027,,,,,,sub-115,1,random_dot,120.45864725709136,
right,right,5.0,1.0,2.0,left,0.0,0.6901158330001635,,accuracy,space,2.196983458001341,,,,,,0.0,0.0,0.0,0.0,2.0,1.0,5.0,1.0,88.59898495900416,,,,,,,,,88.59092183400207,88.68868712500262,89.48157408399857,89.4720389590002,89.47263525000017,89.48157408399857,89.48157408399857,89.48157408399857,90.17294937500264,,,,,,,,,,,,,,,,,,,,,,,,,,,,,,left,0.0,0.6901158330001635,,,,,,sub-115,1,random_dot,120.45864725709136,
left,left,6.0,0.0,3.0,left,1.0,0.9157430409977678,,accuracy,space,2.196983458001341,,,,,,0.0,0.0,0.0,0.0,3.0,0.0,6.0,0.0,90.181713209,,,,,,,,,90.17340479200357,90.5230704170026,91.32513229200411,91.31623716700416,91.31692816700524,91.32513229200411,91.32513229200411,91.32513229200411,92.24967554199976,,,,,,,,,,,,,,,,,,,,,,,,,,,,,,left,1.0,0.9157430409977678,,,,,,sub-115,1,random_dot,120.45864725709136,
right,right,7.0,1.0,3.0,right,1.0,1.4920356660004472,,accuracy,space,2.196983458001341,,,,,,0.0,0.0,0.0,0.0,3.0,1.0,7.0,1.0,92.25742237500526,,,,,,,,,92.25014841699884,92.58978724999906,93.38108154200016,93.37246283399872,93.3730605840028,93.38108154200016,93.38108154200016,93.38108154200016,94.88320904200371,,,,,,,,,,,,,,,,,,,,,,,,,,,,,,right,1.0,1.4920356660004472,,,,,,sub-115,1,random_dot,120.45864725709136,
right,right,8.0,0.0,4.0,right,1.0,1.1155020000005609,,accuracy,space,2.196983458001341,,,,,,0.0,0.0,0.0,0.0,4.0,0.0,8.0,1.0,94.89141083400318,,,,,,,,,94.88367512500554,95.22205608399965,96.0150093340053,96.00532516700332,96.00589325000328,96.0150093340053,96.0150093340053,96.0150093340053,97.1328919170046,,,,,,,,,,,,,,,,,,,,,,,,,,,,,,right,1.0,1.1155020000005609,,,,,,sub-115,1,random_dot,120.45864725709136,
left,left,9.0,1.0,4.0,left,1.0,1.0526695820008172,,accuracy,space,2.196983458001341,,,,,,0.0,0.0,0.0,0.0,4.0,1.0,9.0,0.0,97.1406593339998,,,,,,,,,97.13335208400532,97.4734150000004,98.27407770900028,98.26584570900012,98.26641920900148,98.27407770900028,98.27407770900028,98.27407770900028,99.333311375005,,,,,,,,,,,,,,,,,,,,,,,,,,,,,,left,1.0,1.0526695820008172,,,,,,sub-115,1,random_dot,120.45864725709136,
left,left,10.0,0.0,5.0,right,0.0,1.0699719159965753,,accuracy,space,2.196983458001341,,,,,,0.0,0.0,0.0,0.0,5.0,0.0,10.0,0.0,99.34182612500445,,,,,,,,,99.33384729200044,99.67241779200413,100.46503383399975,100.45548920900184,100.4560987090008,100.46503383399975,100.46503383399975,100.46503383399975,101.54014499999904,,,,,,,,,,,,,,,,,,,,,,,,,,,,,,right,0.0,1.0699719159965753,,,,,,sub-115,1,random_dot,120.45864725709136,
right,right,11.0,1.0,5.0,right,1.0,1.1136041240024497,,accuracy,space,2.196983458001341,,,,,,0.0,0.0,0.0,0.0,5.0,1.0,11.0,1.0,101.54807041700406,,,,,,,,,101.54062495900143,102.3398974590018,103.141597834001,103.1328207500046,103.13351658399915,103.141597834001,103.141597834001,103.141597834001,104.25643208400288,,,,,,,,,,,,,,,,,,,,,,,,,,,,,,right,1.0,1.1136041240024497,,,,,,sub-115,1,random_dot,120.45864725709136,
left,left,12.0,0.0,6.0,right,0.0,1.6426931239984697,,accuracy,space,2.196983458001341,,,,,,0.0,0.0,0.0,0.0,6.0,0.0,12.0,0.0,104.26518858400232,,,,,,,,,104.25679966700407,104.60643075000552,105.40792145900195,105.39942833399982,105.40000887500356,105.40792145900195,105.40792145900195,105.40792145900195,107.05662604200188,,,,,,,,,,,,,,,,,,,,,,,,,,,,,,right,0.0,1.6426931239984697,,,,,,sub-115,1,random_dot,120.45864725709136,
right,right,13.0,1.0,6.0,left,0.0,1.3594518739992054,,accuracy,space,2.196983458001341,,,,,,0.0,0.0,0.0,0.0,6.0,1.0,13.0,1.0,107.064591250004,,,,,,,,,107.05710866700248,108.25640545900389,109.0487963340056,109.0401128750018,109.04080975000396,109.0487963340056,109.0487963340056,109.0487963340056,110.4166140419984,,,,,,,,,,,,,,,,,,,,,,,,,,,,,,left,0.0,1.3594518739992054,,,,,,sub-115,1,random_dot,120.45864725709136,
right,right,14.0,0.0,7.0,left,0.0,1.1261033740011044,,accuracy,space,2.196983458001341,,,,,,0.0,0.0,0.0,0.0,7.0,0.0,14.0,1.0,110.42549412500377,,,,,,,,,110.41717304199848,110.75662079200264,111.55784404199947,111.54948604200035,111.5500411250032,111.55784404199947,111.55784404199947,111.55784404199947,112.6900922920031,,,,,,,,,,,,,,,,,,,,,,,,,,,,,,left,0.0,1.1261033740011044,,,,,,sub-115,1,random_dot,120.45864725709136,
left,left,15.0,1.0,7.0,right,0.0,1.2291529569993145,,accuracy,space,2.196983458001341,,,,,,0.0,0.0,0.0,0.0,7.0,1.0,15.0,0.0,112.6980499170022,,,,,,,,,112.69057820900343,113.89013604199864,114.69108179199976,114.68269770900224,114.68327675000182,114.69108179199976,114.69108179199976,114.69108179199976,115.92330945900176,,,,,,,,,,,,,,,,,,,,,,,,,,,,,,right,0.0,1.2291529569993145,,,,,,sub-115,1,random_dot,120.45864725709136,
left,left,16.0,0.0,8.0,left,1.0,1.287070207996294,,accuracy,space,2.196983458001341,,,,,,0.0,0.0,0.0,0.0,8.0,0.0,16.0,0.0,115.93210250000266,,,,,,,,,115.92378483400536,116.02243525000084,116.8152751250018,116.80577574999916,116.80632987499848,116.8152751250018,116.8152751250018,116.8152751250018,118.10681841699989,,,,,,,,,,,,,,,,,,,,,,,,,,,,,,left,1.0,1.287070207996294,,,,,,sub-115,1,random_dot,120.45864725709136,
right,right,17.0,1.0,8.0,right,1.0,0.8655699160008226,,accuracy,space,2.196983458001341,,,,,,0.0,0.0,0.0,0.0,8.0,1.0,17.0,1.0,118.11499004199868,,,,,,,,,118.10731654200208,119.30699487500532,120.10842737500208,120.09966912500386,120.10023466699931,120.10842737500208,120.10842737500208,120.10842737500208,120.9835850840027,,,,,,,,,,,,,,,,,,,,,,,,,,,,,,right,1.0,0.8655699160008226,,,,,,sub-115,1,random_dot,120.45864725709136,
left,left,18.0,0.0,9.0,right,0.0,0.8191522909983178,,accuracy,space,2.196983458001341,,,,,,0.0,0.0,0.0,0.0,9.0,0.0,18.0,0.0,120.99229362500046,,,,,,,,,120.98415683400526,121.32351879199996,122.12455562499964,122.11619137500384,122.1167503750039,122.12455562499964,122.12455562499964,122.12455562499964,122.95020662499884,,,,,,,,,,,,,,,,,,,,,,,,,,,,,,right,0.0,0.8191522909983178,,,,,,sub-115,1,random_dot,120.45864725709136,
right,right,19.0,1.0,9.0,right,1.0,0.9860072910014424,,accuracy,space,2.196983458001341,,,,,,0.0,0.0,0.0,0.0,9.0,1.0,19.0,1.0,122.95783745900552,,,,,,,,,122.9506580840025,123.2905896250013,124.09157341700484,124.08276200000546,124.08345666700188,124.09157341700484,124.09157341700484,124.09157341700484,125.08330512500106,,,,,,,,,,,,,,,,,,,,,,,,,,,,,,right,1.0,0.9860072910014424,,,,,,sub-115,1,random_dot,120.45864725709136,
left,left,20.0,0.0,10.0,left,1.0,0.769333790995006,,accuracy,space,2.196983458001341,,,,,,0.0,0.0,0.0,0.0,10.0,0.0,20.0,0.0,125.09078783400037,,,,,,,,,125.0836900840004,126.27372395899874,127.0751037920054,127.06646387500224,127.0671075420032,127.0751037920054,127.0751037920054,127.0751037920054,127.8502460000018,,,,,,,,,,,,,,,,,,,,,,,,,,,,,,left,1.0,0.769333790995006,,,,,,sub-115,1,random_dot,120.45864725709136,
right,right,21.0,1.0,10.0,left,0.0,0.7279344990020036,,accuracy,space,2.196983458001341,,,,,,0.0,0.0,0.0,0.0,10.0,1.0,21.0,1.0,127.85817600000156,,,,,,,,,127.85071920900371,128.63942729200062,129.43201670900453,129.4228819170021,129.42348254199896,129.43201670900453,129.43201670900453,129.43201670900453,130.1672690839987,,,,,,,,,,,,,,,,,,,,,,,,,,,,,,left,0.0,0.7279344990020036,,,,,,sub-115,1,random_dot,120.45864725709136,
left,left,22.0,0.0,11.0,left,1.0,0.9333696239991696,,accuracy,space,2.196983458001341,,,,,,0.0,0.0,0.0,0.0,11.0,0.0,22.0,0.0,130.17524937500275,,,,,,,,,130.16774033399997,130.265749709004,131.0587921250044,131.04979062500206,131.0504683340041,131.0587921250044,131.0587921250044,131.0587921250044,132.0000948750021,,,,,,,,,,,,,,,,,,,,,,,,,,,,,,left,1.0,0.9333696239991696,,,,,,sub-115,1,random_dot,120.45864725709136,
right,right,23.0,1.0,11.0,left,0.0,0.6461231249995762,,accuracy,space,2.196983458001341,,,,,,0.0,0.0,0.0,0.0,11.0,1.0,23.0,1.0,132.0080654170015,,,,,,,,,132.00055995900038,132.78985125000327,133.58225354200113,133.57276175000152,133.57331500000146,133.58225354200113,133.58225354200113,133.58225354200113,134.2336328340025,,,,,,,,,,,,,,,,,,,,,,,,,,,,,,left,0.0,0.6461231249995762,,,,,,sub-115,1,random_dot,120.45864725709136,
right,right,24.0,0.0,12.0,left,0.0,0.7027196660055779,,accuracy,space,2.196983458001341,,,,,,0.0,0.0,0.0,0.0,12.0,0.0,24.0,1.0,134.2417337920051,,,,,,,,,134.234130542005,135.42276787500305,136.21545012500428,136.20637633400474,136.2070542090005,136.21545012500428,136.21545012500428,136.21545012500428,136.92335966700193,,,,,,,,,,,,,,,,,,,,,,,,,,,,,,left,0.0,0.7027196660055779,,,,,,sub-115,1,random_dot,120.45864725709136,
left,left,25.0,1.0,12.0,right,0.0,0.7148427490028553,,accuracy,space,2.196983458001341,,,,,,0.0,0.0,0.0,0.0,12.0,1.0,25.0,0.0,136.93225366700062,,,,,,,,,136.92373750000115,137.2739822500007,138.0745621669994,138.0662980000052,138.06688854200183,138.0745621669994,138.0745621669994,138.0745621669994,138.80056141700334,,,,,,,,,,,,,,,,,,,,,,,,,,,,,,right,0.0,0.7148427490028553,,,,,,sub-115,1,random_dot,120.45864725709136,
left,left,26.0,0.0,13.0,left,1.0,1.0267557080005645,,accuracy,space,2.196983458001341,,,,,,0.0,0.0,0.0,0.0,13.0,0.0,26.0,0.0,138.80820883400156,,,,,,,,,138.80101770900364,138.89966887500486,139.6922354999988,139.6832575840017,139.68395358400448,139.6922354999988,139.6922354999988,139.6922354999988,140.72417887500342,,,,,,,,,,,,,,,,,,,,,,,,,,,,,,left,1.0,1.0267557080005645,,,,,,sub-115,1,random_dot,120.45864725709136,
right,right,27.0,1.0,13.0,right,1.0,1.378974166000262,,accuracy,space,2.196983458001341,,,,,,0.0,0.0,0.0,0.0,13.0,1.0,27.0,1.0,140.7317495419993,,,,,,,,,140.7246454999986,141.0734127090036,141.86557158399955,141.85629766700004,141.8568761670031,141.86557158399955,141.86557158399955,141.86557158399955,143.25020987500466,,,,,,,,,,,,,,,,,,,,,,,,,,,,,,right,1.0,1.378974166000262,,,,,,sub-115,1,random_dot,120.45864725709136,
right,right,28.0,0.0,14.0,right,1.0,1.0470035409962293,,accuracy,space,2.196983458001341,,,,,,0.0,0.0,0.0,0.0,14.0,0.0,28.0,1.0,143.25809987500543,,,,,,,,,143.25068820900196,143.5906785000043,144.3915605000002,144.38323479200335,144.3838201250037,144.3915605000002,144.3915605000002,144.3915605000002,145.44058487500297,,,,,,,,,,,,,,,,,,,,,,,,,,,,,,right,1.0,1.0470035409962293,,,,,,sub-115,1,random_dot,120.45864725709136,
left,left,29.0,1.0,14.0,left,1.0,0.8926046239939751,,accuracy,space,2.196983458001341,,,,,,0.0,0.0,0.0,0.0,14.0,1.0,29.0,0.0,145.44848120900133,,,,,,,,,145.44107037500362,146.24088233400107,147.04135212500114,147.03307708400098,147.0336764590029,147.04135212500114,147.04135212500114,147.04135212500114,147.94054608399892,,,,,,,,,,,,,,,,,,,,,,,,,,,,,,left,1.0,0.8926046239939751,,,,,,sub-115,1,random_dot,120.45864725709136,
right,right,30.0,0.0,15.0,left,0.0,0.8809804160046042,,accuracy,space,2.196983458001341,,,,,,0.0,0.0,0.0,0.0,15.0,0.0,30.0,1.0,147.94822012499935,,,,,,,,,147.94100270900526,148.739405584005,149.54155475000152,149.5333095419992,149.53389133400196,149.54155475000152,149.54155475000152,149.54155475000152,150.43291491700074,,,,,,,,,,,,,,,,,,,,,,,,,,,,,,left,0.0,0.8809804160046042,,,,,,sub-115,1,random_dot,120.45864725709136,
left,left,31.0,1.0,15.0,left,1.0,0.95448620699608,,accuracy,space,2.196983458001341,,,,,,0.0,0.0,0.0,0.0,15.0,1.0,31.0,0.0,150.43738704200223,,,,,,,,,150.43330795899965,151.22400383400236,152.02474729200185,152.01668091700412,152.01723133400083,152.02474729200185,152.02474729200185,152.02474729200185,152.9836667089985,,,,,,,,,,,,,,,,,,,,,,,,,,,,,,left,1.0,0.95448620699608,,,,,,sub-115,1,random_dot,120.45864725709136,
right,right,32.0,0.0,16.0,left,0.0,1.0952318320050836,,accuracy,space,2.196983458001341,,,,,,0.0,0.0,0.0,0.0,16.0,0.0,32.0,1.0,152.9913386670014,,,,,,,,,152.98413720900135,153.32403083400277,154.125440333999,154.11677187500027,154.1174456670051,154.125440333999,154.125440333999,154.125440333999,155.2239502500015,,,,,,,,,,,,,,,,,,,,,,,,,,,,,,left,0.0,1.0952318320050836,,,,,,sub-115,1,random_dot,120.45864725709136,
left,left,33.0,1.0,16.0,left,1.0,0.7376208329951623,,accuracy,space,2.196983458001341,,,,,,0.0,0.0,0.0,0.0,16.0,1.0,33.0,0.0,155.23165662500105,,,,,,,,,155.22435066700564,156.02414654200402,156.82476950000273,156.8165623340028,156.81713991700235,156.82476950000273,156.82476950000273,156.82476950000273,157.5671011670056,,,,,,,,,,,,,,,,,,,,,,,,,,,,,,left,1.0,0.7376208329951623,,,,,,sub-115,1,random_dot,120.45864725709136,
left,left,34.0,0.0,17.0,right,0.0,0.8189507910065004,,accuracy,space,2.196983458001341,,,,,,0.0,0.0,0.0,0.0,17.0,0.0,34.0,0.0,157.5758687500056,,,,,,,,,157.56769050000003,157.9074370419985,158.70834545900289,158.70009883400053,158.70066420900548,158.70834545900289,158.70834545900289,158.70834545900289,159.53372912500345,,,,,,,,,,,,,,,,,,,,,,,,,,,,,,right,0.0,0.8189507910065004,,,,,,sub-115,1,random_dot,120.45864725709136,
right,right,35.0,1.0,17.0,right,1.0,0.7956913750022068,,accuracy,space,2.196983458001341,,,,,,0.0,0.0,0.0,0.0,17.0,1.0,35.0,1.0,159.5415207920014,,,,,,,,,159.534208709003,159.6227494170016,160.415775417001,160.40598704200238,160.406434084005,160.415775417001,160.415775417001,160.415775417001,161.21703445900494,,,,,,,,,,,,,,,,,,,,,,,,,,,,,,right,1.0,0.7956913750022068,,,,,,sub-115,1,random_dot,120.45864725709136,
left,left,36.0,0.0,18.0,right,0.0,1.2845567489930545,,accuracy,space,2.196983458001341,,,,,,0.0,0.0,0.0,0.0,18.0,0.0,36.0,0.0,161.2244974589994,,,,,,,,,161.21740295900236,162.00726579200273,162.8088796670054,162.80012016700493,162.80067895899992,162.8088796670054,162.8088796670054,162.8088796670054,164.1007334590031,,,,,,,,,,,,,,,,,,,,,,,,,,,,,,right,0.0,1.2845567489930545,,,,,,sub-115,1,random_dot,120.45864725709136,
right,right,37.0,1.0,18.0,right,1.0,0.9892966249972232,,accuracy,space,2.196983458001341,,,,,,0.0,0.0,0.0,0.0,18.0,1.0,37.0,1.0,164.10982558400428,,,,,,,,,164.10127674999967,164.1903968340048,164.9922698340015,164.98346879200108,164.9841196250054,164.9922698340015,164.9922698340015,164.9922698340015,165.983904875,,,,,,,,,,,,,,,,,,,,,,,,,,,,,,right,1.0,0.9892966249972232,,,,,,sub-115,1,random_dot,120.45864725709136,
right,right,38.0,0.0,19.0,right,1.0,0.83687758299493,,accuracy,space,2.196983458001341,,,,,,0.0,0.0,0.0,0.0,19.0,0.0,38.0,1.0,165.99192916700122,,,,,,,,,165.9843698340046,166.32373120899865,167.12492158399982,167.11669341700326,167.11727491700003,167.12492158399982,167.12492158399982,167.12492158399982,167.96698079199996,,,,,,,,,,,,,,,,,,,,,,,,,,,,,,right,1.0,0.83687758299493,,,,,,sub-115,1,random_dot,120.45864725709136,
left,left,39.0,1.0,19.0,right,0.0,1.0323153329954948,,accuracy,space,2.196983458001341,,,,,,0.0,0.0,0.0,0.0,19.0,1.0,39.0,0.0,167.97509904199978,,,,,,,,,167.967443542002,168.3075600000011,169.10847679200378,169.10023220899893,169.10080733400537,169.10847679200378,169.10847679200378,169.10847679200378,170.15073845900042,,,,,,,,,,,,,,,,,,,,,,,,,,,,,,right,0.0,1.0323153329954948,,,,,,sub-115,1,random_dot,120.45864725709136,
right,right,40.0,0.0,20.0,right,1.0,0.9101362500005052,,accuracy,space,2.196983458001341,,,,,,0.0,0.0,0.0,0.0,20.0,0.0,40.0,1.0,170.1590581249984,,,,,,,,,170.15119733400206,170.49083183400217,171.29234458399878,171.28354837500228,171.28411583400157,171.29234458399878,171.29234458399878,171.29234458399878,172.20731637500285,,,,,,,,,,,,,,,,,,,,,,,,,,,,,,right,1.0,0.9101362500005052,,,,,,sub-115,1,random_dot,120.45864725709136,
left,left,41.0,1.0,20.0,right,0.0,1.0733437910021166,,accuracy,space,2.196983458001341,,,,,,0.0,0.0,0.0,0.0,20.0,1.0,41.0,0.0,172.2152613750004,,,,,,,,,172.20779879200563,173.0076496670008,173.8094662920048,173.8003357090056,173.80100108400077,173.8094662920048,173.8094662920048,173.8094662920048,174.89055345900124,,,,,,,,,,,,,,,,,,,,,,,,,,,,,,right,0.0,1.0733437910021166,,,,,,sub-115,1,random_dot,120.45864725709136,
left,left,42.0,0.0,21.0,right,0.0,0.8823508740024408,,accuracy,space,2.196983458001341,,,,,,0.0,0.0,0.0,0.0,21.0,0.0,42.0,0.0,174.8994833750039,,,,,,,,,174.89103295899986,175.69122649999915,176.49199016700004,176.48346116700122,176.4840393340055,176.49199016700004,176.49199016700004,176.49199016700004,177.38398758399853,,,,,,,,,,,,,,,,,,,,,,,,,,,,,,right,0.0,0.8823508740024408,,,,,,sub-115,1,random_dot,120.45864725709136,
right,right,43.0,1.0,21.0,right,1.0,1.0377501240000129,,accuracy,space,2.196983458001341,,,,,,0.0,0.0,0.0,0.0,21.0,1.0,43.0,1.0,177.39189258400438,,,,,,,,,177.3844754169986,178.17436033400008,178.97577404200274,178.96712325000408,178.96780262500397,178.97577404200274,178.97577404200274,178.97577404200274,180.01732674999948,,,,,,,,,,,,,,,,,,,,,,,,,,,,,,right,1.0,1.0377501240000129,,,,,,sub-115,1,random_dot,120.45864725709136,
left,left,44.0,0.0,22.0,left,1.0,0.7086678330015275,,accuracy,space,2.196983458001341,,,,,,0.0,0.0,0.0,0.0,22.0,0.0,44.0,0.0,180.02531962500507,,,,,,,,,180.01779091700155,180.106461125004,180.89925212500384,180.88978920900263,180.89044541700423,180.89925212500384,180.89925212500384,180.89925212500384,181.6172134590015,,,,,,,,,,,,,,,,,,,,,,,,,,,,,,left,1.0,0.7086678330015275,,,,,,sub-115,1,random_dot,120.45864725709136,
right,right,45.0,1.0,22.0,right,1.0,0.7312290830013808,,accuracy,space,2.196983458001341,,,,,,0.0,0.0,0.0,0.0,22.0,1.0,45.0,1.0,181.62529220899887,,,,,,,,,181.61767854200295,182.80666800000472,183.59940908400316,183.5897366670033,183.5901808339986,183.59940908400316,183.59940908400316,183.59940908400316,184.33413487500368,,,,,,,,,,,,,,,,,,,,,,,,,,,,,,right,1.0,0.7312290830013808,,,,,,sub-115,1,random_dot,120.45864725709136,
right,right,46.0,0.0,23.0,right,1.0,1.0455999159967178,,accuracy,space,2.196983458001341,,,,,,0.0,0.0,0.0,0.0,23.0,0.0,46.0,1.0,184.3419687920032,,,,,,,,,184.3346060420008,184.67326058400067,185.4661107089996,185.4559334170044,185.45651958400413,185.4661107089996,185.4661107089996,185.4661107089996,186.51737766700532,,,,,,,,,,,,,,,,,,,,,,,,,,,,,,right,1.0,1.0455999159967178,,,,,,sub-115,1,random_dot,120.45864725709136,
left,left,47.0,1.0,23.0,left,1.0,1.1813903319998644,,accuracy,space,2.196983458001341,,,,,,0.0,0.0,0.0,0.0,23.0,1.0,47.0,0.0,186.5247879590024,,,,,,,,,186.51774495900463,187.7073372090017,188.50921129200287,188.50042429200403,188.5010437919991,188.50921129200287,188.50921129200287,188.50921129200287,189.70127000000505,,,,,,,,,,,,,,,,,,,,,,,,,,,,,,left,1.0,1.1813903319998644,,,,,,sub-115,1,random_dot,120.45864725709136,
right,right,48.0,0.0,24.0,right,1.0,1.3353183739964152,,accuracy,space,2.196983458001341,,,,,,0.0,0.0,0.0,0.0,24.0,0.0,48.0,1.0,189.70993362500303,,,,,,,,,189.70182387500245,189.8004635000034,190.5925540840035,190.5838163340013,190.5844908340005,190.5925540840035,190.5925540840035,190.5925540840035,191.93427029200396,,,,,,,,,,,,,,,,,,,,,,,,,,,,,,right,1.0,1.3353183739964152,,,,,,sub-115,1,random_dot,120.45864725709136,
left,left,49.0,1.0,24.0,right,0.0,0.9021795410008052,,accuracy,space,2.196983458001341,,,,,,0.0,0.0,0.0,0.0,24.0,1.0,49.0,0.0,191.94176891700045,,,,,,,,,191.93464450000465,192.72424400000452,193.52608512499864,193.51719616699847,193.51776750000136,193.52608512499864,193.52608512499864,193.52608512499864,194.434188584004,,,,,,,,,,,,,,,,,,,,,,,,,,,,,,right,0.0,0.9021795410008052,,,,,,sub-115,1,random_dot,120.45864725709136,
left,left,50.0,0.0,25.0,right,0.0,0.8648117909979192,,accuracy,space,2.196983458001341,,,,,,0.0,0.0,0.0,0.0,25.0,0.0,50.0,0.0,194.44256437500007,,,,,,,,,194.43474595899897,194.77330783400248,195.5750835840008,195.56710937499884,195.56765283400452,195.5750835840008,195.5750835840008,195.5750835840008,196.45128633399872,,,,,,,,,,,,,,,,,,,,,,,,,,,,,,right,0.0,0.8648117909979192,,,,,,sub-115,1,random_dot,120.45864725709136,
right,right,51.0,1.0,25.0,right,1.0,1.0701529159996426,,accuracy,space,2.196983458001341,,,,,,0.0,0.0,0.0,0.0,25.0,1.0,51.0,1.0,196.4591812920044,,,,,,,,,196.45176095900388,197.2502472500055,198.0421717920035,198.0339257500018,198.03450270900063,198.0421717920035,198.0421717920035,198.0421717920035,199.1177582090022,,,,,,,,,,,,,,,,,,,,,,,,,,,,,,right,1.0,1.0701529159996426,,,,,,sub-115,1,random_dot,120.45864725709136,
left,left,52.0,0.0,26.0,left,1.0,0.8484417500003474,,accuracy,space,2.196983458001341,,,,,,0.0,0.0,0.0,0.0,26.0,0.0,52.0,0.0,199.1253087090008,,,,,,,,,199.1182131669993,199.2066359590026,199.99959550000492,199.99030575000504,199.9908985420043,199.99959550000492,199.99959550000492,199.99959550000492,200.85124054200423,,,,,,,,,,,,,,,,,,,,,,,,,,,,,,left,1.0,0.8484417500003474,,,,,,sub-115,1,random_dot,120.45864725709136,
right,right,53.0,1.0,26.0,right,1.0,0.735322874999838,,accuracy,space,2.196983458001341,,,,,,0.0,0.0,0.0,0.0,26.0,1.0,53.0,1.0,200.8598771670004,,,,,,,,,200.85181262500555,202.05052612500003,202.8421771249996,202.83396383400395,202.8345112919997,202.8421771249996,202.8421771249996,202.8421771249996,203.5843337500046,,,,,,,,,,,,,,,,,,,,,,,,,,,,,,right,1.0,0.735322874999838,,,,,,sub-115,1,random_dot,120.45864725709136,
right,right,54.0,0.0,27.0,right,1.0,0.9784974990034244,,accuracy,space,2.196983458001341,,,,,,0.0,0.0,0.0,0.0,27.0,0.0,54.0,1.0,203.5922738750014,,,,,,,,,203.58479408400308,203.6741576249988,204.4755726250005,204.4671364590031,204.4676964590035,204.4755726250005,204.4755726250005,204.4755726250005,205.45837649999885,,,,,,,,,,,,,,,,,,,,,,,,,,,,,,right,1.0,0.9784974990034244,,,,,,sub-115,1,random_dot,120.45864725709136,
left,left,55.0,1.0,27.0,right,0.0,1.059407332999399,,accuracy,space,2.196983458001341,,,,,,0.0,0.0,0.0,0.0,27.0,1.0,55.0,0.0,205.46608454200032,,,,,,,,,205.458851084004,205.5577912500012,206.35891166700455,206.3506140840036,206.35118137500103,206.35891166700455,206.35891166700455,206.35891166700455,207.4244374170012,,,,,,,,,,,,,,,,,,,,,,,,,,,,,,right,0.0,1.059407332999399,,,,,,sub-115,1,random_dot,120.45864725709136,
right,right,56.0,0.0,28.0,right,1.0,1.134513749006146,,accuracy,space,2.196983458001341,,,,,,0.0,0.0,0.0,0.0,28.0,0.0,56.0,1.0,207.43237729200337,,,,,,,,,207.42488950000552,207.5163255840016,208.308943834003,208.30065350000223,208.30122170899995,208.308943834003,208.308943834003,208.308943834003,209.45089637500496,,,,,,,,,,,,,,,,,,,,,,,,,,,,,,right,1.0,1.134513749006146,,,,,,sub-115,1,random_dot,120.45864725709136,
left,left,57.0,1.0,28.0,left,1.0,1.0975719569978537,,accuracy,space,2.196983458001341,,,,,,0.0,0.0,0.0,0.0,28.0,1.0,57.0,0.0,209.45911558400255,,,,,,,,,209.4513540420012,209.79087870900548,210.58330950000527,210.57388979200184,210.57447133400277,210.58330950000527,210.58330950000527,210.58330950000527,211.68462283400004,,,,,,,,,,,,,,,,,,,,,,,,,,,,,,left,1.0,1.0975719569978537,,,,,,sub-115,1,random_dot,120.45864725709136,
left,left,58.0,0.0,29.0,right,0.0,0.8734587079961784,,accuracy,space,2.196983458001341,,,,,,0.0,0.0,0.0,0.0,29.0,0.0,58.0,0.0,211.6924695839989,,,,,,,,,211.6850750420053,212.024653667002,212.8256903750007,212.81737912500105,212.8179567920015,212.8256903750007,212.8256903750007,212.8256903750007,213.70124225000475,,,,,,,,,,,,,,,,,,,,,,,,,,,,,,right,0.0,0.8734587079961784,,,,,,sub-115,1,random_dot,120.45864725709136,
right,right,59.0,1.0,29.0,right,1.0,0.8547438329987926,,accuracy,space,2.196983458001341,,,,,,0.0,0.0,0.0,0.0,29.0,1.0,59.0,1.0,213.709733542004,,,,,,,,,213.7018664589996,214.89014999999927,215.6921206670013,215.68407624999963,215.6846425840049,215.6921206670013,215.6921206670013,215.6921206670013,216.55094675000143,,,,,,,,,,,,,,,,,,,,,,,,,,,,,,right,1.0,0.8547438329987926,,,,,,sub-115,1,random_dot,120.45864725709136,
,,0.0,0.0,0.0,,,,,accuracy,space,2.196983458001341,,,,,,0.0,0.0,0.0,0.0,,,,,,,,,,,,,,,,,,,,,,,,,,,,,,,,,,,,,,,,,,,,,,,,,,,,,,,,,,,,sub-115,1,random_dot,120.45864725709136,
right,right,0.0,0.0,0.0,right,1.0,0.5307187070065993,,speed,space,4.565082291002909,,,,,,0.0,1.0,1.0,1.0,0.0,0.0,0.0,1.0,221.1737890420045,,,,,,,,,221.16099841699904,221.2505616250055,222.04224604200132,222.0341188750026,222.03463624999856,222.04224604200132,222.04224604200132,222.04224604200132,222.574911542004,,,,,,,,,,,,,,,,,,,,,,,216.56717691700032,216.5751346250036,216.5751346250036,221.15193020900188,space,4.565082291002909,,right,1.0,0.5307187070065993,,,,,,sub-115,1,random_dot,120.45864725709136,
left,left,1.0,1.0,0.0,right,0.0,0.80945354099822,,speed,space,4.565082291002909,,,,,,0.0,1.0,1.0,1.0,0.0,1.0,1.0,0.0,222.582827541999,,,,,,,,,222.5753851250047,222.67389600000024,223.46649079200145,223.45684891700512,223.45741850000195,223.46649079200145,223.46649079200145,223.46649079200145,224.28447629199945,,,,,,,,,,,,,,,,,,,,,,,,,,,,,,right,0.0,0.80945354099822,,,,,,sub-115,1,random_dot,120.45864725709136,
right,right,2.0,0.0,1.0,right,1.0,0.5711773750008433,,speed,space,4.565082291002909,,,,,,0.0,1.0,1.0,1.0,1.0,0.0,2.0,1.0,224.2923353340011,,,,,,,,,224.28495787500287,225.47368741700484,226.2665280000001,226.25712933400064,226.25770458400075,226.2665280000001,226.2665280000001,226.2665280000001,226.84130212500168,,,,,,,,,,,,,,,,,,,,,,,,,,,,,,right,1.0,0.5711773750008433,,,,,,sub-115,1,random_dot,120.45864725709136,
left,left,3.0,1.0,1.0,right,0.0,0.5951178739996976,,speed,space,4.565082291002909,,,,,,0.0,1.0,1.0,1.0,1.0,1.0,3.0,0.0,226.8499885420024,,,,,,,,,226.8416732090045,228.0412390420024,228.84249400000408,228.8341691250025,228.83475629200257,228.84249400000408,228.84249400000408,228.84249400000408,229.44130195899925,,,,,,,,,,,,,,,,,,,,,,,,,,,,,,right,0.0,0.5951178739996976,,,,,,sub-115,1,random_dot,120.45864725709136,
left,left,4.0,0.0,2.0,right,0.0,0.5281933329970343,,speed,space,4.565082291002909,,,,,,0.0,1.0,1.0,1.0,2.0,0.0,4.0,0.0,229.4499971250043,,,,,,,,,229.4416664590026,230.64035283400156,231.4332942090041,231.42405233400493,231.4246266670016,231.4332942090041,231.4332942090041,231.4332942090041,231.96806158400432,,,,,,,,,,,,,,,,,,,,,,,,,,,,,,right,0.0,0.5281933329970343,,,,,,sub-115,1,random_dot,120.45864725709136,
right,right,5.0,1.0,2.0,left,0.0,0.6386992490006378,,speed,space,4.565082291002909,,,,,,0.0,1.0,1.0,1.0,2.0,1.0,5.0,1.0,231.9765490420032,,,,,,,,,231.9685971670042,232.75805899999975,233.5592279170014,233.55091191700197,233.55143854200287,233.5592279170014,233.5592279170014,233.5592279170014,234.2015478340036,,,,,,,,,,,,,,,,,,,,,,,,,,,,,,left,0.0,0.6386992490006378,,,,,,sub-115,1,random_dot,120.45864725709136,
right,right,6.0,0.0,3.0,right,1.0,0.6272962910006754,,speed,space,4.565082291002909,,,,,,0.0,1.0,1.0,1.0,3.0,0.0,6.0,1.0,234.20929016700396,,,,,,,,,234.20202062500172,234.5404695420002,235.33334650000324,235.32336933400077,235.32403049999996,235.33334650000324,235.33334650000324,235.33334650000324,235.9683670420054,,,,,,,,,,,,,,,,,,,,,,,,,,,,,,right,1.0,0.6272962910006754,,,,,,sub-115,1,random_dot,120.45864725709136,
left,left,7.0,1.0,3.0,left,1.0,0.8147973329978413,,speed,space,4.565082291002909,,,,,,0.0,1.0,1.0,1.0,3.0,1.0,7.0,0.0,235.97688812500564,,,,,,,,,235.9689142920033,236.31699350000417,237.1098190000048,237.1010444999993,237.10170574999935,237.1098190000048,237.1098190000048,237.1098190000048,237.93470900000105,,,,,,,,,,,,,,,,,,,,,,,,,,,,,,left,1.0,0.8147973329978413,,,,,,sub-115,1,random_dot,120.45864725709136,
left,left,8.0,0.0,4.0,right,0.0,1.1223795830010204,,speed,space,4.565082291002909,,,,,,0.0,1.0,1.0,1.0,4.0,0.0,8.0,0.0,237.9424599999984,,,,,,,,,237.9351740839993,238.2748457500056,239.07603666700012,239.06766733399851,239.0682658750011,239.07603666700012,239.07603666700012,239.07603666700012,240.2014182089988,,,,,,,,,,,,,,,,,,,,,,,,,,,,,,right,0.0,1.1223795830010204,,,,,,sub-115,1,random_dot,120.45864725709136,
right,right,9.0,1.0,4.0,right,1.0,0.880528248999326,,speed,space,4.565082291002909,,,,,,0.0,1.0,1.0,1.0,4.0,1.0,9.0,1.0,240.209076500003,,,,,,,,,240.20189479200053,240.990458459004,241.78342483400047,241.77316387500468,241.77376583400476,241.78342483400047,241.78342483400047,241.78342483400047,242.6680600000036,,,,,,,,,,,,,,,,,,,,,,,,,,,,,,right,1.0,0.880528248999326,,,,,,sub-115,1,random_dot,120.45864725709136,
right,right,10.0,0.0,5.0,right,1.0,0.5574000409978908,,speed,space,4.565082291002909,,,,,,0.0,1.0,1.0,1.0,5.0,0.0,10.0,1.0,242.6762895840002,,,,,,,,,242.668534000004,243.85804766700312,244.6600978339993,244.65116291700545,244.6518363340001,244.6600978339993,244.6600978339993,244.6600978339993,245.22490437500528,,,,,,,,,,,,,,,,,,,,,,,,,,,,,,right,1.0,0.5574000409978908,,,,,,sub-115,1,random_dot,120.45864725709136,
left,left,11.0,1.0,5.0,right,0.0,0.5455620409993571,,speed,space,4.565082291002909,,,,,,0.0,1.0,1.0,1.0,5.0,1.0,11.0,0.0,245.23263900000163,,,,,,,,,245.22535529200104,246.4238975000044,247.2167782500037,247.2075694590021,247.2081300420032,247.2167782500037,247.2167782500037,247.2167782500037,247.7681933749991,,,,,,,,,,,,,,,,,,,,,,,,,,,,,,right,0.0,0.5455620409993571,,,,,,sub-115,1,random_dot,120.45864725709136,
left,left,12.0,0.0,6.0,left,1.0,0.5540068750051432,,speed,space,4.565082291002909,,,,,,0.0,1.0,1.0,1.0,6.0,0.0,12.0,0.0,247.7769834589999,,,,,,,,,247.7687081250042,248.55800916700537,249.35971133400017,249.3511794590013,249.3518595839996,249.35971133400017,249.35971133400017,249.35971133400017,249.91821454200544,,,,,,,,,,,,,,,,,,,,,,,,,,,,,,left,1.0,0.5540068750051432,,,,,,sub-115,1,random_dot,120.45864725709136,
right,right,13.0,1.0,6.0,left,0.0,0.5128664570002002,,speed,space,4.565082291002909,,,,,,0.0,1.0,1.0,1.0,6.0,1.0,13.0,1.0,249.9258857090026,,,,,,,,,249.91868495900417,251.108249334,251.90926979199867,251.90121141700365,251.90171108399957,251.90926979199867,251.90926979199867,251.90926979199867,252.425693959005,,,,,,,,,,,,,,,,,,,,,,,,,,,,,,left,0.0,0.5128664570002002,,,,,,sub-115,1,random_dot,120.45864725709136,
left,left,14.0,0.0,7.0,left,1.0,0.7861946250050096,,speed,space,4.565082291002909,,,,,,0.0,1.0,1.0,1.0,7.0,0.0,14.0,0.0,252.43363150000368,,,,,,,,,252.4261763750037,253.22498754200203,254.02667633400412,254.01791666699864,254.01849737500012,254.02667633400412,254.02667633400412,254.02667633400412,254.8183880420038,,,,,,,,,,,,,,,,,,,,,,,,,,,,,,left,1.0,0.7861946250050096,,,,,,sub-115,1,random_dot,120.45864725709136,
right,right,15.0,1.0,7.0,left,0.0,0.6443782490023295,,speed,space,4.565082291002909,,,,,,0.0,1.0,1.0,1.0,7.0,1.0,15.0,1.0,254.82592541700436,,,,,,,,,254.8187515000027,255.158582959004,255.95938966700487,255.9511436250032,255.95169549999991,255.95938966700487,255.95938966700487,255.95938966700487,256.6081681670039,,,,,,,,,,,,,,,,,,,,,,,,,,,,,,left,0.0,0.6443782490023295,,,,,,sub-115,1,random_dot,120.45864725709136,
right,right,16.0,0.0,8.0,left,0.0,0.5404560829992988,,speed,space,4.565082291002909,,,,,,0.0,1.0,1.0,1.0,8.0,0.0,16.0,1.0,256.6169469170054,,,,,,,,,256.6085466670047,257.4073645000026,258.20027558400034,258.19013350000023,258.1905845000001,258.20027558400034,258.20027558400034,258.20027558400034,258.75177429200266,,,,,,,,,,,,,,,,,,,,,,,,,,,,,,left,0.0,0.5404560829992988,,,,,,sub-115,1,random_dot,120.45864725709136,
left,left,17.0,1.0,8.0,left,1.0,0.4993254990040441,,speed,space,4.565082291002909,,,,,,0.0,1.0,1.0,1.0,8.0,1.0,17.0,0.0,258.7596955420013,,,,,,,,,258.7522201669999,259.9415627920025,260.74340158400446,260.7346631670007,260.7353272920009,260.74340158400446,260.74340158400446,260.74340158400446,261.25182700000005,,,,,,,,,,,,,,,,,,,,,,,,,,,,,,left,1.0,0.4993254990040441,,,,,,sub-115,1,random_dot,120.45864725709136,
right,right,18.0,0.0,9.0,left,0.0,0.5767730410007061,,speed,space,4.565082291002909,,,,,,0.0,1.0,1.0,1.0,9.0,0.0,18.0,1.0,261.26078637500177,,,,,,,,,261.2523567919998,261.59168391700223,262.39335587499954,262.3846732919992,262.3853404590045,262.39335587499954,262.39335587499954,262.39335587499954,262.9753283750033,,,,,,,,,,,,,,,,,,,,,,,,,,,,,,left,0.0,0.5767730410007061,,,,,,sub-115,1,random_dot,120.45864725709136,
left,left,19.0,1.0,9.0,right,0.0,0.5670115819957573,,speed,space,4.565082291002909,,,,,,0.0,1.0,1.0,1.0,9.0,1.0,19.0,0.0,262.98303654199844,,,,,,,,,262.9757850840033,264.1750631670002,264.9763102920042,264.9679541250007,264.96855499999947,264.9763102920042,264.9763102920042,264.9763102920042,265.55159470900253,,,,,,,,,,,,,,,,,,,,,,,,,,,,,,right,0.0,0.5670115819957573,,,,,,sub-115,1,random_dot,120.45864725709136,
left,left,20.0,0.0,10.0,right,0.0,0.468050832998415,,speed,space,4.565082291002909,,,,,,0.0,1.0,1.0,1.0,10.0,0.0,20.0,0.0,265.55937149999954,,,,,,,,,265.5520652090054,266.74205591699865,267.542709166999,267.53443808400334,267.5350407090009,267.542709166999,267.542709166999,267.542709166999,268.01823833399976,,,,,,,,,,,,,,,,,,,,,,,,,,,,,,right,0.0,0.468050832998415,,,,,,sub-115,1,random_dot,120.45864725709136,
right,right,21.0,1.0,10.0,left,0.0,0.5062662909986102,,speed,space,4.565082291002909,,,,,,0.0,1.0,1.0,1.0,10.0,1.0,21.0,1.0,268.0260062919988,,,,,,,,,268.0187265420027,269.20848979199945,270.0103999170024,270.00143620900053,270.00211383400165,270.0103999170024,270.0103999170024,270.0103999170024,270.5184321670022,,,,,,,,,,,,,,,,,,,,,,,,,,,,,,left,0.0,0.5062662909986102,,,,,,sub-115,1,random_dot,120.45864725709136,
left,left,22.0,0.0,11.0,right,0.0,0.5492044999991776,,speed,space,4.565082291002909,,,,,,0.0,1.0,1.0,1.0,11.0,0.0,22.0,0.0,270.5266505000036,,,,,,,,,270.51897391700186,271.70850958400115,272.5096380840041,272.5012712090029,272.50185883400263,272.5096380840041,272.5096380840041,272.5096380840041,273.06841683400125,,,,,,,,,,,,,,,,,,,,,,,,,,,,,,right,0.0,0.5492044999991776,,,,,,sub-115,1,random_dot,120.45864725709136,
right,right,23.0,1.0,11.0,left,0.0,0.6439910410044831,,speed,space,4.565082291002909,,,,,,0.0,1.0,1.0,1.0,11.0,1.0,23.0,1.0,273.0762925419985,,,,,,,,,273.0689035000032,274.25885345900315,275.05972312499944,275.0514385839997,275.05200645900186,275.05972312499944,275.05972312499944,275.05972312499944,275.70854983400204,,,,,,,,,,,,,,,,,,,,,,,,,,,,,,left,0.0,0.6439910410044831,,,,,,sub-115,1,random_dot,120.45864725709136,
right,right,24.0,0.0,12.0,right,1.0,0.5368102079955861,,speed,space,4.565082291002909,,,,,,0.0,1.0,1.0,1.0,12.0,0.0,24.0,1.0,275.717298167001,,,,,,,,,275.7090085419986,276.5084752920011,277.3007554170036,277.29135304200463,277.29194033400563,277.3007554170036,277.3007554170036,277.3007554170036,277.8417464170052,,,,,,,,,,,,,,,,,,,,,,,,,,,,,,right,1.0,0.5368102079955861,,,,,,sub-115,1,random_dot,120.45864725709136,
left,left,25.0,1.0,12.0,left,1.0,0.7644688330037752,,speed,space,4.565082291002909,,,,,,0.0,1.0,1.0,1.0,12.0,1.0,25.0,0.0,277.8504919170009,,,,,,,,,277.84212016699894,278.1907898339996,278.98383512500004,278.97422537500097,278.9748268340045,278.98383512500004,278.98383512500004,278.98383512500004,279.75166300000274,,,,,,,,,,,,,,,,,,,,,,,,,,,,,,left,1.0,0.7644688330037752,,,,,,sub-115,1,random_dot,120.45864725709136,
left,left,26.0,0.0,13.0,right,0.0,0.599385624002025,,speed,space,4.565082291002909,,,,,,0.0,1.0,1.0,1.0,13.0,0.0,26.0,0.0,279.7594895420043,,,,,,,,,279.7521198750037,280.0918430840029,280.89360975000454,280.88481991700246,280.8853864170014,280.89360975000454,280.89360975000454,280.89360975000454,281.5016895420049,,,,,,,,,,,,,,,,,,,,,,,,,,,,,,right,0.0,0.599385624002025,,,,,,sub-115,1,random_dot,120.45864725709136,
right,right,27.0,1.0,13.0,right,1.0,0.6877492080020602,,speed,space,4.565082291002909,,,,,,0.0,1.0,1.0,1.0,13.0,1.0,27.0,1.0,281.50951620900014,,,,,,,,,281.50214291700104,282.29222825000033,283.0931693750026,283.08485741700133,283.0854305419998,283.0931693750026,283.0931693750026,283.0931693750026,283.7854178339985,,,,,,,,,,,,,,,,,,,,,,,,,,,,,,right,1.0,0.6877492080020602,,,,,,sub-115,1,random_dot,120.45864725709136,
left,left,28.0,0.0,14.0,right,0.0,0.7195133329951204,,speed,space,4.565082291002909,,,,,,0.0,1.0,1.0,1.0,14.0,0.0,28.0,0.0,283.7940857089998,,,,,,,,,283.7859593750036,284.57512229200074,285.3765421249991,285.3682349590017,285.36879387500085,285.3765421249991,285.3765421249991,285.3765421249991,286.10159470900544,,,,,,,,,,,,,,,,,,,,,,,,,,,,,,right,0.0,0.7195133329951204,,,,,,sub-115,1,random_dot,120.45864725709136,
right,right,29.0,1.0,14.0,right,1.0,0.6771737489980296,,speed,space,4.565082291002909,,,,,,0.0,1.0,1.0,1.0,14.0,1.0,29.0,1.0,286.1089893340031,,,,,,,,,286.1019599170031,286.1904240840013,286.9839356250013,286.97428624999884,286.9748105000035,286.9839356250013,286.9839356250013,286.9839356250013,287.6685534999997,,,,,,,,,,,,,,,,,,,,,,,,,,,,,,right,1.0,0.6771737489980296,,,,,,sub-115,1,random_dot,120.45864725709136,
left,left,30.0,0.0,15.0,left,1.0,0.5895581240038155,,speed,space,4.565082291002909,,,,,,0.0,1.0,1.0,1.0,15.0,0.0,30.0,0.0,287.6763581250052,,,,,,,,,287.66901741699985,288.85870737500227,289.65984337500413,289.65152779200434,289.6521208340055,289.65984337500413,289.65984337500413,289.65984337500413,290.25194983400434,,,,,,,,,,,,,,,,,,,,,,,,,,,,,,left,1.0,0.5895581240038155,,,,,,sub-115,1,random_dot,120.45864725709136,
right,right,31.0,1.0,15.0,right,1.0,0.759287499000493,,speed,space,4.565082291002909,,,,,,0.0,1.0,1.0,1.0,15.0,1.0,31.0,1.0,290.25966591700126,,,,,,,,,290.25240020899946,290.3410240000012,291.13396466700215,291.12431300000026,291.124911292005,291.13396466700215,291.13396466700215,291.13396466700215,291.9017924170039,,,,,,,,,,,,,,,,,,,,,,,,,,,,,,right,1.0,0.759287499000493,,,,,,sub-115,1,random_dot,120.45864725709136,
right,right,32.0,0.0,16.0,left,0.0,0.6963028329992085,,speed,space,4.565082291002909,,,,,,0.0,1.0,1.0,1.0,16.0,0.0,32.0,1.0,291.91000829200493,,,,,,,,,291.9022489589988,292.6921085840004,293.4933970839993,293.4849639590029,293.48553058400284,293.4933970839993,293.4933970839993,293.4933970839993,294.1922857919999,,,,,,,,,,,,,,,,,,,,,,,,,,,,,,left,0.0,0.6963028329992085,,,,,,sub-115,1,random_dot,120.45864725709136,
left,left,33.0,1.0,16.0,left,1.0,0.4614258749934379,,speed,space,4.565082291002909,,,,,,0.0,1.0,1.0,1.0,16.0,1.0,33.0,0.0,294.19994854200195,,,,,,,,,294.19273762500234,294.9922112089989,295.7937241670006,295.7850213749989,295.7856690000044,295.7937241670006,295.7937241670006,295.7937241670006,296.25925149999966,,,,,,,,,,,,,,,,,,,,,,,,,,,,,,left,1.0,0.4614258749934379,,,,,,sub-115,1,random_dot,120.45864725709136,
left,left,34.0,0.0,17.0,left,1.0,0.5469607489940245,,speed,space,4.565082291002909,,,,,,0.0,1.0,1.0,1.0,17.0,0.0,34.0,0.0,296.26697095900454,,,,,,,,,296.2597262089985,297.0586406250004,297.8606937090008,297.85171933400125,297.85241099999985,297.8606937090008,297.8606937090008,297.8606937090008,298.40980408400355,,,,,,,,,,,,,,,,,,,,,,,,,,,,,,left,1.0,0.5469607489940245,,,,,,sub-115,1,random_dot,120.45864725709136,
right,right,35.0,1.0,17.0,left,0.0,0.626424082001904,,speed,space,4.565082291002909,,,,,,0.0,1.0,1.0,1.0,17.0,1.0,35.0,1.0,298.4180919999999,,,,,,,,,298.41037795900047,299.2087926669992,300.0098509590025,300.00163866700314,300.0022056250018,300.0098509590025,300.0098509590025,300.0098509590025,300.64322079200065,,,,,,,,,,,,,,,,,,,,,,,,,,,,,,left,0.0,0.626424082001904,,,,,,sub-115,1,random_dot,120.45864725709136,
right,right,36.0,0.0,18.0,left,0.0,0.6319945830036886,,speed,space,4.565082291002909,,,,,,0.0,1.0,1.0,1.0,18.0,0.0,36.0,1.0,300.65088275000016,,,,,,,,,300.6436949589988,300.7405466249984,301.5341723340025,301.524444667004,301.5250252090045,301.5341723340025,301.5341723340025,301.5341723340025,302.1689435840017,,,,,,,,,,,,,,,,,,,,,,,,,,,,,,left,0.0,0.6319945830036886,,,,,,sub-115,1,random_dot,120.45864725709136,
left,left,37.0,1.0,18.0,left,1.0,0.5577296240007854,,speed,space,4.565082291002909,,,,,,0.0,1.0,1.0,1.0,18.0,1.0,37.0,0.0,302.1776863340056,,,,,,,,,302.16949212500185,302.95910987500247,303.75983945900225,303.75176195899985,303.7523116250013,303.75983945900225,303.75983945900225,303.75983945900225,304.3279711249997,,,,,,,,,,,,,,,,,,,,,,,,,,,,,,left,1.0,0.5577296240007854,,,,,,sub-115,1,random_dot,120.45864725709136,
right,right,38.0,0.0,19.0,right,1.0,0.6139264160010498,,speed,space,4.565082291002909,,,,,,0.0,1.0,1.0,1.0,19.0,0.0,38.0,1.0,304.3336574999994,,,,,,,,,304.3283354170053,304.4247681670022,305.2175752090043,305.20816616700176,305.20875337500183,305.2175752090043,305.2175752090043,305.2175752090043,305.8354353340037,,,,,,,,,,,,,,,,,,,,,,,,,,,,,,right,1.0,0.6139264160010498,,,,,,sub-115,1,random_dot,120.45864725709136,
left,left,39.0,1.0,19.0,right,0.0,0.7732479990008869,,speed,space,4.565082291002909,,,,,,0.0,1.0,1.0,1.0,19.0,1.0,39.0,0.0,305.8431349590028,,,,,,,,,305.8358937500016,306.6254307920026,307.4272275420008,307.4184502499993,307.4191155000008,307.4272275420008,307.4272275420008,307.4272275420008,308.20195329200214,,,,,,,,,,,,,,,,,,,,,,,,,,,,,,right,0.0,0.7732479990008869,,,,,,sub-115,1,random_dot,120.45864725709136,
left,left,40.0,0.0,20.0,right,0.0,0.5572985830003745,,speed,space,4.565082291002909,,,,,,0.0,1.0,1.0,1.0,20.0,0.0,40.0,0.0,308.20985904199915,,,,,,,,,308.202424916999,309.39224666700466,310.19340750000265,310.1851325000025,310.1857377090055,310.19340750000265,310.19340750000265,310.19340750000265,310.7522165000046,,,,,,,,,,,,,,,,,,,,,,,,,,,,,,right,0.0,0.5572985830003745,,,,,,sub-115,1,random_dot,120.45864725709136,
right,right,41.0,1.0,20.0,right,1.0,0.5661949159984943,,speed,space,4.565082291002909,,,,,,0.0,1.0,1.0,1.0,20.0,1.0,41.0,1.0,310.76058679199923,,,,,,,,,310.75275112500094,311.54229175000364,312.34326204199897,312.33514808399923,312.3356920840015,312.34326204199897,312.34326204199897,312.34326204199897,312.9193376250041,,,,,,,,,,,,,,,,,,,,,,,,,,,,,,right,1.0,0.5661949159984943,,,,,,sub-115,1,random_dot,120.45864725709136,
right,right,42.0,0.0,21.0,left,0.0,0.9226732489987626,,speed,space,4.565082291002909,,,,,,0.0,1.0,1.0,1.0,21.0,0.0,42.0,1.0,312.9273893339996,,,,,,,,,312.91981333400327,313.26777887500066,314.060606250001,314.0518902920012,314.0525503750032,314.060606250001,314.060606250001,314.060606250001,314.98646383400046,,,,,,,,,,,,,,,,,,,,,,,,,,,,,,left,0.0,0.9226732489987626,,,,,,sub-115,1,random_dot,120.45864725709136,
left,left,43.0,1.0,21.0,left,1.0,0.544881374000397,,speed,space,4.565082291002909,,,,,,0.0,1.0,1.0,1.0,21.0,1.0,43.0,0.0,314.9956748340046,,,,,,,,,314.98708312500094,315.08420670900523,315.8773392920048,315.868555042005,315.86921987499954,315.8773392920048,315.8773392920048,315.8773392920048,316.4260330420002,,,,,,,,,,,,,,,,,,,,,,,,,,,,,,left,1.0,0.544881374000397,,,,,,sub-115,1,random_dot,120.45864725709136,
left,left,44.0,0.0,22.0,right,0.0,0.5186503330041887,,speed,space,4.565082291002909,,,,,,0.0,1.0,1.0,1.0,22.0,0.0,44.0,0.0,316.4337215420019,,,,,,,,,316.4265061670012,317.62565791700035,318.4273495419984,318.41850637500465,318.4190932499987,318.4273495419984,318.4273495419984,318.4273495419984,318.9521578339991,,,,,,,,,,,,,,,,,,,,,,,,,,,,,,right,0.0,0.5186503330041887,,,,,,sub-115,1,random_dot,120.45864725709136,
right,right,45.0,1.0,22.0,left,0.0,0.7402333329955582,,speed,space,4.565082291002909,,,,,,0.0,1.0,1.0,1.0,22.0,1.0,45.0,1.0,318.9603581670017,,,,,,,,,318.95263562499895,319.292344417001,320.09332345900475,320.08524687500176,320.08583070900204,320.09332345900475,320.09332345900475,320.09332345900475,320.8358585000024,,,,,,,,,,,,,,,,,,,,,,,,,,,,,,left,0.0,0.7402333329955582,,,,,,sub-115,1,random_dot,120.45864725709136,
left,left,46.0,0.0,23.0,left,1.0,0.6492679160000989,,speed,space,4.565082291002909,,,,,,0.0,1.0,1.0,1.0,23.0,0.0,46.0,0.0,320.8437227090035,,,,,,,,,320.836321458999,321.1758099590006,321.9767799590045,321.9685557090052,321.969110334001,321.9767799590045,321.9767799590045,321.9767799590045,322.63566625000385,,,,,,,,,,,,,,,,,,,,,,,,,,,,,,left,1.0,0.6492679160000989,,,,,,sub-115,1,random_dot,120.45864725709136,
right,right,47.0,1.0,23.0,right,1.0,0.6245729160000337,,speed,space,4.565082291002909,,,,,,0.0,1.0,1.0,1.0,23.0,1.0,47.0,1.0,322.6434572500002,,,,,,,,,322.63611495900113,323.8249295420028,324.6171867919984,324.60846462500194,324.6091475420035,324.6171867919984,324.6171867919984,324.6171867919984,325.25260758399963,,,,,,,,,,,,,,,,,,,,,,,,,,,,,,right,1.0,0.6245729160000337,,,,,,sub-115,1,random_dot,120.45864725709136,
left,left,48.0,0.0,24.0,right,0.0,0.6696566250029719,,speed,space,4.565082291002909,,,,,,0.0,1.0,1.0,1.0,24.0,0.0,48.0,0.0,325.25747966700146,,,,,,,,,325.25311800000054,326.4422077920026,327.2435515420002,327.2352531249999,327.2358346250039,327.2435515420002,327.2435515420002,327.2435515420002,327.9192814170019,,,,,,,,,,,,,,,,,,,,,,,,,,,,,,right,0.0,0.6696566250029719,,,,,,sub-115,1,random_dot,120.45864725709136,
right,right,49.0,1.0,24.0,left,0.0,0.8352363320009317,,speed,space,4.565082291002909,,,,,,0.0,1.0,1.0,1.0,24.0,1.0,49.0,1.0,327.9281279170027,,,,,,,,,327.91984354200395,328.2683366670026,329.0602600420025,329.0519862920046,329.0525338340012,329.0602600420025,329.0602600420025,329.0602600420025,329.9024090419989,,,,,,,,,,,,,,,,,,,,,,,,,,,,,,left,0.0,0.8352363320009317,,,,,,sub-115,1,random_dot,120.45864725709136,
right,right,50.0,0.0,25.0,right,1.0,0.7802633740066085,,speed,space,4.565082291002909,,,,,,0.0,1.0,1.0,1.0,25.0,0.0,50.0,1.0,329.9105087920034,,,,,,,,,329.90287454200006,330.0016864999998,330.79339562500536,330.78533037500165,330.78587737500493,330.79339562500536,330.79339562500536,330.79339562500536,331.5756608340016,,,,,,,,,,,,,,,,,,,,,,,,,,,,,,right,1.0,0.7802633740066085,,,,,,sub-115,1,random_dot,120.45864725709136,
left,left,51.0,1.0,25.0,right,0.0,0.6783044570038328,,speed,space,4.565082291002909,,,,,,0.0,1.0,1.0,1.0,25.0,1.0,51.0,0.0,331.5839357920049,,,,,,,,,331.57610491700325,331.9257055000053,332.71798566700454,332.70851208400563,332.70912550000503,332.71798566700454,332.71798566700454,332.71798566700454,333.40227245900314,,,,,,,,,,,,,,,,,,,,,,,,,,,,,,right,0.0,0.6783044570038328,,,,,,sub-115,1,random_dot,120.45864725709136,
right,right,52.0,0.0,26.0,right,1.0,0.7090945829986595,,speed,space,4.565082291002909,,,,,,0.0,1.0,1.0,1.0,26.0,0.0,52.0,1.0,333.41052666700125,,,,,,,,,333.40273420900485,333.74282083399885,334.5441204170056,334.5354415000038,334.5361017920004,334.5441204170056,334.5441204170056,334.5441204170056,335.259245250003,,,,,,,,,,,,,,,,,,,,,,,,,,,,,,right,1.0,0.7090945829986595,,,,,,sub-115,1,random_dot,120.45864725709136,
left,left,53.0,1.0,26.0,right,0.0,0.5730691240023589,,speed,space,4.565082291002909,,,,,,0.0,1.0,1.0,1.0,26.0,1.0,53.0,0.0,335.2670239170038,,,,,,,,,335.259691709005,336.05918979200214,336.86085787499906,336.8521346250054,336.8527910420016,336.86085787499906,336.86085787499906,336.86085787499906,337.43605124999885,,,,,,,,,,,,,,,,,,,,,,,,,,,,,,right,0.0,0.5730691240023589,,,,,,sub-115,1,random_dot,120.45864725709136,
left,left,54.0,0.0,27.0,right,0.0,0.7919844160060165,,speed,space,4.565082291002909,,,,,,0.0,1.0,1.0,1.0,27.0,0.0,54.0,0.0,337.443734667002,,,,,,,,,337.43651137500274,337.5351430840019,338.32700200000545,338.318765834003,338.3193263339999,338.32700200000545,338.32700200000545,338.32700200000545,339.1292628750016,,,,,,,,,,,,,,,,,,,,,,,,,,,,,,right,0.0,0.7919844160060165,,,,,,sub-115,1,random_dot,120.45864725709136,
right,right,55.0,1.0,27.0,right,1.0,0.629213873995468,,speed,space,4.565082291002909,,,,,,0.0,1.0,1.0,1.0,27.0,1.0,55.0,1.0,339.13420079200296,,,,,,,,,339.129723459002,340.32590591700136,341.1178716670038,341.108602584005,341.10917450000125,341.1178716670038,341.1178716670038,341.1178716670038,341.7527044170056,,,,,,,,,,,,,,,,,,,,,,,,,,,,,,right,1.0,0.629213873995468,,,,,,sub-115,1,random_dot,120.45864725709136,
left,left,56.0,0.0,28.0,right,0.0,0.930259749002289,,speed,space,4.565082291002909,,,,,,0.0,1.0,1.0,1.0,28.0,0.0,56.0,0.0,341.7600863750049,,,,,,,,,341.75306091699895,342.09260033399914,342.8942568339989,342.88553725000384,342.88621870900533,342.8942568339989,342.8942568339989,342.8942568339989,343.825901917,,,,,,,,,,,,,,,,,,,,,,,,,,,,,,right,0.0,0.930259749002289,,,,,,sub-115,1,random_dot,120.45864725709136,
right,right,57.0,1.0,28.0,left,0.0,0.4596804570028325,,speed,space,4.565082291002909,,,,,,0.0,1.0,1.0,1.0,28.0,1.0,57.0,1.0,343.83388212499995,,,,,,,,,343.82636058400385,344.6261956669987,345.4278515000042,345.41917708400433,345.41985491700325,345.4278515000042,345.4278515000042,345.4278515000042,345.89276087500184,,,,,,,,,,,,,,,,,,,,,,,,,,,,,,left,0.0,0.4596804570028325,,,,,,sub-115,1,random_dot,120.45864725709136,
right,right,58.0,0.0,29.0,right,1.0,0.5736414159982814,,speed,space,4.565082291002909,,,,,,0.0,1.0,1.0,1.0,29.0,0.0,58.0,1.0,345.900777750001,,,,,,,,,345.8932042919987,346.2426462920048,347.0438298340014,347.0355404170041,347.03610870899865,347.0438298340014,347.0438298340014,347.0438298340014,347.61923200000456,,,,,,,,,,,,,,,,,,,,,,,,,,,,,,right,1.0,0.5736414159982814,,,,,,sub-115,1,random_dot,120.45864725709136,
left,left,59.0,1.0,29.0,right,0.0,0.619048874003056,,speed,space,4.565082291002909,,,,,,0.0,1.0,1.0,1.0,29.0,1.0,59.0,0.0,347.6273461250021,,,,,,,,,347.61969116700493,347.7082538340037,348.5012937089996,348.49105083400354,348.4915970840011,348.5012937089996,348.5012937089996,348.5012937089996,349.1259844170054,,,,,,,,,,,,,,,,,,,,,,,,,,,,,,right,0.0,0.619048874003056,,,,,,sub-115,1,random_dot,120.45864725709136,
,,1.0,1.0,0.0,,,,,speed,space,4.565082291002909,,,,,,0.0,1.0,1.0,1.0,,,,,,,,,,,,,,,,,,,,,,,,,,,,,,,,,,,,,,,,,,,,,,,,,,,,,,,,,,,,sub-115,1,random_dot,120.45864725709136,
,,,,,,,,,,,,,,,,,,,,,,,,,,,,,,,,,,,,,,,,,,,,,,,,,,,,,,,,,,,,,,,,,,,,,,,,,,,,349.13239229200553,349.1410340000002,354.1352698340052,354.124625000004,sub-115,1,random_dot,120.45864725709136,
