wordCTK,colorCTK,corrAnsCTK,congruentCTK,thisN,thisTrialN,thisRepN,keyResp_CTK.keys,keyResp_CTK.corr,keyResp_CTK.rt,keyResp_CTK.duration,wordPractice,colorPractice,corrAnsPractice,congruentPractice,respPractice.keys,respPractice.corr,respPractice.rt,respPractice.duration,word,color,corrAns,congruent,keyResp_test_run.keys,keyResp_test_run.corr,keyResp_test_run.rt,keyResp_test_run.duration,trials_CTK.thisRepN,trials_CTK.thisTrialN,trials_CTK.thisN,trials_CTK.thisIndex,trials_practice.thisRepN,trials_practice.thisTrialN,trials_practice.thisN,trials_practice.thisIndex,trials_test.thisRepN,trials_test.thisTrialN,trials_test.thisN,trials_test.thisIndex,thisRow.t,notes,instruction.started,instr_text.started,instr_image.started,instr_resp.started,instruction.stopped,instr_resp.keys,instr_resp.rt,instr_resp.duration,instr_color_to_key.started,instr_ctk.started,resp_ctk.started,instr_color_to_key.stopped,resp_ctk.keys,resp_ctk.rt,resp_ctk.duration,ITI.started,fixcross.started,fixcross.stopped,ITI.stopped,color_to_key_run.started,stimulus_CTK.started,keyResp_CTK.started,color_to_key_run.stopped,trials_CTK.keyResp_CTK.keys,trials_CTK.keyResp_CTK.corr,trials_CTK.keyResp_CTK.rt,trials_CTK.keyResp_CTK.duration,instr_practice.started,instr_practice_text.started,instr_practice_resp.started,instr_practice.stopped,instr_practice_resp.keys,instr_practice_resp.rt,instr_practice_resp.duration,practice_run.started,stimulus_practice.started,respPractice.started,practice_run.stopped,trials_practice.respPractice.keys,trials_practice.respPractice.corr,trials_practice.respPractice.rt,trials_practice.respPractice.duration,feedback.started,textFeedback.started,feedback.stopped,textFeedback.stopped,instr_test.started,instr_test_text.started,instr_test_resp.started,instr_test.stopped,instr_test_resp.keys,instr_test_resp.rt,instr_test_resp.duration,test_run.started,stimulus_test_run.started,keyResp_test_run.started,test_run.stopped,trials_test.keyResp_test_run.keys,trials_test.keyResp_test_run.corr,trials_test.keyResp_test_run.rt,trials_test.keyResp_test_run.duration,goodbye.started,textGoodbye.started,textGoodbye.stopped,goodbye.stopped,participant,session,expName,frameRate,Unnamed: 113
,,,,,,,,,,,,,,,,,,,,,,,,,,,,,,,,,,,,,,,,,0.0178196670021861,0.0811513750231824,0.0811513750231824,0.0811513750231824,31.663980167009868,space,31.54149445798248,,,,,,,,,,,,,,,,,,,,,,,,,,,,,,,,,,,,,,,,,,,,,,,,,,,,,,,,,,,sub-076,1,stroop_test,,
,,,,,,,,,,,,,,,,,,,,,,,,,,,,,,,,,,,,,,,,,,,,,,,,,31.66408854199108,31.67115654202644,31.67115654202644,36.447329042013735,space,4.774700333015062,,,,,,,,,,,,,,,,,,,,,,,,,,,,,,,,,,,,,,,,,,,,,,,,,,,,sub-076,1,stroop_test,,
test,red,r,1.0,0.0,0.0,0.0,r,1.0,2.0070505420444533,,,,,,,,,,,,,,,,,,0.0,0.0,0.0,0.0,,,,,,,,,36.47852770803729,,,,,,,,,,,,,,,,,36.462362708,36.55675212503411,37.36586108303163,37.35347454203293,37.359473999997135,37.36586108303163,37.36586108303163,39.39230125001632,r,1.0,2.0070505420444533,,,,,,,,,,,,,,,,,,,,,,,,,,,,,,,,,,,,,,,,sub-076,1,stroop_test,,
test,blue,b,1.0,1.0,1.0,0.0,b,1.0,2.117067125043832,,,,,,,,,,,,,,,,,,0.0,1.0,1.0,2.0,,,,,,,,,39.40324129199144,,,,,,,,,,,,,,,,,39.39293974998873,39.73532795801293,40.53471283300314,40.52669670799514,40.52742637501797,40.53471283300314,40.53471283300314,42.67628675000742,b,1.0,2.117067125043832,,,,,,,,,,,,,,,,,,,,,,,,,,,,,,,,,,,,,,,,sub-076,1,stroop_test,,
test,yellow,g,1.0,2.0,2.0,0.0,g,1.0,1.5906391250318848,,,,,,,,,,,,,,,,,,0.0,2.0,2.0,1.0,,,,,,,,,42.6858063749969,,,,,,,,,,,,,,,,,42.67688924999675,43.86735900002532,44.66904012503801,44.661513500032015,44.66204087500228,44.66904012503801,44.66904012503801,46.26277641701745,g,1.0,1.5906391250318848,,,,,,,,,,,,,,,,,,,,,,,,,,,,,,,,,,,,,,,,sub-076,1,stroop_test,,
test,yellow,g,1.0,3.0,0.0,1.0,g,1.0,2.192807708051987,,,,,,,,,,,,,,,,,,1.0,0.0,3.0,1.0,,,,,,,,,46.271831916994415,,,,,,,,,,,,,,,,,46.26317787502194,47.05419904203154,47.85517895803787,47.8469508329872,47.847549958038144,47.85517895803787,47.85517895803787,50.06534666701919,g,1.0,2.192807708051987,,,,,,,,,,,,,,,,,,,,,,,,,,,,,,,,,,,,,,,,sub-076,1,stroop_test,,
test,red,r,1.0,4.0,1.0,1.0,r,1.0,1.8167996249976568,,,,,,,,,,,,,,,,,,1.0,1.0,4.0,0.0,,,,,,,,,50.07621554203797,,,,,,,,,,,,,,,,,50.06607937498484,50.425745541986544,51.21849520801334,51.20985229202779,51.21044762502424,51.21849520801334,51.21849520801334,53.04680837498745,r,1.0,1.8167996249976568,,,,,,,,,,,,,,,,,,,,,,,,,,,,,,,,,,,,,,,,sub-076,1,stroop_test,,
test,blue,b,1.0,5.0,2.0,1.0,b,1.0,0.803168666025158,,,,,,,,,,,,,,,,,,1.0,2.0,5.0,2.0,,,,,,,,,53.05457929201657,,,,,,,,,,,,,,,,,53.0471178329899,53.849300708039664,54.64416691701626,54.63617733301362,54.63673037500121,54.64416691701626,54.64416691701626,55.45157783303876,b,1.0,0.803168666025158,,,,,,,,,,,,,,,,,,,,,,,,,,,,,,,,,,,,,,,,sub-076,1,stroop_test,,
test,blue,b,1.0,6.0,0.0,2.0,b,1.0,0.7494666659622453,,,,,,,,,,,,,,,,,,2.0,0.0,6.0,2.0,,,,,,,,,55.459420833038166,,,,,,,,,,,,,,,,,55.451915042009205,56.241673000040464,57.05149024998536,57.02807683299761,57.02888104203157,57.05149024998536,57.05149024998536,57.80933516699588,b,1.0,0.7494666659622453,,,,,,,,,,,,,,,,,,,,,,,,,,,,,,,,,,,,,,,,sub-076,1,stroop_test,,
test,yellow,g,1.0,7.0,1.0,2.0,g,1.0,1.6799079999909736,,,,,,,,,,,,,,,,,,2.0,1.0,7.0,1.0,,,,,,,,,57.81733795802575,,,,,,,,,,,,,,,,,57.80963579198578,58.14936666702852,58.94284058304038,58.93554633302847,58.936129832989536,58.94284058304038,58.94284058304038,60.630276292038616,g,1.0,1.6799079999909736,,,,,,,,,,,,,,,,,,,,,,,,,,,,,,,,,,,,,,,,sub-076,1,stroop_test,,
test,red,r,1.0,8.0,2.0,2.0,r,1.0,1.3223392079817131,,,,,,,,,,,,,,,,,,2.0,2.0,8.0,0.0,,,,,,,,,60.63803770800587,,,,,,,,,,,,,,,,,60.63050208298955,61.82525783299934,62.63119183300296,62.62282612500712,62.62335437501315,62.63119183300296,62.63119183300296,63.957711249997374,r,1.0,1.3223392079817131,,,,,,,,,,,,,,,,,,,,,,,,,,,,,,,,,,,,,,,,sub-076,1,stroop_test,,
test,yellow,g,1.0,9.0,0.0,3.0,g,1.0,0.6700123330228962,,,,,,,,,,,,,,,,,,3.0,0.0,9.0,1.0,,,,,,,,,63.96728520799661,,,,,,,,,,,,,,,,,63.95833508303622,64.32205666700611,65.12065062503098,65.11311104201013,65.11364791699452,65.12065062503098,65.12065062503098,65.79297162499279,g,1.0,0.6700123330228962,,,,,,,,,,,,,,,,,,,,,,,,,,,,,,,,,,,,,,,,sub-076,1,stroop_test,,
test,red,r,1.0,10.0,1.0,3.0,r,1.0,0.6405712079722434,,,,,,,,,,,,,,,,,,3.0,1.0,10.0,0.0,,,,,,,,,65.80145037500188,,,,,,,,,,,,,,,,,65.79357824998442,66.15087191702332,66.94674895802746,66.93668287503533,66.93721866700798,66.94674895802746,66.94674895802746,67.59678304201225,r,1.0,0.6405712079722434,,,,,,,,,,,,,,,,,,,,,,,,,,,,,,,,,,,,,,,,sub-076,1,stroop_test,,
test,blue,b,1.0,11.0,2.0,3.0,b,1.0,0.8014980829902925,,,,,,,,,,,,,,,,,,3.0,2.0,11.0,2.0,,,,,,,,,67.60502225003438,,,,,,,,,,,,,,,,,67.59708787500858,67.68698620802024,68.50067237502662,68.47998662502505,68.48037666699383,68.50067237502662,68.50067237502662,69.31025987502653,b,1.0,0.8014980829902925,,,,,,,,,,,,,,,,,,,,,,,,,,,,,,,,,,,,,,,,sub-076,1,stroop_test,,
,,,,,,,,,,,,,,,,,,,,,,,,,,,,,,,,,,,,,,,,,,,,,,,,,,,,,,,,,,,,,,,,,,,,69.31040629203198,69.31887833302608,69.31887833302608,74.03863337502116,space,4.718243375013117,,,,,,,,,,,,,,,,,,,,,,,,,,,,,,,,,sub-076,1,stroop_test,,
,,,,0.0,0.0,0.0,,,,,rot,blue,b,0.0,b,1.0,1.8702043329831213,,,,,,,,,,,,,,0.0,0.0,0.0,2.0,,,,,74.05646612501005,,,,,,,,,,,,,,,,,74.04824958299287,74.3827137920307,75.20640808303142,75.16929099999834,,,,,,,,,,,,,,,,75.17557120800484,75.20640808303142,75.20640808303142,77.0869198750006,b,1.0,1.8702043329831213,,77.09336941700894,77.10245712503092,78.0930846669944,,,,,,,,,,,,,,,,,,,,,sub-076,1,stroop_test,,
,,,,1.0,1.0,0.0,,,,,gelb,red,r,0.0,r,1.0,1.127284125017468,,,,,,,,,,,,,,0.0,1.0,1.0,8.0,,,,,78.11525433300994,,,,,,,,,,,,,,,,,78.09335099998862,78.18358920799801,78.98437354201451,78.97132375004003,,,,,,,,,,,,,,,,78.97532775002765,78.98437354201451,78.98437354201451,80.11309495801106,r,1.0,1.127284125017468,,80.11365558300167,80.12487716699252,81.10971658298513,81.12065975001315,,,,,,,,,,,,,,,,,,,,sub-076,1,stroop_test,,
,,,,2.0,2.0,0.0,,,,,gelb,yellow,g,1.0,g,1.0,0.9269358329474926,,,,,,,,,,,,,,0.0,2.0,2.0,10.0,,,,,81.12065975001315,,,,,,,,,,,,,,,,,81.1100067080115,81.22647912503453,82.01676541700726,82.00974320800742,,,,,,,,,,,,,,,,82.01014687499264,82.01676541700726,82.01676541700726,82.95535450003808,g,1.0,0.9269358329474926,,82.95579429203644,82.96398579201195,83.95164087502053,83.95844112499617,,,,,,,,,,,,,,,,,,,,sub-076,1,stroop_test,,
,,,,3.0,3.0,0.0,,,,,blau,blue,b,1.0,b,1.0,0.7874737080419436,,,,,,,,,,,,,,0.0,3.0,3.0,6.0,,,,,83.95844112499617,,,,,,,,,,,,,,,,,83.95206433301792,84.29985033301637,85.10317150002811,85.08687808300601,,,,,,,,,,,,,,,,85.0928063330357,85.10317150002811,85.10317150002811,85.89669120800681,b,1.0,0.7874737080419436,,85.89706899999874,85.90482245798921,86.8958630830166,86.91735787503421,,,,,,,,,,,,,,,,,,,,sub-076,1,stroop_test,,
,,,,4.0,4.0,0.0,,,,,blau,blue,b,1.0,b,1.0,1.117851166985929,,,,,,,,,,,,,,0.0,4.0,4.0,5.0,,,,,86.91735787503421,,,,,,,,,,,,,,,,,86.89621337503195,87.24257058301009,88.04326629202114,88.03554424998583,,,,,,,,,,,,,,,,88.03614554199157,88.04326629202114,88.04326629202114,89.16289995802799,b,1.0,1.117851166985929,,89.16330220800592,89.1719067080412,90.1581370420172,90.17087662499398,,,,,,,,,,,,,,,,,,,,sub-076,1,stroop_test,,
,,,,5.0,5.0,0.0,,,,,blau,yellow,g,0.0,g,1.0,1.0205390830524266,,,,,,,,,,,,,,0.0,5.0,5.0,7.0,,,,,90.17087662499398,,,,,,,,,,,,,,,,,90.1584899580339,91.35356454201974,92.15190258302027,92.14297899999656,,,,,,,,,,,,,,,,92.14370779198362,92.15190258302027,92.15190258302027,93.17501487501433,g,1.0,1.0205390830524266,,93.17538999998942,93.18612845800816,94.16954987501958,94.17659445799654,,,,,,,,,,,,,,,,,,,,sub-076,1,stroop_test,,
,,,,6.0,6.0,0.0,,,,,rot,red,r,1.0,r,1.0,0.5366438340279274,,,,,,,,,,,,,,0.0,6.0,6.0,1.0,,,,,94.17659445799654,,,,,,,,,,,,,,,,,94.17007166700203,94.27492679201532,95.07546995801384,95.05985912500182,,,,,,,,,,,,,,,,95.0638612920302,95.07546995801384,95.07546995801384,95.616068250034,r,1.0,0.5366438340279274,,95.61711070802994,95.62682008300908,96.6103474170086,96.61664025002392,,,,,,,,,,,,,,,,,,,,sub-076,1,stroop_test,,
,,,,7.0,7.0,0.0,,,,,rot,red,r,1.0,r,1.0,0.6319097499945201,,,,,,,,,,,,,,0.0,7.0,7.0,0.0,,,,,96.61664025002392,,,,,,,,,,,,,,,,,96.61074375000317,97.8086691669887,98.61086237500422,98.60291916702408,,,,,,,,,,,,,,,,98.60346262500389,98.61086237500422,98.61086237500422,99.25878641702002,r,1.0,0.6319097499945201,,99.25969479203924,99.26943966699764,100.27158741699532,,,,,,,,,,,,,,,,,,,,,sub-076,1,stroop_test,,
,,,,8.0,8.0,0.0,,,,,blau,red,r,0.0,r,1.0,1.2091781250201166,,,,,,,,,,,,,,0.0,8.0,8.0,4.0,,,,,100.27819891698891,,,,,,,,,,,,,,,,,100.27205595799025,100.35677329200551,101.16118425002789,101.14239637501304,,,,,,,,,,,,,,,,101.1482711249846,101.16118425002789,101.16118425002789,102.37895891699009,r,1.0,1.2091781250201166,,102.37949462502728,102.38857095799176,103.37605125003029,103.38269683299586,,,,,,,,,,,,,,,,,,,,sub-076,1,stroop_test,,
,,,,9.0,9.0,0.0,,,,,rot,yellow,g,0.0,g,1.0,0.9312889580032788,,,,,,,,,,,,,,0.0,9.0,9.0,3.0,,,,,103.38269683299586,,,,,,,,,,,,,,,,,103.37645137502112,104.17241529200692,104.97096466703806,104.95763337501558,,,,,,,,,,,,,,,,104.96100220800145,104.97096466703806,104.97096466703806,105.90982312499546,g,1.0,0.9312889580032788,,105.91032050002832,105.91934012499404,106.90573633299208,106.91130791703472,,,,,,,,,,,,,,,,,,,,sub-076,1,stroop_test,,
,,,,10.0,10.0,0.0,,,,,gelb,yellow,g,1.0,g,1.0,0.8897675419575535,,,,,,,,,,,,,,0.0,10.0,10.0,11.0,,,,,106.91130791703472,,,,,,,,,,,,,,,,,106.90610612503951,107.0260264170356,107.832455708005,107.81721879198447,,,,,,,,,,,,,,,,107.8213490000344,107.832455708005,107.832455708005,108.72994425002253,g,1.0,0.8897675419575535,,108.73035862500548,108.73920562502462,109.7257320000208,109.74694700003602,,,,,,,,,,,,,,,,,,,,sub-076,1,stroop_test,,
,,,,11.0,11.0,0.0,,,,,gelb,blue,b,0.0,g,0.0,0.9004346670117229,,,,,,,,,,,,,,0.0,11.0,11.0,9.0,,,,,109.74694700003602,,,,,,,,,,,,,,,,,109.72615804203087,109.82058462500572,110.6175355000305,110.60965112503618,,,,,,,,,,,,,,,,110.6101877919864,110.6175355000305,110.6175355000305,111.52688129199667,g,0.0,0.9004346670117229,,111.53078633302356,111.54333254200174,112.52817395800956,,,,,,,,,,,,,,,,,,,,,sub-076,1,stroop_test,,
,,,,12.0,0.0,1.0,,,,,blau,yellow,g,0.0,g,1.0,1.120251875021495,,,,,,,,,,,,,,1.0,0.0,12.0,7.0,,,,,112.53360883303684,,,,,,,,,,,,,,,,,112.5286279169959,112.61726408300456,113.42563116701784,113.40648962499108,,,,,,,,,,,,,,,,113.41205837501911,113.42563116701784,113.42563116701784,114.54836970800534,g,1.0,1.120251875021495,,114.55158229201334,114.56005866703345,115.54515904199798,115.55055354203796,,,,,,,,,,,,,,,,,,,,sub-076,1,stroop_test,,
,,,,13.0,1.0,1.0,,,,,blau,blue,b,1.0,b,1.0,1.0269089580397122,,,,,,,,,,,,,,1.0,1.0,13.0,6.0,,,,,115.55055354203796,,,,,,,,,,,,,,,,,115.5456500420114,115.91027629200836,116.7008359170286,116.6934058330371,,,,,,,,,,,,,,,,116.69397304201266,116.7008359170286,116.7008359170286,117.73086245800368,b,1.0,1.0269089580397122,,117.73134862503504,117.74115208303556,118.73296712501906,,,,,,,,,,,,,,,,,,,,,sub-076,1,stroop_test,,
,,,,14.0,2.0,1.0,,,,,gelb,blue,b,0.0,b,1.0,1.5637325000134297,,,,,,,,,,,,,,1.0,2.0,14.0,9.0,,,,,118.7551698749885,,,,,,,,,,,,,,,,,118.73338387499098,119.5208625830128,120.33792600000744,120.31913304200862,,,,,,,,,,,,,,,,120.32442441699096,120.33792600000744,120.33792600000744,121.90438433300004,b,1.0,1.5637325000134297,,121.90527787501924,121.91383291699458,122.89913237502331,122.9051271250355,,,,,,,,,,,,,,,,,,,,sub-076,1,stroop_test,,
,,,,15.0,3.0,1.0,,,,,gelb,yellow,g,1.0,g,1.0,1.0626596250222065,,,,,,,,,,,,,,1.0,3.0,15.0,10.0,,,,,122.9051271250355,,,,,,,,,,,,,,,,,122.89953637501458,123.25093174999348,124.04818179202266,124.03977270802716,,,,,,,,,,,,,,,,124.04037941701245,124.04818179202266,124.04818179202266,125.11352908302796,g,1.0,1.0626596250222065,,125.11397704202682,125.12339166703168,126.11300595803186,126.1186786670005,,,,,,,,,,,,,,,,,,,,sub-076,1,stroop_test,,
,,,,16.0,4.0,1.0,,,,,gelb,red,r,0.0,r,1.0,0.8763884160434827,,,,,,,,,,,,,,1.0,4.0,16.0,8.0,,,,,126.1186786670005,,,,,,,,,,,,,,,,,126.11337037500924,127.3079876670381,128.10707224998623,128.09633199998643,,,,,,,,,,,,,,,,128.0969603750273,128.10707224998623,128.10707224998623,128.9924636670039,r,1.0,0.8763884160434827,,128.99280412500957,129.00086174998432,129.9893623330281,129.99884279200342,,,,,,,,,,,,,,,,,,,,sub-076,1,stroop_test,,
,,,,17.0,5.0,1.0,,,,,gelb,yellow,g,1.0,g,1.0,1.5264334160019644,,,,,,,,,,,,,,1.0,5.0,17.0,11.0,,,,,129.99884279200342,,,,,,,,,,,,,,,,,129.98976608301746,130.33293800003594,131.13417254202068,131.1255982920411,,,,,,,,,,,,,,,,131.12619500001892,131.13417254202068,131.13417254202068,132.6718786249985,g,1.0,1.5264334160019644,,132.67224124999484,132.67994762503076,133.66427524999017,133.6704416249995,,,,,,,,,,,,,,,,,,,,sub-076,1,stroop_test,,
,,,,18.0,6.0,1.0,,,,,blau,red,r,0.0,r,1.0,1.0886383749893866,,,,,,,,,,,,,,1.0,6.0,18.0,4.0,,,,,133.6704416249995,,,,,,,,,,,,,,,,,133.66462858300656,134.86386470799334,135.6749785830034,135.66040566703305,,,,,,,,,,,,,,,,135.6642286250135,135.6749785830034,135.6749785830034,136.78290462499717,r,1.0,1.0886383749893866,,136.78381458303193,136.79397300002165,137.7820913750329,137.78782320802566,,,,,,,,,,,,,,,,,,,,sub-076,1,stroop_test,,
,,,,19.0,7.0,1.0,,,,,rot,blue,b,0.0,b,1.0,1.236029541993048,,,,,,,,,,,,,,1.0,7.0,19.0,2.0,,,,,137.78782320802566,,,,,,,,,,,,,,,,,137.78248445800273,138.97807170799933,139.79959954199148,139.77018975000829,,,,,,,,,,,,,,,,139.77431062498363,139.79959954199148,139.79959954199148,141.04737112502335,b,1.0,1.236029541993048,,141.04785583302146,141.0538374169846,142.03935641702265,142.04562283301493,,,,,,,,,,,,,,,,,,,,sub-076,1,stroop_test,,
,,,,20.0,8.0,1.0,,,,,rot,red,r,1.0,r,1.0,0.5562318749725819,,,,,,,,,,,,,,1.0,8.0,20.0,1.0,,,,,142.04562283301493,,,,,,,,,,,,,,,,,142.03977141703945,142.41345004201867,143.22015304199886,143.21021687501343,,,,,,,,,,,,,,,,143.2111005000188,143.22015304199886,143.22015304199886,143.7876127079944,r,1.0,0.5562318749725819,,143.78851945803035,143.79767158301547,144.79336812498514,,,,,,,,,,,,,,,,,,,,,sub-076,1,stroop_test,,
,,,,21.0,9.0,1.0,,,,,rot,yellow,g,0.0,g,1.0,0.4701607499737292,,,,,,,,,,,,,,1.0,9.0,21.0,3.0,,,,,144.8002202080097,,,,,,,,,,,,,,,,,144.7938802500139,145.59173412498785,146.3885748750181,146.37995466700522,,,,,,,,,,,,,,,,146.38079537503654,146.3885748750181,146.3885748750181,146.87686179199954,g,1.0,0.4701607499737292,,146.8773224169854,146.88656750001246,147.87532779201865,147.88086020800984,,,,,,,,,,,,,,,,,,,,sub-076,1,stroop_test,,
,,,,22.0,10.0,1.0,,,,,blau,blue,b,1.0,b,1.0,0.3999812919646501,,,,,,,,,,,,,,1.0,10.0,22.0,5.0,,,,,147.88086020800984,,,,,,,,,,,,,,,,,147.87571500003105,147.96617079200223,148.78111983300187,148.76349741703598,,,,,,,,,,,,,,,,148.76913695799885,148.78111983300187,148.78111983300187,149.19047091703396,b,1.0,0.3999812919646501,,149.19093433301896,149.1992437079898,150.18947400001343,150.1967485420173,,,,,,,,,,,,,,,,,,,,sub-076,1,stroop_test,,
,,,,23.0,11.0,1.0,,,,,rot,red,r,1.0,r,1.0,0.4501845000195317,,,,,,,,,,,,,,1.0,11.0,23.0,0.0,,,,,150.1967485420173,,,,,,,,,,,,,,,,,150.1900804580073,150.2994532500161,151.10021000000415,151.08678120799595,,,,,,,,,,,,,,,,151.09014425001806,151.10021000000415,151.10021000000415,151.55788545799442,r,1.0,0.4501845000195317,,151.5583356670104,151.56727816700004,152.5514025420416,152.559018208005,,,,,,,,,,,,,,,,,,,,sub-076,1,stroop_test,,
,,,,,,,,,,,,,,,,,,,,,,,,,,,,,,,,,,,,,,,,,,,,,,,,,,,,,,,,,,,,,,,,,,,,,,,,,,,,,,,,,,,,,,,152.55156266700942,152.559018208005,152.559018208005,156.4263130420004,space,3.863817500008736,,,,,,,,,,,,,,sub-076,1,stroop_test,,
,,,,0.0,0.0,0.0,,,,,,,,,,,,,rot,blue,b,0.0,b,1.0,1.0712282909662465,,,,,,,,,,0.0,0.0,0.0,2.0,156.44500216702,,,,,,,,,,,,,,,,,156.43675891699968,156.78784829203505,157.6017571670236,157.58458324999083,,,,,,,,,,,,,,,,,,,,,,,,,,,,,,,,,,,157.58886508300202,157.6017571670236,157.6017571670236,158.67531091702404,b,1.0,1.0712282909662465,,,,,,sub-076,1,stroop_test,,
,,,,1.0,1.0,0.0,,,,,,,,,,,,,rot,red,r,1.0,r,1.0,0.5813157499651425,,,,,,,,,,0.0,1.0,1.0,1.0,158.68062037503114,,,,,,,,,,,,,,,,,158.67563945800066,159.4712453330285,160.26314716698835,160.2546068750089,,,,,,,,,,,,,,,,,,,,,,,,,,,,,,,,,,,160.25532300001942,160.26314716698835,160.26314716698835,160.8614280000329,r,1.0,0.5813157499651425,,,,,,sub-076,1,stroop_test,,
,,,,2.0,2.0,0.0,,,,,,,,,,,,,blau,blue,b,1.0,b,1.0,0.7508568339981139,,,,,,,,,,0.0,2.0,2.0,6.0,160.87052283302182,,,,,,,,,,,,,,,,,160.8618575829896,161.65339166700142,162.45864020800218,162.44305191701278,,,,,,,,,,,,,,,,,,,,,,,,,,,,,,,,,,,162.44792358303675,162.45864020800218,162.45864020800218,163.2315775420284,b,1.0,0.7508568339981139,,,,,,sub-076,1,stroop_test,,
,,,,3.0,3.0,0.0,,,,,,,,,,,,,rot,red,r,1.0,r,1.0,0.6615763750160113,,,,,,,,,,0.0,3.0,3.0,0.0,163.24110320804175,,,,,,,,,,,,,,,,,163.23227108299034,164.0459455830278,164.84333275002427,164.82983541704016,,,,,,,,,,,,,,,,,,,,,,,,,,,,,,,,,,,164.83318087499356,164.84333275002427,164.84333275002427,165.5098604580271,r,1.0,0.6615763750160113,,,,,,sub-076,1,stroop_test,,
,,,,4.0,4.0,0.0,,,,,,,,,,,,,gelb,red,r,0.0,r,1.0,0.6460432090098038,,,,,,,,,,0.0,4.0,4.0,8.0,165.5206286670291,,,,,,,,,,,,,,,,,165.5102220000117,165.85247358301422,166.65506991703296,166.63927229202818,,,,,,,,,,,,,,,,,,,,,,,,,,,,,,,,,,,166.64336924999952,166.65506991703296,166.65506991703296,167.3206510830205,r,1.0,0.6460432090098038,,,,,,sub-076,1,stroop_test,,
,,,,5.0,5.0,0.0,,,,,,,,,,,,,blau,red,r,0.0,r,1.0,0.7236389999743551,,,,,,,,,,0.0,5.0,5.0,4.0,167.3314394580084,,,,,,,,,,,,,,,,,167.3213925419841,168.12678170803702,168.9369111250271,168.9179496249999,,,,,,,,,,,,,,,,,,,,,,,,,,,,,,,,,,,168.9230697079911,168.9369111250271,168.9369111250271,169.66305220802315,r,1.0,0.7236389999743551,,,,,,sub-076,1,stroop_test,,
,,,,6.0,6.0,0.0,,,,,,,,,,,,,rot,yellow,g,0.0,g,1.0,0.7974925000453368,,,,,,,,,,0.0,6.0,6.0,3.0,169.67108645802364,,,,,,,,,,,,,,,,,169.663371542003,169.76016641699243,170.56817329203477,170.5540473330184,,,,,,,,,,,,,,,,,,,,,,,,,,,,,,,,,,,170.5575532920193,170.56817329203477,170.56817329203477,171.36708262498723,g,1.0,0.7974925000453368,,,,,,sub-076,1,stroop_test,,
,,,,7.0,7.0,0.0,,,,,,,,,,,,,gelb,blue,b,0.0,b,1.0,1.627783207979519,,,,,,,,,,0.0,7.0,7.0,9.0,171.37767254200298,,,,,,,,,,,,,,,,,171.3674554580357,172.18042262503877,172.9824134579976,172.9677918330417,,,,,,,,,,,,,,,,,,,,,,,,,,,,,,,,,,,172.97126254200705,172.9824134579976,172.9824134579976,174.6136851250194,b,1.0,1.627783207979519,,,,,,sub-076,1,stroop_test,,
,,,,8.0,8.0,0.0,,,,,,,,,,,,,gelb,yellow,g,1.0,g,1.0,0.636770292010624,,,,,,,,,,0.0,8.0,8.0,11.0,174.62249800004065,,,,,,,,,,,,,,,,,174.61422208300792,175.80363999999827,176.5971853749943,176.5880785830086,,,,,,,,,,,,,,,,,,,,,,,,,,,,,,,,,,,176.58867566700792,176.5971853749943,176.5971853749943,177.2464780000155,g,1.0,0.636770292010624,,,,,,sub-076,1,stroop_test,,
,,,,9.0,9.0,0.0,,,,,,,,,,,,,blau,blue,b,1.0,b,1.0,0.7649403339601122,,,,,,,,,,0.0,9.0,9.0,5.0,177.25442791701062,,,,,,,,,,,,,,,,,177.24681537499418,178.4356815830106,179.24501283303834,179.22871920804027,,,,,,,,,,,,,,,,,,,,,,,,,,,,,,,,,,,179.23290545801865,179.24501283303834,179.24501283303834,180.0118902079994,b,1.0,0.7649403339601122,,,,,,sub-076,1,stroop_test,,
,,,,10.0,10.0,0.0,,,,,,,,,,,,,gelb,yellow,g,1.0,g,1.0,1.0327792090247383,,,,,,,,,,0.0,10.0,10.0,10.0,180.0158489579917,,,,,,,,,,,,,,,,,180.01223620801466,180.11129395803437,180.914891500026,180.89921758300625,,,,,,,,,,,,,,,,,,,,,,,,,,,,,,,,,,,180.90347225003643,180.914891500026,180.914891500026,181.95122620800976,g,1.0,1.0327792090247383,,,,,,sub-076,1,stroop_test,,
,,,,11.0,11.0,0.0,,,,,,,,,,,,,blau,yellow,g,0.0,g,1.0,0.616539916023612,,,,,,,,,,0.0,11.0,11.0,7.0,181.9586378330132,,,,,,,,,,,,,,,,,181.95153662504163,182.76337737502763,183.5615504580201,183.5499633750296,,,,,,,,,,,,,,,,,,,,,,,,,,,,,,,,,,,183.55265100003453,183.5615504580201,183.5615504580201,184.1831109999912,g,1.0,0.616539916023612,,,,,,sub-076,1,stroop_test,,
,,,,12.0,0.0,1.0,,,,,,,,,,,,,rot,yellow,g,0.0,g,1.0,0.5465398749802262,,,,,,,,,,1.0,0.0,12.0,3.0,184.19216433301332,,,,,,,,,,,,,,,,,184.18353266699705,184.28856570803327,185.09398758300813,185.07856850000096,,,,,,,,,,,,,,,,,,,,,,,,,,,,,,,,,,,185.08317945798623,185.09398758300813,185.09398758300813,185.6457995420205,g,1.0,0.5465398749802262,,,,,,sub-076,1,stroop_test,,
,,,,13.0,1.0,1.0,,,,,,,,,,,,,rot,red,r,1.0,r,1.0,0.6705426659900695,,,,,,,,,,1.0,1.0,13.0,1.0,185.65437854203628,,,,,,,,,,,,,,,,,185.64614341699053,185.99561462498968,186.7873981249868,186.7791962919873,,,,,,,,,,,,,,,,,,,,,,,,,,,,,,,,,,,186.77983504201984,186.7873981249868,186.7873981249868,187.46693379199127,r,1.0,0.6705426659900695,,,,,,sub-076,1,stroop_test,,
,,,,14.0,2.0,1.0,,,,,,,,,,,,,rot,blue,b,0.0,b,1.0,0.7675096660386771,,,,,,,,,,1.0,2.0,14.0,2.0,187.4750739170122,,,,,,,,,,,,,,,,,187.46728187502595,187.55928995803697,188.3536684170249,188.34588562499263,,,,,,,,,,,,,,,,,,,,,,,,,,,,,,,,,,,188.34645150002325,188.3536684170249,188.3536684170249,189.1304608749924,b,1.0,0.7675096660386771,,,,,,sub-076,1,stroop_test,,
,,,,15.0,3.0,1.0,,,,,,,,,,,,,rot,red,r,1.0,r,1.0,0.6739843329996802,,,,,,,,,,1.0,3.0,15.0,0.0,189.13778637500943,,,,,,,,,,,,,,,,,189.13078854203923,189.48830937501043,190.28676487499612,190.2789113750332,,,,,,,,,,,,,,,,,,,,,,,,,,,,,,,,,,,190.2794741250109,190.28676487499612,190.28676487499612,190.96599387499737,r,1.0,0.6739843329996802,,,,,,sub-076,1,stroop_test,,
,,,,16.0,4.0,1.0,,,,,,,,,,,,,blau,red,r,0.0,r,1.0,0.7410038330126554,,,,,,,,,,1.0,4.0,16.0,4.0,190.97578633303056,,,,,,,,,,,,,,,,,190.96689325000625,191.3055499580223,192.10574770800304,192.0923815830029,,,,,,,,,,,,,,,,,,,,,,,,,,,,,,,,,,,192.0962085420033,192.10574770800304,192.10574770800304,192.86660845798903,r,1.0,0.7410038330126554,,,,,,sub-076,1,stroop_test,,
,,,,17.0,5.0,1.0,,,,,,,,,,,,,gelb,yellow,g,1.0,g,1.0,0.9366445830091834,,,,,,,,,,1.0,5.0,17.0,11.0,192.87660987500567,,,,,,,,,,,,,,,,,192.86730604199693,192.9634262920008,193.7651403330383,193.7476592080202,,,,,,,,,,,,,,,,,,,,,,,,,,,,,,,,,,,193.75331220799129,193.7651403330383,193.7651403330383,194.70507270802045,g,1.0,0.9366445830091834,,,,,,sub-076,1,stroop_test,,
,,,,18.0,6.0,1.0,,,,,,,,,,,,,blau,blue,b,1.0,b,1.0,0.8803977079805918,,,,,,,,,,1.0,6.0,18.0,6.0,194.71296104200883,,,,,,,,,,,,,,,,,194.7054104169947,195.9050877080299,196.70789495803183,196.693984750018,,,,,,,,,,,,,,,,,,,,,,,,,,,,,,,,,,,196.69788625004003,196.70789495803183,196.70789495803183,197.5938007080113,b,1.0,0.8803977079805918,,,,,,sub-076,1,stroop_test,,
,,,,19.0,7.0,1.0,,,,,,,,,,,,,gelb,blue,b,0.0,b,1.0,1.8618843330186792,,,,,,,,,,1.0,7.0,19.0,9.0,197.61732975003545,,,,,,,,,,,,,,,,,197.5941374170361,198.79064766701777,199.5991914999904,199.57557675003773,,,,,,,,,,,,,,,,,,,,,,,,,,,,,,,,,,,199.57973337499425,199.5991914999904,199.5991914999904,201.46587070799436,b,1.0,1.8618843330186792,,,,,,sub-076,1,stroop_test,,
,,,,20.0,8.0,1.0,,,,,,,,,,,,,blau,yellow,g,0.0,r,0.0,1.1009149579913355,,,,,,,,,,1.0,8.0,20.0,7.0,201.47385175002276,,,,,,,,,,,,,,,,,201.4662352920277,201.56657145801,202.36238075001165,202.34947800001828,,,,,,,,,,,,,,,,,,,,,,,,,,,,,,,,,,,202.35215316701212,202.36238075001165,202.36238075001165,203.46843308303505,r,0.0,1.1009149579913355,,,,,,sub-076,1,stroop_test,,
,,,,21.0,9.0,1.0,,,,,,,,,,,,,blau,blue,b,1.0,b,1.0,0.8719646660028957,,,,,,,,,,1.0,9.0,21.0,5.0,203.47909112501657,,,,,,,,,,,,,,,,,203.46880179201253,204.2673178749974,205.05855083302595,205.0512753330404,,,,,,,,,,,,,,,,,,,,,,,,,,,,,,,,,,,205.05180462502176,205.05855083302595,205.05855083302595,205.9427276669885,b,1.0,0.8719646660028957,,,,,,sub-076,1,stroop_test,,
,,,,22.0,10.0,1.0,,,,,,,,,,,,,gelb,red,r,0.0,r,1.0,0.527963083004579,,,,,,,,,,1.0,10.0,22.0,8.0,205.96314804203573,,,,,,,,,,,,,,,,,205.94302087498363,206.7390026670182,207.56305391702332,207.52482033299748,,,,,,,,,,,,,,,,,,,,,,,,,,,,,,,,,,,207.5289906249964,207.56305391702332,207.56305391702332,208.09246183303185,r,1.0,0.527963083004579,,,,,,sub-076,1,stroop_test,,
,,,,23.0,11.0,1.0,,,,,,,,,,,,,gelb,yellow,g,1.0,g,1.0,0.4395186670008115,,,,,,,,,,1.0,11.0,23.0,10.0,208.1135654170066,,,,,,,,,,,,,,,,,208.0928213750012,209.3006605420378,210.0959092919948,210.08761629200308,,,,,,,,,,,,,,,,,,,,,,,,,,,,,,,,,,,210.08814570802497,210.0959092919948,210.0959092919948,210.53776504204143,g,1.0,0.4395186670008115,,,,,,sub-076,1,stroop_test,,
,,,,24.0,0.0,2.0,,,,,,,,,,,,,rot,blue,b,0.0,b,1.0,0.826686458021868,,,,,,,,,,2.0,0.0,24.0,2.0,210.5460118330084,,,,,,,,,,,,,,,,,210.5381091249874,211.7312141250004,212.53610970801677,212.5229134580004,,,,,,,,,,,,,,,,,,,,,,,,,,,,,,,,,,,212.525846250006,212.53610970801677,212.53610970801677,213.36837899999227,b,1.0,0.826686458021868,,,,,,sub-076,1,stroop_test,,
,,,,25.0,1.0,2.0,,,,,,,,,,,,,blau,yellow,g,0.0,g,1.0,1.0868546250276268,,,,,,,,,,2.0,1.0,25.0,7.0,213.376381375012,,,,,,,,,,,,,,,,,213.36868754203897,213.72868795803515,214.532881000021,214.51745054201456,,,,,,,,,,,,,,,,,,,,,,,,,,,,,,,,,,,214.52177612500964,214.532881000021,214.532881000021,215.62536649999677,g,1.0,1.0868546250276268,,,,,,sub-076,1,stroop_test,,
,,,,26.0,2.0,2.0,,,,,,,,,,,,,blau,blue,b,1.0,b,1.0,0.8120245829923078,,,,,,,,,,2.0,2.0,26.0,5.0,215.6330581670045,,,,,,,,,,,,,,,,,215.6256960830069,216.82018425001297,217.62768149998735,217.6180387919885,,,,,,,,,,,,,,,,,,,,,,,,,,,,,,,,,,,217.61878179199996,217.62768149998735,217.62768149998735,218.45200158300577,b,1.0,0.8120245829923078,,,,,,sub-076,1,stroop_test,,
,,,,27.0,3.0,2.0,,,,,,,,,,,,,rot,red,r,1.0,r,1.0,1.1301612499519251,,,,,,,,,,2.0,3.0,27.0,1.0,218.45676029199967,,,,,,,,,,,,,,,,,218.4523126670392,218.8179450419848,219.62959941703596,219.61369750002632,,,,,,,,,,,,,,,,,,,,,,,,,,,,,,,,,,,219.61774729203896,219.62959941703596,219.62959941703596,220.7622425419977,r,1.0,1.1301612499519251,,,,,,sub-076,1,stroop_test,,
,,,,28.0,4.0,2.0,,,,,,,,,,,,,rot,red,r,1.0,r,1.0,0.4796000000205822,,,,,,,,,,2.0,4.0,28.0,0.0,220.77393416699488,,,,,,,,,,,,,,,,,220.7625100000296,221.55808304203677,222.35126445803328,222.34274695802011,,,,,,,,,,,,,,,,,,,,,,,,,,,,,,,,,,,222.34334449999733,222.35126445803328,222.35126445803328,222.83438829198712,r,1.0,0.4796000000205822,,,,,,sub-076,1,stroop_test,,
,,,,29.0,5.0,2.0,,,,,,,,,,,,,rot,yellow,g,0.0,r,0.0,0.7314945829566568,,,,,,,,,,2.0,5.0,29.0,3.0,222.8446199999889,,,,,,,,,,,,,,,,,222.83504870801696,223.1749577500159,223.9734970830032,223.96509604202583,,,,,,,,,,,,,,,,,,,,,,,,,,,,,,,,,,,223.96561925002607,223.9734970830032,223.9734970830032,224.7155390830012,r,0.0,0.7314945829566568,,,,,,sub-076,1,stroop_test,,
,,,,30.0,6.0,2.0,,,,,,,,,,,,,gelb,yellow,g,1.0,g,1.0,0.7280326249892823,,,,,,,,,,2.0,6.0,30.0,10.0,224.7199166670325,,,,,,,,,,,,,,,,,224.7158322079922,224.80703420803184,225.60655254201265,225.5935004170169,,,,,,,,,,,,,,,,,,,,,,,,,,,,,,,,,,,225.59746166702823,225.60655254201265,225.60655254201265,226.3362598750391,g,1.0,0.7280326249892823,,,,,,sub-076,1,stroop_test,,
,,,,31.0,7.0,2.0,,,,,,,,,,,,,gelb,blue,b,0.0,g,0.0,0.7754795410437509,,,,,,,,,,2.0,7.0,31.0,9.0,226.34461925004143,,,,,,,,,,,,,,,,,226.33659016701856,226.68122412503,227.47508754202863,227.46728629199788,,,,,,,,,,,,,,,,,,,,,,,,,,,,,,,,,,,227.46783841704016,227.47508754202863,227.47508754202863,228.25324154202823,g,0.0,0.7754795410437509,,,,,,sub-076,1,stroop_test,,
,,,,32.0,8.0,2.0,,,,,,,,,,,,,gelb,red,r,0.0,r,1.0,1.226446125016082,,,,,,,,,,2.0,8.0,32.0,8.0,228.2579251250136,,,,,,,,,,,,,,,,,228.2535977920052,229.05473245802568,229.87106170802144,229.8491124580032,,,,,,,,,,,,,,,,,,,,,,,,,,,,,,,,,,,229.84951129200635,229.87106170802144,229.87106170802144,231.10381645802408,r,1.0,1.226446125016082,,,,,,sub-076,1,stroop_test,,
,,,,33.0,9.0,2.0,,,,,,,,,,,,,blau,blue,b,1.0,b,1.0,0.908993749995716,,,,,,,,,,2.0,9.0,33.0,6.0,231.11180983303348,,,,,,,,,,,,,,,,,231.10416070802603,231.8978915830376,232.69623054203112,232.68346029199893,,,,,,,,,,,,,,,,,,,,,,,,,,,,,,,,,,,232.68668083299417,232.69623054203112,232.69623054203112,233.61552316701275,b,1.0,0.908993749995716,,,,,,sub-076,1,stroop_test,,
,,,,34.0,10.0,2.0,,,,,,,,,,,,,blau,red,r,0.0,r,1.0,1.2121209999895657,,,,,,,,,,2.0,10.0,34.0,4.0,233.62453962501604,,,,,,,,,,,,,,,,,233.6159110420267,234.8137259579962,235.62410283304047,235.61449445801557,,,,,,,,,,,,,,,,,,,,,,,,,,,,,,,,,,,235.6153792080004,235.62410283304047,235.62410283304047,236.8424535000231,r,1.0,1.2121209999895657,,,,,,sub-076,1,stroop_test,,
,,,,35.0,11.0,2.0,,,,,,,,,,,,,gelb,yellow,g,1.0,g,1.0,1.020615832996555,,,,,,,,,,2.0,11.0,35.0,11.0,236.8523685419932,,,,,,,,,,,,,,,,,236.84317279199604,236.95454470801636,237.7583629169967,237.74428295803955,,,,,,,,,,,,,,,,,,,,,,,,,,,,,,,,,,,237.74762179201932,237.7583629169967,237.7583629169967,238.78269066702345,g,1.0,1.020615832996555,,,,,,sub-076,1,stroop_test,,
,,,,36.0,0.0,3.0,,,,,,,,,,,,,gelb,yellow,g,1.0,g,1.0,0.6602486670017242,,,,,,,,,,3.0,0.0,36.0,11.0,238.79187770799035,,,,,,,,,,,,,,,,,238.78299566701756,239.57845000003,240.37104987498608,240.363235583005,,,,,,,,,,,,,,,,,,,,,,,,,,,,,,,,,,,240.3637978750048,240.37104987498608,240.37104987498608,241.0335858750041,g,1.0,0.6602486670017242,,,,,,sub-076,1,stroop_test,,
,,,,37.0,1.0,3.0,,,,,,,,,,,,,blau,blue,b,1.0,b,1.0,1.2337265000096522,,,,,,,,,,3.0,1.0,37.0,5.0,241.04384170798585,,,,,,,,,,,,,,,,,241.03389612503813,241.12153820804087,241.9265430829837,241.9108956670389,,,,,,,,,,,,,,,,,,,,,,,,,,,,,,,,,,,241.91476129199145,241.9265430829837,241.9265430829837,243.1623149579973,b,1.0,1.2337265000096522,,,,,,sub-076,1,stroop_test,,
,,,,38.0,2.0,3.0,,,,,,,,,,,,,rot,red,r,1.0,r,1.0,1.2848376669571735,,,,,,,,,,3.0,2.0,38.0,0.0,243.17042245803168,,,,,,,,,,,,,,,,,243.1625793330022,243.52092687500408,244.3213167079957,244.3071615000372,,,,,,,,,,,,,,,,,,,,,,,,,,,,,,,,,,,244.3104532500147,244.3213167079957,244.3213167079957,245.6232440000167,r,1.0,1.2848376669571735,,,,,,sub-076,1,stroop_test,,
,,,,39.0,3.0,3.0,,,,,,,,,,,,,gelb,yellow,g,1.0,g,1.0,0.6314060420263559,,,,,,,,,,3.0,3.0,39.0,10.0,245.63335654203547,,,,,,,,,,,,,,,,,245.62396245799027,246.8158819579985,247.61903070803965,247.60266954201504,,,,,,,,,,,,,,,,,,,,,,,,,,,,,,,,,,,247.6064905000385,247.61903070803965,247.61903070803965,248.25670500000703,g,1.0,0.6314060420263559,,,,,,sub-076,1,stroop_test,,
,,,,40.0,4.0,3.0,,,,,,,,,,,,,gelb,red,r,0.0,r,1.0,0.7441626249928959,,,,,,,,,,3.0,4.0,40.0,8.0,248.2664254999836,,,,,,,,,,,,,,,,,248.25737995799864,249.05745791702063,249.8533300830168,249.8412428330048,,,,,,,,,,,,,,,,,,,,,,,,,,,,,,,,,,,249.84163708303825,249.8533300830168,249.8533300830168,250.60646912502125,r,1.0,0.7441626249928959,,,,,,sub-076,1,stroop_test,,
,,,,41.0,5.0,3.0,,,,,,,,,,,,,gelb,blue,b,0.0,b,1.0,1.442324958043173,,,,,,,,,,3.0,5.0,41.0,9.0,250.61352608300515,,,,,,,,,,,,,,,,,250.60681766702328,250.94999425002607,251.74559545802185,251.737181250006,,,,,,,,,,,,,,,,,,,,,,,,,,,,,,,,,,,251.73777520802105,251.74559545802185,251.74559545802185,253.1911202080082,b,1.0,1.442324958043173,,,,,,sub-076,1,stroop_test,,
,,,,42.0,6.0,3.0,,,,,,,,,,,,,blau,blue,b,1.0,b,1.0,0.7526779160252772,,,,,,,,,,3.0,6.0,42.0,6.0,253.2000536250416,,,,,,,,,,,,,,,,,253.1914601669996,253.5408652080223,254.35515054198916,254.33582179201767,,,,,,,,,,,,,,,,,,,,,,,,,,,,,,,,,,,254.34270516701508,254.35515054198916,254.35515054198916,255.11221783299695,b,1.0,0.7526779160252772,,,,,,sub-076,1,stroop_test,,
,,,,43.0,7.0,3.0,,,,,,,,,,,,,rot,yellow,g,0.0,g,1.0,1.2221547089866365,,,,,,,,,,3.0,7.0,43.0,3.0,255.12144912499932,,,,,,,,,,,,,,,,,255.11287766700843,255.4563969169976,256.2612577920081,256.2445590000134,,,,,,,,,,,,,,,,,,,,,,,,,,,,,,,,,,,256.2491380000138,256.2612577920081,256.2612577920081,257.4928729170352,g,1.0,1.2221547089866365,,,,,,sub-076,1,stroop_test,,
,,,,44.0,8.0,3.0,,,,,,,,,,,,,rot,red,r,1.0,r,1.0,0.6320826250012033,,,,,,,,,,3.0,8.0,44.0,1.0,257.5005104999873,,,,,,,,,,,,,,,,,257.4935086250189,258.28762287501013,259.0868312499952,259.0806420420413,,,,,,,,,,,,,,,,,,,,,,,,,,,,,,,,,,,259.08106737502385,259.0868312499952,259.0868312499952,259.7226043750416,r,1.0,0.6320826250012033,,,,,,sub-076,1,stroop_test,,
,,,,45.0,9.0,3.0,,,,,,,,,,,,,blau,red,r,0.0,r,1.0,1.0483281660126522,,,,,,,,,,3.0,9.0,45.0,4.0,259.73020987503696,,,,,,,,,,,,,,,,,259.72299104201375,260.9371454170323,261.7404089579941,261.72274804202607,,,,,,,,,,,,,,,,,,,,,,,,,,,,,,,,,,,261.7268314579851,261.7404089579941,261.7404089579941,262.802036167006,r,1.0,1.0483281660126522,,,,,,sub-076,1,stroop_test,,
,,,,46.0,10.0,3.0,,,,,,,,,,,,,rot,blue,b,0.0,b,1.0,1.632913750014268,,,,,,,,,,3.0,10.0,46.0,2.0,262.80738300003577,,,,,,,,,,,,,,,,,262.8023583330214,263.6170721669914,264.42365916701965,264.4117641670164,,,,,,,,,,,,,,,,,,,,,,,,,,,,,,,,,,,264.41494554199744,264.42365916701965,264.42365916701965,266.0582512500114,b,1.0,1.632913750014268,,,,,,sub-076,1,stroop_test,,
,,,,47.0,11.0,3.0,,,,,,,,,,,,,blau,yellow,g,0.0,g,1.0,1.0420172499725595,,,,,,,,,,3.0,11.0,47.0,7.0,266.0708924999926,,,,,,,,,,,,,,,,,266.058596124989,267.2501134580234,268.05586545803817,268.0442210829933,,,,,,,,,,,,,,,,,,,,,,,,,,,,,,,,,,,268.04690291703446,268.05586545803817,268.05586545803817,269.10394237498986,g,1.0,1.0420172499725595,,,,,,sub-076,1,stroop_test,,
,,,,48.0,0.0,4.0,,,,,,,,,,,,,rot,yellow,g,0.0,g,1.0,0.8027032499667257,,,,,,,,,,4.0,0.0,48.0,3.0,269.1126549170003,,,,,,,,,,,,,,,,,269.1042360829888,269.89877933298703,270.70662891701795,270.6922365000355,,,,,,,,,,,,,,,,,,,,,,,,,,,,,,,,,,,270.69588816701435,270.70662891701795,270.70662891701795,271.5117250829935,g,1.0,0.8027032499667257,,,,,,sub-076,1,stroop_test,,
,,,,49.0,1.0,4.0,,,,,,,,,,,,,blau,yellow,g,0.0,g,1.0,1.001930332975462,,,,,,,,,,4.0,1.0,49.0,7.0,271.52342362503987,,,,,,,,,,,,,,,,,271.5120474169962,271.8583817500039,272.656458500016,272.6415664170054,,,,,,,,,,,,,,,,,,,,,,,,,,,,,,,,,,,272.6466853329912,272.656458500016,272.656458500016,273.67981991701527,g,1.0,1.001930332975462,,,,,,sub-076,1,stroop_test,,
,,,,50.0,2.0,4.0,,,,,,,,,,,,,rot,red,r,1.0,r,1.0,1.3111528329900466,,,,,,,,,,4.0,2.0,50.0,1.0,273.68842283298727,,,,,,,,,,,,,,,,,273.68012583302334,273.7928974170354,274.5926073330338,274.58148575003725,,,,,,,,,,,,,,,,,,,,,,,,,,,,,,,,,,,274.5838223749888,274.5926073330338,274.5926073330338,275.906276291993,r,1.0,1.3111528329900466,,,,,,sub-076,1,stroop_test,,
,,,,51.0,3.0,4.0,,,,,,,,,,,,,blau,blue,b,1.0,b,1.0,0.6805273329955526,,,,,,,,,,4.0,3.0,51.0,6.0,275.91551050002454,,,,,,,,,,,,,,,,,275.906986417016,277.0951347920345,277.8983495000284,277.87951970798895,,,,,,,,,,,,,,,,,,,,,,,,,,,,,,,,,,,277.8847680420149,277.8983495000284,277.8983495000284,278.5867140830378,b,1.0,0.6805273329955526,,,,,,sub-076,1,stroop_test,,
,,,,52.0,4.0,4.0,,,,,,,,,,,,,gelb,yellow,g,1.0,g,1.0,0.8427102499990724,,,,,,,,,,4.0,4.0,52.0,11.0,278.5943674170412,,,,,,,,,,,,,,,,,278.5870709579904,279.37993920804,280.18074458302,280.1653404170065,,,,,,,,,,,,,,,,,,,,,,,,,,,,,,,,,,,280.1693020419916,280.18074458302,280.18074458302,281.0350206249859,g,1.0,0.8427102499990724,,,,,,sub-076,1,stroop_test,,
,,,,53.0,5.0,4.0,,,,,,,,,,,,,gelb,red,r,0.0,r,1.0,0.9855636660358869,,,,,,,,,,4.0,5.0,53.0,8.0,281.04261404200224,,,,,,,,,,,,,,,,,281.0357690420351,281.851047083037,282.6487069170107,282.63858850003453,,,,,,,,,,,,,,,,,,,,,,,,,,,,,,,,,,,282.639113000012,282.6487069170107,282.6487069170107,283.64145804202417,r,1.0,0.9855636660358869,,,,,,sub-076,1,stroop_test,,
,,,,54.0,6.0,4.0,,,,,,,,,,,,,blau,red,r,0.0,r,1.0,0.7456002079998143,,,,,,,,,,4.0,6.0,54.0,4.0,283.6493439580081,,,,,,,,,,,,,,,,,283.6417884170078,284.4403400000301,285.2517235419946,285.23296441702405,,,,,,,,,,,,,,,,,,,,,,,,,,,,,,,,,,,285.23850404203404,285.2517235419946,285.2517235419946,286.0083453329862,r,1.0,0.7456002079998143,,,,,,sub-076,1,stroop_test,,
,,,,55.0,7.0,4.0,,,,,,,,,,,,,rot,blue,b,0.0,b,1.0,0.6153127500438131,,,,,,,,,,4.0,7.0,55.0,2.0,286.0156772499904,,,,,,,,,,,,,,,,,286.0086701250402,287.2228613329935,288.02304216701305,288.0120744170272,,,,,,,,,,,,,,,,,,,,,,,,,,,,,,,,,,,288.0144702080288,288.02304216701305,288.02304216701305,288.6398012920399,b,1.0,0.6153127500438131,,,,,,sub-076,1,stroop_test,,
,,,,56.0,8.0,4.0,,,,,,,,,,,,,blau,blue,b,1.0,b,1.0,0.9327690830104984,,,,,,,,,,4.0,8.0,56.0,5.0,288.6483797500259,,,,,,,,,,,,,,,,,288.6401174580096,289.8371027500252,290.6394972500275,290.6242244580062,,,,,,,,,,,,,,,,,,,,,,,,,,,,,,,,,,,290.62937550002243,290.6394972500275,290.6394972500275,291.5765218330198,b,1.0,0.9327690830104984,,,,,,sub-076,1,stroop_test,,
,,,,57.0,9.0,4.0,,,,,,,,,,,,,gelb,blue,b,0.0,b,1.0,1.1907188330078498,,,,,,,,,,4.0,9.0,57.0,9.0,291.5872964580194,,,,,,,,,,,,,,,,,291.57681354199303,291.67806825001026,292.4856555000297,292.46795150003163,,,,,,,,,,,,,,,,,,,,,,,,,,,,,,,,,,,292.47279008303303,292.4856555000297,292.4856555000297,293.6784252920188,b,1.0,1.1907188330078498,,,,,,sub-076,1,stroop_test,,
,,,,58.0,10.0,4.0,,,,,,,,,,,,,rot,red,r,1.0,r,1.0,0.8751261670258828,,,,,,,,,,4.0,10.0,58.0,0.0,293.6866157919867,,,,,,,,,,,,,,,,,293.67872462503146,294.02674212498823,294.8232250000001,294.8115475830273,,,,,,,,,,,,,,,,,,,,,,,,,,,,,,,,,,,294.81483799999114,294.8232250000001,294.8232250000001,295.703013958002,r,1.0,0.8751261670258828,,,,,,sub-076,1,stroop_test,,
,,,,59.0,11.0,4.0,,,,,,,,,,,,,gelb,yellow,g,1.0,g,1.0,0.7422982919961214,,,,,,,,,,4.0,11.0,59.0,10.0,295.7117570420378,,,,,,,,,,,,,,,,,295.70333137502894,295.8086471250281,296.61024041700875,296.5941714580404,,,,,,,,,,,,,,,,,,,,,,,,,,,,,,,,,,,296.598363875004,296.61024041700875,296.61024041700875,297.3682564169867,g,1.0,0.7422982919961214,,,,,,sub-076,1,stroop_test,,
,,,,60.0,0.0,5.0,,,,,,,,,,,,,rot,red,r,1.0,r,1.0,0.7140322090126574,,,,,,,,,,5.0,0.0,60.0,1.0,297.3774748329888,,,,,,,,,,,,,,,,,297.3689628749853,298.561780958029,299.36946000001626,299.3542618750362,,,,,,,,,,,,,,,,,,,,,,,,,,,,,,,,,,,299.35807762498735,299.36946000001626,299.36946000001626,300.0958250000258,r,1.0,0.7140322090126574,,,,,,sub-076,1,stroop_test,,
,,,,61.0,1.0,5.0,,,,,,,,,,,,,blau,red,r,0.0,b,0.0,1.1661575000034643,,,,,,,,,,5.0,1.0,61.0,4.0,300.1051835420076,,,,,,,,,,,,,,,,,300.0965183750377,301.2873098329874,302.0901847080095,302.07173662498826,,,,,,,,,,,,,,,,,,,,,,,,,,,,,,,,,,,302.0766720829997,302.0901847080095,302.0901847080095,303.2635861670133,b,0.0,1.1661575000034643,,,,,,sub-076,1,stroop_test,,
,,,,62.0,2.0,5.0,,,,,,,,,,,,,gelb,blue,b,0.0,b,1.0,2.938369582989253,,,,,,,,,,5.0,2.0,62.0,9.0,303.2725925419945,,,,,,,,,,,,,,,,,303.2642442919896,304.46545383299235,305.2677450830233,305.2500609169947,,,,,,,,,,,,,,,,,,,,,,,,,,,,,,,,,,,305.2558680830407,305.2677450830233,305.2677450830233,308.2076786250109,b,1.0,2.938369582989253,,,,,,sub-076,1,stroop_test,,
,,,,63.0,3.0,5.0,,,,,,,,,,,,,rot,blue,b,0.0,b,1.0,0.8771174590219744,,,,,,,,,,5.0,3.0,63.0,2.0,308.21609875001013,,,,,,,,,,,,,,,,,308.2080089580268,308.31084858300164,309.11519091698574,309.09900774998823,,,,,,,,,,,,,,,,,,,,,,,,,,,,,,,,,,,309.1028126250021,309.11519091698574,309.11519091698574,310.0021006669849,b,1.0,0.8771174590219744,,,,,,sub-076,1,stroop_test,,
,,,,64.0,4.0,5.0,,,,,,,,,,,,,gelb,yellow,g,1.0,g,1.0,1.1028061660472304,,,,,,,,,,5.0,4.0,64.0,10.0,310.01044799998635,,,,,,,,,,,,,,,,,310.0024532499956,310.7928640830214,311.5905013750307,311.57795316702686,,,,,,,,,,,,,,,,,,,,,,,,,,,,,,,,,,,311.5806097500026,311.5905013750307,311.5905013750307,312.696705667011,g,1.0,1.1028061660472304,,,,,,sub-076,1,stroop_test,,
,,,,65.0,5.0,5.0,,,,,,,,,,,,,rot,yellow,g,0.0,g,1.0,1.7340884579462,,,,,,,,,,5.0,5.0,65.0,3.0,312.7073592499946,,,,,,,,,,,,,,,,,312.69702145800693,313.4905902080354,314.2916787920404,314.2818294580211,,,,,,,,,,,,,,,,,,,,,,,,,,,,,,,,,,,314.2837255420163,314.2916787920404,314.2916787920404,316.03367045801133,g,1.0,1.7340884579462,,,,,,sub-076,1,stroop_test,,
,,,,66.0,6.0,5.0,,,,,,,,,,,,,gelb,yellow,g,1.0,g,1.0,0.7664465410052799,,,,,,,,,,5.0,6.0,66.0,11.0,316.04218550003134,,,,,,,,,,,,,,,,,316.0339675830328,316.84640766703524,317.65235237503657,317.639389833028,,,,,,,,,,,,,,,,,,,,,,,,,,,,,,,,,,,317.6432305829949,317.65235237503657,317.65235237503657,318.4243050829973,g,1.0,0.7664465410052799,,,,,,sub-076,1,stroop_test,,
,,,,67.0,7.0,5.0,,,,,,,,,,,,,blau,yellow,g,0.0,g,1.0,0.7767938749748282,,,,,,,,,,5.0,7.0,67.0,7.0,318.4354022080079,,,,,,,,,,,,,,,,,318.4246367500164,319.641473375028,320.4383218330331,320.42462295800215,,,,,,,,,,,,,,,,,,,,,,,,,,,,,,,,,,,320.427291250031,320.4383218330331,320.4383218330331,321.21726641699206,g,1.0,0.7767938749748282,,,,,,sub-076,1,stroop_test,,
,,,,68.0,8.0,5.0,,,,,,,,,,,,,gelb,red,r,0.0,b,0.0,1.223410334030632,,,,,,,,,,5.0,8.0,68.0,8.0,321.2283862080076,,,,,,,,,,,,,,,,,321.2176009580144,321.56197487498866,322.3835737920017,322.3629141669953,,,,,,,,,,,,,,,,,,,,,,,,,,,,,,,,,,,322.36854066699743,322.3835737920017,322.3835737920017,323.623054124997,b,0.0,1.223410334030632,,,,,,sub-076,1,stroop_test,,
,,,,69.0,9.0,5.0,,,,,,,,,,,,,blau,blue,b,1.0,b,1.0,1.5822948339628056,,,,,,,,,,5.0,9.0,69.0,5.0,323.6320005829912,,,,,,,,,,,,,,,,,323.6236082080286,323.9750426670071,324.7743170830072,324.75842887500767,,,,,,,,,,,,,,,,,,,,,,,,,,,,,,,,,,,324.76248475001194,324.7743170830072,324.7743170830072,326.3637143330416,b,1.0,1.5822948339628056,,,,,,sub-076,1,stroop_test,,
,,,,70.0,10.0,5.0,,,,,,,,,,,,,blau,blue,b,1.0,b,1.0,0.9200967919896356,,,,,,,,,,5.0,10.0,70.0,6.0,326.3713847500039,,,,,,,,,,,,,,,,,326.3641037920024,326.45491620799294,327.250867041992,327.2420634170412,,,,,,,,,,,,,,,,,,,,,,,,,,,,,,,,,,,327.24281158304075,327.250867041992,327.250867041992,328.1741331249941,b,1.0,0.9200967919896356,,,,,,sub-076,1,stroop_test,,
,,,,71.0,11.0,5.0,,,,,,,,,,,,,rot,red,r,1.0,r,1.0,0.7500943329650909,,,,,,,,,,5.0,11.0,71.0,0.0,328.1848634580383,,,,,,,,,,,,,,,,,328.1744412080152,328.5181117919856,329.32332087500254,329.30522137501976,,,,,,,,,,,,,,,,,,,,,,,,,,,,,,,,,,,329.3097228750121,329.32332087500254,329.32332087500254,330.08357820799574,r,1.0,0.7500943329650909,,,,,,sub-076,1,stroop_test,,
,,,,72.0,0.0,6.0,,,,,,,,,,,,,gelb,blue,b,0.0,b,1.0,1.3817890420323238,,,,,,,,,,6.0,0.0,72.0,9.0,330.09078125003725,,,,,,,,,,,,,,,,,330.0838915000204,330.43369258299936,331.23570474999724,331.2243690000032,,,,,,,,,,,,,,,,,,,,,,,,,,,,,,,,,,,331.22688458301127,331.23570474999724,331.23570474999724,332.6188672499848,b,1.0,1.3817890420323238,,,,,,sub-076,1,stroop_test,,
,,,,73.0,1.0,6.0,,,,,,,,,,,,,rot,red,r,1.0,r,1.0,1.1545643329736777,,,,,,,,,,6.0,1.0,73.0,0.0,332.6248330830131,,,,,,,,,,,,,,,,,332.6192240419914,332.9707744580228,333.77585866703885,333.7607010420179,,,,,,,,,,,,,,,,,,,,,,,,,,,,,,,,,,,333.764372042031,333.77585866703885,333.77585866703885,334.9319377079956,r,1.0,1.1545643329736777,,,,,,sub-076,1,stroop_test,,
,,,,74.0,2.0,6.0,,,,,,,,,,,,,rot,blue,b,0.0,b,1.0,0.9417255420121364,,,,,,,,,,6.0,2.0,74.0,2.0,334.9438412080053,,,,,,,,,,,,,,,,,334.9322790420265,335.732824042032,336.53305962501327,336.5250230419915,,,,,,,,,,,,,,,,,,,,,,,,,,,,,,,,,,,336.52553079201607,336.53305962501327,336.53305962501327,337.4836823330261,b,1.0,0.9417255420121364,,,,,,sub-076,1,stroop_test,,
,,,,75.0,3.0,6.0,,,,,,,,,,,,,blau,yellow,g,0.0,g,1.0,1.0954614999936894,,,,,,,,,,6.0,3.0,75.0,7.0,337.49244420800824,,,,,,,,,,,,,,,,,337.4840310420259,338.27952433301834,339.08794033300364,339.07037112500984,,,,,,,,,,,,,,,,,,,,,,,,,,,,,,,,,,,339.07634562498424,339.08794033300364,339.08794033300364,340.1849778750329,g,1.0,1.0954614999936894,,,,,,sub-076,1,stroop_test,,
,,,,76.0,4.0,6.0,,,,,,,,,,,,,blau,red,r,0.0,r,1.0,1.0632041670032777,,,,,,,,,,6.0,4.0,76.0,4.0,340.19084329198813,,,,,,,,,,,,,,,,,340.18531770800473,340.5321506669861,341.3282176250359,341.32040670799324,,,,,,,,,,,,,,,,,,,,,,,,,,,,,,,,,,,341.32094245799817,341.3282176250359,341.3282176250359,342.39355550002074,r,1.0,1.0632041670032777,,,,,,sub-076,1,stroop_test,,
,,,,77.0,5.0,6.0,,,,,,,,,,,,,rot,red,r,1.0,r,1.0,0.537966542004142,,,,,,,,,,6.0,5.0,77.0,1.0,342.3981936670025,,,,,,,,,,,,,,,,,342.3938545000274,343.6025363749941,344.4006373329903,344.38647004199447,,,,,,,,,,,,,,,,,,,,,,,,,,,,,,,,,,,344.3901770830271,344.4006373329903,344.4006373329903,344.9414306670078,r,1.0,0.537966542004142,,,,,,sub-076,1,stroop_test,,
,,,,78.0,6.0,6.0,,,,,,,,,,,,,blau,blue,b,1.0,b,1.0,0.7603388340212405,,,,,,,,,,6.0,6.0,78.0,5.0,344.95170770800905,,,,,,,,,,,,,,,,,344.94173408299685,345.0399950420251,345.8406744170352,345.82426725002006,,,,,,,,,,,,,,,,,,,,,,,,,,,,,,,,,,,345.82854933303315,345.8406744170352,345.8406744170352,346.6033831250388,b,1.0,0.7603388340212405,,,,,,sub-076,1,stroop_test,,
,,,,79.0,7.0,6.0,,,,,,,,,,,,,blau,blue,b,1.0,b,1.0,0.6625076250056736,,,,,,,,,,6.0,7.0,79.0,6.0,346.6110282500158,,,,,,,,,,,,,,,,,346.6037682919996,346.698043542041,347.4969934580149,347.4884653330082,,,,,,,,,,,,,,,,,,,,,,,,,,,,,,,,,,,347.4890911669936,347.4969934580149,347.4969934580149,348.1616440420039,b,1.0,0.6625076250056736,,,,,,sub-076,1,stroop_test,,
,,,,80.0,8.0,6.0,,,,,,,,,,,,,gelb,red,r,0.0,r,1.0,0.9664580829557964,,,,,,,,,,6.0,8.0,80.0,8.0,348.1700164580252,,,,,,,,,,,,,,,,,348.162342708034,348.5037130829878,349.3055204580305,349.29148129199166,,,,,,,,,,,,,,,,,,,,,,,,,,,,,,,,,,,349.2950107500073,349.3055204580305,349.3055204580305,350.28721058298834,r,1.0,0.9664580829557964,,,,,,sub-076,1,stroop_test,,
,,,,81.0,9.0,6.0,,,,,,,,,,,,,rot,yellow,g,0.0,g,1.0,0.6827372080297209,,,,,,,,,,6.0,9.0,81.0,3.0,350.29629008303164,,,,,,,,,,,,,,,,,350.2878830829868,350.3915394170326,351.1944102080306,351.1763244580361,,,,,,,,,,,,,,,,,,,,,,,,,,,,,,,,,,,351.1809763330384,351.1944102080306,351.1944102080306,351.8786121250014,g,1.0,0.6827372080297209,,,,,,sub-076,1,stroop_test,,
,,,,82.0,10.0,6.0,,,,,,,,,,,,,gelb,yellow,g,1.0,g,1.0,0.7816020409809425,,,,,,,,,,6.0,10.0,82.0,10.0,351.8902505420265,,,,,,,,,,,,,,,,,351.8788783749915,351.9652785420185,352.768571291992,352.75469962501666,,,,,,,,,,,,,,,,,,,,,,,,,,,,,,,,,,,352.75840995804174,352.768571291992,352.768571291992,353.5566657920135,g,1.0,0.7816020409809425,,,,,,sub-076,1,stroop_test,,
,,,,83.0,11.0,6.0,,,,,,,,,,,,,gelb,yellow,g,1.0,g,1.0,0.7688824589713477,,,,,,,,,,6.0,11.0,83.0,11.0,353.56539325002814,,,,,,,,,,,,,,,,,353.5569730420248,353.91490391700063,354.71525037504034,354.70686520799063,,,,,,,,,,,,,,,,,,,,,,,,,,,,,,,,,,,354.7075567499851,354.71525037504034,354.71525037504034,355.4957911670208,g,1.0,0.7688824589713477,,,,,,sub-076,1,stroop_test,,
,,,,84.0,0.0,7.0,,,,,,,,,,,,,rot,blue,b,0.0,b,1.0,0.873459916037973,,,,,,,,,,7.0,0.0,84.0,2.0,355.5037420000299,,,,,,,,,,,,,,,,,355.4960997920134,355.83735824999167,356.63605912501225,356.6221960830153,,,,,,,,,,,,,,,,,,,,,,,,,,,,,,,,,,,356.6260995829944,356.63605912501225,356.63605912501225,357.5127197080292,b,1.0,0.873459916037973,,,,,,sub-076,1,stroop_test,,
,,,,85.0,1.0,7.0,,,,,,,,,,,,,gelb,yellow,g,1.0,g,1.0,0.8353645000024699,,,,,,,,,,7.0,1.0,85.0,11.0,357.5238844580017,,,,,,,,,,,,,,,,,357.5130118750385,357.6110097499913,358.4139384580194,358.39576525002485,,,,,,,,,,,,,,,,,,,,,,,,,,,,,,,,,,,358.4008243330172,358.4139384580194,358.4139384580194,359.2517409999855,g,1.0,0.8353645000024699,,,,,,sub-076,1,stroop_test,,
,,,,86.0,2.0,7.0,,,,,,,,,,,,,gelb,blue,b,0.0,b,1.0,0.7116812089807354,,,,,,,,,,7.0,2.0,86.0,9.0,359.259933000023,,,,,,,,,,,,,,,,,359.25229375000345,360.0595038330066,360.8549446249963,360.84359266702086,,,,,,,,,,,,,,,,,,,,,,,,,,,,,,,,,,,360.84399925003527,360.8549446249963,360.8549446249963,361.5720937080332,b,1.0,0.7116812089807354,,,,,,sub-076,1,stroop_test,,
,,,,87.0,3.0,7.0,,,,,,,,,,,,,rot,red,r,1.0,r,1.0,0.7069831670378335,,,,,,,,,,7.0,3.0,87.0,1.0,361.580599500041,,,,,,,,,,,,,,,,,361.57241162500577,361.9342890830012,362.7419195420225,362.72669420798775,,,,,,,,,,,,,,,,,,,,,,,,,,,,,,,,,,,362.7302839169861,362.7419195420225,362.7419195420225,363.45545150002,r,1.0,0.7069831670378335,,,,,,sub-076,1,stroop_test,,
,,,,88.0,4.0,7.0,,,,,,,,,,,,,gelb,yellow,g,1.0,b,0.0,0.8383532910374925,,,,,,,,,,7.0,4.0,88.0,10.0,363.46500008302974,,,,,,,,,,,,,,,,,363.4561480830307,364.24737466702936,365.0504427080159,365.0356949170237,,,,,,,,,,,,,,,,,,,,,,,,,,,,,,,,,,,365.0392832920188,365.0504427080159,365.0504427080159,365.8959302920266,b,0.0,0.8383532910374925,,,,,,sub-076,1,stroop_test,,
,,,,89.0,5.0,7.0,,,,,,,,,,,,,blau,blue,b,1.0,b,1.0,1.0087992080370896,,,,,,,,,,7.0,5.0,89.0,6.0,365.9034137499984,,,,,,,,,,,,,,,,,365.89624387503136,366.6897052919958,367.4938435000368,367.4784846670227,,,,,,,,,,,,,,,,,,,,,,,,,,,,,,,,,,,367.4835338750272,367.4938435000368,367.4938435000368,368.5040140420315,b,1.0,1.0087992080370896,,,,,,sub-076,1,stroop_test,,
,,,,90.0,6.0,7.0,,,,,,,,,,,,,rot,yellow,g,0.0,g,1.0,0.5488210409530438,,,,,,,,,,7.0,6.0,90.0,3.0,368.5242636670009,,,,,,,,,,,,,,,,,368.5043561250204,368.84755795804085,369.64299150003353,369.6305874999962,,,,,,,,,,,,,,,,,,,,,,,,,,,,,,,,,,,369.6338215830037,369.64299150003353,369.64299150003353,370.20247750001727,g,1.0,0.5488210409530438,,,,,,sub-076,1,stroop_test,,
,,,,91.0,7.0,7.0,,,,,,,,,,,,,gelb,red,r,0.0,r,1.0,1.3180128749809228,,,,,,,,,,7.0,7.0,91.0,8.0,370.207072167017,,,,,,,,,,,,,,,,,370.2027339580236,370.9945691670291,371.7902388750226,371.77799295802834,,,,,,,,,,,,,,,,,,,,,,,,,,,,,,,,,,,371.7815607920056,371.7902388750226,371.7902388750226,373.11063945799833,r,1.0,1.3180128749809228,,,,,,sub-076,1,stroop_test,,
,,,,92.0,8.0,7.0,,,,,,,,,,,,,blau,yellow,g,0.0,g,1.0,1.1765888329828158,,,,,,,,,,7.0,8.0,92.0,7.0,373.119187000033,,,,,,,,,,,,,,,,,373.1112854999956,373.47366733301897,374.2777841250063,374.2594319169875,,,,,,,,,,,,,,,,,,,,,,,,,,,,,,,,,,,374.2647390000057,374.2777841250063,374.2777841250063,375.4566137500224,g,1.0,1.1765888329828158,,,,,,sub-076,1,stroop_test,,
,,,,93.0,9.0,7.0,,,,,,,,,,,,,blau,blue,b,1.0,b,1.0,0.7622609580284916,,,,,,,,,,7.0,9.0,93.0,5.0,375.46541633299785,,,,,,,,,,,,,,,,,375.4572914169985,376.245881083014,377.04364187503234,377.0326125420397,,,,,,,,,,,,,,,,,,,,,,,,,,,,,,,,,,,377.03313458303455,377.04364187503234,377.04364187503234,377.8159060830367,b,1.0,0.7622609580284916,,,,,,sub-076,1,stroop_test,,
,,,,94.0,10.0,7.0,,,,,,,,,,,,,blau,red,r,0.0,r,1.0,0.7899980410002172,,,,,,,,,,7.0,10.0,94.0,4.0,377.82391833298607,,,,,,,,,,,,,,,,,377.81623029202456,378.6126771250274,379.404886000033,379.3967042500153,,,,,,,,,,,,,,,,,,,,,,,,,,,,,,,,,,,379.3972533750348,379.404886000033,379.404886000033,380.1974441250204,r,1.0,0.7899980410002172,,,,,,sub-076,1,stroop_test,,
,,,,95.0,11.0,7.0,,,,,,,,,,,,,rot,red,r,1.0,r,1.0,0.4713426670059562,,,,,,,,,,7.0,11.0,95.0,0.0,380.2064280830091,,,,,,,,,,,,,,,,,380.1980674170191,380.9943677500123,381.7965422919952,381.78011804202106,,,,,,,,,,,,,,,,,,,,,,,,,,,,,,,,,,,381.7838889579871,381.7965422919952,381.7965422919952,382.2757789579919,r,1.0,0.4713426670059562,,,,,,sub-076,1,stroop_test,,
,,,,96.0,0.0,8.0,,,,,,,,,,,,,blau,blue,b,1.0,b,1.0,0.716140957956668,,,,,,,,,,8.0,0.0,96.0,6.0,382.2995473330375,,,,,,,,,,,,,,,,,382.27611387503566,382.6181558329845,383.421942542016,383.4043430419988,,,,,,,,,,,,,,,,,,,,,,,,,,,,,,,,,,,383.4101085420116,383.421942542016,383.421942542016,384.1448183330358,b,1.0,0.716140957956668,,,,,,sub-076,1,stroop_test,,
,,,,97.0,1.0,8.0,,,,,,,,,,,,,rot,blue,b,0.0,b,1.0,1.1213218750199303,,,,,,,,,,8.0,1.0,97.0,2.0,384.15325858298456,,,,,,,,,,,,,,,,,384.1453167499858,384.4920605000225,385.29287483298685,385.2755139170331,,,,,,,,,,,,,,,,,,,,,,,,,,,,,,,,,,,385.2799489580211,385.29287483298685,385.29287483298685,386.4243422920117,b,1.0,1.1213218750199303,,,,,,sub-076,1,stroop_test,,
,,,,98.0,2.0,8.0,,,,,,,,,,,,,gelb,yellow,g,1.0,g,1.0,0.7425675830454566,,,,,,,,,,8.0,2.0,98.0,10.0,386.4328194580157,,,,,,,,,,,,,,,,,386.4246672920417,386.520972792001,387.3267995830393,387.3134524580091,,,,,,,,,,,,,,,,,,,,,,,,,,,,,,,,,,,387.3161479170085,387.3267995830393,387.3267995830393,388.0802347080317,g,1.0,0.7425675830454566,,,,,,sub-076,1,stroop_test,,
,,,,99.0,3.0,8.0,,,,,,,,,,,,,blau,blue,b,1.0,b,1.0,0.68867041595513,,,,,,,,,,8.0,3.0,99.0,5.0,388.0889342080336,,,,,,,,,,,,,,,,,388.08055933302967,388.8822628750349,389.6810205830261,389.6664432500256,,,,,,,,,,,,,,,,,,,,,,,,,,,,,,,,,,,389.6699377080077,389.6810205830261,389.6810205830261,390.3711546669947,b,1.0,0.68867041595513,,,,,,sub-076,1,stroop_test,,
,,,,100.0,4.0,8.0,,,,,,,,,,,,,gelb,yellow,g,1.0,b,0.0,0.8428117919829674,,,,,,,,,,8.0,4.0,100.0,11.0,390.39145612501306,,,,,,,,,,,,,,,,,390.3714953750023,391.1643131669844,391.9616756670293,391.9486015830189,,,,,,,,,,,,,,,,,,,,,,,,,,,,,,,,,,,391.95236066699727,391.9616756670293,391.9616756670293,392.8074914580211,b,0.0,0.8428117919829674,,,,,,sub-076,1,stroop_test,,
,,,,101.0,5.0,8.0,,,,,,,,,,,,,rot,yellow,g,0.0,g,1.0,1.2014343749615364,,,,,,,,,,8.0,5.0,101.0,3.0,392.8156994580058,,,,,,,,,,,,,,,,,392.8077681669965,393.6207082080073,394.4263062500395,394.4152291670325,,,,,,,,,,,,,,,,,,,,,,,,,,,,,,,,,,,394.417578875029,394.4263062500395,394.4263062500395,395.6292970000068,g,1.0,1.2014343749615364,,,,,,sub-076,1,stroop_test,,
,,,,102.0,6.0,8.0,,,,,,,,,,,,,gelb,red,r,0.0,r,1.0,1.224488666979596,,,,,,,,,,8.0,6.0,102.0,8.0,395.636830375006,,,,,,,,,,,,,,,,,395.6295857080258,395.7221466249903,396.52447416703217,396.5105948750279,,,,,,,,,,,,,,,,,,,,,,,,,,,,,,,,,,,396.5146202080068,396.52447416703217,396.52447416703217,397.7513692920329,r,1.0,1.224488666979596,,,,,,sub-076,1,stroop_test,,
,,,,103.0,7.0,8.0,,,,,,,,,,,,,rot,red,r,1.0,r,1.0,0.6930182499927469,,,,,,,,,,8.0,7.0,103.0,1.0,397.75875379203353,,,,,,,,,,,,,,,,,397.751667583012,398.5464427500265,399.34305262501584,399.3305395420175,,,,,,,,,,,,,,,,,,,,,,,,,,,,,,,,,,,399.3341555420193,399.34305262501584,399.34305262501584,400.0430948330322,r,1.0,0.6930182499927469,,,,,,sub-076,1,stroop_test,,
,,,,104.0,8.0,8.0,,,,,,,,,,,,,blau,red,r,0.0,r,1.0,0.7309168329811655,,,,,,,,,,8.0,8.0,104.0,4.0,400.0510288749938,,,,,,,,,,,,,,,,,400.0435512079857,400.1400458749849,400.9409648330184,400.9259240000392,,,,,,,,,,,,,,,,,,,,,,,,,,,,,,,,,,,400.9300956670195,400.9409648330184,400.9409648330184,401.6748006250127,r,1.0,0.7309168329811655,,,,,,sub-076,1,stroop_test,,
,,,,105.0,9.0,8.0,,,,,,,,,,,,,gelb,blue,b,0.0,g,0.0,1.061151415982749,,,,,,,,,,8.0,9.0,105.0,9.0,401.68329825002,,,,,,,,,,,,,,,,,401.6751478750375,401.7649952080101,402.5697768329992,402.5527977080201,,,,,,,,,,,,,,,,,,,,,,,,,,,,,,,,,,,402.55697541701375,402.5697768329992,402.5697768329992,403.642665625026,g,0.0,1.061151415982749,,,,,,sub-076,1,stroop_test,,
,,,,106.0,10.0,8.0,,,,,,,,,,,,,blau,yellow,g,0.0,g,1.0,0.563669833005406,,,,,,,,,,8.0,10.0,106.0,7.0,403.652169292036,,,,,,,,,,,,,,,,,403.64329554198775,403.9859395829844,404.7942787919892,404.7795856249868,,,,,,,,,,,,,,,,,,,,,,,,,,,,,,,,,,,404.7836752920412,404.7942787919892,404.7942787919892,405.38088108302327,g,1.0,0.563669833005406,,,,,,sub-076,1,stroop_test,,
,,,,107.0,11.0,8.0,,,,,,,,,,,,,rot,red,r,1.0,r,1.0,0.7852011250215583,,,,,,,,,,8.0,11.0,107.0,0.0,405.3915403329884,,,,,,,,,,,,,,,,,405.3816102499841,405.47432479204144,406.2773269169848,406.26163591700606,,,,,,,,,,,,,,,,,,,,,,,,,,,,,,,,,,,406.2653596670134,406.2773269169848,406.2773269169848,407.0716672079871,r,1.0,0.7852011250215583,,,,,,sub-076,1,stroop_test,,
,,,,108.0,0.0,9.0,,,,,,,,,,,,,gelb,yellow,g,1.0,g,1.0,1.3300540000200272,,,,,,,,,,9.0,0.0,108.0,11.0,407.0792046249844,,,,,,,,,,,,,,,,,407.0720032920362,407.1654666670365,407.9714811249869,407.959316958033,,,,,,,,,,,,,,,,,,,,,,,,,,,,,,,,,,,407.9624662499991,407.9714811249869,407.9714811249869,409.31207441701554,g,1.0,1.3300540000200272,,,,,,sub-076,1,stroop_test,,
,,,,109.0,1.0,9.0,,,,,,,,,,,,,blau,blue,b,1.0,b,1.0,2.266592291998677,,,,,,,,,,9.0,1.0,109.0,6.0,409.319961042027,,,,,,,,,,,,,,,,,409.3124306669925,410.51093504199525,411.3153165419935,411.298922499991,,,,,,,,,,,,,,,,,,,,,,,,,,,,,,,,,,,411.3036911670352,411.3153165419935,411.3153165419935,413.5845082500018,b,1.0,2.266592291998677,,,,,,sub-076,1,stroop_test,,
,,,,110.0,2.0,9.0,,,,,,,,,,,,,rot,red,r,1.0,r,1.0,0.7651294579845853,,,,,,,,,,9.0,2.0,110.0,1.0,413.5931282080128,,,,,,,,,,,,,,,,,413.5850781250047,414.7812705829856,415.587653833034,415.5711519169854,,,,,,,,,,,,,,,,,,,,,,,,,,,,,,,,,,,415.57568687503226,415.587653833034,415.587653833034,416.36645379202673,r,1.0,0.7651294579845853,,,,,,sub-076,1,stroop_test,,
,,,,111.0,3.0,9.0,,,,,,,,,,,,,gelb,red,r,0.0,r,1.0,1.440824249992147,,,,,,,,,,9.0,3.0,111.0,8.0,416.37532804202056,,,,,,,,,,,,,,,,,416.3669311249978,416.481399042008,417.2833439580281,417.2693523330381,,,,,,,,,,,,,,,,,,,,,,,,,,,,,,,,,,,417.2730747080059,417.2833439580281,417.2833439580281,418.7278316250304,r,1.0,1.440824249992147,,,,,,sub-076,1,stroop_test,,
,,,,112.0,4.0,9.0,,,,,,,,,,,,,rot,red,r,1.0,r,1.0,0.5661617079749703,,,,,,,,,,9.0,4.0,112.0,0.0,418.73701266699936,,,,,,,,,,,,,,,,,418.7281420830405,418.8235362080159,419.62167237501126,419.61119333299575,,,,,,,,,,,,,,,,,,,,,,,,,,,,,,,,,,,419.6135325829964,419.62167237501126,419.62167237501126,420.1942810000037,r,1.0,0.5661617079749703,,,,,,sub-076,1,stroop_test,,
,,,,113.0,5.0,9.0,,,,,,,,,,,,,rot,blue,b,0.0,b,1.0,1.023244167037774,,,,,,,,,,9.0,5.0,113.0,2.0,420.202822250023,,,,,,,,,,,,,,,,,420.1946202919935,420.3075884170248,421.1115629579872,421.1030395830167,,,,,,,,,,,,,,,,,,,,,,,,,,,,,,,,,,,421.1035798750236,421.1115629579872,421.1115629579872,422.1382233750192,b,1.0,1.023244167037774,,,,,,sub-076,1,stroop_test,,
,,,,114.0,6.0,9.0,,,,,,,,,,,,,gelb,blue,b,0.0,b,1.0,1.7530010410118848,,,,,,,,,,9.0,6.0,114.0,9.0,422.1462904170039,,,,,,,,,,,,,,,,,422.1389080000226,422.2309154579998,423.0303071670351,423.0166303330334,,,,,,,,,,,,,,,,,,,,,,,,,,,,,,,,,,,423.0197874580044,423.0303071670351,423.0303071670351,424.7946851670277,b,1.0,1.7530010410118848,,,,,,sub-076,1,stroop_test,,
,,,,115.0,7.0,9.0,,,,,,,,,,,,,blau,red,r,0.0,r,1.0,1.4563457919866778,,,,,,,,,,9.0,7.0,115.0,4.0,424.8049402920296,,,,,,,,,,,,,,,,,424.7953997080331,425.58462108299136,426.3811932920362,426.3689572500298,,,,,,,,,,,,,,,,,,,,,,,,,,,,,,,,,,,426.37108033301774,426.3811932920362,426.3811932920362,427.8435545830289,r,1.0,1.4563457919866778,,,,,,sub-076,1,stroop_test,,
,,,,116.0,8.0,9.0,,,,,,,,,,,,,blau,yellow,g,0.0,g,1.0,1.114483332959935,,,,,,,,,,9.0,8.0,116.0,7.0,427.85221391700907,,,,,,,,,,,,,,,,,427.8439139170223,427.9572030000272,428.75621187500656,428.7484621250187,,,,,,,,,,,,,,,,,,,,,,,,,,,,,,,,,,,428.74902570800623,428.75621187500656,428.75621187500656,429.87678874999983,g,1.0,1.114483332959935,,,,,,sub-076,1,stroop_test,,
,,,,117.0,9.0,9.0,,,,,,,,,,,,,blau,blue,b,1.0,b,1.0,1.4301709160208702,,,,,,,,,,9.0,9.0,117.0,5.0,429.8849799170275,,,,,,,,,,,,,,,,,429.8774682920193,430.67213145800633,431.48708979203366,431.4647899169941,,,,,,,,,,,,,,,,,,,,,,,,,,,,,,,,,,,431.46515108301537,431.48708979203366,431.48708979203366,432.9265946249943,b,1.0,1.4301709160208702,,,,,,sub-076,1,stroop_test,,
,,,,118.0,10.0,9.0,,,,,,,,,,,,,rot,yellow,g,0.0,g,1.0,1.388377625029534,,,,,,,,,,9.0,10.0,118.0,3.0,432.9355118329986,,,,,,,,,,,,,,,,,432.92725654202513,434.1185947500053,434.9194652499864,434.9067917920184,,,,,,,,,,,,,,,,,,,,,,,,,,,,,,,,,,,434.9091450829874,434.9194652499864,434.9194652499864,436.3127670420217,g,1.0,1.388377625029534,,,,,,sub-076,1,stroop_test,,
,,,,119.0,11.0,9.0,,,,,,,,,,,,,gelb,yellow,g,1.0,g,1.0,0.654084125009831,,,,,,,,,,9.0,11.0,119.0,10.0,436.3235378329992,,,,,,,,,,,,,,,,,436.313506000035,437.1028457080247,437.9091400420293,437.8909330830211,,,,,,,,,,,,,,,,,,,,,,,,,,,,,,,,,,,437.895917167014,437.9091400420293,437.9091400420293,438.5658019580296,g,1.0,0.654084125009831,,,,,,sub-076,1,stroop_test,,
,,,,,,,,,,,,,,,,,,,,,,,,,,,,,,,,,,,,,,,,,,,,,,,,,,,,,,,,,,,,,,,,,,,,,,,,,,,,,,,,,,,,,,,,,,,,,,,,,,,,,,438.5659760829876,438.5757882079925,443.5742788329953,443.5622426249902,sub-076,1,stroop_test,,
