wordCTK,colorCTK,corrAnsCTK,congruentCTK,thisN,thisTrialN,thisRepN,keyResp_CTK.keys,keyResp_CTK.corr,keyResp_CTK.rt,keyResp_CTK.duration,wordPractice,colorPractice,corrAnsPractice,congruentPractice,respPractice.keys,respPractice.corr,respPractice.rt,respPractice.duration,word,color,corrAns,congruent,keyResp_test_run.keys,keyResp_test_run.corr,keyResp_test_run.rt,keyResp_test_run.duration,trials_CTK.thisRepN,trials_CTK.thisTrialN,trials_CTK.thisN,trials_CTK.thisIndex,trials_practice.thisRepN,trials_practice.thisTrialN,trials_practice.thisN,trials_practice.thisIndex,trials_test.thisRepN,trials_test.thisTrialN,trials_test.thisN,trials_test.thisIndex,thisRow.t,notes,instruction.started,instr_text.started,instr_image.started,instr_resp.started,instruction.stopped,instr_resp.keys,instr_resp.rt,instr_resp.duration,instr_color_to_key.started,instr_ctk.started,resp_ctk.started,instr_color_to_key.stopped,resp_ctk.keys,resp_ctk.rt,resp_ctk.duration,ITI.started,fixcross.started,fixcross.stopped,ITI.stopped,color_to_key_run.started,stimulus_CTK.started,keyResp_CTK.started,color_to_key_run.stopped,trials_CTK.keyResp_CTK.keys,trials_CTK.keyResp_CTK.corr,trials_CTK.keyResp_CTK.rt,trials_CTK.keyResp_CTK.duration,instr_practice.started,instr_practice_text.started,instr_practice_resp.started,instr_practice.stopped,instr_practice_resp.keys,instr_practice_resp.rt,instr_practice_resp.duration,practice_run.started,stimulus_practice.started,respPractice.started,practice_run.stopped,trials_practice.respPractice.keys,trials_practice.respPractice.corr,trials_practice.respPractice.rt,trials_practice.respPractice.duration,feedback.started,textFeedback.started,feedback.stopped,textFeedback.stopped,instr_test.started,instr_test_text.started,instr_test_resp.started,instr_test.stopped,instr_test_resp.keys,instr_test_resp.rt,instr_test_resp.duration,test_run.started,stimulus_test_run.started,keyResp_test_run.started,test_run.stopped,trials_test.keyResp_test_run.keys,trials_test.keyResp_test_run.corr,trials_test.keyResp_test_run.rt,trials_test.keyResp_test_run.duration,goodbye.started,textGoodbye.started,goodbye.stopped,participant,session,date,expName,psychopyVersion,frameRate,expStart
,,,,,,,,,,,,,,,,,,,,,,,,,,,,,,,,,,,,,,,,,0.0036781,0.0956929,0.0956929,0.0956929,5.4120262,space,5.2968644,None,,,,,,,,,,,,,,,,,,,,,,,,,,,,,,,,,,,,,,,,,,,,,,,,,,,,,,,,,sub-179,1,2025-03-12_15h31.22.838,stroop_test,04.02.2024,60.04505782,2025-03-12 15h31.33.668051 +0100
,,,,,,,,,,,,,,,,,,,,,,,,,,,,,,,,,,,,,,,,,,,,,,,,,5.4121173,5.4239784,5.4239784,14.0160641,space,8.5785812,None,,,,,,,,,,,,,,,,,,,,,,,,,,,,,,,,,,,,,,,,,,,,,,,,,,sub-179,1,2025-03-12_15h31.22.838,stroop_test,04.02.2024,60.04505782,2025-03-12 15h31.33.668051 +0100
test,red,r,1,0,0,0,r,1,0.7144813,None,,,,,,,,,,,,,,,,,0,0,0,0,,,,,,,,,14.040636,,,,,,,,,,,,,,,,,14.0358725,15.2307296,16.0487312,16.0159009,16.0429197,16.0487312,16.0487312,16.7674546,r,1,0.7144813,None,,,,,,,,,,,,,,,,,,,,,,,,,,,,,,,,,,,,,,sub-179,1,2025-03-12_15h31.22.838,stroop_test,04.02.2024,60.04505782,2025-03-12 15h31.33.668051 +0100
test,yellow,g,1,1,1,0,g,1,0.7202693,None,,,,,,,,,,,,,,,,,0,1,1,1,,,,,,,,,16.7813732,,,,,,,,,,,,,,,,,16.768036,16.8817188,17.6820914,17.6665472,17.6673077,17.6820914,17.6820914,18.4179189,g,1,0.7202693,None,,,,,,,,,,,,,,,,,,,,,,,,,,,,,,,,,,,,,,sub-179,1,2025-03-12_15h31.22.838,stroop_test,04.02.2024,60.04505782,2025-03-12 15h31.33.668051 +0100
test,blue,b,1,2,2,0,b,1,0.5185778,None,,,,,,,,,,,,,,,,,0,2,2,2,,,,,,,,,18.4326889,,,,,,,,,,,,,,,,,18.4184647,18.5329419,19.3336117,19.3175341,19.3183126,19.3336117,19.3336117,19.86868,b,1,0.5185778,None,,,,,,,,,,,,,,,,,,,,,,,,,,,,,,,,,,,,,,sub-179,1,2025-03-12_15h31.22.838,stroop_test,04.02.2024,60.04505782,2025-03-12 15h31.33.668051 +0100
test,yellow,g,1,3,0,1,g,1,0.7380844,None,,,,,,,,,,,,,,,,,1,0,3,1,,,,,,,,,19.883541,,,,,,,,,,,,,,,,,19.8691812,20.6840937,21.4848163,21.4691699,21.4698593,21.4848163,21.4848163,22.23723,g,1,0.7380844,None,,,,,,,,,,,,,,,,,,,,,,,,,,,,,,,,,,,,,,sub-179,1,2025-03-12_15h31.22.838,stroop_test,04.02.2024,60.04505782,2025-03-12 15h31.33.668051 +0100
test,red,r,1,4,1,1,r,1,0.4994787,None,,,,,,,,,,,,,,,,,1,1,4,0,,,,,,,,,22.251725,,,,,,,,,,,,,,,,,22.2378172,22.6021338,23.4028553,23.3871705,23.3878962,23.4028553,23.4028553,23.9054365,r,1,0.4994787,None,,,,,,,,,,,,,,,,,,,,,,,,,,,,,,,,,,,,,,sub-179,1,2025-03-12_15h31.22.838,stroop_test,04.02.2024,60.04505782,2025-03-12 15h31.33.668051 +0100
test,blue,b,1,5,2,1,b,1,0.3822866,None,,,,,,,,,,,,,,,,,1,2,5,2,,,,,,,,,23.9196289,,,,,,,,,,,,,,,,,23.9058766,24.2703836,25.0709004,25.054713,25.0554936,25.0709004,25.0709004,25.4565343,b,1,0.3822866,None,,,,,,,,,,,,,,,,,,,,,,,,,,,,,,,,,,,,,,sub-179,1,2025-03-12_15h31.22.838,stroop_test,04.02.2024,60.04505782,2025-03-12 15h31.33.668051 +0100
test,blue,b,1,6,0,2,b,1,0.6515127,None,,,,,,,,,,,,,,,,,2,0,6,2,,,,,,,,,25.4709113,,,,,,,,,,,,,,,,,25.4570526,26.2718277,27.0721483,27.0562097,27.0568904,27.0721483,27.0721483,27.7411032,b,1,0.6515127,None,,,,,,,,,,,,,,,,,,,,,,,,,,,,,,,,,,,,,,sub-179,1,2025-03-12_15h31.22.838,stroop_test,04.02.2024,60.04505782,2025-03-12 15h31.33.668051 +0100
test,yellow,g,1,7,1,2,g,1,0.4753517,None,,,,,,,,,,,,,,,,,2,1,7,1,,,,,,,,,27.7559643,,,,,,,,,,,,,,,,,27.7416748,28.9567436,29.7575354,29.7409526,29.7414385,29.7575354,29.7575354,30.2428072,g,1,0.4753517,None,,,,,,,,,,,,,,,,,,,,,,,,,,,,,,,,,,,,,,sub-179,1,2025-03-12_15h31.22.838,stroop_test,04.02.2024,60.04505782,2025-03-12 15h31.33.668051 +0100
test,red,r,1,8,2,2,r,1,0.6545524,None,,,,,,,,,,,,,,,,,2,2,8,0,,,,,,,,,30.2575487,,,,,,,,,,,,,,,,,30.2432761,30.3578175,31.158189,31.1424568,31.1432655,31.158189,31.158189,31.8271432,r,1,0.6545524,None,,,,,,,,,,,,,,,,,,,,,,,,,,,,,,,,,,,,,,sub-179,1,2025-03-12_15h31.22.838,stroop_test,04.02.2024,60.04505782,2025-03-12 15h31.33.668051 +0100
test,yellow,g,1,9,0,3,g,1,0.8863042,None,,,,,,,,,,,,,,,,,3,0,9,1,,,,,,,,,31.8422067,,,,,,,,,,,,,,,,,31.8276669,33.025827,33.8266355,33.8109076,33.8115914,33.8266355,33.8266355,34.729252,g,1,0.8863042,None,,,,,,,,,,,,,,,,,,,,,,,,,,,,,,,,,,,,,,sub-179,1,2025-03-12_15h31.22.838,stroop_test,04.02.2024,60.04505782,2025-03-12 15h31.33.668051 +0100
test,blue,b,1,10,1,3,b,1,0.6874646,None,,,,,,,,,,,,,,,,,3,1,10,2,,,,,,,,,34.7439115,,,,,,,,,,,,,,,,,34.7297375,35.5446267,36.3448755,36.3295043,36.3301322,36.3448755,36.3448755,37.0476116,b,1,0.6874646,None,,,,,,,,,,,,,,,,,,,,,,,,,,,,,,,,,,,,,,sub-179,1,2025-03-12_15h31.22.838,stroop_test,04.02.2024,60.04505782,2025-03-12 15h31.33.668051 +0100
test,red,r,1,11,2,3,r,1,0.698613,None,,,,,,,,,,,,,,,,,3,2,11,0,,,,,,,,,37.0624416,,,,,,,,,,,,,,,,,37.048099,38.2630616,39.0640085,39.0481887,39.0491715,39.0640085,39.0640085,39.7659292,r,1,0.698613,None,,,,,,,,,,,,,,,,,,,,,,,,,,,,,,,,,,,,,,sub-179,1,2025-03-12_15h31.22.838,stroop_test,04.02.2024,60.04505782,2025-03-12 15h31.33.668051 +0100
,,,,,,,,,,,,,,,,,,,,,,,,,,,,,,,,,,,,,,,,,,,,,,,,,,,,,,,,,,,,,,,,,,,,39.7661691,39.7807934,39.7807934,44.9865778,space,5.2021478,None,,,,,,,,,,,,,,,,,,,,,,,,,,,,,,,sub-179,1,2025-03-12_15h31.22.838,stroop_test,04.02.2024,60.04505782,2025-03-12 15h31.33.668051 +0100
,,,,0,0,0,,,,,rot,blue,b,0,b,1,1.395761,None,,,,,,,,,,,,,0,0,0,2,,,,,45.007126,,,,,,,,,,,,,,,,,45.0030689,45.8018614,46.6178297,46.5863051,,,,,,,,,,,,,,,,46.6106143,46.6178297,46.6178297,48.0219647,b,1,1.395761,None,48.0467235,48.0580519,49.0375015,,,,,,,,,,,,,,,,,,,,sub-179,1,2025-03-12_15h31.22.838,stroop_test,04.02.2024,60.04505782,2025-03-12 15h31.33.668051 +0100
,,,,1,1,0,,,,,blau,yellow,g,0,g,1,1.0343634,None,,,,,,,,,,,,,0,1,1,7,,,,,49.05403,,,,,,,,,,,,,,,,,49.0379963,49.8212068,50.6282666,50.6056169,,,,,,,,,,,,,,,,50.6199286,50.6282666,50.6282666,51.6740717,g,1,1.0343634,None,51.6748684,51.6888861,52.6739161,52.6898778,,,,,,,,,,,,,,,,,,,sub-179,1,2025-03-12_15h31.22.838,stroop_test,04.02.2024,60.04505782,2025-03-12 15h31.33.668051 +0100
,,,,2,2,0,,,,,gelb,yellow,g,1,g,1,1.0886007,None,,,,,,,,,,,,,0,2,2,11,,,,,52.6898778,,,,,,,,,,,,,,,,,52.6743865,53.4735254,54.2740839,54.2584297,,,,,,,,,,,,,,,,54.2640705,54.2740839,54.2740839,55.3771133,g,1,1.0886007,None,55.3778172,55.3916073,56.3769427,56.3921626,,,,,,,,,,,,,,,,,,,sub-179,1,2025-03-12_15h31.22.838,stroop_test,04.02.2024,60.04505782,2025-03-12 15h31.33.668051 +0100
,,,,3,3,0,,,,,gelb,blue,b,0,g,0,2.44962,None,,,,,,,,,,,,,0,3,3,9,,,,,56.3921626,,,,,,,,,,,,,,,,,56.3773986,57.5931202,58.3936429,58.3779893,,,,,,,,,,,,,,,,58.3787102,58.3936429,58.3936429,60.8473896,g,0,2.44962,None,60.8608808,60.8738802,61.8632018,,,,,,,,,,,,,,,,,,,,sub-179,1,2025-03-12_15h31.22.838,stroop_test,04.02.2024,60.04505782,2025-03-12 15h31.33.668051 +0100
,,,,4,4,0,,,,,blau,red,r,0,r,1,0.8586867,None,,,,,,,,,,,,,0,4,4,4,,,,,61.8795086,,,,,,,,,,,,,,,,,61.8637887,62.2127931,63.0136433,62.9978769,,,,,,,,,,,,,,,,63.0029718,63.0136433,63.0136433,63.8828626,r,1,0.8586867,None,63.8919198,63.8993882,64.8983466,,,,,,,,,,,,,,,,,,,,sub-179,1,2025-03-12_15h31.22.838,stroop_test,04.02.2024,60.04505782,2025-03-12 15h31.33.668051 +0100
,,,,5,5,0,,,,,blau,blue,b,1,b,1,1.1531768,None,,,,,,,,,,,,,0,5,5,5,,,,,64.9151506,,,,,,,,,,,,,,,,,64.8987932,64.9982715,65.7991489,65.7830282,,,,,,,,,,,,,,,,65.7837172,65.7991489,65.7991489,66.9679666,b,1,1.1531768,None,66.9686976,66.9828142,67.9676653,67.9836357,,,,,,,,,,,,,,,,,,,sub-179,1,2025-03-12_15h31.22.838,stroop_test,04.02.2024,60.04505782,2025-03-12 15h31.33.668051 +0100
,,,,6,6,0,,,,,rot,red,r,1,r,1,0.6952501,None,,,,,,,,,,,,,0,6,6,1,,,,,67.9836357,,,,,,,,,,,,,,,,,67.968184,68.7676049,69.5678111,69.5523388,,,,,,,,,,,,,,,,69.5572745,69.5678111,69.5678111,70.2703118,r,1,0.6952501,None,70.2711045,70.2850258,71.2702974,71.2859964,,,,,,,,,,,,,,,,,,,sub-179,1,2025-03-12_15h31.22.838,stroop_test,04.02.2024,60.04505782,2025-03-12 15h31.33.668051 +0100
,,,,7,7,0,,,,,gelb,red,r,0,r,1,0.822705,None,,,,,,,,,,,,,0,7,7,8,,,,,71.2859964,,,,,,,,,,,,,,,,,71.2707419,72.4699881,73.2703576,73.2549924,,,,,,,,,,,,,,,,73.260677,73.2703576,73.2703576,74.1061372,r,1,0.822705,None,74.1067117,74.1209158,75.1061113,75.1219946,,,,,,,,,,,,,,,,,,,sub-179,1,2025-03-12_15h31.22.838,stroop_test,04.02.2024,60.04505782,2025-03-12 15h31.33.668051 +0100
,,,,8,8,0,,,,,rot,yellow,g,0,g,1,1.4000099,None,,,,,,,,,,,,,0,8,8,3,,,,,75.1219946,,,,,,,,,,,,,,,,,75.106574,75.2215678,76.0227068,76.007026,,,,,,,,,,,,,,,,76.0134855,76.0227068,76.0227068,77.4260975,g,1,1.4000099,None,77.426892,77.4399197,78.425063,78.4408032,,,,,,,,,,,,,,,,,,,sub-179,1,2025-03-12_15h31.22.838,stroop_test,04.02.2024,60.04505782,2025-03-12 15h31.33.668051 +0100
,,,,9,9,0,,,,,gelb,yellow,g,1,g,1,1.8311685,None,,,,,,,,,,,,,0,9,9,10,,,,,78.4408032,,,,,,,,,,,,,,,,,78.4255118,78.5408674,79.3413814,79.3254541,,,,,,,,,,,,,,,,79.3299452,79.3413814,79.3413814,81.177885,g,1,1.8311685,None,81.1787577,81.1924989,82.1775768,82.1931916,,,,,,,,,,,,,,,,,,,sub-179,1,2025-03-12_15h31.22.838,stroop_test,04.02.2024,60.04505782,2025-03-12 15h31.33.668051 +0100
,,,,10,10,0,,,,,rot,red,r,1,r,1,1.0984302,None,,,,,,,,,,,,,0,10,10,0,,,,,82.1931916,,,,,,,,,,,,,,,,,82.1780522,82.5436138,83.3438162,83.3284253,,,,,,,,,,,,,,,,83.3346535,83.3438162,83.3438162,84.4471911,r,1,1.0984302,None,84.4480311,84.4618228,85.4465237,85.4625394,,,,,,,,,,,,,,,,,,,sub-179,1,2025-03-12_15h31.22.838,stroop_test,04.02.2024,60.04505782,2025-03-12 15h31.33.668051 +0100
,,,,11,11,0,,,,,blau,blue,b,1,b,1,0.7756951,None,,,,,,,,,,,,,0,11,11,6,,,,,85.4625394,,,,,,,,,,,,,,,,,85.4469606,86.6464423,87.4469259,87.430943,,,,,,,,,,,,,,,,87.4359364,87.4469259,87.4469259,88.2326342,b,1,0.7756951,None,88.2334385,88.2477366,89.2325071,89.2482373,,,,,,,,,,,,,,,,,,,sub-179,1,2025-03-12_15h31.22.838,stroop_test,04.02.2024,60.04505782,2025-03-12 15h31.33.668051 +0100
,,,,12,0,1,,,,,rot,yellow,g,0,g,1,0.7699924,None,,,,,,,,,,,,,1,0,12,3,,,,,89.2482373,,,,,,,,,,,,,,,,,89.2330395,90.0315364,90.8324071,90.8166519,,,,,,,,,,,,,,,,90.8221927,90.8324071,90.8324071,91.6185104,g,1,0.7699924,None,91.6192025,91.6333406,92.618323,92.6339008,,,,,,,,,,,,,,,,,,,sub-179,1,2025-03-12_15h31.22.838,stroop_test,04.02.2024,60.04505782,2025-03-12 15h31.33.668051 +0100
,,,,13,1,1,,,,,blau,blue,b,1,b,1,1.6185495,None,,,,,,,,,,,,,1,1,13,6,,,,,92.6339008,,,,,,,,,,,,,,,,,92.6187525,92.7336295,93.5346282,93.5187114,,,,,,,,,,,,,,,,93.5240218,93.5346282,93.5346282,95.1705134,b,1,1.6185495,None,95.1713272,95.1857492,96.1707817,96.1864586,,,,,,,,,,,,,,,,,,,sub-179,1,2025-03-12_15h31.22.838,stroop_test,04.02.2024,60.04505782,2025-03-12 15h31.33.668051 +0100
,,,,14,2,1,,,,,blau,blue,b,1,b,1,1.1128154,None,,,,,,,,,,,,,1,2,14,5,,,,,96.1864586,,,,,,,,,,,,,,,,,96.1712128,96.5199394,97.3204279,97.3048854,,,,,,,,,,,,,,,,97.3055784,97.3204279,97.3204279,98.4399484,b,1,1.1128154,None,98.4407059,98.4544558,99.4394646,99.4552373,,,,,,,,,,,,,,,,,,,sub-179,1,2025-03-12_15h31.22.838,stroop_test,04.02.2024,60.04505782,2025-03-12 15h31.33.668051 +0100
,,,,15,3,1,,,,,rot,red,r,1,r,1,0.9922201,None,,,,,,,,,,,,,1,3,15,1,,,,,99.4552373,,,,,,,,,,,,,,,,,99.4398956,100.6391848,101.4399659,101.4241698,,,,,,,,,,,,,,,,101.4295407,101.4399659,101.4399659,102.4422738,r,1,0.9922201,None,102.4430811,102.4570136,103.442544,103.4578128,,,,,,,,,,,,,,,,,,,sub-179,1,2025-03-12_15h31.22.838,stroop_test,04.02.2024,60.04505782,2025-03-12 15h31.33.668051 +0100
,,,,16,4,1,,,,,rot,red,r,1,r,1,0.8207602,None,,,,,,,,,,,,,1,4,16,0,,,,,103.4578128,,,,,,,,,,,,,,,,,103.4430901,103.5413429,104.3417697,104.3258813,,,,,,,,,,,,,,,,104.3266438,104.3417697,104.3417697,105.1775839,r,1,0.8207602,None,105.178599,105.1923557,106.1776806,106.1932665,,,,,,,,,,,,,,,,,,,sub-179,1,2025-03-12_15h31.22.838,stroop_test,04.02.2024,60.04505782,2025-03-12 15h31.33.668051 +0100
,,,,17,5,1,,,,,gelb,yellow,g,1,g,1,0.7271697,None,,,,,,,,,,,,,1,5,17,10,,,,,106.1932665,,,,,,,,,,,,,,,,,106.1781167,106.2767584,107.0770819,107.0614358,,,,,,,,,,,,,,,,107.0670586,107.0770819,107.0770819,107.8124958,g,1,0.7271697,None,107.8132744,107.8275292,108.8128513,108.8282856,,,,,,,,,,,,,,,,,,,sub-179,1,2025-03-12_15h31.22.838,stroop_test,04.02.2024,60.04505782,2025-03-12 15h31.33.668051 +0100
,,,,18,6,1,,,,,rot,blue,b,0,b,1,1.001074,None,,,,,,,,,,,,,1,6,18,2,,,,,108.8282856,,,,,,,,,,,,,,,,,108.8133179,109.6125237,110.4132257,110.397057,,,,,,,,,,,,,,,,110.4037579,110.4132257,110.4132257,111.4318026,b,1,1.001074,None,111.4324841,111.4465949,112.4317619,112.4472459,,,,,,,,,,,,,,,,,,,sub-179,1,2025-03-12_15h31.22.838,stroop_test,04.02.2024,60.04505782,2025-03-12 15h31.33.668051 +0100
,,,,19,7,1,,,,,gelb,red,r,0,g,0,1.1459207,None,,,,,,,,,,,,,1,7,19,8,,,,,112.4472459,,,,,,,,,,,,,,,,,112.4322485,112.5477532,113.3484888,113.3323685,,,,,,,,,,,,,,,,113.3380345,113.3484888,113.3484888,114.5005384,g,0,1.1459207,None,114.5080583,114.5201238,115.5163595,,,,,,,,,,,,,,,,,,,,sub-179,1,2025-03-12_15h31.22.838,stroop_test,04.02.2024,60.04505782,2025-03-12 15h31.33.668051 +0100
,,,,20,8,1,,,,,blau,red,r,0,r,1,1.3536141,None,,,,,,,,,,,,,1,8,20,4,,,,,115.5326734,,,,,,,,,,,,,,,,,115.5171965,115.8496154,116.6505319,116.6349128,,,,,,,,,,,,,,,,116.6402301,116.6505319,116.6505319,118.0196264,r,1,1.3536141,None,118.0282542,118.0400262,119.0354752,,,,,,,,,,,,,,,,,,,,sub-179,1,2025-03-12_15h31.22.838,stroop_test,04.02.2024,60.04505782,2025-03-12 15h31.33.668051 +0100
,,,,21,9,1,,,,,gelb,blue,b,0,b,1,2.0347999,None,,,,,,,,,,,,,1,9,21,9,,,,,119.051936,,,,,,,,,,,,,,,,,119.0359315,119.1186298,119.9188926,119.9036648,,,,,,,,,,,,,,,,119.9091481,119.9188926,119.9188926,121.9567258,b,1,2.0347999,None,121.9574383,121.9705191,122.9554899,122.9710206,,,,,,,,,,,,,,,,,,,sub-179,1,2025-03-12_15h31.22.838,stroop_test,04.02.2024,60.04505782,2025-03-12 15h31.33.668051 +0100
,,,,22,10,1,,,,,gelb,yellow,g,1,g,1,1.5805731,None,,,,,,,,,,,,,1,10,22,11,,,,,122.9710206,,,,,,,,,,,,,,,,,122.9559214,124.172373,124.972863,124.9568607,,,,,,,,,,,,,,,,124.9575435,124.972863,124.972863,126.5589117,g,1,1.5805731,None,126.559596,126.573825,127.5594923,127.5743601,,,,,,,,,,,,,,,,,,,sub-179,1,2025-03-12_15h31.22.838,stroop_test,04.02.2024,60.04505782,2025-03-12 15h31.33.668051 +0100
,,,,23,11,1,,,,,blau,yellow,g,0,g,1,0.8440262,None,,,,,,,,,,,,,1,11,23,7,,,,,127.5743601,,,,,,,,,,,,,,,,,127.5600185,127.9080791,128.710067,128.6927937,,,,,,,,,,,,,,,,128.7033,128.710067,128.710067,129.5609619,g,1,0.8440262,None,129.5617338,129.5762221,130.5610169,130.5768974,,,,,,,,,,,,,,,,,,,sub-179,1,2025-03-12_15h31.22.838,stroop_test,04.02.2024,60.04505782,2025-03-12 15h31.33.668051 +0100
,,,,,,,,,,,,,,,,,,,,,,,,,,,,,,,,,,,,,,,,,,,,,,,,,,,,,,,,,,,,,,,,,,,,,,,,,,,,,,,,,,,,,,,130.5612341,130.5768974,130.5768974,137.4496654,space,6.867852,None,,,,,,,,,,,,sub-179,1,2025-03-12_15h31.22.838,stroop_test,04.02.2024,60.04505782,2025-03-12 15h31.33.668051 +0100
,,,,0,0,0,,,,,,,,,,,,,gelb,blue,b,0,b,1,1.007672,None,,,,,,,,,0,0,0,9,137.5547009,,,,,,,,,,,,,,,,,137.550727,138.2650252,139.0659527,139.0496788,,,,,,,,,,,,,,,,,,,,,,,,,,,,,,,,,,,139.0553183,139.0659527,139.0659527,140.0856028,b,1,1.007672,None,,,,sub-179,1,2025-03-12_15h31.22.838,stroop_test,04.02.2024,60.04505782,2025-03-12 15h31.33.668051 +0100
,,,,1,1,0,,,,,,,,,,,,,rot,blue,b,0,b,1,1.4412131,None,,,,,,,,,0,1,1,2,140.0998608,,,,,,,,,,,,,,,,,140.0863277,140.9001766,141.7024716,141.6854092,,,,,,,,,,,,,,,,,,,,,,,,,,,,,,,,,,,141.6924199,141.7024716,141.7024716,143.154075,b,1,1.4412131,None,,,,sub-179,1,2025-03-12_15h31.22.838,stroop_test,04.02.2024,60.04505782,2025-03-12 15h31.33.668051 +0100
,,,,2,2,0,,,,,,,,,,,,,blau,yellow,g,0,g,1,1.5643284,None,,,,,,,,,0,2,2,7,143.1686788,,,,,,,,,,,,,,,,,143.1546681,143.5190783,144.3194171,144.3037137,,,,,,,,,,,,,,,,,,,,,,,,,,,,,,,,,,,144.3096191,144.3194171,144.3194171,145.8887709,g,1,1.5643284,None,,,,sub-179,1,2025-03-12_15h31.22.838,stroop_test,04.02.2024,60.04505782,2025-03-12 15h31.33.668051 +0100
,,,,3,3,0,,,,,,,,,,,,,rot,yellow,g,0,g,1,1.3790394,None,,,,,,,,,0,3,3,3,145.9039617,,,,,,,,,,,,,,,,,145.8892703,146.2539342,147.0548068,147.0388139,,,,,,,,,,,,,,,,,,,,,,,,,,,,,,,,,,,147.0447297,147.0548068,147.0548068,148.4408251,g,1,1.3790394,None,,,,sub-179,1,2025-03-12_15h31.22.838,stroop_test,04.02.2024,60.04505782,2025-03-12 15h31.33.668051 +0100
,,,,4,4,0,,,,,,,,,,,,,rot,red,r,1,r,1,0.5179238,None,,,,,,,,,0,4,4,1,148.455062,,,,,,,,,,,,,,,,,148.441333,148.555762,149.3563734,149.3404331,,,,,,,,,,,,,,,,,,,,,,,,,,,,,,,,,,,149.3411244,149.3563734,149.3563734,149.891411,r,1,0.5179238,None,,,,sub-179,1,2025-03-12_15h31.22.838,stroop_test,04.02.2024,60.04505782,2025-03-12 15h31.33.668051 +0100
,,,,5,5,0,,,,,,,,,,,,,blau,red,r,0,r,1,1.1968198,None,,,,,,,,,0,5,5,4,149.9062234,,,,,,,,,,,,,,,,,149.8919557,150.7066492,151.5074472,151.4919809,,,,,,,,,,,,,,,,,,,,,,,,,,,,,,,,,,,151.4971968,151.5074472,151.5074472,152.7097691,r,1,1.1968198,None,,,,sub-179,1,2025-03-12_15h31.22.838,stroop_test,04.02.2024,60.04505782,2025-03-12 15h31.33.668051 +0100
,,,,6,6,0,,,,,,,,,,,,,rot,red,r,1,r,1,0.8241167,None,,,,,,,,,0,6,6,0,152.7252103,,,,,,,,,,,,,,,,,152.71031,153.9094362,154.7099132,154.6943349,,,,,,,,,,,,,,,,,,,,,,,,,,,,,,,,,,,154.7001048,154.7099132,154.7099132,155.5456622,r,1,0.8241167,None,,,,sub-179,1,2025-03-12_15h31.22.838,stroop_test,04.02.2024,60.04505782,2025-03-12 15h31.33.668051 +0100
,,,,7,7,0,,,,,,,,,,,,,blau,blue,b,1,b,1,0.7227059,None,,,,,,,,,0,7,7,6,155.5604583,,,,,,,,,,,,,,,,,155.5461639,155.910612,156.7111674,156.695651,,,,,,,,,,,,,,,,,,,,,,,,,,,,,,,,,,,156.7007504,156.7111674,156.7111674,157.4469084,b,1,0.7227059,None,,,,sub-179,1,2025-03-12_15h31.22.838,stroop_test,04.02.2024,60.04505782,2025-03-12 15h31.33.668051 +0100
,,,,8,8,0,,,,,,,,,,,,,blau,blue,b,1,b,1,0.7706978,None,,,,,,,,,0,8,8,5,157.4619174,,,,,,,,,,,,,,,,,157.4474188,157.8119513,158.6125604,158.5966408,,,,,,,,,,,,,,,,,,,,,,,,,,,,,,,,,,,158.5974315,158.6125604,158.6125604,159.3982732,b,1,0.7706978,None,,,,sub-179,1,2025-03-12_15h31.22.838,stroop_test,04.02.2024,60.04505782,2025-03-12 15h31.33.668051 +0100
,,,,9,9,0,,,,,,,,,,,,,gelb,yellow,g,1,g,1,1.0498428,None,,,,,,,,,0,9,9,10,159.4132433,,,,,,,,,,,,,,,,,159.3988308,160.2135655,161.0139511,160.9985181,,,,,,,,,,,,,,,,,,,,,,,,,,,,,,,,,,,161.0042421,161.0139511,161.0139511,162.0670151,g,1,1.0498428,None,,,,sub-179,1,2025-03-12_15h31.22.838,stroop_test,04.02.2024,60.04505782,2025-03-12 15h31.33.668051 +0100
,,,,10,10,0,,,,,,,,,,,,,gelb,red,r,0,r,1,1.3914552,None,,,,,,,,,0,10,10,8,162.0813638,,,,,,,,,,,,,,,,,162.0675144,162.8819145,163.6827536,163.6670694,,,,,,,,,,,,,,,,,,,,,,,,,,,,,,,,,,,163.6677621,163.6827536,163.6827536,165.0855255,r,1,1.3914552,None,,,,sub-179,1,2025-03-12_15h31.22.838,stroop_test,04.02.2024,60.04505782,2025-03-12 15h31.33.668051 +0100
,,,,11,11,0,,,,,,,,,,,,,gelb,yellow,g,1,g,1,1.313258,None,,,,,,,,,0,11,11,11,165.1003631,,,,,,,,,,,,,,,,,165.086128,165.4506859,166.2511562,166.2352149,,,,,,,,,,,,,,,,,,,,,,,,,,,,,,,,,,,166.2359832,166.2511562,166.2511562,167.5702404,g,1,1.313258,None,,,,sub-179,1,2025-03-12_15h31.22.838,stroop_test,04.02.2024,60.04505782,2025-03-12 15h31.33.668051 +0100
,,,,12,0,1,,,,,,,,,,,,,rot,red,r,1,r,1,0.6383158,None,,,,,,,,,1,0,12,0,167.585409,,,,,,,,,,,,,,,,,167.5707415,167.6854739,168.4857238,168.4708847,,,,,,,,,,,,,,,,,,,,,,,,,,,,,,,,,,,168.4759476,168.4857238,168.4857238,169.1380853,r,1,0.6383158,None,,,,sub-179,1,2025-03-12_15h31.22.838,stroop_test,04.02.2024,60.04505782,2025-03-12 15h31.33.668051 +0100
,,,,13,1,1,,,,,,,,,,,,,gelb,blue,b,0,b,1,1.1295426,None,,,,,,,,,1,1,13,9,169.1527998,,,,,,,,,,,,,,,,,169.1386293,169.9537555,170.7541542,170.7381923,,,,,,,,,,,,,,,,,,,,,,,,,,,,,,,,,,,170.7436664,170.7541542,170.7541542,171.889809,b,1,1.1295426,None,,,,sub-179,1,2025-03-12_15h31.22.838,stroop_test,04.02.2024,60.04505782,2025-03-12 15h31.33.668051 +0100
,,,,14,2,1,,,,,,,,,,,,,rot,red,r,1,r,1,1.3594261,None,,,,,,,,,1,2,14,1,171.9047269,,,,,,,,,,,,,,,,,171.8903448,172.0048658,172.8052755,172.7897678,,,,,,,,,,,,,,,,,,,,,,,,,,,,,,,,,,,172.7954603,172.8052755,172.8052755,174.1750527,r,1,1.3594261,None,,,,sub-179,1,2025-03-12_15h31.22.838,stroop_test,04.02.2024,60.04505782,2025-03-12 15h31.33.668051 +0100
,,,,15,3,1,,,,,,,,,,,,,blau,yellow,g,0,g,1,2.2432969,None,,,,,,,,,1,3,15,7,174.1898297,,,,,,,,,,,,,,,,,174.1757191,174.5400426,175.3404197,175.3247559,,,,,,,,,,,,,,,,,,,,,,,,,,,,,,,,,,,175.329857,175.3404197,175.3404197,177.5940965,g,1,2.2432969,None,,,,sub-179,1,2025-03-12_15h31.22.838,stroop_test,04.02.2024,60.04505782,2025-03-12 15h31.33.668051 +0100
,,,,16,4,1,,,,,,,,,,,,,rot,blue,b,0,b,1,0.9645319,None,,,,,,,,,1,4,16,2,177.6087944,,,,,,,,,,,,,,,,,177.5947501,177.7088268,178.5093357,178.49396,,,,,,,,,,,,,,,,,,,,,,,,,,,,,,,,,,,178.4994812,178.5093357,178.5093357,179.4785509,b,1,0.9645319,None,,,,sub-179,1,2025-03-12_15h31.22.838,stroop_test,04.02.2024,60.04505782,2025-03-12 15h31.33.668051 +0100
,,,,17,5,1,,,,,,,,,,,,,gelb,yellow,g,1,g,1,1.0268906,None,,,,,,,,,1,5,17,10,179.4934309,,,,,,,,,,,,,,,,,179.4791576,180.2936207,181.0963289,181.0794013,,,,,,,,,,,,,,,,,,,,,,,,,,,,,,,,,,,181.0867764,181.0963289,181.0963289,182.1305951,g,1,1.0268906,None,,,,sub-179,1,2025-03-12_15h31.22.838,stroop_test,04.02.2024,60.04505782,2025-03-12 15h31.33.668051 +0100
,,,,18,6,1,,,,,,,,,,,,,gelb,yellow,g,1,g,1,1.1475904,None,,,,,,,,,1,6,18,11,182.1453623,,,,,,,,,,,,,,,,,182.1311318,182.2453525,183.0462479,183.0305382,,,,,,,,,,,,,,,,,,,,,,,,,,,,,,,,,,,183.031323,183.0462479,183.0462479,184.1985367,g,1,1.1475904,None,,,,sub-179,1,2025-03-12_15h31.22.838,stroop_test,04.02.2024,60.04505782,2025-03-12 15h31.33.668051 +0100
,,,,19,7,1,,,,,,,,,,,,,blau,blue,b,1,b,1,0.649119,None,,,,,,,,,1,7,19,6,184.2135559,,,,,,,,,,,,,,,,,184.1991216,185.014033,185.8147795,185.7987831,,,,,,,,,,,,,,,,,,,,,,,,,,,,,,,,,,,185.8039443,185.8147795,185.8147795,186.4666821,b,1,0.649119,None,,,,sub-179,1,2025-03-12_15h31.22.838,stroop_test,04.02.2024,60.04505782,2025-03-12 15h31.33.668051 +0100
,,,,20,8,1,,,,,,,,,,,,,blau,red,r,0,r,1,0.8018969,None,,,,,,,,,1,8,20,4,186.481307,,,,,,,,,,,,,,,,,186.4673852,186.8318824,187.6325239,187.6165629,,,,,,,,,,,,,,,,,,,,,,,,,,,,,,,,,,,187.6172814,187.6325239,187.6325239,188.4512049,r,1,0.8018969,None,,,,sub-179,1,2025-03-12_15h31.22.838,stroop_test,04.02.2024,60.04505782,2025-03-12 15h31.33.668051 +0100
,,,,21,9,1,,,,,,,,,,,,,gelb,red,r,0,r,1,1.1668433,None,,,,,,,,,1,9,21,8,188.4664125,,,,,,,,,,,,,,,,,188.451965,188.5661074,189.3667424,189.3510632,,,,,,,,,,,,,,,,,,,,,,,,,,,,,,,,,,,189.3566877,189.3667424,189.3667424,190.5363247,r,1,1.1668433,None,,,,sub-179,1,2025-03-12_15h31.22.838,stroop_test,04.02.2024,60.04505782,2025-03-12 15h31.33.668051 +0100
,,,,22,10,1,,,,,,,,,,,,,rot,yellow,g,0,r,0,1.2716246,None,,,,,,,,,1,10,22,3,190.5515288,,,,,,,,,,,,,,,,,190.537019,191.7520217,192.5525103,192.5370748,,,,,,,,,,,,,,,,,,,,,,,,,,,,,,,,,,,192.5428432,192.5525103,192.5525103,193.838257,r,0,1.2716246,None,,,,sub-179,1,2025-03-12_15h31.22.838,stroop_test,04.02.2024,60.04505782,2025-03-12 15h31.33.668051 +0100
,,,,23,11,1,,,,,,,,,,,,,blau,blue,b,1,b,1,0.7801802,None,,,,,,,,,1,11,23,5,193.8534736,,,,,,,,,,,,,,,,,193.8388216,194.2035809,195.0039243,194.9890382,,,,,,,,,,,,,,,,,,,,,,,,,,,,,,,,,,,194.9939136,195.0039243,195.0039243,195.7899575,b,1,0.7801802,None,,,,sub-179,1,2025-03-12_15h31.22.838,stroop_test,04.02.2024,60.04505782,2025-03-12 15h31.33.668051 +0100
,,,,24,0,2,,,,,,,,,,,,,rot,blue,b,0,b,1,1.5482855,None,,,,,,,,,2,0,24,2,195.8044931,,,,,,,,,,,,,,,,,195.790502,197.0053371,197.8058208,197.7905699,,,,,,,,,,,,,,,,,,,,,,,,,,,,,,,,,,,197.796844,197.8058208,197.8058208,199.3590639,b,1,1.5482855,None,,,,sub-179,1,2025-03-12_15h31.22.838,stroop_test,04.02.2024,60.04505782,2025-03-12 15h31.33.668051 +0100
,,,,25,1,2,,,,,,,,,,,,,blau,blue,b,1,b,1,1.0086478,None,,,,,,,,,2,1,25,5,199.3734919,,,,,,,,,,,,,,,,,199.3595623,200.1742345,200.9751427,200.9595556,,,,,,,,,,,,,,,,,,,,,,,,,,,,,,,,,,,200.9645273,200.9751427,200.9751427,201.994132,b,1,1.0086478,None,,,,sub-179,1,2025-03-12_15h31.22.838,stroop_test,04.02.2024,60.04505782,2025-03-12 15h31.33.668051 +0100
,,,,26,2,2,,,,,,,,,,,,,blau,blue,b,1,b,1,0.6037309,None,,,,,,,,,2,2,26,6,202.0090697,,,,,,,,,,,,,,,,,201.994634,202.3594581,203.1596242,203.1444833,,,,,,,,,,,,,,,,,,,,,,,,,,,,,,,,,,,203.1452043,203.1596242,203.1596242,203.7785166,b,1,0.6037309,None,,,,sub-179,1,2025-03-12_15h31.22.838,stroop_test,04.02.2024,60.04505782,2025-03-12 15h31.33.668051 +0100
,,,,27,3,2,,,,,,,,,,,,,rot,red,r,1,r,1,0.5797974,None,,,,,,,,,2,3,27,0,203.7936816,,,,,,,,,,,,,,,,,203.7790592,204.5943023,205.3946448,205.3790299,,,,,,,,,,,,,,,,,,,,,,,,,,,,,,,,,,,205.3847018,205.3946448,205.3946448,205.9808576,r,1,0.5797974,None,,,,sub-179,1,2025-03-12_15h31.22.838,stroop_test,04.02.2024,60.04505782,2025-03-12 15h31.33.668051 +0100
,,,,28,4,2,,,,,,,,,,,,,blau,yellow,g,0,g,1,0.7273426,None,,,,,,,,,2,4,28,7,205.9947544,,,,,,,,,,,,,,,,,205.9816724,207.1958109,207.9964074,207.9808822,,,,,,,,,,,,,,,,,,,,,,,,,,,,,,,,,,,207.9854303,207.9964074,207.9964074,208.7321324,g,1,0.7273426,None,,,,sub-179,1,2025-03-12_15h31.22.838,stroop_test,04.02.2024,60.04505782,2025-03-12 15h31.33.668051 +0100
,,,,29,5,2,,,,,,,,,,,,,gelb,blue,b,0,b,1,1.7837339,None,,,,,,,,,2,5,29,9,208.7475927,,,,,,,,,,,,,,,,,208.7325389,208.8471476,209.6496104,209.6321929,,,,,,,,,,,,,,,,,,,,,,,,,,,,,,,,,,,209.6394121,209.6496104,209.6496104,211.4507135,b,1,1.7837339,None,,,,sub-179,1,2025-03-12_15h31.22.838,stroop_test,04.02.2024,60.04505782,2025-03-12 15h31.33.668051 +0100
,,,,30,6,2,,,,,,,,,,,,,gelb,yellow,g,1,g,1,0.9479644,None,,,,,,,,,2,6,30,11,211.4652318,,,,,,,,,,,,,,,,,211.4512839,211.5654896,212.3657365,212.3501091,,,,,,,,,,,,,,,,,,,,,,,,,,,,,,,,,,,212.3507704,212.3657365,212.3657365,213.3183338,g,1,0.9479644,None,,,,sub-179,1,2025-03-12_15h31.22.838,stroop_test,04.02.2024,60.04505782,2025-03-12 15h31.33.668051 +0100
,,,,31,7,2,,,,,,,,,,,,,gelb,yellow,g,1,g,1,0.9673586,None,,,,,,,,,2,7,31,10,213.333225,,,,,,,,,,,,,,,,,213.3187307,214.1173838,214.9173539,214.9016195,,,,,,,,,,,,,,,,,,,,,,,,,,,,,,,,,,,214.9019864,214.9173539,214.9173539,215.8877803,g,1,0.9673586,None,,,,sub-179,1,2025-03-12_15h31.22.838,stroop_test,04.02.2024,60.04505782,2025-03-12 15h31.33.668051 +0100
,,,,32,8,2,,,,,,,,,,,,,gelb,red,r,0,r,1,0.693475,None,,,,,,,,,2,8,32,8,215.9017749,,,,,,,,,,,,,,,,,215.8882569,216.0018359,216.8023848,216.7870205,,,,,,,,,,,,,,,,,,,,,,,,,,,,,,,,,,,216.787741,216.8023848,216.8023848,217.5048,r,1,0.693475,None,,,,sub-179,1,2025-03-12_15h31.22.838,stroop_test,04.02.2024,60.04505782,2025-03-12 15h31.33.668051 +0100
,,,,33,9,2,,,,,,,,,,,,,rot,yellow,g,0,g,1,1.9936545,None,,,,,,,,,2,9,33,3,217.5193472,,,,,,,,,,,,,,,,,217.5052735,218.3201459,219.1205901,219.1048808,,,,,,,,,,,,,,,,,,,,,,,,,,,,,,,,,,,219.1090165,219.1205901,219.1205901,221.1236268,g,1,1.9936545,None,,,,sub-179,1,2025-03-12_15h31.22.838,stroop_test,04.02.2024,60.04505782,2025-03-12 15h31.33.668051 +0100
,,,,34,10,2,,,,,,,,,,,,,blau,red,r,0,r,1,1.3850968,None,,,,,,,,,2,10,34,4,221.1386798,,,,,,,,,,,,,,,,,221.1241801,221.489146,222.289739,222.2736352,,,,,,,,,,,,,,,,,,,,,,,,,,,,,,,,,,,222.2788655,222.289739,222.289739,223.6917204,r,1,1.3850968,None,,,,sub-179,1,2025-03-12_15h31.22.838,stroop_test,04.02.2024,60.04505782,2025-03-12 15h31.33.668051 +0100
,,,,35,11,2,,,,,,,,,,,,,rot,red,r,1,r,1,0.7641622,None,,,,,,,,,2,11,35,1,223.7072958,,,,,,,,,,,,,,,,,223.6923189,223.7906713,224.5908447,224.5754653,,,,,,,,,,,,,,,,,,,,,,,,,,,,,,,,,,,224.5812611,224.5908447,224.5908447,225.3601721,r,1,0.7641622,None,,,,sub-179,1,2025-03-12_15h31.22.838,stroop_test,04.02.2024,60.04505782,2025-03-12 15h31.33.668051 +0100
,,,,36,0,3,,,,,,,,,,,,,blau,red,r,0,r,1,0.6496821,None,,,,,,,,,3,0,36,4,225.3750009,,,,,,,,,,,,,,,,,225.3607436,226.5757274,227.3762226,227.3607834,,,,,,,,,,,,,,,,,,,,,,,,,,,,,,,,,,,227.367615,227.3762226,227.3762226,228.0287864,r,1,0.6496821,None,,,,sub-179,1,2025-03-12_15h31.22.838,stroop_test,04.02.2024,60.04505782,2025-03-12 15h31.33.668051 +0100
,,,,37,1,3,,,,,,,,,,,,,gelb,red,r,0,r,1,0.8701692,None,,,,,,,,,3,1,37,8,228.0432695,,,,,,,,,,,,,,,,,228.0293278,229.2441715,230.0446205,230.0290591,,,,,,,,,,,,,,,,,,,,,,,,,,,,,,,,,,,230.0350282,230.0446205,230.0446205,230.9304773,r,1,0.8701692,None,,,,sub-179,1,2025-03-12_15h31.22.838,stroop_test,04.02.2024,60.04505782,2025-03-12 15h31.33.668051 +0100
,,,,38,2,3,,,,,,,,,,,,,blau,yellow,g,0,g,1,1.3780185,None,,,,,,,,,3,2,38,7,230.9452019,,,,,,,,,,,,,,,,,230.9310576,231.7462731,232.5464064,232.5310876,,,,,,,,,,,,,,,,,,,,,,,,,,,,,,,,,,,232.5367762,232.5464064,232.5464064,233.9324862,g,1,1.3780185,None,,,,sub-179,1,2025-03-12_15h31.22.838,stroop_test,04.02.2024,60.04505782,2025-03-12 15h31.33.668051 +0100
,,,,39,3,3,,,,,,,,,,,,,rot,red,r,1,r,1,0.5656084,None,,,,,,,,,3,3,39,1,233.9474227,,,,,,,,,,,,,,,,,233.9329941,235.1484548,235.9490967,235.9330334,,,,,,,,,,,,,,,,,,,,,,,,,,,,,,,,,,,235.9381991,235.9490967,235.9490967,236.5181762,r,1,0.5656084,None,,,,sub-179,1,2025-03-12_15h31.22.838,stroop_test,04.02.2024,60.04505782,2025-03-12 15h31.33.668051 +0100
,,,,40,4,3,,,,,,,,,,,,,rot,blue,b,0,b,1,1.411733,None,,,,,,,,,3,4,40,2,236.5325308,,,,,,,,,,,,,,,,,236.5187402,236.8830508,237.6833931,237.66774,,,,,,,,,,,,,,,,,,,,,,,,,,,,,,,,,,,237.6683795,237.6833931,237.6833931,239.1030898,b,1,1.411733,None,,,,sub-179,1,2025-03-12_15h31.22.838,stroop_test,04.02.2024,60.04505782,2025-03-12 15h31.33.668051 +0100
,,,,41,5,3,,,,,,,,,,,,,gelb,blue,b,0,b,1,0.9359941,None,,,,,,,,,3,5,41,9,239.1178437,,,,,,,,,,,,,,,,,239.103584,239.4677963,240.2683125,240.2531576,,,,,,,,,,,,,,,,,,,,,,,,,,,,,,,,,,,240.2587481,240.2683125,240.2683125,241.2210316,b,1,0.9359941,None,,,,sub-179,1,2025-03-12_15h31.22.838,stroop_test,04.02.2024,60.04505782,2025-03-12 15h31.33.668051 +0100
,,,,42,6,3,,,,,,,,,,,,,gelb,yellow,g,1,g,1,1.1281004,None,,,,,,,,,3,6,42,10,241.235852,,,,,,,,,,,,,,,,,241.2215435,241.5859908,242.3866779,242.3715049,,,,,,,,,,,,,,,,,,,,,,,,,,,,,,,,,,,242.3722519,242.3866779,242.3866779,243.5227417,g,1,1.1281004,None,,,,sub-179,1,2025-03-12_15h31.22.838,stroop_test,04.02.2024,60.04505782,2025-03-12 15h31.33.668051 +0100
,,,,43,7,3,,,,,,,,,,,,,blau,blue,b,1,b,1,0.9058879,None,,,,,,,,,3,7,43,6,243.5373415,,,,,,,,,,,,,,,,,243.5232404,244.3377958,245.1386209,245.1229613,,,,,,,,,,,,,,,,,,,,,,,,,,,,,,,,,,,245.1277469,245.1386209,245.1386209,246.057429,b,1,0.9058879,None,,,,sub-179,1,2025-03-12_15h31.22.838,stroop_test,04.02.2024,60.04505782,2025-03-12 15h31.33.668051 +0100
,,,,44,8,3,,,,,,,,,,,,,blau,blue,b,1,b,1,0.8613599,None,,,,,,,,,3,8,44,5,246.0723417,,,,,,,,,,,,,,,,,246.0579965,246.1728469,246.9730178,246.9575348,,,,,,,,,,,,,,,,,,,,,,,,,,,,,,,,,,,246.958198,246.9730178,246.9730178,247.8428113,b,1,0.8613599,None,,,,sub-179,1,2025-03-12_15h31.22.838,stroop_test,04.02.2024,60.04505782,2025-03-12 15h31.33.668051 +0100
,,,,45,9,3,,,,,,,,,,,,,rot,red,r,1,r,1,0.5763767,None,,,,,,,,,3,9,45,0,247.8574074,,,,,,,,,,,,,,,,,247.843337,248.6575872,249.4585048,249.4427846,,,,,,,,,,,,,,,,,,,,,,,,,,,,,,,,,,,249.4492271,249.4585048,249.4585048,250.0434143,r,1,0.5763767,None,,,,sub-179,1,2025-03-12_15h31.22.838,stroop_test,04.02.2024,60.04505782,2025-03-12 15h31.33.668051 +0100
,,,,46,10,3,,,,,,,,,,,,,gelb,yellow,g,1,g,1,1.3414404,None,,,,,,,,,3,10,46,11,250.0585961,,,,,,,,,,,,,,,,,250.0438955,250.8425012,251.6431084,251.6275387,,,,,,,,,,,,,,,,,,,,,,,,,,,,,,,,,,,251.6332204,251.6431084,251.6431084,252.9957778,g,1,1.3414404,None,,,,sub-179,1,2025-03-12_15h31.22.838,stroop_test,04.02.2024,60.04505782,2025-03-12 15h31.33.668051 +0100
,,,,47,11,3,,,,,,,,,,,,,rot,yellow,g,0,g,1,1.3140152,None,,,,,,,,,3,11,47,3,253.0109488,,,,,,,,,,,,,,,,,252.9964803,253.3610307,254.1615911,254.1459546,,,,,,,,,,,,,,,,,,,,,,,,,,,,,,,,,,,254.151358,254.1615911,254.1615911,255.480664,g,1,1.3140152,None,,,,sub-179,1,2025-03-12_15h31.22.838,stroop_test,04.02.2024,60.04505782,2025-03-12 15h31.33.668051 +0100
,,,,48,0,4,,,,,,,,,,,,,gelb,blue,b,0,b,1,1.2847171,None,,,,,,,,,4,0,48,9,255.4959706,,,,,,,,,,,,,,,,,255.4812089,256.6796921,257.4806696,257.464873,,,,,,,,,,,,,,,,,,,,,,,,,,,,,,,,,,,257.4712904,257.4806696,257.4806696,258.7826746,b,1,1.2847171,None,,,,sub-179,1,2025-03-12_15h31.22.838,stroop_test,04.02.2024,60.04505782,2025-03-12 15h31.33.668051 +0100
,,,,49,1,4,,,,,,,,,,,,,gelb,red,r,0,r,1,0.6363266,None,,,,,,,,,4,1,49,8,258.7977895,,,,,,,,,,,,,,,,,258.7832649,259.1480781,259.9484253,259.9330942,,,,,,,,,,,,,,,,,,,,,,,,,,,,,,,,,,,259.9337461,259.9484253,259.9484253,260.6010909,r,1,0.6363266,None,,,,sub-179,1,2025-03-12_15h31.22.838,stroop_test,04.02.2024,60.04505782,2025-03-12 15h31.33.668051 +0100
,,,,50,2,4,,,,,,,,,,,,,blau,yellow,g,0,g,1,0.9372112,None,,,,,,,,,4,2,50,7,260.6160205,,,,,,,,,,,,,,,,,260.6016761,261.8169831,262.6170143,262.6017953,,,,,,,,,,,,,,,,,,,,,,,,,,,,,,,,,,,262.6070817,262.6170143,262.6170143,263.5696208,g,1,0.9372112,None,,,,sub-179,1,2025-03-12_15h31.22.838,stroop_test,04.02.2024,60.04505782,2025-03-12 15h31.33.668051 +0100
,,,,51,3,4,,,,,,,,,,,,,rot,red,r,1,r,1,0.9391266,None,,,,,,,,,4,3,51,1,263.5843062,,,,,,,,,,,,,,,,,263.5701326,263.9346292,264.7362665,264.7201535,,,,,,,,,,,,,,,,,,,,,,,,,,,,,,,,,,,264.7260462,264.7362665,264.7362665,265.6881829,r,1,0.9391266,None,,,,sub-179,1,2025-03-12_15h31.22.838,stroop_test,04.02.2024,60.04505782,2025-03-12 15h31.33.668051 +0100
,,,,52,4,4,,,,,,,,,,,,,blau,blue,b,1,b,1,0.6206645,None,,,,,,,,,4,4,52,6,265.7030168,,,,,,,,,,,,,,,,,265.6888215,266.0532336,266.8536546,266.837694,,,,,,,,,,,,,,,,,,,,,,,,,,,,,,,,,,,266.8431796,266.8536546,266.8536546,267.489375,b,1,0.6206645,None,,,,sub-179,1,2025-03-12_15h31.22.838,stroop_test,04.02.2024,60.04505782,2025-03-12 15h31.33.668051 +0100
,,,,53,5,4,,,,,,,,,,,,,blau,red,r,0,r,1,1.5698106,None,,,,,,,,,4,5,53,4,267.5039084,,,,,,,,,,,,,,,,,267.4898749,267.6038878,268.4045343,268.3892157,,,,,,,,,,,,,,,,,,,,,,,,,,,,,,,,,,,268.3899695,268.4045343,268.4045343,269.9909787,r,1,1.5698106,None,,,,sub-179,1,2025-03-12_15h31.22.838,stroop_test,04.02.2024,60.04505782,2025-03-12 15h31.33.668051 +0100
,,,,54,6,4,,,,,,,,,,,,,rot,yellow,g,0,g,1,1.7186844,None,,,,,,,,,4,6,54,3,270.0055939,,,,,,,,,,,,,,,,,269.9915116,271.2063973,272.0067669,271.9907583,,,,,,,,,,,,,,,,,,,,,,,,,,,,,,,,,,,271.9937005,272.0067669,272.0067669,273.7285718,g,1,1.7186844,None,,,,sub-179,1,2025-03-12_15h31.22.838,stroop_test,04.02.2024,60.04505782,2025-03-12 15h31.33.668051 +0100
,,,,55,7,4,,,,,,,,,,,,,rot,red,r,1,r,1,0.8326763,None,,,,,,,,,4,7,55,0,273.7416871,,,,,,,,,,,,,,,,,273.7293172,273.841312,274.6421859,274.6262998,,,,,,,,,,,,,,,,,,,,,,,,,,,,,,,,,,,274.6270366,274.6421859,274.6421859,275.4781638,r,1,0.8326763,None,,,,sub-179,1,2025-03-12_15h31.22.838,stroop_test,04.02.2024,60.04505782,2025-03-12 15h31.33.668051 +0100
,,,,56,8,4,,,,,,,,,,,,,rot,blue,b,0,b,1,0.9880892,None,,,,,,,,,4,8,56,2,275.4926657,,,,,,,,,,,,,,,,,275.4787053,275.8265578,276.627187,276.6119938,,,,,,,,,,,,,,,,,,,,,,,,,,,,,,,,,,,276.6129723,276.627187,276.627187,277.6291759,b,1,0.9880892,None,,,,sub-179,1,2025-03-12_15h31.22.838,stroop_test,04.02.2024,60.04505782,2025-03-12 15h31.33.668051 +0100
,,,,57,9,4,,,,,,,,,,,,,gelb,yellow,g,1,g,1,0.6788415,None,,,,,,,,,4,9,57,10,277.6440074,,,,,,,,,,,,,,,,,277.6297334,278.4450856,279.2459735,279.2297506,,,,,,,,,,,,,,,,,,,,,,,,,,,,,,,,,,,279.2352221,279.2459735,279.2459735,279.9311991,g,1,0.6788415,None,,,,sub-179,1,2025-03-12_15h31.22.838,stroop_test,04.02.2024,60.04505782,2025-03-12 15h31.33.668051 +0100
,,,,58,10,4,,,,,,,,,,,,,gelb,yellow,g,1,g,1,0.687396,None,,,,,,,,,4,10,58,11,279.9456322,,,,,,,,,,,,,,,,,279.9317119,280.7460842,281.5470424,281.5311941,,,,,,,,,,,,,,,,,,,,,,,,,,,,,,,,,,,281.5319441,281.5470424,281.5470424,282.249092,g,1,0.687396,None,,,,sub-179,1,2025-03-12_15h31.22.838,stroop_test,04.02.2024,60.04505782,2025-03-12 15h31.33.668051 +0100
,,,,59,11,4,,,,,,,,,,,,,blau,blue,b,1,b,1,0.9993543,None,,,,,,,,,4,11,59,5,282.2639861,,,,,,,,,,,,,,,,,282.2494532,283.0644514,283.8653844,283.849743,,,,,,,,,,,,,,,,,,,,,,,,,,,,,,,,,,,283.8555439,283.8653844,283.8653844,284.8671353,b,1,0.9993543,None,,,,sub-179,1,2025-03-12_15h31.22.838,stroop_test,04.02.2024,60.04505782,2025-03-12 15h31.33.668051 +0100
,,,,60,0,5,,,,,,,,,,,,,gelb,red,r,0,r,1,2.032364,None,,,,,,,,,5,0,60,8,284.8823044,,,,,,,,,,,,,,,,,284.8675072,285.2326508,286.0332636,286.0170372,,,,,,,,,,,,,,,,,,,,,,,,,,,,,,,,,,,286.020414,286.0332636,286.0332636,288.0700909,r,1,2.032364,None,,,,sub-179,1,2025-03-12_15h31.22.838,stroop_test,04.02.2024,60.04505782,2025-03-12 15h31.33.668051 +0100
,,,,61,1,5,,,,,,,,,,,,,gelb,yellow,g,1,g,1,0.6777256,None,,,,,,,,,5,1,61,10,288.0847045,,,,,,,,,,,,,,,,,288.0706616,289.2855618,290.0863771,290.0706266,,,,,,,,,,,,,,,,,,,,,,,,,,,,,,,,,,,290.0712857,290.0863771,290.0863771,290.7715459,g,1,0.6777256,None,,,,sub-179,1,2025-03-12_15h31.22.838,stroop_test,04.02.2024,60.04505782,2025-03-12 15h31.33.668051 +0100
,,,,62,2,5,,,,,,,,,,,,,blau,red,r,0,r,1,1.0272637,None,,,,,,,,,5,2,62,4,290.7868571,,,,,,,,,,,,,,,,,290.772133,291.5873506,292.3879843,292.3723834,,,,,,,,,,,,,,,,,,,,,,,,,,,,,,,,,,,292.3779319,292.3879843,292.3879843,293.424225,r,1,1.0272637,None,,,,sub-179,1,2025-03-12_15h31.22.838,stroop_test,04.02.2024,60.04505782,2025-03-12 15h31.33.668051 +0100
,,,,63,3,5,,,,,,,,,,,,,blau,yellow,g,0,g,1,0.9058406,None,,,,,,,,,5,3,63,7,293.4386227,,,,,,,,,,,,,,,,,293.4247679,293.7886073,294.5894886,294.5737853,,,,,,,,,,,,,,,,,,,,,,,,,,,,,,,,,,,294.5745213,294.5894886,294.5894886,295.5083669,g,1,0.9058406,None,,,,sub-179,1,2025-03-12_15h31.22.838,stroop_test,04.02.2024,60.04505782,2025-03-12 15h31.33.668051 +0100
,,,,64,4,5,,,,,,,,,,,,,blau,blue,b,1,b,1,0.8717865,None,,,,,,,,,5,4,64,5,295.5230035,,,,,,,,,,,,,,,,,295.508891,295.6234803,296.423727,296.4084272,,,,,,,,,,,,,,,,,,,,,,,,,,,,,,,,,,,296.4092142,296.423727,296.423727,297.309564,b,1,0.8717865,None,,,,sub-179,1,2025-03-12_15h31.22.838,stroop_test,04.02.2024,60.04505782,2025-03-12 15h31.33.668051 +0100
,,,,65,5,5,,,,,,,,,,,,,rot,red,r,1,r,1,0.5994624,None,,,,,,,,,5,5,65,0,297.3246674,,,,,,,,,,,,,,,,,297.3102029,298.125156,298.9257039,298.9100761,,,,,,,,,,,,,,,,,,,,,,,,,,,,,,,,,,,298.9158581,298.9257039,298.9257039,299.5292509,r,1,0.5994624,None,,,,sub-179,1,2025-03-12_15h31.22.838,stroop_test,04.02.2024,60.04505782,2025-03-12 15h31.33.668051 +0100
,,,,66,6,5,,,,,,,,,,,,,rot,red,r,1,r,1,0.5512383,None,,,,,,,,,5,6,66,1,299.5427793,,,,,,,,,,,,,,,,,299.5299924,299.6425145,300.443492,300.4280362,,,,,,,,,,,,,,,,,,,,,,,,,,,,,,,,,,,300.428776,300.443492,300.443492,301.0117276,r,1,0.5512383,None,,,,sub-179,1,2025-03-12_15h31.22.838,stroop_test,04.02.2024,60.04505782,2025-03-12 15h31.33.668051 +0100
,,,,67,7,5,,,,,,,,,,,,,blau,blue,b,1,b,1,1.0370431,None,,,,,,,,,5,7,67,6,301.0271187,,,,,,,,,,,,,,,,,301.0122726,301.1268796,301.9277862,301.9115959,,,,,,,,,,,,,,,,,,,,,,,,,,,,,,,,,,,301.9172922,301.9277862,301.9277862,302.9806403,b,1,1.0370431,None,,,,sub-179,1,2025-03-12_15h31.22.838,stroop_test,04.02.2024,60.04505782,2025-03-12 15h31.33.668051 +0100
,,,,68,8,5,,,,,,,,,,,,,gelb,yellow,g,1,g,1,0.7074313,None,,,,,,,,,5,8,68,11,302.995078,,,,,,,,,,,,,,,,,302.9812201,304.1957145,304.9966662,304.9807498,,,,,,,,,,,,,,,,,,,,,,,,,,,,,,,,,,,304.986987,304.9966662,304.9966662,305.715029,g,1,0.7074313,None,,,,sub-179,1,2025-03-12_15h31.22.838,stroop_test,04.02.2024,60.04505782,2025-03-12 15h31.33.668051 +0100
,,,,69,9,5,,,,,,,,,,,,,rot,blue,b,0,b,1,1.7949286,None,,,,,,,,,5,9,69,2,305.7304029,,,,,,,,,,,,,,,,,305.7155655,305.8304828,306.6305369,306.6155008,,,,,,,,,,,,,,,,,,,,,,,,,,,,,,,,,,,306.6208409,306.6305369,306.6305369,308.4340245,b,1,1.7949286,None,,,,sub-179,1,2025-03-12_15h31.22.838,stroop_test,04.02.2024,60.04505782,2025-03-12 15h31.33.668051 +0100
,,,,70,10,5,,,,,,,,,,,,,rot,yellow,g,0,g,1,1.8652813,None,,,,,,,,,5,10,70,3,308.4486742,,,,,,,,,,,,,,,,,308.4346417,308.5489531,309.3492713,309.3337663,,,,,,,,,,,,,,,,,,,,,,,,,,,,,,,,,,,309.334447,309.3492713,309.3492713,311.2191556,g,1,1.8652813,None,,,,sub-179,1,2025-03-12_15h31.22.838,stroop_test,04.02.2024,60.04505782,2025-03-12 15h31.33.668051 +0100
,,,,71,11,5,,,,,,,,,,,,,gelb,blue,b,0,b,1,1.2504594,None,,,,,,,,,5,11,71,9,311.2342713,,,,,,,,,,,,,,,,,311.2197853,312.4348195,313.2355649,313.2199863,,,,,,,,,,,,,,,,,,,,,,,,,,,,,,,,,,,313.2257469,313.2355649,313.2355649,314.4891067,b,1,1.2504594,None,,,,sub-179,1,2025-03-12_15h31.22.838,stroop_test,04.02.2024,60.04505782,2025-03-12 15h31.33.668051 +0100
,,,,72,0,6,,,,,,,,,,,,,rot,blue,b,0,b,1,0.8603434,None,,,,,,,,,6,0,72,2,314.5026641,,,,,,,,,,,,,,,,,314.4896276,314.8531169,315.6539293,315.638313,,,,,,,,,,,,,,,,,,,,,,,,,,,,,,,,,,,315.6440515,315.6539293,315.6539293,316.5230662,b,1,0.8603434,None,,,,sub-179,1,2025-03-12_15h31.22.838,stroop_test,04.02.2024,60.04505782,2025-03-12 15h31.33.668051 +0100
,,,,73,1,6,,,,,,,,,,,,,gelb,yellow,g,1,g,1,0.5581884,None,,,,,,,,,6,1,73,10,316.5379262,,,,,,,,,,,,,,,,,316.523563,316.8875543,317.688224,317.6730321,,,,,,,,,,,,,,,,,,,,,,,,,,,,,,,,,,,317.68032,317.688224,317.688224,318.2574269,g,1,0.5581884,None,,,,sub-179,1,2025-03-12_15h31.22.838,stroop_test,04.02.2024,60.04505782,2025-03-12 15h31.33.668051 +0100
,,,,74,2,6,,,,,,,,,,,,,blau,blue,b,1,b,1,0.6626099,None,,,,,,,,,6,2,74,5,318.2719502,,,,,,,,,,,,,,,,,318.2579192,319.0729776,319.8734845,319.8578808,,,,,,,,,,,,,,,,,,,,,,,,,,,,,,,,,,,319.8628223,319.8734845,319.8734845,320.5425437,b,1,0.6626099,None,,,,sub-179,1,2025-03-12_15h31.22.838,stroop_test,04.02.2024,60.04505782,2025-03-12 15h31.33.668051 +0100
,,,,75,3,6,,,,,,,,,,,,,gelb,red,r,0,r,1,0.60732,None,,,,,,,,,6,3,75,8,320.5573104,,,,,,,,,,,,,,,,,320.5431113,320.9071607,321.7079107,321.692044,,,,,,,,,,,,,,,,,,,,,,,,,,,,,,,,,,,321.6978253,321.7079107,321.7079107,322.3259446,r,1,0.60732,None,,,,sub-179,1,2025-03-12_15h31.22.838,stroop_test,04.02.2024,60.04505782,2025-03-12 15h31.33.668051 +0100
,,,,76,4,6,,,,,,,,,,,,,rot,yellow,g,0,g,1,1.1493527,None,,,,,,,,,6,4,76,3,322.3415516,,,,,,,,,,,,,,,,,322.3263956,323.125459,323.9259382,323.9103756,,,,,,,,,,,,,,,,,,,,,,,,,,,,,,,,,,,323.9156917,323.9259382,323.9259382,325.078535,g,1,1.1493527,None,,,,sub-179,1,2025-03-12_15h31.22.838,stroop_test,04.02.2024,60.04505782,2025-03-12 15h31.33.668051 +0100
,,,,77,5,6,,,,,,,,,,,,,gelb,blue,b,0,b,1,0.87019,None,,,,,,,,,6,5,77,9,325.0934165,,,,,,,,,,,,,,,,,325.0790735,325.894221,326.6950356,326.6789791,,,,,,,,,,,,,,,,,,,,,,,,,,,,,,,,,,,326.6846426,326.6950356,326.6950356,327.5808397,b,1,0.87019,None,,,,sub-179,1,2025-03-12_15h31.22.838,stroop_test,04.02.2024,60.04505782,2025-03-12 15h31.33.668051 +0100
,,,,78,6,6,,,,,,,,,,,,,blau,yellow,g,0,b,0,1.7903586,None,,,,,,,,,6,6,78,7,327.5953281,,,,,,,,,,,,,,,,,327.5813328,327.9457819,328.7457433,328.7305308,,,,,,,,,,,,,,,,,,,,,,,,,,,,,,,,,,,328.7361369,328.7457433,328.7457433,330.549098,b,0,1.7903586,None,,,,sub-179,1,2025-03-12_15h31.22.838,stroop_test,04.02.2024,60.04505782,2025-03-12 15h31.33.668051 +0100
,,,,79,7,6,,,,,,,,,,,,,rot,red,r,1,r,1,0.9910845,None,,,,,,,,,6,7,79,1,330.5642171,,,,,,,,,,,,,,,,,330.5496071,330.9143449,331.7146077,331.6993401,,,,,,,,,,,,,,,,,,,,,,,,,,,,,,,,,,,331.7062046,331.7146077,331.7146077,332.717061,r,1,0.9910845,None,,,,sub-179,1,2025-03-12_15h31.22.838,stroop_test,04.02.2024,60.04505782,2025-03-12 15h31.33.668051 +0100
,,,,80,8,6,,,,,,,,,,,,,blau,red,r,0,r,1,1.0534109,None,,,,,,,,,6,8,80,4,332.7322209,,,,,,,,,,,,,,,,,332.7176409,333.0825256,333.8829297,333.8672573,,,,,,,,,,,,,,,,,,,,,,,,,,,,,,,,,,,333.8724896,333.8829297,333.8829297,334.9521887,r,1,1.0534109,None,,,,sub-179,1,2025-03-12_15h31.22.838,stroop_test,04.02.2024,60.04505782,2025-03-12 15h31.33.668051 +0100
,,,,81,9,6,,,,,,,,,,,,,gelb,yellow,g,1,g,1,0.928261,None,,,,,,,,,6,9,81,11,334.9668989,,,,,,,,,,,,,,,,,334.9527476,335.7674484,336.5679528,336.5524897,,,,,,,,,,,,,,,,,,,,,,,,,,,,,,,,,,,336.5582101,336.5679528,336.5679528,337.5043967,g,1,0.928261,None,,,,sub-179,1,2025-03-12_15h31.22.838,stroop_test,04.02.2024,60.04505782,2025-03-12 15h31.33.668051 +0100
,,,,82,10,6,,,,,,,,,,,,,blau,blue,b,1,b,1,0.7067413,None,,,,,,,,,6,10,82,6,337.518802,,,,,,,,,,,,,,,,,337.5049149,337.6187259,338.4192834,338.4035381,,,,,,,,,,,,,,,,,,,,,,,,,,,,,,,,,,,338.4087657,338.4192834,338.4192834,339.1386682,b,1,0.7067413,None,,,,sub-179,1,2025-03-12_15h31.22.838,stroop_test,04.02.2024,60.04505782,2025-03-12 15h31.33.668051 +0100
,,,,83,11,6,,,,,,,,,,,,,rot,red,r,1,r,1,0.9132214,None,,,,,,,,,6,11,83,0,339.1533673,,,,,,,,,,,,,,,,,339.1389935,339.2533189,340.0540326,340.0380879,,,,,,,,,,,,,,,,,,,,,,,,,,,,,,,,,,,340.0442728,340.0540326,340.0540326,340.9727238,r,1,0.9132214,None,,,,sub-179,1,2025-03-12_15h31.22.838,stroop_test,04.02.2024,60.04505782,2025-03-12 15h31.33.668051 +0100
,,,,84,0,7,,,,,,,,,,,,,blau,red,r,0,r,1,0.9773876,None,,,,,,,,,7,0,84,4,340.9877491,,,,,,,,,,,,,,,,,340.9732924,341.3378302,342.1381312,342.1230206,,,,,,,,,,,,,,,,,,,,,,,,,,,,,,,,,,,342.1304707,342.1381312,342.1381312,343.1246268,r,1,0.9773876,None,,,,sub-179,1,2025-03-12_15h31.22.838,stroop_test,04.02.2024,60.04505782,2025-03-12 15h31.33.668051 +0100
,,,,85,1,7,,,,,,,,,,,,,rot,red,r,1,r,1,0.4350168,None,,,,,,,,,7,1,85,1,343.1391,,,,,,,,,,,,,,,,,343.1251716,343.9394066,344.7402835,344.7246568,,,,,,,,,,,,,,,,,,,,,,,,,,,,,,,,,,,344.7304111,344.7402835,344.7402835,345.1922926,r,1,0.4350168,None,,,,sub-179,1,2025-03-12_15h31.22.838,stroop_test,04.02.2024,60.04505782,2025-03-12 15h31.33.668051 +0100
,,,,86,2,7,,,,,,,,,,,,,blau,blue,b,1,b,1,0.6876394,None,,,,,,,,,7,2,86,6,345.2075921,,,,,,,,,,,,,,,,,345.1928565,345.5574628,346.3582784,346.3426367,,,,,,,,,,,,,,,,,,,,,,,,,,,,,,,,,,,346.3478299,346.3582784,346.3582784,347.0609084,b,1,0.6876394,None,,,,sub-179,1,2025-03-12_15h31.22.838,stroop_test,04.02.2024,60.04505782,2025-03-12 15h31.33.668051 +0100
,,,,87,3,7,,,,,,,,,,,,,rot,blue,b,0,b,1,0.8388607,None,,,,,,,,,7,3,87,2,347.0751929,,,,,,,,,,,,,,,,,347.0615277,347.8757318,348.6768736,348.6606881,,,,,,,,,,,,,,,,,,,,,,,,,,,,,,,,,,,348.6662853,348.6768736,348.6768736,349.5293914,b,1,0.8388607,None,,,,sub-179,1,2025-03-12_15h31.22.838,stroop_test,04.02.2024,60.04505782,2025-03-12 15h31.33.668051 +0100
,,,,88,4,7,,,,,,,,,,,,,gelb,yellow,g,1,g,1,0.7112543,None,,,,,,,,,7,4,88,11,349.5435695,,,,,,,,,,,,,,,,,349.5298896,349.6438613,350.4448496,350.4287028,,,,,,,,,,,,,,,,,,,,,,,,,,,,,,,,,,,350.4348942,350.4448496,350.4448496,351.1635458,g,1,0.7112543,None,,,,sub-179,1,2025-03-12_15h31.22.838,stroop_test,04.02.2024,60.04505782,2025-03-12 15h31.33.668051 +0100
,,,,89,5,7,,,,,,,,,,,,,blau,blue,b,1,b,1,1.9170645,None,,,,,,,,,7,5,89,5,351.1783182,,,,,,,,,,,,,,,,,351.1641042,351.2780388,352.0786334,352.0630974,,,,,,,,,,,,,,,,,,,,,,,,,,,,,,,,,,,352.0680297,352.0786334,352.0786334,353.9990671,b,1,1.9170645,None,,,,sub-179,1,2025-03-12_15h31.22.838,stroop_test,04.02.2024,60.04505782,2025-03-12 15h31.33.668051 +0100
,,,,90,6,7,,,,,,,,,,,,,rot,yellow,g,0,g,1,2.0920375,None,,,,,,,,,7,6,90,3,354.0134639,,,,,,,,,,,,,,,,,353.9996098,354.3635461,355.1641803,355.1485417,,,,,,,,,,,,,,,,,,,,,,,,,,,,,,,,,,,355.154589,355.1641803,355.1641803,357.2674641,g,1,2.0920375,None,,,,sub-179,1,2025-03-12_15h31.22.838,stroop_test,04.02.2024,60.04505782,2025-03-12 15h31.33.668051 +0100
,,,,91,7,7,,,,,,,,,,,,,blau,yellow,g,0,g,1,0.9619913,None,,,,,,,,,7,7,91,7,357.282177,,,,,,,,,,,,,,,,,357.2680551,357.3826102,358.1830983,358.1674404,,,,,,,,,,,,,,,,,,,,,,,,,,,,,,,,,,,358.1722746,358.1830983,358.1830983,359.1524699,g,1,0.9619913,None,,,,sub-179,1,2025-03-12_15h31.22.838,stroop_test,04.02.2024,60.04505782,2025-03-12 15h31.33.668051 +0100
,,,,92,8,7,,,,,,,,,,,,,gelb,blue,b,0,b,1,0.8479036,None,,,,,,,,,7,8,92,9,359.1668452,,,,,,,,,,,,,,,,,359.1530852,359.9674764,360.7689576,360.7525633,,,,,,,,,,,,,,,,,,,,,,,,,,,,,,,,,,,360.7589029,360.7689576,360.7689576,361.6210622,b,1,0.8479036,None,,,,sub-179,1,2025-03-12_15h31.22.838,stroop_test,04.02.2024,60.04505782,2025-03-12 15h31.33.668051 +0100
,,,,93,9,7,,,,,,,,,,,,,rot,red,r,1,r,1,0.6500615,None,,,,,,,,,7,9,93,0,361.635129,,,,,,,,,,,,,,,,,361.621654,361.7355076,362.5361325,362.5200736,,,,,,,,,,,,,,,,,,,,,,,,,,,,,,,,,,,362.5273467,362.5361325,362.5361325,363.1887729,r,1,0.6500615,None,,,,sub-179,1,2025-03-12_15h31.22.838,stroop_test,04.02.2024,60.04505782,2025-03-12 15h31.33.668051 +0100
,,,,94,10,7,,,,,,,,,,,,,gelb,red,r,0,r,1,0.731826,None,,,,,,,,,7,10,94,8,363.2031716,,,,,,,,,,,,,,,,,363.1893254,364.403791,365.2042433,365.1885069,,,,,,,,,,,,,,,,,,,,,,,,,,,,,,,,,,,365.193806,365.2042433,365.2042433,365.9404239,r,1,0.731826,None,,,,sub-179,1,2025-03-12_15h31.22.838,stroop_test,04.02.2024,60.04505782,2025-03-12 15h31.33.668051 +0100
,,,,95,11,7,,,,,,,,,,,,,gelb,yellow,g,1,g,1,0.6196896,None,,,,,,,,,7,11,95,10,365.9552087,,,,,,,,,,,,,,,,,365.9410107,367.155585,367.956614,367.9408143,,,,,,,,,,,,,,,,,,,,,,,,,,,,,,,,,,,367.9415147,367.956614,367.956614,368.591682,g,1,0.6196896,None,,,,sub-179,1,2025-03-12_15h31.22.838,stroop_test,04.02.2024,60.04505782,2025-03-12 15h31.33.668051 +0100
,,,,96,0,8,,,,,,,,,,,,,gelb,yellow,g,1,g,1,0.574655,None,,,,,,,,,8,0,96,10,368.6064248,,,,,,,,,,,,,,,,,368.5921924,369.3907133,370.1913786,370.1752998,,,,,,,,,,,,,,,,,,,,,,,,,,,,,,,,,,,370.1760425,370.1913786,370.1913786,370.7768769,g,1,0.574655,None,,,,sub-179,1,2025-03-12_15h31.22.838,stroop_test,04.02.2024,60.04505782,2025-03-12 15h31.33.668051 +0100
,,,,97,1,8,,,,,,,,,,,,,blau,blue,b,1,b,1,0.5642965,None,,,,,,,,,8,1,97,5,370.791421,,,,,,,,,,,,,,,,,370.7774204,371.1420174,371.9421547,371.9268597,,,,,,,,,,,,,,,,,,,,,,,,,,,,,,,,,,,371.9328879,371.9421547,371.9421547,372.5115668,b,1,0.5642965,None,,,,sub-179,1,2025-03-12_15h31.22.838,stroop_test,04.02.2024,60.04505782,2025-03-12 15h31.33.668051 +0100
,,,,98,2,8,,,,,,,,,,,,,rot,red,r,1,r,1,0.5947811,None,,,,,,,,,8,2,98,1,372.5262021,,,,,,,,,,,,,,,,,372.5120925,373.7106356,374.5108648,374.4951471,,,,,,,,,,,,,,,,,,,,,,,,,,,,,,,,,,,374.5012006,374.5108648,374.5108648,375.112994,r,1,0.5947811,None,,,,sub-179,1,2025-03-12_15h31.22.838,stroop_test,04.02.2024,60.04505782,2025-03-12 15h31.33.668051 +0100
,,,,99,3,8,,,,,,,,,,,,,rot,blue,b,0,b,1,0.9271931,None,,,,,,,,,8,3,99,2,375.1282029,,,,,,,,,,,,,,,,,375.1134899,375.9282567,376.7289924,376.7135823,,,,,,,,,,,,,,,,,,,,,,,,,,,,,,,,,,,376.7142323,376.7289924,376.7289924,377.6650324,b,1,0.9271931,None,,,,sub-179,1,2025-03-12_15h31.22.838,stroop_test,04.02.2024,60.04505782,2025-03-12 15h31.33.668051 +0100
,,,,100,4,8,,,,,,,,,,,,,blau,blue,b,1,b,1,0.5659828,None,,,,,,,,,8,4,100,6,377.6794793,,,,,,,,,,,,,,,,,377.6655568,378.0303238,378.8307522,378.8149925,,,,,,,,,,,,,,,,,,,,,,,,,,,,,,,,,,,378.8202354,378.8307522,378.8307522,379.4006365,b,1,0.5659828,None,,,,sub-179,1,2025-03-12_15h31.22.838,stroop_test,04.02.2024,60.04505782,2025-03-12 15h31.33.668051 +0100
,,,,101,5,8,,,,,,,,,,,,,rot,yellow,g,0,g,1,1.1605466,None,,,,,,,,,8,5,101,3,379.4141775,,,,,,,,,,,,,,,,,379.401219,380.6149854,381.4153293,381.3997198,,,,,,,,,,,,,,,,,,,,,,,,,,,,,,,,,,,381.40703,381.4153293,381.4153293,382.5854422,g,1,1.1605466,None,,,,sub-179,1,2025-03-12_15h31.22.838,stroop_test,04.02.2024,60.04505782,2025-03-12 15h31.33.668051 +0100
,,,,102,6,8,,,,,,,,,,,,,gelb,blue,b,0,b,1,0.7352284,None,,,,,,,,,8,6,102,9,382.599891,,,,,,,,,,,,,,,,,382.5860079,383.8005632,384.6010988,384.5852853,,,,,,,,,,,,,,,,,,,,,,,,,,,,,,,,,,,384.5908413,384.6010988,384.6010988,385.3533147,b,1,0.7352284,None,,,,sub-179,1,2025-03-12_15h31.22.838,stroop_test,04.02.2024,60.04505782,2025-03-12 15h31.33.668051 +0100
,,,,103,7,8,,,,,,,,,,,,,gelb,yellow,g,1,g,1,1.3272983,None,,,,,,,,,8,7,103,11,385.3683341,,,,,,,,,,,,,,,,,385.3538173,385.4685618,386.2688353,386.2534225,,,,,,,,,,,,,,,,,,,,,,,,,,,,,,,,,,,386.2541695,386.2688353,386.2688353,387.6050397,g,1,1.3272983,None,,,,sub-179,1,2025-03-12_15h31.22.838,stroop_test,04.02.2024,60.04505782,2025-03-12 15h31.33.668051 +0100
,,,,104,8,8,,,,,,,,,,,,,rot,red,r,1,r,1,0.7947348,None,,,,,,,,,8,8,104,0,387.6196853,,,,,,,,,,,,,,,,,387.6055327,388.4202612,389.2208817,389.2052037,,,,,,,,,,,,,,,,,,,,,,,,,,,,,,,,,,,389.2109714,389.2208817,389.2208817,390.0233065,r,1,0.7947348,None,,,,sub-179,1,2025-03-12_15h31.22.838,stroop_test,04.02.2024,60.04505782,2025-03-12 15h31.33.668051 +0100
,,,,105,9,8,,,,,,,,,,,,,blau,red,r,0,r,1,1.6758918,None,,,,,,,,,8,9,105,4,390.0383485,,,,,,,,,,,,,,,,,390.0239451,390.8385038,391.6392725,391.6238539,,,,,,,,,,,,,,,,,,,,,,,,,,,,,,,,,,,391.6287914,391.6392725,391.6392725,393.3255986,r,1,1.6758918,None,,,,sub-179,1,2025-03-12_15h31.22.838,stroop_test,04.02.2024,60.04505782,2025-03-12 15h31.33.668051 +0100
,,,,106,10,8,,,,,,,,,,,,,gelb,red,r,0,r,1,1.1851384,None,,,,,,,,,8,10,106,8,393.3404553,,,,,,,,,,,,,,,,,393.3261749,393.690702,394.490915,394.4754835,,,,,,,,,,,,,,,,,,,,,,,,,,,,,,,,,,,394.4827672,394.490915,394.490915,395.6786314,r,1,1.1851384,None,,,,sub-179,1,2025-03-12_15h31.22.838,stroop_test,04.02.2024,60.04505782,2025-03-12 15h31.33.668051 +0100
,,,,107,11,8,,,,,,,,,,,,,blau,yellow,g,0,g,1,1.3629459,None,,,,,,,,,8,11,107,7,395.6920932,,,,,,,,,,,,,,,,,395.6792267,396.8928284,397.6933349,397.6777616,,,,,,,,,,,,,,,,,,,,,,,,,,,,,,,,,,,397.6833289,397.6933349,397.6933349,399.0632501,g,1,1.3629459,None,,,,sub-179,1,2025-03-12_15h31.22.838,stroop_test,04.02.2024,60.04505782,2025-03-12 15h31.33.668051 +0100
,,,,108,0,9,,,,,,,,,,,,,blau,red,r,0,r,1,1.1461822,None,,,,,,,,,9,0,108,4,399.0775402,,,,,,,,,,,,,,,,,399.0637435,400.2788078,401.0789602,401.063498,,,,,,,,,,,,,,,,,,,,,,,,,,,,,,,,,,,401.0642429,401.0789602,401.0789602,402.2322289,r,1,1.1461822,None,,,,sub-179,1,2025-03-12_15h31.22.838,stroop_test,04.02.2024,60.04505782,2025-03-12 15h31.33.668051 +0100
,,,,109,1,9,,,,,,,,,,,,,rot,red,r,1,r,1,0.4581158,None,,,,,,,,,9,1,109,1,402.2468927,,,,,,,,,,,,,,,,,402.2328059,403.0469541,403.8475758,403.8321161,,,,,,,,,,,,,,,,,,,,,,,,,,,,,,,,,,,403.8378581,403.8475758,403.8475758,404.3164702,r,1,0.4581158,None,,,,sub-179,1,2025-03-12_15h31.22.838,stroop_test,04.02.2024,60.04505782,2025-03-12 15h31.33.668051 +0100
,,,,110,2,9,,,,,,,,,,,,,blau,yellow,g,0,g,1,0.703957,None,,,,,,,,,9,2,110,7,404.3314337,,,,,,,,,,,,,,,,,404.3170176,405.131791,405.9325909,405.9170108,,,,,,,,,,,,,,,,,,,,,,,,,,,,,,,,,,,405.9227705,405.9325909,405.9325909,406.6520569,g,1,0.703957,None,,,,sub-179,1,2025-03-12_15h31.22.838,stroop_test,04.02.2024,60.04505782,2025-03-12 15h31.33.668051 +0100
,,,,111,3,9,,,,,,,,,,,,,blau,blue,b,1,b,1,0.5277029,None,,,,,,,,,9,3,111,5,406.6663037,,,,,,,,,,,,,,,,,406.6526654,407.4672375,408.2675485,408.251623,,,,,,,,,,,,,,,,,,,,,,,,,,,,,,,,,,,408.2523359,408.2675485,408.2675485,408.8030301,b,1,0.5277029,None,,,,sub-179,1,2025-03-12_15h31.22.838,stroop_test,04.02.2024,60.04505782,2025-03-12 15h31.33.668051 +0100
,,,,112,4,9,,,,,,,,,,,,,rot,blue,b,0,b,1,2.0869419,None,,,,,,,,,9,4,112,2,408.8180367,,,,,,,,,,,,,,,,,408.8036261,409.6181911,410.4188011,410.402952,,,,,,,,,,,,,,,,,,,,,,,,,,,,,,,,,,,410.4084694,410.4188011,410.4188011,412.5227497,b,1,2.0869419,None,,,,sub-179,1,2025-03-12_15h31.22.838,stroop_test,04.02.2024,60.04505782,2025-03-12 15h31.33.668051 +0100
,,,,113,5,9,,,,,,,,,,,,,rot,red,r,1,r,1,0.6283347,None,,,,,,,,,9,5,113,0,412.5368973,,,,,,,,,,,,,,,,,412.5232813,412.637314,413.4377618,413.422123,,,,,,,,,,,,,,,,,,,,,,,,,,,,,,,,,,,413.4227616,413.4377618,413.4377618,414.0736996,r,1,0.6283347,None,,,,sub-179,1,2025-03-12_15h31.22.838,stroop_test,04.02.2024,60.04505782,2025-03-12 15h31.33.668051 +0100
,,,,114,6,9,,,,,,,,,,,,,gelb,red,r,0,g,0,1.7165691,None,,,,,,,,,9,6,114,8,414.088169,,,,,,,,,,,,,,,,,414.07433,414.1879083,414.9888557,414.9730147,,,,,,,,,,,,,,,,,,,,,,,,,,,,,,,,,,,414.9795412,414.9888557,414.9888557,416.7087565,g,0,1.7165691,None,,,,sub-179,1,2025-03-12_15h31.22.838,stroop_test,04.02.2024,60.04505782,2025-03-12 15h31.33.668051 +0100
,,,,115,7,9,,,,,,,,,,,,,gelb,yellow,g,1,g,1,0.5852778,None,,,,,,,,,9,7,115,10,416.7231244,,,,,,,,,,,,,,,,,416.7093319,416.8235745,417.6236755,417.607996,,,,,,,,,,,,,,,,,,,,,,,,,,,,,,,,,,,417.6086261,417.6236755,417.6236755,418.2116876,g,1,0.5852778,None,,,,sub-179,1,2025-03-12_15h31.22.838,stroop_test,04.02.2024,60.04505782,2025-03-12 15h31.33.668051 +0100
,,,,116,8,9,,,,,,,,,,,,,blau,blue,b,1,b,1,0.7711957,None,,,,,,,,,9,8,116,6,418.2246279,,,,,,,,,,,,,,,,,418.2121848,418.5745121,419.3751406,419.3592583,,,,,,,,,,,,,,,,,,,,,,,,,,,,,,,,,,,419.3641141,419.3751406,419.3751406,420.1606236,b,1,0.7711957,None,,,,sub-179,1,2025-03-12_15h31.22.838,stroop_test,04.02.2024,60.04505782,2025-03-12 15h31.33.668051 +0100
,,,,117,9,9,,,,,,,,,,,,,gelb,yellow,g,1,g,1,0.7007787,None,,,,,,,,,9,9,117,11,420.1757863,,,,,,,,,,,,,,,,,420.1611756,420.9759219,421.776952,421.7609264,,,,,,,,,,,,,,,,,,,,,,,,,,,,,,,,,,,421.7663254,421.776952,421.776952,422.4807274,g,1,0.7007787,None,,,,sub-179,1,2025-03-12_15h31.22.838,stroop_test,04.02.2024,60.04505782,2025-03-12 15h31.33.668051 +0100
,,,,118,10,9,,,,,,,,,,,,,gelb,blue,b,0,b,1,1.0710935,None,,,,,,,,,9,10,118,9,422.4940995,,,,,,,,,,,,,,,,,422.4812295,423.6947948,424.4950919,424.4793472,,,,,,,,,,,,,,,,,,,,,,,,,,,,,,,,,,,424.4800721,424.4950919,424.4950919,425.5813748,b,1,1.0710935,None,,,,sub-179,1,2025-03-12_15h31.22.838,stroop_test,04.02.2024,60.04505782,2025-03-12 15h31.33.668051 +0100
,,,,119,11,9,,,,,,,,,,,,,rot,yellow,g,0,r,0,1.6108861,None,,,,,,,,,9,11,119,3,425.5958301,,,,,,,,,,,,,,,,,425.5819382,426.7964763,427.5976662,427.581523,,,,,,,,,,,,,,,,,,,,,,,,,,,,,,,,,,,427.5870728,427.5976662,427.5976662,429.2171781,r,0,1.6108861,None,,,,sub-179,1,2025-03-12_15h31.22.838,stroop_test,04.02.2024,60.04505782,2025-03-12 15h31.33.668051 +0100
,,,,,,,,,,,,,,,,,,,,,,,,,,,,,,,,,,,,,,,,,,,,,,,,,,,,,,,,,,,,,,,,,,,,,,,,,,,,,,,,,,,,,,,,,,,,,,,,,,,,,,429.2174389,429.2316556,434.2187368,sub-179,1,2025-03-12_15h31.22.838,stroop_test,04.02.2024,60.04505782,2025-03-12 15h31.33.668051 +0100
