direction,corrAns,randomInstr,practice_trials.thisRepN,practice_trials.thisTrialN,practice_trials.thisN,practice_trials.thisIndex,instr_trials.thisRepN,instr_trials.thisTrialN,instr_trials.thisN,instr_trials.thisIndex,test_trials.thisRepN,test_trials.thisTrialN,test_trials.thisN,test_trials.thisIndex,thisRow.t,notes,general_instruction.started,textGeneralInstr.started,respGeneralInstr.started,general_instruction.stopped,respGeneralInstr.keys,respGeneralInstr.rt,respGeneralInstr.duration,ITI.started,fixcross.started,fixcross.stopped,ITI.stopped,dots.started,backgroundDots.started,stimulusDots.started,respDots.started,dots.stopped,respDots.keys,respDots.corr,respDots.rt,respDots.duration,feedback.started,textFeedback.started,feedback.stopped,textFeedback.stopped,stimulusDots.stopped,info.started,textInfo.started,keyRespInfo.started,info.stopped,keyRespInfo.keys,keyRespInfo.rt,keyRespInfo.duration,test_instruction.started,textTestInstr.started,respTestInstr.started,test_instruction.stopped,respTestInstr.keys,respTestInstr.rt,respTestInstr.duration,random_instruction.started,textRandomInstr.started,respRandomInstr.started,random_instruction.stopped,respRandomInstr.keys,respRandomInstr.rt,respRandomInstr.duration,goodbye.started,textGoodbye.started,goodbye.stopped,participant,session,expName,frameRate,Unnamed: 73
,,,,,,,,,,,,,,,,,0.0067749000154435,0.0215011000400409,0.0215011000400409,1.4114426000742242,space,1.3812748999334872,,,,,,,,,,,,,,,,,,,,,,,,,,,,,,,,,,,,,,,,,,,,sub-135,3.0,random_dot,59.99545233802225,
right,right,,0.0,0.0,0.0,1.0,,,,,,,,,1.553613999974914,,,,,,,,,1.5459355000639334,2.2224884000606835,3.0538862000685185,3.021690099965781,3.021732800058089,3.0538862000685185,3.0538862000685185,3.0538862000685185,4.271530800033361,right,1.0,1.2084742999868467,,4.2733425999758765,4.300582300056703,4.786112500005402,,,,,,,,,,,,,,,,,,,,,,,,,,,sub-135,3.0,random_dot,59.99545233802225,
left,left,,0.0,1.0,1.0,0.0,,,,,,,,,4.80261909996625,,,,,,,,,4.787408799980767,5.136507599963807,5.935926500009373,5.920816199970432,5.920865699998103,5.935926500009373,5.935926500009373,5.935926500009373,7.688117500045337,right,0.0,1.7473729000193998,,7.690613000071607,7.716522900038399,8.201488999999128,,,,,,,,,,,,,,,,,,,,,,,,,,,sub-135,3.0,random_dot,59.99545233802225,
right,right,,1.0,0.0,2.0,1.0,,,,,,,,,8.217791100032628,,,,,,,,,8.20277990004979,9.40079159999732,10.21739330003038,10.201820200076329,10.201867599971592,10.21739330003038,10.21739330003038,10.21739330003038,11.56650419998914,right,1.0,1.3361287999432534,,11.567711899988351,11.58149760006927,12.06644269998651,12.081545699969864,,,,,,,,,,,,,,,,,,,,,,,,,,sub-135,3.0,random_dot,59.99545233802225,
left,left,,1.0,1.0,3.0,0.0,,,,,,,,,12.081545699969864,,,,,,,,,12.067902500042692,12.88202200003434,13.698213499970734,13.682353800046258,13.682403500075452,13.698213499970734,13.698213499970734,13.698213499970734,16.013486800016835,left,1.0,2.2982001999625936,,16.01498590002302,16.028421299997717,16.51278590003494,16.52800060005393,,,,,,,,,,,,,,,,,,,,,,,,,,sub-135,3.0,random_dot,59.99545233802225,
left,left,,2.0,0.0,4.0,0.0,,,,,,,,,16.52800060005393,,,,,,,,,16.51371960004326,17.728762699989602,18.535861400072463,18.5153249000432,18.515379499993287,18.535861400072463,18.535861400072463,18.535861400072463,20.94313999998849,left,1.0,2.3978258999995887,,20.944472300005145,20.958105299971063,21.44240140006877,21.457902700058185,,,,,,,,,,,,,,,,,,,,,,,,,,sub-135,3.0,random_dot,59.99545233802225,
right,right,,2.0,1.0,5.0,1.0,,,,,,,,,21.457902700058185,,,,,,,,,21.443215399980545,22.659351099980995,23.47669549996499,23.460665800026614,23.460788600030355,23.47669549996499,23.47669549996499,23.47669549996499,24.24082359997556,right,1.0,0.7478938000276685,,24.242249300004914,24.25555830006488,24.76161529996898,,,,,,,,,,,,,,,,,,,,,,,,,,,sub-135,3.0,random_dot,59.99545233802225,
left,left,,3.0,0.0,6.0,0.0,,,,,,,,,24.77263420005329,,,,,,,,,24.76282750000246,25.12231820006855,25.93854670005385,25.92282780003734,25.922872200026177,25.93854670005385,25.93854670005385,25.93854670005385,32.22969429998193,left,1.0,6.272390600061044,,32.23237490002066,32.24533399997745,32.73600649996661,,30.935298099997453,,,,,,,,,,,,,,,,,,,,,,,,,sub-135,3.0,random_dot,59.99545233802225,
right,right,,3.0,1.0,7.0,1.0,,,,,,,,,32.75256920000538,,,,,,,,,32.73795580002479,33.933481300016865,34.73591150005814,34.71925419999752,34.7193368000444,34.73591150005814,34.73591150005814,34.73591150005814,35.0513903000392,right,1.0,0.3004706000210717,,35.053548800060526,35.06689290003851,35.551485100062564,35.56647289998364,,,,,,,,,,,,,,,,,,,,,,,,,,sub-135,3.0,random_dot,59.99545233802225,
right,right,,4.0,0.0,8.0,1.0,,,,,,,,,35.56647289998364,,,,,,,,,35.55313939996995,35.917250200058334,36.73196880007163,36.71676710003521,36.71683859999757,36.73196880007163,36.73196880007163,36.73196880007163,37.6469333000714,right,1.0,0.9093015999533236,,37.64982950000558,37.65986640006304,38.14952049998101,38.164639199967496,,,,,,,,,,,,,,,,,,,,,,,,,,sub-135,3.0,random_dot,59.99545233802225,
left,left,,4.0,1.0,9.0,0.0,,,,,,,,,38.164639199967496,,,,,,,,,38.15075729996897,38.94819829997141,39.763810500036925,39.747111000004224,39.74715369998012,39.763810500036925,39.763810500036925,39.763810500036925,40.46654659998603,left,1.0,0.69169249990955,,40.46798489999492,40.47972419997677,41.030872000032105,,,,,,,,,,,,,,,,,,,,,,,,,,,sub-135,3.0,random_dot,59.99545233802225,
right,right,,5.0,0.0,10.0,1.0,,,,,,,,,41.04707009997219,,,,,,,,,41.0325990000274,41.77935620001517,42.59433910006192,42.57126300001983,42.57130930002313,42.59433910006192,42.59433910006192,42.59433910006192,43.16294529999141,right,1.0,0.553035999997519,,43.16382740007248,43.17745189997368,43.66493630001787,43.67828009999357,,,,,,,,,,,,,,,,,,,,,,,,,,sub-135,3.0,random_dot,59.99545233802225,
left,left,,5.0,1.0,11.0,0.0,,,,,,,,,43.67828009999357,,,,,,,,,43.666256400058046,44.01177270000335,44.82673730002716,44.79778710007668,44.79786880000029,44.82673730002716,44.82673730002716,44.82673730002716,45.63452980003785,left,1.0,0.8035607999190688,,45.636360900010914,45.64967409998644,46.14240899996366,,,,,,,,,,,,,,,,,,,,,,,,,,,sub-135,3.0,random_dot,59.99545233802225,
left,left,,6.0,0.0,12.0,0.0,,,,,,,,,46.15998039999977,,,,,,,,,46.14364710007794,46.94454489997588,47.74489910004195,47.72870169999078,47.728755600051954,47.74489910004195,47.74489910004195,47.74489910004195,48.5110069999937,left,1.0,0.7578943999251351,,48.51294000004418,48.52695750002749,49.02611990005244,,,,,,,,,,,,,,,,,,,,,,,,,,,sub-135,3.0,random_dot,59.99545233802225,
right,right,,6.0,1.0,13.0,1.0,,,,,,,,,49.042032700032,,,,,,,,,49.02802369999699,49.1266217000084,49.94320560002234,49.92761320003774,49.927673600032,49.94320560002234,49.94320560002234,49.94320560002234,50.59091949998401,right,1.0,0.6337637000251561,,50.59240940003656,50.60546760004945,51.08975879999343,51.10515550000128,,,,,,,,,,,,,,,,,,,,,,,,,,sub-135,3.0,random_dot,59.99545233802225,
right,right,,7.0,0.0,14.0,1.0,,,,,,,,,51.10515550000128,,,,,,,,,51.09053980000317,51.20517289999407,52.00714520004112,51.99053850001656,51.99061219999567,52.00714520004112,52.00714520004112,52.00714520004112,53.37265999999363,left,0.0,1.3582540000788867,,53.37403710000217,53.38896510004997,53.88686940004118,,,,,,,,,,,,,,,,,,,,,,,,,,,sub-135,3.0,random_dot,59.99545233802225,
left,left,,7.0,1.0,15.0,0.0,,,,,,,,,53.90352399996482,,,,,,,,,53.88811489997897,54.23738589999266,55.03696769999806,55.02177220000885,55.021857600077055,55.03696769999806,55.03696769999806,55.03696769999806,56.24253260006663,left,1.0,1.1986588999861851,,56.24439790006727,56.26612879999448,56.752458499977365,,,,,,,,,,,,,,,,,,,,,,,,,,,sub-135,3.0,random_dot,59.99545233802225,
left,left,,8.0,0.0,16.0,0.0,,,,,,,,,56.7680480000563,,,,,,,,,56.75343719997909,57.10052940004971,57.90167739999015,57.88622029998805,57.8862616000697,57.90167739999015,57.90167739999015,57.90167739999015,59.03876690007746,left,1.0,1.131547899916768,,59.04008609999437,59.05356540007051,59.54941430001054,,,,,,,,,,,,,,,,,,,,,,,,,,,sub-135,3.0,random_dot,59.99545233802225,
right,right,,8.0,1.0,17.0,1.0,,,,,,,,,59.56564929999877,,,,,,,,,59.55024120002054,59.65016119997017,60.45169000001624,60.43375119997654,60.43378009996377,60.45169000001624,60.45169000001624,60.45169000001624,61.70770939998329,right,1.0,1.242017599986866,,61.71057120000478,61.7227476000553,62.21974329999648,,,,,,,,,,,,,,,,,,,,,,,,,,,sub-135,3.0,random_dot,59.99545233802225,
left,left,,9.0,0.0,18.0,0.0,,,,,,,,,62.23400649998803,,,,,,,,,62.221152500016615,63.4167529999977,64.2390193999745,64.22068819997367,64.2208167000208,64.2390193999745,64.2390193999745,64.2390193999745,65.13917540002149,left,1.0,0.8905456000939012,,65.14088570000604,65.15315180004109,65.64795440004673,,,,,,,,,,,,,,,,,,,,,,,,,,,sub-135,3.0,random_dot,59.99545233802225,
right,right,,9.0,1.0,19.0,1.0,,,,,,,,,65.66578060004395,,,,,,,,,65.64972980006132,66.84673200000543,67.64962180005386,67.63225500006229,67.63231510005426,67.64962180005386,67.64962180005386,67.64962180005386,68.80389930005185,right,1.0,1.1383940000087025,,68.80702659999952,68.82104329997674,69.31364670000039,,,,,,,,,,,,,,,,,,,,,,,,,,,sub-135,3.0,random_dot,59.99545233802225,
,,,,,,,,,,,,,,,,,,,,,,,,,,,,,,,,,,,,,,,,,,69.31391080003232,69.33296919998247,69.33296919998247,70.18335970002227,space,0.842354999971576,,,,,,,,,,,,,,,,,,,sub-135,3.0,random_dot,59.99545233802225,
,,,,,,,,,,,,,,,,,,,,,,,,,,,,,,,,,,,,,,,,,,,,,,,,,70.18352099996991,70.19812010007445,70.19812010007445,70.81849880004302,space,0.6052664000308141,,,,,,,,,,,,sub-135,3.0,random_dot,59.99545233802225,
left,left,speed,,,,,0.0,0.0,0.0,1.0,0.0,0.0,0.0,0.0,72.98939920007251,,,,,,,,,72.98251200001687,73.31013009999879,74.12665420002304,74.10958439996466,74.10966239997651,74.12665420002304,74.12665420002304,74.12665420002304,74.87608219997492,left,1.0,0.739599599968642,,,,,,,,,,,,,,,,,,,,,70.88578420004342,70.9646456000628,70.9646456000628,72.94867539999541,space,1.9713860000483687,,,,,sub-135,3.0,random_dot,59.99545233802225,
right,right,speed,,,,,0.0,0.0,0.0,1.0,0.0,1.0,1.0,1.0,74.88978800002951,,,,,,,,,74.88092580006924,76.08923410007264,76.90468180004973,76.88854409998748,76.8885758999968,76.90468180004973,76.90468180004973,76.90468180004973,77.35722690005787,right,1.0,0.4493719000602141,,,,,,,,,,,,,,,,,,,,,,,,,,,,,,,sub-135,3.0,random_dot,59.99545233802225,
right,right,speed,,,,,0.0,0.0,0.0,1.0,1.0,0.0,2.0,1.0,77.37119630002417,,,,,,,,,77.35961839999072,78.17008700000588,78.97416240000166,78.95666460006032,78.95671880000737,78.97416240000166,78.97416240000166,78.97416240000166,80.70789239997976,right,1.0,1.7275084999855608,,,,,,,,,,,,,,,,,,,,,,,,,,,,,,,sub-135,3.0,random_dot,59.99545233802225,
left,left,speed,,,,,0.0,0.0,0.0,1.0,1.0,1.0,3.0,0.0,80.72120879997965,,,,,,,,,80.7130279999692,81.5192697000457,82.31881920003798,82.30395850003697,82.30400999996345,82.31881920003798,82.31881920003798,82.31881920003798,82.94031119998544,left,1.0,0.6133577999426052,,,,,,,,,,,,,,,,,,,,,,,,,,,,,,,sub-135,3.0,random_dot,59.99545233802225,
left,left,speed,,,,,0.0,0.0,0.0,1.0,2.0,0.0,4.0,0.0,82.95269950001966,,,,,,,,,82.94465580000542,83.05169650004245,83.85136760002933,83.8359053999884,83.83595390000846,83.85136760002933,83.85136760002933,83.85136760002933,84.61718820000533,right,0.0,0.7511180000146851,,,,,,,,,,,,,,,,,,,,,,,,,,,,,,,sub-135,3.0,random_dot,59.99545233802225,
right,right,speed,,,,,0.0,0.0,0.0,1.0,2.0,1.0,5.0,1.0,84.63192040007561,,,,,,,,,84.62011949997395,85.83339789998718,86.63383160007652,86.61752660002094,86.61757860006765,86.63383160007652,86.63383160007652,86.63383160007652,90.39786150003783,left,0.0,3.7504316000267854,,,,,,,,,,,,,,,,,,,,,,,,,,,,,,,sub-135,3.0,random_dot,59.99545233802225,
right,right,speed,,,,,0.0,0.0,0.0,1.0,3.0,0.0,6.0,1.0,90.41234829998577,,,,,,,,,90.4004318000516,91.21331869997084,92.01443450001534,91.99796439998318,91.99802110006569,92.01443450001534,92.01443450001534,92.01443450001534,94.7115993000334,right,1.0,2.6850335999624804,,,,,,,,,,,,,,,,,,,,,,,,,,,,,,,sub-135,3.0,random_dot,59.99545233802225,
left,left,speed,,,,,0.0,0.0,0.0,1.0,3.0,1.0,7.0,0.0,94.72627900005318,,,,,,,,,94.7141769999871,95.52661110006738,96.32753490004689,96.31118089996744,96.31123079999816,96.32753490004689,96.32753490004689,96.32753490004689,97.30990130000282,left,1.0,0.967660600086674,,,,,,,,,,,,,,,,,,,,,,,,,,,,,,,sub-135,3.0,random_dot,59.99545233802225,
right,right,speed,,,,,0.0,0.0,0.0,1.0,4.0,0.0,8.0,1.0,97.32448439998552,,,,,,,,,97.3124092000071,97.67583990003914,98.47518339997625,98.45982560003176,98.4598731000442,98.47518339997625,98.47518339997625,98.47518339997625,101.31070430006366,right,1.0,2.827185000060126,,,,,,,,,,,,,,,,,,,,,,,,,,,,,,,sub-135,3.0,random_dot,59.99545233802225,
left,left,speed,,,,,0.0,0.0,0.0,1.0,4.0,1.0,9.0,0.0,101.32288640004116,,,,,,,,,101.31491149996872,101.42367799999192,102.24036379996689,102.22424050001428,102.22431019996291,102.24036379996689,102.24036379996689,102.24036379996689,105.37621360004414,left,1.0,3.120369700016454,,,,,,,,,,,,,,,,,,,,,,,,,,,,,,,sub-135,3.0,random_dot,59.99545233802225,
right,right,speed,,,,,0.0,0.0,0.0,1.0,5.0,0.0,10.0,1.0,105.38908580003772,,,,,,,,,105.37985520006625,105.48718870000448,106.30189800006336,106.2864825000288,106.28653789998498,106.30189800006336,106.30189800006336,106.30189800006336,108.12179690005723,right,1.0,1.8075153999961917,,,,,,,,,,,,,,,,,,,,,,,,,,,,,,,sub-135,3.0,random_dot,59.99545233802225,
left,left,speed,,,,,0.0,0.0,0.0,1.0,5.0,1.0,11.0,0.0,108.13501289999112,,,,,,,,,108.12511370005086,108.23485670005904,109.03394670004492,109.01927549997345,109.01932309998664,109.03394670004492,109.03394670004492,109.03394670004492,110.44997790001798,left,1.0,1.41302880004514,,,,,,,,,,,,,,,,,,,,,,,,,,,,,,,sub-135,3.0,random_dot,59.99545233802225,
left,left,speed,,,,,0.0,0.0,0.0,1.0,6.0,0.0,12.0,0.0,110.46499570005108,,,,,,,,,110.45182319998275,110.55058889999054,111.3652894999832,111.34986459999344,111.34990080003628,111.3652894999832,111.3652894999832,111.3652894999832,112.4341639999766,left,1.0,1.062171599944122,,,,,,,,,,,,,,,,,,,,,,,,,,,,,,,sub-135,3.0,random_dot,59.99545233802225,
right,right,speed,,,,,0.0,0.0,0.0,1.0,6.0,1.0,13.0,1.0,112.44789760001004,,,,,,,,,112.43683660007082,112.54933629999869,113.3507871000329,113.33403350005392,113.33408830000552,113.3507871000329,113.3507871000329,113.3507871000329,114.26651220000348,right,1.0,0.9084566000383348,,,,,,,,,,,,,,,,,,,,,,,,,,,,,,,sub-135,3.0,random_dot,59.99545233802225,
left,left,speed,,,,,0.0,0.0,0.0,1.0,7.0,0.0,14.0,0.0,114.28002659999764,,,,,,,,,114.26871249999384,114.6309770999942,115.43546040006912,115.41593040002044,115.41601060004903,115.43546040006912,115.43546040006912,115.43546040006912,116.11640930001158,left,1.0,0.6607726999791339,,,,,,,,,,,,,,,,,,,,,,,,,,,,,,,sub-135,3.0,random_dot,59.99545233802225,
right,right,speed,,,,,0.0,0.0,0.0,1.0,7.0,1.0,15.0,1.0,116.12926259997766,,,,,,,,,116.1209627999924,117.3297269999748,118.14416370005348,118.12864660006016,118.1286831999896,118.14416370005348,118.14416370005348,118.14416370005348,119.51281750004271,right,1.0,1.36240630003158,,,,,,,,,,,,,,,,,,,,,,,,,,,,,,,sub-135,3.0,random_dot,59.99545233802225,
left,left,speed,,,,,0.0,0.0,0.0,1.0,8.0,0.0,16.0,0.0,119.52637480001432,,,,,,,,,119.51532680005766,120.72712820000017,121.52836460003164,121.5120717000682,121.51213689998258,121.52836460003164,121.52836460003164,121.52836460003164,122.2432964000618,left,1.0,0.7047171000158414,,,,,,,,,,,,,,,,,,,,,,,,,,,,,,,sub-135,3.0,random_dot,59.99545233802225,
right,right,speed,,,,,0.0,0.0,0.0,1.0,8.0,1.0,17.0,1.0,122.25788200006356,,,,,,,,,122.24608379998244,123.05904329998884,123.85706880001815,123.84408589999656,123.84417090006173,123.85706880001815,123.85706880001815,123.85706880001815,124.47566980007105,right,1.0,0.6128826999338344,,,,,,,,,,,,,,,,,,,,,,,,,,,,,,,sub-135,3.0,random_dot,59.99545233802225,
left,left,speed,,,,,0.0,0.0,0.0,1.0,9.0,0.0,18.0,0.0,124.48902360000648,,,,,,,,,124.4776109000668,124.8408683000598,125.64000390004368,125.62524520000444,125.62532450002618,125.64000390004368,125.64000390004368,125.64000390004368,125.94100330001676,left,1.0,0.295180199900642,,,,,,,,,,,,,,,,,,,,,,,,,,,,,,,sub-135,3.0,random_dot,59.99545233802225,
right,right,speed,,,,,0.0,0.0,0.0,1.0,9.0,1.0,19.0,1.0,125.95603340002708,,,,,,,,,125.94402280007488,126.05571850005072,126.85817070002668,126.84166300005744,126.84174060006626,126.85817070002668,126.85817070002668,126.85817070002668,127.57834090001415,right,1.0,0.7145329000195488,,,,,,,,,,,,,,,,,,,,,,,,,,,,,,,sub-135,3.0,random_dot,59.99545233802225,
left,left,speed,,,,,0.0,0.0,0.0,1.0,10.0,0.0,20.0,0.0,127.5899699999718,,,,,,,,,127.58190620003734,127.93907179997768,128.7407565000467,128.7235230000224,128.7235843000235,128.7407565000467,128.7407565000467,128.7407565000467,129.288479299983,left,1.0,0.5404571999097243,,,,,,,,,,,,,,,,,,,,,,,,,,,,,,,sub-135,3.0,random_dot,59.99545233802225,
right,right,speed,,,,,0.0,0.0,0.0,1.0,10.0,1.0,21.0,1.0,129.30295160005335,,,,,,,,,129.29060950002167,129.65327240002807,130.46879770001397,130.45324379997328,130.4532836000435,130.46879770001397,130.46879770001397,130.46879770001397,131.27028319996316,right,1.0,0.7849494999973103,,,,,,,,,,,,,,,,,,,,,,,,,,,,,,,sub-135,3.0,random_dot,59.99545233802225,
left,left,speed,,,,,0.0,0.0,0.0,1.0,11.0,0.0,22.0,0.0,131.28559860005043,,,,,,,,,131.2726298000198,131.63667330006135,132.45235500007402,132.43704900005832,132.43709640007,132.45235500007402,132.45235500007402,132.45235500007402,133.01924310007598,left,1.0,0.5601534999441355,,,,,,,,,,,,,,,,,,,,,,,,,,,,,,,sub-135,3.0,random_dot,59.99545233802225,
right,right,speed,,,,,0.0,0.0,0.0,1.0,11.0,1.0,23.0,1.0,133.03401750000194,,,,,,,,,133.0214246000396,133.38526670006104,134.20013870007824,134.1847826000303,134.1848208999727,134.20013870007824,134.20013870007824,134.20013870007824,134.7026702000294,right,1.0,0.492516899947077,,,,,,,,,,,,,,,,,,,,,,,,,,,,,,,sub-135,3.0,random_dot,59.99545233802225,
right,right,speed,,,,,0.0,0.0,0.0,1.0,12.0,0.0,24.0,1.0,134.71641590003856,,,,,,,,,134.7048846000107,135.91710570000578,136.71985290001612,136.7017395000439,136.70182069996372,136.71985290001612,136.71985290001612,136.71985290001612,137.4833440000657,right,1.0,0.7534955000737682,,,,,,,,,,,,,,,,,,,,,,,,,,,,,,,sub-135,3.0,random_dot,59.99545233802225,
left,left,speed,,,,,0.0,0.0,0.0,1.0,12.0,1.0,25.0,0.0,137.4979698000243,,,,,,,,,137.48686900001485,137.84921050001867,138.66373220004607,138.64876550005283,138.64882180001587,138.66373220004607,138.66373220004607,138.66373220004607,139.32075590000022,left,1.0,0.6510665999958292,,,,,,,,,,,,,,,,,,,,,,,,,,,,,,,sub-135,3.0,random_dot,59.99545233802225,
left,left,speed,,,,,0.0,0.0,0.0,1.0,13.0,0.0,26.0,0.0,139.33226970001124,,,,,,,,,139.3242867999943,140.13093790004496,140.9332032999955,140.9156710000243,140.91575929999817,140.9332032999955,140.9332032999955,140.9332032999955,141.58395430003293,left,1.0,0.6446340000256896,,,,,,,,,,,,,,,,,,,,,,,,,,,,,,,sub-135,3.0,random_dot,59.99545233802225,
right,right,speed,,,,,0.0,0.0,0.0,1.0,13.0,1.0,27.0,1.0,141.5972939999774,,,,,,,,,141.5888350000605,141.69676149997397,142.51108950003982,142.48226049996447,142.48231510003097,142.51108950003982,142.51108950003982,142.51108950003982,143.11760620004495,right,1.0,0.5876952999969944,,,,,,,,,,,,,,,,,,,,,,,,,,,,,,,sub-135,3.0,random_dot,59.99545233802225,
right,right,speed,,,,,0.0,0.0,0.0,1.0,14.0,0.0,28.0,1.0,143.13113690004684,,,,,,,,,143.12383609998506,143.478897199966,144.29280890000518,144.2637790000299,144.2638543000212,144.29280890000518,144.29280890000518,144.29280890000518,144.68300449999515,left,0.0,0.3732249999884516,,,,,,,,,,,,,,,,,,,,,,,,,,,,,,,sub-135,3.0,random_dot,59.99545233802225,
left,left,speed,,,,,0.0,0.0,0.0,1.0,14.0,1.0,29.0,0.0,144.69614500005264,,,,,,,,,144.6874223999912,145.04424990003463,145.8581959999865,145.8428433999652,145.8428869000636,145.8581959999865,145.8581959999865,145.8581959999865,146.56050670007244,left,1.0,0.6867711999220774,,,,,,,,,,,,,,,,,,,,,,,,,,,,,,,sub-135,3.0,random_dot,59.99545233802225,
left,left,speed,,,,,0.0,0.0,0.0,1.0,15.0,0.0,30.0,0.0,146.57509960001337,,,,,,,,,146.56281120004132,146.6769938999787,147.49206239997875,147.47706720000133,147.47711600002367,147.49206239997875,147.49206239997875,147.49206239997875,148.15915249998216,left,1.0,0.6650710999965668,,,,,,,,,,,,,,,,,,,,,,,,,,,,,,,sub-135,3.0,random_dot,59.99545233802225,
right,right,speed,,,,,0.0,0.0,0.0,1.0,15.0,1.0,31.0,1.0,148.17348960007075,,,,,,,,,148.16096000000834,149.3751387000084,150.17672340001445,150.15953509998508,150.15959270007443,150.17672340001445,150.17672340001445,150.17672340001445,150.9425885999808,right,1.0,0.7595349999610335,,,,,,,,,,,,,,,,,,,,,,,,,,,,,,,sub-135,3.0,random_dot,59.99545233802225,
right,right,speed,,,,,0.0,0.0,0.0,1.0,16.0,0.0,32.0,1.0,150.9555480000563,,,,,,,,,150.94510949996766,151.30730540002696,152.12218700000085,152.1059689000249,152.1060160000343,152.12218700000085,152.12218700000085,152.12218700000085,152.92327330005355,right,1.0,0.7855574999703094,,,,,,,,,,,,,,,,,,,,,,,,,,,,,,,sub-135,3.0,random_dot,59.99545233802225,
left,left,speed,,,,,0.0,0.0,0.0,1.0,16.0,1.0,33.0,0.0,152.93773250002414,,,,,,,,,152.9267538000131,153.03767740004696,153.8438491000561,153.8250105000334,153.82509100006428,153.8438491000561,153.8438491000561,153.8438491000561,154.4259510000702,left,1.0,0.5706734000705183,,,,,,,,,,,,,,,,,,,,,,,,,,,,,,,sub-135,3.0,random_dot,59.99545233802225,
left,left,speed,,,,,0.0,0.0,0.0,1.0,17.0,0.0,34.0,0.0,154.44024749996606,,,,,,,,,154.4298329000594,155.63745320006274,156.43836709996685,156.42193409998436,156.42199210007675,156.43836709996685,156.43836709996685,156.43836709996685,157.1245009000413,right,0.0,0.6685775000369176,,,,,,,,,,,,,,,,,,,,,,,,,,,,,,,sub-135,3.0,random_dot,59.99545233802225,
right,right,speed,,,,,0.0,0.0,0.0,1.0,17.0,1.0,35.0,1.0,157.1377371000126,,,,,,,,,157.1290477999719,157.23590970004443,158.0379223000491,158.0209875999717,158.02104750007857,158.0379223000491,158.0379223000491,158.0379223000491,158.68581479997374,right,1.0,0.6370982000371441,,,,,,,,,,,,,,,,,,,,,,,,,,,,,,,sub-135,3.0,random_dot,59.99545233802225,
right,right,speed,,,,,0.0,0.0,0.0,1.0,18.0,0.0,36.0,1.0,158.7005460000364,,,,,,,,,158.688339299988,159.9011927000247,160.70563139999285,160.6861293000402,160.6862175000133,160.70563139999285,160.70563139999285,160.70563139999285,161.35374439996667,right,1.0,0.6426923000253737,,,,,,,,,,,,,,,,,,,,,,,,,,,,,,,sub-135,3.0,random_dot,59.99545233802225,
left,left,speed,,,,,0.0,0.0,0.0,1.0,18.0,1.0,37.0,0.0,161.36816399998497,,,,,,,,,161.35888830001932,161.71664130000863,162.5175715000369,162.50138250004966,162.50144300004467,162.5175715000369,162.5175715000369,162.5175715000369,163.11719120002817,left,1.0,0.5918931999476627,,,,,,,,,,,,,,,,,,,,,,,,,,,,,,,sub-135,3.0,random_dot,59.99545233802225,
left,left,speed,,,,,0.0,0.0,0.0,1.0,19.0,0.0,38.0,0.0,163.13094750000164,,,,,,,,,163.11985650006682,164.331003600033,165.13034989999142,165.115692100022,165.11574430007022,165.13034989999142,165.13034989999142,165.13034989999142,165.74727160006296,right,0.0,0.6112173999426886,,,,,,,,,,,,,,,,,,,,,,,,,,,,,,,sub-135,3.0,random_dot,59.99545233802225,
right,right,speed,,,,,0.0,0.0,0.0,1.0,19.0,1.0,39.0,1.0,165.7619107000064,,,,,,,,,165.7497643000679,166.96338329999708,167.77777450007852,167.7624565999722,167.7624944000272,167.77777450007852,167.77777450007852,167.77777450007852,168.66558090003673,left,0.0,0.8701908000512049,,,,,,,,,,,,,,,,,,,,,,,,,,,,,,,sub-135,3.0,random_dot,59.99545233802225,
right,right,speed,,,,,0.0,0.0,0.0,1.0,20.0,0.0,40.0,1.0,168.68026579997968,,,,,,,,,168.6714931000024,169.4781197999837,170.2928091000067,170.2775520000141,170.27758970006835,170.2928091000067,170.2928091000067,170.2928091000067,170.9291632999666,right,1.0,0.6303397000301629,,,,,,,,,,,,,,,,,,,,,,,,,,,,,,,sub-135,3.0,random_dot,59.99545233802225,
left,left,speed,,,,,0.0,0.0,0.0,1.0,20.0,1.0,41.0,0.0,170.9425004000077,,,,,,,,,170.93167179997545,171.74333540000953,172.54546260007191,172.52854099997785,172.5286289000651,172.54546260007191,172.54546260007191,172.54546260007191,173.1173034000676,left,1.0,0.5607852000975981,,,,,,,,,,,,,,,,,,,,,,,,,,,,,,,sub-135,3.0,random_dot,59.99545233802225,
left,left,speed,,,,,0.0,0.0,0.0,1.0,21.0,0.0,42.0,0.0,173.1307439999655,,,,,,,,,173.12357820000034,173.9259100999916,174.740065400023,174.72453450004105,174.72461360006128,174.740065400023,174.740065400023,174.740065400023,181.07020349998493,left,1.0,6.313417299999856,,,,,,179.7378108999692,,,,,,,,,,,,,,,,,,,,,,,,,sub-135,3.0,random_dot,59.99545233802225,
right,right,speed,,,,,0.0,0.0,0.0,1.0,21.0,1.0,43.0,1.0,181.0851790000452,,,,,,,,,181.0724068999989,181.43702249997293,182.2515856999671,182.23622870002876,182.236282399972,182.2515856999671,182.2515856999671,182.2515856999671,183.70307180006057,right,1.0,1.4472998999990525,,,,,,,,,,,,,,,,,,,,,,,,,,,,,,,sub-135,3.0,random_dot,59.99545233802225,
right,right,speed,,,,,0.0,0.0,0.0,1.0,22.0,0.0,44.0,1.0,183.7172493999824,,,,,,,,,183.70600640005432,184.5181068000384,185.3183333000634,185.3024957000744,185.3025452999864,185.3183333000634,185.3183333000634,185.3183333000634,186.79058909998275,left,0.0,1.456214200006798,,,,,,,,,,,,,,,,,,,,,,,,,,,,,,,sub-135,3.0,random_dot,59.99545233802225,
left,left,speed,,,,,0.0,0.0,0.0,1.0,22.0,1.0,45.0,0.0,186.80271309998352,,,,,,,,,186.79542229999788,187.59959030000027,188.4148353000637,188.40001840004695,188.4000839999644,188.4148353000637,188.4148353000637,188.4148353000637,189.6830427000532,left,1.0,1.259174800012261,,,,,,,,,,,,,,,,,,,,,,,,,,,,,,,sub-135,3.0,random_dot,59.99545233802225,
left,left,speed,,,,,0.0,0.0,0.0,1.0,23.0,0.0,46.0,0.0,189.6970304000424,,,,,,,,,189.68602979998104,190.89759239996783,191.7120614000596,191.6966423999984,191.69670510001012,191.7120614000596,191.7120614000596,191.7120614000596,193.0134348999709,left,1.0,1.2903883999679238,,,,,,,,,,,,,,,,,,,,,,,,,,,,,,,sub-135,3.0,random_dot,59.99545233802225,
right,right,speed,,,,,0.0,0.0,0.0,1.0,23.0,1.0,47.0,1.0,193.02769839996472,,,,,,,,,193.01599720004012,194.2288734000176,195.0431681000628,195.0280429000268,195.0280983999837,195.0431681000628,195.0431681000628,195.0431681000628,196.6124059000285,right,1.0,1.5571340000024063,,,,,,,,,,,,,,,,,,,,,,,,,,,,,,,sub-135,3.0,random_dot,59.99545233802225,
right,right,speed,,,,,0.0,0.0,0.0,1.0,24.0,0.0,48.0,1.0,196.62522579997312,,,,,,,,,196.61453450005504,197.426349000074,198.2274264000589,198.21063420001883,198.2106956000207,198.2274264000589,198.2274264000589,198.2274264000589,199.9596545000095,right,1.0,1.718120799981989,,,,,,,,,,,,,,,,,,,,,,,,,,,,,,,sub-135,3.0,random_dot,59.99545233802225,
left,left,speed,,,,,0.0,0.0,0.0,1.0,24.0,1.0,49.0,0.0,199.97404920007105,,,,,,,,,199.9631564000156,200.07391540007663,200.87358260003384,200.8585877000587,200.8586557999952,200.87358260003384,200.87358260003384,200.87358260003384,202.92432069999631,left,1.0,2.0328689999878407,,,,,,,,,,,,,,,,,,,,,,,,,,,,,,,sub-135,3.0,random_dot,59.99545233802225,
left,left,speed,,,,,0.0,0.0,0.0,1.0,25.0,0.0,50.0,0.0,202.93855720001736,,,,,,,,,202.92726520006545,204.1384058999829,204.94049429998267,204.92287120001856,204.92293310002424,204.94049429998267,204.94049429998267,204.94049429998267,206.47324760002084,left,1.0,1.520358799956739,,,,,,,,,,,,,,,,,,,,,,,,,,,,,,,sub-135,3.0,random_dot,59.99545233802225,
right,right,speed,,,,,0.0,0.0,0.0,1.0,25.0,1.0,51.0,1.0,206.48646160005592,,,,,,,,,206.47661820007488,206.83625449996907,207.6354890000075,207.62080819997936,207.62086190003905,207.6354890000075,207.6354890000075,207.6354890000075,210.7396269000601,right,1.0,3.089805099996738,,,,,,,,,,,,,,,,,,,,,,,,,,,,,,,sub-135,3.0,random_dot,59.99545233802225,
left,left,speed,,,,,0.0,0.0,0.0,1.0,26.0,0.0,52.0,0.0,210.7516772999661,,,,,,,,,210.7444624999771,210.8505976999877,211.65411020000465,211.6353044999996,211.6353870000457,211.65411020000465,211.65411020000465,211.65411020000465,215.58393540000543,left,1.0,3.9203409999608994,,,,,,,,,,,,,,,,,,,,,,,,,,,,,,,sub-135,3.0,random_dot,59.99545233802225,
right,right,speed,,,,,0.0,0.0,0.0,1.0,26.0,1.0,53.0,1.0,215.59759380004837,,,,,,,,,215.58775110007264,215.69711199996527,216.49724160006733,216.4816805999726,216.48175510007425,216.49724160006733,216.49724160006733,216.49724160006733,217.1366035999963,right,1.0,0.627699900069274,,,,,,,,,,,,,,,,,,,,,,,,,,,,,,,sub-135,3.0,random_dot,59.99545233802225,
right,right,speed,,,,,0.0,0.0,0.0,1.0,27.0,0.0,54.0,1.0,217.14788619999308,,,,,,,,,217.14091600000395,217.2470419000601,218.06308350001927,218.0480816999916,218.04815689998213,218.06308350001927,218.06308350001927,218.06308350001927,218.74899190000724,right,1.0,0.677186300046742,,,,,,,,,,,,,,,,,,,,,,,,,,,,,,,sub-135,3.0,random_dot,59.99545233802225,
left,left,speed,,,,,0.0,0.0,0.0,1.0,27.0,1.0,55.0,0.0,218.7615341000492,,,,,,,,,218.75363310007376,218.86159650003535,219.66185669996776,219.6466233000392,219.6466781999916,219.66185669996776,219.66185669996776,219.66185669996776,220.61399320000783,right,0.0,0.9434431999688968,,,,,,,,,,,,,,,,,,,,,,,,,,,,,,,sub-135,3.0,random_dot,59.99545233802225,
right,right,speed,,,,,0.0,0.0,0.0,1.0,28.0,0.0,56.0,1.0,220.6269182000542,,,,,,,,,220.6176611999981,220.97706710000057,221.77753940003456,221.76214210002215,221.7622138999868,221.77753940003456,221.77753940003456,221.77753940003456,222.8308797000209,right,1.0,1.0394869999727234,,,,,,,,,,,,,,,,,,,,,,,,,,,,,,,sub-135,3.0,random_dot,59.99545233802225,
left,left,speed,,,,,0.0,0.0,0.0,1.0,28.0,1.0,57.0,0.0,222.8432507000398,,,,,,,,,222.8349894999992,224.04228250007145,224.84645980002824,224.828133400064,224.82819160004144,224.84645980002824,224.84645980002824,224.84645980002824,225.70815289998427,left,1.0,0.8450022999895737,,,,,,,,,,,,,,,,,,,,,,,,,,,,,,,sub-135,3.0,random_dot,59.99545233802225,
right,right,speed,,,,,0.0,0.0,0.0,1.0,29.0,0.0,58.0,1.0,225.72281120007392,,,,,,,,,225.7110304000089,225.8240679000737,226.6229505999945,226.60870290000457,226.60877050005365,226.6229505999945,226.6229505999945,226.6229505999945,227.172330899979,right,1.0,0.5396121001103893,,,,,,,,,,,,,,,,,,,,,,,,,,,,,,,sub-135,3.0,random_dot,59.99545233802225,
left,left,speed,,,,,0.0,0.0,0.0,1.0,29.0,1.0,59.0,0.0,227.1876978999935,,,,,,,,,227.17422789998815,227.9727129000239,228.77193060005084,228.75684270006604,228.7568902000785,228.77193060005084,228.77193060005084,228.77193060005084,229.35838600003623,left,1.0,0.5748790999641642,,,,,,,,,,,,,,,,,,,,,,,,,,,,,,,sub-135,3.0,random_dot,59.99545233802225,
,,speed,,,,,0.0,0.0,0.0,1.0,,,,,,,,,,,,,,,,,,,,,,,,,,,,,,,,,,,,,,,,,,,,,,,,,,,,,,,,sub-135,3.0,random_dot,59.99545233802225,
right,right,accuracy,,,,,0.0,1.0,1.0,0.0,0.0,0.0,0.0,1.0,231.20701230003036,,,,,,,,,231.2002156999661,231.27078460005575,232.07301579997875,232.0556202000007,232.05572279996704,232.07301579997875,232.07301579997875,232.07301579997875,233.2541192000499,left,0.0,1.1740462000016123,,,,,,,,,,,,,,,,,,,,,229.36213779996612,229.41340590000615,229.41340590000615,231.1575044000056,space,1.726167400018312,,,,,sub-135,3.0,random_dot,59.99545233802225,
left,left,accuracy,,,,,0.0,1.0,1.0,0.0,0.0,1.0,1.0,0.0,233.26789879996795,,,,,,,,,233.2572392000584,233.6189045000356,234.4183483000379,234.4030294000404,234.40307790006045,234.4183483000379,234.4183483000379,234.4183483000379,234.686306699994,right,0.0,0.2648866000818088,,,,,,,,,,,,,,,,,,,,,,,,,,,,,,,sub-135,3.0,random_dot,59.99545233802225,
right,right,accuracy,,,,,0.0,1.0,1.0,0.0,1.0,0.0,2.0,1.0,234.6999179000268,,,,,,,,,234.6882568000583,235.50108289998025,236.3046468000393,236.2860156999668,236.28613310004584,236.3046468000393,236.3046468000393,236.3046468000393,236.60548020002895,right,1.0,0.2937622000463307,,,,,,,,,,,,,,,,,,,,,,,,,,,,,,,sub-135,3.0,random_dot,59.99545233802225,
left,left,accuracy,,,,,0.0,1.0,1.0,0.0,1.0,1.0,3.0,0.0,236.61775810003743,,,,,,,,,236.6101010000566,237.81639260007069,238.61817630007863,238.6012031000573,238.60126839997247,238.61817630007863,238.61817630007863,238.61817630007863,239.35499030002396,left,1.0,0.7214187999488786,,,,,,,,,,,,,,,,,,,,,,,,,,,,,,,sub-135,3.0,random_dot,59.99545233802225,
right,right,accuracy,,,,,0.0,1.0,1.0,0.0,2.0,0.0,4.0,1.0,239.36627330002372,,,,,,,,,239.35931750002783,240.5647781000007,241.36570720002052,241.34931920003143,241.34941140003505,241.36570720002052,241.36570720002052,241.36570720002052,242.44718710007143,right,1.0,1.0663576000370083,,,,,,,,,,,,,,,,,,,,,,,,,,,,,,,sub-135,3.0,random_dot,59.99545233802225,
left,left,accuracy,,,,,0.0,1.0,1.0,0.0,2.0,1.0,5.0,0.0,242.4620754000498,,,,,,,,,242.45050200005065,243.26272230001632,244.06699520000257,244.0475022000028,244.04758270003367,244.06699520000257,244.06699520000257,244.06699520000257,244.79532719997223,left,1.0,0.7199857999803498,,,,,,,,,,,,,,,,,,,,,,,,,,,,,,,sub-135,3.0,random_dot,59.99545233802225,
right,right,accuracy,,,,,0.0,1.0,1.0,0.0,3.0,0.0,6.0,1.0,244.81010350002907,,,,,,,,,244.79785910004284,246.01082349999345,246.81330569996496,246.7958991000196,246.79596030001997,246.81330569996496,246.81330569996496,246.81330569996496,247.7776404999895,right,1.0,0.9605503000784664,,,,,,,,,,,,,,,,,,,,,,,,,,,,,,,sub-135,3.0,random_dot,59.99545233802225,
left,left,accuracy,,,,,0.0,1.0,1.0,0.0,3.0,1.0,7.0,0.0,247.7914308999898,,,,,,,,,247.78128890006337,248.5925381999696,249.3954966000747,249.37869859999049,249.37878460006323,249.3954966000747,249.3954966000747,249.3954966000747,249.94309189997148,right,0.0,0.5361887000035495,,,,,,,,,,,,,,,,,,,,,,,,,,,,,,,sub-135,3.0,random_dot,59.99545233802225,
right,right,accuracy,,,,,0.0,1.0,1.0,0.0,4.0,0.0,8.0,1.0,249.95849129999988,,,,,,,,,249.9463646999793,251.1564733000705,251.97234610002488,251.9569337000139,251.95699039998,251.97234610002488,251.97234610002488,251.97234610002488,252.2582904000301,right,1.0,0.2834776999661699,,,,,,,,,,,,,,,,,,,,,,,,,,,,,,,sub-135,3.0,random_dot,59.99545233802225,
left,left,accuracy,,,,,0.0,1.0,1.0,0.0,4.0,1.0,9.0,0.0,252.27170769998335,,,,,,,,,252.2606974999653,252.62335360003635,253.43775789998472,253.4223160999827,253.42235410003923,253.43775789998472,253.43775789998472,253.43775789998472,253.7754965999629,left,1.0,0.330275599961169,,,,,,,,,,,,,,,,,,,,,,,,,,,,,,,sub-135,3.0,random_dot,59.99545233802225,
left,left,accuracy,,,,,0.0,1.0,1.0,0.0,5.0,0.0,10.0,0.0,253.78830800007563,,,,,,,,,253.77896719996352,253.88843250006903,254.68851400003769,254.67301070003305,254.67306469997857,254.68851400003769,254.68851400003769,254.68851400003769,254.87396650004663,right,0.0,0.1722386999754235,,,,,,,,,,,,,,,,,,,,,,,,,,,,,,,sub-135,3.0,random_dot,59.99545233802225,
right,right,accuracy,,,,,0.0,1.0,1.0,0.0,5.0,1.0,11.0,1.0,254.88801880006213,,,,,,,,,254.87712610000744,255.68744330003392,256.4873054000782,256.4717531000497,256.4718068999937,256.4873054000782,256.4873054000782,256.4873054000782,256.75354519998655,right,1.0,0.2606197000714019,,,,,,,,,,,,,,,,,,,,,,,,,,,,,,,sub-135,3.0,random_dot,59.99545233802225,
right,right,accuracy,,,,,0.0,1.0,1.0,0.0,6.0,0.0,12.0,1.0,256.7680751000298,,,,,,,,,256.755248200032,257.5700628000777,258.3700200000312,258.35441899998114,258.3544732000446,258.3700200000312,258.3700200000312,258.3700200000312,259.8526694000466,right,1.0,1.4774155999766665,,,,,,,,,,,,,,,,,,,,,,,,,,,,,,,sub-135,3.0,random_dot,59.99545233802225,
left,left,accuracy,,,,,0.0,1.0,1.0,0.0,6.0,1.0,13.0,0.0,259.86668099998496,,,,,,,,,259.85486239998136,260.21719290001784,261.01659200002905,261.0014086000156,261.00146040006075,261.01659200002905,261.01659200002905,261.01659200002905,264.0217442000285,right,0.0,2.9960439999122173,,,,,,,,,,,,,,,,,,,,,,,,,,,,,,,sub-135,3.0,random_dot,59.99545233802225,
left,left,accuracy,,,,,0.0,1.0,1.0,0.0,7.0,0.0,14.0,0.0,264.0336047000019,,,,,,,,,264.0252608000301,264.1334552000044,264.94766780000646,264.93105290003587,264.9310907999752,264.94766780000646,264.94766780000646,264.94766780000646,269.2449322000612,left,1.0,4.285571400076151,,,,,,,,,,,,,,,,,,,,,,,,,,,,,,,sub-135,3.0,random_dot,59.99545233802225,
right,right,accuracy,,,,,0.0,1.0,1.0,0.0,7.0,1.0,15.0,1.0,269.2602607000153,,,,,,,,,269.2481040999992,270.4590628000442,271.26213749998715,271.2454759000102,271.24552340002265,271.26213749998715,271.26213749998715,271.26213749998715,271.78058030002285,right,1.0,0.5051182999741286,,,,,,,,,,,,,,,,,,,,,,,,,,,,,,,sub-135,3.0,random_dot,59.99545233802225,
right,right,accuracy,,,,,0.0,1.0,1.0,0.0,8.0,0.0,16.0,1.0,271.794590500067,,,,,,,,,271.7847684000153,272.5945014000172,273.4120228000684,273.39576450001914,273.39582350000273,273.4120228000684,273.4120228000684,273.4120228000684,275.29559470003005,left,0.0,1.8707080000313,,,,,,,,,,,,,,,,,,,,,,,,,,,,,,,sub-135,3.0,random_dot,59.99545233802225,
left,left,accuracy,,,,,0.0,1.0,1.0,0.0,8.0,1.0,17.0,0.0,275.3095741000725,,,,,,,,,275.3005751000019,275.65930309996475,276.4758155000163,276.4594236999983,276.4595597999869,276.4758155000163,276.4758155000163,276.4758155000163,277.65747360000387,left,1.0,1.1729631000198424,,,,,,,,,,,,,,,,,,,,,,,,,,,,,,,sub-135,3.0,random_dot,59.99545233802225,
right,right,accuracy,,,,,0.0,1.0,1.0,0.0,9.0,0.0,18.0,1.0,277.67151730007026,,,,,,,,,277.65959729999304,278.4729254000122,279.2738309999695,279.25759350007866,279.2576716999756,279.2738309999695,279.2738309999695,279.2738309999695,279.9059409999754,right,1.0,0.6282361000776291,,,,,,,,,,,,,,,,,,,,,,,,,,,,,,,sub-135,3.0,random_dot,59.99545233802225,
left,left,accuracy,,,,,0.0,1.0,1.0,0.0,9.0,1.0,19.0,0.0,279.9202862000093,,,,,,,,,279.9091994999908,280.72175680007786,281.5355500000296,281.5195719000185,281.519615600002,281.5355500000296,281.5355500000296,281.5355500000296,282.58778469997924,left,1.0,1.049872300005518,,,,,,,,,,,,,,,,,,,,,,,,,,,,,,,sub-135,3.0,random_dot,59.99545233802225,
left,left,accuracy,,,,,0.0,1.0,1.0,0.0,10.0,0.0,20.0,0.0,282.6016025000717,,,,,,,,,282.5899117999943,282.70230190001894,283.5016911000712,283.4870573000517,283.4871236999752,283.5016911000712,283.5016911000712,283.5016911000712,285.3034784999909,right,0.0,1.797583399922587,,,,,,,,,,,,,,,,,,,,,,,,,,,,,,,sub-135,3.0,random_dot,59.99545233802225,
right,right,accuracy,,,,,0.0,1.0,1.0,0.0,10.0,1.0,21.0,1.0,285.3172840999905,,,,,,,,,285.30646069999784,286.5172842000611,287.3194129000185,287.3018666000571,287.3019309999654,287.3194129000185,287.3194129000185,287.3194129000185,289.11599459999707,right,1.0,1.7908475999720397,,,,,,,,,,,,,,,,,,,,,,,,,,,,,,,sub-135,3.0,random_dot,59.99545233802225,
right,right,accuracy,,,,,0.0,1.0,1.0,0.0,11.0,0.0,22.0,1.0,289.1312831999967,,,,,,,,,289.1180094999727,289.93396150006447,290.74977610004134,290.7330365000525,290.7331028999761,290.74977610004134,290.74977610004134,290.74977610004134,291.8202949999832,right,1.0,1.0599302999908105,,,,,,,,,,,,,,,,,,,,,,,,,,,,,,,sub-135,3.0,random_dot,59.99545233802225,
left,left,accuracy,,,,,0.0,1.0,1.0,0.0,11.0,1.0,23.0,0.0,291.8332769999979,,,,,,,,,291.82575229997747,291.93067600007635,292.745778099983,292.7295461000176,292.72960289998446,292.745778099983,292.745778099983,292.745778099983,293.5123655999778,left,1.0,0.7509088999358937,,,,,,,,,,,,,,,,,,,,,,,,,,,,,,,sub-135,3.0,random_dot,59.99545233802225,
right,right,accuracy,,,,,0.0,1.0,1.0,0.0,12.0,0.0,24.0,1.0,293.52734600007534,,,,,,,,,293.5144317999948,293.6288418000331,294.4283018000424,294.4131723999744,294.4132200999884,294.4283018000424,294.4283018000424,294.4283018000424,295.1284374999814,right,1.0,0.690529300016351,,,,,,,,,,,,,,,,,,,,,,,,,,,,,,,sub-135,3.0,random_dot,59.99545233802225,
left,left,accuracy,,,,,0.0,1.0,1.0,0.0,12.0,1.0,25.0,0.0,295.14321910007857,,,,,,,,,295.13087090000045,295.4943642000435,296.29697110003326,296.28003490006085,296.28013580001425,296.29697110003326,296.29697110003326,296.29697110003326,298.57711509999353,left,1.0,2.2764045000076294,,,,,,,,,,,,,,,,,,,,,,,,,,,,,,,sub-135,3.0,random_dot,59.99545233802225,
left,left,accuracy,,,,,0.0,1.0,1.0,0.0,13.0,0.0,26.0,0.0,298.5912226999644,,,,,,,,,298.5794308000477,298.9400828999933,299.7411592999706,299.7266156000551,299.7266840999946,299.7411592999706,299.7411592999706,299.7411592999706,300.5112643999746,right,0.0,0.7578725999919698,,,,,,,,,,,,,,,,,,,,,,,,,,,,,,,sub-135,3.0,random_dot,59.99545233802225,
right,right,accuracy,,,,,0.0,1.0,1.0,0.0,13.0,1.0,27.0,1.0,300.5243462000508,,,,,,,,,300.5164153999649,301.3244958000723,302.13901460007764,302.1234469000483,302.1234863999998,302.13901460007764,302.13901460007764,302.13901460007764,302.7572193000233,left,0.0,0.6093579999869689,,,,,,,,,,,,,,,,,,,,,,,,,,,,,,,sub-135,3.0,random_dot,59.99545233802225,
left,left,accuracy,,,,,0.0,1.0,1.0,0.0,14.0,0.0,28.0,0.0,302.7722110999748,,,,,,,,,302.7594921999844,303.1224771999987,303.92168010002933,303.9069505999796,303.9069979999913,303.92168010002933,303.92168010002933,303.92168010002933,304.07552279997617,left,1.0,0.1504413000075146,,,,,,,,,,,,,,,,,,,,,,,,,,,,,,,sub-135,3.0,random_dot,59.99545233802225,
right,right,accuracy,,,,,0.0,1.0,1.0,0.0,14.0,1.0,29.0,1.0,304.08842809998896,,,,,,,,,304.0787261000369,304.18840650003403,304.9882764000213,304.9729628000641,304.97301259997766,304.9882764000213,304.9882764000213,304.9882764000213,305.2243581999792,right,1.0,0.2179076999891549,,,,,,,,,,,,,,,,,,,,,,,,,,,,,,,sub-135,3.0,random_dot,59.99545233802225,
left,left,accuracy,,,,,0.0,1.0,1.0,0.0,15.0,0.0,30.0,0.0,305.23766600003,,,,,,,,,305.2278504000278,306.037792099989,306.85222060000524,306.8374128000578,306.83745400002226,306.85222060000524,306.85222060000524,306.85222060000524,307.2866015000036,right,0.0,0.426114400033839,,,,,,,,,,,,,,,,,,,,,,,,,,,,,,,sub-135,3.0,random_dot,59.99545233802225,
right,right,accuracy,,,,,0.0,1.0,1.0,0.0,15.0,1.0,31.0,1.0,307.301790800062,,,,,,,,,307.2897388000274,308.50280790007673,309.30490260000806,309.28731779998634,309.28740060003474,309.30490260000806,309.30490260000806,309.30490260000806,309.58724630007055,left,0.0,0.2752768999198451,,,,,,,,,,,,,,,,,,,,,,,,,,,,,,,sub-135,3.0,random_dot,59.99545233802225,
right,right,accuracy,,,,,0.0,1.0,1.0,0.0,16.0,0.0,32.0,1.0,309.6007102000294,,,,,,,,,309.590796399978,309.7019891999662,310.505615400034,310.48679530003574,310.4868759000674,310.505615400034,310.505615400034,310.505615400034,310.7852753000334,right,1.0,0.2741251999977976,,,,,,,,,,,,,,,,,,,,,,,,,,,,,,,sub-135,3.0,random_dot,59.99545233802225,
left,left,accuracy,,,,,0.0,1.0,1.0,0.0,16.0,1.0,33.0,0.0,310.79911490005907,,,,,,,,,310.78715870005544,310.90177500003483,311.7190307000419,311.7021134999813,311.70218600006774,311.7190307000419,311.7190307000419,311.7190307000419,313.4346359000774,left,1.0,1.7035486000822857,,,,,,,,,,,,,,,,,,,,,,,,,,,,,,,sub-135,3.0,random_dot,59.99545233802225,
right,right,accuracy,,,,,0.0,1.0,1.0,0.0,17.0,0.0,34.0,1.0,313.44867349998094,,,,,,,,,313.4374800999649,313.79837370000314,314.5978748999769,314.5825477000326,314.58259100001305,314.5978748999769,314.5978748999769,314.5978748999769,314.9171195999952,right,1.0,0.3110836999258026,,,,,,,,,,,,,,,,,,,,,,,,,,,,,,,sub-135,3.0,random_dot,59.99545233802225,
left,left,accuracy,,,,,0.0,1.0,1.0,0.0,17.0,1.0,35.0,0.0,314.9310349000152,,,,,,,,,314.92046709998976,316.13103180006146,316.9456138999667,316.9307681999635,316.93082860007416,316.9456138999667,316.9456138999667,316.9456138999667,317.68056710006204,left,1.0,0.7255314999492839,,,,,,,,,,,,,,,,,,,,,,,,,,,,,,,sub-135,3.0,random_dot,59.99545233802225,
left,left,accuracy,,,,,0.0,1.0,1.0,0.0,18.0,0.0,36.0,0.0,317.69526010006666,,,,,,,,,317.6828742000507,317.7961307000369,318.5953238999937,318.5807291000383,318.5808181000175,318.5953238999937,318.5953238999937,318.5953238999937,319.07977040007245,right,0.0,0.4697776000248268,,,,,,,,,,,,,,,,,,,,,,,,,,,,,,,sub-135,3.0,random_dot,59.99545233802225,
right,right,accuracy,,,,,0.0,1.0,1.0,0.0,18.0,1.0,37.0,1.0,319.0942874000175,,,,,,,,,319.08240600000136,320.2950301000383,321.1090285000392,321.0931788000744,321.09321299998555,321.1090285000392,321.1090285000392,321.1090285000392,323.9839509000303,left,0.0,2.870014499989338,,,,,,,,,,,,,,,,,,,,,,,,,,,,,,,sub-135,3.0,random_dot,59.99545233802225,
left,left,accuracy,,,,,0.0,1.0,1.0,0.0,19.0,0.0,38.0,0.0,323.996947000036,,,,,,,,,323.9893615000183,324.7925051000202,325.60628639999777,325.59066139999777,325.59070699999575,325.60628639999777,325.60628639999777,325.60628639999777,326.2424084000522,right,0.0,0.6262250000145286,,,,,,,,,,,,,,,,,,,,,,,,,,,,,,,sub-135,3.0,random_dot,59.99545233802225,
right,right,accuracy,,,,,0.0,1.0,1.0,0.0,19.0,1.0,39.0,1.0,326.25690729997586,,,,,,,,,326.2463352000341,327.0569886000594,327.8583127000602,327.842170799966,327.84222630003933,327.8583127000602,327.8583127000602,327.8583127000602,328.17989180004224,right,1.0,0.3135843999916687,,,,,,,,,,,,,,,,,,,,,,,,,,,,,,,sub-135,3.0,random_dot,59.99545233802225,
left,left,accuracy,,,,,0.0,1.0,1.0,0.0,20.0,0.0,40.0,0.0,328.2048409000272,,,,,,,,,328.18407459999435,328.5393287000479,329.3421588999918,329.3239775999682,329.32404109998606,329.3421588999918,329.3421588999918,329.3421588999918,329.6930772999767,right,0.0,0.347305899951607,,,,,,,,,,,,,,,,,,,,,,,,,,,,,,,sub-135,3.0,random_dot,59.99545233802225,
right,right,accuracy,,,,,0.0,1.0,1.0,0.0,20.0,1.0,41.0,1.0,329.7056486000074,,,,,,,,,329.6968836999731,329.8051191000268,330.60696410003584,330.5902870000573,330.5903526999755,330.60696410003584,330.60696410003584,330.60696410003584,330.9060705000302,right,1.0,0.2961179000558331,,,,,,,,,,,,,,,,,,,,,,,,,,,,,,,sub-135,3.0,random_dot,59.99545233802225,
left,left,accuracy,,,,,0.0,1.0,1.0,0.0,21.0,0.0,42.0,0.0,330.91985499998555,,,,,,,,,330.908313699998,331.7206988000544,332.53583349997643,332.5200604000129,332.5201142000733,332.53583349997643,332.53583349997643,332.53583349997643,333.7092818999663,left,1.0,1.1629944000160322,,,,,,,,,,,,,,,,,,,,,,,,,,,,,,,sub-135,3.0,random_dot,59.99545233802225,
right,right,accuracy,,,,,0.0,1.0,1.0,0.0,21.0,1.0,43.0,1.0,333.72022700007074,,,,,,,,,333.71356339997146,333.81962910003494,334.6379539000336,334.62112879997585,334.6211954000173,334.6379539000336,334.6379539000336,334.6379539000336,336.40151490003336,right,1.0,1.7465987999457866,,,,,,,,,,,,,,,,,,,,,,,,,,,,,,,sub-135,3.0,random_dot,59.99545233802225,
right,right,accuracy,,,,,0.0,1.0,1.0,0.0,22.0,0.0,44.0,1.0,336.41612469998654,,,,,,,,,336.40405670006294,337.61671940004453,338.4183262999868,338.4015870000003,338.4016440999694,338.4183262999868,338.4183262999868,338.4183262999868,339.1843449000735,right,1.0,0.7471805000677705,,,,,,,,,,,,,,,,,,,,,,,,,,,,,,,sub-135,3.0,random_dot,59.99545233802225,
left,left,accuracy,,,,,0.0,1.0,1.0,0.0,22.0,1.0,45.0,0.0,339.1992104999954,,,,,,,,,339.18913090007845,339.998663400067,340.80081370007247,340.78321590006817,340.78329819999635,340.80081370007247,340.80081370007247,340.80081370007247,344.6961099000182,right,0.0,3.8796428999630734,,,,,,,,,,,,,,,,,,,,,,,,,,,,,,,sub-135,3.0,random_dot,59.99545233802225,
right,right,accuracy,,,,,0.0,1.0,1.0,0.0,23.0,0.0,46.0,1.0,344.7107216999866,,,,,,,,,344.69869600003585,345.5117301000282,346.3133810000727,346.2965638000751,346.2966451999964,346.3133810000727,346.3133810000727,346.3133810000727,346.73334929998964,right,1.0,0.4036321999737993,,,,,,,,,,,,,,,,,,,,,,,,,,,,,,,sub-135,3.0,random_dot,59.99545233802225,
left,left,accuracy,,,,,0.0,1.0,1.0,0.0,23.0,1.0,47.0,0.0,346.74508999998216,,,,,,,,,346.73753829998896,347.9432484999997,348.74501890002284,348.7290066999849,348.72906889999285,348.74501890002284,348.74501890002284,348.74501890002284,350.3581314000767,right,0.0,1.6053230999968946,,,,,,,,,,,,,,,,,,,,,,,,,,,,,,,sub-135,3.0,random_dot,59.99545233802225,
left,left,accuracy,,,,,0.0,1.0,1.0,0.0,24.0,0.0,48.0,0.0,350.37331559997983,,,,,,,,,350.36060100002214,350.7239894999657,351.5235856999643,351.5084878000198,351.5085567999631,351.5235856999643,351.5235856999643,351.5235856999643,352.44198930007406,right,0.0,0.9025175999850036,,,,,,,,,,,,,,,,,,,,,,,,,,,,,,,sub-135,3.0,random_dot,59.99545233802225,
right,right,accuracy,,,,,0.0,1.0,1.0,0.0,24.0,1.0,49.0,1.0,352.45651729998644,,,,,,,,,352.44522029999644,352.5559735000133,353.3561668000184,353.34034710004926,353.34040870005265,353.3561668000184,353.3561668000184,353.3561668000184,354.19120410003234,right,1.0,0.8236876999726519,,,,,,,,,,,,,,,,,,,,,,,,,,,,,,,sub-135,3.0,random_dot,59.99545233802225,
right,right,accuracy,,,,,0.0,1.0,1.0,0.0,25.0,0.0,50.0,1.0,354.2048793999711,,,,,,,,,354.19565030001104,355.00322960002813,355.80459730001166,355.7894475000212,355.789506000001,355.80459730001166,355.80459730001166,355.80459730001166,358.08888609998394,left,0.0,2.272391400067136,,,,,,,,,,,,,,,,,,,,,,,,,,,,,,,sub-135,3.0,random_dot,59.99545233802225,
left,left,accuracy,,,,,0.0,1.0,1.0,0.0,25.0,1.0,51.0,0.0,358.10313900001347,,,,,,,,,358.0919624000089,358.4522527999943,359.25503810006194,359.2378986000549,359.2379576000385,359.25503810006194,359.25503810006194,359.25503810006194,359.8032726000529,right,0.0,0.545233300072141,,,,,,,,,,,,,,,,,,,,,,,,,,,,,,,sub-135,3.0,random_dot,59.99545233802225,
left,left,accuracy,,,,,0.0,1.0,1.0,0.0,26.0,0.0,52.0,0.0,359.8172837999882,,,,,,,,,359.8053935000207,360.61838240001816,361.4206340999808,361.4029955000151,361.4030740000308,361.4206340999808,361.4206340999808,361.4206340999808,361.73386649996974,right,0.0,0.2960025999927893,,,,,,,,,,,,,,,,,,,,,,,,,,,,,,,sub-135,3.0,random_dot,59.99545233802225,
right,right,accuracy,,,,,0.0,1.0,1.0,0.0,26.0,1.0,53.0,1.0,361.7486088000005,,,,,,,,,361.7356078000739,362.53373030002695,363.34842759999447,363.3329201000743,363.3329872000031,363.34842759999447,363.34842759999447,363.34842759999447,363.73353219998535,right,1.0,0.3778511000564322,,,,,,,,,,,,,,,,,,,,,,,,,,,,,,,sub-135,3.0,random_dot,59.99545233802225,
right,right,accuracy,,,,,0.0,1.0,1.0,0.0,27.0,0.0,54.0,1.0,363.74787049996667,,,,,,,,,363.7359988000244,364.5584972000215,365.3643546999665,365.348738700035,365.3487851000391,365.3643546999665,365.3643546999665,365.3643546999665,365.7813517000759,right,1.0,0.4035629999125376,,,,,,,,,,,,,,,,,,,,,,,,,,,,,,,sub-135,3.0,random_dot,59.99545233802225,
left,left,accuracy,,,,,0.0,1.0,1.0,0.0,27.0,1.0,55.0,0.0,365.7970031000441,,,,,,,,,365.78385220002383,365.8983034000266,366.7131623000605,366.697101400001,366.6971432999708,366.7131623000605,366.7131623000605,366.7131623000605,367.0310749000637,right,0.0,0.2993532000109553,,,,,,,,,,,,,,,,,,,,,,,,,,,,,,,sub-135,3.0,random_dot,59.99545233802225,
right,right,accuracy,,,,,0.0,1.0,1.0,0.0,28.0,0.0,56.0,1.0,367.0458078000229,,,,,,,,,367.0337801000569,367.14654970006086,367.9627754000248,367.9462051000446,367.9462420999771,367.9627754000248,367.9627754000248,367.9627754000248,368.06553110003006,right,1.0,0.0959252000320702,,,,,,,,,,,,,,,,,,,,,,,,,,,,,,,sub-135,3.0,random_dot,59.99545233802225,
left,left,accuracy,,,,,0.0,1.0,1.0,0.0,28.0,1.0,57.0,0.0,368.0786797000328,,,,,,,,,368.068721299991,369.2780379999895,370.07754089997616,370.0621994000394,370.0622384999879,370.07754089997616,370.07754089997616,370.07754089997616,370.3794724000618,left,1.0,0.2949018999934196,,,,,,,,,,,,,,,,,,,,,,,,,,,,,,,sub-135,3.0,random_dot,59.99545233802225,
right,right,accuracy,,,,,0.0,1.0,1.0,0.0,29.0,0.0,58.0,1.0,370.39405350002926,,,,,,,,,370.3828021000372,371.5930820000358,372.3925067000091,372.3767077999655,372.3767480000388,372.3925067000091,372.3925067000091,372.3925067000091,372.76140239997767,right,1.0,0.3668464999645948,,,,,,,,,,,,,,,,,,,,,,,,,,,,,,,sub-135,3.0,random_dot,59.99545233802225,
left,left,accuracy,,,,,0.0,1.0,1.0,0.0,29.0,1.0,59.0,0.0,372.7757569999667,,,,,,,,,372.7638930999674,373.97450550005306,374.77402050001547,374.7583197000204,374.7583577000769,374.77402050001547,374.77402050001547,374.77402050001547,375.4932706999825,right,0.0,0.7156942000146955,,,,,,,,,,,,,,,,,,,,,,,,,,,,,,,sub-135,3.0,random_dot,59.99545233802225,
,,accuracy,,,,,0.0,1.0,1.0,0.0,,,,,,,,,,,,,,,,,,,,,,,,,,,,,,,,,,,,,,,,,,,,,,,,,,,,,,,,sub-135,3.0,random_dot,59.99545233802225,
,,,,,,,,,,,,,,,,,,,,,,,,,,,,,,,,,,,,,,,,,,,,,,,,,,,,,,,,,,,,,,,375.49547349999193,375.5077121000504,380.5066463999683,sub-135,,,,
