direction,corrAns,thisN,thisTrialN,thisRepN,respDots.keys,respDots.corr,respDots.rt,respDots.duration,randomInstr,respRandomInstr.keys,respRandomInstr.rt,respRandomInstr.duration,practice_trials.thisRepN,practice_trials.thisTrialN,practice_trials.thisN,practice_trials.thisIndex,instr_trials.thisRepN,instr_trials.thisTrialN,instr_trials.thisN,instr_trials.thisIndex,test_trials.thisRepN,test_trials.thisTrialN,test_trials.thisN,test_trials.thisIndex,thisRow.t,notes,general_instruction.started,textGeneralInstr.started,respGeneralInstr.started,general_instruction.stopped,respGeneralInstr.keys,respGeneralInstr.rt,respGeneralInstr.duration,ITI.started,fixcross.started,fixcross.stopped,ITI.stopped,dots.started,backgroundDots.started,stimulusDots.started,respDots.started,stimulusDots.stopped,dots.stopped,practice_trials.respDots.keys,practice_trials.respDots.corr,practice_trials.respDots.rt,practice_trials.respDots.duration,feedback.started,textFeedback.started,feedback.stopped,textFeedback.stopped,info.started,textInfo.started,keyRespInfo.started,info.stopped,keyRespInfo.keys,keyRespInfo.rt,keyRespInfo.duration,test_instruction.started,textTestInstr.started,respTestInstr.started,test_instruction.stopped,respTestInstr.keys,respTestInstr.rt,respTestInstr.duration,random_instruction.started,textRandomInstr.started,respRandomInstr.started,random_instruction.stopped,instr_trials.respRandomInstr.keys,instr_trials.respRandomInstr.rt,instr_trials.respRandomInstr.duration,test_trials.respDots.keys,test_trials.respDots.corr,test_trials.respDots.rt,test_trials.respDots.duration,goodbye.started,textGoodbye.started,goodbye.stopped,participant,session,expName,frameRate,Unnamed: 87
,,,,,,,,,,,,,,,,,,,,,,,,,,,0.0107176989986328,0.0320829839911311,0.0320829839911311,49.21070019599574,space,49.00284346600529,,,,,,,,,,,,,,,,,,,,,,,,,,,,,,,,,,,,,,,,,,,,,,,,sub-226,1,random_dot,66.06107422405643,
left,left,0.0,0.0,0.0,right,0.0,18.63316450698767,,,,,,0.0,0.0,0.0,0.0,,,,,,,,,49.35236304700084,,,,,,,,,49.33879451800021,49.35236304700084,50.16766897100024,50.14538526299293,50.1465304739977,50.16766897100024,50.16766897100024,50.16766897100024,55.14879574299266,68.81375856099476,right,0.0,18.63316450698767,,68.81878992100246,68.84305314299127,69.32320783600153,,,,,,,,,,,,,,,,,,,,,,,,,,,,,,sub-226,1,random_dot,66.06107422405643,
right,right,1.0,1.0,0.0,left,0.0,5.638932692992967,,,,,,0.0,1.0,1.0,1.0,,,,,,,,,69.33126624199213,,,,,,,,,69.3235442169971,69.42305929999566,70.2382325429935,70.21426832399447,70.21477771000355,70.2382325429935,70.2382325429935,70.2382325429935,75.20838181699219,75.89055295700382,left,0.0,5.638932692992967,,75.89062805200228,75.89969820500119,76.38846262199513,76.406127233,,,,,,,,,,,,,,,,,,,,,,,,,,,,,sub-226,1,random_dot,66.06107422405643,
right,right,2.0,0.0,1.0,right,1.0,5.530035781004699,,,,,,1.0,0.0,2.0,1.0,,,,,,,,,76.406127233,,,,,,,,,76.38890014900244,76.49218105900218,77.3006990510039,77.29010399899562,77.29056525799388,77.3006990510039,77.3006990510039,77.3006990510039,82.28504642099142,82.84020583199163,right,1.0,5.530035781004699,,82.84500726099941,82.8539477269951,83.33854390899069,83.35625778399117,,,,,,,,,,,,,,,,,,,,,,,,,,,,,sub-226,1,random_dot,66.06107422405643,
left,left,3.0,1.0,1.0,right,0.0,5.45893199800048,,,,,,1.0,1.0,3.0,0.0,,,,,,,,,83.35625778399117,,,,,,,,,83.33896187299979,84.13225223599875,84.92915674200049,84.91570743799093,84.91673944699869,84.92915674200049,84.92915674200049,84.92915674200049,89.91185630699329,90.39264419399842,right,0.0,5.45893199800048,,90.39507014199626,90.40767180499095,90.9045311450027,,,,,,,,,,,,,,,,,,,,,,,,,,,,,,sub-226,1,random_dot,66.06107422405643,
left,left,4.0,0.0,2.0,right,0.0,5.429903682990698,,,,,,2.0,0.0,4.0,0.0,,,,,,,,,90.9227672029956,,,,,,,,,90.90485333499964,91.70437033199414,92.50607581299846,92.4878750959906,92.4882064909907,92.50607581299846,92.50607581299846,92.50607581299846,97.50598527998956,97.94267812999897,right,0.0,5.429903682990698,,97.9427611229912,97.95576140900084,98.44158147199778,98.45126862799223,,,,,,,,,,,,,,,,,,,,,,,,,,,,,sub-226,1,random_dot,66.06107422405643,
right,right,5.0,1.0,2.0,left,0.0,5.896244530988042,,,,,,2.0,1.0,5.0,1.0,,,,,,,,,98.45126862799223,,,,,,,,,98.44262478899329,99.24073152599158,100.0455812829896,100.03224870299164,100.03323917099624,100.0455812829896,100.0455812829896,100.0455812829896,105.03442542300036,105.946463906992,left,0.0,5.896244530988042,,105.94654310299666,105.95568187499885,106.454530529998,,,,,,,,,,,,,,,,,,,,,,,,,,,,,,sub-226,1,random_dot,66.06107422405643,
left,left,6.0,0.0,3.0,right,0.0,5.522292482986813,,,,,,3.0,0.0,6.0,0.0,,,,,,,,,106.47255276399665,,,,,,,,,106.45497409898962,106.54862748600137,107.3454664000019,107.3321032219974,107.3330960769963,107.3454664000019,107.3454664000019,107.3454664000019,112.3390133849898,112.8723845719942,right,0.0,5.522292482986813,,112.8724671730015,112.88924175700232,113.37254388199652,113.3806345789926,,,,,,,,,,,,,,,,,,,,,,,,,,,,,sub-226,1,random_dot,66.06107422405643,
right,right,7.0,1.0,3.0,right,1.0,5.381334931997117,,,,,,3.0,1.0,7.0,1.0,,,,,,,,,113.3806345789926,,,,,,,,,113.37295414599066,113.472720234,114.27275936999648,114.25832178400016,114.25876036199044,114.27275936999648,114.27275936999648,114.27275936999648,119.26115369600302,119.66304261700134,right,1.0,5.381334931997117,,119.66487607300223,119.68730020799558,120.16912947299716,,,,,,,,,,,,,,,,,,,,,,,,,,,,,,sub-226,1,random_dot,66.06107422405643,
right,right,8.0,0.0,4.0,right,1.0,5.418718603003072,,,,,,4.0,0.0,8.0,1.0,,,,,,,,,120.17799970899068,,,,,,,,,120.16980683199654,120.2595217969938,121.06189199798972,121.0485523459938,121.04953435799688,121.06189199798972,121.06189199798972,121.06189199798972,126.0510049650038,126.4894491469895,right,1.0,5.418718603003072,,126.48953685899323,126.49861426799907,126.98937047699292,126.99768339499133,,,,,,,,,,,,,,,,,,,,,,,,,,,,,sub-226,1,random_dot,66.06107422405643,
left,left,9.0,1.0,4.0,right,0.0,5.394493248008075,,,,,,4.0,1.0,9.0,0.0,,,,,,,,,126.99768339499133,,,,,,,,,126.98975433599844,128.18897273400216,128.98316570899624,128.97264808499312,128.9731210500031,128.98316570899624,128.98316570899624,128.98316570899624,133.97445254099148,134.38978209499328,right,0.0,5.394493248008075,,134.3915688769921,134.40068055099982,134.88741612399463,134.9055015549966,,,,,,,,,,,,,,,,,,,,,,,,,,,,,sub-226,1,random_dot,66.06107422405643,
right,right,10.0,0.0,5.0,right,1.0,5.4867743119975785,,,,,,5.0,0.0,10.0,1.0,,,,,,,,,134.9055015549966,,,,,,,,,134.8876634039916,136.08877490599116,136.90559666100307,136.88762571300322,136.88810207099596,136.90559666100307,136.90559666100307,136.90559666100307,141.88989991300332,142.4068542820023,right,1.0,5.4867743119975785,,142.41088742300053,142.42366374300036,142.90980862500146,,,,,,,,,,,,,,,,,,,,,,,,,,,,,,sub-226,1,random_dot,66.06107422405643,
left,left,11.0,1.0,5.0,left,1.0,5.323976072992082,,,,,,5.0,1.0,11.0,0.0,,,,,,,,,142.92328028699558,,,,,,,,,142.91088441599277,143.0054626899946,143.79961639200337,143.78902081400156,143.7894891000033,143.79961639200337,143.79961639200337,143.79961639200337,148.7871715729998,149.13454792399716,left,1.0,5.323976072992082,,149.13467356200272,149.14593869099917,149.6388345710002,,,,,,,,,,,,,,,,,,,,,,,,,,,,,,sub-226,1,random_dot,66.06107422405643,
right,right,12.0,0.0,6.0,right,1.0,5.38589984200371,,,,,,6.0,0.0,12.0,1.0,,,,,,,,,149.64724989898968,,,,,,,,,149.63926948000153,150.43123308199574,151.23284232598962,151.2223236639984,151.22278010299488,151.23284232598962,151.23284232598962,151.23284232598962,156.21457140799612,156.62316789200122,right,1.0,5.38589984200371,,156.62326891100383,156.63256723798986,157.12063437899633,157.1384227660019,,,,,,,,,,,,,,,,,,,,,,,,,,,,,sub-226,1,random_dot,66.06107422405643,
left,left,13.0,1.0,6.0,left,1.0,5.387232778011821,,,,,,6.0,1.0,13.0,0.0,,,,,,,,,157.1384227660019,,,,,,,,,157.1210452910018,157.92590255998948,158.72837565999362,158.71486264000123,158.7158880729985,158.72837565999362,158.72837565999362,158.72837565999362,163.72175775699725,164.12283667500014,left,1.0,5.387232778011821,,164.12294846399163,164.1326467399922,164.63715301999764,,,,,,,,,,,,,,,,,,,,,,,,,,,,,,sub-226,1,random_dot,66.06107422405643,
left,left,14.0,0.0,7.0,left,1.0,5.388182629001676,,,,,,7.0,0.0,14.0,0.0,,,,,,,,,164.65517825999996,,,,,,,,,164.63758975199016,165.82175180700142,166.62204772800033,166.60680905099434,166.60727664799197,166.62204772800033,166.62204772800033,166.62204772800033,171.6216744659905,172.02260084099544,left,1.0,5.388182629001676,,172.0226770809968,172.03166439000051,172.53704497100262,,,,,,,,,,,,,,,,,,,,,,,,,,,,,,sub-226,1,random_dot,66.06107422405643,
right,right,15.0,1.0,7.0,right,1.0,5.442333793005673,,,,,,7.0,1.0,15.0,1.0,,,,,,,,,172.55499009600317,,,,,,,,,172.53748299299332,173.7239614190039,174.52797156799352,174.5145615200017,174.51557793999382,174.52797156799352,174.52797156799352,174.52797156799352,179.51274075399851,179.9790650799987,right,1.0,5.442333793005673,,179.97915482700046,179.99010694799654,180.48666485000285,,,,,,,,,,,,,,,,,,,,,,,,,,,,,,sub-226,1,random_dot,66.06107422405643,
left,left,16.0,0.0,8.0,left,1.0,5.341724344994873,,,,,,8.0,0.0,16.0,0.0,,,,,,,,,180.50467579399992,,,,,,,,,180.4869054769952,181.68075662099,182.48825041200325,182.4703354480007,182.470807685997,182.48825041200325,182.48825041200325,182.48825041200325,187.4767091269896,187.8391770409944,left,1.0,5.341724344994873,,187.83926354299183,187.8487980029895,188.3400887189928,,,,,,,,,,,,,,,,,,,,,,,,,,,,,,sub-226,1,random_dot,66.06107422405643,
right,right,17.0,1.0,8.0,right,1.0,5.38551490601094,,,,,,8.0,1.0,17.0,1.0,,,,,,,,,188.35471831299947,,,,,,,,,188.34052805199465,189.534180645991,190.34096097499423,190.3264064469986,190.32743137799844,190.34096097499423,190.34096097499423,190.34096097499423,195.3300206290005,195.73325918299088,right,1.0,5.38551490601094,,195.73339277999185,195.74442254198948,196.23080199299147,196.2419504790014,,,,,,,,,,,,,,,,,,,,,,,,,,,,,sub-226,1,random_dot,66.06107422405643,
left,left,18.0,0.0,9.0,right,0.0,5.323598276998382,,,,,,9.0,0.0,18.0,0.0,,,,,,,,,196.2419504790014,,,,,,,,,196.231750328996,197.03076129799592,197.8332155120006,197.82161787200312,197.82207365900103,197.8332155120006,197.8332155120006,197.8332155120006,202.8238801489933,203.16134843199688,right,0.0,5.323598276998382,,203.16314193200375,203.17255047199436,203.67146552600025,,,,,,,,,,,,,,,,,,,,,,,,,,,,,,sub-226,1,random_dot,66.06107422405643,
right,right,19.0,1.0,9.0,right,1.0,2.587297360005323,,,,,,9.0,1.0,19.0,1.0,,,,,,,,,203.67996336199576,,,,,,,,,203.6718955789984,204.45857522799636,205.2578649999923,205.24319131400264,205.24420909499167,205.2578649999923,205.2578649999923,205.2578649999923,,207.8552807369997,right,1.0,2.587297360005323,,207.8575323809928,207.86644764199443,208.36983652399795,,,,,,,,,,,,,,,,,,,,,,,,,,,,,,sub-226,1,random_dot,66.06107422405643,
,,,,,,,,,,,,,,,,,,,,,,,,,,,,,,,,,,,,,,,,,,,,,,,,,,,,208.3700169799995,208.3878652949934,208.3878652949934,213.5886837279977,space,5.193721549992915,,,,,,,,,,,,,,,,,,,,,,,sub-226,1,random_dot,66.06107422405643,
,,,,,,,,,,,,,,,,,,,,,,,,,,,,,,,,,,,,,,,,,,,,,,,,,,,,,,,,,,,213.5887378799962,213.59959855600027,213.59959855600027,223.58917739699243,space,9.978243950012256,,,,,,,,,,,,,,,,sub-226,1,random_dot,66.06107422405643,
right,right,0.0,0.0,0.0,right,1.0,5.386535547993844,,accuracy,space,3.8687852489965735,,,,,,0.0,0.0,0.0,0.0,0.0,0.0,0.0,1.0,227.5019305559981,,,,,,,,,227.49312767399533,228.6876342049945,229.4973074229929,229.4878733899968,229.4882056030037,229.4973074229929,229.4973074229929,229.4973074229929,234.49031350899892,234.8907895309967,,,,,,,,,,,,,,,,,,,,,,,223.6043383369979,223.61391873499088,223.61391873499088,227.4889009210019,space,3.8687852489965735,,right,1.0,5.386535547993844,,,,,sub-226,1,random_dot,66.06107422405643,
left,left,1.0,1.0,0.0,right,0.0,3.148895892998553,,accuracy,space,3.8687852489965735,,,,,,0.0,0.0,0.0,0.0,0.0,1.0,1.0,0.0,234.90367631899423,,,,,,,,,234.89118565399255,235.24249419299304,236.0541663759941,236.03635543400011,236.03682699298952,236.0541663759941,236.0541663759941,236.0541663759941,,239.2112199109979,,,,,,,,,,,,,,,,,,,,,,,,,,,,,,right,0.0,3.148895892998553,,,,,sub-226,1,random_dot,66.06107422405643,
right,right,2.0,0.0,1.0,right,1.0,5.318785527008004,,accuracy,space,3.8687852489965735,,,,,,0.0,0.0,0.0,0.0,1.0,0.0,2.0,1.0,239.2206460890011,,,,,,,,,239.21149619900095,240.4125640709972,241.2152139329992,241.20453646699025,241.20500225199797,241.2152139329992,241.2152139329992,241.2152139329992,246.206081286,246.538573717,,,,,,,,,,,,,,,,,,,,,,,,,,,,,,right,1.0,5.318785527008004,,,,,sub-226,1,random_dot,66.06107422405643,
left,left,3.0,1.0,1.0,right,0.0,2.603371183999116,,accuracy,space,3.8687852489965735,,,,,,0.0,0.0,0.0,0.0,1.0,1.0,3.0,0.0,246.5481392639922,,,,,,,,,246.53892615900256,247.3524420169997,248.15396882299683,248.13601950999876,248.13652405499303,248.15396882299683,248.15396882299683,248.15396882299683,,250.77174734399887,,,,,,,,,,,,,,,,,,,,,,,,,,,,,,right,0.0,2.603371183999116,,,,,sub-226,1,random_dot,66.06107422405643,
left,left,4.0,0.0,2.0,right,0.0,5.3646977430034894,,accuracy,space,3.8687852489965735,,,,,,0.0,0.0,0.0,0.0,2.0,0.0,4.0,0.0,250.78086894800072,,,,,,,,,250.7720769360021,251.97261272999455,252.7730485929933,252.7607477510028,252.7616879979905,252.7730485929933,252.7730485929933,252.7730485929933,257.7558893719979,258.1472687079949,,,,,,,,,,,,,,,,,,,,,,,,,,,,,,right,0.0,5.3646977430034894,,,,,sub-226,1,random_dot,66.06107422405643,
right,right,5.0,1.0,2.0,left,0.0,2.219759942003293,,accuracy,space,3.8687852489965735,,,,,,0.0,0.0,0.0,0.0,2.0,1.0,5.0,1.0,258.1580749159912,,,,,,,,,258.1475615179952,258.4943486620032,259.3024652969907,259.27911357500125,259.28003316099057,259.3024652969907,259.3024652969907,259.3024652969907,,261.53536501499184,,,,,,,,,,,,,,,,,,,,,,,,,,,,,,left,0.0,2.219759942003293,,,,,sub-226,1,random_dot,66.06107422405643,
right,right,6.0,0.0,3.0,right,1.0,2.9625523060094565,,accuracy,space,3.8687852489965735,,,,,,0.0,0.0,0.0,0.0,3.0,0.0,6.0,1.0,261.54606744099874,,,,,,,,,261.53653867599496,261.8799453029933,262.68137292799656,262.670816657992,262.67133315399406,262.68137292799656,262.68137292799656,262.68137292799656,,265.65863998400164,,,,,,,,,,,,,,,,,,,,,,,,,,,,,,right,1.0,2.9625523060094565,,,,,sub-226,1,random_dot,66.06107422405643,
left,left,7.0,1.0,3.0,right,0.0,3.705297706008423,,accuracy,space,3.8687852489965735,,,,,,0.0,0.0,0.0,0.0,3.0,1.0,7.0,0.0,265.6685149089899,,,,,,,,,265.6589949949994,266.4592647429963,267.26293361900025,267.2535946900025,267.25383335999504,267.26293361900025,267.26293361900025,267.26293361900025,,270.97841582799447,,,,,,,,,,,,,,,,,,,,,,,,,,,,,,right,0.0,3.705297706008423,,,,,sub-226,1,random_dot,66.06107422405643,
right,right,8.0,0.0,4.0,right,1.0,4.402430104004452,,accuracy,space,3.8687852489965735,,,,,,0.0,0.0,0.0,0.0,4.0,0.0,8.0,1.0,270.9884633229958,,,,,,,,,270.978799627992,272.1720979590027,272.9702929389896,272.9551539399981,272.9556360220013,272.9702929389896,272.9702929389896,272.9702929389896,,277.37947807699675,,,,,,,,,,,,,,,,,,,,,,,,,,,,,,right,1.0,4.402430104004452,,,,,sub-226,1,random_dot,66.06107422405643,
left,left,9.0,1.0,4.0,right,0.0,2.6676440599985654,,accuracy,space,3.8687852489965735,,,,,,0.0,0.0,0.0,0.0,4.0,1.0,9.0,0.0,277.4020105130039,,,,,,,,,277.3798776049953,277.48360333598976,278.2844276749965,278.2717898109986,278.2732723099907,278.2844276749965,278.2844276749965,278.2844276749965,,280.958276616002,,,,,,,,,,,,,,,,,,,,,,,,,,,,,,right,0.0,2.6676440599985654,,,,,sub-226,1,random_dot,66.06107422405643,
left,left,10.0,0.0,5.0,left,1.0,1.6656330130062995,,accuracy,space,3.8687852489965735,,,,,,0.0,0.0,0.0,0.0,5.0,0.0,10.0,0.0,280.96750280099513,,,,,,,,,280.9585936910007,282.1593863070011,282.9699753469904,282.95226373299374,282.95273465399805,282.9699753469904,282.9699753469904,282.9699753469904,,284.6457784410013,,,,,,,,,,,,,,,,,,,,,,,,,,,,,,left,1.0,1.6656330130062995,,,,,sub-226,1,random_dot,66.06107422405643,
right,right,11.0,1.0,5.0,left,0.0,1.7891792640002675,,accuracy,space,3.8687852489965735,,,,,,0.0,0.0,0.0,0.0,5.0,1.0,11.0,1.0,284.6549314459989,,,,,,,,,284.6460540419939,285.00195093000366,285.8202665409917,285.80224323600123,285.8027131639974,285.8202665409917,285.8202665409917,285.8202665409917,,287.6136379189993,,,,,,,,,,,,,,,,,,,,,,,,,,,,,,left,0.0,1.7891792640002675,,,,,sub-226,1,random_dot,66.06107422405643,
right,right,12.0,0.0,6.0,left,0.0,1.0329160619876347,,accuracy,space,3.8687852489965735,,,,,,0.0,0.0,0.0,0.0,6.0,0.0,12.0,1.0,287.63515074599127,,,,,,,,,287.6139631519909,287.7200829709909,288.52171278699825,288.50807136599906,288.50903736799955,288.52171278699825,288.52171278699825,288.52171278699825,,289.5622150150012,,,,,,,,,,,,,,,,,,,,,,,,,,,,,,left,0.0,1.0329160619876347,,,,,sub-226,1,random_dot,66.06107422405643,
left,left,13.0,1.0,6.0,left,1.0,3.2207487169944216,,accuracy,space,3.8687852489965735,,,,,,0.0,0.0,0.0,0.0,6.0,1.0,13.0,0.0,289.5715068769932,,,,,,,,,289.562490515993,289.6588811190013,290.4642414909904,290.45382460999826,290.45425985399925,290.4642414909904,290.4642414909904,290.4642414909904,,293.6909307419992,,,,,,,,,,,,,,,,,,,,,,,,,,,,,,left,1.0,3.2207487169944216,,,,,sub-226,1,random_dot,66.06107422405643,
right,right,14.0,0.0,7.0,left,0.0,2.917988376997528,,accuracy,space,3.8687852489965735,,,,,,0.0,0.0,0.0,0.0,7.0,0.0,14.0,1.0,293.7033482059924,,,,,,,,,293.6911936589895,294.89621741299925,295.69775965999,295.68696884000383,295.68742726699566,295.69775965999,295.69775965999,295.69775965999,,298.62260063100257,,,,,,,,,,,,,,,,,,,,,,,,,,,,,,left,0.0,2.917988376997528,,,,,sub-226,1,random_dot,66.06107422405643,
left,left,15.0,1.0,7.0,right,0.0,1.2524280859943246,,accuracy,space,3.8687852489965735,,,,,,0.0,0.0,0.0,0.0,7.0,1.0,15.0,0.0,298.6365618370037,,,,,,,,,298.6228631470003,298.98678323200147,299.7808140949928,299.7703227269958,299.7707841099909,299.7808140949928,299.7808140949928,299.7808140949928,,301.04168370200205,,,,,,,,,,,,,,,,,,,,,,,,,,,,,,right,0.0,1.2524280859943246,,,,,sub-226,1,random_dot,66.06107422405643,
left,left,16.0,0.0,8.0,right,0.0,5.54786630399758,,accuracy,space,3.8687852489965735,,,,,,0.0,0.0,0.0,0.0,8.0,0.0,16.0,0.0,301.0508986259956,,,,,,,,,301.04209408999304,301.38876194600016,302.18660772999283,302.1728500070021,302.17331928499334,302.18660772999283,302.18660772999283,302.18660772999283,307.17240293599025,307.74403512399294,,,,,,,,,,,,,,,,,,,,,,,,,,,,,,right,0.0,5.54786630399758,,,,,sub-226,1,random_dot,66.06107422405643,
right,right,17.0,1.0,8.0,left,0.0,2.9426943540020147,,accuracy,space,3.8687852489965735,,,,,,0.0,0.0,0.0,0.0,8.0,1.0,17.0,1.0,307.7559487079998,,,,,,,,,307.74440061999485,307.84600481399684,308.6426714289992,308.62938156900054,308.630319813994,308.6426714289992,308.6426714289992,308.6426714289992,,311.5942641069996,,,,,,,,,,,,,,,,,,,,,,,,,,,,,,left,0.0,2.9426943540020147,,,,,sub-226,1,random_dot,66.06107422405643,
right,right,18.0,0.0,9.0,left,0.0,2.062389409999014,,accuracy,space,3.8687852489965735,,,,,,0.0,0.0,0.0,0.0,9.0,0.0,18.0,1.0,311.6054699889937,,,,,,,,,311.59452419599984,312.7961394379963,313.5980001040007,313.5867927340005,313.5872512329952,313.5980001040007,313.5980001040007,313.5980001040007,,315.67299437600013,,,,,,,,,,,,,,,,,,,,,,,,,,,,,,left,0.0,2.062389409999014,,,,,sub-226,1,random_dot,66.06107422405643,
left,left,19.0,1.0,9.0,right,0.0,4.220472768007312,,accuracy,space,3.8687852489965735,,,,,,0.0,0.0,0.0,0.0,9.0,1.0,19.0,0.0,315.6821249409986,,,,,,,,,315.6734021709999,315.7713582360011,316.5761393849971,316.56246831599856,316.5635479299963,316.5761393849971,316.5761393849971,316.5761393849971,,320.8038865129929,,,,,,,,,,,,,,,,,,,,,,,,,,,,,,right,0.0,4.220472768007312,,,,,sub-226,1,random_dot,66.06107422405643,
left,left,20.0,0.0,10.0,right,0.0,3.1251834930008044,,accuracy,space,3.8687852489965735,,,,,,0.0,0.0,0.0,0.0,10.0,0.0,20.0,0.0,320.8142186609912,,,,,,,,,320.8042819249968,321.59502243899624,322.39207012999395,322.379182174991,322.3801777369954,322.39207012999395,322.39207012999395,322.39207012999395,,325.5230312969943,,,,,,,,,,,,,,,,,,,,,,,,,,,,,,right,0.0,3.1251834930008044,,,,,sub-226,1,random_dot,66.06107422405643,
right,right,21.0,1.0,10.0,right,1.0,2.6009683050069725,,accuracy,space,3.8687852489965735,,,,,,0.0,0.0,0.0,0.0,10.0,1.0,21.0,1.0,325.5364881190035,,,,,,,,,325.5233027009963,326.7347680620005,327.53098588399007,327.51987079800165,327.52033198399295,327.53098588399007,327.53098588399007,327.53098588399007,,330.1408994279918,,,,,,,,,,,,,,,,,,,,,,,,,,,,,,right,1.0,2.6009683050069725,,,,,sub-226,1,random_dot,66.06107422405643,
left,left,22.0,0.0,11.0,right,0.0,4.099907763011288,,accuracy,space,3.8687852489965735,,,,,,0.0,0.0,0.0,0.0,11.0,0.0,22.0,0.0,330.1530636069947,,,,,,,,,330.1411684509949,330.9513675079943,331.74717665500066,331.73665439599426,331.7371226319956,331.74717665500066,331.74717665500066,331.74717665500066,,335.8612960239989,,,,,,,,,,,,,,,,,,,,,,,,,,,,,,right,0.0,4.099907763011288,,,,,sub-226,1,random_dot,66.06107422405643,
right,right,23.0,1.0,11.0,left,0.0,3.2412021439959062,,accuracy,space,3.8687852489965735,,,,,,0.0,0.0,0.0,0.0,11.0,1.0,23.0,1.0,335.8708293009986,,,,,,,,,335.8616269189952,335.9584124559915,336.7636770789977,336.7531364919996,336.7535983499984,336.7636770789977,336.7636770789977,336.7636770789977,,340.01141012799053,,,,,,,,,,,,,,,,,,,,,,,,,,,,,,left,0.0,3.2412021439959062,,,,,sub-226,1,random_dot,66.06107422405643,
left,left,24.0,0.0,12.0,left,1.0,2.487279202003265,,accuracy,space,3.8687852489965735,,,,,,0.0,0.0,0.0,0.0,12.0,0.0,24.0,0.0,340.0208998290036,,,,,,,,,340.01169172099617,340.3613055659953,341.1638166299963,341.15329201899294,341.1537575459952,341.1638166299963,341.1638166299963,341.1638166299963,,343.6599527770013,,,,,,,,,,,,,,,,,,,,,,,,,,,,,,left,1.0,2.487279202003265,,,,,sub-226,1,random_dot,66.06107422405643,
right,right,25.0,1.0,12.0,right,1.0,3.4554112240002723,,accuracy,space,3.8687852489965735,,,,,,0.0,0.0,0.0,0.0,12.0,1.0,25.0,1.0,343.6722821089934,,,,,,,,,343.66022873799375,343.75848578999285,344.55434673599666,344.54354806800256,344.5439877320023,344.55434673599666,344.55434673599666,344.55434673599666,,348.01831158599816,,,,,,,,,,,,,,,,,,,,,,,,,,,,,,right,1.0,3.4554112240002723,,,,,sub-226,1,random_dot,66.06107422405643,
right,right,26.0,0.0,13.0,left,0.0,0.9780068239924732,,accuracy,space,3.8687852489965735,,,,,,0.0,0.0,0.0,0.0,13.0,0.0,26.0,1.0,348.03583602899744,,,,,,,,,348.018588824998,349.219298334996,350.03047633499955,350.0197194319917,350.02017858099134,350.03047633499955,350.03047633499955,350.03047633499955,,351.01310349299456,,,,,,,,,,,,,,,,,,,,,,,,,,,,,,left,0.0,0.9780068239924732,,,,,sub-226,1,random_dot,66.06107422405643,
left,left,27.0,1.0,13.0,right,0.0,1.1969813129981048,,accuracy,space,3.8687852489965735,,,,,,0.0,0.0,0.0,0.0,13.0,1.0,27.0,0.0,351.0245472730021,,,,,,,,,351.0134030659974,352.2192597389949,353.02148793899687,353.0097034429928,353.0107175299927,353.02148793899687,353.02148793899687,353.02148793899687,,354.2308896780014,,,,,,,,,,,,,,,,,,,,,,,,,,,,,,right,0.0,1.1969813129981048,,,,,sub-226,1,random_dot,66.06107422405643,
left,left,28.0,0.0,14.0,left,1.0,1.4575156119972237,,accuracy,space,3.8687852489965735,,,,,,0.0,0.0,0.0,0.0,14.0,0.0,28.0,0.0,354.2418501869979,,,,,,,,,354.2312208719959,354.585997999995,355.38059104899,355.36970753700007,355.37017098900105,355.38059104899,355.38059104899,355.38059104899,,356.8474146249937,,,,,,,,,,,,,,,,,,,,,,,,,,,,,,left,1.0,1.4575156119972237,,,,,sub-226,1,random_dot,66.06107422405643,
right,right,29.0,1.0,14.0,right,1.0,1.303182817006018,,accuracy,space,3.8687852489965735,,,,,,0.0,0.0,0.0,0.0,14.0,1.0,29.0,1.0,356.8570804769988,,,,,,,,,356.84770071798994,357.20271082399995,358.0191516979976,358.00128862899146,358.00175979999767,358.0191516979976,358.0191516979976,358.0191516979976,,359.33078771400324,,,,,,,,,,,,,,,,,,,,,,,,,,,,,,right,1.0,1.303182817006018,,,,,sub-226,1,random_dot,66.06107422405643,
left,left,30.0,0.0,15.0,right,0.0,2.819575483998051,,accuracy,space,3.8687852489965735,,,,,,0.0,0.0,0.0,0.0,15.0,0.0,30.0,0.0,359.3403572059906,,,,,,,,,359.3310811659903,360.5279041199974,361.3283258439915,361.3160689409997,361.3177853059897,361.3283258439915,361.3283258439915,361.3283258439915,,364.155124344994,,,,,,,,,,,,,,,,,,,,,,,,,,,,,,right,0.0,2.819575483998051,,,,,sub-226,1,random_dot,66.06107422405643,
right,right,31.0,1.0,15.0,left,0.0,4.545059983996907,,accuracy,space,3.8687852489965735,,,,,,0.0,0.0,0.0,0.0,15.0,1.0,31.0,1.0,364.1690573649976,,,,,,,,,364.1554224680003,364.5176104330021,365.31335298198974,365.3028485649993,365.30330505099846,365.31335298198974,365.31335298198974,365.31335298198974,,369.86970277199,,,,,,,,,,,,,,,,,,,,,,,,,,,,,,left,0.0,4.545059983996907,,,,,sub-226,1,random_dot,66.06107422405643,
left,left,32.0,0.0,16.0,left,1.0,8.469890806998592,,accuracy,space,3.8687852489965735,,,,,,0.0,0.0,0.0,0.0,16.0,0.0,32.0,0.0,369.87914705499134,,,,,,,,,369.8699622109998,369.9701928059949,370.779803382,370.7693030969968,370.7697643720021,370.779803382,370.779803382,370.779803382,375.76473347999854,379.2553687479958,,,,,,,,,,,,,,,,,,,,,,,,,,,,,,left,1.0,8.469890806998592,,,,,sub-226,1,random_dot,66.06107422405643,
right,right,33.0,1.0,16.0,left,0.0,5.948061593007878,,accuracy,space,3.8687852489965735,,,,,,0.0,0.0,0.0,0.0,16.0,1.0,33.0,1.0,379.2687897939904,,,,,,,,,379.2556319699943,380.4579446360003,381.2584417659964,381.24512764200335,381.2460986429942,381.2584417659964,381.2584417659964,381.2584417659964,386.2521293839964,387.2138803209964,,,,,,,,,,,,,,,,,,,,,,,,,,,,,,left,0.0,5.948061593007878,,,,,sub-226,1,random_dot,66.06107422405643,
left,left,34.0,0.0,17.0,left,1.0,10.016043764990172,,accuracy,space,3.8687852489965735,,,,,,0.0,0.0,0.0,0.0,17.0,0.0,34.0,0.0,387.22370755400334,,,,,,,,,387.21417170300265,387.5613955049921,388.35831246299495,388.3449894079968,388.3460640050034,388.35831246299495,388.35831246299495,388.35831246299495,393.3475580759987,398.3803135539929,,,,,,,,,,,,,,,,,,,,,,,,,,,,,,left,1.0,10.016043764990172,,,,,sub-226,1,random_dot,66.06107422405643,
right,right,35.0,1.0,17.0,right,1.0,7.3443287720001535,,accuracy,space,3.8687852489965735,,,,,,0.0,0.0,0.0,0.0,17.0,1.0,35.0,1.0,398.3902909390017,,,,,,,,,398.3806687999895,398.735575632003,399.5461099859968,399.535451097996,399.5357306319929,399.5461099859968,399.5461099859968,399.5461099859968,404.5377316259983,406.8967043009907,,,,,,,,,,,,,,,,,,,,,,,,,,,,,,right,1.0,7.3443287720001535,,,,,sub-226,1,random_dot,66.06107422405643,
left,left,36.0,0.0,18.0,right,0.0,8.399376857996685,,accuracy,space,3.8687852489965735,,,,,,0.0,0.0,0.0,0.0,18.0,0.0,36.0,0.0,406.90626654899097,,,,,,,,,406.8970202139899,408.0918632209941,408.8914077060035,408.8777952819946,408.8787742470013,408.8914077060035,408.8914077060035,408.8914077060035,413.8835672939895,417.2950092809915,,,,,,,,,,,,,,,,,,,,,,,,,,,,,,right,0.0,8.399376857996685,,,,,sub-226,1,random_dot,66.06107422405643,
right,right,37.0,1.0,18.0,right,1.0,7.113864462997299,,accuracy,space,3.8687852489965735,,,,,,0.0,0.0,0.0,0.0,18.0,1.0,37.0,1.0,417.3166980629903,,,,,,,,,417.2953874179948,417.401941817996,418.2184696479962,418.2005987750017,418.2010894900013,418.2184696479962,418.2184696479962,418.2184696479962,423.2043510130025,425.34237943499465,,,,,,,,,,,,,,,,,,,,,,,,,,,,,,right,1.0,7.113864462997299,,,,,sub-226,1,random_dot,66.06107422405643,
left,left,38.0,0.0,19.0,left,1.0,3.820619549995172,,accuracy,space,3.8687852489965735,,,,,,0.0,0.0,0.0,0.0,19.0,0.0,38.0,0.0,425.3514222919912,,,,,,,,,425.342787734,425.7002712829999,426.51831328599656,426.5004120809899,426.5008854729968,426.51831328599656,426.51831328599656,426.51831328599656,,430.3480546859937,,,,,,,,,,,,,,,,,,,,,,,,,,,,,,left,1.0,3.820619549995172,,,,,sub-226,1,random_dot,66.06107422405643,
right,right,39.0,1.0,19.0,right,1.0,1.4783822830067948,,accuracy,space,3.8687852489965735,,,,,,0.0,0.0,0.0,0.0,19.0,1.0,39.0,1.0,430.35891463499865,,,,,,,,,430.34865106799407,430.4515510499914,431.2458446450037,431.2353077839944,431.2357724189933,431.2458446450037,431.2458446450037,431.2458446450037,,432.7395995879924,,,,,,,,,,,,,,,,,,,,,,,,,,,,,,right,1.0,1.4783822830067948,,,,,sub-226,1,random_dot,66.06107422405643,
left,left,40.0,0.0,20.0,right,0.0,1.2209480210003676,,accuracy,space,3.8687852489965735,,,,,,0.0,0.0,0.0,0.0,20.0,0.0,40.0,0.0,432.7532746029901,,,,,,,,,432.7400773419941,433.5436259940034,434.3513218119915,434.3335614940006,434.3340281959972,434.3513218119915,434.3513218119915,434.3513218119915,,435.5764216259995,,,,,,,,,,,,,,,,,,,,,,,,,,,,,,right,0.0,1.2209480210003676,,,,,sub-226,1,random_dot,66.06107422405643,
right,right,41.0,1.0,20.0,right,1.0,3.20212206299766,,accuracy,space,3.8687852489965735,,,,,,0.0,0.0,0.0,0.0,20.0,1.0,41.0,1.0,435.5883444899955,,,,,,,,,435.5767277949926,436.3832885540032,437.17754901599255,437.1681503540021,437.16841796500375,437.17754901599255,437.17754901599255,437.17754901599255,,440.3849827090016,,,,,,,,,,,,,,,,,,,,,,,,,,,,,,right,1.0,3.20212206299766,,,,,sub-226,1,random_dot,66.06107422405643,
right,right,42.0,0.0,21.0,right,1.0,2.6512416879995726,,accuracy,space,3.8687852489965735,,,,,,0.0,0.0,0.0,0.0,21.0,0.0,42.0,1.0,440.39355867500126,,,,,,,,,440.3852945819963,440.73467376700137,441.5262151520001,441.51742973299406,441.5176655469986,441.5262151520001,441.5262151520001,441.5262151520001,,444.1881764239952,,,,,,,,,,,,,,,,,,,,,,,,,,,,,,right,1.0,2.6512416879995726,,,,,sub-226,1,random_dot,66.06107422405643,
left,left,43.0,1.0,21.0,left,1.0,2.142342677994748,,accuracy,space,3.8687852489965735,,,,,,0.0,0.0,0.0,0.0,21.0,1.0,43.0,0.0,444.1973202709924,,,,,,,,,444.1886297489982,445.3866236640024,446.1954938859999,446.18500470499566,446.18546558800153,446.1954938859999,446.1954938859999,446.1954938859999,,448.3421321450005,,,,,,,,,,,,,,,,,,,,,,,,,,,,,,left,1.0,2.142342677994748,,,,,sub-226,1,random_dot,66.06107422405643,
right,right,44.0,0.0,22.0,right,1.0,0.7238256520067807,,accuracy,space,3.8687852489965735,,,,,,0.0,0.0,0.0,0.0,22.0,0.0,44.0,1.0,448.3533096829924,,,,,,,,,448.3423934669991,448.6998580679938,449.50139128199953,449.4835350539943,449.48400387399306,449.50139128199953,449.50139128199953,449.50139128199953,,450.2382882499951,,,,,,,,,,,,,,,,,,,,,,,,,,,,,,right,1.0,0.7238256520067807,,,,,sub-226,1,random_dot,66.06107422405643,
left,left,45.0,1.0,22.0,right,0.0,1.1877000279928325,,accuracy,space,3.8687852489965735,,,,,,0.0,0.0,0.0,0.0,22.0,1.0,45.0,0.0,450.2474130379997,,,,,,,,,450.2387428469956,450.5899898310017,451.40128467199975,451.38343845099735,451.3839129539992,451.40128467199975,451.40128467199975,451.40128467199975,,452.59765521399095,,,,,,,,,,,,,,,,,,,,,,,,,,,,,,right,0.0,1.1877000279928325,,,,,sub-226,1,random_dot,66.06107422405643,
right,right,46.0,0.0,23.0,right,1.0,2.4257885530096246,,accuracy,space,3.8687852489965735,,,,,,0.0,0.0,0.0,0.0,23.0,0.0,46.0,1.0,452.6072367629968,,,,,,,,,452.5982143000001,453.801327602996,454.61214286899485,454.6016612889944,454.6021251549973,454.61214286899485,454.61214286899485,454.61214286899485,,457.04747636600223,,,,,,,,,,,,,,,,,,,,,,,,,,,,,,right,1.0,2.4257885530096246,,,,,sub-226,1,random_dot,66.06107422405643,
left,left,47.0,1.0,23.0,right,0.0,1.3110912060074045,,accuracy,space,3.8687852489965735,,,,,,0.0,0.0,0.0,0.0,23.0,1.0,47.0,0.0,457.05807032299344,,,,,,,,,457.0481258069922,457.3896642640029,458.1997704980022,458.1753428209922,458.1761866769957,458.1997704980022,458.1997704980022,458.1997704980022,,459.5184811729996,,,,,,,,,,,,,,,,,,,,,,,,,,,,,,right,0.0,1.3110912060074045,,,,,sub-226,1,random_dot,66.06107422405643,
left,left,48.0,0.0,24.0,left,1.0,2.35104430699721,,accuracy,space,3.8687852489965735,,,,,,0.0,0.0,0.0,0.0,24.0,0.0,48.0,0.0,459.52799956199306,,,,,,,,,459.5187448209908,460.7127943660016,461.5106650200032,461.5012229529966,461.5015545149945,461.5106650200032,461.5106650200032,461.5106650200032,,463.86770029399486,,,,,,,,,,,,,,,,,,,,,,,,,,,,,,left,1.0,2.35104430699721,,,,,sub-226,1,random_dot,66.06107422405643,
right,right,49.0,1.0,24.0,right,1.0,2.4025455500086537,,accuracy,space,3.8687852489965735,,,,,,0.0,0.0,0.0,0.0,24.0,1.0,49.0,1.0,463.8769260949921,,,,,,,,,463.86821912600135,464.6595672010008,465.46770541000296,465.4539109449979,465.454244292996,465.46770541000296,465.46770541000296,465.46770541000296,,467.8716447869956,,,,,,,,,,,,,,,,,,,,,,,,,,,,,,right,1.0,2.4025455500086537,,,,,sub-226,1,random_dot,66.06107422405643,
right,right,50.0,0.0,25.0,left,0.0,0.9721816730016144,,accuracy,space,3.8687852489965735,,,,,,0.0,0.0,0.0,0.0,25.0,0.0,50.0,1.0,467.88440135499695,,,,,,,,,467.8719806399895,468.66759347599873,469.4828314399929,469.4588849159918,469.4598770029989,469.4828314399929,469.4828314399929,469.4828314399929,,470.4642160899966,,,,,,,,,,,,,,,,,,,,,,,,,,,,,,left,0.0,0.9721816730016144,,,,,sub-226,1,random_dot,66.06107422405643,
left,left,51.0,1.0,25.0,right,0.0,0.5932653820054838,,accuracy,space,3.8687852489965735,,,,,,0.0,0.0,0.0,0.0,25.0,1.0,51.0,0.0,470.4748368619912,,,,,,,,,470.4648188150022,470.56249891000334,471.367658919,471.3498405369901,471.3503098770016,471.367658919,471.367658919,471.367658919,,471.96360466300393,,,,,,,,,,,,,,,,,,,,,,,,,,,,,,right,0.0,0.5932653820054838,,,,,sub-226,1,random_dot,66.06107422405643,
right,right,52.0,0.0,26.0,right,1.0,1.02039327500097,,accuracy,space,3.8687852489965735,,,,,,0.0,0.0,0.0,0.0,26.0,0.0,52.0,1.0,471.9731139189971,,,,,,,,,471.9641877050017,472.3177292369946,473.1122988739953,473.1012892180006,473.1017496440036,473.1122988739953,473.1122988739953,473.1122988739953,,474.13822164200246,,,,,,,,,,,,,,,,,,,,,,,,,,,,,,right,1.0,1.02039327500097,,,,,sub-226,1,random_dot,66.06107422405643,
left,left,53.0,1.0,26.0,right,0.0,1.7926800660061415,,accuracy,space,3.8687852489965735,,,,,,0.0,0.0,0.0,0.0,26.0,1.0,53.0,0.0,474.1476611649996,,,,,,,,,474.13869032700313,474.2362939779996,475.0405298650003,475.02712263599096,475.02814260199375,475.0405298650003,475.0405298650003,475.0405298650003,,476.8415395359916,,,,,,,,,,,,,,,,,,,,,,,,,,,,,,right,0.0,1.7926800660061415,,,,,sub-226,1,random_dot,66.06107422405643,
left,left,54.0,0.0,27.0,right,0.0,3.476085697009694,,accuracy,space,3.8687852489965735,,,,,,0.0,0.0,0.0,0.0,27.0,0.0,54.0,0.0,476.8506239599956,,,,,,,,,476.8418081220007,477.18562664699857,477.9815688529925,477.9701873680024,477.9712212479935,477.9815688529925,477.9815688529925,477.9815688529925,,481.4623475749977,,,,,,,,,,,,,,,,,,,,,,,,,,,,,,right,0.0,3.476085697009694,,,,,sub-226,1,random_dot,66.06107422405643,
right,right,55.0,1.0,27.0,left,0.0,0.7806530219968408,,accuracy,space,3.8687852489965735,,,,,,0.0,0.0,0.0,0.0,27.0,1.0,55.0,1.0,481.47274157599895,,,,,,,,,481.4627469889965,482.26838388098986,483.0738202130015,483.0599943419948,483.06106466699566,483.0738202130015,483.0738202130015,483.0738202130015,,483.85845394099306,,,,,,,,,,,,,,,,,,,,,,,,,,,,,,left,0.0,0.7806530219968408,,,,,sub-226,1,random_dot,66.06107422405643,
left,left,56.0,0.0,28.0,right,0.0,0.3759313600021414,,accuracy,space,3.8687852489965735,,,,,,0.0,0.0,0.0,0.0,28.0,0.0,56.0,0.0,483.86964016899583,,,,,,,,,483.8587655529991,484.6594163379923,485.4674118819967,485.4495260900003,485.4499712120014,485.4674118819967,485.4674118819967,485.4674118819967,,485.8556357569905,,,,,,,,,,,,,,,,,,,,,,,,,,,,,,right,0.0,0.3759313600021414,,,,,sub-226,1,random_dot,66.06107422405643,
right,right,57.0,1.0,28.0,right,1.0,0.9628836659976514,,accuracy,space,3.8687852489965735,,,,,,0.0,0.0,0.0,0.0,28.0,1.0,57.0,1.0,485.8648236269946,,,,,,,,,485.8561233789951,485.9524506680027,486.7674520970031,486.74962797899207,486.75009608399705,486.7674520970031,486.7674520970031,486.7674520970031,,487.7352711909916,,,,,,,,,,,,,,,,,,,,,,,,,,,,,,right,1.0,0.9628836659976514,,,,,sub-226,1,random_dot,66.06107422405643,
left,left,58.0,0.0,29.0,right,0.0,1.3305504400050268,,accuracy,space,3.8687852489965735,,,,,,0.0,0.0,0.0,0.0,29.0,0.0,58.0,0.0,487.74374447199807,,,,,,,,,487.7355275059963,488.533958325992,489.3507175409904,489.33279682199645,489.3332614259998,489.3507175409904,489.3507175409904,489.3507175409904,,490.6927383699949,,,,,,,,,,,,,,,,,,,,,,,,,,,,,,right,0.0,1.3305504400050268,,,,,sub-226,1,random_dot,66.06107422405643,
right,right,59.0,1.0,29.0,left,0.0,4.0766338700050255,,accuracy,space,3.8687852489965735,,,,,,0.0,0.0,0.0,0.0,29.0,1.0,59.0,1.0,490.7019427460036,,,,,,,,,490.6930104409985,491.8859087169985,492.701464001002,492.6828103669977,492.68325876200106,492.701464001002,492.701464001002,492.701464001002,,496.7923145459936,,,,,,,,,,,,,,,,,,,,,,,,,,,,,,left,0.0,4.0766338700050255,,,,,sub-226,1,random_dot,66.06107422405643,
,,0.0,0.0,0.0,,,,,accuracy,space,3.8687852489965735,,,,,,0.0,0.0,0.0,0.0,,,,,,,,,,,,,,,,,,,,,,,,,,,,,,,,,,,,,,,,,,,,,,,,,,,,,,,,,,,,sub-226,1,random_dot,66.06107422405643,
left,left,0.0,0.0,0.0,right,0.0,0.7149277709977468,,speed,space,4.108115759008797,,,,,,0.0,1.0,1.0,1.0,0.0,0.0,0.0,0.0,500.94526155399217,,,,,,,,,500.9355696679995,501.7350252369943,502.5400309379911,502.52681615499023,502.5277858879999,502.5400309379911,502.5400309379911,502.5400309379911,,503.26808279599936,,,,,,,,,,,,,,,,,,,,,,,496.8087753419968,496.8183736619976,496.8183736619976,500.9286477150017,space,4.108115759008797,,right,0.0,0.7149277709977468,,,,,sub-226,1,random_dot,66.06107422405643,
right,right,1.0,1.0,0.0,left,0.0,0.3309211769956164,,speed,space,4.108115759008797,,,,,,0.0,1.0,1.0,1.0,0.0,1.0,1.0,1.0,503.27716215199325,,,,,,,,,503.2684576570027,504.4629715089977,505.2672939710028,505.2497023579927,505.25013788799697,505.2672939710028,505.2672939710028,505.2672939710028,,505.6055387739907,,,,,,,,,,,,,,,,,,,,,,,,,,,,,,left,0.0,0.3309211769956164,,,,,sub-226,1,random_dot,66.06107422405643,
right,right,2.0,0.0,1.0,right,1.0,0.648565587005578,,speed,space,4.108115759008797,,,,,,0.0,1.0,1.0,1.0,1.0,0.0,2.0,1.0,505.6148074739904,,,,,,,,,505.6058514489996,505.9543903649901,506.76137229800224,506.7508273269923,506.7512876660039,506.76137229800224,506.76137229800224,506.76137229800224,,507.41448435999337,,,,,,,,,,,,,,,,,,,,,,,,,,,,,,right,1.0,0.648565587005578,,,,,sub-226,1,random_dot,66.06107422405643,
left,left,3.0,1.0,1.0,right,0.0,0.517857708997326,,speed,space,4.108115759008797,,,,,,0.0,1.0,1.0,1.0,1.0,1.0,3.0,0.0,507.4237321249966,,,,,,,,,507.415346349997,507.7627835169988,508.5612340340013,508.5507736080035,508.5512283470016,508.5612340340013,508.5612340340013,508.5612340340013,,509.0876294189948,,,,,,,,,,,,,,,,,,,,,,,,,,,,,,right,0.0,0.517857708997326,,,,,sub-226,1,random_dot,66.06107422405643,
right,right,4.0,0.0,2.0,left,0.0,0.9720169360080037,,speed,space,4.108115759008797,,,,,,0.0,1.0,1.0,1.0,2.0,0.0,4.0,1.0,509.1004939889972,,,,,,,,,509.0878874280024,509.892540877001,510.6946782649902,510.68418981099967,510.6846480459935,510.6946782649902,510.6946782649902,510.6946782649902,,511.6707917360036,,,,,,,,,,,,,,,,,,,,,,,,,,,,,,left,0.0,0.9720169360080037,,,,,sub-226,1,random_dot,66.06107422405643,
left,left,5.0,1.0,2.0,right,0.0,0.989388810005039,,speed,space,4.108115759008797,,,,,,0.0,1.0,1.0,1.0,2.0,1.0,5.0,0.0,511.6835626410029,,,,,,,,,511.67108601699874,512.4726547309983,513.2734076509951,513.2599602260016,513.2609852729947,513.2734076509951,513.2734076509951,513.2734076509951,,514.271198892995,,,,,,,,,,,,,,,,,,,,,,,,,,,,,,right,0.0,0.989388810005039,,,,,sub-226,1,random_dot,66.06107422405643,
left,left,6.0,0.0,3.0,right,0.0,1.3854987630038522,,speed,space,4.108115759008797,,,,,,0.0,1.0,1.0,1.0,3.0,0.0,6.0,0.0,514.2834510469984,,,,,,,,,514.2714602369961,515.468303688991,516.2650352049968,516.2526672789973,516.2538883689995,516.2650352049968,516.2650352049968,516.2650352049968,,517.6625831239944,,,,,,,,,,,,,,,,,,,,,,,,,,,,,,right,0.0,1.3854987630038522,,,,,sub-226,1,random_dot,66.06107422405643,
right,right,7.0,1.0,3.0,left,0.0,1.3504231520055328,,speed,space,4.108115759008797,,,,,,0.0,1.0,1.0,1.0,3.0,1.0,7.0,1.0,517.672579924998,,,,,,,,,517.6630438499997,517.7590068190038,518.5669794409914,518.5491558950016,518.5496165549994,518.5669794409914,518.5669794409914,518.5669794409914,,519.9298437660036,,,,,,,,,,,,,,,,,,,,,,,,,,,,,,left,0.0,1.3504231520055328,,,,,sub-226,1,random_dot,66.06107422405643,
right,right,8.0,0.0,4.0,right,1.0,1.0433908720006002,,speed,space,4.108115759008797,,,,,,0.0,1.0,1.0,1.0,4.0,0.0,8.0,1.0,519.9399153409904,,,,,,,,,519.9306732559926,520.7294203509955,521.5502029469935,521.5323670479993,521.5328337999963,521.5502029469935,521.5502029469935,521.5502029469935,,522.5958984669996,,,,,,,,,,,,,,,,,,,,,,,,,,,,,,right,1.0,1.0433908720006002,,,,,sub-226,1,random_dot,66.06107422405643,
left,left,9.0,1.0,4.0,left,1.0,2.6267545619921293,,speed,space,4.108115759008797,,,,,,0.0,1.0,1.0,1.0,4.0,1.0,9.0,0.0,522.6051669470035,,,,,,,,,522.596270754002,523.392234961997,524.1909307070018,524.1806169060001,524.1813458129909,524.1909307070018,524.1909307070018,524.1909307070018,,526.8248434319976,,,,,,,,,,,,,,,,,,,,,,,,,,,,,,left,1.0,2.6267545619921293,,,,,sub-226,1,random_dot,66.06107422405643,
right,right,10.0,0.0,5.0,left,0.0,2.0888668690022314,,speed,space,4.108115759008797,,,,,,0.0,1.0,1.0,1.0,5.0,0.0,10.0,1.0,526.8355152629956,,,,,,,,,526.825289439992,528.0254237589979,528.8278537509905,528.8172575399949,528.8177142589993,528.8278537509905,528.8278537509905,528.8278537509905,,530.9239357039914,,,,,,,,,,,,,,,,,,,,,,,,,,,,,,left,0.0,2.0888668690022314,,,,,sub-226,1,random_dot,66.06107422405643,
left,left,11.0,1.0,5.0,right,0.0,1.4995783930062316,,speed,space,4.108115759008797,,,,,,0.0,1.0,1.0,1.0,5.0,1.0,11.0,0.0,530.9335752469924,,,,,,,,,530.9242675650021,531.7252011160017,532.5267399379954,532.5170429029968,532.5173688509967,532.5267399379954,532.5267399379954,532.5267399379954,,534.0341442889912,,,,,,,,,,,,,,,,,,,,,,,,,,,,,,right,0.0,1.4995783930062316,,,,,sub-226,1,random_dot,66.06107422405643,
left,left,12.0,0.0,6.0,left,1.0,1.7981325679866131,,speed,space,4.108115759008797,,,,,,0.0,1.0,1.0,1.0,6.0,0.0,12.0,0.0,534.0438881750015,,,,,,,,,534.034717677001,534.1329962439922,534.9500312009914,534.9331845790002,534.9337548539916,534.9500312009914,534.9500312009914,534.9500312009914,,536.7512533809931,,,,,,,,,,,,,,,,,,,,,,,,,,,,,,left,1.0,1.7981325679866131,,,,,sub-226,1,random_dot,66.06107422405643,
right,right,13.0,1.0,6.0,right,1.0,1.3052148269925965,,speed,space,4.108115759008797,,,,,,0.0,1.0,1.0,1.0,6.0,1.0,13.0,1.0,536.7600770209974,,,,,,,,,536.7515238119959,537.1017057040008,537.9000661419996,537.8864203289995,537.8870301669958,537.9000661419996,537.9000661419996,537.9000661419996,,539.2111800370039,,,,,,,,,,,,,,,,,,,,,,,,,,,,,,right,1.0,1.3052148269925965,,,,,sub-226,1,random_dot,66.06107422405643,
left,left,14.0,0.0,7.0,left,1.0,1.4227738960034912,,speed,space,4.108115759008797,,,,,,0.0,1.0,1.0,1.0,7.0,0.0,14.0,0.0,539.2210853860015,,,,,,,,,539.2115796939906,540.4164765539899,541.233320785992,541.2154111139971,541.215849233995,541.233320785992,541.233320785992,541.233320785992,,542.6574371899915,,,,,,,,,,,,,,,,,,,,,,,,,,,,,,left,1.0,1.4227738960034912,,,,,sub-226,1,random_dot,66.06107422405643,
right,right,15.0,1.0,7.0,left,0.0,1.6383565779979108,,speed,space,4.108115759008797,,,,,,0.0,1.0,1.0,1.0,7.0,1.0,15.0,1.0,542.6682061049942,,,,,,,,,542.6577772750024,542.7584095859929,543.5611463090027,543.5504310179967,543.5508882330032,543.5611463090027,543.5611463090027,543.5611463090027,,545.2085478630033,,,,,,,,,,,,,,,,,,,,,,,,,,,,,,left,0.0,1.6383565779979108,,,,,sub-226,1,random_dot,66.06107422405643,
left,left,16.0,0.0,8.0,left,1.0,1.8669806069956396,,speed,space,4.108115759008797,,,,,,0.0,1.0,1.0,1.0,8.0,0.0,16.0,0.0,545.2176680169941,,,,,,,,,545.2088194219978,545.3100772429898,546.111401289003,546.1004421609978,546.1009026550018,546.111401289003,546.111401289003,546.111401289003,,547.9913317399914,,,,,,,,,,,,,,,,,,,,,,,,,,,,,,left,1.0,1.8669806069956396,,,,,sub-226,1,random_dot,66.06107422405643,
right,right,17.0,1.0,8.0,right,1.0,0.9316804770060116,,speed,space,4.108115759008797,,,,,,0.0,1.0,1.0,1.0,8.0,1.0,17.0,1.0,548.0003480199957,,,,,,,,,547.9916059949901,549.1852001139923,549.9998902520019,549.9820002899942,549.9824610399955,549.9998902520019,549.9998902520019,549.9998902520019,,550.9424008249916,,,,,,,,,,,,,,,,,,,,,,,,,,,,,,right,1.0,0.9316804770060116,,,,,sub-226,1,random_dot,66.06107422405643,
right,right,18.0,0.0,9.0,left,0.0,2.252583929002867,,speed,space,4.108115759008797,,,,,,0.0,1.0,1.0,1.0,9.0,0.0,18.0,1.0,550.9514734789991,,,,,,,,,550.942677457002,551.0416893209913,551.8498992829991,551.8319515449984,551.8324137119926,551.8498992829991,551.8498992829991,551.8498992829991,,554.1036593909957,,,,,,,,,,,,,,,,,,,,,,,,,,,,,,left,0.0,2.252583929002867,,,,,sub-226,1,random_dot,66.06107422405643,
left,left,19.0,1.0,9.0,right,0.0,1.6846987210010411,,speed,space,4.108115759008797,,,,,,0.0,1.0,1.0,1.0,9.0,1.0,19.0,0.0,554.1163216379937,,,,,,,,,554.1039956659952,555.3016712569952,556.0966338799917,556.0853518569929,556.0866056119994,556.0966338799917,556.0966338799917,556.0966338799917,,557.7828661300009,,,,,,,,,,,,,,,,,,,,,,,,,,,,,,right,0.0,1.6846987210010411,,,,,sub-226,1,random_dot,66.06107422405643,
right,right,20.0,0.0,10.0,left,0.0,1.7953195099980803,,speed,space,4.108115759008797,,,,,,0.0,1.0,1.0,1.0,10.0,0.0,20.0,1.0,557.799755243992,,,,,,,,,557.7831744629948,558.9845171069901,559.7997699199914,559.7818383639969,559.7821706989926,559.7997699199914,559.7997699199914,559.7997699199914,,561.6083881189988,,,,,,,,,,,,,,,,,,,,,,,,,,,,,,left,0.0,1.7953195099980803,,,,,sub-226,1,random_dot,66.06107422405643,
left,left,21.0,1.0,10.0,right,0.0,1.865662008000072,,speed,space,4.108115759008797,,,,,,0.0,1.0,1.0,1.0,10.0,1.0,21.0,0.0,561.6177107909898,,,,,,,,,561.608723516998,562.4175837020011,563.2272235459968,563.216772721993,563.2172311539907,563.2272235459968,563.2272235459968,563.2272235459968,,565.0956763540016,,,,,,,,,,,,,,,,,,,,,,,,,,,,,,right,0.0,1.865662008000072,,,,,sub-226,1,random_dot,66.06107422405643,
right,right,22.0,0.0,11.0,right,1.0,1.7855810259934517,,speed,space,4.108115759008797,,,,,,0.0,1.0,1.0,1.0,11.0,0.0,22.0,1.0,565.1050615979912,,,,,,,,,565.0963714980026,565.8949358660029,566.6930835200037,566.6835154430009,566.6838380510017,566.6930835200037,566.6930835200037,566.6930835200037,,568.4831691580039,,,,,,,,,,,,,,,,,,,,,,,,,,,,,,right,1.0,1.7855810259934517,,,,,sub-226,1,random_dot,66.06107422405643,
left,left,23.0,1.0,11.0,right,0.0,1.99462303200562,,speed,space,4.108115759008797,,,,,,0.0,1.0,1.0,1.0,11.0,1.0,23.0,0.0,568.4915586650022,,,,,,,,,568.4835522529902,568.8347160179983,569.6391458879953,569.6258140190039,569.626827257991,569.6391458879953,569.6391458879953,569.6391458879953,,571.6448648910009,,,,,,,,,,,,,,,,,,,,,,,,,,,,,,right,0.0,1.99462303200562,,,,,sub-226,1,random_dot,66.06107422405643,
left,left,24.0,0.0,12.0,right,0.0,2.6704503590008244,,speed,space,4.108115759008797,,,,,,0.0,1.0,1.0,1.0,12.0,0.0,24.0,0.0,571.6548762530001,,,,,,,,,571.6451800439972,571.7459057550004,572.5663013519952,572.5484055629931,572.5488741680019,572.5663013519952,572.5663013519952,572.5663013519952,,575.2492041989899,,,,,,,,,,,,,,,,,,,,,,,,,,,,,,right,0.0,2.6704503590008244,,,,,sub-226,1,random_dot,66.06107422405643,
right,right,25.0,1.0,12.0,left,0.0,2.4750670539942803,,speed,space,4.108115759008797,,,,,,0.0,1.0,1.0,1.0,12.0,1.0,25.0,1.0,575.2583522170025,,,,,,,,,575.249666150994,575.6012883599906,576.4161545889947,576.3980600450013,576.3983071370021,576.4161545889947,576.4161545889947,576.4161545889947,,578.9013852179924,,,,,,,,,,,,,,,,,,,,,,,,,,,,,,left,0.0,2.4750670539942803,,,,,sub-226,1,random_dot,66.06107422405643,
right,right,26.0,0.0,13.0,right,1.0,4.162546246006968,,speed,space,4.108115759008797,,,,,,0.0,1.0,1.0,1.0,13.0,0.0,26.0,1.0,578.9118344219896,,,,,,,,,578.9018720189924,579.0148295879917,579.832926513991,579.8148793379951,579.8153124989913,579.832926513991,579.832926513991,579.832926513991,,584.0032710689993,,,,,,,,,,,,,,,,,,,,,,,,,,,,,,right,1.0,4.162546246006968,,,,,sub-226,1,random_dot,66.06107422405643,
left,left,27.0,1.0,13.0,left,1.0,1.2069609250029316,,speed,space,4.108115759008797,,,,,,0.0,1.0,1.0,1.0,13.0,1.0,27.0,0.0,584.0158881629904,,,,,,,,,584.0035314879933,584.814550516996,585.6329643600038,585.6149335380032,585.6154244679929,585.6329643600038,585.6329643600038,585.6329643600038,,586.8444512209971,,,,,,,,,,,,,,,,,,,,,,,,,,,,,,left,1.0,1.2069609250029316,,,,,sub-226,1,random_dot,66.06107422405643,
left,left,28.0,0.0,14.0,right,0.0,0.9228506340004968,,speed,space,4.108115759008797,,,,,,0.0,1.0,1.0,1.0,14.0,0.0,28.0,0.0,586.8545933239948,,,,,,,,,586.8448677289998,588.0445204330026,588.8436337339954,588.8331098799972,588.8335701710021,588.8436337339954,588.8436337339954,588.8436337339954,,589.7701723649952,,,,,,,,,,,,,,,,,,,,,,,,,,,,,,right,0.0,0.9228506340004968,,,,,sub-226,1,random_dot,66.06107422405643,
right,right,29.0,1.0,14.0,left,0.0,0.8496253630000865,,speed,space,4.108115759008797,,,,,,0.0,1.0,1.0,1.0,14.0,1.0,29.0,1.0,589.7825452629913,,,,,,,,,589.7704878410004,589.8675869939907,590.6722611000005,590.6591400670004,590.660036382993,590.6722611000005,590.6722611000005,590.6722611000005,,591.5241365080001,,,,,,,,,,,,,,,,,,,,,,,,,,,,,,left,0.0,0.8496253630000865,,,,,sub-226,1,random_dot,66.06107422405643,
right,right,30.0,0.0,15.0,right,1.0,0.6920802329987055,,speed,space,4.108115759008797,,,,,,0.0,1.0,1.0,1.0,15.0,0.0,30.0,1.0,591.5327572020033,,,,,,,,,591.524490419004,592.3217819659912,593.1226674499922,593.1086187990004,593.1098292609968,593.1226674499922,593.1226674499922,593.1226674499922,,593.8236550540023,,,,,,,,,,,,,,,,,,,,,,,,,,,,,,right,1.0,0.6920802329987055,,,,,sub-226,1,random_dot,66.06107422405643,
left,left,31.0,1.0,15.0,left,1.0,1.3098192019970156,,speed,space,4.108115759008797,,,,,,0.0,1.0,1.0,1.0,15.0,1.0,31.0,0.0,593.8347822060023,,,,,,,,,593.8239144489926,594.1747369689983,594.9768300169962,594.9663392910006,594.9667972460011,594.9768300169962,594.9768300169962,594.9768300169962,,596.2996744609991,,,,,,,,,,,,,,,,,,,,,,,,,,,,,,left,1.0,1.3098192019970156,,,,,sub-226,1,random_dot,66.06107422405643,
left,left,32.0,0.0,16.0,left,1.0,1.349997662997339,,speed,space,4.108115759008797,,,,,,0.0,1.0,1.0,1.0,16.0,0.0,32.0,0.0,596.307917373997,,,,,,,,,596.2999725529953,597.100986341,597.9054554920003,597.8920227869967,597.8929941090028,597.9054554920003,597.9054554920003,597.9054554920003,,599.2689240460022,,,,,,,,,,,,,,,,,,,,,,,,,,,,,,left,1.0,1.349997662997339,,,,,sub-226,1,random_dot,66.06107422405643,
right,right,33.0,1.0,16.0,right,1.0,1.610814219005988,,speed,space,4.108115759008797,,,,,,0.0,1.0,1.0,1.0,16.0,1.0,33.0,1.0,599.2824961970036,,,,,,,,,599.2693025949993,599.371455607994,600.1768960949994,600.1662292580004,600.1666847519955,600.1768960949994,600.1768960949994,600.1768960949994,,601.7954910169938,,,,,,,,,,,,,,,,,,,,,,,,,,,,,,right,1.0,1.610814219005988,,,,,sub-226,1,random_dot,66.06107422405643,
left,left,34.0,0.0,17.0,right,0.0,5.320839046995388,,speed,space,4.108115759008797,,,,,,0.0,1.0,1.0,1.0,17.0,0.0,34.0,0.0,601.8062354819995,,,,,,,,,601.7961323850031,602.9911153709982,603.7992042039987,603.7814136349916,603.7818795549974,603.7992042039987,603.7992042039987,603.7992042039987,608.7845106939931,609.1314110910025,,,,,,,,,,,,,,,,,,,,,,,,,,,,,,right,0.0,5.320839046995388,,,,,sub-226,1,random_dot,66.06107422405643,
right,right,35.0,1.0,17.0,right,1.0,1.2482761400024174,,speed,space,4.108115759008797,,,,,,0.0,1.0,1.0,1.0,17.0,1.0,35.0,1.0,609.1490725269978,,,,,,,,,609.1317302020034,609.9253304529993,610.7265081489895,610.7160945109936,610.716524753996,610.7265081489895,610.7265081489895,610.7265081489895,,611.9861802520027,,,,,,,,,,,,,,,,,,,,,,,,,,,,,,right,1.0,1.2482761400024174,,,,,sub-226,1,random_dot,66.06107422405643,
right,right,36.0,0.0,18.0,left,0.0,0.9445006860041758,,speed,space,4.108115759008797,,,,,,0.0,1.0,1.0,1.0,18.0,0.0,36.0,1.0,611.9990851799957,,,,,,,,,611.9864435049967,612.334273859,613.1385063909984,613.1250719389936,613.1260717309924,613.1385063909984,613.1385063909984,613.1385063909984,,614.0912345410034,,,,,,,,,,,,,,,,,,,,,,,,,,,,,,left,0.0,0.9445006860041758,,,,,sub-226,1,random_dot,66.06107422405643,
left,left,37.0,1.0,18.0,left,1.0,0.4940992739866487,,speed,space,4.108115759008797,,,,,,0.0,1.0,1.0,1.0,18.0,1.0,37.0,0.0,614.100654748996,,,,,,,,,614.0915536609973,614.1907838170009,614.9989596619998,614.9811493890011,614.9816136589943,614.9989596619998,614.9989596619998,614.9989596619998,,615.4998054600001,,,,,,,,,,,,,,,,,,,,,,,,,,,,,,left,1.0,0.4940992739866487,,,,,sub-226,1,random_dot,66.06107422405643,
left,left,38.0,0.0,19.0,right,0.0,1.020626418001484,,speed,space,4.108115759008797,,,,,,0.0,1.0,1.0,1.0,19.0,0.0,38.0,0.0,615.5093187530001,,,,,,,,,615.5000592900033,616.6911816729989,617.4873548390024,617.4749589319981,617.4757511709904,617.4873548390024,617.4873548390024,617.4873548390024,,618.5168143339979,,,,,,,,,,,,,,,,,,,,,,,,,,,,,,right,0.0,1.020626418001484,,,,,sub-226,1,random_dot,66.06107422405643,
right,right,39.0,1.0,19.0,left,0.0,1.254952698989655,,speed,space,4.108115759008797,,,,,,0.0,1.0,1.0,1.0,19.0,1.0,39.0,1.0,618.5252946389955,,,,,,,,,618.5171212529967,618.6155930709938,619.4097782850004,619.3993411709962,619.399800070998,619.4097782850004,619.4097782850004,619.4097782850004,,620.6746427949984,,,,,,,,,,,,,,,,,,,,,,,,,,,,,,left,0.0,1.254952698989655,,,,,sub-226,1,random_dot,66.06107422405643,
left,left,40.0,0.0,20.0,left,1.0,1.4012137779936893,,speed,space,4.108115759008797,,,,,,0.0,1.0,1.0,1.0,20.0,0.0,40.0,0.0,620.6838659130008,,,,,,,,,620.6749193589931,620.7746578459919,621.567597272995,621.5579698419897,621.5582995650038,621.567597272995,621.567597272995,621.567597272995,,622.9763679899916,,,,,,,,,,,,,,,,,,,,,,,,,,,,,,left,1.0,1.4012137779936893,,,,,sub-226,1,random_dot,66.06107422405643,
right,right,41.0,1.0,20.0,right,1.0,1.4226542499964123,,speed,space,4.108115759008797,,,,,,0.0,1.0,1.0,1.0,20.0,1.0,41.0,1.0,622.9869809340016,,,,,,,,,622.9767215689935,623.321332432999,624.1177975979954,624.1062895659998,624.1072368110035,624.1177975979954,624.1177975979954,624.1177975979954,,625.5519454129972,,,,,,,,,,,,,,,,,,,,,,,,,,,,,,right,1.0,1.4226542499964123,,,,,sub-226,1,random_dot,66.06107422405643,
left,left,42.0,0.0,21.0,right,0.0,2.1185896290116943,,speed,space,4.108115759008797,,,,,,0.0,1.0,1.0,1.0,21.0,0.0,42.0,0.0,625.5612191999971,,,,,,,,,625.5523871519981,625.9006852199964,626.7097140190017,626.6992428380036,626.6996990119951,626.7097140190017,626.7097140190017,626.7097140190017,,628.8409243939968,,,,,,,,,,,,,,,,,,,,,,,,,,,,,,right,0.0,2.1185896290116943,,,,,sub-226,1,random_dot,66.06107422405643,
right,right,43.0,1.0,21.0,right,1.0,2.015090775996214,,speed,space,4.108115759008797,,,,,,0.0,1.0,1.0,1.0,21.0,1.0,43.0,1.0,628.8502227129939,,,,,,,,,628.8412360249931,630.0486991689977,630.8656540239899,630.8476763509971,630.8481376919954,630.8656540239899,630.8656540239899,630.8656540239899,,632.8906379399996,,,,,,,,,,,,,,,,,,,,,,,,,,,,,,right,1.0,2.015090775996214,,,,,sub-226,1,random_dot,66.06107422405643,
left,left,44.0,0.0,22.0,right,0.0,1.7031032149970995,,speed,space,4.108115759008797,,,,,,0.0,1.0,1.0,1.0,22.0,0.0,44.0,0.0,632.9022430449986,,,,,,,,,632.8909151970001,633.2487937370024,634.0596374199959,634.0491311419901,634.0495885900018,634.0596374199959,634.0596374199959,634.0596374199959,,635.765824061993,,,,,,,,,,,,,,,,,,,,,,,,,,,,,,right,0.0,1.7031032149970995,,,,,sub-226,1,random_dot,66.06107422405643,
right,right,45.0,1.0,22.0,right,1.0,1.7305055890028598,,speed,space,4.108115759008797,,,,,,0.0,1.0,1.0,1.0,22.0,1.0,45.0,1.0,635.7743313309911,,,,,,,,,635.7662076209963,636.960438545997,637.7821620250033,637.7643503629952,637.7648150500027,637.7821620250033,637.7821620250033,637.7821620250033,,639.5156942449976,,,,,,,,,,,,,,,,,,,,,,,,,,,,,,right,1.0,1.7305055890028598,,,,,sub-226,1,random_dot,66.06107422405643,
left,left,46.0,0.0,23.0,left,1.0,1.6751033470063703,,speed,space,4.108115759008797,,,,,,0.0,1.0,1.0,1.0,23.0,0.0,46.0,0.0,639.5238096079993,,,,,,,,,639.5159896289988,640.3122600959905,641.1154348400014,641.0974386759917,641.0979057630029,641.1154348400014,641.1154348400014,641.1154348400014,,642.7965946009936,,,,,,,,,,,,,,,,,,,,,,,,,,,,,,left,1.0,1.6751033470063703,,,,,sub-226,1,random_dot,66.06107422405643,
right,right,47.0,1.0,23.0,right,1.0,2.920040418001008,,speed,space,4.108115759008797,,,,,,0.0,1.0,1.0,1.0,23.0,1.0,47.0,1.0,642.8064561069914,,,,,,,,,642.7972871179954,643.5902374330035,644.3873663870036,644.3749619199953,644.3759237009945,644.3873663870036,644.3873663870036,644.3873663870036,,647.3182724219951,,,,,,,,,,,,,,,,,,,,,,,,,,,,,,right,1.0,2.920040418001008,,,,,sub-226,1,random_dot,66.06107422405643,
right,right,48.0,0.0,24.0,right,1.0,0.5348650359956082,,speed,space,4.108115759008797,,,,,,0.0,1.0,1.0,1.0,24.0,0.0,48.0,1.0,647.3284268150019,,,,,,,,,647.3186912209931,648.521230525992,649.3215501889936,649.3080489619897,649.3090613230015,649.3215501889936,649.3215501889936,649.3215501889936,,649.861105582997,,,,,,,,,,,,,,,,,,,,,,,,,,,,,,right,1.0,0.5348650359956082,,,,,sub-226,1,random_dot,66.06107422405643,
left,left,49.0,1.0,24.0,left,1.0,1.3726382460008608,,speed,space,4.108115759008797,,,,,,0.0,1.0,1.0,1.0,24.0,1.0,49.0,0.0,649.8719877330004,,,,,,,,,649.8618608209945,650.2070098449913,651.0045568249916,650.9915550759906,650.9925569960033,651.0045568249916,651.0045568249916,651.0045568249916,,652.3895084410033,,,,,,,,,,,,,,,,,,,,,,,,,,,,,,left,1.0,1.3726382460008608,,,,,sub-226,1,random_dot,66.06107422405643,
right,right,50.0,0.0,25.0,right,1.0,1.8617321100027768,,speed,space,4.108115759008797,,,,,,0.0,1.0,1.0,1.0,25.0,0.0,50.0,1.0,652.4013073179958,,,,,,,,,652.3898253340012,652.4875045109948,653.2985808779922,653.2806467560004,653.2811079300009,653.2985808779922,653.2985808779922,653.2985808779922,,655.1734439809952,,,,,,,,,,,,,,,,,,,,,,,,,,,,,,right,1.0,1.8617321100027768,,,,,sub-226,1,random_dot,66.06107422405643,
left,left,51.0,1.0,25.0,right,0.0,1.5531405920046382,,speed,space,4.108115759008797,,,,,,0.0,1.0,1.0,1.0,25.0,1.0,51.0,0.0,655.1828690900002,,,,,,,,,655.1737798069953,656.3738551739953,657.1758010219928,657.1654653269943,657.1659000549989,657.1758010219928,657.1758010219928,657.1758010219928,,658.7329446950025,,,,,,,,,,,,,,,,,,,,,,,,,,,,,,right,0.0,1.5531405920046382,,,,,sub-226,1,random_dot,66.06107422405643,
left,left,52.0,0.0,26.0,left,1.0,3.9223604170110775,,speed,space,4.108115759008797,,,,,,0.0,1.0,1.0,1.0,26.0,0.0,52.0,0.0,658.7425621489965,,,,,,,,,658.7333245679911,659.0820298559993,659.8985189410014,659.8805946319917,659.8810563309962,659.8985189410014,659.8985189410014,659.8985189410014,,663.8222370949952,,,,,,,,,,,,,,,,,,,,,,,,,,,,,,left,1.0,3.9223604170110775,,,,,sub-226,1,random_dot,66.06107422405643,
right,right,53.0,1.0,26.0,right,1.0,2.4859904750046558,,speed,space,4.108115759008797,,,,,,0.0,1.0,1.0,1.0,26.0,1.0,53.0,1.0,663.8334957519983,,,,,,,,,663.8226295030036,663.9241068249976,664.7207283909956,664.7076850000012,664.7088155079982,664.7207283909956,664.7207283909956,664.7207283909956,,667.2182714730006,,,,,,,,,,,,,,,,,,,,,,,,,,,,,,right,1.0,2.4859904750046558,,,,,sub-226,1,random_dot,66.06107422405643,
right,right,54.0,0.0,27.0,left,0.0,1.4933462449989747,,speed,space,4.108115759008797,,,,,,0.0,1.0,1.0,1.0,27.0,0.0,54.0,1.0,667.2283405609924,,,,,,,,,667.2186851150036,667.3189996619913,668.1193778619927,668.1075624730001,668.1086973089987,668.1193778619927,668.1193778619927,668.1193778619927,,669.6222480939905,,,,,,,,,,,,,,,,,,,,,,,,,,,,,,left,0.0,1.4933462449989747,,,,,sub-226,1,random_dot,66.06107422405643,
left,left,55.0,1.0,27.0,left,1.0,2.888300057005836,,speed,space,4.108115759008797,,,,,,0.0,1.0,1.0,1.0,27.0,1.0,55.0,0.0,669.6338520339923,,,,,,,,,669.6225240810018,669.9704314059927,670.7711369299941,670.7576416529919,670.7586404439935,670.7711369299941,670.7711369299941,670.7711369299941,,673.6653411180014,,,,,,,,,,,,,,,,,,,,,,,,,,,,,,left,1.0,2.888300057005836,,,,,sub-226,1,random_dot,66.06107422405643,
left,left,56.0,0.0,28.0,right,0.0,2.144617065001512,,speed,space,4.108115759008797,,,,,,0.0,1.0,1.0,1.0,28.0,0.0,56.0,0.0,673.6744963669917,,,,,,,,,673.6656018020003,674.459690661999,675.2623237719963,675.2512212150032,675.2521763029945,675.2623237719963,675.2623237719963,675.2623237719963,,677.4096802769927,,,,,,,,,,,,,,,,,,,,,,,,,,,,,,right,0.0,2.144617065001512,,,,,sub-226,1,random_dot,66.06107422405643,
right,right,57.0,1.0,28.0,left,0.0,1.85503376100678,,speed,space,4.108115759008797,,,,,,0.0,1.0,1.0,1.0,28.0,1.0,57.0,1.0,677.4200193360011,,,,,,,,,677.4100716179964,678.2068084959901,679.0148474909947,678.9969049999927,678.997367634991,679.0148474909947,679.0148474909947,679.0148474909947,,680.8748238800035,,,,,,,,,,,,,,,,,,,,,,,,,,,,,,left,0.0,1.85503376100678,,,,,sub-226,1,random_dot,66.06107422405643,
right,right,58.0,0.0,29.0,left,0.0,2.4919185479957378,,speed,space,4.108115759008797,,,,,,0.0,1.0,1.0,1.0,29.0,0.0,58.0,1.0,680.8854988849926,,,,,,,,,680.8751670389902,681.6733623239998,682.4713314010005,682.4573218790028,682.4583833109937,682.4713314010005,682.4713314010005,682.4713314010005,,684.9722910129931,,,,,,,,,,,,,,,,,,,,,,,,,,,,,,left,0.0,2.4919185479957378,,,,,sub-226,1,random_dot,66.06107422405643,
left,left,59.0,1.0,29.0,right,0.0,1.3131663630047117,,speed,space,4.108115759008797,,,,,,0.0,1.0,1.0,1.0,29.0,1.0,59.0,0.0,684.9839109210006,,,,,,,,,684.972568889003,685.7664186239999,686.5647411399987,686.551208992998,686.5516738320002,686.5647411399987,686.5647411399987,686.5647411399987,,687.8857183090004,,,,,,,,,,,,,,,,,,,,,,,,,,,,,,right,0.0,1.3131663630047117,,,,,sub-226,1,random_dot,66.06107422405643,
,,1.0,1.0,0.0,,,,,speed,space,4.108115759008797,,,,,,0.0,1.0,1.0,1.0,,,,,,,,,,,,,,,,,,,,,,,,,,,,,,,,,,,,,,,,,,,,,,,,,,,,,,,,,,,,sub-226,1,random_dot,66.06107422405643,
,,,,,,,,,,,,,,,,,,,,,,,,,,,,,,,,,,,,,,,,,,,,,,,,,,,,,,,,,,,,,,,,,,,,,,,,,,,,,687.8896434799972,687.8998886929912,692.8965593629982,sub-226,1,random_dot,66.06107422405643,
