wordCTK,colorCTK,corrAnsCTK,congruentCTK,thisN,thisTrialN,thisRepN,keyResp_CTK.keys,keyResp_CTK.corr,keyResp_CTK.rt,keyResp_CTK.duration,wordPractice,colorPractice,corrAnsPractice,congruentPractice,respPractice.keys,respPractice.corr,respPractice.rt,respPractice.duration,word,color,corrAns,congruent,keyResp_test_run.keys,keyResp_test_run.corr,keyResp_test_run.rt,keyResp_test_run.duration,trials_CTK.thisRepN,trials_CTK.thisTrialN,trials_CTK.thisN,trials_CTK.thisIndex,trials_practice.thisRepN,trials_practice.thisTrialN,trials_practice.thisN,trials_practice.thisIndex,trials_test.thisRepN,trials_test.thisTrialN,trials_test.thisN,trials_test.thisIndex,thisRow.t,notes,instruction.started,instr_text.started,instr_image.started,instr_resp.started,instruction.stopped,instr_resp.keys,instr_resp.rt,instr_resp.duration,instr_color_to_key.started,instr_ctk.started,resp_ctk.started,instr_color_to_key.stopped,resp_ctk.keys,resp_ctk.rt,resp_ctk.duration,ITI.started,fixcross.started,fixcross.stopped,ITI.stopped,color_to_key_run.started,stimulus_CTK.started,keyResp_CTK.started,color_to_key_run.stopped,trials_CTK.keyResp_CTK.keys,trials_CTK.keyResp_CTK.corr,trials_CTK.keyResp_CTK.rt,trials_CTK.keyResp_CTK.duration,instr_practice.started,instr_practice_text.started,instr_practice_resp.started,instr_practice.stopped,instr_practice_resp.keys,instr_practice_resp.rt,instr_practice_resp.duration,practice_run.started,stimulus_practice.started,respPractice.started,practice_run.stopped,trials_practice.respPractice.keys,trials_practice.respPractice.corr,trials_practice.respPractice.rt,trials_practice.respPractice.duration,feedback.started,textFeedback.started,feedback.stopped,instr_test.started,instr_test_text.started,instr_test_resp.started,instr_test.stopped,instr_test_resp.keys,instr_test_resp.rt,instr_test_resp.duration,test_run.started,stimulus_test_run.started,keyResp_test_run.started,test_run.stopped,trials_test.keyResp_test_run.keys,trials_test.keyResp_test_run.corr,trials_test.keyResp_test_run.rt,trials_test.keyResp_test_run.duration,goodbye.started,textGoodbye.started,goodbye.stopped,participant,session,expName,frameRate,Unnamed: 111
,,,,,,,,,,,,,,,,,,,,,,,,,,,,,,,,,,,,,,,,,0.0033814000198617,0.0702906000078655,0.0702906000078655,0.0702906000078655,33.71018009999534,space,33.63498360000085,,,,,,,,,,,,,,,,,,,,,,,,,,,,,,,,,,,,,,,,,,,,,,,,,,,,,,,,,sub-177,1,stroop_test,60.05504645175324,
,,,,,,,,,,,,,,,,,,,,,,,,,,,,,,,,,,,,,,,,,,,,,,,,,33.71023830000195,33.72581540001556,33.72581540001556,41.36609720002161,space,7.63642749999417,,,,,,,,,,,,,,,,,,,,,,,,,,,,,,,,,,,,,,,,,,,,,,,,,,sub-177,1,stroop_test,60.05504645175324,
test,blue,b,1.0,0.0,0.0,0.0,b,1.0,1.568395899987081,,,,,,,,,,,,,,,,,,0.0,0.0,0.0,2.0,,,,,,,,,41.38328380000894,,,,,,,,,,,,,,,,,41.38021500001196,41.731683999998495,42.54722619999666,42.53082720001112,42.53685830000904,42.54722619999666,42.54722619999666,44.12885040001129,b,1.0,1.568395899987081,,,,,,,,,,,,,,,,,,,,,,,,,,,,,,,,,,,,,,sub-177,1,stroop_test,60.05504645175324,
test,yellow,g,1.0,1.0,1.0,0.0,g,1.0,2.2620246000005864,,,,,,,,,,,,,,,,,,0.0,1.0,1.0,1.0,,,,,,,,,44.14516030001687,,,,,,,,,,,,,,,,,44.129145800019614,44.2283811000234,45.04395849999855,45.02763950001099,45.02812299999641,45.04395849999855,45.04395849999855,47.30800879999879,g,1.0,2.2620246000005864,,,,,,,,,,,,,,,,,,,,,,,,,,,,,,,,,,,,,,sub-177,1,stroop_test,60.05504645175324,
test,red,r,1.0,2.0,2.0,0.0,r,1.0,0.7259367000078782,,,,,,,,,,,,,,,,,,0.0,2.0,2.0,0.0,,,,,,,,,47.3242348000058,,,,,,,,,,,,,,,,,47.30832500001998,47.65718120001839,48.47286160002113,48.456325100007234,48.45676830000593,48.47286160002113,48.47286160002113,49.20610619999934,r,1.0,0.7259367000078782,,,,,,,,,,,,,,,,,,,,,,,,,,,,,,,,,,,,,,sub-177,1,stroop_test,60.05504645175324,
test,blue,b,1.0,3.0,0.0,1.0,b,1.0,1.1235635000048203,,,,,,,,,,,,,,,,,,1.0,0.0,3.0,2.0,,,,,,,,,49.22203000000445,,,,,,,,,,,,,,,,,49.20678989999578,49.32168850000016,50.13731630000984,50.12086480000289,50.12123590000556,50.13731630000984,50.13731630000984,51.2694464000233,b,1.0,1.1235635000048203,,,,,,,,,,,,,,,,,,,,,,,,,,,,,,,,,,,,,,sub-177,1,stroop_test,60.05504645175324,
test,red,r,1.0,4.0,1.0,1.0,r,1.0,1.457859300018754,,,,,,,,,,,,,,,,,,1.0,1.0,4.0,0.0,,,,,,,,,51.28565360000357,,,,,,,,,,,,,,,,,51.26975420000963,52.08462130001863,52.88367080001626,52.86721490000491,52.86767350000446,52.88367080001626,52.88367080001626,54.34866129999864,r,1.0,1.457859300018754,,,,,,,,,,,,,,,,,,,,,,,,,,,,,,,,,,,,,,sub-177,1,stroop_test,60.05504645175324,
test,yellow,g,1.0,5.0,2.0,1.0,g,1.0,0.7598704000120051,,,,,,,,,,,,,,,,,,1.0,2.0,5.0,1.0,,,,,,,,,54.364901900000405,,,,,,,,,,,,,,,,,54.34894039999927,55.16391500001191,55.97958010001457,55.9630482000066,55.96351600001799,55.97958010001457,55.97958010001457,56.74563849999686,g,1.0,0.7598704000120051,,,,,,,,,,,,,,,,,,,,,,,,,,,,,,,,,,,,,,sub-177,1,stroop_test,60.05504645175324,
test,yellow,g,1.0,6.0,0.0,2.0,g,1.0,0.8525403999956325,,,,,,,,,,,,,,,,,,2.0,0.0,6.0,1.0,,,,,,,,,56.76176190000842,,,,,,,,,,,,,,,,,56.74591200001305,57.96019510002225,58.775818599999184,58.759396800014656,58.75987579999492,58.775818599999184,58.775818599999184,59.64157300000079,g,1.0,0.8525403999956325,,,,,,,,,,,,,,,,,,,,,,,,,,,,,,,,,,,,,,sub-177,1,stroop_test,60.05504645175324,
test,red,r,1.0,7.0,1.0,2.0,r,1.0,0.6653023000108078,,,,,,,,,,,,,,,,,,2.0,1.0,7.0,0.0,,,,,,,,,59.6578849000216,,,,,,,,,,,,,,,,,59.64182129999972,59.74119000000064,60.55672930000583,60.54026530002011,60.5409331000119,60.55672930000583,60.55672930000583,61.222857400018256,r,1.0,0.6653023000108078,,,,,,,,,,,,,,,,,,,,,,,,,,,,,,,,,,,,,,sub-177,1,stroop_test,60.05504645175324,
test,blue,b,1.0,8.0,2.0,2.0,b,1.0,0.5459044000017457,,,,,,,,,,,,,,,,,,2.0,2.0,8.0,2.0,,,,,,,,,61.23918030000641,,,,,,,,,,,,,,,,,61.22314840002218,62.43761770002311,63.253224500018405,63.236777500016615,63.23720630002208,63.253224500018405,63.253224500018405,63.80284760001814,b,1.0,0.5459044000017457,,,,,,,,,,,,,,,,,,,,,,,,,,,,,,,,,,,,,,sub-177,1,stroop_test,60.05504645175324,
test,yellow,g,1.0,9.0,0.0,3.0,g,1.0,0.812395800021477,,,,,,,,,,,,,,,,,,3.0,0.0,9.0,1.0,,,,,,,,,63.81903760001296,,,,,,,,,,,,,,,,,63.80313620000379,63.90231890001451,64.71794650002266,64.70152540001436,64.70198230000096,64.71794650002266,64.71794650002266,65.53382290000445,g,1.0,0.812395800021477,,,,,,,,,,,,,,,,,,,,,,,,,,,,,,,,,,,,,,sub-177,1,stroop_test,60.05504645175324,
test,blue,b,1.0,10.0,1.0,3.0,b,1.0,0.7482234000053722,,,,,,,,,,,,,,,,,,3.0,1.0,10.0,2.0,,,,,,,,,65.55012300002272,,,,,,,,,,,,,,,,,65.53409980001743,65.88305850001052,66.69880140002351,66.68212640000274,66.68251030001557,66.69880140002351,66.69880140002351,67.44800259999465,b,1.0,0.7482234000053722,,,,,,,,,,,,,,,,,,,,,,,,,,,,,,,,,,,,,,sub-177,1,stroop_test,60.05504645175324,
test,red,r,1.0,11.0,2.0,3.0,r,1.0,0.7087923999933992,,,,,,,,,,,,,,,,,,3.0,2.0,11.0,0.0,,,,,,,,,67.4642161000229,,,,,,,,,,,,,,,,,67.44830109999748,68.66272250001202,69.47834400000283,69.4617128999962,69.46205709999776,69.47834400000283,69.47834400000283,70.1944375000021,r,1.0,0.7087923999933992,,,,,,,,,,,,,,,,,,,,,,,,,,,,,,,,,,,,,,sub-177,1,stroop_test,60.05504645175324,
,,,,,,,,,,,,,,,,,,,,,,,,,,,,,,,,,,,,,,,,,,,,,,,,,,,,,,,,,,,,,,,,,,,,70.19457880000118,70.21089280000888,70.21089280000888,74.80521079999744,space,4.583707599987974,,,,,,,,,,,,,,,,,,,,,,,,,,,,,,,sub-177,1,stroop_test,60.05504645175324,
,,,,0.0,0.0,0.0,,,,,rot,red,r,1.0,r,1.0,1.3859756999881938,,,,,,,,,,,,,,0.0,0.0,0.0,0.0,,,,,74.82109640000272,,,,,,,,,,,,,,,,,74.81277350001619,74.90442820001044,75.71998100000201,75.70349840002018,,,,,,,,,,,,,,,,75.70779030001722,75.71998100000201,75.71998100000201,77.11850199999753,r,1.0,1.3859756999881938,,77.12479480000911,77.13486530000228,78.13360660002218,,,,,,,,,,,,,,,,,,,sub-177,1,stroop_test,60.05504645175324,
,,,,1.0,1.0,0.0,,,,,gelb,yellow,g,1.0,g,1.0,0.5595172999892384,,,,,,,,,,,,,,0.0,1.0,1.0,10.0,,,,,78.15003350001643,,,,,,,,,,,,,,,,,78.13389540000935,79.3319107000134,80.1475705000048,80.1310599000135,,,,,,,,,,,,,,,,80.13548340002308,80.1475705000048,80.1475705000048,80.71366639999906,g,1.0,0.5595172999892384,,80.71410010001273,80.73015040002065,81.72894600001746,,,,,,,,,,,,,,,,,,,sub-177,1,stroop_test,60.05504645175324,
,,,,2.0,2.0,0.0,,,,,blau,blue,b,1.0,b,1.0,0.3509754999831784,,,,,,,,,,,,,,0.0,2.0,2.0,6.0,,,,,81.74535440001637,,,,,,,,,,,,,,,,,81.72926200000802,82.52769119999721,83.34321370001999,83.32679250001092,,,,,,,,,,,,,,,,83.33072800000082,83.34321370001999,83.34321370001999,83.70979740002076,b,1.0,0.3509754999831784,,83.71025020000525,83.72616930000368,84.72506270001759,,,,,,,,,,,,,,,,,,,sub-177,1,stroop_test,60.05504645175324,
,,,,3.0,3.0,0.0,,,,,gelb,blue,b,0.0,b,1.0,1.6479251999990083,,,,,,,,,,,,,,0.0,3.0,3.0,9.0,,,,,84.74135100000422,,,,,,,,,,,,,,,,,84.72536320000654,85.92323400001624,86.73875230000704,86.72227910000947,,,,,,,,,,,,,,,,86.72473889999674,86.73875230000704,86.73875230000704,88.3869467000186,b,1.0,1.6479251999990083,,88.38740639999742,88.40330679999897,89.40216450000298,,,,,,,,,,,,,,,,,,,sub-177,1,stroop_test,60.05504645175324,
,,,,4.0,4.0,0.0,,,,,blau,blue,b,1.0,b,1.0,1.0116494999965653,,,,,,,,,,,,,,0.0,4.0,4.0,5.0,,,,,89.41852400000789,,,,,,,,,,,,,,,,,89.40246150002349,89.75144140000339,90.56707079999616,90.55060730001424,,,,,,,,,,,,,,,,90.55296940001426,90.56707079999616,90.56707079999616,91.58281550000538,b,1.0,1.0116494999965653,,91.5834271000058,91.59907680001923,92.59790419999626,,,,,,,,,,,,,,,,,,,sub-177,1,stroop_test,60.05504645175324,
,,,,5.0,5.0,0.0,,,,,rot,red,r,1.0,r,1.0,0.5256713999842759,,,,,,,,,,,,,,0.0,5.0,5.0,1.0,,,,,92.61428000000888,,,,,,,,,,,,,,,,,92.59819869999774,92.69754640001338,93.51322190000792,93.49670000001788,,,,,,,,,,,,,,,,93.49917720002122,93.51322190000792,93.51322190000792,94.04613180001616,r,1.0,0.5256713999842759,,94.04659090001952,94.06245570001192,95.06138450000437,,,,,,,,,,,,,,,,,,,sub-177,1,stroop_test,60.05504645175324,
,,,,6.0,6.0,0.0,,,,,gelb,yellow,g,1.0,g,1.0,0.431266500003403,,,,,,,,,,,,,,0.0,6.0,6.0,11.0,,,,,95.07772510001088,,,,,,,,,,,,,,,,,95.06172030000016,95.8600107000093,96.67562850000104,96.6590952000115,,,,,,,,,,,,,,,,96.6622064000112,96.67562850000104,96.67562850000104,97.1086850000138,g,1.0,0.431266500003403,,97.10910339999828,97.12511960000847,98.1238497000013,,,,,,,,,,,,,,,,,,,sub-177,1,stroop_test,60.05504645175324,
,,,,7.0,7.0,0.0,,,,,gelb,red,r,0.0,r,1.0,0.9228043999755756,,,,,,,,,,,,,,0.0,7.0,7.0,8.0,,,,,98.1402535000234,,,,,,,,,,,,,,,,,98.12412660001428,98.2234886000224,99.02249900001334,99.00637640000788,,,,,,,,,,,,,,,,99.00681530000293,99.02249900001334,99.02249900001334,99.95498589999625,r,1.0,0.9228043999755756,,99.95546729999478,99.97130420000758,100.97011590001055,,,,,,,,,,,,,,,,,,,sub-177,1,stroop_test,60.05504645175324,
,,,,8.0,8.0,0.0,,,,,rot,yellow,g,0.0,g,1.0,0.8429128999996465,,,,,,,,,,,,,,0.0,8.0,8.0,3.0,,,,,100.98653389999528,,,,,,,,,,,,,,,,,100.97041239999815,102.16833090002184,102.98390530000324,102.96736900001996,,,,,,,,,,,,,,,,102.96963390000748,102.98390530000324,102.98390530000324,103.83300210000016,g,1.0,0.8429128999996465,,103.8334364000184,103.8494911000016,104.84824829999708,,,,,,,,,,,,,,,,,,,sub-177,1,stroop_test,60.05504645175324,
,,,,9.0,9.0,0.0,,,,,rot,blue,b,0.0,b,1.0,0.4948160000203643,,,,,,,,,,,,,,0.0,9.0,9.0,2.0,,,,,104.86469560000114,,,,,,,,,,,,,,,,,104.848547600006,106.04656710001292,106.862097300007,106.84559410001384,,,,,,,,,,,,,,,,106.8460161999974,106.862097300007,106.862097300007,107.36278910000692,b,1.0,0.4948160000203643,,107.36398950000876,107.37842090000048,108.37698190001538,,,,,,,,,,,,,,,,,,,sub-177,1,stroop_test,60.05504645175324,
,,,,10.0,10.0,0.0,,,,,blau,red,r,0.0,r,1.0,0.4349620000284631,,,,,,,,,,,,,,0.0,10.0,10.0,4.0,,,,,108.39334229999804,,,,,,,,,,,,,,,,,108.37729770000442,109.5751828000066,110.39079710000078,110.37430900000618,,,,,,,,,,,,,,,,110.37679619999837,110.39079710000078,110.39079710000078,110.84105529999944,r,1.0,0.4349620000284631,,110.8418714000145,110.85702330002096,111.85561900000904,,,,,,,,,,,,,,,,,,,sub-177,1,stroop_test,60.05504645175324,
,,,,11.0,11.0,0.0,,,,,blau,yellow,g,0.0,g,1.0,0.7601027000055183,,,,,,,,,,,,,,0.0,11.0,11.0,7.0,,,,,111.8721610000066,,,,,,,,,,,,,,,,,111.85588370001642,113.05387840000913,113.85288540000327,113.8364803000004,,,,,,,,,,,,,,,,113.8369776000036,113.85288540000327,113.85288540000327,114.6187831000134,g,1.0,0.7601027000055183,,114.61922340001912,114.6351832000073,115.6340504999971,,,,,,,,,,,,,,,,,,,sub-177,1,stroop_test,60.05504645175324,
,,,,12.0,0.0,1.0,,,,,gelb,blue,b,0.0,b,1.0,0.9033954999758862,,,,,,,,,,,,,,1.0,0.0,12.0,9.0,,,,,115.65043690000311,,,,,,,,,,,,,,,,,115.63434670001152,116.83220550001715,117.64807200001088,117.63139190000948,,,,,,,,,,,,,,,,117.63409090001367,117.64807200001088,117.64807200001088,118.56368230000952,b,1.0,0.9033954999758862,,118.56413060001796,118.57993510001688,119.578894700011,,,,,,,,,,,,,,,,,,,sub-177,1,stroop_test,60.05504645175324,
,,,,13.0,1.0,1.0,,,,,rot,yellow,g,0.0,g,1.0,0.6316698000009637,,,,,,,,,,,,,,1.0,1.0,13.0,3.0,,,,,119.5952532000083,,,,,,,,,,,,,,,,,119.57919290001156,119.67848870001036,120.49406890000682,120.4776274000178,,,,,,,,,,,,,,,,120.48002030001952,120.49406890000682,120.49406890000682,121.12684350000929,g,1.0,0.6316698000009637,,121.1272478000028,121.14326929999515,122.14207090000856,,,,,,,,,,,,,,,,,,,sub-177,1,stroop_test,60.05504645175324,
,,,,14.0,2.0,1.0,,,,,rot,red,r,1.0,r,1.0,0.3572606999950949,,,,,,,,,,,,,,1.0,2.0,14.0,0.0,,,,,122.15848060001736,,,,,,,,,,,,,,,,,122.14235440001356,122.94083080001292,123.75646110001252,123.73994450000464,,,,,,,,,,,,,,,,123.74035400000868,123.75646110001252,123.75646110001252,124.1228567000071,r,1.0,0.3572606999950949,,124.1233387000102,124.1391971000121,125.13808500001323,,,,,,,,,,,,,,,,,,,sub-177,1,stroop_test,60.05504645175324,
,,,,15.0,3.0,1.0,,,,,blau,blue,b,1.0,b,1.0,0.7477834000019357,,,,,,,,,,,,,,1.0,3.0,15.0,5.0,,,,,125.1545354000118,,,,,,,,,,,,,,,,,125.13835819999804,125.23764750000556,126.03664380000556,126.02026040002238,,,,,,,,,,,,,,,,126.02224320001552,126.03664380000556,126.03664380000556,126.78597470000386,b,1.0,0.7477834000019357,,126.7864188000094,126.80244680002215,127.80118050001327,,,,,,,,,,,,,,,,,,,sub-177,1,stroop_test,60.05504645175324,
,,,,16.0,4.0,1.0,,,,,gelb,yellow,g,1.0,g,1.0,0.9581926999962888,,,,,,,,,,,,,,1.0,4.0,16.0,11.0,,,,,127.8176639000012,,,,,,,,,,,,,,,,,127.80145759999868,127.90094880000106,128.71654970000964,128.70006309999735,,,,,,,,,,,,,,,,128.70311780000338,128.71654970000964,128.71654970000964,129.68214220000664,g,1.0,0.9581926999962888,,129.68258390002302,129.6985820000118,130.6974253000226,,,,,,,,,,,,,,,,,,,sub-177,1,stroop_test,60.05504645175324,
,,,,17.0,5.0,1.0,,,,,rot,red,r,1.0,r,1.0,0.605022400006419,,,,,,,,,,,,,,1.0,5.0,17.0,1.0,,,,,130.71380170001066,,,,,,,,,,,,,,,,,130.69776619999902,131.04673520001234,131.8624029000057,131.8458410000021,,,,,,,,,,,,,,,,131.8481996000046,131.8624029000057,131.8624029000057,132.47853870000108,r,1.0,0.605022400006419,,132.47900160000427,132.4949312999961,133.49373119999655,,,,,,,,,,,,,,,,,,,sub-177,1,stroop_test,60.05504645175324,
,,,,18.0,6.0,1.0,,,,,blau,yellow,g,0.0,g,1.0,0.856897099991329,,,,,,,,,,,,,,1.0,6.0,18.0,7.0,,,,,133.5100409000006,,,,,,,,,,,,,,,,,133.49403270002222,133.84307650002302,134.6587073999981,134.6421124000044,,,,,,,,,,,,,,,,134.6444961000234,134.6587073999981,134.6587073999981,135.5245627000113,g,1.0,0.856897099991329,,135.5250600000145,135.540842300019,136.53954420000082,,,,,,,,,,,,,,,,,,,sub-177,1,stroop_test,60.05504645175324,
,,,,19.0,7.0,1.0,,,,,gelb,red,r,0.0,r,1.0,1.1364383999898564,,,,,,,,,,,,,,1.0,7.0,19.0,8.0,,,,,136.55601980001666,,,,,,,,,,,,,,,,,136.53976660000626,137.33843260002322,138.15398360000108,138.13758870001766,,,,,,,,,,,,,,,,138.14044300001115,138.15398360000108,138.15398360000108,139.3027873999963,r,1.0,1.1364383999898564,,139.30324130001827,139.31912890000967,140.31798829999752,,,,,,,,,,,,,,,,,,,sub-177,1,stroop_test,60.05504645175324,
,,,,20.0,8.0,1.0,,,,,blau,blue,b,1.0,b,1.0,0.718778900016332,,,,,,,,,,,,,,1.0,8.0,20.0,6.0,,,,,140.3344175000093,,,,,,,,,,,,,,,,,140.31829140000627,140.41764440000406,141.23339850001503,141.21682960001635,,,,,,,,,,,,,,,,141.2192270999949,141.23339850001503,141.23339850001503,141.9659978999989,b,1.0,0.718778900016332,,141.9664396000153,141.9823634000204,142.98113040000317,,,,,,,,,,,,,,,,,,,sub-177,1,stroop_test,60.05504645175324,
,,,,21.0,9.0,1.0,,,,,rot,blue,b,0.0,b,1.0,1.6674006000102963,,,,,,,,,,,,,,1.0,9.0,21.0,2.0,,,,,142.9975623000064,,,,,,,,,,,,,,,,,142.98144590001905,143.33043770000222,144.1460561999993,144.1296483000042,,,,,,,,,,,,,,,,144.13198930001818,144.1460561999993,144.1460561999993,145.82754630001727,b,1.0,1.6674006000102963,,145.82803380000405,145.84385110001313,146.8426864000212,,,,,,,,,,,,,,,,,,,sub-177,1,stroop_test,60.05504645175324,
,,,,22.0,10.0,1.0,,,,,blau,red,r,0.0,r,1.0,1.8582370999793056,,,,,,,,,,,,,,1.0,10.0,22.0,4.0,,,,,146.85905810000258,,,,,,,,,,,,,,,,,146.8429565000115,146.9422620999976,147.75787400000263,147.74132400000235,,,,,,,,,,,,,,,,147.74330490001012,147.75787400000263,147.75787400000263,149.6225108000217,r,1.0,1.8582370999793056,,149.62300400002275,149.6388080000179,150.63766900001792,,,,,,,,,,,,,,,,,,,sub-177,1,stroop_test,60.05504645175324,
,,,,23.0,11.0,1.0,,,,,gelb,yellow,g,1.0,g,1.0,0.710920100013027,,,,,,,,,,,,,,1.0,11.0,23.0,10.0,,,,,150.65405640000245,,,,,,,,,,,,,,,,,150.6380010000139,150.73734380002134,151.55289910000283,151.5364690000133,,,,,,,,,,,,,,,,151.53956360000302,151.55289910000283,151.55289910000283,152.26893839999684,g,1.0,0.710920100013027,,152.2693561000051,152.28533670000616,153.28399350002292,,,,,,,,,,,,,,,,,,,sub-177,1,stroop_test,60.05504645175324,
,,,,,,,,,,,,,,,,,,,,,,,,,,,,,,,,,,,,,,,,,,,,,,,,,,,,,,,,,,,,,,,,,,,,,,,,,,,,,,,,,,,,,,153.28411480001523,153.3008267999976,153.3008267999976,155.4316274000157,space,2.124197600001935,,,,,,,,,,,,,sub-177,1,stroop_test,60.05504645175324,
,,,,0.0,0.0,0.0,,,,,,,,,,,,,gelb,red,r,0.0,r,1.0,0.9838801999867428,,,,,,,,,,0.0,0.0,0.0,8.0,155.44763000000967,,,,,,,,,,,,,,,,,155.44053390002227,156.24664060000214,157.0458088000014,157.02959330001613,,,,,,,,,,,,,,,,,,,,,,,,,,,,,,,,,,157.0363578000106,157.0458088000014,157.0458088000014,158.04461080001784,r,1.0,0.9838801999867428,,,,,sub-177,1,stroop_test,60.05504645175324,
,,,,1.0,1.0,0.0,,,,,,,,,,,,,rot,red,r,1.0,r,1.0,0.6463427999988198,,,,,,,,,,0.0,1.0,1.0,0.0,158.06090350000886,,,,,,,,,,,,,,,,,158.04493860001094,159.25963050001883,160.07498490001308,160.05851650002296,,,,,,,,,,,,,,,,,,,,,,,,,,,,,,,,,,160.06095710000957,160.07498490001308,160.07498490001308,160.72427580002113,r,1.0,0.6463427999988198,,,,,sub-177,1,stroop_test,60.05504645175324,
,,,,2.0,2.0,0.0,,,,,,,,,,,,,gelb,yellow,g,1.0,g,1.0,1.3288307999901008,,,,,,,,,,0.0,2.0,2.0,10.0,160.74067359999754,,,,,,,,,,,,,,,,,160.72456040000543,161.0736423000053,161.8892674999952,161.87288160002208,,,,,,,,,,,,,,,,,,,,,,,,,,,,,,,,,,161.87607510000817,161.8892674999952,161.8892674999952,163.22112190001644,g,1.0,1.3288307999901008,,,,,sub-177,1,stroop_test,60.05504645175324,
,,,,3.0,3.0,0.0,,,,,,,,,,,,,blau,red,r,0.0,r,1.0,1.0048933000070974,,,,,,,,,,0.0,3.0,3.0,4.0,163.23743940002169,,,,,,,,,,,,,,,,,163.22145870001987,163.32063780000317,164.11983939999482,164.1037094000203,,,,,,,,,,,,,,,,,,,,,,,,,,,,,,,,,,164.11066470001242,164.11983939999482,164.11983939999482,165.13592120000976,r,1.0,1.0048933000070974,,,,,sub-177,1,stroop_test,60.05504645175324,
,,,,4.0,4.0,0.0,,,,,,,,,,,,,rot,yellow,g,0.0,g,1.0,1.2265351999958511,,,,,,,,,,0.0,4.0,4.0,3.0,165.15174830000615,,,,,,,,,,,,,,,,,165.1368000000075,165.95053910001295,166.76604070002213,166.7496699000185,,,,,,,,,,,,,,,,,,,,,,,,,,,,,,,,,,166.75221430000963,166.76604070002213,166.76604070002213,167.99808300001314,g,1.0,1.2265351999958511,,,,,sub-177,1,stroop_test,60.05504645175324,
,,,,5.0,5.0,0.0,,,,,,,,,,,,,blau,blue,b,1.0,b,1.0,0.6787987000134308,,,,,,,,,,0.0,5.0,5.0,5.0,168.014393999998,,,,,,,,,,,,,,,,,167.99841500000912,168.09765270000207,168.913314800011,168.8968553000013,,,,,,,,,,,,,,,,,,,,,,,,,,,,,,,,,,168.90006960000028,168.913314800011,168.913314800011,169.59595690001152,b,1.0,0.6787987000134308,,,,,sub-177,1,stroop_test,60.05504645175324,
,,,,6.0,6.0,0.0,,,,,,,,,,,,,gelb,yellow,g,1.0,g,1.0,0.9612577999942004,,,,,,,,,,0.0,6.0,6.0,11.0,169.61225110001396,,,,,,,,,,,,,,,,,169.5962666000123,169.6954341000237,170.49466140000732,170.47856540000066,,,,,,,,,,,,,,,,,,,,,,,,,,,,,,,,,,170.48517820000416,170.49466140000732,170.49466140000732,171.4604692000139,g,1.0,0.9612577999942004,,,,,sub-177,1,stroop_test,60.05504645175324,
,,,,7.0,7.0,0.0,,,,,,,,,,,,,gelb,blue,b,0.0,r,0.0,2.0981136999907903,,,,,,,,,,0.0,7.0,7.0,9.0,171.4764131999982,,,,,,,,,,,,,,,,,171.46081810002215,172.27594180000597,173.0911338000151,173.07467299999553,,,,,,,,,,,,,,,,,,,,,,,,,,,,,,,,,,173.07513090001885,173.0911338000151,173.0911338000151,175.2052457999962,r,0.0,2.0981136999907903,,,,,sub-177,1,stroop_test,60.05504645175324,
,,,,8.0,8.0,0.0,,,,,,,,,,,,,rot,red,r,1.0,r,1.0,1.2286819999862928,,,,,,,,,,0.0,8.0,8.0,1.0,175.22144710001885,,,,,,,,,,,,,,,,,175.20557879999978,175.304847899999,176.10362410001107,176.08774270000868,,,,,,,,,,,,,,,,,,,,,,,,,,,,,,,,,,176.0934627999959,176.10362410001107,176.10362410001107,177.335730300023,r,1.0,1.2286819999862928,,,,,sub-177,1,stroop_test,60.05504645175324,
,,,,9.0,9.0,0.0,,,,,,,,,,,,,blau,blue,b,1.0,b,1.0,1.1751902000105474,,,,,,,,,,0.0,9.0,9.0,6.0,177.35198700000183,,,,,,,,,,,,,,,,,177.3360705000232,177.6849668000068,178.500594800018,178.48405500000808,,,,,,,,,,,,,,,,,,,,,,,,,,,,,,,,,,178.48653930000728,178.500594800018,178.500594800018,179.68271530000493,b,1.0,1.1751902000105474,,,,,sub-177,1,stroop_test,60.05504645175324,
,,,,10.0,10.0,0.0,,,,,,,,,,,,,rot,blue,b,0.0,b,1.0,1.6374441000225488,,,,,,,,,,0.0,10.0,10.0,2.0,179.69884029999957,,,,,,,,,,,,,,,,,179.68303760001436,179.78214230001322,180.5810722000024,180.5647090999992,,,,,,,,,,,,,,,,,,,,,,,,,,,,,,,,,,180.56713989999844,180.5810722000024,180.5810722000024,182.22921270001095,b,1.0,1.6374441000225488,,,,,sub-177,1,stroop_test,60.05504645175324,
,,,,11.0,11.0,0.0,,,,,,,,,,,,,blau,yellow,g,0.0,g,1.0,0.9143209000176284,,,,,,,,,,0.0,11.0,11.0,7.0,182.2455235000234,,,,,,,,,,,,,,,,,182.2295090999978,182.57848140000715,183.3940016000124,183.37759420002112,,,,,,,,,,,,,,,,,,,,,,,,,,,,,,,,,,183.3797332000104,183.3940016000124,183.3940016000124,184.3097732000169,g,1.0,0.9143209000176284,,,,,sub-177,1,stroop_test,60.05504645175324,
,,,,12.0,0.0,1.0,,,,,,,,,,,,,rot,blue,b,0.0,b,1.0,0.9802531999885103,,,,,,,,,,1.0,0.0,12.0,2.0,184.3261367000232,,,,,,,,,,,,,,,,,184.31008680001835,185.1252896000224,185.92434240001603,185.9081589000125,,,,,,,,,,,,,,,,,,,,,,,,,,,,,,,,,,185.91467019999985,185.92434240001603,185.92434240001603,186.9067200999998,b,1.0,0.9802531999885103,,,,,sub-177,1,stroop_test,60.05504645175324,
,,,,13.0,1.0,1.0,,,,,,,,,,,,,blau,red,r,0.0,r,1.0,1.017057499993825,,,,,,,,,,1.0,1.0,13.0,4.0,186.9228794000228,,,,,,,,,,,,,,,,,186.9072764000157,187.27221150000696,188.088009900006,188.07148949999828,,,,,,,,,,,,,,,,,,,,,,,,,,,,,,,,,,188.07397680002032,188.088009900006,188.088009900006,189.12017199999536,r,1.0,1.017057499993825,,,,,sub-177,1,stroop_test,60.05504645175324,
,,,,14.0,2.0,1.0,,,,,,,,,,,,,blau,blue,b,1.0,b,1.0,1.198730100004468,,,,,,,,,,1.0,2.0,14.0,6.0,189.136390700005,,,,,,,,,,,,,,,,,189.1204966000223,189.93532889999915,190.73444520001067,190.71791890001623,,,,,,,,,,,,,,,,,,,,,,,,,,,,,,,,,,190.7183609000058,190.73444520001067,190.73444520001067,191.9496938000084,b,1.0,1.198730100004468,,,,,sub-177,1,stroop_test,60.05504645175324,
,,,,15.0,3.0,1.0,,,,,,,,,,,,,rot,red,r,1.0,r,1.0,0.6213531999965198,,,,,,,,,,1.0,3.0,15.0,0.0,191.9659700000193,,,,,,,,,,,,,,,,,191.9500287999981,192.7651744000032,193.580646300019,193.56435980001697,,,,,,,,,,,,,,,,,,,,,,,,,,,,,,,,,,193.5686551000108,193.580646300019,193.580646300019,194.2134173999948,r,1.0,0.6213531999965198,,,,,sub-177,1,stroop_test,60.05504645175324,
,,,,16.0,4.0,1.0,,,,,,,,,,,,,rot,yellow,g,0.0,g,1.0,0.7485662999970373,,,,,,,,,,1.0,4.0,16.0,3.0,194.22965809999727,,,,,,,,,,,,,,,,,194.21374970002216,195.4281189000176,196.22704070000327,196.21075009999916,,,,,,,,,,,,,,,,,,,,,,,,,,,,,,,,,,196.21117210001103,196.22704070000327,196.22704070000327,196.97644940001192,g,1.0,0.7485662999970373,,,,,sub-177,1,stroop_test,60.05504645175324,
,,,,17.0,5.0,1.0,,,,,,,,,,,,,blau,yellow,g,0.0,g,1.0,0.8893329999991693,,,,,,,,,,1.0,5.0,17.0,7.0,196.99261410001785,,,,,,,,,,,,,,,,,196.9767701000092,198.19112650002356,199.0071111000143,198.9902074999991,,,,,,,,,,,,,,,,,,,,,,,,,,,,,,,,,,198.9922147000034,199.0071111000143,199.0071111000143,199.9057686000015,g,1.0,0.8893329999991693,,,,,sub-177,1,stroop_test,60.05504645175324,
,,,,18.0,6.0,1.0,,,,,,,,,,,,,rot,red,r,1.0,r,1.0,0.8094158000021707,,,,,,,,,,1.0,6.0,18.0,1.0,199.9221514000092,,,,,,,,,,,,,,,,,199.90607540000929,200.255075699999,201.070612600015,201.05411980001367,,,,,,,,,,,,,,,,,,,,,,,,,,,,,,,,,,201.05645990002083,201.070612600015,201.070612600015,201.886559400009,r,1.0,0.8094158000021707,,,,,sub-177,1,stroop_test,60.05504645175324,
,,,,19.0,7.0,1.0,,,,,,,,,,,,,gelb,blue,b,0.0,b,1.0,0.84899509997922,,,,,,,,,,1.0,7.0,19.0,9.0,201.90276250001625,,,,,,,,,,,,,,,,,201.88689690001772,201.98616160001257,202.80165740000663,202.7853257000097,,,,,,,,,,,,,,,,,,,,,,,,,,,,,,,,,,202.7887727000052,202.80165740000663,202.80165740000663,203.6510249999992,b,1.0,0.84899509997922,,,,,sub-177,1,stroop_test,60.05504645175324,
,,,,20.0,8.0,1.0,,,,,,,,,,,,,gelb,yellow,g,1.0,g,1.0,1.120786399987992,,,,,,,,,,1.0,8.0,20.0,11.0,203.667090700008,,,,,,,,,,,,,,,,,203.6514266000013,204.01665669999784,204.8157589000184,204.79928540001856,,,,,,,,,,,,,,,,,,,,,,,,,,,,,,,,,,204.79999270002008,204.8157589000184,204.8157589000184,205.94796069999572,g,1.0,1.120786399987992,,,,,sub-177,1,stroop_test,60.05504645175324,
,,,,21.0,9.0,1.0,,,,,,,,,,,,,gelb,yellow,g,1.0,g,1.0,0.8147100000060163,,,,,,,,,,1.0,9.0,21.0,10.0,205.96405730000697,,,,,,,,,,,,,,,,,205.94833549999748,206.76295669999672,207.56217290001223,207.54581300000427,,,,,,,,,,,,,,,,,,,,,,,,,,,,,,,,,,207.54630050002012,207.56217290001223,207.56217290001223,208.37804239999969,g,1.0,0.8147100000060163,,,,,sub-177,1,stroop_test,60.05504645175324,
,,,,22.0,10.0,1.0,,,,,,,,,,,,,gelb,red,r,0.0,r,1.0,1.1576686000043992,,,,,,,,,,1.0,10.0,22.0,8.0,208.39420390001035,,,,,,,,,,,,,,,,,208.37839600001465,208.74384420001297,209.55959550000264,209.54299580000225,,,,,,,,,,,,,,,,,,,,,,,,,,,,,,,,,,209.54343089999747,209.55959550000264,209.55959550000264,210.7249333000218,r,1.0,1.1576686000043992,,,,,sub-177,1,stroop_test,60.05504645175324,
,,,,23.0,11.0,1.0,,,,,,,,,,,,,blau,blue,b,1.0,b,1.0,0.482070099998964,,,,,,,,,,1.0,11.0,23.0,5.0,210.74112160000368,,,,,,,,,,,,,,,,,210.72526790000848,211.9399776000064,212.7551339000056,212.738802900014,,,,,,,,,,,,,,,,,,,,,,,,,,,,,,,,,,212.74133459999572,212.7551339000056,212.7551339000056,213.2381294000079,b,1.0,0.482070099998964,,,,,sub-177,1,stroop_test,60.05504645175324,
,,,,24.0,0.0,2.0,,,,,,,,,,,,,rot,red,r,1.0,r,1.0,0.8588359999994282,,,,,,,,,,2.0,0.0,24.0,1.0,213.25436590000757,,,,,,,,,,,,,,,,,213.23843359999591,214.0536298000079,214.86897999999928,214.8526056999981,,,,,,,,,,,,,,,,,,,,,,,,,,,,,,,,,,214.85494540000215,214.86897999999928,214.86897999999928,215.73515000002223,r,1.0,0.8588359999994282,,,,,sub-177,1,stroop_test,60.05504645175324,
,,,,25.0,1.0,2.0,,,,,,,,,,,,,rot,yellow,g,0.0,g,1.0,0.9072730999905616,,,,,,,,,,2.0,1.0,25.0,3.0,215.7513676999952,,,,,,,,,,,,,,,,,215.7356808000186,215.8349780999997,216.65015660002248,216.6337545000133,,,,,,,,,,,,,,,,,,,,,,,,,,,,,,,,,,216.63446299999487,216.65015660002248,216.65015660002248,217.5657514000195,g,1.0,0.9072730999905616,,,,,sub-177,1,stroop_test,60.05504645175324,
,,,,26.0,2.0,2.0,,,,,,,,,,,,,blau,yellow,g,0.0,g,1.0,1.0544245000055523,,,,,,,,,,2.0,2.0,26.0,7.0,217.5819642000133,,,,,,,,,,,,,,,,,217.5660751000105,217.66521740000465,218.46467410001787,218.44834050000645,,,,,,,,,,,,,,,,,,,,,,,,,,,,,,,,,,218.45606730002328,218.46467410001787,218.46467410001787,219.5298308000201,g,1.0,1.0544245000055523,,,,,sub-177,1,stroop_test,60.05504645175324,
,,,,27.0,3.0,2.0,,,,,,,,,,,,,gelb,yellow,g,1.0,g,1.0,0.4592014999943785,,,,,,,,,,2.0,3.0,27.0,10.0,219.546119000006,,,,,,,,,,,,,,,,,219.53020170002128,220.34508680002185,221.1607370999991,221.14441680000164,,,,,,,,,,,,,,,,,,,,,,,,,,,,,,,,,,221.14722260000417,221.1607370999991,221.1607370999991,221.62707270000828,g,1.0,0.4592014999943785,,,,,sub-177,1,stroop_test,60.05504645175324,
,,,,28.0,4.0,2.0,,,,,,,,,,,,,gelb,yellow,g,1.0,g,1.0,0.4679465000226628,,,,,,,,,,2.0,4.0,28.0,11.0,221.6433031000197,,,,,,,,,,,,,,,,,221.6274165000068,221.7266184000182,222.5421900000074,222.52577970002312,,,,,,,,,,,,,,,,,,,,,,,,,,,,,,,,,,222.52622260001957,222.5421900000074,222.5421900000074,223.025269100006,g,1.0,0.4679465000226628,,,,,sub-177,1,stroop_test,60.05504645175324,
,,,,29.0,5.0,2.0,,,,,,,,,,,,,blau,blue,b,1.0,b,1.0,0.5507465000264347,,,,,,,,,,2.0,5.0,29.0,6.0,223.04140040001948,,,,,,,,,,,,,,,,,223.0256061000109,223.12476540001808,223.9404166000022,223.92390560000783,,,,,,,,,,,,,,,,,,,,,,,,,,,,,,,,,,223.92640700002084,223.9404166000022,223.9404166000022,224.5066591000068,b,1.0,0.5507465000264347,,,,,sub-177,1,stroop_test,60.05504645175324,
,,,,30.0,6.0,2.0,,,,,,,,,,,,,blau,blue,b,1.0,b,1.0,0.3802910999802407,,,,,,,,,,2.0,6.0,30.0,5.0,224.52286070000264,,,,,,,,,,,,,,,,,224.50698350000312,224.85584550001656,225.65479300002332,225.63850870000897,,,,,,,,,,,,,,,,,,,,,,,,,,,,,,,,,,225.6389283000026,225.65479300002332,225.65479300002332,226.03795550001087,b,1.0,0.3802910999802407,,,,,sub-177,1,stroop_test,60.05504645175324,
,,,,31.0,7.0,2.0,,,,,,,,,,,,,rot,blue,b,0.0,b,1.0,0.3944487999833654,,,,,,,,,,2.0,7.0,31.0,2.0,226.05414849999943,,,,,,,,,,,,,,,,,226.0382862999977,226.38711320000584,227.20269230002305,227.1862863000133,,,,,,,,,,,,,,,,,,,,,,,,,,,,,,,,,,227.18849210001645,227.20269230002305,227.20269230002305,227.6025001000089,b,1.0,0.3944487999833654,,,,,sub-177,1,stroop_test,60.05504645175324,
,,,,32.0,8.0,2.0,,,,,,,,,,,,,rot,red,r,1.0,r,1.0,0.5338976999919396,,,,,,,,,,2.0,8.0,32.0,0.0,227.61869659999505,,,,,,,,,,,,,,,,,227.6028120999981,227.9517284000176,228.7673594000225,228.7508244000201,,,,,,,,,,,,,,,,,,,,,,,,,,,,,,,,,,228.75125319999643,228.7673594000225,228.7673594000225,229.31699859999932,r,1.0,0.5338976999919396,,,,,sub-177,1,stroop_test,60.05504645175324,
,,,,33.0,9.0,2.0,,,,,,,,,,,,,gelb,red,r,0.0,r,1.0,0.3267348000081256,,,,,,,,,,2.0,9.0,33.0,8.0,229.3330702999956,,,,,,,,,,,,,,,,,229.31731600000057,230.13204350002343,230.93105260000448,230.91466390001003,,,,,,,,,,,,,,,,,,,,,,,,,,,,,,,,,,230.91782840000812,230.93105260000448,230.93105260000448,231.26421710001887,r,1.0,0.3267348000081256,,,,,sub-177,1,stroop_test,60.05504645175324,
,,,,34.0,10.0,2.0,,,,,,,,,,,,,gelb,blue,b,0.0,b,1.0,0.693784399976721,,,,,,,,,,2.0,10.0,34.0,9.0,231.28056579999972,,,,,,,,,,,,,,,,,231.26452300001984,231.61355700000425,232.41299750001053,232.39682920000632,,,,,,,,,,,,,,,,,,,,,,,,,,,,,,,,,,232.39799550001044,232.41299750001053,232.41299750001053,233.1119144000113,b,1.0,0.693784399976721,,,,,sub-177,1,stroop_test,60.05504645175324,
,,,,35.0,11.0,2.0,,,,,,,,,,,,,blau,red,r,0.0,r,1.0,0.928805800009286,,,,,,,,,,2.0,11.0,35.0,4.0,233.1281798999989,,,,,,,,,,,,,,,,,233.1122258999967,233.46131800001604,234.27676490001613,234.26023889999487,,,,,,,,,,,,,,,,,,,,,,,,,,,,,,,,,,234.26254080000217,234.27676490001613,234.27676490001613,235.20913309999744,r,1.0,0.928805800009286,,,,,sub-177,1,stroop_test,60.05504645175324,
,,,,36.0,0.0,3.0,,,,,,,,,,,,,gelb,yellow,g,1.0,g,1.0,0.5674066000210587,,,,,,,,,,3.0,0.0,36.0,11.0,235.22528070001863,,,,,,,,,,,,,,,,,235.20947950001573,236.42380109999797,237.2394076000201,237.22301519999743,,,,,,,,,,,,,,,,,,,,,,,,,,,,,,,,,,237.2262194000068,237.2394076000201,237.2394076000201,237.8223496999999,g,1.0,0.5674066000210587,,,,,sub-177,1,stroop_test,60.05504645175324,
,,,,37.0,1.0,3.0,,,,,,,,,,,,,blau,blue,b,1.0,b,1.0,0.6331062999961432,,,,,,,,,,3.0,1.0,37.0,6.0,237.8385427000176,,,,,,,,,,,,,,,,,237.82266530001647,238.1714212000079,238.9705023000133,238.9540005000017,,,,,,,,,,,,,,,,,,,,,,,,,,,,,,,,,,238.95625450002265,238.9705023000133,238.9705023000133,239.61982400002307,b,1.0,0.6331062999961432,,,,,sub-177,1,stroop_test,60.05504645175324,
,,,,38.0,2.0,3.0,,,,,,,,,,,,,rot,red,r,1.0,r,1.0,0.5559979999961797,,,,,,,,,,3.0,2.0,38.0,0.0,239.6362177999981,,,,,,,,,,,,,,,,,239.6201292000187,240.43513090000488,241.25075430001016,241.23431850000637,,,,,,,,,,,,,,,,,,,,,,,,,,,,,,,,,,241.23677139999927,241.25075430001016,241.25075430001016,241.8170003000123,r,1.0,0.5559979999961797,,,,,sub-177,1,stroop_test,60.05504645175324,
,,,,39.0,3.0,3.0,,,,,,,,,,,,,blau,red,r,0.0,r,1.0,0.7277271999919321,,,,,,,,,,3.0,3.0,39.0,4.0,241.83327870001085,,,,,,,,,,,,,,,,,241.8173398000072,243.0317405000096,243.84736330001036,243.83083730001815,,,,,,,,,,,,,,,,,,,,,,,,,,,,,,,,,,243.8332728999958,243.84736330001036,243.84736330001036,244.5800787000044,r,1.0,0.7277271999919321,,,,,sub-177,1,stroop_test,60.05504645175324,
,,,,40.0,4.0,3.0,,,,,,,,,,,,,blau,blue,b,1.0,b,1.0,0.7951145000115503,,,,,,,,,,3.0,4.0,40.0,5.0,244.5962428000057,,,,,,,,,,,,,,,,,244.5804189000046,245.3952279000077,246.21090560001903,246.1944455000048,,,,,,,,,,,,,,,,,,,,,,,,,,,,,,,,,,246.1948884000012,246.21090560001903,246.21090560001903,247.01018410001416,b,1.0,0.7951145000115503,,,,,sub-177,1,stroop_test,60.05504645175324,
,,,,41.0,5.0,3.0,,,,,,,,,,,,,gelb,red,r,0.0,r,1.0,0.727074199996423,,,,,,,,,,3.0,5.0,41.0,8.0,247.0265284000197,,,,,,,,,,,,,,,,,247.01050850001047,247.35929650001344,248.1749375000072,248.1585732999956,,,,,,,,,,,,,,,,,,,,,,,,,,,,,,,,,,248.1614201000193,248.1749375000072,248.1749375000072,248.90756240001065,r,1.0,0.727074199996423,,,,,sub-177,1,stroop_test,60.05504645175324,
,,,,42.0,6.0,3.0,,,,,,,,,,,,,rot,blue,b,0.0,b,1.0,1.1851410000235774,,,,,,,,,,3.0,6.0,42.0,2.0,248.92378020001345,,,,,,,,,,,,,,,,,248.907880600018,249.25678110000445,250.07239660000775,250.05588660002104,,,,,,,,,,,,,,,,,,,,,,,,,,,,,,,,,,250.05824900002332,250.07239660000775,250.07239660000775,251.2713491000177,b,1.0,1.1851410000235774,,,,,sub-177,1,stroop_test,60.05504645175324,
,,,,43.0,7.0,3.0,,,,,,,,,,,,,gelb,yellow,g,1.0,g,1.0,0.9729194999963512,,,,,,,,,,3.0,7.0,43.0,10.0,251.2875029999996,,,,,,,,,,,,,,,,,251.27187160000904,252.08637669999732,252.90204499999527,252.8855293000233,,,,,,,,,,,,,,,,,,,,,,,,,,,,,,,,,,252.88845759999825,252.90204499999527,252.90204499999527,253.88431170000692,g,1.0,0.9729194999963512,,,,,sub-177,1,stroop_test,60.05504645175324,
,,,,44.0,8.0,3.0,,,,,,,,,,,,,rot,yellow,g,0.0,g,1.0,1.0931037999980615,,,,,,,,,,3.0,8.0,44.0,3.0,253.9005971000006,,,,,,,,,,,,,,,,,253.88460760001908,255.0991447000124,255.9147027000145,255.8982517000113,,,,,,,,,,,,,,,,,,,,,,,,,,,,,,,,,,255.9011545999965,255.9147027000145,255.9147027000145,257.01350560001447,g,1.0,1.0931037999980615,,,,,sub-177,1,stroop_test,60.05504645175324,
,,,,45.0,9.0,3.0,,,,,,,,,,,,,gelb,blue,b,0.0,b,1.0,1.3158260000054725,,,,,,,,,,3.0,9.0,45.0,9.0,257.02978390001226,,,,,,,,,,,,,,,,,257.0138292000047,257.82880509999814,258.62859930002014,258.6118213000009,,,,,,,,,,,,,,,,,,,,,,,,,,,,,,,,,,258.6197873000056,258.62859930002014,258.62859930002014,259.9602490999969,b,1.0,1.3158260000054725,,,,,sub-177,1,stroop_test,60.05504645175324,
,,,,46.0,10.0,3.0,,,,,,,,,,,,,blau,yellow,g,0.0,g,1.0,1.2585785999835934,,,,,,,,,,3.0,10.0,46.0,7.0,259.9761941000179,,,,,,,,,,,,,,,,,259.9610403999977,260.0594430000056,260.87487080000574,260.85840340002324,,,,,,,,,,,,,,,,,,,,,,,,,,,,,,,,,,260.8607343000185,260.87487080000574,260.87487080000574,262.1401557000063,g,1.0,1.2585785999835934,,,,,sub-177,1,stroop_test,60.05504645175324,
,,,,47.0,11.0,3.0,,,,,,,,,,,,,rot,red,r,1.0,r,1.0,0.4433737000217661,,,,,,,,,,3.0,11.0,47.0,1.0,262.15628090000246,,,,,,,,,,,,,,,,,262.1404806000064,262.95531220000703,263.77092880001874,263.7546199000208,,,,,,,,,,,,,,,,,,,,,,,,,,,,,,,,,,263.7570610000112,263.77092880001874,263.77092880001874,264.2206481000176,r,1.0,0.4433737000217661,,,,,sub-177,1,stroop_test,60.05504645175324,
,,,,48.0,0.0,4.0,,,,,,,,,,,,,gelb,yellow,g,1.0,g,1.0,0.607351499987999,,,,,,,,,,4.0,0.0,48.0,11.0,264.2368961000175,,,,,,,,,,,,,,,,,264.2209732000192,265.43535970000084,266.25102029999834,266.2344193000172,,,,,,,,,,,,,,,,,,,,,,,,,,,,,,,,,,266.2369428999955,266.25102029999834,266.25102029999834,266.8669107000169,g,1.0,0.607351499987999,,,,,sub-177,1,stroop_test,60.05504645175324,
,,,,49.0,1.0,4.0,,,,,,,,,,,,,rot,red,r,1.0,r,1.0,0.6851579000067431,,,,,,,,,,4.0,1.0,49.0,0.0,266.88333189999685,,,,,,,,,,,,,,,,,266.86717929999577,267.6823482000036,268.49798260000534,268.4815675000136,,,,,,,,,,,,,,,,,,,,,,,,,,,,,,,,,,268.48421630001394,268.49798260000534,268.49798260000534,269.1974298999994,r,1.0,0.6851579000067431,,,,,sub-177,1,stroop_test,60.05504645175324,
,,,,50.0,2.0,4.0,,,,,,,,,,,,,rot,red,r,1.0,r,1.0,0.5096017000032589,,,,,,,,,,4.0,2.0,50.0,1.0,269.2136642000114,,,,,,,,,,,,,,,,,269.19777470000554,270.012627899996,270.8282865000074,270.8117492000165,,,,,,,,,,,,,,,,,,,,,,,,,,,,,,,,,,270.81219170000986,270.8282865000074,270.8282865000074,271.3443221000198,r,1.0,0.5096017000032589,,,,,sub-177,1,stroop_test,60.05504645175324,
,,,,51.0,3.0,4.0,,,,,,,,,,,,,rot,yellow,g,0.0,g,1.0,0.7961965000140481,,,,,,,,,,4.0,3.0,51.0,3.0,271.3607828000095,,,,,,,,,,,,,,,,,271.3445787000237,272.5592786000052,273.3749234999996,273.3584009000042,,,,,,,,,,,,,,,,,,,,,,,,,,,,,,,,,,273.3588578000199,273.3749234999996,273.3749234999996,274.1745524000144,g,1.0,0.7961965000140481,,,,,sub-177,1,stroop_test,60.05504645175324,
,,,,52.0,4.0,4.0,,,,,,,,,,,,,blau,blue,b,1.0,b,1.0,0.50826689999667,,,,,,,,,,4.0,4.0,52.0,6.0,274.19068739999784,,,,,,,,,,,,,,,,,274.1751353,275.3888524000067,276.20448660000693,276.18804920002003,,,,,,,,,,,,,,,,,,,,,,,,,,,,,,,,,,276.1908238000178,276.20448660000693,276.20448660000693,276.7207969000156,b,1.0,0.50826689999667,,,,,sub-177,1,stroop_test,60.05504645175324,
,,,,53.0,5.0,4.0,,,,,,,,,,,,,blau,yellow,g,0.0,g,1.0,0.4367001999926287,,,,,,,,,,4.0,5.0,53.0,7.0,276.7370137000107,,,,,,,,,,,,,,,,,276.72113280001213,277.9354852999968,278.75115900000674,278.7346330000146,,,,,,,,,,,,,,,,,,,,,,,,,,,,,,,,,,278.73508969999966,278.75115900000674,278.75115900000674,279.2008710000082,g,1.0,0.4367001999926287,,,,,sub-177,1,stroop_test,60.05504645175324,
,,,,54.0,6.0,4.0,,,,,,,,,,,,,gelb,yellow,g,1.0,g,1.0,0.4295874000235926,,,,,,,,,,4.0,6.0,54.0,10.0,279.21703450000496,,,,,,,,,,,,,,,,,279.2011910000001,280.0161023999972,280.831705300021,280.8152894000232,,,,,,,,,,,,,,,,,,,,,,,,,,,,,,,,,,280.81859800001257,280.831705300021,280.831705300021,281.26477060001343,g,1.0,0.4295874000235926,,,,,sub-177,1,stroop_test,60.05504645175324,
,,,,55.0,7.0,4.0,,,,,,,,,,,,,gelb,blue,b,0.0,b,1.0,0.6136722000082955,,,,,,,,,,4.0,7.0,55.0,9.0,281.2809848000179,,,,,,,,,,,,,,,,,281.265094900009,281.3642863999994,282.1799654000206,282.1634762000176,,,,,,,,,,,,,,,,,,,,,,,,,,,,,,,,,,282.16390870002215,282.1799654000206,282.1799654000206,282.7961549000174,b,1.0,0.6136722000082955,,,,,sub-177,1,stroop_test,60.05504645175324,
,,,,56.0,8.0,4.0,,,,,,,,,,,,,blau,blue,b,1.0,b,1.0,0.6133138999866787,,,,,,,,,,4.0,8.0,56.0,5.0,282.8123447000107,,,,,,,,,,,,,,,,,282.79645570000866,284.0107421000139,284.8097820999974,284.79332980001345,,,,,,,,,,,,,,,,,,,,,,,,,,,,,,,,,,284.7957108000119,284.8097820999974,284.8097820999974,285.4259329000197,b,1.0,0.6133138999866787,,,,,sub-177,1,stroop_test,60.05504645175324,
,,,,57.0,9.0,4.0,,,,,,,,,,,,,gelb,red,r,0.0,r,1.0,0.6004569999931846,,,,,,,,,,4.0,9.0,57.0,8.0,285.4421367000032,,,,,,,,,,,,,,,,,285.42627009999705,285.5254599000036,286.3410009000217,286.3246537000232,,,,,,,,,,,,,,,,,,,,,,,,,,,,,,,,,,286.32739400002174,286.3410009000217,286.3410009000217,286.9579320000193,r,1.0,0.6004569999931846,,,,,sub-177,1,stroop_test,60.05504645175324,
,,,,58.0,10.0,4.0,,,,,,,,,,,,,blau,red,r,0.0,r,1.0,0.6499952000158373,,,,,,,,,,4.0,10.0,58.0,4.0,286.9738299000019,,,,,,,,,,,,,,,,,286.95873330000904,287.0733953000163,287.8890153999964,287.87257690000115,,,,,,,,,,,,,,,,,,,,,,,,,,,,,,,,,,287.8751620000112,287.8890153999964,287.8890153999964,288.5551023000153,r,1.0,0.6499952000158373,,,,,sub-177,1,stroop_test,60.05504645175324,
,,,,59.0,11.0,4.0,,,,,,,,,,,,,rot,blue,b,0.0,b,1.0,0.6538360000122339,,,,,,,,,,4.0,11.0,59.0,2.0,288.5713735000172,,,,,,,,,,,,,,,,,288.5554172999982,288.90425560000585,289.71993819999625,289.7034127000079,,,,,,,,,,,,,,,,,,,,,,,,,,,,,,,,,,289.7054709000222,289.71993819999625,289.71993819999625,290.38596000001417,b,1.0,0.6538360000122339,,,,,sub-177,1,stroop_test,60.05504645175324,
,,,,60.0,0.0,5.0,,,,,,,,,,,,,blau,blue,b,1.0,b,1.0,0.6454558999976143,,,,,,,,,,5.0,0.0,60.0,5.0,290.402270599996,,,,,,,,,,,,,,,,,290.38631240002,290.7351458000194,291.5342520000122,291.517757499998,,,,,,,,,,,,,,,,,,,,,,,,,,,,,,,,,,291.5201780000061,291.5342520000122,291.5342520000122,292.18369679999887,b,1.0,0.6454558999976143,,,,,sub-177,1,stroop_test,60.05504645175324,
,,,,61.0,1.0,5.0,,,,,,,,,,,,,rot,yellow,g,0.0,g,1.0,0.6467168999952264,,,,,,,,,,5.0,1.0,61.0,3.0,292.1999033000029,,,,,,,,,,,,,,,,,292.18401980001363,292.5328195000184,293.332498600008,293.3161659000034,,,,,,,,,,,,,,,,,,,,,,,,,,,,,,,,,,293.3229512000107,293.332498600008,293.332498600008,293.9811832999985,g,1.0,0.6467168999952264,,,,,sub-177,1,stroop_test,60.05504645175324,
,,,,62.0,2.0,5.0,,,,,,,,,,,,,gelb,blue,b,0.0,b,1.0,0.6141299000009894,,,,,,,,,,5.0,2.0,62.0,9.0,293.9974732999981,,,,,,,,,,,,,,,,,293.9815366000112,295.19680340000195,296.01152970001567,295.9951147999964,,,,,,,,,,,,,,,,,,,,,,,,,,,,,,,,,,295.9990839000093,296.01152970001567,296.01152970001567,296.62761789999786,b,1.0,0.6141299000009894,,,,,sub-177,1,stroop_test,60.05504645175324,
,,,,63.0,3.0,5.0,,,,,,,,,,,,,blau,blue,b,1.0,b,1.0,0.5627925999870058,,,,,,,,,,5.0,3.0,63.0,6.0,296.6438594000065,,,,,,,,,,,,,,,,,296.6279564000142,297.443134000001,298.2585750000144,298.24214340001345,,,,,,,,,,,,,,,,,,,,,,,,,,,,,,,,,,298.2446847000101,298.2585750000144,298.2585750000144,298.8248181999952,b,1.0,0.5627925999870058,,,,,sub-177,1,stroop_test,60.05504645175324,
,,,,64.0,4.0,5.0,,,,,,,,,,,,,rot,blue,b,0.0,b,1.0,1.1471447999938391,,,,,,,,,,5.0,4.0,64.0,2.0,298.8410854999965,,,,,,,,,,,,,,,,,298.8251453000121,299.6401083000237,300.45610199999646,300.4399466000032,,,,,,,,,,,,,,,,,,,,,,,,,,,,,,,,,,300.4465632000065,300.45610199999646,300.45610199999646,301.6044233000139,b,1.0,1.1471447999938391,,,,,sub-177,1,stroop_test,60.05504645175324,
,,,,65.0,5.0,5.0,,,,,,,,,,,,,gelb,yellow,g,1.0,g,1.0,0.5999259000236634,,,,,,,,,,5.0,5.0,65.0,11.0,301.6208197000087,,,,,,,,,,,,,,,,,301.60468730001594,302.8191005999979,303.618460800004,303.60219289999804,,,,,,,,,,,,,,,,,,,,,,,,,,,,,,,,,,303.6080892000173,303.618460800004,303.618460800004,304.23446030000923,g,1.0,0.5999259000236634,,,,,sub-177,1,stroop_test,60.05504645175324,
,,,,66.0,6.0,5.0,,,,,,,,,,,,,rot,red,r,1.0,r,1.0,0.6513082000019494,,,,,,,,,,5.0,6.0,66.0,0.0,304.2506333000201,,,,,,,,,,,,,,,,,304.2347898000153,305.4489826000063,306.2645881000208,306.2480182000145,,,,,,,,,,,,,,,,,,,,,,,,,,,,,,,,,,306.25008680002065,306.2645881000208,306.2645881000208,306.93078130000504,r,1.0,0.6513082000019494,,,,,sub-177,1,stroop_test,60.05504645175324,
,,,,67.0,7.0,5.0,,,,,,,,,,,,,blau,yellow,g,0.0,g,1.0,0.7655866999994032,,,,,,,,,,5.0,7.0,67.0,7.0,306.94705830002204,,,,,,,,,,,,,,,,,306.93114220001735,307.7298346000025,308.5288449000218,308.51285930001177,,,,,,,,,,,,,,,,,,,,,,,,,,,,,,,,,,308.5195822000096,308.5288449000218,308.5288449000218,309.3113416999986,g,1.0,0.7655866999994032,,,,,sub-177,1,stroop_test,60.05504645175324,
,,,,68.0,8.0,5.0,,,,,,,,,,,,,gelb,yellow,g,1.0,g,1.0,0.3553722000215202,,,,,,,,,,5.0,8.0,68.0,10.0,309.3273204000143,,,,,,,,,,,,,,,,,309.3118871000188,309.6604032000177,310.45926240002154,310.4436990999966,,,,,,,,,,,,,,,,,,,,,,,,,,,,,,,,,,310.45173709999654,310.45926240002154,310.45926240002154,310.82676110000466,g,1.0,0.3553722000215202,,,,,sub-177,1,stroop_test,60.05504645175324,
,,,,69.0,9.0,5.0,,,,,,,,,,,,,gelb,red,r,0.0,r,1.0,1.3764752999995835,,,,,,,,,,5.0,9.0,69.0,8.0,310.84258530000807,,,,,,,,,,,,,,,,,310.82760970000527,311.6409156000009,312.4565122000058,312.44001730001764,,,,,,,,,,,,,,,,,,,,,,,,,,,,,,,,,,312.44044960002066,312.4565122000058,312.4565122000058,313.83828070000163,r,1.0,1.3764752999995835,,,,,sub-177,1,stroop_test,60.05504645175324,
,,,,70.0,10.0,5.0,,,,,,,,,,,,,blau,red,r,0.0,r,1.0,0.5155800000065938,,,,,,,,,,5.0,10.0,70.0,4.0,313.8545485000068,,,,,,,,,,,,,,,,,313.8386132000014,314.18742590001784,314.98671379999723,314.9704850999988,,,,,,,,,,,,,,,,,,,,,,,,,,,,,,,,,,314.97842520000995,314.98671379999723,314.98671379999723,315.5026144000003,r,1.0,0.5155800000065938,,,,,sub-177,1,stroop_test,60.05504645175324,
,,,,71.0,11.0,5.0,,,,,,,,,,,,,rot,red,r,1.0,r,1.0,0.4287896000023465,,,,,,,,,,5.0,11.0,71.0,1.0,315.51902609999524,,,,,,,,,,,,,,,,,315.5029073000187,316.3179275000002,317.13351889999467,317.1169373000157,,,,,,,,,,,,,,,,,,,,,,,,,,,,,,,,,,317.1189743000141,317.13351889999467,317.13351889999467,317.5666083999968,r,1.0,0.4287896000023465,,,,,sub-177,1,stroop_test,60.05504645175324,
,,,,72.0,0.0,6.0,,,,,,,,,,,,,gelb,yellow,g,1.0,g,1.0,0.7815976999991108,,,,,,,,,,6.0,0.0,72.0,11.0,317.58289990000776,,,,,,,,,,,,,,,,,317.56688890000805,317.66616190000786,318.4817424000066,318.46523920001346,,,,,,,,,,,,,,,,,,,,,,,,,,,,,,,,,,318.4680181000149,318.4817424000066,318.4817424000066,319.2643746999965,g,1.0,0.7815976999991108,,,,,sub-177,1,stroop_test,60.05504645175324,
,,,,73.0,1.0,6.0,,,,,,,,,,,,,rot,yellow,g,0.0,g,1.0,0.7334177000157069,,,,,,,,,,6.0,1.0,73.0,3.0,319.2806188999966,,,,,,,,,,,,,,,,,319.26467510001385,319.3639205000072,320.17959600000177,320.1629732000001,,,,,,,,,,,,,,,,,,,,,,,,,,,,,,,,,,320.16505740000866,320.17959600000177,320.17959600000177,320.92877100000624,g,1.0,0.7334177000157069,,,,,sub-177,1,stroop_test,60.05504645175324,
,,,,74.0,2.0,6.0,,,,,,,,,,,,,blau,red,r,0.0,r,1.0,0.7496095999958925,,,,,,,,,,6.0,2.0,74.0,4.0,320.9450928000151,,,,,,,,,,,,,,,,,320.92907060001744,321.02833500001,321.84402260000934,321.8274963000149,,,,,,,,,,,,,,,,,,,,,,,,,,,,,,,,,,321.82943949999753,321.84402260000934,321.84402260000934,322.6102246000082,r,1.0,0.7496095999958925,,,,,sub-177,1,stroop_test,60.05504645175324,
,,,,75.0,3.0,6.0,,,,,,,,,,,,,blau,yellow,g,0.0,g,1.0,0.5766300999966916,,,,,,,,,,6.0,3.0,75.0,7.0,322.6263398000156,,,,,,,,,,,,,,,,,322.6106565000082,323.8247160000028,324.6404193000053,324.6238433000108,,,,,,,,,,,,,,,,,,,,,,,,,,,,,,,,,,324.6242676000111,324.6404193000053,324.6404193000053,325.2230661000067,g,1.0,0.5766300999966916,,,,,sub-177,1,stroop_test,60.05504645175324,
,,,,76.0,4.0,6.0,,,,,,,,,,,,,rot,blue,b,0.0,b,1.0,0.5181189000140876,,,,,,,,,,6.0,4.0,76.0,2.0,325.23947510001017,,,,,,,,,,,,,,,,,325.2233713000023,325.322719000018,326.13827850000234,326.12177560001146,,,,,,,,,,,,,,,,,,,,,,,,,,,,,,,,,,326.12395820001257,326.13827850000234,326.13827850000234,326.67116980001447,b,1.0,0.5181189000140876,,,,,sub-177,1,stroop_test,60.05504645175324,
,,,,77.0,5.0,6.0,,,,,,,,,,,,,rot,red,r,1.0,r,1.0,0.9771652999916114,,,,,,,,,,6.0,5.0,77.0,1.0,326.68755319999764,,,,,,,,,,,,,,,,,326.6714470000006,326.77081159999943,327.58645900001284,327.5699601000233,,,,,,,,,,,,,,,,,,,,,,,,,,,,,,,,,,327.570385900006,327.58645900001284,327.58645900001284,328.5686420999991,r,1.0,0.9771652999916114,,,,,sub-177,1,stroop_test,60.05504645175324,
,,,,78.0,6.0,6.0,,,,,,,,,,,,,rot,red,r,1.0,r,1.0,0.5093875000020489,,,,,,,,,,6.0,6.0,78.0,0.0,328.585026500019,,,,,,,,,,,,,,,,,328.5689275000186,328.66824260001886,329.4672307000146,329.45081080001546,,,,,,,,,,,,,,,,,,,,,,,,,,,,,,,,,,329.45123130001593,329.4672307000146,329.4672307000146,329.98352760000853,r,1.0,0.5093875000020489,,,,,sub-177,1,stroop_test,60.05504645175324,
,,,,79.0,7.0,6.0,,,,,,,,,,,,,gelb,yellow,g,1.0,g,1.0,0.6883482999983244,,,,,,,,,,6.0,7.0,79.0,10.0,329.9998506999982,,,,,,,,,,,,,,,,,329.9838428000221,330.3327161000052,331.1483453999972,331.1317917999986,,,,,,,,,,,,,,,,,,,,,,,,,,,,,,,,,,331.134616299998,331.1483453999972,331.1483453999972,331.84765609999886,g,1.0,0.6883482999983244,,,,,sub-177,1,stroop_test,60.05504645175324,
,,,,80.0,8.0,6.0,,,,,,,,,,,,,blau,blue,b,1.0,b,1.0,0.3802854000241495,,,,,,,,,,6.0,8.0,80.0,5.0,331.86399240000173,,,,,,,,,,,,,,,,,331.8479523000133,331.9473012000089,332.76287560001947,332.7464849000098,,,,,,,,,,,,,,,,,,,,,,,,,,,,,,,,,,332.7492417000176,332.76287560001947,332.76287560001947,333.1460898000223,b,1.0,0.3802854000241495,,,,,sub-177,1,stroop_test,60.05504645175324,
,,,,81.0,9.0,6.0,,,,,,,,,,,,,blau,blue,b,1.0,b,1.0,0.6744214000063948,,,,,,,,,,6.0,9.0,81.0,6.0,333.1623128000065,,,,,,,,,,,,,,,,,333.14637299999595,334.3607475000026,335.1764524000173,335.1599027000193,,,,,,,,,,,,,,,,,,,,,,,,,,,,,,,,,,335.1603056000022,335.1764524000173,335.1764524000173,335.85901139999623,b,1.0,0.6744214000063948,,,,,sub-177,1,stroop_test,60.05504645175324,
,,,,82.0,10.0,6.0,,,,,,,,,,,,,gelb,blue,b,0.0,b,1.0,0.5746709000086412,,,,,,,,,,6.0,10.0,82.0,9.0,335.87532819999615,,,,,,,,,,,,,,,,,335.85931540001184,336.67429290001746,337.4899638000061,337.4735688000219,,,,,,,,,,,,,,,,,,,,,,,,,,,,,,,,,,337.4764877000125,337.4899638000061,337.4899638000061,338.07290300002205,b,1.0,0.5746709000086412,,,,,sub-177,1,stroop_test,60.05504645175324,
,,,,83.0,11.0,6.0,,,,,,,,,,,,,gelb,red,r,0.0,r,1.0,0.6034977000090294,,,,,,,,,,6.0,11.0,83.0,8.0,338.0891363999981,,,,,,,,,,,,,,,,,338.0732506000204,338.42205340001965,339.2376882999961,339.2212228999997,,,,,,,,,,,,,,,,,,,,,,,,,,,,,,,,,,339.221680800023,339.2376882999961,339.2376882999961,339.8539040000178,r,1.0,0.6034977000090294,,,,,sub-177,1,stroop_test,60.05504645175324,
,,,,84.0,0.0,7.0,,,,,,,,,,,,,blau,blue,b,1.0,b,1.0,0.5675535000045784,,,,,,,,,,7.0,0.0,84.0,6.0,339.8700529000198,,,,,,,,,,,,,,,,,339.85422960002325,340.21969710002304,341.0352367000014,341.0188112000178,,,,,,,,,,,,,,,,,,,,,,,,,,,,,,,,,,341.0213765000226,341.0352367000014,341.0352367000014,341.61812680002186,b,1.0,0.5675535000045784,,,,,sub-177,1,stroop_test,60.05504645175324,
,,,,85.0,1.0,7.0,,,,,,,,,,,,,gelb,yellow,g,1.0,g,1.0,0.9073830000124872,,,,,,,,,,7.0,1.0,85.0,11.0,341.634358100011,,,,,,,,,,,,,,,,,341.6184484999976,342.4333741000155,343.2489768000087,343.23246420000214,,,,,,,,,,,,,,,,,,,,,,,,,,,,,,,,,,343.23491970001487,343.2489768000087,343.2489768000087,344.1647942000127,g,1.0,0.9073830000124872,,,,,sub-177,1,stroop_test,60.05504645175324,
,,,,86.0,2.0,7.0,,,,,,,,,,,,,blau,blue,b,1.0,b,1.0,0.8494283000181895,,,,,,,,,,7.0,2.0,86.0,5.0,344.1810207000235,,,,,,,,,,,,,,,,,344.1651127000223,344.26425259999814,345.07993850001367,345.0634671000007,,,,,,,,,,,,,,,,,,,,,,,,,,,,,,,,,,345.066023899999,345.07993850001367,345.07993850001367,345.94577420002315,b,1.0,0.8494283000181895,,,,,sub-177,1,stroop_test,60.05504645175324,
,,,,87.0,3.0,7.0,,,,,,,,,,,,,gelb,yellow,g,1.0,g,1.0,0.6727619000012055,,,,,,,,,,7.0,3.0,87.0,10.0,345.9620127000089,,,,,,,,,,,,,,,,,345.94608700001845,346.2949201000156,347.0939214999962,347.0775121000188,,,,,,,,,,,,,,,,,,,,,,,,,,,,,,,,,,347.0804919000075,347.0939214999962,347.0939214999962,347.77645490001305,g,1.0,0.6727619000012055,,,,,sub-177,1,stroop_test,60.05504645175324,
,,,,88.0,4.0,7.0,,,,,,,,,,,,,rot,blue,b,0.0,b,1.0,0.9153371999855152,,,,,,,,,,7.0,4.0,88.0,2.0,347.7928174000117,,,,,,,,,,,,,,,,,347.77671230002306,348.5918729999976,349.4075198000064,349.3910589000152,,,,,,,,,,,,,,,,,,,,,,,,,,,,,,,,,,349.3941756999993,349.4075198000064,349.4075198000064,350.32328020001296,b,1.0,0.9153371999855152,,,,,sub-177,1,stroop_test,60.05504645175324,
,,,,89.0,5.0,7.0,,,,,,,,,,,,,gelb,blue,b,0.0,b,1.0,0.8346496000012849,,,,,,,,,,7.0,5.0,89.0,9.0,350.33956680001575,,,,,,,,,,,,,,,,,350.32362199999625,350.6724519999989,351.4881338000123,351.4716420000186,,,,,,,,,,,,,,,,,,,,,,,,,,,,,,,,,,351.4745392000186,351.4881338000123,351.4881338000123,352.3372492000053,b,1.0,0.8346496000012849,,,,,sub-177,1,stroop_test,60.05504645175324,
,,,,90.0,6.0,7.0,,,,,,,,,,,,,gelb,red,r,0.0,r,1.0,0.6197198999871034,,,,,,,,,,7.0,6.0,90.0,8.0,352.3535187000234,,,,,,,,,,,,,,,,,352.3375847999996,353.15263730002334,353.96815510001034,353.9517304000037,,,,,,,,,,,,,,,,,,,,,,,,,,,,,,,,,,353.95220560001326,353.96815510001034,353.96815510001034,354.60092359999544,r,1.0,0.6197198999871034,,,,,sub-177,1,stroop_test,60.05504645175324,
,,,,91.0,7.0,7.0,,,,,,,,,,,,,rot,red,r,1.0,r,1.0,0.5629046999965794,,,,,,,,,,7.0,7.0,91.0,1.0,354.6172344000079,,,,,,,,,,,,,,,,,354.6012453000003,355.8156862000178,356.6312651000044,356.6147864999948,,,,,,,,,,,,,,,,,,,,,,,,,,,,,,,,,,356.61711829999695,356.6312651000044,356.6312651000044,357.1974936000188,r,1.0,0.5629046999965794,,,,,sub-177,1,stroop_test,60.05504645175324,
,,,,92.0,8.0,7.0,,,,,,,,,,,,,rot,red,r,1.0,r,1.0,0.493001800001366,,,,,,,,,,7.0,8.0,92.0,0.0,357.21376710000914,,,,,,,,,,,,,,,,,357.1977934000024,358.0127434000024,358.8283542999998,358.81190950001474,,,,,,,,,,,,,,,,,,,,,,,,,,,,,,,,,,358.81235580000794,358.8283542999998,358.8283542999998,359.3278694000037,r,1.0,0.493001800001366,,,,,sub-177,1,stroop_test,60.05504645175324,
,,,,93.0,9.0,7.0,,,,,,,,,,,,,blau,yellow,g,0.0,g,1.0,0.5385658000013791,,,,,,,,,,7.0,9.0,93.0,7.0,359.3443157000001,,,,,,,,,,,,,,,,,359.32813130001887,360.1432501000236,360.9588928000012,360.942374700011,,,,,,,,,,,,,,,,,,,,,,,,,,,,,,,,,,360.9449110999994,360.9588928000012,360.9588928000012,361.5085488000186,g,1.0,0.5385658000013791,,,,,sub-177,1,stroop_test,60.05504645175324,
,,,,94.0,10.0,7.0,,,,,,,,,,,,,blau,red,r,0.0,r,1.0,0.6575015999842435,,,,,,,,,,7.0,10.0,94.0,4.0,361.524796200014,,,,,,,,,,,,,,,,,361.5089447000064,361.8743169000081,362.68994040001417,362.6734445000184,,,,,,,,,,,,,,,,,,,,,,,,,,,,,,,,,,362.6738822000043,362.68994040001417,362.68994040001417,363.3559940000123,r,1.0,0.6575015999842435,,,,,sub-177,1,stroop_test,60.05504645175324,
,,,,95.0,11.0,7.0,,,,,,,,,,,,,rot,yellow,g,0.0,g,1.0,0.6852401999931317,,,,,,,,,,7.0,11.0,95.0,3.0,363.3723047999956,,,,,,,,,,,,,,,,,363.3563377000101,363.4554824000225,364.2544657000108,364.2380543000181,,,,,,,,,,,,,,,,,,,,,,,,,,,,,,,,,,364.24048880001646,364.2544657000108,364.2544657000108,364.9539138000109,g,1.0,0.6852401999931317,,,,,sub-177,1,stroop_test,60.05504645175324,
,,,,96.0,0.0,8.0,,,,,,,,,,,,,gelb,yellow,g,1.0,g,1.0,0.6513999000017066,,,,,,,,,,8.0,0.0,96.0,10.0,364.9701600999979,,,,,,,,,,,,,,,,,364.9542287000222,365.7690953999991,366.5847797000024,366.5682822999952,,,,,,,,,,,,,,,,,,,,,,,,,,,,,,,,,,366.5710114999965,366.5847797000024,366.5847797000024,367.2508831000014,g,1.0,0.6513999000017066,,,,,sub-177,1,stroop_test,60.05504645175324,
,,,,97.0,1.0,8.0,,,,,,,,,,,,,gelb,blue,b,0.0,b,1.0,0.4720778999908361,,,,,,,,,,8.0,1.0,97.0,9.0,367.2671336000203,,,,,,,,,,,,,,,,,367.2512087000068,368.0661029000185,368.88171929999953,368.8651175000123,,,,,,,,,,,,,,,,,,,,,,,,,,,,,,,,,,368.8654907000018,368.88171929999953,368.88171929999953,369.36468389999936,b,1.0,0.4720778999908361,,,,,sub-177,1,stroop_test,60.05504645175324,
,,,,98.0,2.0,8.0,,,,,,,,,,,,,blau,yellow,g,0.0,g,1.0,1.7321082999987991,,,,,,,,,,8.0,2.0,98.0,7.0,369.3809972000017,,,,,,,,,,,,,,,,,369.3650106000132,370.1800272999972,370.995517000003,370.9791054000089,,,,,,,,,,,,,,,,,,,,,,,,,,,,,,,,,,370.9819463000167,370.995517000003,370.995517000003,372.7436608000135,g,1.0,1.7321082999987991,,,,,sub-177,1,stroop_test,60.05504645175324,
,,,,99.0,3.0,8.0,,,,,,,,,,,,,gelb,red,r,0.0,r,1.0,0.5993362000153866,,,,,,,,,,8.0,3.0,99.0,8.0,372.75986540000304,,,,,,,,,,,,,,,,,372.74400910001714,373.5590643000032,374.3745020000206,374.35808800000814,,,,,,,,,,,,,,,,,,,,,,,,,,,,,,,,,,374.3623351000133,374.3745020000206,374.3745020000206,374.99055380001664,r,1.0,0.5993362000153866,,,,,sub-177,1,stroop_test,60.05504645175324,
,,,,100.0,4.0,8.0,,,,,,,,,,,,,gelb,yellow,g,1.0,g,1.0,0.3967770999879576,,,,,,,,,,8.0,4.0,100.0,11.0,375.00682400001097,,,,,,,,,,,,,,,,,374.9908972000121,375.8058445000206,376.62146540000685,376.60491880000336,,,,,,,,,,,,,,,,,,,,,,,,,,,,,,,,,,376.6053477000096,376.62146540000685,376.62146540000685,377.021255700005,g,1.0,0.3967770999879576,,,,,sub-177,1,stroop_test,60.05504645175324,
,,,,101.0,5.0,8.0,,,,,,,,,,,,,blau,blue,b,1.0,b,1.0,0.4294153999944683,,,,,,,,,,8.0,5.0,101.0,5.0,377.037538500008,,,,,,,,,,,,,,,,,377.0215694000072,378.2359148999967,379.05161399999633,379.03517889999785,,,,,,,,,,,,,,,,,,,,,,,,,,,,,,,,,,379.0375347000081,379.05161399999633,379.05161399999633,379.4846308999986,b,1.0,0.4294153999944683,,,,,sub-177,1,stroop_test,60.05504645175324,
,,,,102.0,6.0,8.0,,,,,,,,,,,,,blau,red,r,0.0,r,1.0,0.3635685000044759,,,,,,,,,,8.0,6.0,102.0,4.0,379.500834800012,,,,,,,,,,,,,,,,,379.4849552000233,380.29985700000543,381.11552690001554,381.0990883000195,,,,,,,,,,,,,,,,,,,,,,,,,,,,,,,,,,381.0995269000123,381.11552690001554,381.11552690001554,381.4819890000217,r,1.0,0.3635685000044759,,,,,sub-177,1,stroop_test,60.05504645175324,
,,,,103.0,7.0,8.0,,,,,,,,,,,,,rot,red,r,1.0,r,1.0,1.1708192999940366,,,,,,,,,,8.0,7.0,103.0,1.0,381.4982057000161,,,,,,,,,,,,,,,,,381.4822936000128,382.69666470002267,383.4957263999968,383.4793580000114,,,,,,,,,,,,,,,,,,,,,,,,,,,,,,,,,,383.48158120000153,383.4957263999968,383.4957263999968,384.6777539000032,r,1.0,1.1708192999940366,,,,,sub-177,1,stroop_test,60.05504645175324,
,,,,104.0,8.0,8.0,,,,,,,,,,,,,rot,red,r,1.0,r,1.0,0.5600855999800842,,,,,,,,,,8.0,8.0,104.0,0.0,384.6940404000052,,,,,,,,,,,,,,,,,384.6780757000088,384.7772874000075,385.59293820001767,385.5764854000008,,,,,,,,,,,,,,,,,,,,,,,,,,,,,,,,,,385.5769013999961,385.59293820001767,385.59293820001767,386.1589847000141,r,1.0,0.5600855999800842,,,,,sub-177,1,stroop_test,60.05504645175324,
,,,,105.0,9.0,8.0,,,,,,,,,,,,,rot,blue,b,0.0,b,1.0,0.6495510000095237,,,,,,,,,,8.0,9.0,105.0,2.0,386.1753835999989,,,,,,,,,,,,,,,,,386.1592802000232,386.2585674000147,387.0576131000125,387.04115110001294,,,,,,,,,,,,,,,,,,,,,,,,,,,,,,,,,,387.04157770000165,387.0576131000125,387.0576131000125,387.723816600017,b,1.0,0.6495510000095237,,,,,sub-177,1,stroop_test,60.05504645175324,
,,,,106.0,10.0,8.0,,,,,,,,,,,,,blau,blue,b,1.0,b,1.0,0.654156900011003,,,,,,,,,,8.0,10.0,106.0,6.0,387.7399976000015,,,,,,,,,,,,,,,,,387.7241188000189,387.8232845000166,388.638916099997,388.6224438000063,,,,,,,,,,,,,,,,,,,,,,,,,,,,,,,,,,388.6247651000158,388.638916099997,388.638916099997,389.3049652000191,b,1.0,0.654156900011003,,,,,sub-177,1,stroop_test,60.05504645175324,
,,,,107.0,11.0,8.0,,,,,,,,,,,,,rot,yellow,g,0.0,g,1.0,0.4500284999958239,,,,,,,,,,8.0,11.0,107.0,3.0,389.321202000021,,,,,,,,,,,,,,,,,389.3052803000028,389.4045000000042,390.20380580000347,390.18755500001134,,,,,,,,,,,,,,,,,,,,,,,,,,,,,,,,,,390.1942507000058,390.20380580000347,390.20380580000347,390.66978540000855,g,1.0,0.4500284999958239,,,,,sub-177,1,stroop_test,60.05504645175324,
,,,,108.0,0.0,9.0,,,,,,,,,,,,,rot,blue,b,0.0,b,1.0,0.6581163999799173,,,,,,,,,,9.0,0.0,108.0,2.0,390.68609580001794,,,,,,,,,,,,,,,,,390.67011060001096,391.4850851000229,392.30069390000426,392.2842202000029,,,,,,,,,,,,,,,,,,,,,,,,,,,,,,,,,,392.2846465000184,392.30069390000426,392.30069390000426,392.96677500000806,b,1.0,0.6581163999799173,,,,,sub-177,1,stroop_test,60.05504645175324,
,,,,109.0,1.0,9.0,,,,,,,,,,,,,gelb,red,r,0.0,r,1.0,0.6571853999921586,,,,,,,,,,9.0,1.0,109.0,8.0,392.9830720000027,,,,,,,,,,,,,,,,,392.9671145000029,393.3160552000045,394.131644100009,394.1151286000095,,,,,,,,,,,,,,,,,,,,,,,,,,,,,,,,,,394.1181576999952,394.131644100009,394.131644100009,394.79767250001896,r,1.0,0.6571853999921586,,,,,sub-177,1,stroop_test,60.05504645175324,
,,,,110.0,2.0,9.0,,,,,,,,,,,,,rot,red,r,1.0,r,1.0,0.5114058000035584,,,,,,,,,,9.0,2.0,110.0,1.0,394.813945300004,,,,,,,,,,,,,,,,,394.79799620001,395.6129129000183,396.42855000001146,396.4120999000152,,,,,,,,,,,,,,,,,,,,,,,,,,,,,,,,,,396.4145448000054,396.42855000001146,396.42855000001146,396.9448466000031,r,1.0,0.5114058000035584,,,,,sub-177,1,stroop_test,60.05504645175324,
,,,,111.0,3.0,9.0,,,,,,,,,,,,,gelb,yellow,g,1.0,g,1.0,0.3814714000036474,,,,,,,,,,9.0,3.0,111.0,11.0,396.9612027000112,,,,,,,,,,,,,,,,,396.9451795000059,397.7600745999953,398.57570600000327,398.5591956000135,,,,,,,,,,,,,,,,,,,,,,,,,,,,,,,,,,398.56196479999926,398.57570600000327,398.57570600000327,398.9588924999989,g,1.0,0.3814714000036474,,,,,sub-177,1,stroop_test,60.05504645175324,
,,,,112.0,4.0,9.0,,,,,,,,,,,,,gelb,yellow,g,1.0,g,1.0,0.5558101000206079,,,,,,,,,,9.0,4.0,112.0,10.0,398.9751431000186,,,,,,,,,,,,,,,,,398.959199600009,399.7740948999999,400.5896883000096,400.5732873000088,,,,,,,,,,,,,,,,,,,,,,,,,,,,,,,,,,400.5737569000048,400.5896883000096,400.5896883000096,401.1559542000177,g,1.0,0.5558101000206079,,,,,sub-177,1,stroop_test,60.05504645175324,
,,,,113.0,5.0,9.0,,,,,,,,,,,,,blau,blue,b,1.0,b,1.0,0.5335377000155859,,,,,,,,,,9.0,5.0,113.0,5.0,401.1722325000155,,,,,,,,,,,,,,,,,401.1562671000138,401.9712182000221,402.770323100005,402.75391880000825,,,,,,,,,,,,,,,,,,,,,,,,,,,,,,,,,,402.75820880001993,402.770323100005,402.770323100005,403.31977709999774,b,1.0,0.5335377000155859,,,,,sub-177,1,stroop_test,60.05504645175324,
,,,,114.0,6.0,9.0,,,,,,,,,,,,,rot,yellow,g,0.0,g,1.0,1.1495176999887915,,,,,,,,,,9.0,6.0,114.0,3.0,403.3360332000011,,,,,,,,,,,,,,,,,403.3201117000135,403.6689120000228,404.4844883000187,404.4680651000235,,,,,,,,,,,,,,,,,,,,,,,,,,,,,,,,,,404.470538900001,404.4844883000187,404.4844883000187,405.6500056000077,g,1.0,1.1495176999887915,,,,,sub-177,1,stroop_test,60.05504645175324,
,,,,115.0,7.0,9.0,,,,,,,,,,,,,blau,red,r,0.0,r,1.0,0.614364699984435,,,,,,,,,,9.0,7.0,115.0,4.0,405.6662570000044,,,,,,,,,,,,,,,,,405.650344099995,406.465223200008,407.2807900000189,407.2643720000051,,,,,,,,,,,,,,,,,,,,,,,,,,,,,,,,,,407.2666966000106,407.2807900000189,407.2807900000189,407.8969948000158,r,1.0,0.614364699984435,,,,,sub-177,1,stroop_test,60.05504645175324,
,,,,116.0,8.0,9.0,,,,,,,,,,,,,rot,red,r,1.0,r,1.0,0.5030737000051886,,,,,,,,,,9.0,8.0,116.0,0.0,407.9132622000179,,,,,,,,,,,,,,,,,407.8973112000094,408.246201300004,409.0617285000044,409.045274300006,,,,,,,,,,,,,,,,,,,,,,,,,,,,,,,,,,409.04734499999904,409.0617285000044,409.0617285000044,409.5781487000058,r,1.0,0.5030737000051886,,,,,sub-177,1,stroop_test,60.05504645175324,
,,,,117.0,9.0,9.0,,,,,,,,,,,,,blau,yellow,g,0.0,g,1.0,0.5800755999807734,,,,,,,,,,9.0,9.0,117.0,7.0,409.5943961000012,,,,,,,,,,,,,,,,,409.578521700023,409.9273617000144,410.7429585000209,410.7264732000185,,,,,,,,,,,,,,,,,,,,,,,,,,,,,,,,,,410.72904950001976,410.7429585000209,410.7429585000209,411.32568410001113,g,1.0,0.5800755999807734,,,,,sub-177,1,stroop_test,60.05504645175324,
,,,,118.0,10.0,9.0,,,,,,,,,,,,,blau,blue,b,1.0,b,1.0,0.5200673000072129,,,,,,,,,,9.0,10.0,118.0,6.0,411.3420503000089,,,,,,,,,,,,,,,,,411.32598880000296,412.14101449999725,412.9566018000187,412.9401595999952,,,,,,,,,,,,,,,,,,,,,,,,,,,,,,,,,,412.9405638000171,412.9566018000187,412.9566018000187,413.4895684000221,b,1.0,0.5200673000072129,,,,,sub-177,1,stroop_test,60.05504645175324,
,,,,119.0,11.0,9.0,,,,,,,,,,,,,gelb,blue,b,0.0,b,1.0,0.5044405999942683,,,,,,,,,,9.0,11.0,119.0,9.0,413.5058573000133,,,,,,,,,,,,,,,,,413.4898911000055,413.838745200017,414.6543958999973,414.63791449999553,,,,,,,,,,,,,,,,,,,,,,,,,,,,,,,,,,414.6419889999961,414.6543958999973,414.6543958999973,415.170726500015,b,1.0,0.5044405999942683,,,,,sub-177,1,stroop_test,60.05504645175324,
,,,,,,,,,,,,,,,,,,,,,,,,,,,,,,,,,,,,,,,,,,,,,,,,,,,,,,,,,,,,,,,,,,,,,,,,,,,,,,,,,,,,,,,,,,,,,,,,,,,,,415.1708916000207,415.1871883000131,420.1806884999969,sub-177,1,stroop_test,60.05504645175324,
