direction,corrAns,randomInstr,practice_trials.thisRepN,practice_trials.thisTrialN,practice_trials.thisN,practice_trials.thisIndex,instr_trials.thisRepN,instr_trials.thisTrialN,instr_trials.thisN,instr_trials.thisIndex,test_trials.thisRepN,test_trials.thisTrialN,test_trials.thisN,test_trials.thisIndex,thisRow.t,notes,general_instruction.started,textGeneralInstr.started,respGeneralInstr.started,general_instruction.stopped,respGeneralInstr.keys,respGeneralInstr.rt,respGeneralInstr.duration,ITI.started,fixcross.started,fixcross.stopped,ITI.stopped,dots.started,backgroundDots.started,stimulusDots.started,respDots.started,dots.stopped,respDots.keys,respDots.corr,respDots.rt,respDots.duration,feedback.started,textFeedback.started,feedback.stopped,textFeedback.stopped,stimulusDots.stopped,info.started,textInfo.started,keyRespInfo.started,info.stopped,keyRespInfo.keys,keyRespInfo.rt,keyRespInfo.duration,test_instruction.started,textTestInstr.started,respTestInstr.started,test_instruction.stopped,respTestInstr.keys,respTestInstr.rt,respTestInstr.duration,random_instruction.started,textRandomInstr.started,respRandomInstr.started,random_instruction.stopped,respRandomInstr.keys,respRandomInstr.rt,respRandomInstr.duration,goodbye.started,textGoodbye.started,goodbye.stopped,participant,session,expName,frameRate,Unnamed: 73
,,,,,,,,,,,,,,,,,0.019658299999719,0.0295474999984435,0.0295474999984435,3.224098899998353,space,199.99892829999956,,,,,,,,,,,,,,,,,,,,,,,,,,,,,,,,,,,,,,,,,,,,sub-097,1.0,random_dot,60.02681998342572,
right,right,,0.0,0.0,0.0,1.0,,,,,,,,,3.26153439999689,,,,,,,,,3.257350399999268,4.437291099999129,5.2607717999999295,5.222169399999984,5.222232199997961,5.2607717999999295,5.2607717999999295,5.2607717999999295,7.440065099999629,right,1.0,198.9891889999999,,7.441616799998883,7.463031799998134,7.953423899998597,,,,,,,,,,,,,,,,,,,,,,,,,,,sub-097,1.0,random_dot,60.02681998342572,
left,left,,0.0,1.0,1.0,0.0,,,,,,,,,7.969903599998361,,,,,,,,,7.954320299999381,9.152988499998171,9.968931999999768,9.952907799997774,9.952948499998456,9.968931999999768,9.968931999999768,9.968931999999768,10.720558699998946,left,1.0,197.56747069999983,,10.721732399997563,10.734839699998702,11.220005799998034,11.235019399999146,,,,,,,,,,,,,,,,,,,,,,,,,,sub-097,1.0,random_dot,60.02681998342572,
right,right,,1.0,0.0,2.0,1.0,,,,,,,,,11.235019399999146,,,,,,,,,11.221328899999207,11.58483889999843,12.385337599997,12.368613899998309,12.368650399999751,12.385337599997,12.385337599997,12.385337599997,13.23632759999964,right,1.0,197.6630578000004,,13.237261299997044,13.250599999999396,13.735473599997931,13.750783899999078,,,,,,,,,,,,,,,,,,,,,,,,,,sub-097,1.0,random_dot,60.02681998342572,
left,left,,1.0,1.0,3.0,0.0,,,,,,,,,13.750783899999078,,,,,,,,,13.736549099998228,13.850744999999732,14.65084299999944,14.633872999998855,14.633891999998012,14.65084299999944,14.65084299999944,14.65084299999944,15.502966699998067,left,1.0,197.65928740000163,,15.504174699999568,15.516793799997686,16.001323099997535,16.01699329999974,,,,,,,,,,,,,,,,,,,,,,,,,,sub-097,1.0,random_dot,60.02681998342572,
left,left,,2.0,0.0,4.0,0.0,,,,,,,,,16.01699329999974,,,,,,,,,16.002199999998993,17.21686189999673,18.018451500000083,18.002052799998637,18.002113499998813,18.018451500000083,18.018451500000083,18.018451500000083,21.70115209999858,right,0.0,200.49497530000008,,21.70163879999745,21.71499719999701,22.19885389999763,22.214922999999544,,,,,,,,,,,,,,,,,,,,,,,,,,sub-097,1.0,random_dot,60.02681998342572,
right,right,,2.0,1.0,5.0,1.0,,,,,,,,,22.214922999999544,,,,,,,,,22.199262099999032,22.56481399999757,23.366716199998336,23.35028899999816,23.350351499997487,23.366716199998336,23.366716199998336,23.366716199998336,26.999707599999965,right,1.0,200.43763930000205,,27.00115829999777,27.01482709999982,27.51331179999761,,,,,,,,,,,,,,,,,,,,,,,,,,,sub-097,1.0,random_dot,60.02681998342572,
right,right,,3.0,0.0,6.0,1.0,,,,,,,,,27.529800699998304,,,,,,,,,27.51442689999749,27.863064799999847,28.6633542999989,28.64689709999948,28.64693329999864,28.6633542999989,28.6633542999989,28.6633542999989,35.6823854999966,left,0.0,203.8220451000016,,35.68428749999657,35.69987299999775,36.19450719999804,,33.64665089999835,,,,,,,,,,,,,,,,,,,,,,,,,sub-097,1.0,random_dot,60.02681998342572,
left,left,,3.0,1.0,7.0,0.0,,,,,,,,,36.211045099997136,,,,,,,,,36.19498709999971,36.99442369999815,37.79556709999815,37.77941289999944,37.77947529999801,37.79556709999815,37.79556709999815,37.79556709999815,40.04767569999967,left,1.0,199.05510829999912,,40.04958129999795,40.06732509999711,40.55989299999783,,,,,,,,,,,,,,,,,,,,,,,,,,,sub-097,1.0,random_dot,60.02681998342572,
right,right,,4.0,0.0,8.0,1.0,,,,,,,,,40.57638229999793,,,,,,,,,40.56072469999708,41.75948689999859,42.5607878999981,42.54414479999832,42.54419859999689,42.5607878999981,42.5607878999981,42.5607878999981,43.77963699999964,right,1.0,198.030229699998,,43.78119859999788,43.792188099996565,44.27697899999839,44.29202749999968,,,,,,,,,,,,,,,,,,,,,,,,,,sub-097,1.0,random_dot,60.02681998342572,
left,left,,4.0,1.0,9.0,0.0,,,,,,,,,44.29202749999968,,,,,,,,,44.27804939999987,45.49163359999875,46.29287849999673,46.27625439999974,46.2763077999989,46.29287849999673,46.29287849999673,46.29287849999673,47.69425919999776,left,1.0,198.21163650000017,,47.69545149999976,47.70761139999741,48.19182009999713,48.207391500000085,,,,,,,,,,,,,,,,,,,,,,,,,,sub-097,1.0,random_dot,60.02681998342572,
left,left,,5.0,0.0,10.0,0.0,,,,,,,,,48.207391500000085,,,,,,,,,48.1926945999985,49.407150699997146,50.20834239999749,50.192249299998366,50.19231519999812,50.20834239999749,50.20834239999749,50.20834239999749,51.52654899999834,left,1.0,198.13548069999888,,51.527766499999416,51.53961269999854,52.02471629999855,52.03961849999905,,,,,,,,,,,,,,,,,,,,,,,,,,sub-097,1.0,random_dot,60.02681998342572,
right,right,,5.0,1.0,11.0,1.0,,,,,,,,,52.03961849999905,,,,,,,,,52.02600639999946,52.38956079999844,53.19090799999685,53.1744630999965,53.1745250999993,53.19090799999685,53.19090799999685,53.19090799999685,54.14257240000006,right,1.0,197.7678408000029,,54.143735099998594,54.155535199999576,54.63933219999672,54.65501429999858,,,,,,,,,,,,,,,,,,,,,,,,,,sub-097,1.0,random_dot,60.02681998342572,
right,right,,6.0,0.0,12.0,1.0,,,,,,,,,54.65501429999858,,,,,,,,,54.6401240999985,55.00540239999828,55.80648089999886,55.790082299998176,55.79013779999877,55.80648089999886,55.80648089999886,55.80648089999886,56.89137089999713,left,0.0,197.90146690000256,,56.892477899997175,56.9045077999981,57.38878409999961,57.40439299999707,,,,,,,,,,,,,,,,,,,,,,,,,,sub-097,1.0,random_dot,60.02681998342572,
left,left,,6.0,1.0,13.0,0.0,,,,,,,,,57.40439299999707,,,,,,,,,57.38956319999852,58.60437759999695,59.40554429999975,59.38912209999762,59.3891838999989,59.40554429999975,59.40554429999975,59.40554429999975,60.391881899999134,left,1.0,197.80376479999904,,60.393450499999744,60.40923439999824,60.90411809999932,,,,,,,,,,,,,,,,,,,,,,,,,,,sub-097,1.0,random_dot,60.02681998342572,
left,left,,7.0,0.0,14.0,0.0,,,,,,,,,60.9202566999993,,,,,,,,,60.90536769999744,61.2534917999983,62.05465009999898,62.038221599999815,62.03832599999805,62.05465009999898,62.05465009999898,62.05465009999898,63.72255139999834,left,1.0,198.4781088000018,,63.72374889999992,63.73589079999874,64.22111889999724,64.23587679999764,,,,,,,,,,,,,,,,,,,,,,,,,,sub-097,1.0,random_dot,60.02681998342572,
right,right,,7.0,1.0,15.0,1.0,,,,,,,,,64.23587679999764,,,,,,,,,64.22242139999798,65.43545879999874,66.23631569999998,66.21983959999852,66.21988939999937,66.23631569999998,66.23631569999998,66.23631569999998,69.12102949999826,right,1.0,199.69920369999815,,69.12222459999975,69.1342380999995,69.61925339999652,69.6342405999967,,,,,,,,,,,,,,,,,,,,,,,,,,sub-097,1.0,random_dot,60.02681998342572,
right,right,,8.0,0.0,16.0,1.0,,,,,,,,,69.6342405999967,,,,,,,,,69.62035609999657,69.73401479999666,70.53539959999762,70.51879009999902,70.51884619999691,70.53539959999762,70.53539959999762,70.53539959999762,73.1363672999978,left,0.0,199.4054010999971,,73.13742259999708,73.14916169999924,73.63488959999813,73.64949869999691,,,,,,,,,,,,,,,,,,,,,,,,,,sub-097,1.0,random_dot,60.02681998342572,
left,left,,8.0,1.0,17.0,0.0,,,,,,,,,73.64949869999691,,,,,,,,,73.63616849999744,74.84901009999885,75.65047289999711,75.63418969999839,75.63425749999806,75.65047289999711,75.65047289999711,75.65047289999711,77.1192807999978,right,0.0,198.2745638000015,,77.12084719999984,77.13189409999904,77.61579919999713,77.63141819999873,,,,,,,,,,,,,,,,,,,,,,,,,,sub-097,1.0,random_dot,60.02681998342572,
left,left,,9.0,0.0,18.0,0.0,,,,,,,,,77.63141819999873,,,,,,,,,77.61653159999696,78.8313728999965,79.63192949999939,79.61444510000001,79.61446149999756,79.63192949999939,79.63192949999939,79.63192949999939,82.11549199999718,left,1.0,199.29731710000124,,82.11607819999699,82.12963799999852,82.61351029999787,82.62940669999807,,,,,,,,,,,,,,,,,,,,,,,,,,sub-097,1.0,random_dot,60.02681998342572,
right,right,,9.0,1.0,19.0,1.0,,,,,,,,,82.62940669999807,,,,,,,,,82.61387130000003,83.8295478,84.6292876999978,84.61368469999798,84.61374629999773,84.6292876999978,84.6292876999978,84.6292876999978,86.23020539999925,right,1.0,198.40694559999972,,86.2311931999975,86.24456819999978,86.72993779999888,86.74512239999967,,,,,,,,,,,,,,,,,,,,,,,,,,sub-097,1.0,random_dot,60.02681998342572,
,,,,,,,,,,,,,,,,,,,,,,,,,,,,,,,,,,,,,,,,,,86.73015699999814,86.74512239999967,86.74512239999967,88.89656169999944,space,198.96341129999928,,,,,,,,,,,,,,,,,,,sub-097,1.0,random_dot,60.02681998342572,
,,,,,,,,,,,,,,,,,,,,,,,,,,,,,,,,,,,,,,,,,,,,,,,,,88.89664759999869,88.91099409999879,88.91099409999879,90.52837049999653,space,198.43290999999957,,,,,,,,,,,,sub-097,1.0,random_dot,60.02681998342572,
left,left,speed,,,,,0.0,0.0,0.0,1.0,0.0,0.0,0.0,0.0,97.86278209999728,,,,,,,,,97.85743939999884,97.95841209999708,98.76001519999772,98.7435297999982,98.74359639999966,98.76001519999772,98.76001519999772,98.76001519999772,99.61133919999702,left,1.0,197.6673652999998,,,,,,,,,,,,,,,,,,,,,90.53416799999832,90.57051199999842,90.57051199999842,97.84373649999908,space,204.0889955999992,,,,,sub-097,1.0,random_dot,60.02681998342572,
right,right,speed,,,,,0.0,0.0,0.0,1.0,0.0,1.0,1.0,1.0,99.62467679999828,,,,,,,,,99.6141241999976,99.97488209999938,100.77603839999938,100.75948579999748,100.75954689999708,100.77603839999938,100.77603839999938,100.77603839999938,101.64428419999967,right,1.0,197.6718906999995,,,,,,,,,,,,,,,,,,,,,,,,,,,,,,,sub-097,1.0,random_dot,60.02681998342572,
right,right,speed,,,,,0.0,0.0,0.0,1.0,1.0,0.0,2.0,1.0,101.65733980000005,,,,,,,,,101.64690919999704,102.00740739999674,102.8087682999976,102.79218889999902,102.79225359999693,102.8087682999976,102.8087682999976,102.8087682999976,105.64287089999924,right,1.0,199.63688270000057,,,,,,,,,,,,,,,,,,,,,,,,,,,,,,,sub-097,1.0,random_dot,60.02681998342572,
left,left,speed,,,,,0.0,0.0,0.0,1.0,1.0,1.0,3.0,0.0,105.65601819999938,,,,,,,,,105.64537469999776,106.45608829999765,107.25719989999924,107.2408851,107.2409461999996,107.25719989999924,107.25719989999924,107.25719989999924,109.25731459999952,left,1.0,198.80528989999948,,,,,,,,,,,,,,,,,,,,,,,,,,,,,,,sub-097,1.0,random_dot,60.02681998342572,
left,left,speed,,,,,0.0,0.0,0.0,1.0,2.0,0.0,4.0,0.0,109.27156479999758,,,,,,,,,109.25838870000008,109.62175639999988,110.42286669999883,110.40675329999794,110.40681779999797,110.42286669999883,110.42286669999883,110.42286669999883,113.42228239999896,left,1.0,199.8111738000007,,,,,,,,,,,,,,,,,,,,,,,,,,,,,,,sub-097,1.0,random_dot,60.02681998342572,
right,right,speed,,,,,0.0,0.0,0.0,1.0,2.0,1.0,5.0,1.0,113.43653029999768,,,,,,,,,113.42345139999816,114.63692389999778,115.43813969999974,115.42168449999735,115.42174609999712,115.43813969999974,115.43813969999974,115.43813969999974,116.2405340999976,right,1.0,197.6127947999994,,,,,,,,,,,,,,,,,,,,,,,,,,,,,,,sub-097,1.0,random_dot,60.02681998342572,
left,left,speed,,,,,0.0,0.0,0.0,1.0,3.0,0.0,6.0,0.0,116.25288619999992,,,,,,,,,116.24381359999823,116.35300329999882,117.1538959999998,117.13648019999891,117.13650979999876,117.1538959999998,117.1538959999998,117.1538959999998,118.3221769999982,left,1.0,197.98493939999756,,,,,,,,,,,,,,,,,,,,,,,,,,,,,,,sub-097,1.0,random_dot,60.02681998342572,
right,right,speed,,,,,0.0,0.0,0.0,1.0,3.0,1.0,7.0,1.0,118.3353982999979,,,,,,,,,118.32434479999938,118.43578329999946,119.23676409999824,119.21875999999976,119.2187810999967,119.23676409999824,119.23676409999824,119.23676409999824,120.7390908999987,right,1.0,198.3054107000025,,,,,,,,,,,,,,,,,,,,,,,,,,,,,,,sub-097,1.0,random_dot,60.02681998342572,
right,right,speed,,,,,0.0,0.0,0.0,1.0,4.0,0.0,8.0,1.0,120.75173089999952,,,,,,,,,120.74267829999737,121.95112259999952,122.75238159999935,122.73575779999736,122.73581089999789,122.75238159999935,122.75238159999935,122.75238159999935,124.33695739999894,right,1.0,198.3916758000014,,,,,,,,,,,,,,,,,,,,,,,,,,,,,,,sub-097,1.0,random_dot,60.02681998342572,
left,left,speed,,,,,0.0,0.0,0.0,1.0,4.0,1.0,9.0,0.0,124.35019059999831,,,,,,,,,124.3393862999983,125.55014729999677,126.35141559999828,126.33484859999952,126.33490999999776,126.35141559999828,126.35141559999828,126.35141559999828,127.5027313999999,left,1.0,197.9677389000026,,,,,,,,,,,,,,,,,,,,,,,,,,,,,,,sub-097,1.0,random_dot,60.02681998342572,
left,left,speed,,,,,0.0,0.0,0.0,1.0,5.0,0.0,10.0,0.0,127.5158933999992,,,,,,,,,127.50513519999733,128.31595989999914,129.11723589999747,129.10054639999726,129.1006067999988,129.11723589999747,129.11723589999747,129.11723589999747,132.36924329999965,left,1.0,200.05942810000124,,,,,,,,,,,,,,,,,,,,,,,,,,,,,,,sub-097,1.0,random_dot,60.02681998342572,
right,right,speed,,,,,0.0,0.0,0.0,1.0,5.0,1.0,11.0,1.0,132.381150899997,,,,,,,,,132.37292309999975,133.58091089999652,134.3819810999994,134.36588119999942,134.3659424999969,134.3819810999994,134.3819810999994,134.3819810999994,135.2179425999966,right,1.0,197.65021960000013,,,,,,,,,,,,,,,,,,,,,,,,,,,,,,,sub-097,1.0,random_dot,60.02681998342572,
left,left,speed,,,,,0.0,0.0,0.0,1.0,6.0,0.0,12.0,0.0,135.23031419999825,,,,,,,,,135.2212252999998,136.42998049999733,137.23116989999835,137.21383049999713,137.21386119999806,137.23116989999835,137.23116989999835,137.23116989999835,139.49747119999665,left,1.0,199.07817499999877,,,,,,,,,,,,,,,,,,,,,,,,,,,,,,,sub-097,1.0,random_dot,60.02681998342572,
right,right,speed,,,,,0.0,0.0,0.0,1.0,6.0,1.0,13.0,1.0,139.51179539999794,,,,,,,,,139.49831669999912,140.31066169999758,141.11139139999796,141.095334499998,141.09537549999732,141.11139139999796,141.11139139999796,141.11139139999796,141.8459496999967,right,1.0,197.53873289999683,,,,,,,,,,,,,,,,,,,,,,,,,,,,,,,sub-097,1.0,random_dot,60.02681998342572,
right,right,speed,,,,,0.0,0.0,0.0,1.0,7.0,0.0,14.0,1.0,141.86026629999833,,,,,,,,,141.84747669999706,143.05985399999918,143.86115339999742,143.845401999999,143.845463499998,143.86115339999742,143.86115339999742,143.86115339999742,145.12897429999794,right,1.0,198.08465779999824,,,,,,,,,,,,,,,,,,,,,,,,,,,,,,,sub-097,1.0,random_dot,60.02681998342572,
left,left,speed,,,,,0.0,0.0,0.0,1.0,7.0,1.0,15.0,0.0,145.14292699999714,,,,,,,,,145.13134389999686,146.34289739999804,147.14345859999958,147.12780959999873,147.12787279999975,147.14345859999958,147.14345859999958,147.14345859999958,149.01096069999767,left,1.0,198.67045439999856,,,,,,,,,,,,,,,,,,,,,,,,,,,,,,,sub-097,1.0,random_dot,60.02681998342572,
right,right,speed,,,,,0.0,0.0,0.0,1.0,8.0,0.0,16.0,1.0,149.02507269999842,,,,,,,,,149.0134984999968,149.12470419999954,149.92514649999794,149.9090178999977,149.90905779999957,149.92514649999794,149.92514649999794,149.92514649999794,151.9613322999976,right,1.0,198.85023050000015,,,,,,,,,,,,,,,,,,,,,,,,,,,,,,,sub-097,1.0,random_dot,60.02681998342572,
left,left,speed,,,,,0.0,0.0,0.0,1.0,8.0,1.0,17.0,0.0,151.97411199999988,,,,,,,,,151.96512619999703,152.77414579999822,153.57441779999863,153.5586166999965,153.55867109999963,153.57441779999863,153.57441779999863,153.57441779999863,157.24037429999953,left,1.0,200.48021570000128,,,,,,,,,,,,,,,,,,,,,,,,,,,,,,,sub-097,1.0,random_dot,60.02681998342572,
right,right,speed,,,,,0.0,0.0,0.0,1.0,9.0,0.0,18.0,1.0,157.2554111999998,,,,,,,,,157.2415809999984,158.45592709999983,159.2561367999988,159.2405519999993,159.24061319999964,159.2561367999988,159.2561367999988,159.2561367999988,160.70612159999655,right,1.0,198.2533497000004,,,,,,,,,,,,,,,,,,,,,,,,,,,,,,,sub-097,1.0,random_dot,60.02681998342572,
left,left,speed,,,,,0.0,0.0,0.0,1.0,9.0,1.0,19.0,0.0,160.72100849999697,,,,,,,,,160.7073124999988,160.82168519999686,161.62191639999946,161.60635889999685,161.6064222999994,161.62191639999946,161.62191639999946,161.62191639999946,163.25607109999692,left,1.0,198.444561100001,,,,,,,,,,,,,,,,,,,,,,,,,,,,,,,sub-097,1.0,random_dot,60.02681998342572,
right,right,speed,,,,,0.0,0.0,0.0,1.0,10.0,0.0,20.0,1.0,163.27057339999735,,,,,,,,,163.25795729999663,164.07078239999828,164.8709818999996,164.85528249999695,164.85538919999817,164.8709818999996,164.8709818999996,164.8709818999996,165.75516929999867,right,1.0,197.69043640000015,,,,,,,,,,,,,,,,,,,,,,,,,,,,,,,sub-097,1.0,random_dot,60.02681998342572,
left,left,speed,,,,,0.0,0.0,0.0,1.0,10.0,1.0,21.0,0.0,165.76973259999795,,,,,,,,,165.75681659999827,165.87002309999662,166.67053429999942,166.65488639999967,166.6549466999968,166.67053429999942,166.67053429999942,166.67053429999942,168.17147629999818,left,1.0,198.3127792999985,,,,,,,,,,,,,,,,,,,,,,,,,,,,,,,sub-097,1.0,random_dot,60.02681998342572,
right,right,speed,,,,,0.0,0.0,0.0,1.0,11.0,0.0,22.0,1.0,168.18573789999937,,,,,,,,,168.1734464000001,168.53584249999767,169.3351272,169.31979959999808,169.31983959999707,169.3351272,169.3351272,169.3351272,170.7210232999969,right,1.0,198.19062979999944,,,,,,,,,,,,,,,,,,,,,,,,,,,,,,,sub-097,1.0,random_dot,60.02681998342572,
left,left,speed,,,,,0.0,0.0,0.0,1.0,11.0,1.0,23.0,0.0,170.73495839999669,,,,,,,,,170.7233733999965,170.8351711999967,171.63560869999856,171.61991919999855,171.61997519999932,171.63560869999856,171.63560869999856,171.63560869999856,174.20287689999896,left,1.0,199.37586719999672,,,,,,,,,,,,,,,,,,,,,,,,,,,,,,,sub-097,1.0,random_dot,60.02681998342572,
right,right,speed,,,,,0.0,0.0,0.0,1.0,12.0,0.0,24.0,1.0,174.2171064999966,,,,,,,,,174.20519129999957,175.416952399999,176.21761949999927,176.20161729999745,176.2016728999988,176.21761949999927,176.21761949999927,176.21761949999927,177.71862939999846,right,1.0,198.3056452000019,,,,,,,,,,,,,,,,,,,,,,,,,,,,,,,sub-097,1.0,random_dot,60.02681998342572,
left,left,speed,,,,,0.0,0.0,0.0,1.0,12.0,1.0,25.0,0.0,177.7326043999965,,,,,,,,,177.7209778999968,178.53283729999748,179.33334009999817,179.31793819999805,179.31800159999693,179.33334009999817,179.33334009999817,179.33334009999817,180.56885989999864,left,1.0,198.04780609999943,,,,,,,,,,,,,,,,,,,,,,,,,,,,,,,sub-097,1.0,random_dot,60.02681998342572,
right,right,speed,,,,,0.0,0.0,0.0,1.0,13.0,0.0,26.0,1.0,180.5818580999985,,,,,,,,,180.5720457999996,180.9317860999981,181.73230999999944,181.7165232999978,181.7165724999977,181.73230999999944,181.73230999999944,181.73230999999944,183.01789669999928,right,1.0,198.10289489999923,,,,,,,,,,,,,,,,,,,,,,,,,,,,,,,sub-097,1.0,random_dot,60.02681998342572,
left,left,speed,,,,,0.0,0.0,0.0,1.0,13.0,1.0,27.0,0.0,183.0309481999975,,,,,,,,,183.02170179999663,184.2306875999966,185.03120339999805,185.01525239999685,185.015300199997,185.03120339999805,185.03120339999805,185.03120339999805,186.03409309999915,left,1.0,197.8203281999995,,,,,,,,,,,,,,,,,,,,,,,,,,,,,,,sub-097,1.0,random_dot,60.02681998342572,
left,left,speed,,,,,0.0,0.0,0.0,1.0,14.0,0.0,28.0,0.0,186.0468946999972,,,,,,,,,186.03695139999763,187.24660909999875,188.0472598999986,188.0315499999997,188.0316138999988,188.0472598999986,188.0472598999986,188.0472598999986,189.16501029999927,left,1.0,197.9350076999981,,,,,,,,,,,,,,,,,,,,,,,,,,,,,,,sub-097,1.0,random_dot,60.02681998342572,
right,right,speed,,,,,0.0,0.0,0.0,1.0,14.0,1.0,29.0,1.0,189.1790383999978,,,,,,,,,189.1671916999985,189.9792713999996,190.77965719999705,190.7640040999977,190.7640661999976,190.77965719999705,190.77965719999705,190.77965719999705,191.93178689999692,right,1.0,197.9567104000016,,,,,,,,,,,,,,,,,,,,,,,,,,,,,,,sub-097,1.0,random_dot,60.02681998342572,
right,right,speed,,,,,0.0,0.0,0.0,1.0,15.0,0.0,30.0,1.0,191.9450238999998,,,,,,,,,191.93475529999705,193.14478959999903,193.94460159999653,193.9291145999996,193.92916209999748,193.94460159999653,193.94460159999653,193.94460159999653,196.4787573999965,right,1.0,199.3385534000008,,,,,,,,,,,,,,,,,,,,,,,,,,,,,,,sub-097,1.0,random_dot,60.02681998342572,
left,left,speed,,,,,0.0,0.0,0.0,1.0,15.0,1.0,31.0,0.0,196.4932749,,,,,,,,,196.48012649999876,197.6934072999975,198.49382329999932,198.47832839999683,198.47839289999683,198.49382329999932,198.49382329999932,198.49382329999932,199.42748690000008,left,1.0,197.7509437000008,,,,,,,,,,,,,,,,,,,,,,,,,,,,,,,sub-097,1.0,random_dot,60.02681998342572,
right,right,speed,,,,,0.0,0.0,0.0,1.0,16.0,0.0,32.0,1.0,199.4423766999971,,,,,,,,,199.42892519999805,200.64191039999787,201.4424014999968,201.42721769999844,201.427278799998,201.4424014999968,201.4424014999968,201.4424014999968,202.17636649999983,right,1.0,197.55189640000023,,,,,,,,,,,,,,,,,,,,,,,,,,,,,,,sub-097,1.0,random_dot,60.02681998342572,
left,left,speed,,,,,0.0,0.0,0.0,1.0,16.0,1.0,33.0,0.0,202.1913956999997,,,,,,,,,202.17733859999865,202.54141249999884,203.3418243999986,203.324950299997,203.32496649999663,203.3418243999986,203.3418243999986,203.3418243999986,204.37779079999743,right,0.0,197.84264229999823,,,,,,,,,,,,,,,,,,,,,,,,,,,,,,,sub-097,1.0,random_dot,60.02681998342572,
right,right,speed,,,,,0.0,0.0,0.0,1.0,17.0,0.0,34.0,1.0,204.3912298999967,,,,,,,,,204.3806360999988,204.7410425999988,205.54146189999665,205.5254184999976,205.5254664999993,205.54146189999665,205.54146189999665,205.54146189999665,208.1092824999978,right,1.0,199.3770784000008,,,,,,,,,,,,,,,,,,,,,,,,,,,,,,,sub-097,1.0,random_dot,60.02681998342572,
left,left,speed,,,,,0.0,0.0,0.0,1.0,17.0,1.0,35.0,0.0,208.1235270999969,,,,,,,,,208.1116277000001,208.92305099999797,209.7233349999988,209.7072806999968,209.70732099999805,209.7233349999988,209.7233349999988,209.7233349999988,210.47501349999948,left,1.0,197.5567745000008,,,,,,,,,,,,,,,,,,,,,,,,,,,,,,,sub-097,1.0,random_dot,60.02681998342572,
left,left,speed,,,,,0.0,0.0,0.0,1.0,18.0,0.0,36.0,0.0,210.48932579999743,,,,,,,,,210.4770524999985,211.28926529999808,212.0898256999972,212.0739603999973,212.074022599998,212.0898256999972,212.0898256999972,212.0898256999972,213.0730829999993,left,1.0,197.79100639999888,,,,,,,,,,,,,,,,,,,,,,,,,,,,,,,sub-097,1.0,random_dot,60.02681998342572,
right,right,speed,,,,,0.0,0.0,0.0,1.0,18.0,1.0,37.0,1.0,213.08814169999823,,,,,,,,,213.0742653999987,214.2882393999971,215.088332299998,215.0722338999985,215.07227429999693,215.088332299998,215.088332299998,215.088332299998,215.8899828999965,right,1.0,197.6150187000021,,,,,,,,,,,,,,,,,,,,,,,,,,,,,,,sub-097,1.0,random_dot,60.02681998342572,
right,right,speed,,,,,0.0,0.0,0.0,1.0,19.0,0.0,38.0,1.0,215.90433829999893,,,,,,,,,215.8923735999997,216.00444659999997,216.8047305,216.78879459999732,216.78884839999955,216.8047305,216.8047305,216.8047305,217.82322569999812,right,1.0,197.8359061999981,,,,,,,,,,,,,,,,,,,,,,,,,,,,,,,sub-097,1.0,random_dot,60.02681998342572,
left,left,speed,,,,,0.0,0.0,0.0,1.0,19.0,1.0,39.0,0.0,217.83691259999975,,,,,,,,,217.82549759999893,219.0367886999993,219.83722809999745,219.821293099998,219.8213472999996,219.83722809999745,219.83722809999745,219.83722809999745,222.605215399999,right,0.0,199.5822426999985,,,,,,,,,,,,,,,,,,,,,,,,,,,,,,,sub-097,1.0,random_dot,60.02681998342572,
left,left,speed,,,,,0.0,0.0,0.0,1.0,20.0,0.0,40.0,0.0,222.61875329999748,,,,,,,,,222.6077746999981,223.4188181999998,224.21913039999708,224.20360019999865,224.2036849999968,224.21913039999708,224.21913039999708,224.21913039999708,224.9043754999984,left,1.0,197.49863040000128,,,,,,,,,,,,,,,,,,,,,,,,,,,,,,,sub-097,1.0,random_dot,60.02681998342572,
right,right,speed,,,,,0.0,0.0,0.0,1.0,20.0,1.0,41.0,1.0,224.91786429999772,,,,,,,,,224.90666439999768,225.2682008999982,226.0682643,226.0531287999984,226.05323849999692,226.0682643,226.0682643,226.0682643,226.76993189999848,right,1.0,197.5142020000021,,,,,,,,,,,,,,,,,,,,,,,,,,,,,,,sub-097,1.0,random_dot,60.02681998342572,
left,left,speed,,,,,0.0,0.0,0.0,1.0,21.0,0.0,42.0,0.0,226.7840905999983,,,,,,,,,226.7720819999995,227.58419839999988,228.3844653999986,228.36896649999835,228.3690295999986,228.3844653999986,228.3844653999986,228.3844653999986,230.05132909999884,left,1.0,198.48090819999925,,,,,,,,,,,,,,,,,,,,,,,,,,,,,,,sub-097,1.0,random_dot,60.02681998342572,
right,right,speed,,,,,0.0,0.0,0.0,1.0,21.0,1.0,43.0,1.0,230.06630659999792,,,,,,,,,230.05247219999728,230.1666157,230.96651109999948,230.9508063999965,230.9508470999972,230.96651109999948,230.96651109999948,230.96651109999948,235.00241829999868,right,1.0,200.85036519999997,,,,,,,,,,,,,,,,,,,,,,,,,,,,,,,sub-097,1.0,random_dot,60.02681998342572,
right,right,speed,,,,,0.0,0.0,0.0,1.0,22.0,0.0,44.0,1.0,235.01521409999987,,,,,,,,,235.00593649999792,235.1153147999976,235.9154800999968,235.8996322999992,235.89969319999727,235.9154800999968,235.9154800999968,235.9154800999968,238.66734779999751,right,1.0,199.5582443000021,,,,,,,,,,,,,,,,,,,,,,,,,,,,,,,sub-097,1.0,random_dot,60.02681998342572,
left,left,speed,,,,,0.0,0.0,0.0,1.0,22.0,1.0,45.0,0.0,238.6805578999993,,,,,,,,,238.670618199998,239.48065209999916,240.2809763999976,240.26504459999703,240.26509799999985,240.2809763999976,240.2809763999976,240.2809763999976,242.38218499999857,left,1.0,198.90816210000048,,,,,,,,,,,,,,,,,,,,,,,,,,,,,,,sub-097,1.0,random_dot,60.02681998342572,
right,right,speed,,,,,0.0,0.0,0.0,1.0,23.0,0.0,46.0,1.0,242.3959726999965,,,,,,,,,242.38465409999844,243.1961381999972,243.99642109999692,243.98088549999736,243.980947,243.99642109999692,243.99642109999692,243.99642109999692,244.78058059999967,right,1.0,197.59189419999893,,,,,,,,,,,,,,,,,,,,,,,,,,,,,,,sub-097,1.0,random_dot,60.02681998342572,
left,left,speed,,,,,0.0,0.0,0.0,1.0,23.0,1.0,47.0,0.0,244.79511479999928,,,,,,,,,244.78247009999905,244.8947300999971,245.6957072999976,245.68025399999897,245.6803160999989,245.6957072999976,245.6957072999976,245.6957072999976,247.963197699999,left,1.0,199.08275570000117,,,,,,,,,,,,,,,,,,,,,,,,,,,,,,,sub-097,1.0,random_dot,60.02681998342572,
left,left,speed,,,,,0.0,0.0,0.0,1.0,24.0,0.0,48.0,0.0,247.97743009999976,,,,,,,,,247.96513289999712,249.17743779999728,249.97766139999655,249.96124479999708,249.9612841999988,249.97766139999655,249.97766139999655,249.97766139999655,252.47829539999657,left,1.0,199.3108025000001,,,,,,,,,,,,,,,,,,,,,,,,,,,,,,,sub-097,1.0,random_dot,60.02681998342572,
right,right,speed,,,,,0.0,0.0,0.0,1.0,24.0,1.0,49.0,1.0,252.49267659999896,,,,,,,,,252.48004749999745,253.29276649999883,254.0929331999978,254.0766520999969,254.07669199999876,254.0929331999978,254.0929331999978,254.0929331999978,256.7598732999977,right,1.0,199.47238650000145,,,,,,,,,,,,,,,,,,,,,,,,,,,,,,,sub-097,1.0,random_dot,60.02681998342572,
left,left,speed,,,,,0.0,0.0,0.0,1.0,25.0,0.0,50.0,0.0,256.77450209999733,,,,,,,,,256.76145989999713,257.1249254999966,257.9252162999983,257.9091060999999,257.90915959999984,257.9252162999983,257.9252162999983,257.9252162999983,258.7610105999993,left,1.0,197.6406678000021,,,,,,,,,,,,,,,,,,,,,,,,,,,,,,,sub-097,1.0,random_dot,60.02681998342572,
right,right,speed,,,,,0.0,0.0,0.0,1.0,25.0,1.0,51.0,1.0,258.77446019999843,,,,,,,,,258.7641687999967,259.12431359999755,259.9241766999985,259.9077042999997,259.90774709999823,259.9241766999985,259.9241766999985,259.9241766999985,260.5922943999976,right,1.0,197.4789392000021,,,,,,,,,,,,,,,,,,,,,,,,,,,,,,,sub-097,1.0,random_dot,60.02681998342572,
right,right,speed,,,,,0.0,0.0,0.0,1.0,26.0,0.0,52.0,1.0,260.60679219999656,,,,,,,,,260.5941539999985,260.7071195999997,261.50740589999987,261.49185509999734,261.4919091999982,261.50740589999987,261.50740589999987,261.50740589999987,262.5088877999988,right,1.0,197.8181878999967,,,,,,,,,,,,,,,,,,,,,,,,,,,,,,,sub-097,1.0,random_dot,60.02681998342572,
left,left,speed,,,,,0.0,0.0,0.0,1.0,26.0,1.0,53.0,0.0,262.5228595999979,,,,,,,,,262.5110835999985,262.6230155999983,263.4234115,263.4075284999999,263.4075722999987,263.4234115,263.4234115,263.4234115,264.3254500999974,left,1.0,197.7065029999976,,,,,,,,,,,,,,,,,,,,,,,,,,,,,,,sub-097,1.0,random_dot,60.02681998342572,
right,right,speed,,,,,0.0,0.0,0.0,1.0,27.0,0.0,54.0,1.0,264.3392142999983,,,,,,,,,264.3279892999999,264.6889311999985,265.48935229999915,265.47351999999955,265.47358859999804,265.48935229999915,265.48935229999915,265.48935229999915,266.1584157999969,right,1.0,197.4870336999993,,,,,,,,,,,,,,,,,,,,,,,,,,,,,,,sub-097,1.0,random_dot,60.02681998342572,
left,left,speed,,,,,0.0,0.0,0.0,1.0,27.0,1.0,55.0,0.0,266.1718492999971,,,,,,,,,266.16086919999725,266.97179959999994,267.7722814999979,267.75639619999856,267.7564500999979,267.7722814999979,267.7722814999979,267.7722814999979,268.9239527999998,right,0.0,197.9551317999976,,,,,,,,,,,,,,,,,,,,,,,,,,,,,,,sub-097,1.0,random_dot,60.02681998342572,
right,right,speed,,,,,0.0,0.0,0.0,1.0,28.0,0.0,56.0,1.0,268.9377526999997,,,,,,,,,268.9267861999979,269.2876308999985,270.0879599,270.0721263999985,270.0721743999966,270.0879599,270.0879599,270.0879599,271.05702969999766,right,1.0,197.77666730000053,,,,,,,,,,,,,,,,,,,,,,,,,,,,,,,sub-097,1.0,random_dot,60.02681998342572,
left,left,speed,,,,,0.0,0.0,0.0,1.0,28.0,1.0,57.0,0.0,271.0706040999976,,,,,,,,,271.0598468999997,271.1705484999984,271.9704564999993,271.95375239999703,271.95377689999805,271.9704564999993,271.9704564999993,271.9704564999993,272.6719927999984,left,1.0,197.5119790000026,,,,,,,,,,,,,,,,,,,,,,,,,,,,,,,sub-097,1.0,random_dot,60.02681998342572,
left,left,speed,,,,,0.0,0.0,0.0,1.0,29.0,0.0,58.0,0.0,272.6864579999965,,,,,,,,,272.6741461999991,273.8862476999966,274.6866340999986,274.6708858999991,274.6709364999988,274.6866340999986,274.6866340999986,274.6866340999986,275.2879226999976,right,0.0,197.4115738999972,,,,,,,,,,,,,,,,,,,,,,,,,,,,,,,sub-097,1.0,random_dot,60.02681998342572,
right,right,speed,,,,,0.0,0.0,0.0,1.0,29.0,1.0,59.0,1.0,275.30235959999845,,,,,,,,,275.28985349999857,276.102505699997,276.9022019999975,276.88646829999925,276.8865072999979,276.9022019999975,276.9022019999975,276.9022019999975,277.8534184999989,right,1.0,197.7590502999992,,,,,,,,,,,,,,,,,,,,,,,,,,,,,,,sub-097,1.0,random_dot,60.02681998342572,
,,speed,,,,,0.0,0.0,0.0,1.0,,,,,,,,,,,,,,,,,,,,,,,,,,,,,,,,,,,,,,,,,,,,,,,,,,,,,,,,sub-097,1.0,random_dot,60.02681998342572,
right,right,accuracy,,,,,0.0,1.0,1.0,0.0,0.0,0.0,0.0,1.0,288.5722188,,,,,,,,,288.5686109999988,288.9146198999988,289.7153756999978,289.6997625999975,289.6998282999993,289.7153756999978,289.7153756999978,289.7153756999978,292.06629669999893,right,1.0,199.16714800000045,,,,,,,,,,,,,,,,,,,,,277.8550534999995,277.8726586999983,277.8726586999983,288.5510049999976,space,207.48206779999964,,,,,sub-097,1.0,random_dot,60.02681998342572,
left,left,accuracy,,,,,0.0,1.0,1.0,0.0,0.0,1.0,1.0,0.0,292.08043369999723,,,,,,,,,292.0688170999965,292.43076539999674,293.2307295999999,293.21466809999765,293.2147112999992,293.2307295999999,293.2307295999999,293.2307295999999,294.8653087999992,left,1.0,198.44172439999969,,,,,,,,,,,,,,,,,,,,,,,,,,,,,,,sub-097,1.0,random_dot,60.02681998342572,
left,left,accuracy,,,,,0.0,1.0,1.0,0.0,1.0,0.0,2.0,0.0,294.8792061999993,,,,,,,,,294.8674863999986,296.0796950999975,296.87972629999786,296.86469119999674,296.86477909999667,296.87972629999786,296.87972629999786,296.87972629999786,300.96268509999936,left,1.0,200.8909410999986,,,,,,,,,,,,,,,,,,,,,,,,,,,,,,,sub-097,1.0,random_dot,60.02681998342572,
right,right,accuracy,,,,,0.0,1.0,1.0,0.0,1.0,1.0,3.0,1.0,300.9775375999998,,,,,,,,,300.9638625999978,301.0779775999981,301.8782504999981,301.8629559000001,301.86301759999697,301.8782504999981,301.8782504999981,301.8782504999981,302.6628492999989,right,1.0,197.59338249999928,,,,,,,,,,,,,,,,,,,,,,,,,,,,,,,sub-097,1.0,random_dot,60.02681998342572,
left,left,accuracy,,,,,0.0,1.0,1.0,0.0,2.0,0.0,4.0,0.0,302.67717769999945,,,,,,,,,302.66500469999664,303.477121099997,304.277698599999,304.2619322999999,304.26199369999813,304.277698599999,304.277698599999,304.277698599999,306.67849939999724,left,1.0,199.20571410000048,,,,,,,,,,,,,,,,,,,,,,,,,,,,,,,sub-097,1.0,random_dot,60.02681998342572,
right,right,accuracy,,,,,0.0,1.0,1.0,0.0,2.0,1.0,5.0,1.0,306.69261749999714,,,,,,,,,306.68084469999667,307.8924942999984,308.6926508999968,308.67702969999664,308.67708479999783,308.6926508999968,308.6926508999968,308.6926508999968,310.4604987999992,right,1.0,198.58349909999745,,,,,,,,,,,,,,,,,,,,,,,,,,,,,,,sub-097,1.0,random_dot,60.02681998342572,
left,left,accuracy,,,,,0.0,1.0,1.0,0.0,3.0,0.0,6.0,0.0,310.47470879999673,,,,,,,,,310.46266079999987,311.2748743999982,312.0750459999981,312.0589086999971,312.0589493999978,312.0750459999981,312.0750459999981,312.0750459999981,312.8100035999996,left,1.0,197.53909460000068,,,,,,,,,,,,,,,,,,,,,,,,,,,,,,,sub-097,1.0,random_dot,60.02681998342572,
right,right,accuracy,,,,,0.0,1.0,1.0,0.0,3.0,1.0,7.0,1.0,312.8239832,,,,,,,,,312.8124444999994,313.6238349999985,314.4243257999988,314.40860039999825,314.4086551999972,314.4243257999988,314.4243257999988,314.4243257999988,316.72492149999744,right,1.0,199.11302870000145,,,,,,,,,,,,,,,,,,,,,,,,,,,,,,,sub-097,1.0,random_dot,60.02681998342572,
right,right,accuracy,,,,,0.0,1.0,1.0,0.0,4.0,0.0,8.0,1.0,316.73935849999907,,,,,,,,,316.72677359999943,317.9390362999984,318.7397647999969,318.7242559999977,318.7243165,318.7397647999969,318.7397647999969,318.7397647999969,320.0729597999998,left,0.0,198.1366315999985,,,,,,,,,,,,,,,,,,,,,,,,,,,,,,,sub-097,1.0,random_dot,60.02681998342572,
left,left,accuracy,,,,,0.0,1.0,1.0,0.0,4.0,1.0,9.0,0.0,320.0880992999992,,,,,,,,,320.0738868999979,320.8883795999973,321.688704199998,321.6731876999984,321.6732510999973,321.688704199998,321.688704199998,321.688704199998,323.78883739999947,left,1.0,198.9138174,,,,,,,,,,,,,,,,,,,,,,,,,,,,,,,sub-097,1.0,random_dot,60.02681998342572,
right,right,accuracy,,,,,0.0,1.0,1.0,0.0,5.0,0.0,10.0,1.0,323.80382800000007,,,,,,,,,323.7900923999987,325.0037278999989,325.8040794999979,325.7881230999992,325.7881841999988,325.8040794999979,325.8040794999979,325.8040794999979,327.1887387999996,right,1.0,198.19569200000117,,,,,,,,,,,,,,,,,,,,,,,,,,,,,,,sub-097,1.0,random_dot,60.02681998342572,
left,left,accuracy,,,,,0.0,1.0,1.0,0.0,5.0,1.0,11.0,0.0,327.20283039999777,,,,,,,,,327.1907700999982,328.40282429999934,329.202672899999,329.1863103999967,329.186340799999,329.202672899999,329.202672899999,329.202672899999,330.00545319999947,left,1.0,197.6179368999983,,,,,,,,,,,,,,,,,,,,,,,,,,,,,,,sub-097,1.0,random_dot,60.02681998342572,
left,left,accuracy,,,,,0.0,1.0,1.0,0.0,6.0,0.0,12.0,0.0,330.01868529999774,,,,,,,,,330.0081992999985,331.2185060999982,332.0186443999992,332.00239259999944,332.0024282999984,332.0186443999992,332.0186443999992,332.0186443999992,334.03643229999943,left,1.0,198.8288840999994,,,,,,,,,,,,,,,,,,,,,,,,,,,,,,,sub-097,1.0,random_dot,60.02681998342572,
right,right,accuracy,,,,,0.0,1.0,1.0,0.0,6.0,1.0,13.0,1.0,334.05069159999766,,,,,,,,,334.038796599998,334.4007998999987,335.2010097999992,335.18466179999814,335.1846958999995,335.2010097999992,335.2010097999992,335.2010097999992,336.0364884999981,right,1.0,197.65266150000025,,,,,,,,,,,,,,,,,,,,,,,,,,,,,,,sub-097,1.0,random_dot,60.02681998342572,
left,left,accuracy,,,,,0.0,1.0,1.0,0.0,7.0,0.0,14.0,0.0,336.05030869999973,,,,,,,,,336.03904839999814,337.2499214999989,338.05028909999965,338.0344195999969,338.0344738999993,338.05028909999965,338.05028909999965,338.05028909999965,340.1004394999982,left,1.0,198.8674084000013,,,,,,,,,,,,,,,,,,,,,,,,,,,,,,,sub-097,1.0,random_dot,60.02681998342572,
right,right,accuracy,,,,,0.0,1.0,1.0,0.0,7.0,1.0,15.0,1.0,340.1154078,,,,,,,,,340.10183009999673,341.3153012999974,342.11550499999794,342.0994808999967,342.099521199998,342.11550499999794,342.11550499999794,342.11550499999794,343.93368009999904,right,1.0,198.62456329999983,,,,,,,,,,,,,,,,,,,,,,,,,,,,,,,sub-097,1.0,random_dot,60.02681998342572,
right,right,accuracy,,,,,0.0,1.0,1.0,0.0,8.0,0.0,16.0,1.0,343.9475874999989,,,,,,,,,343.9360342999971,345.1470373999982,345.9474446999993,345.9323743999994,345.9324409000001,345.9474446999993,345.9474446999993,345.9474446999993,347.93364069999734,right,1.0,198.7975441000017,,,,,,,,,,,,,,,,,,,,,,,,,,,,,,,sub-097,1.0,random_dot,60.02681998342572,
left,left,accuracy,,,,,0.0,1.0,1.0,0.0,8.0,1.0,17.0,0.0,347.9465709999968,,,,,,,,,347.93676869999763,348.04673489999914,348.8466683999977,348.8302749999966,348.8303025999994,348.8466683999977,348.8466683999977,348.8466683999977,353.1475763999988,left,1.0,201.11632920000196,,,,,,,,,,,,,,,,,,,,,,,,,,,,,,,sub-097,1.0,random_dot,60.02681998342572,
right,right,accuracy,,,,,0.0,1.0,1.0,0.0,9.0,0.0,18.0,1.0,353.16134189999866,,,,,,,,,353.1500657999968,353.5115621999976,354.3116932999983,354.2956205999981,354.2956607999986,354.3116932999983,354.3116932999983,354.3116932999983,355.9147508999995,right,1.0,198.41366529999868,,,,,,,,,,,,,,,,,,,,,,,,,,,,,,,sub-097,1.0,random_dot,60.02681998342572,
left,left,accuracy,,,,,0.0,1.0,1.0,0.0,9.0,1.0,19.0,0.0,355.92763569999806,,,,,,,,,355.91830889999983,356.72717869999906,357.5276266000001,357.5119449999984,357.51200739999695,357.5276266000001,357.5276266000001,357.5276266000001,361.3447526999989,left,1.0,200.62405800000124,,,,,,,,,,,,,,,,,,,,,,,,,,,,,,,sub-097,1.0,random_dot,60.02681998342572,
left,left,accuracy,,,,,0.0,1.0,1.0,0.0,10.0,0.0,20.0,0.0,361.3589057999998,,,,,,,,,361.3471653999986,361.45883989999857,362.2593858,362.2436469999993,362.24370199999976,362.2593858,362.2593858,362.2593858,364.3270485999965,left,1.0,198.8732490999973,,,,,,,,,,,,,,,,,,,,,,,,,,,,,,,sub-097,1.0,random_dot,60.02681998342572,
right,right,accuracy,,,,,0.0,1.0,1.0,0.0,10.0,1.0,21.0,1.0,364.3412391999991,,,,,,,,,364.3291668999991,364.4415509999999,365.2417898999993,365.2263140999967,365.2263740999988,365.2417898999993,365.2417898999993,365.2417898999993,370.4596845999986,left,0.0,202.03215230000205,,,,,,370.2400066999981,,,,,,,,,,,,,,,,,,,,,,,,,sub-097,1.0,random_dot,60.02681998342572,
right,right,accuracy,,,,,0.0,1.0,1.0,0.0,11.0,0.0,22.0,1.0,370.4728533999987,,,,,,,,,370.4628288999993,370.5727176999972,371.3733366999986,371.3576248999998,371.3576787999991,371.3733366999986,371.3733366999986,371.3733366999986,373.0579413999985,right,1.0,198.49953509999975,,,,,,,,,,,,,,,,,,,,,,,,,,,,,,,sub-097,1.0,random_dot,60.02681998342572,
left,left,accuracy,,,,,0.0,1.0,1.0,0.0,11.0,1.0,23.0,0.0,373.0718717999989,,,,,,,,,373.0602863999993,373.4219404999967,374.2223292999988,374.2068978999996,374.2069602999982,374.2223292999988,374.2223292999988,374.2223292999988,376.9399543999971,left,1.0,199.52610809999896,,,,,,,,,,,,,,,,,,,,,,,,,,,,,,,sub-097,1.0,random_dot,60.02681998342572,
left,left,accuracy,,,,,0.0,1.0,1.0,0.0,12.0,0.0,24.0,0.0,376.9541081999996,,,,,,,,,376.9423534999987,377.75395299999946,378.5540250999984,378.5377348999973,378.5377680999991,378.5540250999984,378.5540250999984,378.5540250999984,380.9890310999981,left,1.0,199.2442041999966,,,,,,,,,,,,,,,,,,,,,,,,,,,,,,,sub-097,1.0,random_dot,60.02681998342572,
right,right,accuracy,,,,,0.0,1.0,1.0,0.0,12.0,1.0,25.0,1.0,381.0025096999998,,,,,,,,,380.991887199998,381.1026914999966,381.9027986000001,381.8858849999997,381.8859006999992,381.9027986000001,381.9027986000001,381.9027986000001,382.7377534999978,right,1.0,197.6506714999996,,,,,,,,,,,,,,,,,,,,,,,,,,,,,,,sub-097,1.0,random_dot,60.02681998342572,
left,left,accuracy,,,,,0.0,1.0,1.0,0.0,13.0,0.0,26.0,0.0,382.7519924999978,,,,,,,,,382.7395913999972,383.1023083999971,383.9027152999988,383.88688719999845,383.8869388999992,383.9027152999988,383.9027152999988,383.9027152999988,385.3700734999984,left,1.0,198.28012129999843,,,,,,,,,,,,,,,,,,,,,,,,,,,,,,,sub-097,1.0,random_dot,60.02681998342572,
right,right,accuracy,,,,,0.0,1.0,1.0,0.0,13.0,1.0,27.0,1.0,385.3845242999996,,,,,,,,,385.372079599998,386.1845992999988,386.98515739999857,386.9694658999979,386.9695204999989,386.98515739999857,386.98515739999857,386.98515739999857,387.7364879999986,right,1.0,197.56281469999885,,,,,,,,,,,,,,,,,,,,,,,,,,,,,,,sub-097,1.0,random_dot,60.02681998342572,
right,right,accuracy,,,,,0.0,1.0,1.0,0.0,14.0,0.0,28.0,1.0,387.7505491999982,,,,,,,,,387.738671799998,387.8510075999984,388.65073369999664,388.6348184999988,388.6348581999992,388.65073369999664,388.65073369999664,388.65073369999664,391.1688660999971,right,1.0,199.3263969999971,,,,,,,,,,,,,,,,,,,,,,,,,,,,,,,sub-097,1.0,random_dot,60.02681998342572,
left,left,accuracy,,,,,0.0,1.0,1.0,0.0,14.0,1.0,29.0,0.0,391.18300819999786,,,,,,,,,391.1712066,391.5333258999999,392.3335765999982,392.3177327999984,392.3178096999982,392.3335765999982,392.3335765999982,392.3335765999982,395.1851166999986,left,1.0,199.65901250000024,,,,,,,,,,,,,,,,,,,,,,,,,,,,,,,sub-097,1.0,random_dot,60.02681998342572,
left,left,accuracy,,,,,0.0,1.0,1.0,0.0,15.0,0.0,30.0,0.0,395.1983376999997,,,,,,,,,395.1883678999984,396.3983401999976,397.1985066999987,397.182892599998,397.1829530999967,397.1985066999987,397.1985066999987,397.1985066999987,399.9337476999972,left,1.0,199.53806170000095,,,,,,,,,,,,,,,,,,,,,,,,,,,,,,,sub-097,1.0,random_dot,60.02681998342572,
right,right,accuracy,,,,,0.0,1.0,1.0,0.0,15.0,1.0,31.0,1.0,399.9472119999991,,,,,,,,,399.9368696999991,401.1462532999976,401.9470382999971,401.93126739999934,401.931357999998,401.9470382999971,401.9470382999971,401.9470382999971,404.2487523999989,right,1.0,199.11365639999715,,,,,,,,,,,,,,,,,,,,,,,,,,,,,,,sub-097,1.0,random_dot,60.02681998342572,
right,right,accuracy,,,,,0.0,1.0,1.0,0.0,16.0,0.0,32.0,1.0,404.2622598999988,,,,,,,,,404.2516680999979,404.36232179999934,405.16266879999966,405.1470844999967,405.1471454999992,405.16266879999966,405.16266879999966,405.16266879999966,407.48065759999736,right,1.0,199.12932849999925,,,,,,,,,,,,,,,,,,,,,,,,,,,,,,,sub-097,1.0,random_dot,60.02681998342572,
left,left,accuracy,,,,,0.0,1.0,1.0,0.0,16.0,1.0,33.0,0.0,407.4945211999984,,,,,,,,,407.482914799999,408.29475009999805,409.0948871999972,409.0784484999968,409.07849279999937,409.0948871999972,409.0948871999972,409.0948871999972,411.1464670999994,left,1.0,198.85666290000157,,,,,,,,,,,,,,,,,,,,,,,,,,,,,,,sub-097,1.0,random_dot,60.02681998342572,
right,right,accuracy,,,,,0.0,1.0,1.0,0.0,17.0,0.0,34.0,1.0,411.1602535999991,,,,,,,,,411.1492444999967,411.26010769999993,412.060487499999,412.0450019999989,412.0450643999975,412.060487499999,412.060487499999,412.060487499999,415.5289384999997,right,1.0,200.2731090999987,,,,,,,,,,,,,,,,,,,,,,,,,,,,,,,sub-097,1.0,random_dot,60.02681998342572,
left,left,accuracy,,,,,0.0,1.0,1.0,0.0,17.0,1.0,35.0,0.0,415.5421075999984,,,,,,,,,415.5322453999979,415.6422437000001,416.4426507999997,416.4268004999976,416.4268538999968,416.4426507999997,416.4426507999997,416.4426507999997,417.6935320999983,left,1.0,198.0576678999969,,,,,,,,,,,,,,,,,,,,,,,,,,,,,,,sub-097,1.0,random_dot,60.02681998342572,
right,right,accuracy,,,,,0.0,1.0,1.0,0.0,18.0,0.0,36.0,1.0,417.7078870999976,,,,,,,,,417.6957197999982,418.9078845999975,419.7082120999985,419.692243999998,419.69231659999787,419.7082120999985,419.7082120999985,419.7082120999985,420.7105530999979,right,1.0,197.80990139999997,,,,,,,,,,,,,,,,,,,,,,,,,,,,,,,sub-097,1.0,random_dot,60.02681998342572,
left,left,accuracy,,,,,0.0,1.0,1.0,0.0,18.0,1.0,37.0,0.0,420.7237447999978,,,,,,,,,420.7134177999978,421.92344879999655,422.723887199998,422.7082464999985,422.708295299999,422.723887199998,422.723887199998,422.723887199998,423.7746786999997,left,1.0,197.8673318000001,,,,,,,,,,,,,,,,,,,,,,,,,,,,,,,sub-097,1.0,random_dot,60.02681998342572,
left,left,accuracy,,,,,0.0,1.0,1.0,0.0,19.0,0.0,38.0,0.0,423.7894237,,,,,,,,,423.7760929999968,424.588891899999,425.38959579999937,425.3739522999968,425.3740058999974,425.38959579999937,425.38959579999937,425.38959579999937,426.69107749999966,left,1.0,198.1041826000001,,,,,,,,,,,,,,,,,,,,,,,,,,,,,,,sub-097,1.0,random_dot,60.02681998342572,
right,right,accuracy,,,,,0.0,1.0,1.0,0.0,19.0,1.0,39.0,1.0,426.7051265999981,,,,,,,,,426.69329429999925,427.9050951999998,428.7051071999995,428.6892592999975,428.6893138999985,428.7051071999995,428.7051071999995,428.7051071999995,429.8238921999982,right,1.0,197.9368168000001,,,,,,,,,,,,,,,,,,,,,,,,,,,,,,,sub-097,1.0,random_dot,60.02681998342572,
right,right,accuracy,,,,,0.0,1.0,1.0,0.0,20.0,0.0,40.0,1.0,429.8375567999974,,,,,,,,,429.8265784999967,429.9376497999983,430.7377349999988,430.72141289999854,430.72144469999694,430.7377349999988,430.7377349999988,430.7377349999988,433.5557472,right,1.0,199.6322403999984,,,,,,,,,,,,,,,,,,,,,,,,,,,,,,,sub-097,1.0,random_dot,60.02681998342572,
left,left,accuracy,,,,,0.0,1.0,1.0,0.0,20.0,1.0,41.0,0.0,433.569810099998,,,,,,,,,433.5580734999967,434.3696031999971,435.1701940999992,435.15458229999786,435.1546426999994,435.1701940999992,435.1701940999992,435.1701940999992,438.305280499997,left,1.0,199.94049480000103,,,,,,,,,,,,,,,,,,,,,,,,,,,,,,,sub-097,1.0,random_dot,60.02681998342572,
right,right,accuracy,,,,,0.0,1.0,1.0,0.0,21.0,0.0,42.0,1.0,438.3183847,,,,,,,,,438.30896169999687,439.11763769999743,439.9181024999998,439.9019926000001,439.9020108999976,439.9181024999998,439.9181024999998,439.9181024999998,441.5689719999973,right,1.0,198.4608217999994,,,,,,,,,,,,,,,,,,,,,,,,,,,,,,,sub-097,1.0,random_dot,60.02681998342572,
left,left,accuracy,,,,,0.0,1.0,1.0,0.0,21.0,1.0,43.0,0.0,441.5837154000001,,,,,,,,,441.5708631999987,442.78335989999687,443.5840829999979,443.5678587999973,443.5679010999993,443.5840829999979,443.5840829999979,443.5840829999979,445.5193091000001,left,1.0,198.74002969999856,,,,,,,,,,,,,,,,,,,,,,,,,,,,,,,sub-097,1.0,random_dot,60.02681998342572,
right,right,accuracy,,,,,0.0,1.0,1.0,0.0,22.0,0.0,44.0,1.0,445.53284249999706,,,,,,,,,445.522226699999,445.8826590999997,446.6830624999966,446.6674637999968,446.6675163999971,446.6830624999966,446.6830624999966,446.6830624999966,450.3498448999999,right,1.0,200.47082880000016,,,,,,,,,,,,,,,,,,,,,,,,,,,,,,,sub-097,1.0,random_dot,60.02681998342572,
left,left,accuracy,,,,,0.0,1.0,1.0,0.0,22.0,1.0,45.0,0.0,450.36437769999975,,,,,,,,,450.3514496999997,450.7143702999965,451.5150461999983,451.4994262,451.499485999997,451.5150461999983,451.5150461999983,451.5150461999983,452.9496416999973,left,1.0,198.250154100002,,,,,,,,,,,,,,,,,,,,,,,,,,,,,,,sub-097,1.0,random_dot,60.02681998342572,
right,right,accuracy,,,,,0.0,1.0,1.0,0.0,23.0,0.0,46.0,1.0,452.963656099997,,,,,,,,,452.9516352999999,454.16330769999695,454.96389929999714,454.9478649999983,454.9479121999975,454.96389929999714,454.96389929999714,454.96389929999714,456.0496098999975,right,1.0,197.89406579999925,,,,,,,,,,,,,,,,,,,,,,,,,,,,,,,sub-097,1.0,random_dot,60.02681998342572,
left,left,accuracy,,,,,0.0,1.0,1.0,0.0,23.0,1.0,47.0,0.0,456.0623345999993,,,,,,,,,456.0523459999968,456.412950599999,457.2128852999994,457.19759709999926,457.1976562999989,457.2128852999994,457.2128852999994,457.2128852999994,459.5974037999986,left,1.0,199.1910346000004,,,,,,,,,,,,,,,,,,,,,,,,,,,,,,,sub-097,1.0,random_dot,60.02681998342572,
left,left,accuracy,,,,,0.0,1.0,1.0,0.0,24.0,0.0,48.0,0.0,459.6115617999967,,,,,,,,,459.5997290999985,460.8113259999991,461.611796899997,461.59606509999867,461.59612039999774,461.611796899997,461.611796899997,461.611796899997,463.09667369999806,left,1.0,198.29906089999716,,,,,,,,,,,,,,,,,,,,,,,,,,,,,,,sub-097,1.0,random_dot,60.02681998342572,
right,right,accuracy,,,,,0.0,1.0,1.0,0.0,24.0,1.0,49.0,1.0,463.1106070999994,,,,,,,,,463.0991412999974,463.9105862999968,464.7110990999972,464.6953687999994,464.6954291999973,464.7110990999972,464.7110990999972,464.7110990999972,468.3947214,right,1.0,200.49357569999847,,,,,,,,,,,,,,,,,,,,,,,,,,,,,,,sub-097,1.0,random_dot,60.02681998342572,
left,left,accuracy,,,,,0.0,1.0,1.0,0.0,25.0,0.0,50.0,0.0,468.4088522999991,,,,,,,,,468.3968650999996,468.5085703999976,469.3093550999984,469.2929063999982,469.2929589999985,469.3093550999984,469.3093550999984,469.3093550999984,470.177464299999,left,1.0,197.68227750000003,,,,,,,,,,,,,,,,,,,,,,,,,,,,,,,sub-097,1.0,random_dot,60.02681998342572,
right,right,accuracy,,,,,0.0,1.0,1.0,0.0,25.0,1.0,51.0,1.0,470.19159819999913,,,,,,,,,470.1797879999976,471.3916256999983,472.19196119999833,472.17619529999865,472.17624969999815,472.19196119999833,472.19196119999833,472.19196119999833,474.1430411000001,right,1.0,198.75516609999977,,,,,,,,,,,,,,,,,,,,,,,,,,,,,,,sub-097,1.0,random_dot,60.02681998342572,
right,right,accuracy,,,,,0.0,1.0,1.0,0.0,26.0,0.0,52.0,1.0,474.1570694999973,,,,,,,,,474.145424899998,475.3570002999986,476.1574243999967,476.1419003999981,476.1419597999993,476.1574243999967,476.1574243999967,476.1574243999967,478.6741672999997,right,1.0,199.33314260000043,,,,,,,,,,,,,,,,,,,,,,,,,,,,,,,sub-097,1.0,random_dot,60.02681998342572,
left,left,accuracy,,,,,0.0,1.0,1.0,0.0,26.0,1.0,53.0,0.0,478.6887934999977,,,,,,,,,478.6757969999999,478.7891661999965,479.589393299997,479.5738595999974,479.57391279999865,479.589393299997,479.589393299997,479.589393299997,481.4908989999967,left,1.0,198.71861570000328,,,,,,,,,,,,,,,,,,,,,,,,,,,,,,,sub-097,1.0,random_dot,60.02681998342572,
right,right,accuracy,,,,,0.0,1.0,1.0,0.0,27.0,0.0,54.0,1.0,481.5046101999978,,,,,,,,,481.49185919999945,481.8543028999993,482.65498919999663,482.6396201999996,482.63968269999896,482.65498919999663,482.65498919999663,482.65498919999663,485.6889300999974,right,1.0,199.85012379999895,,,,,,,,,,,,,,,,,,,,,,,,,,,,,,,sub-097,1.0,random_dot,60.02681998342572,
left,left,accuracy,,,,,0.0,1.0,1.0,0.0,27.0,1.0,55.0,0.0,485.7032928999979,,,,,,,,,485.6908140999985,485.8037962999988,486.60384519999934,486.5881694999989,486.5882401999989,486.60384519999934,486.60384519999934,486.60384519999934,489.1721906999992,left,1.0,199.3746914000003,,,,,,,,,,,,,,,,,,,,,,,,,,,,,,,sub-097,1.0,random_dot,60.02681998342572,
right,right,accuracy,,,,,0.0,1.0,1.0,0.0,28.0,0.0,56.0,1.0,489.1857542999969,,,,,,,,,489.1751020999982,490.3854113999987,491.1860310999982,491.17027830000006,491.170338699998,491.1860310999982,491.1860310999982,491.1860310999982,493.6221542999992,right,1.0,199.25295360000015,,,,,,,,,,,,,,,,,,,,,,,,,,,,,,,sub-097,1.0,random_dot,60.02681998342572,
left,left,accuracy,,,,,0.0,1.0,1.0,0.0,28.0,1.0,57.0,0.0,493.6344719999979,,,,,,,,,493.6256890999976,493.73452749999706,494.5345821999981,494.5196776999983,494.5197336999991,494.5345821999981,494.5345821999981,494.5345821999981,496.519269299999,left,1.0,198.79241950000144,,,,,,,,,,,,,,,,,,,,,,,,,,,,,,,sub-097,1.0,random_dot,60.02681998342572,
right,right,accuracy,,,,,0.0,1.0,1.0,0.0,29.0,0.0,58.0,1.0,496.5333797999992,,,,,,,,,496.5214426999992,497.7328417999997,498.5334926999967,498.5171249999985,498.51716439999655,498.5334926999967,498.5334926999967,498.5334926999967,502.5497848999985,right,1.0,200.81983039999977,,,,,,,,,,,,,,,,,,,,,,,,,,,,,,,sub-097,1.0,random_dot,60.02681998342572,
left,left,accuracy,,,,,0.0,1.0,1.0,0.0,29.0,1.0,59.0,0.0,502.5647069999977,,,,,,,,,502.55113199999687,502.6651915999973,503.4652694999968,503.449152899997,503.4491920999972,503.4652694999968,503.4652694999968,503.4652694999968,507.916095499997,left,1.0,201.25565389999971,,,,,,,,,,,,,,,,,,,,,,,,,,,,,,,sub-097,1.0,random_dot,60.02681998342572,
,,accuracy,,,,,0.0,1.0,1.0,0.0,,,,,,,,,,,,,,,,,,,,,,,,,,,,,,,,,,,,,,,,,,,,,,,,,,,,,,,,sub-097,1.0,random_dot,60.02681998342572,
,,,,,,,,,,,,,,,,,,,,,,,,,,,,,,,,,,,,,,,,,,,,,,,,,,,,,,,,,,,,,,,507.9178820999987,507.930198799997,512.9287697,sub-097,,,,
