direction,corrAns,randomInstr,practice_trials.thisRepN,practice_trials.thisTrialN,practice_trials.thisN,practice_trials.thisIndex,instr_trials.thisRepN,instr_trials.thisTrialN,instr_trials.thisN,instr_trials.thisIndex,test_trials.thisRepN,test_trials.thisTrialN,test_trials.thisN,test_trials.thisIndex,thisRow.t,notes,general_instruction.started,textGeneralInstr.started,respGeneralInstr.started,general_instruction.stopped,respGeneralInstr.keys,respGeneralInstr.rt,respGeneralInstr.duration,ITI.started,fixcross.started,fixcross.stopped,ITI.stopped,dots.started,backgroundDots.started,stimulusDots.started,respDots.started,stimulusDots.stopped,dots.stopped,respDots.keys,respDots.corr,respDots.rt,respDots.duration,feedback.started,textFeedback.started,feedback.stopped,textFeedback.stopped,info.started,textInfo.started,keyRespInfo.started,info.stopped,keyRespInfo.keys,keyRespInfo.rt,keyRespInfo.duration,test_instruction.started,textTestInstr.started,respTestInstr.started,test_instruction.stopped,respTestInstr.keys,respTestInstr.rt,respTestInstr.duration,random_instruction.started,textRandomInstr.started,respRandomInstr.started,random_instruction.stopped,respRandomInstr.keys,respRandomInstr.rt,respRandomInstr.duration,goodbye.started,textGoodbye.started,textGoodbye.stopped,goodbye.stopped,participant,session,expName,frameRate,Unnamed: 74
,,,,,,,,,,,,,,,,,0.0409919000230729,0.0488704000599682,0.0488704000599682,40.91327310004272,space,72.8607522000093,,,,,,,,,,,,,,,,,,,,,,,,,,,,,,,,,,,,,,,,,,,,,sub-037,1.0,random_dot,59.95052880984449,
right,right,,0.0,0.0,0.0,1.0,,,,,,,,,40.97295850003138,,,,,,,,,40.96438120002858,41.276624600053765,42.08098760002758,42.06013860006351,42.06017650000285,42.08098760002758,42.08098760002758,42.08098760002758,47.06050869997125,50.82826930005103,left,0.0,40.74037350004073,,50.82959590002429,50.849372199969366,51.34255479997955,,,,,,,,,,,,,,,,,,,,,,,,,,,sub-037,1.0,random_dot,59.95052880984449,
left,left,,0.0,1.0,1.0,0.0,,,,,,,,,51.35961110005155,,,,,,,,,51.34320600004867,51.6928898000624,52.49342519999482,52.4770854000235,52.477119800052606,52.49342519999482,52.49342519999482,52.49342519999482,57.476274300017394,57.96101480000653,right,0.0,37.46585599996615,,57.96191960002761,57.97532550001051,58.4605621000519,58.47640330006834,,,,,,,,,,,,,,,,,,,,,,,,,,sub-037,1.0,random_dot,59.95052880984449,
right,right,,1.0,0.0,2.0,1.0,,,,,,,,,58.47640330006834,,,,,,,,,58.46117749996483,59.27625670004636,60.07676369999536,60.06066419999115,60.0606998000294,60.07676369999536,60.07676369999536,60.07676369999536,65.05924710002728,65.34486700000707,right,1.0,37.25741459999699,,65.34586140001193,65.36049410002306,65.8590560000157,,,,,,,,,,,,,,,,,,,,,,,,,,,sub-037,1.0,random_dot,59.95052880984449,
left,left,,1.0,1.0,3.0,0.0,,,,,,,,,65.87570370000321,,,,,,,,,65.8598539000377,66.20904730004258,67.00992670003325,66.99436200002674,66.99439640005585,67.00992670003325,67.00992670003325,67.00992670003325,71.99285879998934,72.62849020003341,left,1.0,37.62105880002491,,72.62935489998199,72.64216799999122,73.128163699992,73.14265409996733,,,,,,,,,,,,,,,,,,,,,,,,,,sub-037,1.0,random_dot,59.95052880984449,
right,right,,2.0,0.0,4.0,1.0,,,,,,,,,73.14265409996733,,,,,,,,,73.12887680006679,73.2421174000483,74.04257659998257,74.02729760005604,74.02733429998625,74.04257659998257,74.04257659998257,74.04257659998257,79.03897580003832,79.92503439995926,right,1.0,37.87097970000468,,79.9260361000197,79.93924249999691,80.42351059999783,80.43946689995937,,,,,,,,,,,,,,,,,,,,,,,,,,sub-037,1.0,random_dot,59.95052880984449,
left,left,,2.0,1.0,5.0,0.0,,,,,,,,,80.43946689995937,,,,,,,,,80.42427279998083,80.53920999995898,81.33942370000295,81.32294179999735,81.32298299996182,81.33942370000295,81.33942370000295,81.33942370000295,,83.22528120002244,left,1.0,33.889065800001845,,83.22629959997721,83.23901520005893,83.72393750003539,83.73962260002736,,,,,,,,,,,,,,,,,,,,,,,,,,sub-037,1.0,random_dot,59.95052880984449,
left,left,,3.0,0.0,6.0,0.0,,,,,,,,,83.73962260002736,,,,,,,,,83.72469070006628,84.53946939995512,85.33989840000868,85.32330649998039,85.32335369999055,85.33989840000868,85.33989840000868,85.33989840000868,,88.44069550000131,right,0.0,35.10071890009567,,88.44155310001224,88.45520119997673,88.9399054000387,88.95550389995333,,,,,,,,,,,,,,,,,,,,,,,,,,sub-037,1.0,random_dot,59.95052880984449,
right,right,,3.0,1.0,7.0,1.0,,,,,,,,,88.95550389995333,,,,,,,,,88.94065330002923,89.0559007000411,89.85615590005182,89.84019160002936,89.84024329995736,89.85615590005182,89.85615590005182,89.85615590005182,,92.80077640002128,left,0.0,34.92717989999801,,92.80253370001446,92.81308530003298,93.3060220000334,,,,,,,,,,,,,,,,,,,,,,,,,,,sub-037,1.0,random_dot,59.95052880984449,
right,right,,4.0,0.0,8.0,1.0,,,,,,,,,93.32237229996826,,,,,,,,,93.30688499996904,94.10565120005047,94.90706120000686,94.89000180002768,94.89003690006211,94.90706120000686,94.90706120000686,94.90706120000686,,98.34072880004533,left,0.0,35.43528700002935,,98.34157090005463,98.35543600004166,98.83975709998047,98.85539180005436,,,,,,,,,,,,,,,,,,,,,,,,,,sub-037,1.0,random_dot,59.95052880984449,
left,left,,4.0,1.0,9.0,0.0,,,,,,,,,98.85539180005436,,,,,,,,,98.8404642000096,100.05653509998228,100.85631289996672,100.84032890002707,100.84036300005393,100.85631289996672,100.85631289996672,100.85631289996672,,102.72497950005344,left,1.0,33.87191200000234,,102.72581670002546,102.73843809997196,103.22390830004588,103.23972610000057,,,,,,,,,,,,,,,,,,,,,,,,,,sub-037,1.0,random_dot,59.95052880984449,
right,right,,5.0,0.0,10.0,1.0,,,,,,,,,103.23972610000057,,,,,,,,,103.2246336999815,104.4392353000585,105.23931970004924,105.2234587999992,105.22349200001918,105.23931970004924,105.23931970004924,105.23931970004924,,108.92427139997017,left,0.0,35.68293600005563,,108.92512969998644,108.93846890004352,109.42312529997434,109.4388851999538,,,,,,,,,,,,,,,,,,,,,,,,,,sub-037,1.0,random_dot,59.95052880984449,
left,left,,5.0,1.0,11.0,0.0,,,,,,,,,109.4388851999538,,,,,,,,,109.42377270001452,109.78933239995968,110.59014410001691,110.57334450003692,110.57337910006754,110.59014410001691,110.59014410001691,110.59014410001691,,115.05802830005996,left,1.0,36.47020760003943,,115.05889470002148,115.0716976999538,115.55675440002231,115.57299719995352,,,,,,,,,,,,,,,,,,,,,,,,,,sub-037,1.0,random_dot,59.95052880984449,
left,left,,6.0,0.0,12.0,0.0,,,,,,,,,115.57299719995352,,,,,,,,,115.55752999999096,115.6730795999756,116.47360000002664,116.45694579998964,116.45698899996933,116.47360000002664,116.47360000002664,116.47360000002664,,119.60728180001024,left,1.0,35.12567380000837,,119.60821990005206,119.62168580002616,120.10693939996418,120.12724139995407,,,,,,,,,,,,,,,,,,,,,,,,,,sub-037,1.0,random_dot,59.95052880984449,
right,right,,6.0,1.0,13.0,1.0,,,,,,,,,120.12724139995407,,,,,,,,,120.1076863000635,121.32158560003154,122.1228060000576,122.1067887999816,122.10682250000536,122.1228060000576,122.1228060000576,122.1228060000576,,124.25765180005692,right,1.0,34.12867120001465,,124.25849110004492,124.2719615000533,124.75604770006612,124.7727682000259,,,,,,,,,,,,,,,,,,,,,,,,,,sub-037,1.0,random_dot,59.95052880984449,
left,left,,7.0,0.0,14.0,0.0,,,,,,,,,124.7727682000259,,,,,,,,,124.75676779996138,125.57238869997671,126.37304470001254,126.35705460002646,126.35708900005557,126.37304470001254,126.37304470001254,126.37304470001254,,129.4743160000071,left,1.0,35.09066190011799,,129.47516529995482,129.48851439997088,129.97329700004775,129.98872520006262,,,,,,,,,,,,,,,,,,,,,,,,,,sub-037,1.0,random_dot,59.95052880984449,
right,right,,7.0,1.0,15.0,1.0,,,,,,,,,129.98872520006262,,,,,,,,,129.97428009996656,130.08911559998523,130.8892416000599,130.87331110006198,130.87336049997248,130.8892416000599,130.8892416000599,130.8892416000599,135.87261489999946,136.4578001999762,right,1.0,37.57147140009329,,136.4586288999999,136.4728185000131,136.95682389999274,136.97209030005615,,,,,,,,,,,,,,,,,,,,,,,,,,sub-037,1.0,random_dot,59.95052880984449,
left,left,,8.0,0.0,16.0,0.0,,,,,,,,,136.97209030005615,,,,,,,,,136.95768810005393,137.7721676999936,138.57303550001234,138.55668969999533,138.55672490003053,138.57303550001234,138.57303550001234,138.57303550001234,,141.82434479997028,left,1.0,35.24297410005238,,141.82519630005118,141.83873079996556,142.32269469997846,142.33899029996246,,,,,,,,,,,,,,,,,,,,,,,,,,sub-037,1.0,random_dot,59.95052880984449,
right,right,,8.0,1.0,17.0,1.0,,,,,,,,,142.33899029996246,,,,,,,,,142.3233282000292,143.5395696000196,144.3560118000023,144.33957990002818,144.33961310004815,144.3560118000023,144.3560118000023,144.3560118000023,,146.7576427999884,left,0.0,34.40120630001184,,146.75850780005567,146.77152690000366,147.25607530004345,147.27173829998355,,,,,,,,,,,,,,,,,,,,,,,,,,sub-037,1.0,random_dot,59.95052880984449,
right,right,,9.0,0.0,18.0,1.0,,,,,,,,,147.27173829998355,,,,,,,,,147.25685800006613,147.62216679996345,148.42304480005987,148.406705899979,148.40673909999896,148.42304480005987,148.42304480005987,148.42304480005987,,150.82390019996092,left,0.0,34.39439510006923,,150.82475500006694,150.8388240999775,151.32294740004,151.3382236000616,,,,,,,,,,,,,,,,,,,,,,,,,,sub-037,1.0,random_dot,59.95052880984449,
left,left,,9.0,1.0,19.0,0.0,,,,,,,,,151.3382236000616,,,,,,,,,151.32361990003847,151.6892090999754,152.4894638999831,152.4734619000228,152.4734958000481,152.4894638999831,152.4894638999831,152.4894638999831,,154.12509009998757,left,1.0,33.63938649999909,,154.1259766999865,154.13851550000254,154.62305289995857,154.63986570003908,,,,,,,,,,,,,,,,,,,,,,,,,,sub-037,1.0,random_dot,59.95052880984449,
,,,,,,,,,,,,,,,,,,,,,,,,,,,,,,,,,,,,,,,,,,154.62317280005664,154.63986570003908,154.63986570003908,185.14011160004884,space,62.49910420004744,,,,,,,,,,,,,,,,,,,,sub-037,1.0,random_dot,59.95052880984449,
,,,,,,,,,,,,,,,,,,,,,,,,,,,,,,,,,,,,,,,,,,,,,,,,,185.140166600002,185.15549689996988,185.15549689996988,194.6410528999986,space,41.47860740008764,,,,,,,,,,,,,sub-037,1.0,random_dot,59.95052880984449,
left,left,speed,,,,,0.0,0.0,0.0,1.0,0.0,0.0,0.0,0.0,202.87216659996196,,,,,,,,,202.8658421,202.9688660000684,203.76938369998243,203.75343599996995,203.7534732000204,203.76938369998243,203.76938369998243,203.76938369998243,,204.42115539999213,left,1.0,32.648025100003,,,,,,,,,,,,,,,,,,,,194.6689792000689,194.69976450002287,194.69976450002287,202.85424759995655,space,40.15708309994079,,,,,,sub-037,1.0,random_dot,59.95052880984449,
right,right,speed,,,,,0.0,0.0,0.0,1.0,0.0,1.0,1.0,1.0,204.4357321000425,,,,,,,,,204.4233179000439,205.63550360000227,206.43602649995591,206.42022179998455,206.42025470000223,206.43602649995591,206.43602649995591,206.43602649995591,,207.80535180005245,right,1.0,33.37312210001983,,,,,,,,,,,,,,,,,,,,,,,,,,,,,,,sub-037,1.0,random_dot,59.95052880984449,
left,left,speed,,,,,0.0,0.0,0.0,1.0,1.0,0.0,2.0,0.0,207.81879210006448,,,,,,,,,207.8070598000195,208.6188423000276,209.41926430002783,209.40347759996075,209.4035115999868,209.41926430002783,209.41926430002783,209.41926430002783,,210.32120520004537,left,1.0,32.894446399994195,,,,,,,,,,,,,,,,,,,,,,,,,,,,,,,sub-037,1.0,random_dot,59.95052880984449,
right,right,speed,,,,,0.0,0.0,0.0,1.0,1.0,1.0,3.0,1.0,210.33591669995803,,,,,,,,,210.3232242000522,211.13584470003843,211.93592349998653,211.92031660000796,211.92037219996564,211.93592349998653,211.93592349998653,211.93592349998653,,213.35501169995405,left,0.0,33.41567190003116,,,,,,,,,,,,,,,,,,,,,,,,,,,,,,,sub-037,1.0,random_dot,59.95052880984449,
left,left,speed,,,,,0.0,0.0,0.0,1.0,2.0,0.0,4.0,0.0,213.3686205999693,,,,,,,,,213.35686179995537,213.46902099996805,214.2698073000647,214.25368990004063,214.2537239000667,214.2698073000647,214.2698073000647,214.2698073000647,,215.8043950999854,left,1.0,33.53753670002334,,,,,,,,,,,,,,,,,,,,,,,,,,,,,,,sub-037,1.0,random_dot,59.95052880984449,
right,right,speed,,,,,0.0,0.0,0.0,1.0,2.0,1.0,5.0,1.0,215.8189084000187,,,,,,,,,215.80619260005187,217.0187036000425,217.8192023000447,217.8035276000155,217.8035615000408,217.8192023000447,217.8192023000447,217.8192023000447,,218.97120370005723,right,1.0,33.15349120006431,,,,,,,,,,,,,,,,,,,,,,,,,,,,,,,sub-037,1.0,random_dot,59.95052880984449,
left,left,speed,,,,,0.0,0.0,0.0,1.0,3.0,0.0,6.0,0.0,218.98516399995424,,,,,,,,,218.9729311000556,219.7856055999873,220.5858061000472,220.569885200006,220.56991780002136,220.5858061000472,220.5858061000472,220.5858061000472,,221.5874623999698,left,1.0,32.99177800002508,,,,,,,,,,,,,,,,,,,,,,,,,,,,,,,sub-037,1.0,random_dot,59.95052880984449,
right,right,speed,,,,,0.0,0.0,0.0,1.0,3.0,1.0,7.0,1.0,221.60216530004985,,,,,,,,,221.58917180006392,221.95192909997425,222.75262669997755,222.73682820005345,222.7368639999768,222.75262669997755,222.75262669997755,222.75262669997755,,224.58769229997412,left,0.0,33.838046699995175,,,,,,,,,,,,,,,,,,,,,,,,,,,,,,,sub-037,1.0,random_dot,59.95052880984449,
left,left,speed,,,,,0.0,0.0,0.0,1.0,4.0,0.0,8.0,0.0,224.6019962000428,,,,,,,,,224.58950340002772,225.40248930000237,226.2026871000417,226.18647159996908,226.18650579999667,226.2026871000417,226.2026871000417,226.2026871000417,,227.738020000048,left,1.0,33.52908979996573,,,,,,,,,,,,,,,,,,,,,,,,,,,,,,,sub-037,1.0,random_dot,59.95052880984449,
right,right,speed,,,,,0.0,0.0,0.0,1.0,4.0,1.0,9.0,1.0,227.75219559995455,,,,,,,,,227.73993509996217,227.852345900028,228.65297960001044,228.63668560003865,228.63672690000385,228.65297960001044,228.65297960001044,228.65297960001044,,229.887890300015,right,1.0,33.22456850006711,,,,,,,,,,,,,,,,,,,,,,,,,,,,,,,sub-037,1.0,random_dot,59.95052880984449,
right,right,speed,,,,,0.0,0.0,0.0,1.0,5.0,0.0,10.0,1.0,229.9081665000413,,,,,,,,,229.8897769000614,231.1019534000661,231.9025841000257,231.88701900001612,231.88705240003765,231.9025841000257,231.9025841000257,231.9025841000257,,233.1373983999947,right,1.0,33.22595000010915,,,,,,,,,,,,,,,,,,,,,,,,,,,,,,,sub-037,1.0,random_dot,59.95052880984449,
left,left,speed,,,,,0.0,0.0,0.0,1.0,5.0,1.0,11.0,0.0,233.15242569998367,,,,,,,,,233.13919100002383,233.5022248000605,234.30239860003348,234.28658680000808,234.2866296999855,234.30239860003348,234.30239860003348,234.30239860003348,,235.8376407000469,left,1.0,33.52441160008311,,,,,,,,,,,,,,,,,,,,,,,,,,,,,,,sub-037,1.0,random_dot,59.95052880984449,
left,left,speed,,,,,0.0,0.0,0.0,1.0,6.0,0.0,12.0,0.0,235.8526639000047,,,,,,,,,235.8393658000277,237.0523912999779,237.8524370000232,237.83694539999124,237.8369793000165,237.8524370000232,237.8524370000232,237.8524370000232,,240.98793679999653,left,1.0,35.12421560008079,,,,,,,,,,,,,,,,,,,,,,,,,,,,,,,sub-037,1.0,random_dot,59.95052880984449,
right,right,speed,,,,,0.0,0.0,0.0,1.0,6.0,1.0,13.0,1.0,241.0018261000514,,,,,,,,,240.99081170000136,241.10210570006168,241.90275220002516,241.88692820002325,241.88697430002503,241.90275220002516,241.90275220002516,241.90275220002516,,244.68767789995763,left,0.0,34.785828400054015,,,,,,,,,,,,,,,,,,,,,,,,,,,,,,,sub-037,1.0,random_dot,59.95052880984449,
right,right,speed,,,,,0.0,0.0,0.0,1.0,7.0,0.0,14.0,1.0,244.70186999998987,,,,,,,,,244.69048530003056,245.50236200005747,246.3025928999996,246.28658529999663,246.2866214000387,246.3025928999996,246.3025928999996,246.3025928999996,,249.6543684999924,left,0.0,35.34844870003872,,,,,,,,,,,,,,,,,,,,,,,,,,,,,,,sub-037,1.0,random_dot,59.95052880984449,
left,left,speed,,,,,0.0,0.0,0.0,1.0,7.0,1.0,15.0,0.0,249.66857019998133,,,,,,,,,249.656133600045,249.7689077999676,250.56970560003535,250.55289459996857,250.55294009996575,250.56970560003535,250.56970560003535,250.56970560003535,,252.77129589999092,left,1.0,34.20383719995152,,,,,,,,,,,,,,,,,,,,,,,,,,,,,,,sub-037,1.0,random_dot,59.95052880984449,
left,left,speed,,,,,0.0,0.0,0.0,1.0,8.0,0.0,16.0,0.0,252.7854001000524,,,,,,,,,252.77316580002665,252.88567760004665,253.6856950999936,253.669744099956,253.66977779997976,253.6856950999936,253.6856950999936,253.6856950999936,,255.60505500005087,left,1.0,33.908711600117385,,,,,,,,,,,,,,,,,,,,,,,,,,,,,,,sub-037,1.0,random_dot,59.95052880984449,
right,right,speed,,,,,0.0,0.0,0.0,1.0,8.0,1.0,17.0,1.0,255.61843110003971,,,,,,,,,255.606738600065,255.71856329997536,256.51923149998765,256.50313490000553,256.5031730000628,256.51923149998765,256.51923149998765,256.51923149998765,,259.154309000005,right,1.0,34.63627240003552,,,,,,,,,,,,,,,,,,,,,,,,,,,,,,,sub-037,1.0,random_dot,59.95052880984449,
right,right,speed,,,,,0.0,0.0,0.0,1.0,9.0,0.0,18.0,1.0,259.1691135000437,,,,,,,,,259.1562533000251,259.96883270004764,260.7693725000136,260.75312919996213,260.7531773999799,260.7693725000136,260.7693725000136,260.7693725000136,,262.40417260001414,right,1.0,33.627393100061454,,,,,,,,,,,,,,,,,,,,,,,,,,,,,,,sub-037,1.0,random_dot,59.95052880984449,
left,left,speed,,,,,0.0,0.0,0.0,1.0,9.0,1.0,19.0,0.0,262.41878209996503,,,,,,,,,262.4063065999653,263.6184436000185,264.41950570000336,264.40276149997953,264.4027938999934,264.41950570000336,264.41950570000336,264.41950570000336,,265.87100769998506,left,1.0,33.44863370002713,,,,,,,,,,,,,,,,,,,,,,,,,,,,,,,sub-037,1.0,random_dot,59.95052880984449,
right,right,speed,,,,,0.0,0.0,0.0,1.0,10.0,0.0,20.0,1.0,265.885057699983,,,,,,,,,265.87273649999406,266.23509339999873,267.03617550001945,267.0198464000132,267.0198793000309,267.03617550001945,267.03617550001945,267.03617550001945,,269.0709848999977,right,1.0,34.034677600022405,,,,,,,,,,,,,,,,,,,,,,,,,,,,,,,sub-037,1.0,random_dot,59.95052880984449,
left,left,speed,,,,,0.0,0.0,0.0,1.0,10.0,1.0,21.0,0.0,269.08510579995345,,,,,,,,,269.072691300069,269.4351917000022,270.2356729999883,270.219774600002,270.2198137000669,270.2356729999883,270.2356729999883,270.2356729999883,,272.0207308999961,left,1.0,33.783593100029975,,,,,,,,,,,,,,,,,,,,,,,,,,,,,,,sub-037,1.0,random_dot,59.95052880984449,
left,left,speed,,,,,0.0,0.0,0.0,1.0,11.0,0.0,22.0,0.0,272.0350336000556,,,,,,,,,272.02245499996934,272.1354093999835,272.93560990004335,272.91976419999264,272.91979730001185,272.93560990004335,272.93560990004335,272.93560990004335,,274.6205006999662,left,1.0,33.68411949998699,,,,,,,,,,,,,,,,,,,,,,,,,,,,,,,sub-037,1.0,random_dot,59.95052880984449,
right,right,speed,,,,,0.0,0.0,0.0,1.0,11.0,1.0,23.0,1.0,274.6348926000064,,,,,,,,,274.6222452999791,275.83490739995614,276.63555770006496,276.619332900038,276.6193740000017,276.63555770006496,276.63555770006496,276.63555770006496,,278.17168320005294,right,1.0,33.53979429998435,,,,,,,,,,,,,,,,,,,,,,,,,,,,,,,sub-037,1.0,random_dot,59.95052880984449,
right,right,speed,,,,,0.0,0.0,0.0,1.0,12.0,0.0,24.0,1.0,278.18493119999766,,,,,,,,,278.1734006999759,278.98526180000044,279.78587070002686,279.76972720003687,279.7697708000196,279.78587070002686,279.78587070002686,279.78587070002686,,281.38763380004093,right,1.0,33.59443970001303,,,,,,,,,,,,,,,,,,,,,,,,,,,,,,,sub-037,1.0,random_dot,59.95052880984449,
left,left,speed,,,,,0.0,0.0,0.0,1.0,12.0,1.0,25.0,0.0,281.40159669995774,,,,,,,,,281.3893830999732,281.50172219995875,282.302421499975,282.28623009996954,282.28627310006414,282.302421499975,282.302421499975,282.302421499975,,283.221713499981,left,1.0,32.91602020000573,,,,,,,,,,,,,,,,,,,,,,,,,,,,,,,sub-037,1.0,random_dot,59.95052880984449,
left,left,speed,,,,,0.0,0.0,0.0,1.0,13.0,0.0,26.0,0.0,283.2350895999698,,,,,,,,,283.2234564999817,283.33530549996067,284.13551529997494,284.11971330002416,284.1197532999795,284.13551529997494,284.13551529997494,284.13551529997494,,285.4206833000062,left,1.0,33.28752040001564,,,,,,,,,,,,,,,,,,,,,,,,,,,,,,,sub-037,1.0,random_dot,59.95052880984449,
right,right,speed,,,,,0.0,0.0,0.0,1.0,13.0,1.0,27.0,1.0,285.4353507000488,,,,,,,,,285.4223924999824,285.78518620005343,286.5857038999675,286.56982780003455,286.5698730000295,286.5857038999675,286.5857038999675,286.5857038999675,,287.92104669997934,right,1.0,33.337922299979255,,,,,,,,,,,,,,,,,,,,,,,,,,,,,,,sub-037,1.0,random_dot,59.95052880984449,
left,left,speed,,,,,0.0,0.0,0.0,1.0,14.0,0.0,28.0,0.0,287.9352792999707,,,,,,,,,287.9227632000111,288.7358927000314,289.53557419998106,289.5197232000064,289.5197568000294,289.53557419998106,289.53557419998106,289.53557419998106,,290.8537800000049,left,1.0,33.31486619997304,,,,,,,,,,,,,,,,,,,,,,,,,,,,,,,sub-037,1.0,random_dot,59.95052880984449,
right,right,speed,,,,,0.0,0.0,0.0,1.0,14.0,1.0,29.0,1.0,290.8681168999756,,,,,,,,,290.8558075999608,290.9684557999717,291.76916510006413,291.75286839995533,291.75290169997606,291.76916510006413,291.76916510006413,291.76916510006413,,292.8705549000297,right,1.0,33.09881730005145,,,,,,,,,,,,,,,,,,,,,,,,,,,,,,,sub-037,1.0,random_dot,59.95052880984449,
right,right,speed,,,,,0.0,0.0,0.0,1.0,15.0,0.0,30.0,1.0,292.88494330004323,,,,,,,,,292.8722784999991,294.0855464000488,294.8856351999566,294.8695258999942,294.8695593000157,294.8856351999566,294.8856351999566,294.8856351999566,,296.05382400006056,right,1.0,33.15705060004257,,,,,,,,,,,,,,,,,,,,,,,,,,,,,,,sub-037,1.0,random_dot,59.95052880984449,
left,left,speed,,,,,0.0,0.0,0.0,1.0,15.0,1.0,31.0,0.0,296.0681790000526,,,,,,,,,296.0555730999913,296.86851080006454,297.6692726999754,297.6533324000193,297.6533650000347,297.6692726999754,297.6692726999754,297.6692726999754,,298.7540258000372,left,1.0,33.08665569999721,,,,,,,,,,,,,,,,,,,,,,,,,,,,,,,sub-037,1.0,random_dot,59.95052880984449,
left,left,speed,,,,,0.0,0.0,0.0,1.0,16.0,0.0,32.0,0.0,298.768648999976,,,,,,,,,298.7558175000595,299.968406900065,300.768863699981,300.7529295999557,300.75296249997336,300.768863699981,300.768863699981,300.768863699981,,301.8872936000116,left,1.0,33.115602000034414,,,,,,,,,,,,,,,,,,,,,,,,,,,,,,,sub-037,1.0,random_dot,59.95052880984449,
right,right,speed,,,,,0.0,0.0,0.0,1.0,16.0,1.0,33.0,1.0,301.90147449995857,,,,,,,,,301.88908680004533,302.00164979998954,302.80226360005327,302.78650409996044,302.7865444000345,302.80226360005327,302.80226360005327,302.80226360005327,,303.67065320000984,right,1.0,32.86188740003854,,,,,,,,,,,,,,,,,,,,,,,,,,,,,,,sub-037,1.0,random_dot,59.95052880984449,
left,left,speed,,,,,0.0,0.0,0.0,1.0,17.0,0.0,34.0,0.0,303.6851221000543,,,,,,,,,303.6723945999984,304.88509430002887,305.68564250005875,305.66988709999714,305.66992869996466,305.68564250005875,305.68564250005875,305.68564250005875,,307.0540479000192,left,1.0,33.36846060003154,,,,,,,,,,,,,,,,,,,,,,,,,,,,,,,sub-037,1.0,random_dot,59.95052880984449,
right,right,speed,,,,,0.0,0.0,0.0,1.0,17.0,1.0,35.0,1.0,307.0683226999827,,,,,,,,,307.0558128999546,307.8686220999807,308.6688009999925,308.6534685000079,308.6535231999587,308.6688009999925,308.6688009999925,308.6688009999925,,310.1540142999729,right,1.0,33.48172420007177,,,,,,,,,,,,,,,,,,,,,,,,,,,,,,,sub-037,1.0,random_dot,59.95052880984449,
left,left,speed,,,,,0.0,0.0,0.0,1.0,18.0,0.0,36.0,0.0,310.16824619995896,,,,,,,,,310.15574980003294,310.2686324999668,311.06931259995326,311.05271069996525,311.0527574999724,311.06931259995326,311.06931259995326,311.06931259995326,,312.0541134000523,left,1.0,32.978831599932164,,,,,,,,,,,,,,,,,,,,,,,,,,,,,,,sub-037,1.0,random_dot,59.95052880984449,
right,right,speed,,,,,0.0,0.0,0.0,1.0,18.0,1.0,37.0,1.0,312.06809660000727,,,,,,,,,312.05584719998296,312.4183846999658,313.21897080005147,313.20275539997965,313.20278849999886,313.21897080005147,313.21897080005147,313.21897080005147,,314.4543693000451,right,1.0,33.22950030001812,,,,,,,,,,,,,,,,,,,,,,,,,,,,,,,sub-037,1.0,random_dot,59.95052880984449,
right,right,speed,,,,,0.0,0.0,0.0,1.0,19.0,0.0,38.0,1.0,314.4685849000234,,,,,,,,,314.4561163999606,315.6683819000609,316.4686900000088,316.45288450003136,316.4529223999707,316.4686900000088,316.4686900000088,316.4686900000088,,317.6042238000082,left,0.0,33.128367400029674,,,,,,,,,,,,,,,,,,,,,,,,,,,,,,,sub-037,1.0,random_dot,59.95052880984449,
left,left,speed,,,,,0.0,0.0,0.0,1.0,19.0,1.0,39.0,0.0,317.6180425999919,,,,,,,,,317.60590710002,318.8194567000028,319.6352983999532,319.6191392999608,319.6191763000097,319.6352983999532,319.6352983999532,319.6352983999532,,320.8705323999748,left,1.0,33.23446760000661,,,,,,,,,,,,,,,,,,,,,,,,,,,,,,,sub-037,1.0,random_dot,59.95052880984449,
left,left,speed,,,,,0.0,0.0,0.0,1.0,20.0,0.0,40.0,0.0,320.88468400004786,,,,,,,,,320.8723228999879,321.23520900006406,322.0360967000015,322.01937170000747,322.0194053000305,322.0360967000015,322.0360967000015,322.0360967000015,,323.5705833999673,left,1.0,33.531659799977206,,,,,,,,,,,,,,,,,,,,,,,,,,,,,,,sub-037,1.0,random_dot,59.95052880984449,
right,right,speed,,,,,0.0,0.0,0.0,1.0,20.0,1.0,41.0,1.0,323.58495569997467,,,,,,,,,323.5726764999563,324.7848802000517,325.5853085999843,325.56928289995994,325.5693145999685,325.5853085999843,325.5853085999843,325.5853085999843,,326.62045399995986,right,1.0,33.030810700031,,,,,,,,,,,,,,,,,,,,,,,,,,,,,,,sub-037,1.0,random_dot,59.95052880984449,
right,right,speed,,,,,0.0,0.0,0.0,1.0,21.0,0.0,42.0,1.0,326.63467679999303,,,,,,,,,326.622248700005,326.9850024000043,327.7856109000277,327.7695992999943,327.7696358000394,327.7856109000277,327.7856109000277,327.7856109000277,,328.8374687000178,right,1.0,33.05277020006906,,,,,,,,,,,,,,,,,,,,,,,,,,,,,,,sub-037,1.0,random_dot,59.95052880984449,
left,left,speed,,,,,0.0,0.0,0.0,1.0,21.0,1.0,43.0,0.0,328.85133620002307,,,,,,,,,328.83937219996005,328.9518495000666,329.7525291000493,329.73604880005587,329.736082599964,329.7525291000493,329.7525291000493,329.7525291000493,,330.87082299997564,left,1.0,33.11731729994062,,,,,,,,,,,,,,,,,,,,,,,,,,,,,,,sub-037,1.0,random_dot,59.95052880984449,
left,left,speed,,,,,0.0,0.0,0.0,1.0,22.0,0.0,44.0,0.0,330.8849235000089,,,,,,,,,330.8732929000398,330.98521700000856,331.78526789997704,331.76928410003893,331.7693175000604,331.78526789997704,331.78526789997704,331.78526789997704,,332.80394360004,left,1.0,33.01246780005749,,,,,,,,,,,,,,,,,,,,,,,,,,,,,,,sub-037,1.0,random_dot,59.95052880984449,
right,right,speed,,,,,0.0,0.0,0.0,1.0,22.0,1.0,45.0,1.0,332.81808600004297,,,,,,,,,332.80570370005444,333.1681272999849,333.9679735000245,333.9525735999923,333.9526174999773,333.9679735000245,333.9679735000245,333.9679735000245,,334.7370623999741,right,1.0,32.7677401000401,,,,,,,,,,,,,,,,,,,,,,,,,,,,,,,sub-037,1.0,random_dot,59.95052880984449,
right,right,speed,,,,,0.0,0.0,0.0,1.0,23.0,0.0,46.0,1.0,334.75175429997034,,,,,,,,,334.7387819000287,334.85173240001313,335.6518336000154,335.6361693000654,335.6362154000672,335.6518336000154,335.6518336000154,335.6518336000154,,336.4871836999664,right,1.0,32.8275320000248,,,,,,,,,,,,,,,,,,,,,,,,,,,,,,,sub-037,1.0,random_dot,59.95052880984449,
left,left,speed,,,,,0.0,0.0,0.0,1.0,23.0,1.0,47.0,0.0,336.50137840001844,,,,,,,,,336.48936340003274,336.6016009000596,337.4017431000248,337.38585029996466,337.38589180004783,337.4017431000248,337.4017431000248,337.4017431000248,,339.9880683000665,right,0.0,34.58986479998566,,,,,,,,,,,,,,,,,,,,,,,,,,,,,,,sub-037,1.0,random_dot,59.95052880984449,
left,left,speed,,,,,0.0,0.0,0.0,1.0,24.0,0.0,48.0,0.0,340.0061010000063,,,,,,,,,339.9897720000008,340.10247699997853,340.901780199958,340.8860706000123,340.88610390003305,340.901780199958,340.901780199958,340.901780199958,,343.7713057000656,left,1.0,34.857359800022095,,,,,,,,,,,,,,,,,,,,,,,,,,,,,,,sub-037,1.0,random_dot,59.95052880984449,
right,right,speed,,,,,0.0,0.0,0.0,1.0,24.0,1.0,49.0,1.0,343.7850013000425,,,,,,,,,343.7730406000046,344.1350533000659,344.9352832000004,344.9190913999919,344.919123300002,344.9352832000004,344.9352832000004,344.9352832000004,,346.1042646999704,right,1.0,33.17266160005238,,,,,,,,,,,,,,,,,,,,,,,,,,,,,,,sub-037,1.0,random_dot,59.95052880984449,
right,right,speed,,,,,0.0,0.0,0.0,1.0,25.0,0.0,50.0,1.0,346.1179791999748,,,,,,,,,346.1059615999693,346.4680149999913,347.2688862000359,347.252545400057,347.252587200026,347.2688862000359,347.2688862000359,347.2688862000359,,348.36996250005905,right,1.0,33.09648410009686,,,,,,,,,,,,,,,,,,,,,,,,,,,,,,,sub-037,1.0,random_dot,59.95052880984449,
left,left,speed,,,,,0.0,0.0,0.0,1.0,25.0,1.0,51.0,0.0,348.38478770002257,,,,,,,,,348.3717475000303,348.7347262999974,349.53504460002296,349.5190492999973,349.5190832000226,349.53504460002296,349.53504460002296,349.53504460002296,,350.6202567999717,left,1.0,33.07879620010499,,,,,,,,,,,,,,,,,,,,,,,,,,,,,,,sub-037,1.0,random_dot,59.95052880984449,
left,left,speed,,,,,0.0,0.0,0.0,1.0,26.0,0.0,52.0,0.0,350.63449379999656,,,,,,,,,350.621980200056,350.98477199999616,351.78513179998845,351.7692557000555,351.76928889995907,351.78513179998845,351.78513179998845,351.78513179998845,,352.5201132000657,left,1.0,32.730151100084186,,,,,,,,,,,,,,,,,,,,,,,,,,,,,,,sub-037,1.0,random_dot,59.95052880984449,
right,right,speed,,,,,0.0,0.0,0.0,1.0,26.0,1.0,53.0,1.0,352.53456669999287,,,,,,,,,352.5219017000636,352.8850718999747,353.6858955000061,353.66918520000763,353.6692194000352,353.6858955000061,353.6858955000061,353.6858955000061,,354.65363079996314,right,1.0,32.96131460007746,,,,,,,,,,,,,,,,,,,,,,,,,,,,,,,sub-037,1.0,random_dot,59.95052880984449,
right,right,speed,,,,,0.0,0.0,0.0,1.0,27.0,0.0,54.0,1.0,354.66809180006385,,,,,,,,,354.65573110000696,354.7680723000085,355.56844900001306,355.55259560002014,355.5526311000576,355.56844900001306,355.56844900001306,355.56844900001306,,356.58756989997346,right,1.0,33.00910300004762,,,,,,,,,,,,,,,,,,,,,,,,,,,,,,,sub-037,1.0,random_dot,59.95052880984449,
left,left,speed,,,,,0.0,0.0,0.0,1.0,27.0,1.0,55.0,0.0,356.60198050003964,,,,,,,,,356.5894119000295,356.7014693999663,357.502044999972,357.48576710000634,357.4858003000263,357.502044999972,357.502044999972,357.502044999972,,358.487476099981,left,1.0,32.97679520002566,,,,,,,,,,,,,,,,,,,,,,,,,,,,,,,sub-037,1.0,random_dot,59.95052880984449,
left,left,speed,,,,,0.0,0.0,0.0,1.0,28.0,0.0,56.0,0.0,358.5015272999881,,,,,,,,,358.4901944999583,358.8518480999628,359.6519329999573,359.6360172999557,359.6360514999833,359.6519329999573,359.6519329999573,359.6519329999573,,360.5702237000223,left,1.0,32.90905340004247,,,,,,,,,,,,,,,,,,,,,,,,,,,,,,,sub-037,1.0,random_dot,59.95052880984449,
right,right,speed,,,,,0.0,0.0,0.0,1.0,28.0,1.0,57.0,1.0,360.5846847000066,,,,,,,,,360.5721067000413,361.78586319996975,362.5853505999549,362.569648600067,362.5696825999767,362.5853505999549,362.5853505999549,362.5853505999549,,363.35368780000135,right,1.0,32.77032330003567,,,,,,,,,,,,,,,,,,,,,,,,,,,,,,,sub-037,1.0,random_dot,59.95052880984449,
left,left,speed,,,,,0.0,0.0,0.0,1.0,29.0,0.0,58.0,0.0,363.3680049000541,,,,,,,,,363.35539020004217,363.71819669997785,364.5184534,364.50231779995374,364.5023581000278,364.5184534,364.5184534,364.5184534,,365.1538162999786,left,1.0,32.637568800128065,,,,,,,,,,,,,,,,,,,,,,,,,,,,,,,sub-037,1.0,random_dot,59.95052880984449,
right,right,speed,,,,,0.0,0.0,0.0,1.0,29.0,1.0,59.0,1.0,365.1676507999655,,,,,,,,,365.1555693000555,365.2683443999849,366.0686196000315,366.0525527000427,366.05258630006574,366.0686196000315,366.0686196000315,366.0686196000315,,366.67054810002446,right,1.0,32.59666400006972,,,,,,,,,,,,,,,,,,,,,,,,,,,,,,,sub-037,1.0,random_dot,59.95052880984449,
,,speed,,,,,0.0,0.0,0.0,1.0,,,,,,,,,,,,,,,,,,,,,,,,,,,,,,,,,,,,,,,,,,,,,,,,,,,,,,,,,sub-037,1.0,random_dot,59.95052880984449,
left,left,accuracy,,,,,0.0,1.0,1.0,0.0,0.0,0.0,0.0,0.0,371.7379245000193,,,,,,,,,371.7313607999822,371.83444869995583,372.6359495000215,372.61884939996526,372.6188937999541,372.6359495000215,372.6359495000215,372.6359495000215,,375.8374921999639,left,1.0,35.20464570005424,,,,,,,,,,,,,,,,,,,,366.6721206000075,366.6932118999539,366.6932118999539,371.7193879999686,space,37.01791200006846,,,,,,sub-037,1.0,random_dot,59.95052880984449,
right,right,accuracy,,,,,0.0,1.0,1.0,0.0,0.0,1.0,1.0,1.0,375.85213909996673,,,,,,,,,375.839771799976,375.9513300999533,376.7518422000576,376.7358645000495,376.7359062000178,376.7518422000576,376.7518422000576,376.7518422000576,,380.07009679998737,right,1.0,35.31646980007645,,,,,,,,,,,,,,,,,,,,,,,,,,,,,,,sub-037,1.0,random_dot,59.95052880984449,
left,left,accuracy,,,,,0.0,1.0,1.0,0.0,1.0,0.0,2.0,0.0,380.08477930002846,,,,,,,,,380.072053699987,381.2846783000277,382.0850209000055,382.0688311000122,382.0688728999812,382.0850209000055,382.0850209000055,382.0850209000055,,384.2533305999823,left,1.0,34.15901130007114,,,,,,,,,,,,,,,,,,,,,,,,,,,,,,,sub-037,1.0,random_dot,59.95052880984449,
right,right,accuracy,,,,,0.0,1.0,1.0,0.0,1.0,1.0,3.0,1.0,384.2679378000321,,,,,,,,,384.255038900068,385.4678877999541,386.26867759996094,386.2523369999835,386.25236929999664,386.26867759996094,386.26867759996094,386.26867759996094,,388.22003520000726,right,1.0,33.94769079994876,,,,,,,,,,,,,,,,,,,,,,,,,,,,,,,sub-037,1.0,random_dot,59.95052880984449,
left,left,accuracy,,,,,0.0,1.0,1.0,0.0,2.0,0.0,4.0,0.0,388.2345868999837,,,,,,,,,388.2219548999565,388.5848156999564,389.3848175000167,389.3687747999793,389.36880799999926,389.3848175000167,389.3848175000167,389.3848175000167,,391.3366464000428,left,1.0,33.94118389999494,,,,,,,,,,,,,,,,,,,,,,,,,,,,,,,sub-037,1.0,random_dot,59.95052880984449,
right,right,accuracy,,,,,0.0,1.0,1.0,0.0,2.0,1.0,5.0,1.0,391.3512949000578,,,,,,,,,391.3383476999588,392.5511494000675,393.3519237999572,393.3355578000192,393.3356003999943,393.3519237999572,393.3519237999572,393.3519237999572,,395.3037335999543,right,1.0,33.95199950004462,,,,,,,,,,,,,,,,,,,,,,,,,,,,,,,sub-037,1.0,random_dot,59.95052880984449,
left,left,accuracy,,,,,0.0,1.0,1.0,0.0,3.0,0.0,6.0,0.0,395.3178073000163,,,,,,,,,395.3054371000035,396.11823440005537,396.918498700019,396.9022100999719,396.90224950003903,396.918498700019,396.918498700019,396.918498700019,,401.6532206999837,left,1.0,36.7281180000864,,,,,,,,,,,,,,,,,,,,,,,,,,,,,,,sub-037,1.0,random_dot,59.95052880984449,
right,right,accuracy,,,,,0.0,1.0,1.0,0.0,3.0,1.0,7.0,1.0,401.6676484000636,,,,,,,,,401.6549377000192,402.4682385000633,403.268669800018,403.2523595000384,403.25239410006907,403.268669800018,403.268669800018,403.268669800018,,406.77119760005735,right,1.0,35.499537100084126,,,,,,,,,,,,,,,,,,,,,,,,,,,,,,,sub-037,1.0,random_dot,59.95052880984449,
right,right,accuracy,,,,,0.0,1.0,1.0,0.0,4.0,0.0,8.0,1.0,406.7855421999702,,,,,,,,,406.7729592999676,406.8845508999657,407.6851723999716,407.6690365000395,407.6690704000648,407.6851723999716,407.6851723999716,407.6851723999716,,409.8031976000639,right,1.0,34.11513549997471,,,,,,,,,,,,,,,,,,,,,,,,,,,,,,,sub-037,1.0,random_dot,59.95052880984449,
left,left,accuracy,,,,,0.0,1.0,1.0,0.0,4.0,1.0,9.0,0.0,409.8175794000272,,,,,,,,,409.80490470002405,410.61767740000505,411.4187483000569,411.4023282000562,411.4023618999636,411.4187483000569,411.4187483000569,411.4187483000569,,413.3533608999569,left,1.0,33.924220200045966,,,,,,,,,,,,,,,,,,,,,,,,,,,,,,,sub-037,1.0,random_dot,59.95052880984449,
left,left,accuracy,,,,,0.0,1.0,1.0,0.0,5.0,0.0,10.0,0.0,413.3682239999762,,,,,,,,,413.3552933000028,413.467674799962,414.2678611000301,414.25190260005184,414.25194580003154,414.2678611000301,414.2678611000301,414.2678611000301,,416.5870129000396,left,1.0,34.31239230011124,,,,,,,,,,,,,,,,,,,,,,,,,,,,,,,sub-037,1.0,random_dot,59.95052880984449,
right,right,accuracy,,,,,0.0,1.0,1.0,0.0,5.0,1.0,11.0,1.0,416.601145499968,,,,,,,,,416.5887338999892,416.7012981000589,417.5015887999907,417.485334899975,417.4853676999919,417.5015887999907,417.5015887999907,417.5015887999907,,420.119784199982,right,1.0,34.61595430003945,,,,,,,,,,,,,,,,,,,,,,,,,,,,,,,sub-037,1.0,random_dot,59.95052880984449,
right,right,accuracy,,,,,0.0,1.0,1.0,0.0,6.0,0.0,12.0,1.0,420.1344686000375,,,,,,,,,420.1217184000416,420.9348719000118,421.73475830000825,421.7191972000292,421.7192334999563,421.73475830000825,421.73475830000825,421.73475830000825,426.7179491999559,427.320027400041,right,1.0,37.584219399956055,,,,,,,,,,,,,,,,,,,,,,,,,,,,,,,sub-037,1.0,random_dot,59.95052880984449,
left,left,accuracy,,,,,0.0,1.0,1.0,0.0,6.0,1.0,13.0,0.0,427.3343673000345,,,,,,,,,427.3220794000663,427.4370909000281,428.2520203000168,428.2352854000637,428.2353268000297,428.2520203000168,428.2520203000168,428.2520203000168,,429.5861683000112,left,1.0,33.325698300031945,,,,,,,,,,,,,,,,,,,,,,,,,,,,,,,sub-037,1.0,random_dot,59.95052880984449,
left,left,accuracy,,,,,0.0,1.0,1.0,0.0,7.0,0.0,14.0,0.0,429.600843799999,,,,,,,,,429.5879865000024,429.9517511000158,430.7516528000124,430.735422900063,430.7354556999635,430.7516528000124,430.7516528000124,430.7516528000124,,432.5533878999995,left,1.0,33.79120010009501,,,,,,,,,,,,,,,,,,,,,,,,,,,,,,,sub-037,1.0,random_dot,59.95052880984449,
right,right,accuracy,,,,,0.0,1.0,1.0,0.0,7.0,1.0,15.0,1.0,432.5676767999539,,,,,,,,,432.5551237000618,432.6676950999536,433.4685423000483,433.4519322999986,433.4519654000178,433.4685423000483,433.4685423000483,433.4685423000483,,435.387203500024,right,1.0,33.916346900048666,,,,,,,,,,,,,,,,,,,,,,,,,,,,,,,sub-037,1.0,random_dot,59.95052880984449,
right,right,accuracy,,,,,0.0,1.0,1.0,0.0,8.0,0.0,16.0,1.0,435.4008922000649,,,,,,,,,435.3889197000535,435.751178800012,436.55132960004266,436.53545810002834,436.5354901000392,436.55132960004266,436.55132960004266,436.55132960004266,,438.48685400001705,right,1.0,33.93427820003126,,,,,,,,,,,,,,,,,,,,,,,,,,,,,,,sub-037,1.0,random_dot,59.95052880984449,
left,left,accuracy,,,,,0.0,1.0,1.0,0.0,8.0,1.0,17.0,0.0,438.5012881000293,,,,,,,,,438.4894828000106,439.7016304000281,440.501364100026,440.4852906999877,440.4853241000092,440.501364100026,440.501364100026,440.501364100026,,441.9366192000453,left,1.0,33.428547400049865,,,,,,,,,,,,,,,,,,,,,,,,,,,,,,,sub-037,1.0,random_dot,59.95052880984449,
left,left,accuracy,,,,,0.0,1.0,1.0,0.0,9.0,0.0,18.0,0.0,441.9506691000424,,,,,,,,,441.9383394999895,442.7513329000212,443.5518326000311,443.5354753000429,443.5355101999594,443.5518326000311,443.5518326000311,443.5518326000311,,444.8872326000128,left,1.0,33.33161360002123,,,,,,,,,,,,,,,,,,,,,,,,,,,,,,,sub-037,1.0,random_dot,59.95052880984449,
right,right,accuracy,,,,,0.0,1.0,1.0,0.0,9.0,1.0,19.0,1.0,444.9007384000579,,,,,,,,,444.88893949997146,445.00611590000335,445.8185478000669,445.80237260006834,445.80241879995447,445.8185478000669,445.8185478000669,445.8185478000669,,447.25327149999794,right,1.0,33.42424880003091,,,,,,,,,,,,,,,,,,,,,,,,,,,,,,,sub-037,1.0,random_dot,59.95052880984449,
right,right,accuracy,,,,,0.0,1.0,1.0,0.0,10.0,0.0,20.0,1.0,447.267360100057,,,,,,,,,447.2554914000211,448.46747979999054,449.2679936999921,449.2520533000352,449.252085300046,449.2679936999921,449.2679936999921,449.2679936999921,,451.4197729000589,right,1.0,34.1518946000142,,,,,,,,,,,,,,,,,,,,,,,,,,,,,,,sub-037,1.0,random_dot,59.95052880984449,
left,left,accuracy,,,,,0.0,1.0,1.0,0.0,10.0,1.0,21.0,0.0,451.4340878999792,,,,,,,,,451.4214936000062,451.5340734999627,452.3347389999544,452.31866820005234,452.3187009000685,452.3347389999544,452.3347389999544,452.3347389999544,,453.7920669000596,left,1.0,33.44361590000335,,,,,,,,,,,,,,,,,,,,,,,,,,,,,,,sub-037,1.0,random_dot,59.95052880984449,
right,right,accuracy,,,,,0.0,1.0,1.0,0.0,11.0,0.0,22.0,1.0,453.8005413999781,,,,,,,,,453.7937800000655,454.6008184000384,455.4015745000215,455.3855341000017,455.3855844000354,455.4015745000215,455.4015745000215,455.4015745000215,,457.13635559997056,right,1.0,33.735190400038846,,,,,,,,,,,,,,,,,,,,,,,,,,,,,,,sub-037,1.0,random_dot,59.95052880984449,
left,left,accuracy,,,,,0.0,1.0,1.0,0.0,11.0,1.0,23.0,0.0,457.1506852000021,,,,,,,,,457.13805700000376,458.3508306000149,459.1511893999996,459.1353411000455,459.1353815000039,459.1511893999996,459.1511893999996,459.1511893999996,,460.68639869999606,left,1.0,33.53037950000726,,,,,,,,,,,,,,,,,,,,,,,,,,,,,,,sub-037,1.0,random_dot,59.95052880984449,
right,right,accuracy,,,,,0.0,1.0,1.0,0.0,12.0,0.0,24.0,1.0,460.7006094000535,,,,,,,,,460.68812489998527,461.900699299993,462.7015847000293,462.6854931999696,462.6855390999699,462.7015847000293,462.7015847000293,462.7015847000293,,464.65297389996704,right,1.0,33.94131759996526,,,,,,,,,,,,,,,,,,,,,,,,,,,,,,,sub-037,1.0,random_dot,59.95052880984449,
left,left,accuracy,,,,,0.0,1.0,1.0,0.0,12.0,1.0,25.0,0.0,464.66737280006055,,,,,,,,,464.6546826000558,464.76735700003337,465.56822600006126,465.55221320001874,465.5522557999939,465.56822600006126,465.56822600006126,465.56822600006126,,466.8697367999703,left,1.0,33.304016300011426,,,,,,,,,,,,,,,,,,,,,,,,,,,,,,,sub-037,1.0,random_dot,59.95052880984449,
left,left,accuracy,,,,,0.0,1.0,1.0,0.0,13.0,0.0,26.0,0.0,466.8838388000149,,,,,,,,,466.871455000015,468.0843017000007,468.88449460000265,468.8683604999678,468.8683928999817,468.88449460000265,468.88449460000265,468.88449460000265,,470.28621399996337,left,1.0,33.390285399975255,,,,,,,,,,,,,,,,,,,,,,,,,,,,,,,sub-037,1.0,random_dot,59.95052880984449,
right,right,accuracy,,,,,0.0,1.0,1.0,0.0,13.0,1.0,27.0,1.0,470.3009395999834,,,,,,,,,470.2879465000005,470.6510250000283,471.4519240000518,471.4352804999799,471.4353136999998,471.4519240000518,471.4519240000518,471.4519240000518,,473.48641570005566,right,1.0,34.03365480003413,,,,,,,,,,,,,,,,,,,,,,,,,,,,,,,sub-037,1.0,random_dot,59.95052880984449,
right,right,accuracy,,,,,0.0,1.0,1.0,0.0,14.0,0.0,28.0,1.0,473.500526900054,,,,,,,,,473.4881516000023,474.7006720000645,475.5018067000201,475.48545250005554,475.4854938000208,475.5018067000201,475.5018067000201,475.5018067000201,,477.65401010005735,right,1.0,34.14753430010751,,,,,,,,,,,,,,,,,,,,,,,,,,,,,,,sub-037,1.0,random_dot,59.95052880984449,
left,left,accuracy,,,,,0.0,1.0,1.0,0.0,14.0,1.0,29.0,0.0,477.6671708000358,,,,,,,,,477.65591530001257,477.7676361000631,478.5679848999716,478.5522567000007,478.5522909000283,478.5679848999716,478.5679848999716,478.5679848999716,,480.0198806000408,left,1.0,33.4541537000332,,,,,,,,,,,,,,,,,,,,,,,,,,,,,,,sub-037,1.0,random_dot,59.95052880984449,
left,left,accuracy,,,,,0.0,1.0,1.0,0.0,15.0,0.0,30.0,0.0,480.0340869000647,,,,,,,,,480.02165350003634,480.83463179995306,481.6345276000211,481.6182975999545,481.6183318999829,481.6345276000211,481.6345276000211,481.6345276000211,,482.71980309998617,left,1.0,33.08196150010917,,,,,,,,,,,,,,,,,,,,,,,,,,,,,,,sub-037,1.0,random_dot,59.95052880984449,
right,right,accuracy,,,,,0.0,1.0,1.0,0.0,15.0,1.0,31.0,1.0,482.73415729997214,,,,,,,,,482.7215835000388,483.5340385000454,484.3346110000275,484.3184265999589,484.318460599985,484.3346110000275,484.3346110000275,484.3346110000275,,486.1359195000259,right,1.0,33.79189570003655,,,,,,,,,,,,,,,,,,,,,,,,,,,,,,,sub-037,1.0,random_dot,59.95052880984449,
left,left,accuracy,,,,,0.0,1.0,1.0,0.0,16.0,0.0,32.0,0.0,486.1506758000469,,,,,,,,,486.137685899972,486.2513322000159,487.051211199956,487.0351371000288,487.035170200048,487.051211199956,487.051211199956,487.051211199956,,488.2865085999947,left,1.0,33.233599000028335,,,,,,,,,,,,,,,,,,,,,,,,,,,,,,,sub-037,1.0,random_dot,59.95052880984449,
right,right,accuracy,,,,,0.0,1.0,1.0,0.0,16.0,1.0,33.0,1.0,488.3006494999863,,,,,,,,,488.288266699994,489.5006008000346,490.3019308999647,490.2853518000338,490.28539440000895,490.3019308999647,490.3019308999647,490.3019308999647,,492.11927759996615,right,1.0,33.80636930000037,,,,,,,,,,,,,,,,,,,,,,,,,,,,,,,sub-037,1.0,random_dot,59.95052880984449,
right,right,accuracy,,,,,0.0,1.0,1.0,0.0,17.0,0.0,34.0,1.0,492.13475900003687,,,,,,,,,492.12166099995375,492.2341192000313,493.03481820004527,493.01948150002863,493.0195149000501,493.03481820004527,493.03481820004527,493.03481820004527,,494.7867458000546,right,1.0,33.7545038999524,,,,,,,,,,,,,,,,,,,,,,,,,,,,,,,sub-037,1.0,random_dot,59.95052880984449,
left,left,accuracy,,,,,0.0,1.0,1.0,0.0,17.0,1.0,35.0,0.0,494.8016475000186,,,,,,,,,494.7884534000186,495.1516134999693,495.9515528000193,495.9352715000277,495.9353067000629,495.9515528000193,495.9515528000193,495.9515528000193,,497.13608760002535,left,1.0,33.18489100004081,,,,,,,,,,,,,,,,,,,,,,,,,,,,,,,sub-037,1.0,random_dot,59.95052880984449,
right,right,accuracy,,,,,0.0,1.0,1.0,0.0,18.0,0.0,36.0,1.0,497.1504808999598,,,,,,,,,497.1377936999779,497.5010086999973,498.300955099985,498.2850779000437,498.28511209995486,498.300955099985,498.300955099985,498.300955099985,,499.9692161000567,right,1.0,33.65806349995546,,,,,,,,,,,,,,,,,,,,,,,,,,,,,,,sub-037,1.0,random_dot,59.95052880984449,
left,left,accuracy,,,,,0.0,1.0,1.0,0.0,18.0,1.0,37.0,0.0,499.9840769000584,,,,,,,,,499.9709925999632,500.33394979999866,501.13431870006025,501.1184836999746,501.1185167999938,501.13431870006025,501.13431870006025,501.13431870006025,,502.5195682999911,left,1.0,33.37660610000603,,,,,,,,,,,,,,,,,,,,,,,,,,,,,,,sub-037,1.0,random_dot,59.95052880984449,
left,left,accuracy,,,,,0.0,1.0,1.0,0.0,19.0,0.0,38.0,0.0,502.5337738000089,,,,,,,,,502.52127420005854,502.6341836999636,503.4345786999911,503.41836730006617,503.4184008999728,503.4345786999911,503.4345786999911,503.4345786999911,,506.47572800004855,left,1.0,35.03946730005555,,,,,,,,,,,,,,,,,,,,,,,,,,,,,,,sub-037,1.0,random_dot,59.95052880984449,
right,right,accuracy,,,,,0.0,1.0,1.0,0.0,19.0,1.0,39.0,1.0,506.4837404000573,,,,,,,,,506.47766590001993,507.2839515999658,508.0843234000495,508.0688046000432,508.0688385000685,508.0843234000495,508.0843234000495,508.0843234000495,,509.9199806000106,right,1.0,33.838069100049324,,,,,,,,,,,,,,,,,,,,,,,,,,,,,,,sub-037,1.0,random_dot,59.95052880984449,
left,left,accuracy,,,,,0.0,1.0,1.0,0.0,20.0,0.0,40.0,0.0,509.9336181000108,,,,,,,,,509.92185000004247,511.1337330000242,511.9344133000122,511.9180808999809,511.91812100005336,511.9344133000122,511.9344133000122,511.9344133000122,,513.336882899981,left,1.0,33.40503870008979,,,,,,,,,,,,,,,,,,,,,,,,,,,,,,,sub-037,1.0,random_dot,59.95052880984449,
right,right,accuracy,,,,,0.0,1.0,1.0,0.0,20.0,1.0,41.0,1.0,513.3507774999598,,,,,,,,,513.3385936999694,514.1543154000537,514.9676539000357,514.9514700999716,514.9515098000411,514.9676539000357,514.9676539000357,514.9676539000357,,516.5704509000061,right,1.0,33.606549600022845,,,,,,,,,,,,,,,,,,,,,,,,,,,,,,,sub-037,1.0,random_dot,59.95052880984449,
right,right,accuracy,,,,,0.0,1.0,1.0,0.0,21.0,0.0,42.0,1.0,516.5842178000603,,,,,,,,,516.5721401000628,516.9337143000448,517.7342670999933,517.718333399971,517.7183674999978,517.7342670999933,517.7342670999933,517.7342670999933,,520.8865586000029,right,1.0,35.15416170004755,,,,,,,,,,,,,,,,,,,,,,,,,,,,,,,sub-037,1.0,random_dot,59.95052880984449,
left,left,accuracy,,,,,0.0,1.0,1.0,0.0,21.0,1.0,43.0,0.0,520.9007149999961,,,,,,,,,520.8882909000386,522.1003894000314,522.9012040999951,522.8849222999997,522.8849560000235,522.9012040999951,522.9012040999951,522.9012040999951,,524.0359673000639,left,1.0,33.129179700044915,,,,,,,,,,,,,,,,,,,,,,,,,,,,,,,sub-037,1.0,random_dot,59.95052880984449,
right,right,accuracy,,,,,0.0,1.0,1.0,0.0,22.0,0.0,44.0,1.0,524.0502743000397,,,,,,,,,524.037726999959,525.2504313000245,526.0509673999622,526.0356375999982,526.0356695000082,526.0509673999622,526.0509673999622,526.0509673999622,,527.6524373999564,right,1.0,33.59396139997989,,,,,,,,,,,,,,,,,,,,,,,,,,,,,,,sub-037,1.0,random_dot,59.95052880984449,
left,left,accuracy,,,,,0.0,1.0,1.0,0.0,22.0,1.0,45.0,0.0,527.6668554999633,,,,,,,,,527.6541665999684,528.8680037000449,529.6679216000484,529.6515524999704,529.6515968999593,529.6679216000484,529.6679216000484,529.6679216000484,,531.2529044999974,left,1.0,33.57857740006875,,,,,,,,,,,,,,,,,,,,,,,,,,,,,,,sub-037,1.0,random_dot,59.95052880984449,
left,left,accuracy,,,,,0.0,1.0,1.0,0.0,23.0,0.0,46.0,0.0,531.2680365999695,,,,,,,,,531.2546378000407,532.0674192999722,532.8679034999805,532.8520671000006,532.8521091999719,532.8679034999805,532.8679034999805,532.8679034999805,,533.8860905000474,left,1.0,33.02063130005263,,,,,,,,,,,,,,,,,,,,,,,,,,,,,,,sub-037,1.0,random_dot,59.95052880984449,
right,right,accuracy,,,,,0.0,1.0,1.0,0.0,23.0,1.0,47.0,1.0,533.9004568000091,,,,,,,,,533.8877999000251,535.1005132000428,535.9011228999589,535.8855549000436,535.8855881000636,535.9011228999589,535.9011228999589,535.9011228999589,,537.4026094999863,right,1.0,33.502503099967726,,,,,,,,,,,,,,,,,,,,,,,,,,,,,,,sub-037,1.0,random_dot,59.95052880984449,
left,left,accuracy,,,,,0.0,1.0,1.0,0.0,24.0,0.0,48.0,0.0,537.4169423000421,,,,,,,,,537.4044881999725,537.5170272999676,538.3176923999563,538.3014774000039,538.3015192999737,538.3176923999563,538.3176923999563,538.3176923999563,,539.3196281000273,left,1.0,32.99816429999191,,,,,,,,,,,,,,,,,,,,,,,,,,,,,,,sub-037,1.0,random_dot,59.95052880984449,
right,right,accuracy,,,,,0.0,1.0,1.0,0.0,24.0,1.0,49.0,1.0,539.3337940999772,,,,,,,,,539.3221670000348,539.684020100045,540.4845251999795,540.4684879999841,540.4685287000611,540.4845251999795,540.4845251999795,540.4845251999795,,542.0692769000307,right,1.0,33.583739100024104,,,,,,,,,,,,,,,,,,,,,,,,,,,,,,,sub-037,1.0,random_dot,59.95052880984449,
right,right,accuracy,,,,,0.0,1.0,1.0,0.0,25.0,0.0,50.0,1.0,542.0835699000163,,,,,,,,,542.0710222000489,542.4344886000035,543.2341447999934,543.2180824000388,543.2181158000603,543.2341447999934,543.2341447999934,543.2341447999934,,546.90244970005,right,1.0,35.66702329996042,,,,,,,,,,,,,,,,,,,,,,,,,,,,,,,sub-037,1.0,random_dot,59.95052880984449,
left,left,accuracy,,,,,0.0,1.0,1.0,0.0,25.0,1.0,51.0,0.0,546.9169353999896,,,,,,,,,546.9042234000517,547.717068900005,548.5175449000672,548.5015090999659,548.5015501000453,548.5175449000672,548.5175449000672,548.5175449000672,,552.1081730000442,right,0.0,35.57631270005368,,,,,,,,,,,,,,,,,,,,,,,,,,,,,,,sub-037,1.0,random_dot,59.95052880984449,
left,left,accuracy,,,,,0.0,1.0,1.0,0.0,26.0,0.0,52.0,0.0,552.1165393999545,,,,,,,,,552.1101280000294,552.2173157000216,553.0173858000198,553.0015686999541,553.0016008999664,553.0173858000198,553.0173858000198,553.0173858000198,,554.9193819999928,left,1.0,33.89424240007065,,,,,,,,,,,,,,,,,,,,,,,,,,,,,,,sub-037,1.0,random_dot,59.95052880984449,
right,right,accuracy,,,,,0.0,1.0,1.0,0.0,26.0,1.0,53.0,1.0,554.9336248000618,,,,,,,,,554.9213157000486,556.1340074000182,556.9342679999536,556.9184188999934,556.9184601999586,556.9342679999536,556.9342679999536,556.9342679999536,,559.3700100999558,left,0.0,34.436385400011204,,,,,,,,,,,,,,,,,,,,,,,,,,,,,,,sub-037,1.0,random_dot,59.95052880984449,
left,left,accuracy,,,,,0.0,1.0,1.0,0.0,27.0,0.0,54.0,0.0,559.3834808999673,,,,,,,,,559.3718568000477,559.7339226000477,560.5344982000533,560.5187217000639,560.5187640000368,560.5344982000533,560.5344982000533,560.5344982000533,,563.219579400029,left,1.0,34.685071900021285,,,,,,,,,,,,,,,,,,,,,,,,,,,,,,,sub-037,1.0,random_dot,59.95052880984449,
right,right,accuracy,,,,,0.0,1.0,1.0,0.0,27.0,1.0,55.0,1.0,563.2337613999844,,,,,,,,,563.2215197000187,563.5836261999793,564.3839982000645,564.3686755000381,564.3687198000262,564.3839982000645,564.3839982000645,564.3839982000645,,567.6360039999709,left,0.0,35.25340529996902,,,,,,,,,,,,,,,,,,,,,,,,,,,,,,,sub-037,1.0,random_dot,59.95052880984449,
left,left,accuracy,,,,,0.0,1.0,1.0,0.0,28.0,0.0,56.0,0.0,567.6502121000085,,,,,,,,,567.6377181999851,567.7503668999998,568.5508379000239,568.5347037999891,568.5347410000395,568.5508379000239,568.5508379000239,568.5508379000239,,570.2686395000201,left,1.0,33.71665790001862,,,,,,,,,,,,,,,,,,,,,,,,,,,,,,,sub-037,1.0,random_dot,59.95052880984449,
right,right,accuracy,,,,,0.0,1.0,1.0,0.0,28.0,1.0,57.0,1.0,570.2834463999607,,,,,,,,,570.270600900054,571.4834790000459,572.2842479000101,572.2680449000327,572.2680781000527,572.2842479000101,572.2842479000101,572.2842479000101,,573.902353500016,right,1.0,33.60769390000496,,,,,,,,,,,,,,,,,,,,,,,,,,,,,,,sub-037,1.0,random_dot,59.95052880984449,
left,left,accuracy,,,,,0.0,1.0,1.0,0.0,29.0,0.0,58.0,0.0,573.9169561000308,,,,,,,,,573.9041250000009,575.1173090999946,575.9172716999892,575.9015139000257,575.9015578000108,575.9172716999892,575.9172716999892,575.9172716999892,,577.9525401999708,left,1.0,34.02836779993959,,,,,,,,,,,,,,,,,,,,,,,,,,,,,,,sub-037,1.0,random_dot,59.95052880984449,
right,right,accuracy,,,,,0.0,1.0,1.0,0.0,29.0,1.0,59.0,1.0,577.9665937999962,,,,,,,,,577.954499399988,578.7671559000155,579.5672204999719,579.5514484000159,579.5514920999995,579.5672204999719,579.5672204999719,579.5672204999719,,582.2362565000076,left,0.0,34.67139799997676,,,,,,,,,,,,,,,,,,,,,,,,,,,,,,,sub-037,1.0,random_dot,59.95052880984449,
,,accuracy,,,,,0.0,1.0,1.0,0.0,,,,,,,,,,,,,,,,,,,,,,,,,,,,,,,,,,,,,,,,,,,,,,,,,,,,,,,,,sub-037,1.0,random_dot,59.95052880984449,
,,,,,,,,,,,,,,,,,,,,,,,,,,,,,,,,,,,,,,,,,,,,,,,,,,,,,,,,,,,,,,,582.2375149000436,582.2508695999859,587.2506130000111,587.2347363999579,sub-037,,,,
