direction,corrAns,randomInstr,practice_trials.thisRepN,practice_trials.thisTrialN,practice_trials.thisN,practice_trials.thisIndex,instr_trials.thisRepN,instr_trials.thisTrialN,instr_trials.thisN,instr_trials.thisIndex,test_trials.thisRepN,test_trials.thisTrialN,test_trials.thisN,test_trials.thisIndex,thisRow.t,notes,general_instruction.started,textGeneralInstr.started,respGeneralInstr.started,general_instruction.stopped,respGeneralInstr.keys,respGeneralInstr.rt,respGeneralInstr.duration,ITI.started,fixcross.started,fixcross.stopped,ITI.stopped,dots.started,backgroundDots.started,stimulusDots.started,respDots.started,dots.stopped,respDots.keys,respDots.corr,respDots.rt,respDots.duration,feedback.started,textFeedback.started,feedback.stopped,textFeedback.stopped,info.started,textInfo.started,keyRespInfo.started,info.stopped,keyRespInfo.keys,keyRespInfo.rt,keyRespInfo.duration,test_instruction.started,textTestInstr.started,respTestInstr.started,test_instruction.stopped,respTestInstr.keys,respTestInstr.rt,respTestInstr.duration,random_instruction.started,textRandomInstr.started,respRandomInstr.started,random_instruction.stopped,respRandomInstr.keys,respRandomInstr.rt,respRandomInstr.duration,goodbye.started,textGoodbye.started,goodbye.stopped,participant,session,expName,frameRate,Unnamed: 72
,,,,,,,,,,,,,,,,,0.0059316999977454,0.042082300002221,0.042082300002221,21.40375440000207,space,6369.496467499994,,,,,,,,,,,,,,,,,,,,,,,,,,,,,,,,,,,,,,,,,,,sub-129,1.0,random_dot,59.91080479118055,
right,right,,0.0,0.0,0.0,1.0,,,,,,,,,21.47091880001244,,,,,,,,,21.46027470001718,21.76866299999529,22.570015000004787,22.55375809999532,22.55379790000734,22.570015000004787,22.570015000004787,22.570015000004787,24.556772800016915,right,1.0,6350.118285700009,,24.55907650000881,24.579308300017143,25.0715725000191,,,,,,,,,,,,,,,,,,,,,,,,,,sub-129,1.0,random_dot,59.91080479118055,
left,left,,0.0,1.0,1.0,0.0,,,,,,,,,25.087716500012903,,,,,,,,,25.07235080000828,26.271952900016917,27.07349239999894,27.057163500023307,27.057204100012317,27.07349239999894,27.07349239999894,27.07349239999894,28.744029299996328,left,1.0,6349.805238000001,,28.744925700011663,28.75706060000812,29.24159600000712,29.257538500009105,,,,,,,,,,,,,,,,,,,,,,,,,sub-129,1.0,random_dot,59.91080479118055,
left,left,,1.0,0.0,2.0,0.0,,,,,,,,,29.257538500009105,,,,,,,,,29.24225650000153,29.35757870000089,30.1584202000231,30.141755899996497,30.14178620002349,30.1584202000231,30.1584202000231,30.1584202000231,31.31154450000031,left,1.0,6349.288697900018,,31.31289500001003,31.32525500000338,31.81023790000472,31.825936500012176,,,,,,,,,,,,,,,,,,,,,,,,,sub-129,1.0,random_dot,59.91080479118055,
right,right,,1.0,1.0,3.0,1.0,,,,,,,,,31.825936500012176,,,,,,,,,31.810902900004294,32.17585040000267,32.97730940001202,32.96118030001526,32.96121989999665,32.97730940001202,32.97730940001202,32.97730940001202,33.71252800000366,right,1.0,6348.871004899993,,33.71292380001978,33.72712330002105,34.211836200003745,34.22758140001679,,,,,,,,,,,,,,,,,,,,,,,,,sub-129,1.0,random_dot,59.91080479118055,
left,left,,2.0,0.0,4.0,0.0,,,,,,,,,34.22758140001679,,,,,,,,,34.21257480001077,35.42837999999756,36.22928840000532,36.21454100002302,36.21459220000543,36.22928840000532,36.22928840000532,36.22928840000532,36.93103200002224,left,1.0,6348.828542600008,,36.93155450001359,36.945827100018505,37.43083940001088,37.446323700016364,,,,,,,,,,,,,,,,,,,,,,,,,sub-129,1.0,random_dot,59.91080479118055,
right,right,,2.0,1.0,5.0,1.0,,,,,,,,,37.446323700016364,,,,,,,,,37.43158880001283,37.796798299998045,38.59775919999811,38.58183999999892,38.58187600001111,38.59775919999811,38.59775919999811,38.59775919999811,39.68274730001576,left,0.0,6349.219494500023,,39.68324800001574,39.69937960000243,40.19842620001873,,,,,,,,,,,,,,,,,,,,,,,,,,sub-129,1.0,random_dot,59.91080479118055,
right,right,,3.0,0.0,6.0,1.0,,,,,,,,,40.21497070000623,,,,,,,,,40.19915709999623,40.9989276000124,41.79974590000347,41.78325490001589,41.783290999999736,41.79974590000347,41.79974590000347,41.79974590000347,42.96815230001812,right,1.0,6349.297909599991,,42.96854170001461,42.98292190002394,43.46743459999561,43.48355050000828,,,,,,,,,,,,,,,,,,,,,,,,,sub-129,1.0,random_dot,59.91080479118055,
left,left,,3.0,1.0,7.0,0.0,,,,,,,,,43.48355050000828,,,,,,,,,43.46809609999764,44.28388730000006,45.08513220000896,45.06836840001051,45.06839110000874,45.08513220000896,45.08513220000896,45.08513220000896,45.95485310000368,left,1.0,6349.002340300009,,45.95589559999644,45.96871939999983,46.45387110000593,46.46908400001121,,,,,,,,,,,,,,,,,,,,,,,,,sub-129,1.0,random_dot,59.91080479118055,
left,left,,4.0,0.0,8.0,0.0,,,,,,,,,46.46908400001121,,,,,,,,,46.45455439999933,46.819509399996605,47.62061810001615,47.604076800023904,47.60413220000919,47.62061810001615,47.62061810001615,47.62061810001615,48.75669760000892,left,1.0,6349.267105400009,,48.75750090001384,48.77098110000952,49.25572939999984,49.27100800001063,,,,,,,,,,,,,,,,,,,,,,,,,sub-129,1.0,random_dot,59.91080479118055,
right,right,,4.0,1.0,9.0,1.0,,,,,,,,,49.27100800001063,,,,,,,,,49.25625440001022,50.47201160000986,51.27332259999821,51.256959699996514,51.256997300020885,51.27332259999821,51.27332259999821,51.27332259999821,51.841403700003866,right,1.0,6348.693964700011,,51.841946300002746,51.85620110001764,52.34079450002173,52.35645020002266,,,,,,,,,,,,,,,,,,,,,,,,,sub-129,1.0,random_dot,59.91080479118055,
left,left,,5.0,0.0,10.0,0.0,,,,,,,,,52.35645020002266,,,,,,,,,52.34153590002097,53.15722920000553,53.95848820000538,53.94195720000425,53.94199300001492,53.95848820000538,53.95848820000538,53.95848820000538,54.61113600002136,left,1.0,6348.779783700011,,54.61217790000956,54.624988600000506,55.10997350001708,55.125396899995394,,,,,,,,,,,,,,,,,,,,,,,,,sub-129,1.0,random_dot,59.91080479118055,
right,right,,5.0,1.0,11.0,1.0,,,,,,,,,55.125396899995394,,,,,,,,,55.110814600018784,55.475608100008685,56.27675580000505,56.26059010002064,56.26062730001286,56.27675580000505,56.27675580000505,56.27675580000505,56.96259820001433,right,1.0,6348.821298099996,,56.96342260000529,56.97659190002014,57.46091590001015,57.476631099998485,,,,,,,,,,,,,,,,,,,,,,,,,sub-129,1.0,random_dot,59.91080479118055,
right,right,,6.0,0.0,12.0,1.0,,,,,,,,,57.476631099998485,,,,,,,,,57.46132600001874,58.67768540000543,59.478541700023925,59.46189180001966,59.46191640000325,59.478541700023925,59.478541700023925,59.478541700023925,60.4480325000186,right,1.0,6349.099105300003,,60.44883450001362,60.46227859999635,60.9469355000183,60.96274740001536,,,,,,,,,,,,,,,,,,,,,,,,,sub-129,1.0,random_dot,59.91080479118055,
left,left,,6.0,1.0,13.0,0.0,,,,,,,,,60.96274740001536,,,,,,,,,60.94763229999808,61.3131921000022,62.11430280000786,62.097959000006085,62.09799940002267,62.11430280000786,62.11430280000786,62.11430280000786,62.81673439999577,left,1.0,6348.823226600012,,62.81764510000357,62.83085980001488,63.315430300019216,63.331254500022624,,,,,,,,,,,,,,,,,,,,,,,,,sub-129,1.0,random_dot,59.91080479118055,
left,left,,7.0,0.0,14.0,0.0,,,,,,,,,63.331254500022624,,,,,,,,,63.31617820000975,64.13170590001391,64.9328895000217,64.91664239999955,64.91668039999786,64.9328895000217,64.9328895000217,64.9328895000217,65.83576410001842,left,1.0,6349.024535500008,,65.83685429999605,65.84928350002156,66.33414869999979,66.34968220000155,,,,,,,,,,,,,,,,,,,,,,,,,sub-129,1.0,random_dot,59.91080479118055,
right,right,,7.0,1.0,15.0,1.0,,,,,,,,,66.34968220000155,,,,,,,,,66.33479690001695,66.69993520001299,67.50130740000168,67.48504369999864,67.48507970001083,67.50130740000168,67.50130740000168,67.50130740000168,68.30361860000994,right,1.0,6348.9266221,,68.30445650001639,68.31779680002364,68.80273060000036,68.8181594000198,,,,,,,,,,,,,,,,,,,,,,,,,sub-129,1.0,random_dot,59.91080479118055,
left,left,,8.0,0.0,16.0,0.0,,,,,,,,,68.8181594000198,,,,,,,,,68.80341079999926,68.9179853000096,69.71945020000567,69.70312380001997,69.7031602000061,69.71945020000567,69.71945020000567,69.71945020000567,70.50540409999667,left,1.0,6348.908681700006,,70.50631920000887,70.51951070001815,71.00408350001089,71.01959640000132,,,,,,,,,,,,,,,,,,,,,,,,,sub-129,1.0,random_dot,59.91080479118055,
right,right,,8.0,1.0,17.0,1.0,,,,,,,,,71.01959640000132,,,,,,,,,71.00482280002325,71.36997990001692,72.17106900000363,72.15510950001772,72.15514909999911,72.17106900000363,72.17106900000363,72.17106900000363,72.89043180001318,right,1.0,6348.847293300001,,72.89138559999992,72.90436149999732,73.3890667000087,73.4046573000087,,,,,,,,,,,,,,,,,,,,,,,,,sub-129,1.0,random_dot,59.91080479118055,
left,left,,9.0,0.0,18.0,0.0,,,,,,,,,73.4046573000087,,,,,,,,,73.38970670002163,73.50476430001436,74.30602980000549,74.28974800001015,74.28978230000939,74.30602980000549,74.30602980000549,74.30602980000549,74.90860580001026,left,1.0,6348.733791300008,,74.90967029999592,74.9221891000052,75.40721960001974,75.42261790001066,,,,,,,,,,,,,,,,,,,,,,,,,sub-129,1.0,random_dot,59.91080479118055,
right,right,,9.0,1.0,19.0,1.0,,,,,,,,,75.42261790001066,,,,,,,,,75.4078355000238,76.2231292000215,77.0244825000118,77.00819920000504,77.00824019999709,77.0244825000118,77.0244825000118,77.0244825000118,77.74362880000263,right,1.0,6348.844163300004,,77.74452550002025,77.75762800002121,78.24246510001831,78.2579573999974,,,,,,,,,,,,,,,,,,,,,,,,,sub-129,1.0,random_dot,59.91080479118055,
,,,,,,,,,,,,,,,,,,,,,,,,,,,,,,,,,,,,,,,,,78.24257220001891,78.2579573999974,78.2579573999974,85.29829760000575,space,6355.161682900012,,,,,,,,,,,,,,,,,,,sub-129,1.0,random_dot,59.91080479118055,
,,,,,,,,,,,,,,,,,,,,,,,,,,,,,,,,,,,,,,,,,,,,,,,,85.29836129999603,85.3129952000163,85.3129952000163,91.06944520000252,space,6353.886099900003,,,,,,,,,,,,sub-129,1.0,random_dot,59.91080479118055,
left,left,speed,,,,,0.0,0.0,0.0,1.0,0.0,0.0,0.0,0.0,93.95448760001456,,,,,,,,,93.94896940002218,95.15299460000824,95.95444500001032,95.93825639999704,95.93830280000113,95.95444500001032,95.95444500001032,95.95444500001032,96.57413230001112,left,1.0,6348.754802700016,,,,,,,,,,,,,,,,,,,,91.0775016999978,91.10729529999662,91.10729529999662,93.93770780001068,space,6350.951261000009,,,,,sub-129,1.0,random_dot,59.91080479118055,
right,right,speed,,,,,0.0,0.0,0.0,1.0,0.0,1.0,1.0,1.0,96.5875134000089,,,,,,,,,96.5767530000012,96.93756819999544,97.7389617000008,97.72264580000774,97.72268649999752,97.7389617000008,97.7389617000008,97.7389617000008,98.24190490000184,right,1.0,6348.631104600005,,,,,,,,,,,,,,,,,,,,,,,,,,,,,,sub-129,1.0,random_dot,59.91080479118055,
right,right,speed,,,,,0.0,0.0,0.0,1.0,1.0,0.0,2.0,1.0,98.2550858000177,,,,,,,,,98.24367970001184,98.60540210001636,99.40673240000616,99.3903799999971,99.39041680001536,99.40673240000616,99.40673240000616,99.40673240000616,100.24276480000115,right,1.0,6348.961939000001,,,,,,,,,,,,,,,,,,,,,,,,,,,,,,sub-129,1.0,random_dot,59.91080479118055,
left,left,speed,,,,,0.0,0.0,0.0,1.0,1.0,1.0,3.0,0.0,100.25647250001202,,,,,,,,,100.24456380002084,101.05716810000013,101.85811100000863,101.84196550000344,101.84200910001528,101.85811100000863,101.85811100000863,101.85811100000863,102.52640080000856,left,1.0,6348.800532099995,,,,,,,,,,,,,,,,,,,,,,,,,,,,,,sub-129,1.0,random_dot,59.91080479118055,
left,left,speed,,,,,0.0,0.0,0.0,1.0,2.0,0.0,4.0,0.0,102.54122820001794,,,,,,,,,102.52754310000456,102.64099070001976,103.44282240001483,103.42613619999612,103.42617250001058,103.44282240001483,103.44282240001483,103.44282240001483,104.7959964000038,right,0.0,6349.486831100017,,,,,,,,,,,,,,,,,,,,,,,,,,,,,,sub-129,1.0,random_dot,59.91080479118055,
right,right,speed,,,,,0.0,0.0,0.0,1.0,2.0,1.0,5.0,1.0,104.80969080000068,,,,,,,,,104.79770769999595,106.01031270000384,106.81190100000822,106.79531840002164,106.79535900001063,106.81190100000822,106.81190100000822,106.81190100000822,108.66525499999987,right,1.0,6349.987104,,,,,,,,,,,,,,,,,,,,,,,,,,,,,,sub-129,1.0,random_dot,59.91080479118055,
right,right,speed,,,,,0.0,0.0,0.0,1.0,3.0,0.0,6.0,1.0,108.67874870001106,,,,,,,,,108.66698219999672,109.8799919000012,110.68099730001995,110.66490360000172,110.6649413999985,110.68099730001995,110.68099730001995,110.68099730001995,111.73452630001702,left,0.0,6349.188241300028,,,,,,,,,,,,,,,,,,,,,,,,,,,,,,sub-129,1.0,random_dot,59.91080479118055,
left,left,speed,,,,,0.0,0.0,0.0,1.0,3.0,1.0,7.0,0.0,111.7478448000038,,,,,,,,,111.73639440000989,112.54831159999594,113.3497796000156,113.33359799999744,113.33363780000946,113.3497796000156,113.3497796000156,113.3497796000156,114.81949380002334,left,1.0,6349.599689600029,,,,,,,,,,,,,,,,,,,,,,,,,,,,,,sub-129,1.0,random_dot,59.91080479118055,
left,left,speed,,,,,0.0,0.0,0.0,1.0,4.0,0.0,8.0,0.0,114.8331707000034,,,,,,,,,114.82124670001213,114.93342899999698,115.73469800001476,115.7183415000036,115.71838160001788,115.73469800001476,115.73469800001476,115.73469800001476,116.98764289999964,left,1.0,6349.384556900011,,,,,,,,,,,,,,,,,,,,,,,,,,,,,,sub-129,1.0,random_dot,59.91080479118055,
right,right,speed,,,,,0.0,0.0,0.0,1.0,4.0,1.0,9.0,1.0,117.0012595000153,,,,,,,,,116.98955150000984,117.35146430000896,118.1529295000073,118.13654560002033,118.13661470002262,118.1529295000073,118.1529295000073,118.1529295000073,118.93906860001152,right,1.0,6348.916428500001,,,,,,,,,,,,,,,,,,,,,,,,,,,,,,sub-129,1.0,random_dot,59.91080479118055,
left,left,speed,,,,,0.0,0.0,0.0,1.0,5.0,0.0,10.0,0.0,118.95264650002356,,,,,,,,,118.9409064000065,119.7532421000069,120.55440090000047,120.53793920000317,120.53797600002144,120.55440090000047,120.55440090000047,120.55440090000047,121.2573881999997,left,1.0,6348.835433100001,,,,,,,,,,,,,,,,,,,,,,,,,,,,,,sub-129,1.0,random_dot,59.91080479118055,
right,right,speed,,,,,0.0,0.0,0.0,1.0,5.0,1.0,11.0,1.0,121.27106709999498,,,,,,,,,121.25919530002284,121.37096530001143,122.1724851000181,122.15627580002185,122.1563165000116,122.1724851000181,122.1724851000181,122.1724851000181,122.8079697000212,right,1.0,6348.756282999995,,,,,,,,,,,,,,,,,,,,,,,,,,,,,,sub-129,1.0,random_dot,59.91080479118055,
left,left,speed,,,,,0.0,0.0,0.0,1.0,6.0,0.0,12.0,0.0,122.82220520000556,,,,,,,,,122.80970230000094,123.17232010001317,123.97372950002318,123.95722999999998,123.9572703000158,123.97372950002318,123.97372950002318,123.97372950002318,124.375959099998,left,1.0,6348.536684199993,,,,,,,,,,,,,,,,,,,,,,,,,,,,,,sub-129,1.0,random_dot,59.91080479118055,
right,right,speed,,,,,0.0,0.0,0.0,1.0,6.0,1.0,13.0,1.0,124.38981580000836,,,,,,,,,124.37795610001194,124.74030289999791,125.54162720000022,125.52510260001873,125.52514230000088,125.54162720000022,125.54162720000022,125.54162720000022,126.26053670002148,right,1.0,6348.848602200014,,,,,,,,,,,,,,,,,,,,,,,,,,,,,,sub-129,1.0,random_dot,59.91080479118055,
right,right,speed,,,,,0.0,0.0,0.0,1.0,7.0,0.0,14.0,1.0,126.27446340001188,,,,,,,,,126.2626323000004,127.4753685000178,128.2765603000007,128.2600184000039,128.2600575000106,128.2765603000007,128.2765603000007,128.2765603000007,130.13001250001253,right,1.0,6349.983411699999,,,,,,,,,,,,,,,,,,,,,,,,,,,,,,sub-129,1.0,random_dot,59.91080479118055,
left,left,speed,,,,,0.0,0.0,0.0,1.0,7.0,1.0,15.0,0.0,130.14383860002272,,,,,,,,,130.13212449999992,130.24403670002357,131.0453242000076,131.02929279999807,131.02933320001466,131.0453242000076,131.0453242000076,131.0453242000076,132.0312565000204,left,1.0,6349.115109800012,,,,,,,,,,,,,,,,,,,,,,,,,,,,,,sub-129,1.0,random_dot,59.91080479118055,
right,right,speed,,,,,0.0,0.0,0.0,1.0,8.0,0.0,16.0,1.0,132.04516190002323,,,,,,,,,132.03290890000062,132.39534930000082,133.19689240001026,133.18019970000023,133.18023700002232,133.19689240001026,133.19689240001026,133.19689240001026,134.1999644000025,right,1.0,6349.133072900004,,,,,,,,,,,,,,,,,,,,,,,,,,,,,,sub-129,1.0,random_dot,59.91080479118055,
left,left,speed,,,,,0.0,0.0,0.0,1.0,8.0,1.0,17.0,0.0,134.21326960000442,,,,,,,,,134.20174380001845,135.41396220002207,136.2153876000084,136.19886520001455,136.1989031000121,136.2153876000084,136.2153876000084,136.2153876000084,137.08446780001395,left,1.0,6348.99435980001,,,,,,,,,,,,,,,,,,,,,,,,,,,,,,sub-129,1.0,random_dot,59.91080479118055,
left,left,speed,,,,,0.0,0.0,0.0,1.0,9.0,0.0,18.0,0.0,137.09846420001122,,,,,,,,,137.086294800014,137.19868000000133,137.99982440000167,137.9836697000137,137.98370730000897,137.99982440000167,137.99982440000167,137.99982440000167,139.08652810001513,left,1.0,6349.221293400013,,,,,,,,,,,,,,,,,,,,,,,,,,,,,,sub-129,1.0,random_dot,59.91080479118055,
right,right,speed,,,,,0.0,0.0,0.0,1.0,9.0,1.0,19.0,1.0,139.09994850002113,,,,,,,,,139.0883157000062,139.90051860001404,140.7019541000191,140.6854377000127,140.68547590001253,140.7019541000191,140.7019541000191,140.7019541000191,141.47046710000723,right,1.0,6348.897166599985,,,,,,,,,,,,,,,,,,,,,,,,,,,,,,sub-129,1.0,random_dot,59.91080479118055,
left,left,speed,,,,,0.0,0.0,0.0,1.0,10.0,0.0,20.0,0.0,141.48498720000498,,,,,,,,,141.47195090001333,141.83546800000477,142.6364171000023,142.62039110000478,142.6204357999959,142.6364171000023,142.6364171000023,142.6364171000023,143.30540310000652,left,1.0,6348.792208600004,,,,,,,,,,,,,,,,,,,,,,,,,,,,,,sub-129,1.0,random_dot,59.91080479118055,
right,right,speed,,,,,0.0,0.0,0.0,1.0,10.0,1.0,21.0,1.0,143.3194696000137,,,,,,,,,143.30703039999935,144.52062640001532,145.3217249000154,145.30527730000904,145.3053179999988,145.3217249000154,145.3217249000154,145.3217249000154,146.0241601000016,right,1.0,6348.828209600004,,,,,,,,,,,,,,,,,,,,,,,,,,,,,,sub-129,1.0,random_dot,59.91080479118055,
right,right,speed,,,,,0.0,0.0,0.0,1.0,11.0,0.0,22.0,1.0,146.03822509999736,,,,,,,,,146.0258845000062,146.83883180000703,147.64015770002152,147.62372470000992,147.62376519999816,147.64015770002152,147.64015770002152,147.64015770002152,148.2761204999988,right,1.0,6348.77008290001,,,,,,,,,,,,,,,,,,,,,,,,,,,,,,sub-129,1.0,random_dot,59.91080479118055,
left,left,speed,,,,,0.0,0.0,0.0,1.0,11.0,1.0,23.0,0.0,148.2898912000237,,,,,,,,,148.2779225000122,148.63992070002132,149.44130140001653,149.42503810001654,149.4250783000025,149.44130140001653,149.44130140001653,149.44130140001653,150.0437563000014,left,1.0,6348.728090000019,,,,,,,,,,,,,,,,,,,,,,,,,,,,,,sub-129,1.0,random_dot,59.91080479118055,
right,right,speed,,,,,0.0,0.0,0.0,1.0,12.0,0.0,24.0,1.0,150.05746480001835,,,,,,,,,150.04602030001115,151.25826120001148,152.05981360000442,152.04345600001398,152.04349310000543,152.05981360000442,152.05981360000442,152.05981360000442,152.96234410000034,right,1.0,6349.029116400023,,,,,,,,,,,,,,,,,,,,,,,,,,,,,,sub-129,1.0,random_dot,59.91080479118055,
left,left,speed,,,,,0.0,0.0,0.0,1.0,12.0,1.0,25.0,0.0,152.97620930001722,,,,,,,,,152.9643584000005,154.17715420000604,154.978503499995,154.96197210001992,154.962010200019,154.978503499995,154.978503499995,154.978503499995,155.6973971000116,left,1.0,6348.841827800003,,,,,,,,,,,,,,,,,,,,,,,,,,,,,,sub-129,1.0,random_dot,59.91080479118055,
left,left,speed,,,,,0.0,0.0,0.0,1.0,13.0,0.0,26.0,0.0,155.71155239999644,,,,,,,,,155.6990347999963,156.0616498000163,156.86308270000154,156.84691980000937,156.8469924000092,156.86308270000154,156.86308270000154,156.86308270000154,157.59907840000233,left,1.0,6348.867286599998,,,,,,,,,,,,,,,,,,,,,,,,,,,,,,sub-129,1.0,random_dot,59.91080479118055,
right,right,speed,,,,,0.0,0.0,0.0,1.0,13.0,1.0,27.0,1.0,157.61284159999923,,,,,,,,,157.60084990001633,158.4132288999972,159.21473470001365,159.19867020001402,159.19870989999615,159.21473470001365,159.21473470001365,159.21473470001365,159.81712250001146,right,1.0,6348.735875200015,,,,,,,,,,,,,,,,,,,,,,,,,,,,,,sub-129,1.0,random_dot,59.91080479118055,
right,right,speed,,,,,0.0,0.0,0.0,1.0,14.0,0.0,28.0,1.0,159.83093120000558,,,,,,,,,159.8188145000022,161.03172080000513,161.83322000000044,161.81673400002182,161.81677530001616,161.83322000000044,161.83322000000044,161.83322000000044,162.4855871000036,right,1.0,6348.787545900006,,,,,,,,,,,,,,,,,,,,,,,,,,,,,,sub-129,1.0,random_dot,59.91080479118055,
left,left,speed,,,,,0.0,0.0,0.0,1.0,14.0,1.0,29.0,0.0,162.4995765000058,,,,,,,,,162.48741640002115,162.5995860999974,163.4010244999954,163.38450750001357,163.38454719999572,163.4010244999954,163.4010244999954,163.4010244999954,163.98647940001683,left,1.0,6348.7094392,,,,,,,,,,,,,,,,,,,,,,,,,,,,,,sub-129,1.0,random_dot,59.91080479118055,
right,right,speed,,,,,0.0,0.0,0.0,1.0,15.0,0.0,30.0,1.0,164.0002916000085,,,,,,,,,163.9881902000052,164.1006748000218,164.90198860000237,164.88561050000135,164.8856541000132,164.90198860000237,164.90198860000237,164.90198860000237,165.5546885000076,right,1.0,6348.778451800026,,,,,,,,,,,,,,,,,,,,,,,,,,,,,,sub-129,1.0,random_dot,59.91080479118055,
left,left,speed,,,,,0.0,0.0,0.0,1.0,15.0,1.0,31.0,0.0,165.5685938000097,,,,,,,,,165.55652179999743,166.368830899999,167.17036590000498,167.15399839999736,167.15403940001852,167.17036590000498,167.17036590000498,167.17036590000498,167.68945820000954,left,1.0,6348.639440500032,,,,,,,,,,,,,,,,,,,,,,,,,,,,,,sub-129,1.0,random_dot,59.91080479118055,
left,left,speed,,,,,0.0,0.0,0.0,1.0,16.0,0.0,32.0,0.0,167.70325300001423,,,,,,,,,167.69135130001814,168.5038343000051,169.3051251000143,169.2889703999972,169.28901110001607,169.3051251000143,169.3051251000143,169.3051251000143,169.89082200001576,left,1.0,6348.715019700001,,,,,,,,,,,,,,,,,,,,,,,,,,,,,,sub-129,1.0,random_dot,59.91080479118055,
right,right,speed,,,,,0.0,0.0,0.0,1.0,16.0,1.0,33.0,1.0,169.90480820002267,,,,,,,,,169.89260720001766,170.00459250001586,170.80588890000945,170.78981290000957,170.7898647999973,170.80588890000945,170.80588890000945,170.80588890000945,171.4754293000151,right,1.0,6348.794329299999,,,,,,,,,,,,,,,,,,,,,,,,,,,,,,sub-129,1.0,random_dot,59.91080479118055,
right,right,speed,,,,,0.0,0.0,0.0,1.0,17.0,0.0,34.0,1.0,171.48927360001835,,,,,,,,,171.47719190001953,172.68996499999776,173.49137400000473,173.47493620001478,173.47497310000472,173.49137400000473,173.49137400000473,173.49137400000473,173.99433060002048,left,0.0,6348.638660200028,,,,,,,,,,,,,,,,,,,,,,,,,,,,,,sub-129,1.0,random_dot,59.91080479118055,
left,left,speed,,,,,0.0,0.0,0.0,1.0,17.0,1.0,35.0,0.0,174.0073670000129,,,,,,,,,173.996137500013,174.80805370002054,175.60939349999535,175.59312510001473,175.59316270001,175.60939349999535,175.60939349999535,175.60939349999535,176.2119525000162,left,1.0,6348.73106749999,,,,,,,,,,,,,,,,,,,,,,,,,,,,,,sub-129,1.0,random_dot,59.91080479118055,
right,right,speed,,,,,0.0,0.0,0.0,1.0,18.0,0.0,36.0,1.0,176.2255444000184,,,,,,,,,176.2138681000215,177.02635550001287,177.82760499999858,177.8113871999958,177.8114268000063,177.82760499999858,177.82760499999858,177.82760499999858,178.42982320001465,right,1.0,6348.73348949998,,,,,,,,,,,,,,,,,,,,,,,,,,,,,,sub-129,1.0,random_dot,59.91080479118055,
left,left,speed,,,,,0.0,0.0,0.0,1.0,18.0,1.0,37.0,0.0,178.44400250000763,,,,,,,,,178.43152790001477,179.6446443000168,180.4459249000065,180.4297610000067,180.42980100002023,180.4459249000065,180.4459249000065,180.4459249000065,180.9483414000133,left,1.0,6348.6344484,,,,,,,,,,,,,,,,,,,,,,,,,,,,,,sub-129,1.0,random_dot,59.91080479118055,
left,left,speed,,,,,0.0,0.0,0.0,1.0,19.0,0.0,38.0,0.0,180.96248099999505,,,,,,,,,180.95012470000077,182.16310800000792,182.9642939000041,182.9480020000192,182.94803800000227,182.9642939000041,182.9642939000041,182.9642939000041,183.31577899999684,right,0.0,6348.486088500009,,,,,,,,,,,,,,,,,,,,,,,,,,,,,,sub-129,1.0,random_dot,59.91080479118055,
right,right,speed,,,,,0.0,0.0,0.0,1.0,19.0,1.0,39.0,1.0,183.3302862000128,,,,,,,,,183.3166526000132,184.53146660001948,185.3328435000149,185.31620950001525,185.31625020000504,185.3328435000149,185.3328435000149,185.3328435000149,185.80154539999785,right,1.0,6348.598576799996,,,,,,,,,,,,,,,,,,,,,,,,,,,,,,sub-129,1.0,random_dot,59.91080479118055,
left,left,speed,,,,,0.0,0.0,0.0,1.0,20.0,0.0,40.0,0.0,185.81563769999772,,,,,,,,,185.8032921999984,186.61638980000865,187.417445900006,187.40122739999788,187.4012672000099,187.417445900006,187.417445900006,187.417445900006,188.0359282999998,left,1.0,6348.753204500012,,,,,,,,,,,,,,,,,,,,,,,,,,,,,,sub-129,1.0,random_dot,59.91080479118055,
right,right,speed,,,,,0.0,0.0,0.0,1.0,20.0,1.0,41.0,1.0,188.04983190001803,,,,,,,,,188.0383139000041,188.4004843000148,189.2021193999972,189.18590620000032,189.18594650001612,189.2021193999972,189.2021193999972,189.2021193999972,190.0055745000136,right,1.0,6348.9392123,,,,,,,,,,,,,,,,,,,,,,,,,,,,,,sub-129,1.0,random_dot,59.91080479118055,
right,right,speed,,,,,0.0,0.0,0.0,1.0,21.0,0.0,42.0,1.0,190.0187038000149,,,,,,,,,190.0074270000041,190.36872240001685,191.17015720001652,191.1539468000119,191.15398420000565,191.17015720001652,191.17015720001652,191.17015720001652,191.92277760000437,left,0.0,6348.8806602999975,,,,,,,,,,,,,,,,,,,,,,,,,,,,,,sub-129,1.0,random_dot,59.91080479118055,
left,left,speed,,,,,0.0,0.0,0.0,1.0,21.0,1.0,43.0,0.0,191.93662690001656,,,,,,,,,191.9245695999998,193.137318299996,193.9385800000164,193.92276470002253,193.9228382000001,193.9385800000164,193.9385800000164,193.9385800000164,196.75909070001217,left,1.0,6350.952102500014,,,,,,,,,,,,,,,,,,,,,,,,,,,,,,sub-129,1.0,random_dot,59.91080479118055,
left,left,speed,,,,,0.0,0.0,0.0,1.0,22.0,0.0,44.0,0.0,196.7732057000103,,,,,,,,,196.76088529999836,197.57357000000772,198.3751951000013,198.3586775000149,198.35871800000317,198.3751951000013,198.3751951000013,198.3751951000013,200.79588310001415,right,0.0,6350.555710699991,,,,,,,,,,,,,,,,,,,,,,,,,,,,,,sub-129,1.0,random_dot,59.91080479118055,
right,right,speed,,,,,0.0,0.0,0.0,1.0,22.0,1.0,45.0,1.0,200.80913130001863,,,,,,,,,200.7977215000137,200.90942000001087,201.7106707000057,201.69465650001075,201.69469640002356,201.7106707000057,201.7106707000057,201.7106707000057,205.5987484000216,right,1.0,6352.019534199993,,,,,,,,,,,,,,,,,,,,,,,,,,,,,,sub-129,1.0,random_dot,59.91080479118055,
right,right,speed,,,,,0.0,0.0,0.0,1.0,23.0,0.0,46.0,1.0,205.6125729000196,,,,,,,,,205.60072820002097,205.96309250002375,206.76407880001352,206.74764139999752,206.747692200006,206.76407880001352,206.76407880001352,206.76407880001352,208.85103010002055,right,1.0,6350.215983499977,,,,,,,,,,,,,,,,,,,,,,,,,,,,,,sub-129,1.0,random_dot,59.91080479118055,
left,left,speed,,,,,0.0,0.0,0.0,1.0,23.0,1.0,47.0,0.0,208.8647903999954,,,,,,,,,208.85306730002048,209.6654309000005,210.46666170001845,210.4502829000121,210.45031980000203,210.46666170001845,210.46666170001845,210.46666170001845,211.31975350002176,left,1.0,6348.984157500003,,,,,,,,,,,,,,,,,,,,,,,,,,,,,,sub-129,1.0,random_dot,59.91080479118055,
left,left,speed,,,,,0.0,0.0,0.0,1.0,24.0,0.0,48.0,0.0,211.33307710001827,,,,,,,,,211.3215671000071,211.68356050000875,212.4847980000195,212.4686684000189,212.46870570001192,212.4847980000195,212.4847980000195,212.4847980000195,213.3039276000054,left,1.0,6348.945620400016,,,,,,,,,,,,,,,,,,,,,,,,,,,,,,sub-129,1.0,random_dot,59.91080479118055,
right,right,speed,,,,,0.0,0.0,0.0,1.0,24.0,1.0,49.0,1.0,213.31756320002023,,,,,,,,,213.30573600000932,213.4180118000077,214.2194244000129,214.2032493000152,214.2032862000051,214.2194244000129,214.2194244000129,214.2194244000129,214.771848400007,right,1.0,6348.6807550000085,,,,,,,,,,,,,,,,,,,,,,,,,,,,,,sub-129,1.0,random_dot,59.91080479118055,
right,right,speed,,,,,0.0,0.0,0.0,1.0,25.0,0.0,50.0,1.0,214.7856390000088,,,,,,,,,214.77365990000544,215.58609940001045,216.38747899999728,216.37104170001112,216.37108090001857,216.38747899999728,216.38747899999728,216.38747899999728,217.1902358000225,right,1.0,6348.923294700013,,,,,,,,,,,,,,,,,,,,,,,,,,,,,,sub-129,1.0,random_dot,59.91080479118055,
left,left,speed,,,,,0.0,0.0,0.0,1.0,25.0,1.0,51.0,0.0,217.20391999999995,,,,,,,,,217.19222660001836,217.30434120001155,218.10541240000748,218.08922660001556,218.0892629000009,218.10541240000748,218.10541240000748,218.10541240000748,219.458569600014,left,1.0,6349.485382099985,,,,,,,,,,,,,,,,,,,,,,,,,,,,,,sub-129,1.0,random_dot,59.91080479118055,
right,right,speed,,,,,0.0,0.0,0.0,1.0,26.0,0.0,52.0,1.0,219.47196419999815,,,,,,,,,219.46035180002215,220.67297539999709,221.4743280000112,221.45799389999596,221.4580399999977,221.4743280000112,221.4743280000112,221.4743280000112,222.19430850000936,left,0.0,6348.855467200017,,,,,,,,,,,,,,,,,,,,,,,,,,,,,,sub-129,1.0,random_dot,59.91080479118055,
left,left,speed,,,,,0.0,0.0,0.0,1.0,26.0,1.0,53.0,0.0,222.2073059999966,,,,,,,,,222.19613560001017,223.0079610999965,223.80920930000136,223.7928852000041,223.7929254000192,223.80920930000136,223.80920930000136,223.80920930000136,224.4263869000133,left,1.0,6348.7510708000045,,,,,,,,,,,,,,,,,,,,,,,,,,,,,,sub-129,1.0,random_dot,59.91080479118055,
left,left,speed,,,,,0.0,0.0,0.0,1.0,27.0,0.0,54.0,0.0,224.4419974000193,,,,,,,,,224.42732580000305,225.2263258000021,226.0276289000176,226.01141380000627,226.0114509999985,226.0276289000176,226.0276289000176,226.0276289000176,226.63090469999588,left,1.0,6348.723908999993,,,,,,,,,,,,,,,,,,,,,,,,,,,,,,sub-129,1.0,random_dot,59.91080479118055,
right,right,speed,,,,,0.0,0.0,0.0,1.0,27.0,1.0,55.0,1.0,226.6438696999976,,,,,,,,,226.63367209999703,227.84480710001665,228.6460053000192,228.62957509999976,228.6296166999964,228.6460053000192,228.6460053000192,228.6460053000192,229.33153870000388,left,0.0,6348.815541500022,,,,,,,,,,,,,,,,,,,,,,,,,,,,,,sub-129,1.0,random_dot,59.91080479118055,
right,right,speed,,,,,0.0,0.0,0.0,1.0,28.0,0.0,56.0,1.0,229.34564169999797,,,,,,,,,229.3333011000068,230.14638829999603,230.9475932000205,230.9312717000139,230.93130910000764,230.9475932000205,230.9475932000205,230.9475932000205,232.73425950002277,right,1.0,6349.912690700003,,,,,,,,,,,,,,,,,,,,,,,,,,,,,,sub-129,1.0,random_dot,59.91080479118055,
left,left,speed,,,,,0.0,0.0,0.0,1.0,28.0,1.0,57.0,0.0,232.7481507000048,,,,,,,,,232.73598640001728,233.09826820000308,233.89961280001444,233.8830378999992,233.88307800001348,233.89961280001444,233.89961280001444,233.89961280001444,234.56916440001805,left,1.0,6348.802832700021,,,,,,,,,,,,,,,,,,,,,,,,,,,,,,sub-129,1.0,random_dot,59.91080479118055,
right,right,speed,,,,,0.0,0.0,0.0,1.0,29.0,0.0,58.0,1.0,234.5826040999964,,,,,,,,,234.5709358000022,234.93293030001223,235.73421110000345,235.7176890000119,235.7177549000189,235.73421110000345,235.73421110000345,235.73421110000345,238.27119840000523,right,1.0,6350.668439700006,,,,,,,,,,,,,,,,,,,,,,,,,,,,,,sub-129,1.0,random_dot,59.91080479118055,
left,left,speed,,,,,0.0,0.0,0.0,1.0,29.0,1.0,59.0,0.0,238.2852137000009,,,,,,,,,238.27311660000123,239.4860329000221,240.28739340000905,240.2711142000044,240.27115539999795,240.28739340000905,240.28739340000905,240.28739340000905,240.8897108999954,left,1.0,6348.724937899999,,,,,,,,,,,,,,,,,,,,,,,,,,,,,,sub-129,1.0,random_dot,59.91080479118055,
,,speed,,,,,0.0,0.0,0.0,1.0,,,,,,,,,,,,,,,,,,,,,,,,,,,,,,,,,,,,,,,,,,,,,,,,,,,,,,,sub-129,1.0,random_dot,59.91080479118055,
right,right,accuracy,,,,,0.0,1.0,1.0,0.0,0.0,0.0,0.0,1.0,283.2850941000215,,,,,,,,,283.28062170001795,283.38293419999536,284.1845503000077,284.16812930000015,284.16818599999533,284.1845503000077,284.1845503000077,284.1845503000077,285.38768060001894,right,1.0,6349.335707499995,,,,,,,,,,,,,,,,,,,,240.8913133000024,240.9092870000168,240.9092870000168,283.2691951000015,space,6390.49515990002,,,,,sub-129,1.0,random_dot,59.91080479118055,
left,left,accuracy,,,,,0.0,1.0,1.0,0.0,0.0,1.0,1.0,0.0,285.4007410000195,,,,,,,,,285.38997630000813,286.6017702000099,287.40336769999703,287.38698100001784,287.38702829999966,287.40336769999703,287.40336769999703,287.40336769999703,288.5395238000201,right,0.0,6349.267293900019,,,,,,,,,,,,,,,,,,,,,,,,,,,,,,sub-129,1.0,random_dot,59.91080479118055,
right,right,accuracy,,,,,0.0,1.0,1.0,0.0,1.0,0.0,2.0,1.0,288.553138200019,,,,,,,,,288.5413207000238,289.35391320000053,290.15515780000715,290.1386595000222,290.13869710001745,290.15515780000715,290.15515780000715,290.15515780000715,291.9752991000132,right,1.0,6349.95447690002,,,,,,,,,,,,,,,,,,,,,,,,,,,,,,sub-129,1.0,random_dot,59.91080479118055,
left,left,accuracy,,,,,0.0,1.0,1.0,0.0,1.0,1.0,3.0,0.0,291.9890704000136,,,,,,,,,291.9770854999952,292.7895737000217,293.5909533000085,293.57448100001784,293.5745179000078,293.5909533000085,293.5909533000085,293.5909533000085,294.1254048999981,left,1.0,6348.658941400005,,,,,,,,,,,,,,,,,,,,,,,,,,,,,,sub-129,1.0,random_dot,59.91080479118055,
right,right,accuracy,,,,,0.0,1.0,1.0,0.0,2.0,0.0,4.0,1.0,294.14036770001985,,,,,,,,,294.126759900013,294.2400779000018,295.0417281000118,295.02562020000187,295.0256713000126,295.0417281000118,295.0417281000118,295.0417281000118,295.9776783999987,right,1.0,6349.057930500014,,,,,,,,,,,,,,,,,,,,,,,,,,,,,,sub-129,1.0,random_dot,59.91080479118055,
left,left,accuracy,,,,,0.0,1.0,1.0,0.0,2.0,1.0,5.0,0.0,295.9917014000239,,,,,,,,,295.97950820002006,297.19264540000586,297.99389189999783,297.9774789000221,297.97751580001204,297.99389189999783,297.99389189999783,297.99389189999783,299.2802160000137,left,1.0,6349.406834100024,,,,,,,,,,,,,,,,,,,,,,,,,,,,,,sub-129,1.0,random_dot,59.91080479118055,
left,left,accuracy,,,,,0.0,1.0,1.0,0.0,3.0,0.0,6.0,0.0,299.293968700018,,,,,,,,,299.281967500021,300.49493690000963,301.29620609999984,301.2798293000087,301.2798710000061,301.29620609999984,301.29620609999984,301.29620609999984,302.1323329000152,left,1.0,6348.963555200025,,,,,,,,,,,,,,,,,,,,,,,,,,,,,,sub-129,1.0,random_dot,59.91080479118055,
right,right,accuracy,,,,,0.0,1.0,1.0,0.0,3.0,1.0,7.0,1.0,302.14580510000815,,,,,,,,,302.1343766000064,302.2459898000234,303.0474989000068,303.03180300001986,303.0318399000098,303.0474989000068,303.0474989000068,303.0474989000068,304.0002256000007,right,1.0,6349.082047300006,,,,,,,,,,,,,,,,,,,,,,,,,,,,,,sub-129,1.0,random_dot,59.91080479118055,
right,right,accuracy,,,,,0.0,1.0,1.0,0.0,4.0,0.0,8.0,1.0,304.013852300006,,,,,,,,,304.00206739999703,304.3640879000013,305.1657253000012,305.1493092000019,305.1493482000078,305.1657253000012,305.1657253000012,305.1657253000012,308.7366995000048,right,1.0,6351.694379099994,,,,,,,,,,,,,,,,,,,,,,,,,,,,,,sub-129,1.0,random_dot,59.91080479118055,
left,left,accuracy,,,,,0.0,1.0,1.0,0.0,4.0,1.0,9.0,0.0,308.7504279999994,,,,,,,,,308.73845760000404,308.85068190001766,309.6521357000165,309.63572770002065,309.6357689000142,309.6521357000165,309.6521357000165,309.6521357000165,310.5883600000234,left,1.0,6349.068685000006,,,,,,,,,,,,,,,,,,,,,,,,,,,,,,sub-129,1.0,random_dot,59.91080479118055,
right,right,accuracy,,,,,0.0,1.0,1.0,0.0,5.0,0.0,10.0,1.0,310.6017144000216,,,,,,,,,310.59014889999526,310.7019602000073,311.5033655000152,311.48681410000427,311.48685549999936,311.5033655000152,311.5033655000152,311.5033655000152,312.3559529000195,right,1.0,6348.987613999983,,,,,,,,,,,,,,,,,,,,,,,,,,,,,,sub-129,1.0,random_dot,59.91080479118055,
left,left,accuracy,,,,,0.0,1.0,1.0,0.0,5.0,1.0,11.0,0.0,312.36965540001984,,,,,,,,,312.3578991999966,312.46983830002137,313.271077500016,313.2548563000164,313.25491830002284,313.271077500016,313.271077500016,313.271077500016,314.0571542000107,left,1.0,6348.919233100023,,,,,,,,,,,,,,,,,,,,,,,,,,,,,,sub-129,1.0,random_dot,59.91080479118055,
left,left,accuracy,,,,,0.0,1.0,1.0,0.0,6.0,0.0,12.0,0.0,314.07081590002053,,,,,,,,,314.0588540000026,314.42126790000475,315.2224386000016,315.20642210001824,315.2064615999989,315.2224386000016,315.2224386000016,315.2224386000016,316.80920060002245,left,1.0,6349.718731600005,,,,,,,,,,,,,,,,,,,,,,,,,,,,,,sub-129,1.0,random_dot,59.91080479118055,
right,right,accuracy,,,,,0.0,1.0,1.0,0.0,6.0,1.0,13.0,1.0,316.8227039000194,,,,,,,,,316.81095660000574,318.02371810001205,318.8250058999984,318.80875450000167,318.8087911000184,318.8250058999984,318.8250058999984,318.8250058999984,319.5608515000204,right,1.0,6348.864999399986,,,,,,,,,,,,,,,,,,,,,,,,,,,,,,sub-129,1.0,random_dot,59.91080479118055,
right,right,accuracy,,,,,0.0,1.0,1.0,0.0,7.0,0.0,14.0,1.0,319.5748300999985,,,,,,,,,319.56256920000305,319.9250638000085,320.7262830999971,320.7099047000229,320.7099442000035,320.7262830999971,320.7262830999971,320.7262830999971,321.42861240002094,right,1.0,6348.823117400025,,,,,,,,,,,,,,,,,,,,,,,,,,,,,,sub-129,1.0,random_dot,59.91080479118055,
left,left,accuracy,,,,,0.0,1.0,1.0,0.0,7.0,1.0,15.0,0.0,321.4426286999951,,,,,,,,,321.43036339999526,322.24332500001765,323.04461340000853,323.0281324000098,323.02817230002256,323.04461340000853,323.04461340000853,323.04461340000853,323.6640449000115,left,1.0,6348.754984900006,,,,,,,,,,,,,,,,,,,,,,,,,,,,,,sub-129,1.0,random_dot,59.91080479118055,
left,left,accuracy,,,,,0.0,1.0,1.0,0.0,8.0,0.0,16.0,0.0,323.67770500000915,,,,,,,,,323.66583750001155,323.7775210000109,324.5791469000105,324.5626663000148,324.56272060002084,324.5791469000105,324.5791469000105,324.5791469000105,325.3981922000239,left,1.0,6348.950824200001,,,,,,,,,,,,,,,,,,,,,,,,,,,,,,sub-129,1.0,random_dot,59.91080479118055,
right,right,accuracy,,,,,0.0,1.0,1.0,0.0,8.0,1.0,17.0,1.0,325.4122134000063,,,,,,,,,325.39993020001566,325.51248500001384,326.3165353000222,326.2972792000219,326.2973195000086,326.3165353000222,326.3165353000222,326.3165353000222,327.0331389000057,right,1.0,6348.843810399994,,,,,,,,,,,,,,,,,,,,,,,,,,,,,,sub-129,1.0,random_dot,59.91080479118055,
right,right,accuracy,,,,,0.0,1.0,1.0,0.0,9.0,0.0,18.0,1.0,327.04672949999804,,,,,,,,,327.0348992000217,327.39663719999953,328.19838790001813,328.18183400001726,328.1818742000032,328.19838790001813,328.19838790001813,328.19838790001813,329.0175029000093,right,1.0,6348.941469699988,,,,,,,,,,,,,,,,,,,,,,,,,,,,,,sub-129,1.0,random_dot,59.91080479118055,
left,left,accuracy,,,,,0.0,1.0,1.0,0.0,9.0,1.0,19.0,0.0,329.03128250001464,,,,,,,,,329.0194529000146,329.8318464000185,330.6330115000019,330.6173629999976,330.6174030000111,330.6330115000019,330.6330115000019,330.6330115000019,331.2186578999972,left,1.0,6348.71810659999,,,,,,,,,,,,,,,,,,,,,,,,,,,,,,sub-129,1.0,random_dot,59.91080479118055,
right,right,accuracy,,,,,0.0,1.0,1.0,0.0,10.0,0.0,20.0,1.0,331.2327501999971,,,,,,,,,331.2205024000141,332.03309020001325,332.834657600004,332.8183037000126,332.81836340000154,332.834657600004,332.834657600004,332.834657600004,333.63729890002287,right,1.0,6348.924996699992,,,,,,,,,,,,,,,,,,,,,,,,,,,,,,sub-129,1.0,random_dot,59.91080479118055,
left,left,accuracy,,,,,0.0,1.0,1.0,0.0,10.0,1.0,21.0,0.0,333.651279600017,,,,,,,,,333.63911930000177,333.75090519999503,334.55249670002377,334.53654010000173,334.53658020001603,334.55249670002377,334.55249670002377,334.55249670002377,335.23866560001625,left,1.0,6348.818498200009,,,,,,,,,,,,,,,,,,,,,,,,,,,,,,sub-129,1.0,random_dot,59.91080479118055,
right,right,accuracy,,,,,0.0,1.0,1.0,0.0,11.0,0.0,22.0,1.0,335.25223710000864,,,,,,,,,335.24055070002214,336.45306640001945,337.25425359999645,337.23807079999824,337.23811090001254,337.25425359999645,337.25425359999645,337.25425359999645,337.80700790000265,right,1.0,6348.68549470001,,,,,,,,,,,,,,,,,,,,,,,,,,,,,,sub-129,1.0,random_dot,59.91080479118055,
left,left,accuracy,,,,,0.0,1.0,1.0,0.0,11.0,1.0,23.0,0.0,337.8206281000166,,,,,,,,,337.80882700000075,338.1709110000229,338.97230680001667,338.9558787000133,338.9559186999977,338.97230680001667,338.97230680001667,338.97230680001667,339.47490290002315,left,1.0,6348.637978600018,,,,,,,,,,,,,,,,,,,,,,,,,,,,,,sub-129,1.0,random_dot,59.91080479118055,
right,right,accuracy,,,,,0.0,1.0,1.0,0.0,12.0,0.0,24.0,1.0,339.4884008000081,,,,,,,,,339.4766451000178,340.2893191000039,341.0903427000157,341.074694800016,341.0747455000237,341.0903427000157,341.0903427000157,341.0903427000157,341.4758888000215,right,1.0,6348.5097160000005,,,,,,,,,,,,,,,,,,,,,,,,,,,,,,sub-129,1.0,random_dot,59.91080479118055,
left,left,accuracy,,,,,0.0,1.0,1.0,0.0,12.0,1.0,25.0,0.0,341.4898188000079,,,,,,,,,341.4776315000199,341.5897946000041,342.3912907000049,342.3750354000076,342.3751043000084,342.3912907000049,342.3912907000049,342.3912907000049,342.8937235000194,left,1.0,6348.628718799999,,,,,,,,,,,,,,,,,,,,,,,,,,,,,,sub-129,1.0,random_dot,59.91080479118055,
right,right,accuracy,,,,,0.0,1.0,1.0,0.0,13.0,0.0,26.0,1.0,342.90720560000045,,,,,,,,,342.8954818000202,343.0076788000006,343.8088682999951,343.79274400000577,343.7927813999995,343.8088682999951,343.8088682999951,343.8088682999951,344.7450454000209,left,0.0,6349.070574300014,,,,,,,,,,,,,,,,,,,,,,,,,,,,,,sub-129,1.0,random_dot,59.91080479118055,
left,left,accuracy,,,,,0.0,1.0,1.0,0.0,13.0,1.0,27.0,0.0,344.7588676000014,,,,,,,,,344.7468480000098,345.9595217000169,346.760869699996,346.7447181000025,346.7447564000031,346.760869699996,346.760869699996,346.760869699996,347.37998940001125,left,1.0,6348.7499020000105,,,,,,,,,,,,,,,,,,,,,,,,,,,,,,sub-129,1.0,random_dot,59.91080479118055,
left,left,accuracy,,,,,0.0,1.0,1.0,0.0,14.0,0.0,28.0,0.0,347.39412929999526,,,,,,,,,347.3818655000068,347.49420539999846,348.29546300001675,348.2790695000149,348.2791069000086,348.29546300001675,348.29546300001675,348.29546300001675,351.6330803000019,left,1.0,6351.465026599995,,,,,,,,,,,,,,,,,,,,,,,,,,,,,,sub-129,1.0,random_dot,59.91080479118055,
right,right,accuracy,,,,,0.0,1.0,1.0,0.0,14.0,1.0,29.0,1.0,351.646848400007,,,,,,,,,351.63493190001464,352.84760900001856,353.6490773000114,353.6328221000149,353.63286130002234,353.6490773000114,353.6490773000114,353.6490773000114,354.8518285000173,right,1.0,6349.332060699991,,,,,,,,,,,,,,,,,,,,,,,,,,,,,,sub-129,1.0,random_dot,59.91080479118055,
right,right,accuracy,,,,,0.0,1.0,1.0,0.0,15.0,0.0,30.0,1.0,354.8657604000182,,,,,,,,,354.8538274000166,356.06634889999987,356.8679329000006,356.8514743999985,356.8515147000144,356.8679329000006,356.8679329000006,356.8679329000006,358.13759470000514,right,1.0,6349.404297400004,,,,,,,,,,,,,,,,,,,,,,,,,,,,,,sub-129,1.0,random_dot,59.91080479118055,
left,left,accuracy,,,,,0.0,1.0,1.0,0.0,15.0,1.0,31.0,0.0,358.15129290000186,,,,,,,,,358.13941220002016,358.9518267000094,359.75330880002,359.7369454000145,359.7369856000005,359.75330880002,359.75330880002,359.75330880002,360.37246850001975,left,1.0,6348.74878959998,,,,,,,,,,,,,,,,,,,,,,,,,,,,,,sub-129,1.0,random_dot,59.91080479118055,
right,right,accuracy,,,,,0.0,1.0,1.0,0.0,16.0,0.0,32.0,1.0,360.38642730002175,,,,,,,,,360.3744951999979,360.4862987000088,361.2877425000188,361.27126690000296,361.271304599999,361.2877425000188,361.2877425000188,361.2877425000188,361.9903664000158,right,1.0,6348.833605099993,,,,,,,,,,,,,,,,,,,,,,,,,,,,,,sub-129,1.0,random_dot,59.91080479118055,
left,left,accuracy,,,,,0.0,1.0,1.0,0.0,16.0,1.0,33.0,0.0,362.00404300002265,,,,,,,,,361.9922134000226,362.8047431000159,363.605724699999,363.58957330000703,363.5896106,363.605724699999,363.605724699999,363.605724699999,364.4086068000179,left,1.0,6348.936002000002,,,,,,,,,,,,,,,,,,,,,,,,,,,,,,sub-129,1.0,random_dot,59.91080479118055,
left,left,accuracy,,,,,0.0,1.0,1.0,0.0,17.0,0.0,34.0,0.0,364.4222576000029,,,,,,,,,364.410420500004,365.2229755000153,366.02409970000735,366.0078194999951,366.0078601000132,366.02409970000735,366.02409970000735,366.02409970000735,366.7600401999953,left,1.0,6348.866761400015,,,,,,,,,,,,,,,,,,,,,,,,,,,,,,sub-129,1.0,random_dot,59.91080479118055,
right,right,accuracy,,,,,0.0,1.0,1.0,0.0,17.0,1.0,35.0,1.0,366.77399620000506,,,,,,,,,366.7618522999983,367.1243247000093,367.9254824000236,367.9092707000091,367.9093113999989,367.9254824000236,367.9254824000236,367.9254824000236,368.89523230001214,right,1.0,6349.096382100019,,,,,,,,,,,,,,,,,,,,,,,,,,,,,,sub-129,1.0,random_dot,59.91080479118055,
left,left,accuracy,,,,,0.0,1.0,1.0,0.0,18.0,0.0,36.0,0.0,368.9085804000206,,,,,,,,,368.8969941000105,369.0088461000123,369.8102953000053,369.7937603000028,369.7937976999965,369.8102953000053,369.8102953000053,369.8102953000053,370.5128585000057,left,1.0,6348.831996200024,,,,,,,,,,,,,,,,,,,,,,,,,,,,,,sub-129,1.0,random_dot,59.91080479118055,
right,right,accuracy,,,,,0.0,1.0,1.0,0.0,18.0,1.0,37.0,1.0,370.5267602000095,,,,,,,,,370.5146643000189,370.8767564000154,371.6781064000097,371.6617801999964,371.66181839999626,371.6781064000097,371.6781064000097,371.6781064000097,372.29727380000986,right,1.0,6348.743184199993,,,,,,,,,,,,,,,,,,,,,,,,,,,,,,sub-129,1.0,random_dot,59.91080479118055,
left,left,accuracy,,,,,0.0,1.0,1.0,0.0,19.0,0.0,38.0,0.0,372.31111520002014,,,,,,,,,372.29914210000425,373.11159780001617,373.91300650002086,373.8968457000156,373.8968831000093,373.91300650002086,373.91300650002086,373.91300650002086,374.449042799999,left,1.0,6348.657582699991,,,,,,,,,,,,,,,,,,,,,,,,,,,,,,sub-129,1.0,random_dot,59.91080479118055,
right,right,accuracy,,,,,0.0,1.0,1.0,0.0,19.0,1.0,39.0,1.0,374.4627243000141,,,,,,,,,374.45075060002273,375.2633166000014,376.0646280000219,376.0482707000047,376.0483077999961,376.0646280000219,376.0646280000219,376.0646280000219,376.7003557000135,right,1.0,6348.756267000019,,,,,,,,,,,,,,,,,,,,,,,,,,,,,,sub-129,1.0,random_dot,59.91080479118055,
left,left,accuracy,,,,,0.0,1.0,1.0,0.0,20.0,0.0,40.0,0.0,376.71437170001445,,,,,,,,,376.7022659000068,376.81419140001526,377.61551780000445,377.5993537000031,377.59939290001057,377.61551780000445,377.61551780000445,377.61551780000445,378.2515925000189,left,1.0,6348.756730900001,,,,,,,,,,,,,,,,,,,,,,,,,,,,,,sub-129,1.0,random_dot,59.91080479118055,
right,right,accuracy,,,,,0.0,1.0,1.0,0.0,20.0,1.0,41.0,1.0,378.2652051000041,,,,,,,,,378.25327430001926,378.3653275000106,379.16675050000777,379.1503384000098,379.1503778000188,379.16675050000777,379.16675050000777,379.16675050000777,379.9692406000104,right,1.0,6348.924995300011,,,,,,,,,,,,,,,,,,,,,,,,,,,,,,sub-129,1.0,random_dot,59.91080479118055,
right,right,accuracy,,,,,0.0,1.0,1.0,0.0,21.0,0.0,42.0,1.0,379.9830920000095,,,,,,,,,379.9711170000082,380.0833066000196,380.8846227000176,380.8683455999999,380.8683857000142,380.8846227000176,380.8846227000176,380.8846227000176,381.63705760001903,right,1.0,6348.8765769000165,,,,,,,,,,,,,,,,,,,,,,,,,,,,,,sub-129,1.0,random_dot,59.91080479118055,
left,left,accuracy,,,,,0.0,1.0,1.0,0.0,21.0,1.0,43.0,0.0,381.6509022999962,,,,,,,,,381.6389075000188,382.0010198999953,382.80253320001066,382.7860229000216,382.786062500003,382.80253320001066,382.80253320001066,382.80253320001066,383.4048620999965,left,1.0,6348.729121400014,,,,,,,,,,,,,,,,,,,,,,,,,,,,,,sub-129,1.0,random_dot,59.91080479118055,
left,left,accuracy,,,,,0.0,1.0,1.0,0.0,22.0,0.0,44.0,0.0,383.4186514000176,,,,,,,,,383.4066681000113,383.5188540000236,384.3202558000048,384.3040957000048,384.3041381000076,384.3202558000048,384.3202558000048,384.3202558000048,384.78899300002377,left,1.0,6348.59054200002,,,,,,,,,,,,,,,,,,,,,,,,,,,,,,sub-129,1.0,random_dot,59.91080479118055,
right,right,accuracy,,,,,0.0,1.0,1.0,0.0,22.0,1.0,45.0,1.0,384.80320590001065,,,,,,,,,384.79065720000654,385.1533684000024,385.9545780000044,385.93831769999815,385.9383554000233,385.9545780000044,385.9545780000044,385.9545780000044,386.5406270000094,right,1.0,6348.716744900012,,,,,,,,,,,,,,,,,,,,,,,,,,,,,,sub-129,1.0,random_dot,59.91080479118055,
right,right,accuracy,,,,,0.0,1.0,1.0,0.0,23.0,0.0,46.0,1.0,386.5545372000197,,,,,,,,,386.5425540000142,386.9046743000217,387.70590640002047,387.689669000014,387.68970550000085,387.70590640002047,387.70590640002047,387.70590640002047,388.4420782000234,right,1.0,6348.866175600007,,,,,,,,,,,,,,,,,,,,,,,,,,,,,,sub-129,1.0,random_dot,59.91080479118055,
left,left,accuracy,,,,,0.0,1.0,1.0,0.0,23.0,1.0,47.0,0.0,388.4558483000146,,,,,,,,,388.44393100001616,388.8060952000087,389.6073838000011,389.5908141999971,389.5908509000146,389.6073838000011,389.6073838000011,389.6073838000011,390.22632770001655,left,1.0,6348.743465899985,,,,,,,,,,,,,,,,,,,,,,,,,,,,,,sub-129,1.0,random_dot,59.91080479118055,
left,left,accuracy,,,,,0.0,1.0,1.0,0.0,24.0,0.0,48.0,0.0,390.24021560000256,,,,,,,,,390.22811520000687,391.4409680000099,392.24251780001214,392.2260375000187,392.2260768999986,392.24251780001214,392.24251780001214,392.24251780001214,392.811660700012,left,1.0,6348.699291199999,,,,,,,,,,,,,,,,,,,,,,,,,,,,,,sub-129,1.0,random_dot,59.91080479118055,
right,right,accuracy,,,,,0.0,1.0,1.0,0.0,24.0,1.0,49.0,1.0,392.8252228000201,,,,,,,,,392.81342400002177,394.0262237999996,394.8276659999974,394.81144270001096,394.8114913000027,394.8276659999974,394.8276659999974,394.8276659999974,395.663644300017,right,1.0,6348.964127300016,,,,,,,,,,,,,,,,,,,,,,,,,,,,,,sub-129,1.0,random_dot,59.91080479118055,
left,left,accuracy,,,,,0.0,1.0,1.0,0.0,25.0,0.0,50.0,0.0,395.67724810002255,,,,,,,,,395.6653683000186,396.4776322999969,397.2789957000059,397.26326110001537,397.2633268000209,397.2789957000059,397.2789957000059,397.2789957000059,397.814990200015,left,1.0,6348.663005700015,,,,,,,,,,,,,,,,,,,,,,,,,,,,,,sub-129,1.0,random_dot,59.91080479118055,
right,right,accuracy,,,,,0.0,1.0,1.0,0.0,25.0,1.0,51.0,1.0,397.8288857000007,,,,,,,,,397.8168428000063,399.0295331999951,399.831018900004,399.8148277,399.8148741000041,399.831018900004,399.831018900004,399.831018900004,400.7001892999979,right,1.0,6348.990293800016,,,,,,,,,,,,,,,,,,,,,,,,,,,,,,sub-129,1.0,random_dot,59.91080479118055,
left,left,accuracy,,,,,0.0,1.0,1.0,0.0,26.0,0.0,52.0,0.0,400.7142733000219,,,,,,,,,400.7019641000079,401.0642576999962,401.8657901000115,401.849351700017,401.8493912999984,401.8657901000115,401.8657901000115,401.8657901000115,402.68505130001,left,1.0,6348.945323000022,,,,,,,,,,,,,,,,,,,,,,,,,,,,,,sub-129,1.0,random_dot,59.91080479118055,
right,right,accuracy,,,,,0.0,1.0,1.0,0.0,26.0,1.0,53.0,1.0,402.6988529000082,,,,,,,,,402.6868713000149,403.04922230000375,403.85054220000166,403.8342969000223,403.83436790001,403.85054220000166,403.85054220000166,403.85054220000166,408.3054979000008,left,0.0,6352.581212799996,,,,,,,,,,,,,,,,,,,,,,,,,,,,,,sub-129,1.0,random_dot,59.91080479118055,
right,right,accuracy,,,,,0.0,1.0,1.0,0.0,27.0,0.0,54.0,1.0,408.3192801999976,,,,,,,,,408.3072850000172,408.6698116000043,409.4709178000048,409.4544482000056,409.45448650000617,409.4709178000048,409.4709178000048,409.4709178000048,410.44034770000144,right,1.0,6349.100676400005,,,,,,,,,,,,,,,,,,,,,,,,,,,,,,sub-129,1.0,random_dot,59.91080479118055,
left,left,accuracy,,,,,0.0,1.0,1.0,0.0,27.0,1.0,55.0,0.0,410.4540776000067,,,,,,,,,410.4421360999986,411.2547643000144,412.05601900001056,412.0395365000004,412.0395758000086,412.05601900001056,412.05601900001056,412.05601900001056,412.7259246000031,left,1.0,6348.805819600006,,,,,,,,,,,,,,,,,,,,,,,,,,,,,,sub-129,1.0,random_dot,59.91080479118055,
left,left,accuracy,,,,,0.0,1.0,1.0,0.0,28.0,0.0,56.0,0.0,412.7390784000163,,,,,,,,,412.727693599998,413.0890973000205,413.8906068000069,413.8744229000004,413.8744621000078,413.8906068000069,413.8906068000069,413.8906068000069,414.7099889999954,left,1.0,6348.9508575999935,,,,,,,,,,,,,,,,,,,,,,,,,,,,,,sub-129,1.0,random_dot,59.91080479118055,
right,right,accuracy,,,,,0.0,1.0,1.0,0.0,28.0,1.0,57.0,1.0,414.7237574000028,,,,,,,,,414.7118203999999,414.82411700001103,415.6252580000146,415.6089533000195,415.60898940000334,415.6252580000146,415.6252580000146,415.6252580000146,416.2778112000087,right,1.0,6348.775955499994,,,,,,,,,,,,,,,,,,,,,,,,,,,,,,sub-129,1.0,random_dot,59.91080479118055,
left,left,accuracy,,,,,0.0,1.0,1.0,0.0,29.0,0.0,58.0,0.0,416.2916117999994,,,,,,,,,416.2796756000025,417.4921673000208,418.2938239000214,418.2773889999953,418.2774310999957,418.2938239000214,418.2938239000214,418.2938239000214,419.2298863000178,left,1.0,6349.057320799999,,,,,,,,,,,,,,,,,,,,,,,,,,,,,,sub-129,1.0,random_dot,59.91080479118055,
right,right,accuracy,,,,,0.0,1.0,1.0,0.0,29.0,1.0,59.0,1.0,419.2436968999973,,,,,,,,,419.2315852000029,419.5938895000145,420.3949446000042,420.3788058000209,420.3788379000034,420.3949446000042,420.3949446000042,420.3949446000042,421.0799159000162,right,1.0,6348.806608100014,,,,,,,,,,,,,,,,,,,,,,,,,,,,,,sub-129,1.0,random_dot,59.91080479118055,
,,accuracy,,,,,0.0,1.0,1.0,0.0,,,,,,,,,,,,,,,,,,,,,,,,,,,,,,,,,,,,,,,,,,,,,,,,,,,,,,,sub-129,1.0,random_dot,59.91080479118055,
,,,,,,,,,,,,,,,,,,,,,,,,,,,,,,,,,,,,,,,,,,,,,,,,,,,,,,,,,,,,,,421.0808280000056,421.0945107000007,426.08200520000537,sub-129,,,,
