direction,corrAns,thisN,thisTrialN,thisRepN,respDots.keys,respDots.corr,respDots.rt,respDots.duration,randomInstr,respRandomInstr.keys,respRandomInstr.rt,respRandomInstr.duration,practice_trials.thisRepN,practice_trials.thisTrialN,practice_trials.thisN,practice_trials.thisIndex,instr_trials.thisRepN,instr_trials.thisTrialN,instr_trials.thisN,instr_trials.thisIndex,test_trials.thisRepN,test_trials.thisTrialN,test_trials.thisN,test_trials.thisIndex,thisRow.t,notes,general_instruction.started,textGeneralInstr.started,respGeneralInstr.started,general_instruction.stopped,respGeneralInstr.keys,respGeneralInstr.rt,respGeneralInstr.duration,ITI.started,fixcross.started,fixcross.stopped,ITI.stopped,dots.started,backgroundDots.started,stimulusDots.started,respDots.started,dots.stopped,practice_trials.respDots.keys,practice_trials.respDots.corr,practice_trials.respDots.rt,practice_trials.respDots.duration,feedback.started,textFeedback.started,feedback.stopped,textFeedback.stopped,info.started,textInfo.started,keyRespInfo.started,info.stopped,keyRespInfo.keys,keyRespInfo.rt,keyRespInfo.duration,test_instruction.started,textTestInstr.started,respTestInstr.started,test_instruction.stopped,respTestInstr.keys,respTestInstr.rt,respTestInstr.duration,random_instruction.started,textRandomInstr.started,respRandomInstr.started,random_instruction.stopped,instr_trials.respRandomInstr.keys,instr_trials.respRandomInstr.rt,instr_trials.respRandomInstr.duration,test_trials.respDots.keys,test_trials.respDots.corr,test_trials.respDots.rt,test_trials.respDots.duration,stimulusDots.stopped,goodbye.started,textGoodbye.started,participant,session,expName,frameRate,Unnamed: 86
,,,,,,,,,,,,,,,,,,,,,,,,,,,0.0146546249998209,0.0234272500019869,0.0234272500019869,14.191915833001984,space,14.13199216599969,,,,,,,,,,,,,,,,,,,,,,,,,,,,,,,,,,,,,,,,,,,,,,,sub-124,1.0,random_dot,117.23209170140092,
right,right,0.0,0.0,0.0,left,0.0,1.8360977089978403,,,,,,0.0,0.0,0.0,1.0,,,,,,,,,14.21522250000271,,,,,,,,,14.203309208001883,15.395379292000143,16.199416125000425,16.183773208002094,16.18434391700066,16.199416125000425,16.199416125000425,16.199416125000425,18.038218083001997,left,0.0,1.8360977089978403,,18.047788333002245,18.057366332999663,18.539185792000357,,,,,,,,,,,,,,,,,,,,,,,,,,,,,,sub-124,1.0,random_dot,117.23209170140092,
left,left,1.0,1.0,0.0,right,0.0,0.7432291669974802,,,,,,0.0,1.0,1.0,0.0,,,,,,,,,18.5497117920022,,,,,,,,,18.539755917001457,18.633708625002328,19.427259083000536,19.41787983299946,19.4184020419998,19.427259083000536,19.427259083000536,19.427259083000536,20.17665620800108,right,0.0,0.7432291669974802,,20.17677120799999,20.18545483300113,20.67380020800192,20.68373266699928,,,,,,,,,,,,,,,,,,,,,,,,,,,,,sub-124,1.0,random_dot,117.23209170140092,
left,left,2.0,0.0,1.0,right,0.0,1.290402125003311,,,,,,1.0,0.0,2.0,0.0,,,,,,,,,20.68373266699928,,,,,,,,,20.67421145800108,20.77424579199942,21.566809250001825,21.55803825000112,21.55850208300035,21.566809250001825,21.566809250001825,21.566809250001825,22.86193175000153,right,0.0,1.290402125003311,,22.86209741700077,22.872389250002016,23.3572946250024,23.367801583000983,,,,,,,,,,,,,,,,,,,,,,,,,,,,,sub-124,1.0,random_dot,117.23209170140092,
right,right,3.0,1.0,1.0,left,0.0,2.3829372090003744,,,,,,1.0,1.0,3.0,1.0,,,,,,,,,23.367801583000983,,,,,,,,,23.357625625001678,23.458615499999723,24.259196999999403,24.250411500001064,24.250876124999195,24.259196999999403,24.259196999999403,24.259196999999403,26.65710208300152,left,0.0,2.3829372090003744,,26.657209708002483,26.67100237500199,27.15770049999992,,,,,,,,,,,,,,,,,,,,,,,,,,,,,,sub-124,1.0,random_dot,117.23209170140092,
right,right,4.0,0.0,2.0,right,1.0,1.3845114169998851,,,,,,2.0,0.0,4.0,1.0,,,,,,,,,27.16657666700121,,,,,,,,,27.158193750001374,27.50039945800017,28.292374832999485,28.28361554200092,28.28408012500222,28.292374832999485,28.292374832999485,28.292374832999485,29.684907250000837,right,1.0,1.3845114169998851,,29.69045591699978,29.69836445799956,30.18464354200114,30.191312792001558,,,,,,,,,,,,,,,,,,,,,,,,,,,,,sub-124,1.0,random_dot,117.23209170140092,
left,left,5.0,1.0,2.0,left,1.0,1.15223941700242,,,,,,2.0,1.0,5.0,0.0,,,,,,,,,30.191312792001558,,,,,,,,,30.18516720800108,30.98376904200268,31.77763075000257,31.76813433300049,31.76880508300019,31.77763075000257,31.77763075000257,31.77763075000257,32.94279174999974,left,1.0,1.15223941700242,,32.94292787499944,32.9574471670021,33.441499374999694,33.44959137499973,,,,,,,,,,,,,,,,,,,,,,,,,,,,,sub-124,1.0,random_dot,117.23209170140092,
left,left,6.0,0.0,3.0,left,1.0,2.5409306250003283,,,,,,3.0,0.0,6.0,0.0,,,,,,,,,33.44959137499973,,,,,,,,,33.44190125000023,33.541152917001455,34.333710750001046,34.32448616699912,34.32499808300054,34.333710750001046,34.333710750001046,34.333710750001046,36.88446145800117,left,1.0,2.5409306250003283,,36.8846043750018,36.89277912500256,37.38442662500165,37.39073787500092,,,,,,,,,,,,,,,,,,,,,,,,,,,,,sub-124,1.0,random_dot,117.23209170140092,
right,right,7.0,1.0,3.0,right,1.0,1.366912790999777,,,,,,3.0,1.0,7.0,1.0,,,,,,,,,37.39073787500092,,,,,,,,,37.38484062499992,38.574215583001205,39.3665304999995,39.35797691699918,39.35845391700059,39.3665304999995,39.3665304999995,39.3665304999995,40.73963554200236,right,1.0,1.366912790999777,,40.73973858300087,40.74928241700036,41.23475600000165,41.24140866699963,,,,,,,,,,,,,,,,,,,,,,,,,,,,,sub-124,1.0,random_dot,117.23209170140092,
left,left,8.0,0.0,4.0,left,1.0,1.731703708999703,,,,,,4.0,0.0,8.0,0.0,,,,,,,,,41.24140866699963,,,,,,,,,41.23528629200155,42.03385383299974,42.82541616700109,42.81751145800081,42.81824550000238,42.82541616700109,42.82541616700109,42.82541616700109,44.56205391700132,left,1.0,1.731703708999703,,44.56222783300109,44.5722174170005,45.05774020800163,45.066219000000274,,,,,,,,,,,,,,,,,,,,,,,,,,,,,sub-124,1.0,random_dot,117.23209170140092,
right,right,9.0,1.0,4.0,right,1.0,1.2213272089975362,,,,,,4.0,1.0,9.0,1.0,,,,,,,,,45.066219000000274,,,,,,,,,45.05825954200191,45.40655620799953,46.20883491700079,46.20068879199971,46.20117266700254,46.20883491700079,46.20883491700079,46.20883491700079,47.4344283749997,right,1.0,1.2213272089975362,,47.43456354199952,47.442894792002335,47.93825933300104,,,,,,,,,,,,,,,,,,,,,,,,,,,,,,sub-124,1.0,random_dot,117.23209170140092,
right,right,10.0,0.0,5.0,right,1.0,0.775726959000167,,,,,,5.0,0.0,10.0,1.0,,,,,,,,,47.94379120799931,,,,,,,,,47.93862441700185,48.72413283300193,49.51607029200022,49.5074451670007,49.50791045799997,49.51607029200022,49.51607029200022,49.51607029200022,50.3012316250024,right,1.0,0.775726959000167,,50.30134929199994,50.30925212500006,50.80096200000117,50.80722620800225,,,,,,,,,,,,,,,,,,,,,,,,,,,,,sub-124,1.0,random_dot,117.23209170140092,
left,left,11.0,1.0,5.0,left,1.0,0.9006184589998156,,,,,,5.0,1.0,11.0,0.0,,,,,,,,,50.80722620800225,,,,,,,,,50.801374082999246,51.99189662500066,52.794022250000125,52.78470991699942,52.785285875001136,52.794022250000125,52.794022250000125,52.794022250000125,53.69689479199951,left,1.0,0.9006184589998156,,53.69704366700171,53.7039074580025,54.19143887500104,54.201001292,,,,,,,,,,,,,,,,,,,,,,,,,,,,,sub-124,1.0,random_dot,117.23209170140092,
right,right,12.0,0.0,6.0,right,1.0,1.4221237919991836,,,,,,6.0,0.0,12.0,1.0,,,,,,,,,54.201001292,,,,,,,,,54.191846958001406,54.54019895800229,55.34466829200028,55.33480433300065,55.33530537499973,55.34466829200028,55.34466829200028,55.34466829200028,56.78621195800224,right,1.0,1.4221237919991836,,56.78649858300196,56.79938450000191,57.2847859579997,57.29164212500109,,,,,,,,,,,,,,,,,,,,,,,,,,,,,sub-124,1.0,random_dot,117.23209170140092,
left,left,13.0,1.0,6.0,left,1.0,1.0878781659994274,,,,,,6.0,1.0,13.0,0.0,,,,,,,,,57.29164212500109,,,,,,,,,57.28532350000023,58.08816099999967,58.89040637500148,58.87759683300101,58.878110583002126,58.89040637500148,58.89040637500148,58.89040637500148,59.98722912499943,left,1.0,1.0878781659994274,,59.98747583300064,59.99902583299991,60.48481937500037,60.49123283299923,,,,,,,,,,,,,,,,,,,,,,,,,,,,,sub-124,1.0,random_dot,117.23209170140092,
right,right,14.0,0.0,7.0,left,0.0,0.7723740000001271,,,,,,7.0,0.0,14.0,1.0,,,,,,,,,60.49123283299923,,,,,,,,,60.48524345800252,60.82705637500112,61.62752616700163,61.6179380829999,61.61842441699992,61.62752616700163,61.62752616700163,61.62752616700163,62.40945020800064,left,0.0,0.7723740000001271,,62.41453266700046,62.42478070799916,62.90815787500105,62.91597387500224,,,,,,,,,,,,,,,,,,,,,,,,,,,,,sub-124,1.0,random_dot,117.23209170140092,
left,left,15.0,1.0,7.0,right,0.0,1.1420423340023262,,,,,,7.0,1.0,15.0,0.0,,,,,,,,,62.91597387500224,,,,,,,,,62.908556582999154,63.00754208299986,63.81064154200067,63.80126054200082,63.8018559580014,63.81064154200067,63.81064154200067,63.81064154200067,64.95638558300197,right,0.0,1.1420423340023262,,64.95652766700005,64.9689817920007,65.45345295800144,65.45890816700194,,,,,,,,,,,,,,,,,,,,,,,,,,,,,sub-124,1.0,random_dot,117.23209170140092,
right,right,16.0,0.0,8.0,left,0.0,0.8033640829999058,,,,,,8.0,0.0,16.0,1.0,,,,,,,,,65.45890816700194,,,,,,,,,65.45395070800078,65.55249162499967,66.36702537500241,66.34261875000084,66.34310533300231,66.36702537500241,66.36702537500241,66.36702537500241,67.17281175000244,left,0.0,0.8033640829999058,,67.17294566700002,67.18564520799919,67.67395804199987,,,,,,,,,,,,,,,,,,,,,,,,,,,,,,sub-124,1.0,random_dot,117.23209170140092,
left,left,17.0,1.0,8.0,left,1.0,1.8076740420001445,,,,,,8.0,1.0,17.0,0.0,,,,,,,,,67.68349666699942,,,,,,,,,67.67447629200251,68.01710666700092,68.81003462499939,68.80124337500092,68.80170554200231,68.81003462499939,68.81003462499939,68.81003462499939,70.62639825000224,left,1.0,1.8076740420001445,,70.6290384999993,70.6374696669991,71.13981666700056,,,,,,,,,,,,,,,,,,,,,,,,,,,,,,sub-124,1.0,random_dot,117.23209170140092,
right,right,18.0,0.0,9.0,right,1.0,2.106545499998901,,,,,,9.0,0.0,18.0,1.0,,,,,,,,,71.15651725000134,,,,,,,,,71.14039445800154,71.92481816700092,72.7206425000004,72.71055204200093,72.71099704200242,72.7206425000004,72.7206425000004,72.7206425000004,74.83542216700152,right,1.0,2.106545499998901,,74.83554979200198,74.84382425000149,75.33398099999977,75.3401232920005,,,,,,,,,,,,,,,,,,,,,,,,,,,,,sub-124,1.0,random_dot,117.23209170140092,
left,left,19.0,1.0,9.0,left,1.0,2.297831750001933,,,,,,9.0,1.0,19.0,0.0,,,,,,,,,75.3401232920005,,,,,,,,,75.33439575000011,76.13376437500119,76.9260392920005,76.91705625000031,76.9175272499997,76.9260392920005,76.9260392920005,76.9260392920005,79.22788545799995,left,1.0,2.297831750001933,,79.22801279200212,79.23796025000047,79.72439633300019,79.73303220800153,,,,,,,,,,,,,,,,,,,,,,,,,,,,,sub-124,1.0,random_dot,117.23209170140092,
,,,,,,,,,,,,,,,,,,,,,,,,,,,,,,,,,,,,,,,,,,,,,,,,,,,79.72456291699928,79.73303220800153,79.73303220800153,82.5706119580027,space,2.817616958000144,,,,,,,,,,,,,,,,,,,,,,,sub-124,1.0,random_dot,117.23209170140092,
,,,,,,,,,,,,,,,,,,,,,,,,,,,,,,,,,,,,,,,,,,,,,,,,,,,,,,,,,,82.57080791699991,82.5836464999993,82.5836464999993,83.56187366700033,space,0.9757313339978282,,,,,,,,,,,,,,,,sub-124,1.0,random_dot,117.23209170140092,
left,left,0.0,0.0,0.0,left,1.0,2.761955834001128,,speed,space,4.105773332998069,,,,,,0.0,0.0,0.0,1.0,0.0,0.0,0.0,0.0,87.73504750000211,,,,,,,,,87.72933362500044,88.51604391699948,89.30914041700089,89.30021458299962,89.30071858299925,89.30914041700089,89.30914041700089,89.30914041700089,92.07990445800168,,,,,,,,,,,,,,,,,,,,,,,83.58880549999958,83.60222666700065,83.60222666700065,87.72252975000083,space,4.105773332998069,,left,1.0,2.761955834001128,,,,,sub-124,1.0,random_dot,117.23209170140092,
right,right,1.0,1.0,0.0,right,1.0,2.8233957909978926,,speed,space,4.105773332998069,,,,,,0.0,0.0,0.0,1.0,0.0,1.0,1.0,1.0,92.08813554200242,,,,,,,,,92.08027308300008,92.87449695800024,93.66676670800008,93.65804587499952,93.65851875000226,93.66676670800008,93.66676670800008,93.66676670800008,96.49444550000044,,,,,,,,,,,,,,,,,,,,,,,,,,,,,,right,1.0,2.8233957909978926,,,,,sub-124,1.0,random_dot,117.23209170140092,
left,left,2.0,0.0,1.0,left,1.0,1.476597832999687,,speed,space,4.105773332998069,,,,,,0.0,0.0,0.0,1.0,1.0,0.0,2.0,0.0,96.50374254200142,,,,,,,,,96.49481870800082,97.2909921669998,98.08275595799932,98.07434279200244,98.07480987500094,98.08275595799932,98.08275595799932,98.08275595799932,99.57023200000184,,,,,,,,,,,,,,,,,,,,,,,,,,,,,,left,1.0,1.476597832999687,,,,,sub-124,1.0,random_dot,117.23209170140092,
right,right,3.0,1.0,1.0,left,0.0,4.381774041001336,,speed,space,4.105773332998069,,,,,,0.0,0.0,0.0,1.0,1.0,1.0,3.0,1.0,99.58018341700154,,,,,,,,,99.570984375001,99.91719875000126,100.70917812500193,100.7003248330002,100.70079145800264,100.70917812500193,100.70917812500193,100.70917812500193,105.10607483300193,,,,,,,,,,,,,,,,,,,,,,,,,,,,,,left,0.0,4.381774041001336,,,,,sub-124,1.0,random_dot,117.23209170140092,
right,right,4.0,0.0,2.0,right,1.0,2.295711124999798,,speed,space,4.105773332998069,,,,,,0.0,0.0,0.0,1.0,2.0,0.0,4.0,1.0,105.11998108300033,,,,,,,,,105.10655329200016,105.89968741700068,106.69416391699995,106.68470804200116,106.68532087499987,106.69416391699995,106.69416391699995,106.69416391699995,108.99886329199944,,,,,,,,,,,,,,,,,,,,,,,,,,,,,,right,1.0,2.295711124999798,,,,,sub-124,1.0,random_dot,117.23209170140092,
left,left,5.0,1.0,2.0,right,0.0,1.8403796250022424,,speed,space,4.105773332998069,,,,,,0.0,0.0,0.0,1.0,2.0,1.0,5.0,0.0,109.00948733300174,,,,,,,,,108.99965912500193,110.19096137499946,110.98284041700026,110.97420262500236,110.9746607920024,110.98284041700026,110.98284041700026,110.98284041700026,112.83563066699936,,,,,,,,,,,,,,,,,,,,,,,,,,,,,,right,0.0,1.8403796250022424,,,,,sub-124,1.0,random_dot,117.23209170140092,
left,left,6.0,0.0,3.0,right,0.0,3.1920056659982947,,speed,space,4.105773332998069,,,,,,0.0,0.0,0.0,1.0,3.0,0.0,6.0,0.0,112.84438829200008,,,,,,,,,112.83618779199968,113.6331597080025,114.4267187080004,114.41778391700063,114.41827725000256,114.4267187080004,114.4267187080004,114.4267187080004,117.6291314580012,,,,,,,,,,,,,,,,,,,,,,,,,,,,,,right,0.0,3.1920056659982947,,,,,sub-124,1.0,random_dot,117.23209170140092,
right,right,7.0,1.0,3.0,right,1.0,2.896759250001196,,speed,space,4.105773332998069,,,,,,0.0,0.0,0.0,1.0,3.0,1.0,7.0,1.0,117.63929570800246,,,,,,,,,117.62987045800035,117.97427337500268,118.78398941699923,118.75847900000008,118.75907374999952,118.78398941699923,118.78398941699923,118.78398941699923,121.68714770800216,,,,,,,,,,,,,,,,,,,,,,,,,,,,,,right,1.0,2.896759250001196,,,,,sub-124,1.0,random_dot,117.23209170140092,
right,right,8.0,0.0,4.0,left,0.0,3.4079650420026155,,speed,space,4.105773332998069,,,,,,0.0,0.0,0.0,1.0,4.0,0.0,8.0,1.0,121.6959452500014,,,,,,,,,121.68777662499996,122.48365275000106,123.27752300000066,123.26798104200134,123.26855758300007,123.27752300000066,123.27752300000066,123.27752300000066,126.69236566700056,,,,,,,,,,,,,,,,,,,,,,,,,,,,,,left,0.0,3.4079650420026155,,,,,sub-124,1.0,random_dot,117.23209170140092,
left,left,9.0,1.0,4.0,left,1.0,1.8935497920028863,,speed,space,4.105773332998069,,,,,,0.0,0.0,0.0,1.0,4.0,1.0,9.0,0.0,126.71653854200122,,,,,,,,,126.69273695800076,127.49135537500116,128.29370145800203,128.28449770800216,128.28496979199917,128.29370145800203,128.29370145800203,128.29370145800203,130.19158195800264,,,,,,,,,,,,,,,,,,,,,,,,,,,,,,left,1.0,1.8935497920028863,,,,,sub-124,1.0,random_dot,117.23209170140092,
right,right,10.0,0.0,5.0,right,1.0,1.3854342500017085,,speed,space,4.105773332998069,,,,,,0.0,0.0,0.0,1.0,5.0,0.0,10.0,1.0,130.19988625000042,,,,,,,,,130.19195583300095,130.9911332920019,131.79330825000216,131.78435766700204,131.7848338750009,131.79330825000216,131.79330825000216,131.79330825000216,133.1848640419994,,,,,,,,,,,,,,,,,,,,,,,,,,,,,,right,1.0,1.3854342500017085,,,,,sub-124,1.0,random_dot,117.23209170140092,
left,left,11.0,1.0,5.0,left,1.0,2.3648566250012664,,speed,space,4.105773332998069,,,,,,0.0,0.0,0.0,1.0,5.0,1.0,11.0,0.0,133.19336029199985,,,,,,,,,133.1854288329996,134.38368108299983,135.1776700420014,135.1682479580013,135.16891512499933,135.1776700420014,135.1776700420014,135.1776700420014,137.545558875001,,,,,,,,,,,,,,,,,,,,,,,,,,,,,,left,1.0,2.3648566250012664,,,,,sub-124,1.0,random_dot,117.23209170140092,
left,left,12.0,0.0,6.0,left,1.0,3.477371500001027,,speed,space,4.105773332998069,,,,,,0.0,0.0,0.0,1.0,6.0,0.0,12.0,0.0,137.55484508299924,,,,,,,,,137.54607045800003,138.3412605420017,139.14403204200062,139.13444837499992,139.13493474999996,139.14403204200062,139.14403204200062,139.14403204200062,142.62799308300237,,,,,,,,,,,,,,,,,,,,,,,,,,,,,,left,1.0,3.477371500001027,,,,,sub-124,1.0,random_dot,117.23209170140092,
right,right,13.0,1.0,6.0,right,1.0,4.78264604099968,,speed,space,4.105773332998069,,,,,,0.0,0.0,0.0,1.0,6.0,1.0,13.0,1.0,142.63783624999996,,,,,,,,,142.628480667001,142.72350520799955,143.51744083300218,143.5084923329996,143.50896462500168,143.51744083300218,143.51744083300218,143.51744083300218,148.3066445830009,,,,,,,,,,,,,,,,,,,,,,,,,,,,,,right,1.0,4.78264604099968,,,,,sub-124,1.0,random_dot,117.23209170140092,
right,right,14.0,0.0,7.0,left,0.0,3.76654758299992,,speed,space,4.105773332998069,,,,,,0.0,0.0,0.0,1.0,7.0,0.0,14.0,1.0,148.31590700000015,,,,,,,,,148.30700295800125,148.40686841700153,149.1998917919991,149.19118525000158,149.1916545000022,149.1998917919991,149.1998917919991,149.1998917919991,152.97821124999973,,,,,,,,,,,,,,,,,,,,,,,,,,,,,,left,0.0,3.76654758299992,,,,,sub-124,1.0,random_dot,117.23209170140092,
left,left,15.0,1.0,7.0,right,0.0,5.672205124999891,,speed,space,4.105773332998069,,,,,,0.0,0.0,0.0,1.0,7.0,1.0,15.0,0.0,152.9939529580006,,,,,,,,,152.97870045799937,153.10803108300024,153.9101543329998,153.90100341700236,153.90149295800074,153.9101543329998,153.9101543329998,153.9101543329998,159.58613520799918,,,,,,,,,,,,,,,,,,,,,,,,,,,,,,right,0.0,5.672205124999891,,158.8991555829998,,,sub-124,1.0,random_dot,117.23209170140092,
left,left,16.0,0.0,8.0,left,1.0,1.1831369579995226,,speed,space,4.105773332998069,,,,,,0.0,0.0,0.0,1.0,8.0,0.0,16.0,0.0,159.59746287500093,,,,,,,,,159.58691179200105,159.68357687500247,160.47599179200188,160.46680325000125,160.46729970800152,160.47599179200188,160.47599179200188,160.47599179200188,161.671255792,,,,,,,,,,,,,,,,,,,,,,,,,,,,,,left,1.0,1.1831369579995226,,,,,sub-124,1.0,random_dot,117.23209170140092,
right,right,17.0,1.0,8.0,right,1.0,1.3567378750012722,,speed,space,4.105773332998069,,,,,,0.0,0.0,0.0,1.0,8.0,1.0,17.0,1.0,161.67926054200143,,,,,,,,,161.67165187499995,162.4664479580024,163.2599727500019,163.2509682500022,163.2514398750027,163.2599727500019,163.2599727500019,163.2599727500019,164.6316786669995,,,,,,,,,,,,,,,,,,,,,,,,,,,,,,right,1.0,1.3567378750012722,,,,,sub-124,1.0,random_dot,117.23209170140092,
left,left,18.0,0.0,9.0,right,0.0,1.6504723329999251,,speed,space,4.105773332998069,,,,,,0.0,0.0,0.0,1.0,9.0,0.0,18.0,0.0,164.63712400000077,,,,,,,,,164.63224179200188,165.42505800000072,166.22540312500132,166.21678512500148,166.21726945800037,166.22540312500132,166.22540312500132,166.22540312500132,167.87860004200047,,,,,,,,,,,,,,,,,,,,,,,,,,,,,,right,0.0,1.6504723329999251,,,,,sub-124,1.0,random_dot,117.23209170140092,
right,right,19.0,1.0,9.0,right,1.0,1.733372667000367,,speed,space,4.105773332998069,,,,,,0.0,0.0,0.0,1.0,9.0,1.0,19.0,1.0,167.88895504200264,,,,,,,,,167.87908075000087,168.67436375000034,169.477396708,169.4681093750005,169.4686970420007,169.477396708,169.477396708,169.477396708,171.22114012500242,,,,,,,,,,,,,,,,,,,,,,,,,,,,,,right,1.0,1.733372667000367,,,,,sub-124,1.0,random_dot,117.23209170140092,
right,right,20.0,0.0,10.0,right,1.0,1.6625742500000342,,speed,space,4.105773332998069,,,,,,0.0,0.0,0.0,1.0,10.0,0.0,20.0,1.0,171.22925316699911,,,,,,,,,171.22161287500057,171.31966808300058,172.1153083749996,172.10670537500118,172.1071574580019,172.1153083749996,172.1153083749996,172.1153083749996,173.78457637500105,,,,,,,,,,,,,,,,,,,,,,,,,,,,,,right,1.0,1.6625742500000342,,,,,sub-124,1.0,random_dot,117.23209170140092,
left,left,21.0,1.0,10.0,left,1.0,1.4416710419973242,,speed,space,4.105773332998069,,,,,,0.0,0.0,0.0,1.0,10.0,1.0,21.0,0.0,173.79271270800018,,,,,,,,,173.78504133300157,173.87351570800092,174.6656715829995,174.65734404199975,174.6578022499998,174.6656715829995,174.6656715829995,174.6656715829995,176.11408975000086,,,,,,,,,,,,,,,,,,,,,,,,,,,,,,left,1.0,1.4416710419973242,,,,,sub-124,1.0,random_dot,117.23209170140092,
left,left,22.0,0.0,11.0,right,0.0,1.62589666599888,,speed,space,4.105773332998069,,,,,,0.0,0.0,0.0,1.0,11.0,0.0,22.0,0.0,176.1234432500023,,,,,,,,,176.11440483300248,177.31962908300193,178.11798724999971,178.10828604199924,178.108795250002,178.11798724999971,178.11798724999971,178.11798724999971,179.7526524999994,,,,,,,,,,,,,,,,,,,,,,,,,,,,,,right,0.0,1.62589666599888,,,,,sub-124,1.0,random_dot,117.23209170140092,
right,right,23.0,1.0,11.0,left,0.0,1.3952392089995556,,speed,space,4.105773332998069,,,,,,0.0,0.0,0.0,1.0,11.0,1.0,23.0,1.0,179.7634458749999,,,,,,,,,179.75322620800216,180.9449344170025,181.74422479200075,181.73460908299967,181.7351933329992,181.74422479200075,181.74422479200075,181.74422479200075,183.14609700000076,,,,,,,,,,,,,,,,,,,,,,,,,,,,,,left,0.0,1.3952392089995556,,,,,sub-124,1.0,random_dot,117.23209170140092,
right,right,24.0,0.0,12.0,right,1.0,1.76019924999855,,speed,space,4.105773332998069,,,,,,0.0,0.0,0.0,1.0,12.0,0.0,24.0,1.0,183.15398170800108,,,,,,,,,183.14649595800077,183.9409644170009,184.7336561250013,184.7244674169997,184.7250337920013,184.7336561250013,184.7336561250013,184.7336561250013,186.5034198329995,,,,,,,,,,,,,,,,,,,,,,,,,,,,,,right,1.0,1.76019924999855,,,,,sub-124,1.0,random_dot,117.23209170140092,
left,left,25.0,1.0,12.0,left,1.0,2.779429917001835,,speed,space,4.105773332998069,,,,,,0.0,0.0,0.0,1.0,12.0,1.0,25.0,0.0,186.51146316700036,,,,,,,,,186.50381958300204,186.5922779169996,187.39143154200065,187.38392629200095,187.38429924999943,187.39143154200065,187.39143154200065,187.39143154200065,190.17470095799945,,,,,,,,,,,,,,,,,,,,,,,,,,,,,,left,1.0,2.779429917001835,,,,,sub-124,1.0,random_dot,117.23209170140092,
left,left,26.0,0.0,13.0,right,0.0,3.6849414999996952,,speed,space,4.105773332998069,,,,,,0.0,0.0,0.0,1.0,13.0,0.0,26.0,0.0,190.1880791250005,,,,,,,,,190.1750749580024,191.37413537500103,192.16626258299948,192.1576112920011,192.15810879200217,192.16626258299948,192.16626258299948,192.16626258299948,195.855786250002,,,,,,,,,,,,,,,,,,,,,,,,,,,,,,right,0.0,3.6849414999996952,,,,,sub-124,1.0,random_dot,117.23209170140092,
right,right,27.0,1.0,13.0,right,1.0,1.3690246660007688,,speed,space,4.105773332998069,,,,,,0.0,0.0,0.0,1.0,13.0,1.0,27.0,1.0,195.87033208299908,,,,,,,,,195.856421667002,197.049756583001,197.84289120800167,197.83395712499987,197.83442579199985,197.84289120800167,197.84289120800167,197.84289120800167,199.21656279200036,,,,,,,,,,,,,,,,,,,,,,,,,,,,,,right,1.0,1.3690246660007688,,,,,sub-124,1.0,random_dot,117.23209170140092,
right,right,28.0,0.0,14.0,right,1.0,2.3672641669982117,,speed,space,4.105773332998069,,,,,,0.0,0.0,0.0,1.0,14.0,0.0,28.0,1.0,199.22435183299967,,,,,,,,,199.2169278750007,200.40763266700012,201.20028224999987,201.1917343330024,201.19218512500083,201.20028224999987,201.20028224999987,201.20028224999987,203.5705850830018,,,,,,,,,,,,,,,,,,,,,,,,,,,,,,right,1.0,2.3672641669982117,,,,,sub-124,1.0,random_dot,117.23209170140092,
left,left,29.0,1.0,14.0,left,1.0,2.8765310829985538,,speed,space,4.105773332998069,,,,,,0.0,0.0,0.0,1.0,14.0,1.0,29.0,0.0,203.57901950000087,,,,,,,,,203.57104916699973,203.66523191700253,204.4599677500009,204.45108099999925,204.45155154200256,204.4599677500009,204.4599677500009,204.4599677500009,207.33867991700023,,,,,,,,,,,,,,,,,,,,,,,,,,,,,,left,1.0,2.8765310829985538,,,,,sub-124,1.0,random_dot,117.23209170140092,
right,right,30.0,0.0,15.0,right,1.0,1.3871274999983143,,speed,space,4.105773332998069,,,,,,0.0,0.0,0.0,1.0,15.0,0.0,30.0,1.0,207.34928287500225,,,,,,,,,207.33909225000025,208.53292729200257,209.32716875000187,209.3178864170004,209.31846987500103,209.32716875000187,209.32716875000187,209.32716875000187,210.7215831249996,,,,,,,,,,,,,,,,,,,,,,,,,,,,,,right,1.0,1.3871274999983143,,,,,sub-124,1.0,random_dot,117.23209170140092,
left,left,31.0,1.0,15.0,right,0.0,2.9097542080016865,,speed,space,4.105773332998069,,,,,,0.0,0.0,0.0,1.0,15.0,1.0,31.0,0.0,210.72945362500104,,,,,,,,,210.72193700000207,211.0660227920016,211.86076237499947,211.8514396669998,211.85205345800205,211.86076237499947,211.86076237499947,211.86076237499947,214.7792088749993,,,,,,,,,,,,,,,,,,,,,,,,,,,,,,right,0.0,2.9097542080016865,,,,,sub-124,1.0,random_dot,117.23209170140092,
left,left,32.0,0.0,16.0,right,0.0,2.3462865839974256,,speed,space,4.105773332998069,,,,,,0.0,0.0,0.0,1.0,16.0,0.0,32.0,0.0,214.78664800000115,,,,,,,,,214.77958062499965,214.87360829200043,215.677068625002,215.6677641669994,215.6684029169992,215.677068625002,215.677068625002,215.677068625002,218.0253796670004,,,,,,,,,,,,,,,,,,,,,,,,,,,,,,right,0.0,2.3462865839974256,,,,,sub-124,1.0,random_dot,117.23209170140092,
right,right,33.0,1.0,16.0,left,0.0,3.6084727910019865,,speed,space,4.105773332998069,,,,,,0.0,0.0,0.0,1.0,16.0,1.0,33.0,1.0,218.03248991700093,,,,,,,,,218.02574166699924,218.3740904580009,219.1667548330006,219.1582354580023,219.1587306670008,219.1667548330006,219.1667548330006,219.1667548330006,222.78455541700168,,,,,,,,,,,,,,,,,,,,,,,,,,,,,,left,0.0,3.6084727910019865,,,,,sub-124,1.0,random_dot,117.23209170140092,
left,left,34.0,0.0,17.0,left,1.0,1.2689740829991931,,speed,space,4.105773332998069,,,,,,0.0,0.0,0.0,1.0,17.0,0.0,34.0,0.0,222.7926599170023,,,,,,,,,222.7849299580012,222.8836469170019,223.67593679200215,223.66690254200148,223.6673829579995,223.67593679200215,223.67593679200215,223.67593679200215,224.95614791700064,,,,,,,,,,,,,,,,,,,,,,,,,,,,,,left,1.0,1.2689740829991931,,,,,sub-124,1.0,random_dot,117.23209170140092,
right,right,35.0,1.0,17.0,right,1.0,1.498591542000213,,speed,space,4.105773332998069,,,,,,0.0,0.0,0.0,1.0,17.0,1.0,35.0,1.0,224.9702553749994,,,,,,,,,224.9565217920026,226.149364375,226.9429303750003,226.93391879200132,226.9343723330021,226.9429303750003,226.9429303750003,226.9429303750003,228.4550767920009,,,,,,,,,,,,,,,,,,,,,,,,,,,,,,right,1.0,1.498591542000213,,,,,sub-124,1.0,random_dot,117.23209170140092,
right,right,36.0,0.0,18.0,right,1.0,2.191690125000605,,speed,space,4.105773332998069,,,,,,0.0,0.0,0.0,1.0,18.0,0.0,36.0,1.0,228.4690515830007,,,,,,,,,228.45543429200188,228.79968958300012,229.59216745800225,229.583365167,229.5838442919994,229.59216745800225,229.59216745800225,229.59216745800225,231.7895345830002,,,,,,,,,,,,,,,,,,,,,,,,,,,,,,right,1.0,2.191690125000605,,,,,sub-124,1.0,random_dot,117.23209170140092,
left,left,37.0,1.0,18.0,left,1.0,3.087280208001175,,speed,space,4.105773332998069,,,,,,0.0,0.0,0.0,1.0,18.0,1.0,37.0,0.0,231.7992012499999,,,,,,,,,231.78988937500253,231.8836741250016,232.67664541699924,232.66761329200017,232.6680917080012,232.67664541699924,232.67664541699924,232.67664541699924,235.77122333300213,,,,,,,,,,,,,,,,,,,,,,,,,,,,,,left,1.0,3.087280208001175,,,,,sub-124,1.0,random_dot,117.23209170140092,
left,left,38.0,0.0,19.0,left,1.0,2.861659917001816,,speed,space,4.105773332998069,,,,,,0.0,0.0,0.0,1.0,19.0,0.0,38.0,0.0,235.7868026670003,,,,,,,,,235.77166495799972,236.11860233300104,236.9165806250021,236.90757741700145,236.9080337080013,236.9165806250021,236.9165806250021,236.9165806250021,239.78422670800137,,,,,,,,,,,,,,,,,,,,,,,,,,,,,,left,1.0,2.861659917001816,,,,,sub-124,1.0,random_dot,117.23209170140092,
right,right,39.0,1.0,19.0,right,1.0,3.100425083001028,,speed,space,4.105773332998069,,,,,,0.0,0.0,0.0,1.0,19.0,1.0,39.0,1.0,239.7955017080021,,,,,,,,,239.7849989580027,240.12407879199964,240.9260231670014,240.9175599580012,240.91797666700225,240.9260231670014,240.9260231670014,240.9260231670014,244.0285617080008,,,,,,,,,,,,,,,,,,,,,,,,,,,,,,right,1.0,3.100425083001028,,,,,sub-124,1.0,random_dot,117.23209170140092,
right,right,40.0,0.0,20.0,right,1.0,3.761223666999285,,speed,space,4.105773332998069,,,,,,0.0,0.0,0.0,1.0,20.0,0.0,40.0,1.0,244.03777283300224,,,,,,,,,244.028932792,244.1235916670012,244.9273277079992,244.91790304200185,244.918486458002,244.9273277079992,244.9273277079992,244.9273277079992,248.6922400420008,,,,,,,,,,,,,,,,,,,,,,,,,,,,,,right,1.0,3.761223666999285,,,,,sub-124,1.0,random_dot,117.23209170140092,
left,left,41.0,1.0,20.0,left,1.0,3.3188976670026022,,speed,space,4.105773332998069,,,,,,0.0,0.0,0.0,1.0,20.0,1.0,41.0,0.0,248.7163590420023,,,,,,,,,248.69270770799997,248.79041058300209,249.59492129200223,249.58486512500167,249.5856618750004,249.59492129200223,249.59492129200223,249.59492129200223,252.9214299170017,,,,,,,,,,,,,,,,,,,,,,,,,,,,,,left,1.0,3.3188976670026022,,,,,sub-124,1.0,random_dot,117.23209170140092,
left,left,42.0,0.0,21.0,right,0.0,1.5143674579994697,,speed,space,4.105773332998069,,,,,,0.0,0.0,0.0,1.0,21.0,0.0,42.0,0.0,252.93284154200228,,,,,,,,,252.92188683300265,253.26620550000007,254.06047245800076,254.0510754579991,254.0516753330012,254.06047245800076,254.06047245800076,254.06047245800076,255.5901379999996,,,,,,,,,,,,,,,,,,,,,,,,,,,,,,right,0.0,1.5143674579994697,,,,,sub-124,1.0,random_dot,117.23209170140092,
right,right,43.0,1.0,21.0,left,0.0,2.689455208001164,,speed,space,4.105773332998069,,,,,,0.0,0.0,0.0,1.0,21.0,1.0,43.0,1.0,255.6030519170017,,,,,,,,,255.5905066250016,255.6870606250013,256.4824306670016,256.4732507080007,256.4737108330009,256.4824306670016,256.4824306670016,256.4824306670016,259.17550091700105,,,,,,,,,,,,,,,,,,,,,,,,,,,,,,left,0.0,2.689455208001164,,,,,sub-124,1.0,random_dot,117.23209170140092,
left,left,44.0,0.0,22.0,left,1.0,4.984867625000334,,speed,space,4.105773332998069,,,,,,0.0,0.0,0.0,1.0,22.0,0.0,44.0,0.0,259.19978087500203,,,,,,,,,259.1759704169999,260.3741847500023,261.16677108300064,261.15811291700084,261.1585799580025,261.16677108300064,261.16677108300064,261.16677108300064,266.1559891670004,,,,,,,,,,,,,,,,,,,,,,,,,,,,,,left,1.0,4.984867625000334,,266.1699748329993,,,sub-124,1.0,random_dot,117.23209170140092,
right,right,45.0,1.0,22.0,right,1.0,2.771681999998691,,speed,space,4.105773332998069,,,,,,0.0,0.0,0.0,1.0,22.0,1.0,45.0,1.0,266.1699748329993,,,,,,,,,266.1567418750019,266.94945912500043,267.74367491700104,267.73447987500185,267.7349527080005,267.74367491700104,267.74367491700104,267.74367491700104,270.52085675000126,,,,,,,,,,,,,,,,,,,,,,,,,,,,,,right,1.0,2.771681999998691,,,,,sub-124,1.0,random_dot,117.23209170140092,
right,right,46.0,0.0,23.0,right,1.0,2.600108792001265,,speed,space,4.105773332998069,,,,,,0.0,0.0,0.0,1.0,23.0,0.0,46.0,1.0,270.53097945800255,,,,,,,,,270.5215076250024,271.7168636250026,272.5099932080011,272.50105608300146,272.50152295800217,272.5099932080011,272.5099932080011,272.5099932080011,275.1133429170004,,,,,,,,,,,,,,,,,,,,,,,,,,,,,,right,1.0,2.600108792001265,,,,,sub-124,1.0,random_dot,117.23209170140092,
left,left,47.0,1.0,23.0,right,0.0,2.577770624997356,,speed,space,4.105773332998069,,,,,,0.0,0.0,0.0,1.0,23.0,1.0,47.0,0.0,275.1210751670005,,,,,,,,,275.1138729170016,275.4572830420002,276.2496157500027,276.24066570799914,276.2411186249992,276.2496157500027,276.2496157500027,276.2496157500027,278.83928916700097,,,,,,,,,,,,,,,,,,,,,,,,,,,,,,right,0.0,2.577770624997356,,,,,sub-124,1.0,random_dot,117.23209170140092,
left,left,48.0,0.0,24.0,right,0.0,3.619721582999773,,speed,space,4.105773332998069,,,,,,0.0,0.0,0.0,1.0,24.0,0.0,48.0,0.0,278.8511481250025,,,,,,,,,278.8396678329991,279.6335806669995,280.4264389170021,280.41764216700176,280.4181244169995,280.4264389170021,280.4264389170021,280.4264389170021,284.0550810420027,,,,,,,,,,,,,,,,,,,,,,,,,,,,,,right,0.0,3.619721582999773,,,,,sub-124,1.0,random_dot,117.23209170140092,
right,right,49.0,1.0,24.0,right,1.0,1.0804342500014172,,speed,space,4.105773332998069,,,,,,0.0,0.0,0.0,1.0,24.0,1.0,49.0,1.0,284.06866662500033,,,,,,,,,284.05585066700223,285.2491205000006,286.04297408300044,286.03402808300234,286.0345285420008,286.04297408300044,286.04297408300044,286.04297408300044,287.127668000001,,,,,,,,,,,,,,,,,,,,,,,,,,,,,,right,1.0,1.0804342500014172,,,,,sub-124,1.0,random_dot,117.23209170140092,
right,right,50.0,0.0,25.0,right,1.0,4.878532875001838,,speed,space,4.105773332998069,,,,,,0.0,0.0,0.0,1.0,25.0,0.0,50.0,1.0,287.1413857080006,,,,,,,,,287.12818524999966,287.2229548329997,288.03357354200125,288.0189250000003,288.01955174999966,288.03357354200125,288.03357354200125,288.03357354200125,292.91826695800046,,,,,,,,,,,,,,,,,,,,,,,,,,,,,,right,1.0,4.878532875001838,,,,,sub-124,1.0,random_dot,117.23209170140092,
left,left,51.0,1.0,25.0,right,0.0,0.9074592079996364,,speed,space,4.105773332998069,,,,,,0.0,0.0,0.0,1.0,25.0,1.0,51.0,0.0,292.9266746249996,,,,,,,,,292.91866095799924,293.27315012500185,294.0658750420007,294.0573413330021,294.05779387499933,294.0658750420007,294.0658750420007,294.0658750420007,294.9800347920027,,,,,,,,,,,,,,,,,,,,,,,,,,,,,,right,0.0,0.9074592079996364,,,,,sub-124,1.0,random_dot,117.23209170140092,
left,left,52.0,0.0,26.0,right,0.0,4.719955541000672,,speed,space,4.105773332998069,,,,,,0.0,0.0,0.0,1.0,26.0,0.0,52.0,0.0,294.98969883300015,,,,,,,,,294.98034375000134,296.1718800830022,296.9725076670002,296.9580202500001,296.95956308300083,296.9725076670002,296.9725076670002,296.9725076670002,301.7040151250003,,,,,,,,,,,,,,,,,,,,,,,,,,,,,,right,0.0,4.719955541000672,,,,,sub-124,1.0,random_dot,117.23209170140092,
right,right,53.0,1.0,26.0,right,1.0,2.502023582997936,,speed,space,4.105773332998069,,,,,,0.0,0.0,0.0,1.0,26.0,1.0,53.0,1.0,301.71221762500136,,,,,,,,,301.7044014999992,302.89962500000183,303.69260012499944,303.6834118750012,303.6840135830025,303.69260012499944,303.69260012499944,303.69260012499944,306.2083577500016,,,,,,,,,,,,,,,,,,,,,,,,,,,,,,right,1.0,2.502023582997936,,,,,sub-124,1.0,random_dot,117.23209170140092,
right,right,54.0,0.0,27.0,right,1.0,2.211851250001928,,speed,space,4.105773332998069,,,,,,0.0,0.0,0.0,1.0,27.0,0.0,54.0,1.0,306.22286404199986,,,,,,,,,306.2087453749991,307.007588708002,307.80999579200216,307.80089087500164,307.8013834170015,307.80999579200216,307.80999579200216,307.80999579200216,310.03837408300024,,,,,,,,,,,,,,,,,,,,,,,,,,,,,,right,1.0,2.211851250001928,,,,,sub-124,1.0,random_dot,117.23209170140092,
left,left,55.0,1.0,27.0,right,0.0,3.6650621250009854,,speed,space,4.105773332998069,,,,,,0.0,0.0,0.0,1.0,27.0,1.0,55.0,0.0,310.04288633300166,,,,,,,,,310.03878025000085,310.8336437500002,311.62583545800226,311.61695308300114,311.6174282920001,311.62583545800226,311.62583545800226,311.62583545800226,315.3029368330026,,,,,,,,,,,,,,,,,,,,,,,,,,,,,,right,0.0,3.6650621250009854,,,,,sub-124,1.0,random_dot,117.23209170140092,
left,left,56.0,0.0,28.0,left,1.0,3.768335750002734,,speed,space,4.105773332998069,,,,,,0.0,0.0,0.0,1.0,28.0,0.0,56.0,0.0,315.3124283750003,,,,,,,,,315.303584917001,315.40022820800004,316.1938453750008,316.18439062499965,316.18497950000165,316.1938453750008,316.1938453750008,316.1938453750008,319.98583133300053,,,,,,,,,,,,,,,,,,,,,,,,,,,,,,left,1.0,3.768335750002734,,,,,sub-124,1.0,random_dot,117.23209170140092,
right,right,57.0,1.0,28.0,right,1.0,0.4932482920012262,,speed,space,4.105773332998069,,,,,,0.0,0.0,0.0,1.0,28.0,1.0,57.0,1.0,319.9994593750016,,,,,,,,,319.9865105829995,320.0835738749993,320.8771745000013,320.8677499170008,320.86833712500083,320.8771745000013,320.8771745000013,320.8771745000013,321.3752659999991,,,,,,,,,,,,,,,,,,,,,,,,,,,,,,right,1.0,0.4932482920012262,,,,,sub-124,1.0,random_dot,117.23209170140092,
left,left,58.0,0.0,29.0,left,1.0,4.016513042002771,,speed,space,4.105773332998069,,,,,,0.0,0.0,0.0,1.0,29.0,0.0,58.0,0.0,321.38321341700066,,,,,,,,,321.3756499580013,321.4737709580004,322.27171525000085,322.26082574999964,322.26129183300145,322.27171525000085,322.27171525000085,322.27171525000085,326.2908913749998,,,,,,,,,,,,,,,,,,,,,,,,,,,,,,left,1.0,4.016513042002771,,,,,sub-124,1.0,random_dot,117.23209170140092,
right,right,59.0,1.0,29.0,right,1.0,2.300980083000468,,speed,space,4.105773332998069,,,,,,0.0,0.0,0.0,1.0,29.0,1.0,59.0,1.0,326.298791792,,,,,,,,,326.2912637920017,327.08246633300223,327.87557579200075,327.866713833002,327.8671720830025,327.87557579200075,327.87557579200075,327.87557579200075,330.18653404200086,,,,,,,,,,,,,,,,,,,,,,,,,,,,,,right,1.0,2.300980083000468,,,,,sub-124,1.0,random_dot,117.23209170140092,
,,0.0,0.0,0.0,,,,,speed,space,4.105773332998069,,,,,,0.0,0.0,0.0,1.0,,,,,,,,,,,,,,,,,,,,,,,,,,,,,,,,,,,,,,,,,,,,,,,,,,,,,,,,,,,sub-124,1.0,random_dot,117.23209170140092,
right,right,0.0,0.0,0.0,right,1.0,1.8902279160029136,,accuracy,space,1.8928696250004575,,,,,,0.0,1.0,1.0,0.0,0.0,0.0,0.0,1.0,332.1246124999998,,,,,,,,,332.1167962920008,332.4575396670007,333.24955899999986,333.24105554199923,333.2415490420026,333.24955899999986,333.24955899999986,333.24955899999986,335.1431529580004,,,,,,,,,,,,,,,,,,,,,,,330.20210733299973,330.2098604580024,330.2098604580024,332.1086896670022,space,1.8928696250004575,,right,1.0,1.8902279160029136,,,,,sub-124,1.0,random_dot,117.23209170140092,
left,left,1.0,1.0,0.0,right,0.0,2.628401666002901,,accuracy,space,1.8928696250004575,,,,,,0.0,1.0,1.0,0.0,0.0,1.0,1.0,0.0,335.1518954170024,,,,,,,,,335.1435271250011,335.24000954200164,336.0501089579993,336.0252620829997,336.02577949999977,336.0501089579993,336.0501089579993,336.0501089579993,338.68105687500065,,,,,,,,,,,,,,,,,,,,,,,,,,,,,,right,0.0,2.628401666002901,,,,,sub-124,1.0,random_dot,117.23209170140092,
right,right,2.0,0.0,1.0,right,1.0,4.758366500002012,,accuracy,space,1.8928696250004575,,,,,,0.0,1.0,1.0,0.0,1.0,0.0,2.0,1.0,338.6879391250004,,,,,,,,,338.6815283750002,339.02430891699987,339.8164136250016,339.80794312500075,339.80838566700186,339.8164136250016,339.8164136250016,339.8164136250016,344.5777092080025,,,,,,,,,,,,,,,,,,,,,,,,,,,,,,right,1.0,4.758366500002012,,,,,sub-124,1.0,random_dot,117.23209170140092,
left,left,3.0,1.0,1.0,right,0.0,7.427827374998742,,accuracy,space,1.8928696250004575,,,,,,0.0,1.0,1.0,0.0,1.0,1.0,3.0,0.0,344.5876715420018,,,,,,,,,344.5782260420019,344.67369566699927,345.4652695830009,345.4569905419994,345.4574379170008,345.4652695830009,345.4652695830009,345.4652695830009,352.8974111250027,,,,,,,,,,,,,,,,,,,,,,,,,,,,,,right,0.0,7.427827374998742,,350.4521038330022,,,sub-124,1.0,random_dot,117.23209170140092,
right,right,4.0,0.0,2.0,right,1.0,0.6295739999986836,,accuracy,space,1.8928696250004575,,,,,,0.0,1.0,1.0,0.0,2.0,0.0,4.0,1.0,352.90779591700266,,,,,,,,,352.89811366700087,352.99482875000103,353.79307941700245,353.7841772079992,353.78463824999926,353.79307941700245,353.79307941700245,353.79307941700245,354.44092345800163,,,,,,,,,,,,,,,,,,,,,,,,,,,,,,right,1.0,0.6295739999986836,,,,,sub-124,1.0,random_dot,117.23209170140092,
left,left,5.0,1.0,2.0,right,0.0,3.6537854590023926,,accuracy,space,1.8928696250004575,,,,,,0.0,1.0,1.0,0.0,2.0,1.0,5.0,0.0,354.44551133300047,,,,,,,,,354.44134575000135,354.54566850000265,355.3434175420007,355.3350219999993,355.3354450420011,355.3434175420007,355.3434175420007,355.3434175420007,359.00287000000026,,,,,,,,,,,,,,,,,,,,,,,,,,,,,,right,0.0,3.6537854590023926,,,,,sub-124,1.0,random_dot,117.23209170140092,
left,left,6.0,0.0,3.0,right,0.0,0.9655043329985348,,accuracy,space,1.8928696250004575,,,,,,0.0,1.0,1.0,0.0,3.0,0.0,6.0,0.0,359.01441183300267,,,,,,,,,359.00367958300194,359.1001940829992,359.8945605000008,359.88364687500143,359.88426258300024,359.8945605000008,359.8945605000008,359.8945605000008,360.868145583001,,,,,,,,,,,,,,,,,,,,,,,,,,,,,,right,0.0,0.9655043329985348,,,,,sub-124,1.0,random_dot,117.23209170140092,
right,right,7.0,1.0,3.0,right,1.0,1.1333707079975284,,accuracy,space,1.8928696250004575,,,,,,0.0,1.0,1.0,0.0,3.0,1.0,7.0,1.0,360.8786329579998,,,,,,,,,360.868637333002,362.0669242500008,362.85986779200175,362.8508450000009,362.8513085830018,362.85986779200175,362.85986779200175,362.85986779200175,363.99990037500174,,,,,,,,,,,,,,,,,,,,,,,,,,,,,,right,1.0,1.1333707079975284,,,,,sub-124,1.0,random_dot,117.23209170140092,
right,right,8.0,0.0,4.0,left,0.0,1.2424145830009363,,accuracy,space,1.8928696250004575,,,,,,0.0,1.0,1.0,0.0,4.0,0.0,8.0,1.0,364.01439808299983,,,,,,,,,364.0008574580024,365.190449083002,365.9825625000012,365.9740558330013,365.97451441700105,365.9825625000012,365.9825625000012,365.9825625000012,367.24396275000254,,,,,,,,,,,,,,,,,,,,,,,,,,,,,,left,0.0,1.2424145830009363,,,,,sub-124,1.0,random_dot,117.23209170140092,
left,left,9.0,1.0,4.0,right,0.0,0.8903706669989333,,accuracy,space,1.8928696250004575,,,,,,0.0,1.0,1.0,0.0,4.0,1.0,9.0,0.0,367.2574487500024,,,,,,,,,367.2445806249998,367.5902635000021,368.3834285000012,368.37481070799913,368.3752803749994,368.3834285000012,368.3834285000012,368.3834285000012,369.2801461250019,,,,,,,,,,,,,,,,,,,,,,,,,,,,,,right,0.0,0.8903706669989333,,,,,sub-124,1.0,random_dot,117.23209170140092,
right,right,10.0,0.0,5.0,right,1.0,1.7705868339980952,,accuracy,space,1.8928696250004575,,,,,,0.0,1.0,1.0,0.0,5.0,0.0,10.0,1.0,369.2921040830006,,,,,,,,,369.2810115829998,369.3754470420026,370.1686269999991,370.1589815000007,370.1594512920019,370.1686269999991,370.1686269999991,370.1686269999991,371.95183420800095,,,,,,,,,,,,,,,,,,,,,,,,,,,,,,right,1.0,1.7705868339980952,,,,,sub-124,1.0,random_dot,117.23209170140092,
left,left,11.0,1.0,5.0,right,0.0,1.6883433339971816,,accuracy,space,1.8928696250004575,,,,,,0.0,1.0,1.0,0.0,5.0,1.0,11.0,0.0,371.9606462920019,,,,,,,,,371.9523465420025,373.1493211670022,373.9718149170003,373.9415771250024,373.94240083300247,373.9718149170003,373.9718149170003,373.9718149170003,375.669536292,,,,,,,,,,,,,,,,,,,,,,,,,,,,,,right,0.0,1.6883433339971816,,,,,sub-124,1.0,random_dot,117.23209170140092,
right,right,12.0,0.0,6.0,right,1.0,2.2943410000007134,,accuracy,space,1.8928696250004575,,,,,,0.0,1.0,1.0,0.0,6.0,0.0,12.0,1.0,375.6777684580011,,,,,,,,,375.6699017499996,376.86663966700144,377.66000575,377.6509068330015,377.65138166700126,377.66000575,377.66000575,377.66000575,379.9602390830005,,,,,,,,,,,,,,,,,,,,,,,,,,,,,,right,1.0,2.2943410000007134,,,,,sub-124,1.0,random_dot,117.23209170140092,
left,left,13.0,1.0,6.0,right,0.0,1.6994044999992184,,accuracy,space,1.8928696250004575,,,,,,0.0,1.0,1.0,0.0,6.0,1.0,13.0,0.0,379.9708573749994,,,,,,,,,379.9606372080016,381.1552159999992,381.9777558749993,381.9669137080018,381.9677442079992,381.9777558749993,381.9777558749993,381.9777558749993,383.68604920800135,,,,,,,,,,,,,,,,,,,,,,,,,,,,,,right,0.0,1.6994044999992184,,,,,sub-124,1.0,random_dot,117.23209170140092,
left,left,14.0,0.0,7.0,right,0.0,3.442414540997561,,accuracy,space,1.8928696250004575,,,,,,0.0,1.0,1.0,0.0,7.0,0.0,14.0,0.0,383.699599167001,,,,,,,,,383.68678050000017,383.78338783300205,384.5818522080008,384.5705969170013,384.5714400420002,384.5818522080008,384.5818522080008,384.5818522080008,388.0374717920022,,,,,,,,,,,,,,,,,,,,,,,,,,,,,,right,0.0,3.442414540997561,,,,,sub-124,1.0,random_dot,117.23209170140092,
right,right,15.0,1.0,7.0,right,1.0,4.53755079199982,,accuracy,space,1.8928696250004575,,,,,,0.0,1.0,1.0,0.0,7.0,1.0,15.0,1.0,388.0496043750027,,,,,,,,,388.0382264580003,388.83709275,389.6371020830011,389.6255371670013,389.62615608300257,389.6371020830011,389.6371020830011,389.6371020830011,394.1846693750013,,,,,,,,,,,,,,,,,,,,,,,,,,,,,,right,1.0,4.53755079199982,,,,,sub-124,1.0,random_dot,117.23209170140092,
right,right,16.0,0.0,8.0,right,1.0,3.226347416999488,,accuracy,space,1.8928696250004575,,,,,,0.0,1.0,1.0,0.0,8.0,0.0,16.0,1.0,394.19558166700153,,,,,,,,,394.1854117080002,394.2834791250025,395.0784834170008,395.069849083,395.0703122500017,395.0784834170008,395.0784834170008,395.0784834170008,398.3099924170019,,,,,,,,,,,,,,,,,,,,,,,,,,,,,,right,1.0,3.226347416999488,,,,,sub-124,1.0,random_dot,117.23209170140092,
left,left,17.0,1.0,8.0,left,1.0,2.992095458001131,,accuracy,space,1.8928696250004575,,,,,,0.0,1.0,1.0,0.0,8.0,1.0,17.0,0.0,398.3187791670025,,,,,,,,,398.3103737500023,398.40692175,399.1990717500012,399.1906231249996,399.19108741700256,399.1990717500012,399.1990717500012,399.1990717500012,402.2010382080007,,,,,,,,,,,,,,,,,,,,,,,,,,,,,,left,1.0,2.992095458001131,,,,,sub-124,1.0,random_dot,117.23209170140092,
right,right,18.0,0.0,9.0,right,1.0,2.259597667001799,,accuracy,space,1.8928696250004575,,,,,,0.0,1.0,1.0,0.0,9.0,0.0,18.0,1.0,402.20857187500224,,,,,,,,,402.2014080420013,402.9906688330011,403.7829285420012,403.7743410000003,403.7748251670018,403.7829285420012,403.7829285420012,403.7829285420012,406.0444935420019,,,,,,,,,,,,,,,,,,,,,,,,,,,,,,right,1.0,2.259597667001799,,,,,sub-124,1.0,random_dot,117.23209170140092,
left,left,19.0,1.0,9.0,right,0.0,1.3947941250007716,,accuracy,space,1.8928696250004575,,,,,,0.0,1.0,1.0,0.0,9.0,1.0,19.0,0.0,406.0536979169992,,,,,,,,,406.0448534579991,407.2414707499993,408.04372879199946,408.0343727920008,408.0349750000023,408.04372879199946,408.04372879199946,408.04372879199946,409.4428958330027,,,,,,,,,,,,,,,,,,,,,,,,,,,,,,right,0.0,1.3947941250007716,,,,,sub-124,1.0,random_dot,117.23209170140092,
left,left,20.0,0.0,10.0,right,0.0,1.9508715000010848,,accuracy,space,1.8928696250004575,,,,,,0.0,1.0,1.0,0.0,10.0,0.0,20.0,0.0,409.45281991700176,,,,,,,,,409.44325983300223,410.6400611249992,411.43363187499926,411.4239196250019,411.4244297920013,411.43363187499926,411.43363187499926,411.43363187499926,413.391386583,,,,,,,,,,,,,,,,,,,,,,,,,,,,,,right,0.0,1.9508715000010848,,,,,sub-124,1.0,random_dot,117.23209170140092,
right,right,21.0,1.0,10.0,right,1.0,1.9427870830004397,,accuracy,space,1.8928696250004575,,,,,,0.0,1.0,1.0,0.0,10.0,1.0,21.0,1.0,413.4053121249999,,,,,,,,,413.3918467500007,414.59149875,415.3930108749992,415.38421283299976,415.38466362500185,415.3930108749992,415.3930108749992,415.3930108749992,417.3452641250005,,,,,,,,,,,,,,,,,,,,,,,,,,,,,,right,1.0,1.9427870830004397,,,,,sub-124,1.0,random_dot,117.23209170140092,
left,left,22.0,0.0,11.0,right,0.0,2.1083979579998413,,accuracy,space,1.8928696250004575,,,,,,0.0,1.0,1.0,0.0,11.0,0.0,22.0,0.0,417.3556860000026,,,,,,,,,417.3459000420007,418.1460749170001,418.9526939169991,418.9379869580007,418.9384850829993,418.9526939169991,418.9526939169991,418.9526939169991,421.0677598750008,,,,,,,,,,,,,,,,,,,,,,,,,,,,,,right,0.0,2.1083979579998413,,,,,sub-124,1.0,random_dot,117.23209170140092,
right,right,23.0,1.0,11.0,right,1.0,2.1962407089995395,,accuracy,space,1.8928696250004575,,,,,,0.0,1.0,1.0,0.0,11.0,1.0,23.0,1.0,421.0779561670024,,,,,,,,,421.06819845800055,421.1666102500021,421.9592077920024,421.9502728330008,421.9507392920023,421.9592077920024,421.9592077920024,421.9592077920024,424.1587308750022,,,,,,,,,,,,,,,,,,,,,,,,,,,,,,right,1.0,2.1962407089995395,,,,,sub-124,1.0,random_dot,117.23209170140092,
right,right,24.0,0.0,12.0,right,1.0,2.117112707997876,,accuracy,space,1.8928696250004575,,,,,,0.0,1.0,1.0,0.0,12.0,0.0,24.0,1.0,424.1715629999999,,,,,,,,,424.159103375001,425.3574570830024,426.1498038749996,426.1411154580019,426.1415817920024,426.1498038749996,426.1498038749996,426.1498038749996,428.26954512500015,,,,,,,,,,,,,,,,,,,,,,,,,,,,,,right,1.0,2.117112707997876,,,,,sub-124,1.0,random_dot,117.23209170140092,
left,left,25.0,1.0,12.0,left,1.0,3.089846040998964,,accuracy,space,1.8928696250004575,,,,,,0.0,1.0,1.0,0.0,12.0,1.0,25.0,0.0,428.2780313330004,,,,,,,,,428.2700155830025,428.61668329200256,429.4102347920016,429.4010401250016,429.4016455830024,429.4102347920016,429.4102347920016,429.4102347920016,432.5021122500002,,,,,,,,,,,,,,,,,,,,,,,,,,,,,,left,1.0,3.089846040998964,,,,,sub-124,1.0,random_dot,117.23209170140092,
left,left,26.0,0.0,13.0,right,0.0,1.692784709000989,,accuracy,space,1.8928696250004575,,,,,,0.0,1.0,1.0,0.0,13.0,0.0,26.0,0.0,432.5077334580019,,,,,,,,,432.5025655000027,433.29963062500246,434.0930889580013,434.08414133300175,434.0846552080002,434.0930889580013,434.0930889580013,434.0930889580013,435.80671537500166,,,,,,,,,,,,,,,,,,,,,,,,,,,,,,right,0.0,1.692784709000989,,,,,sub-124,1.0,random_dot,117.23209170140092,
right,right,27.0,1.0,13.0,right,1.0,1.8884428749988729,,accuracy,space,1.8928696250004575,,,,,,0.0,1.0,1.0,0.0,13.0,1.0,27.0,1.0,435.82122504200015,,,,,,,,,435.8073117919994,437.00004870799967,437.7931629170016,437.784150083,437.7846169580007,437.7931629170016,437.7931629170016,437.7931629170016,439.6908672080026,,,,,,,,,,,,,,,,,,,,,,,,,,,,,,right,1.0,1.8884428749988729,,,,,sub-124,1.0,random_dot,117.23209170140092,
right,right,28.0,0.0,14.0,right,1.0,1.8010364170004325,,accuracy,space,1.8928696250004575,,,,,,0.0,1.0,1.0,0.0,14.0,0.0,28.0,1.0,439.7042173750015,,,,,,,,,439.6913340829997,440.4905928750013,441.2824360420018,441.2738582500024,441.2743214580005,441.2824360420018,441.2824360420018,441.2824360420018,443.08531383300215,,,,,,,,,,,,,,,,,,,,,,,,,,,,,,right,1.0,1.8010364170004325,,,,,sub-124,1.0,random_dot,117.23209170140092,
left,left,29.0,1.0,14.0,right,0.0,1.877740249998169,,accuracy,space,1.8928696250004575,,,,,,0.0,1.0,1.0,0.0,14.0,1.0,29.0,0.0,443.0908718749997,,,,,,,,,443.0856886670008,444.28342283299935,445.07786925000255,445.0680880830005,445.0688772079993,445.07786925000255,445.07786925000255,445.07786925000255,446.9587702080025,,,,,,,,,,,,,,,,,,,,,,,,,,,,,,right,0.0,1.877740249998169,,,,,sub-124,1.0,random_dot,117.23209170140092,
left,left,30.0,0.0,15.0,right,0.0,1.509654124998633,,accuracy,space,1.8928696250004575,,,,,,0.0,1.0,1.0,0.0,15.0,0.0,30.0,0.0,446.9667920419997,,,,,,,,,446.95912383299947,448.1564811669996,448.9494561669999,448.939769042001,448.9402239170013,448.9494561669999,448.9494561669999,448.9494561669999,450.4611685000018,,,,,,,,,,,,,,,,,,,,,,,,,,,,,,right,0.0,1.509654124998633,,,,,sub-124,1.0,random_dot,117.23209170140092,
right,right,31.0,1.0,15.0,right,1.0,2.1530783329981205,,accuracy,space,1.8928696250004575,,,,,,0.0,1.0,1.0,0.0,15.0,1.0,31.0,1.0,450.470439875,,,,,,,,,450.4616360830005,451.2569650000005,452.04978154200217,452.0413260419991,452.04179079200185,452.04978154200217,452.04978154200217,452.04978154200217,454.2051001250002,,,,,,,,,,,,,,,,,,,,,,,,,,,,,,right,1.0,2.1530783329981205,,,,,sub-124,1.0,random_dot,117.23209170140092,
left,left,32.0,0.0,16.0,left,1.0,2.37258679200022,,accuracy,space,1.8928696250004575,,,,,,0.0,1.0,1.0,0.0,16.0,0.0,32.0,0.0,454.2107397500004,,,,,,,,,454.2054884579993,455.39927145800175,456.1933160000008,456.1840511670016,456.1846500419997,456.1933160000008,456.1933160000008,456.1933160000008,458.57329095800014,,,,,,,,,,,,,,,,,,,,,,,,,,,,,,left,1.0,2.37258679200022,,,,,sub-124,1.0,random_dot,117.23209170140092,
right,right,33.0,1.0,16.0,right,1.0,1.973566958000447,,accuracy,space,1.8928696250004575,,,,,,0.0,1.0,1.0,0.0,16.0,1.0,33.0,1.0,458.5860502079995,,,,,,,,,458.5736534999997,458.6699698750017,459.46686037499967,459.4576381250008,459.4581199999993,459.46686037499967,459.46686037499967,459.46686037499967,461.44412233299954,,,,,,,,,,,,,,,,,,,,,,,,,,,,,,right,1.0,1.973566958000447,,,,,sub-124,1.0,random_dot,117.23209170140092,
right,right,34.0,0.0,17.0,left,0.0,3.563483665999229,,accuracy,space,1.8928696250004575,,,,,,0.0,1.0,1.0,0.0,17.0,0.0,34.0,1.0,461.45371545799935,,,,,,,,,461.4444915830027,461.54242325000087,462.3439639579992,462.33443091700246,462.3350374170004,462.3439639579992,462.3439639579992,462.3439639579992,465.91257795800266,,,,,,,,,,,,,,,,,,,,,,,,,,,,,,left,0.0,3.563483665999229,,,,,sub-124,1.0,random_dot,117.23209170140092,
left,left,35.0,1.0,17.0,right,0.0,4.417921207998006,,accuracy,space,1.8928696250004575,,,,,,0.0,1.0,1.0,0.0,17.0,1.0,35.0,0.0,465.920586917,,,,,,,,,465.9129505830024,466.7079789170021,467.5002868750016,467.49145591699926,467.4919088330025,467.5002868750016,467.5002868750016,467.5002868750016,471.92260491699926,,,,,,,,,,,,,,,,,,,,,,,,,,,,,,right,0.0,4.417921207998006,,,,,sub-124,1.0,random_dot,117.23209170140092,
left,left,36.0,0.0,18.0,left,1.0,2.3718754580004315,,accuracy,space,1.8928696250004575,,,,,,0.0,1.0,1.0,0.0,18.0,0.0,36.0,0.0,471.9354816250016,,,,,,,,,471.9231560830012,472.01821225000094,472.8156492080016,472.8068449170023,472.8072935830023,472.8156492080016,472.8156492080016,472.8156492080016,475.19623245800176,,,,,,,,,,,,,,,,,,,,,,,,,,,,,,left,1.0,2.3718754580004315,,,,,sub-124,1.0,random_dot,117.23209170140092,
right,right,37.0,1.0,18.0,right,1.0,2.925713625001663,,accuracy,space,1.8928696250004575,,,,,,0.0,1.0,1.0,0.0,18.0,1.0,37.0,1.0,475.21011204200113,,,,,,,,,475.196608667,476.3895577500007,477.1999772920026,477.18540804200165,477.18610983300096,477.1999772920026,477.1999772920026,477.1999772920026,480.128491042,,,,,,,,,,,,,,,,,,,,,,,,,,,,,,right,1.0,2.925713625001663,,,,,sub-124,1.0,random_dot,117.23209170140092,
left,left,38.0,0.0,19.0,left,1.0,1.5195123750017956,,accuracy,space,1.8928696250004575,,,,,,0.0,1.0,1.0,0.0,19.0,0.0,38.0,0.0,480.1387519580021,,,,,,,,,480.1291326249993,481.3239115420001,482.1162675830019,482.1075386670018,482.1080153330004,482.1162675830019,482.1162675830019,482.1162675830019,483.64307779199953,,,,,,,,,,,,,,,,,,,,,,,,,,,,,,left,1.0,1.5195123750017956,,,,,sub-124,1.0,random_dot,117.23209170140092,
right,right,39.0,1.0,19.0,right,1.0,2.2366255409979203,,accuracy,space,1.8928696250004575,,,,,,0.0,1.0,1.0,0.0,19.0,1.0,39.0,1.0,483.6517689579996,,,,,,,,,483.6435343330013,484.8409104580023,485.6424727920021,485.6340118750013,485.6344304580016,485.6424727920021,485.6424727920021,485.6424727920021,487.8887962920016,,,,,,,,,,,,,,,,,,,,,,,,,,,,,,right,1.0,2.2366255409979203,,,,,sub-124,1.0,random_dot,117.23209170140092,
left,left,40.0,0.0,20.0,left,1.0,2.352819833999092,,accuracy,space,1.8928696250004575,,,,,,0.0,1.0,1.0,0.0,20.0,0.0,40.0,0.0,487.9027197920004,,,,,,,,,487.88935041700097,488.23224429200127,489.0252735419999,489.01647050000247,489.0169532920008,489.0252735419999,489.0252735419999,489.0252735419999,491.38919287500175,,,,,,,,,,,,,,,,,,,,,,,,,,,,,,left,1.0,2.352819833999092,,,,,sub-124,1.0,random_dot,117.23209170140092,
right,right,41.0,1.0,20.0,left,0.0,2.5015310410017264,,accuracy,space,1.8928696250004575,,,,,,0.0,1.0,1.0,0.0,20.0,1.0,41.0,1.0,491.40271329200186,,,,,,,,,491.3895721670015,492.5823506250017,493.3772517920006,493.3674920000012,493.36797941700206,493.3772517920006,493.3772517920006,493.3772517920006,495.88788354200005,,,,,,,,,,,,,,,,,,,,,,,,,,,,,,left,0.0,2.5015310410017264,,,,,sub-124,1.0,random_dot,117.23209170140092,
right,right,42.0,0.0,21.0,right,1.0,1.3582580000002054,,accuracy,space,1.8928696250004575,,,,,,0.0,1.0,1.0,0.0,21.0,0.0,42.0,1.0,495.8985024579997,,,,,,,,,495.8882565420026,496.6823778750004,497.47576041700086,497.46717591700144,497.4676313750024,497.47576041700086,497.47576041700086,497.47576041700086,498.8461669579992,,,,,,,,,,,,,,,,,,,,,,,,,,,,,,right,1.0,1.3582580000002054,,,,,sub-124,1.0,random_dot,117.23209170140092,
left,left,43.0,1.0,21.0,right,0.0,4.936944375000167,,accuracy,space,1.8928696250004575,,,,,,0.0,1.0,1.0,0.0,21.0,1.0,43.0,0.0,498.85131770800217,,,,,,,,,498.84652712500247,500.050239958,500.8429462919994,500.8338820829995,500.8343819580005,500.8429462919994,500.8429462919994,500.8429462919994,505.7833113330016,,,,,,,,,,,,,,,,,,,,,,,,,,,,,,right,0.0,4.936944375000167,,,,,sub-124,1.0,random_dot,117.23209170140092,
left,left,44.0,0.0,22.0,right,0.0,2.1590343749994645,,accuracy,space,1.8928696250004575,,,,,,0.0,1.0,1.0,0.0,22.0,0.0,44.0,0.0,505.791382792002,,,,,,,,,505.7836727499998,506.9741337500018,507.7749581249991,507.7670307920016,507.7676495420019,507.7749581249991,507.7749581249991,507.7749581249991,509.9389054170024,,,,,,,,,,,,,,,,,,,,,,,,,,,,,,right,0.0,2.1590343749994645,,,,,sub-124,1.0,random_dot,117.23209170140092,
right,right,45.0,1.0,22.0,right,1.0,1.2709469590008666,,accuracy,space,1.8928696250004575,,,,,,0.0,1.0,1.0,0.0,22.0,1.0,45.0,1.0,509.9509912079993,,,,,,,,,509.9393426669994,510.0333116670008,510.8262601669994,510.8173811250017,510.81783729200106,510.8262601669994,510.8262601669994,510.8262601669994,512.104124458001,,,,,,,,,,,,,,,,,,,,,,,,,,,,,,right,1.0,1.2709469590008666,,,,,sub-124,1.0,random_dot,117.23209170140092,
right,right,46.0,0.0,23.0,left,0.0,2.7411211670005287,,accuracy,space,1.8928696250004575,,,,,,0.0,1.0,1.0,0.0,23.0,0.0,46.0,1.0,512.1183153750026,,,,,,,,,512.104765125001,512.2007023750011,512.9921040420013,512.9839233750026,512.9843312500016,512.9921040420013,512.9921040420013,512.9921040420013,515.7418896670024,,,,,,,,,,,,,,,,,,,,,,,,,,,,,,left,0.0,2.7411211670005287,,,,,sub-124,1.0,random_dot,117.23209170140092,
left,left,47.0,1.0,23.0,right,0.0,1.230045207998046,,accuracy,space,1.8928696250004575,,,,,,0.0,1.0,1.0,0.0,23.0,1.0,47.0,0.0,515.7548745420027,,,,,,,,,515.7422665830018,516.5400970830015,517.3324895000005,517.3239872080012,517.3244476670006,517.3324895000005,517.3324895000005,517.3324895000005,518.5716654999997,,,,,,,,,,,,,,,,,,,,,,,,,,,,,,right,0.0,1.230045207998046,,,,,sub-124,1.0,random_dot,117.23209170140092,
right,right,48.0,0.0,24.0,left,0.0,2.2354656669995165,,accuracy,space,1.8928696250004575,,,,,,0.0,1.0,1.0,0.0,24.0,0.0,48.0,1.0,518.5849656249993,,,,,,,,,518.5720209169995,518.6683153330014,519.4660438749997,519.4573485000001,519.4578235000008,519.4660438749997,519.4660438749997,519.4660438749997,521.7036945420004,,,,,,,,,,,,,,,,,,,,,,,,,,,,,,left,0.0,2.2354656669995165,,,,,sub-124,1.0,random_dot,117.23209170140092,
left,left,49.0,1.0,24.0,right,0.0,1.9865046670020088,,accuracy,space,1.8928696250004575,,,,,,0.0,1.0,1.0,0.0,24.0,1.0,49.0,0.0,521.7119442920011,,,,,,,,,521.7041615830021,522.4987650830008,523.293146,523.2841355000019,523.2846080420022,523.293146,523.293146,523.293146,525.2860337919992,,,,,,,,,,,,,,,,,,,,,,,,,,,,,,right,0.0,1.9865046670020088,,,,,sub-124,1.0,random_dot,117.23209170140092,
right,right,50.0,0.0,25.0,left,0.0,1.880078374997538,,accuracy,space,1.8928696250004575,,,,,,0.0,1.0,1.0,0.0,25.0,0.0,50.0,1.0,525.3001619999995,,,,,,,,,525.287140583001,525.6273294999992,526.4258384170025,526.4168410420025,526.4173162920015,526.4258384170025,526.4258384170025,526.4258384170025,528.3085077079995,,,,,,,,,,,,,,,,,,,,,,,,,,,,,,left,0.0,1.880078374997538,,,,,sub-124,1.0,random_dot,117.23209170140092,
left,left,51.0,1.0,25.0,left,1.0,5.262614791998203,,accuracy,space,1.8928696250004575,,,,,,0.0,1.0,1.0,0.0,25.0,1.0,51.0,0.0,528.3327124169991,,,,,,,,,528.3089745420002,528.4067835829992,529.1986308330015,529.1900466250008,529.1905036669996,529.1986308330015,529.1986308330015,529.1986308330015,534.464649417001,,,,,,,,,,,,,,,,,,,,,,,,,,,,,,left,1.0,5.262614791998203,,534.1919208750005,,,sub-124,1.0,random_dot,117.23209170140092,
right,right,52.0,0.0,26.0,right,1.0,1.115215583002282,,accuracy,space,1.8928696250004575,,,,,,0.0,1.0,1.0,0.0,26.0,0.0,52.0,1.0,534.4729964580001,,,,,,,,,534.4651419170004,535.2577320000019,536.0555102079998,536.0496027920017,536.0498312080017,536.0555102079998,536.0555102079998,536.0555102079998,537.180523250001,,,,,,,,,,,,,,,,,,,,,,,,,,,,,,right,1.0,1.115215583002282,,,,,sub-124,1.0,random_dot,117.23209170140092,
left,left,53.0,1.0,26.0,right,0.0,2.3687378340000578,,accuracy,space,1.8928696250004575,,,,,,0.0,1.0,1.0,0.0,26.0,1.0,53.0,0.0,537.1926323750013,,,,,,,,,537.1814182920025,537.975986292,538.7780537920007,538.769078958001,538.7695211669998,538.7780537920007,538.7780537920007,538.7780537920007,541.1560627920007,,,,,,,,,,,,,,,,,,,,,,,,,,,,,,right,0.0,2.3687378340000578,,,,,sub-124,1.0,random_dot,117.23209170140092,
left,left,54.0,0.0,27.0,right,0.0,1.0745310419988527,,accuracy,space,1.8928696250004575,,,,,,0.0,1.0,1.0,0.0,27.0,0.0,54.0,0.0,541.1693553330006,,,,,,,,,541.1566969170017,542.3494692919994,543.1438469580025,543.1342351669991,543.1348631250003,543.1438469580025,543.1438469580025,543.1438469580025,544.2223939169999,,,,,,,,,,,,,,,,,,,,,,,,,,,,,,right,0.0,1.0745310419988527,,,,,sub-124,1.0,random_dot,117.23209170140092,
right,right,55.0,1.0,27.0,right,1.0,1.6293683750009222,,accuracy,space,1.8928696250004575,,,,,,0.0,1.0,1.0,0.0,27.0,1.0,55.0,1.0,544.2354429170009,,,,,,,,,544.2227991670006,545.4160391250007,546.2104820420027,546.2009699170012,546.2015575000005,546.2104820420027,546.2104820420027,546.2104820420027,547.8504930000017,,,,,,,,,,,,,,,,,,,,,,,,,,,,,,right,1.0,1.6293683750009222,,,,,sub-124,1.0,random_dot,117.23209170140092,
right,right,56.0,0.0,28.0,left,0.0,0.929588082999544,,accuracy,space,1.8928696250004575,,,,,,0.0,1.0,1.0,0.0,28.0,0.0,56.0,1.0,547.8587049170019,,,,,,,,,547.8508862920025,547.9396045829999,548.7328765420025,548.7240852499999,548.7245967920026,548.7328765420025,548.7328765420025,548.7328765420025,549.6678720830023,,,,,,,,,,,,,,,,,,,,,,,,,,,,,,left,0.0,0.929588082999544,,,,,sub-124,1.0,random_dot,117.23209170140092,
left,left,57.0,1.0,28.0,right,0.0,1.696139707997645,,accuracy,space,1.8928696250004575,,,,,,0.0,1.0,1.0,0.0,28.0,1.0,57.0,0.0,549.6769667500012,,,,,,,,,549.6683890830027,550.0166638330011,550.8100054170027,550.8007622080004,550.8013479170004,550.8100054170027,550.8100054170027,550.8100054170027,552.5173698750004,,,,,,,,,,,,,,,,,,,,,,,,,,,,,,right,0.0,1.696139707997645,,,,,sub-124,1.0,random_dot,117.23209170140092,
left,left,58.0,0.0,29.0,right,0.0,2.532193125000049,,accuracy,space,1.8928696250004575,,,,,,0.0,1.0,1.0,0.0,29.0,0.0,58.0,0.0,552.5218572920021,,,,,,,,,552.5177833750022,553.307669875001,554.1000613750002,554.0909499580011,554.0914397080014,554.1000613750002,554.1000613750002,554.1000613750002,556.6409385420011,,,,,,,,,,,,,,,,,,,,,,,,,,,,,,right,0.0,2.532193125000049,,,,,sub-124,1.0,random_dot,117.23209170140092,
right,right,59.0,1.0,29.0,left,0.0,1.985574624999572,,accuracy,space,1.8928696250004575,,,,,,0.0,1.0,1.0,0.0,29.0,1.0,59.0,1.0,556.6535699170017,,,,,,,,,556.6413063330001,557.8403166669996,558.6436229169994,558.6340647920006,558.634656708,558.6436229169994,558.6436229169994,558.6436229169994,560.6365087500017,,,,,,,,,,,,,,,,,,,,,,,,,,,,,,left,0.0,1.985574624999572,,,,,sub-124,1.0,random_dot,117.23209170140092,
,,1.0,1.0,0.0,,,,,accuracy,space,1.8928696250004575,,,,,,0.0,1.0,1.0,0.0,,,,,,,,,,,,,,,,,,,,,,,,,,,,,,,,,,,,,,,,,,,,,,,,,,,,,,,,,,,sub-124,1.0,random_dot,117.23209170140092,
,,,,,,,,,,,,,,,,,,,,,,,,,,,,,,,,,,,,,,,,,,,,,,,,,,,,,,,,,,,,,,,,,,,,,,,,,,,,,560.6434996669996,560.652538792001,sub-124,,,,
