direction,corrAns,randomInstr,practice_trials.thisRepN,practice_trials.thisTrialN,practice_trials.thisN,practice_trials.thisIndex,instr_trials.thisRepN,instr_trials.thisTrialN,instr_trials.thisN,instr_trials.thisIndex,test_trials.thisRepN,test_trials.thisTrialN,test_trials.thisN,test_trials.thisIndex,thisRow.t,notes,general_instruction.started,textGeneralInstr.started,respGeneralInstr.started,general_instruction.stopped,respGeneralInstr.keys,respGeneralInstr.rt,respGeneralInstr.duration,ITI.started,fixcross.started,fixcross.stopped,ITI.stopped,dots.started,backgroundDots.started,stimulusDots.started,respDots.started,dots.stopped,respDots.keys,respDots.corr,respDots.rt,respDots.duration,feedback.started,textFeedback.started,feedback.stopped,textFeedback.stopped,stimulusDots.stopped,info.started,textInfo.started,keyRespInfo.started,info.stopped,keyRespInfo.keys,keyRespInfo.rt,keyRespInfo.duration,test_instruction.started,textTestInstr.started,respTestInstr.started,test_instruction.stopped,respTestInstr.keys,respTestInstr.rt,respTestInstr.duration,random_instruction.started,textRandomInstr.started,respRandomInstr.started,random_instruction.stopped,respRandomInstr.keys,respRandomInstr.rt,respRandomInstr.duration,goodbye.started,textGoodbye.started,textGoodbye.stopped,goodbye.stopped,participant,session,expName,frameRate,Unnamed: 74
,,,,,,,,,,,,,,,,,0.0087582999840378,0.026967299869284,0.026967299869284,50.24168579978869,space,74.14392290008254,,,,,,,,,,,,,,,,,,,,,,,,,,,,,,,,,,,,,,,,,,,,,sub-059,1.0,random_dot,59.82707586827881,
left,left,,0.0,0.0,0.0,0.0,,,,,,,,,50.2847269999329,,,,,,,,,50.27657279977575,51.055356999859214,51.85551119991578,51.84006019984372,51.84007899998687,51.85551119991578,51.85551119991578,51.85551119991578,56.70695799984969,right,0.0,28.769000600324944,,56.72099539986812,56.7353422997985,57.22289919992909,,,,,,,,,,,,,,,,,,,,,,,,,,,,sub-059,1.0,random_dot,59.82707586827881,
right,right,,0.0,1.0,1.0,1.0,,,,,,,,,57.23995429999195,,,,,,,,,57.22335499990732,58.02217709994875,58.82360849995166,58.80676369997673,58.80678789992817,58.82360849995166,58.82360849995166,58.82360849995166,63.22486969991587,right,1.0,28.32016390003264,,63.22546219988726,63.23920129984617,63.72299979999661,63.73901669983752,,,,,,,,,,,,,,,,,,,,,,,,,,,sub-059,1.0,random_dot,59.82707586827881,
right,right,,1.0,0.0,2.0,1.0,,,,,,,,,63.73901669983752,,,,,,,,,63.723550599999726,64.93848329992034,65.74043659982271,65.72307609999552,65.72310029994696,65.74043659982271,65.74043659982271,65.74043659982271,70.20757879992016,left,0.0,28.39080400019884,,70.20807589986362,70.22220509988256,70.70601169997826,70.72169029992074,,,,,,,,,,,,,,,,,,,,,,,,,,,sub-059,1.0,random_dot,59.82707586827881,
left,left,,1.0,1.0,3.0,0.0,,,,,,,,,70.72169029992074,,,,,,,,,70.70656109997071,71.07223329995759,71.87280979985371,71.85607679979876,71.85609949985519,71.87280979985371,71.87280979985371,71.87280979985371,73.94085529982112,right,0.0,25.99502050015144,,73.94145829998888,73.95474549988285,74.44022369990125,74.45629219990224,,,,,,,,,,,,,,,,,,,,,,,,,,,sub-059,1.0,random_dot,59.82707586827881,
right,right,,2.0,0.0,4.0,1.0,,,,,,,,,74.45629219990224,,,,,,,,,74.44064729986712,75.65553839993663,76.45607869978994,76.43928479985334,76.43931399984285,76.45607869978994,76.45607869978994,76.45607869978994,80.19130869978108,right,1.0,27.65410810010508,,80.19207939994521,80.20529529987834,80.68920329981484,80.70568499993533,,,,,,,,,,,,,,,,,,,,,,,,,,,sub-059,1.0,random_dot,59.82707586827881,
left,left,,2.0,1.0,5.0,0.0,,,,,,,,,80.70568499993533,,,,,,,,,80.68980609998107,81.90830819983967,82.72308859997429,82.70617699995637,82.70620239991695,82.72308859997429,82.72308859997429,82.72308859997429,85.25795080000535,right,0.0,26.46451360010542,,85.25867579993792,85.27220559981652,85.75606429995969,85.7721551998984,,,,,,,,,,,,,,,,,,,,,,,,,,,sub-059,1.0,random_dot,59.82707586827881,
right,right,,3.0,0.0,6.0,1.0,,,,,,,,,85.7721551998984,,,,,,,,,85.75657659978606,86.12239969987422,86.93872199999169,86.92238839995116,86.92241129977629,86.93872199999169,86.93872199999169,86.93872199999169,88.25684179994278,left,0.0,25.241464900085703,,88.25748719996773,88.27210299996659,88.75640579988249,88.77226809994318,,,,,,,,,,,,,,,,,,,,,,,,,,,sub-059,1.0,random_dot,59.82707586827881,
left,left,,3.0,1.0,7.0,0.0,,,,,,,,,88.77226809994318,,,,,,,,,88.75682889996096,89.9720631998498,90.7735636997968,90.75714439991862,90.75716909999028,90.7735636997968,90.7735636997968,90.7735636997968,92.440388899995,right,0.0,25.59562630020082,,92.4409213999752,92.45519069978036,92.93965079984628,92.95609519979917,,,,,,,,,,,,,,,,,,,,,,,,,,,sub-059,1.0,random_dot,59.82707586827881,
left,left,,4.0,0.0,8.0,0.0,,,,,,,,,92.95609519979917,,,,,,,,,92.94011510000564,93.75568749988452,94.55680209980346,94.53951699985193,94.53954059979878,94.55680209980346,94.55680209980346,94.55680209980346,101.57415149989538,right,0.0,30.945659500313923,,101.57467969995923,101.58909379993564,102.07352769980209,102.08925709989852,99.5400667998474,,,,,,,,,,,,,,,,,,,,,,,,,,sub-059,1.0,random_dot,59.82707586827881,
right,right,,4.0,1.0,9.0,1.0,,,,,,,,,102.08925709989852,,,,,,,,,102.07395179988816,102.88959529995918,103.69002639991233,103.6732782998588,103.67330289981328,103.69002639991233,103.69002639991233,103.69002639991233,105.80716689978726,right,1.0,26.035872700158507,,105.80770529992878,105.82272879988886,106.3066048999317,106.32210149988532,,,,,,,,,,,,,,,,,,,,,,,,,,,sub-059,1.0,random_dot,59.82707586827881,
left,left,,5.0,0.0,10.0,0.0,,,,,,,,,106.32210149988532,,,,,,,,,106.30711939977482,106.67216709977949,107.47307579987682,107.45671699987724,107.45674189995044,107.47307579987682,107.47307579987682,107.47307579987682,111.2739486999344,right,0.0,27.72079699998721,,111.27443649992348,111.28940709983,111.7731709999498,111.7896212998312,,,,,,,,,,,,,,,,,,,,,,,,,,,sub-059,1.0,random_dot,59.82707586827881,
right,right,,5.0,1.0,11.0,1.0,,,,,,,,,111.7896212998312,,,,,,,,,111.77362209977582,111.88874639989808,112.68977889977396,112.67403090000153,112.67405349994078,112.68977889977396,112.68977889977396,112.68977889977396,116.29122419981286,left,0.0,27.52988020027988,,116.29175599990413,116.3053766998928,116.79017339996062,116.8058348998893,,,,,,,,,,,,,,,,,,,,,,,,,,,sub-059,1.0,random_dot,59.82707586827881,
left,left,,6.0,0.0,12.0,0.0,,,,,,,,,116.8058348998893,,,,,,,,,116.79060889990068,117.60603329981676,118.42202049982734,118.40533269988372,118.40535229980014,118.42202049982734,118.42202049982734,118.42202049982734,122.3404113999568,left,1.0,27.84497360000387,,122.340916399844,122.35563699994236,122.8555266999174,,,,,,,,,,,,,,,,,,,,,,,,,,,,sub-059,1.0,random_dot,59.82707586827881,
right,right,,6.0,1.0,13.0,1.0,,,,,,,,,122.8713229999412,,,,,,,,,122.8560994998552,122.956071899971,123.75659989984706,123.73940629977731,123.73943119985051,123.75659989984706,123.75659989984706,123.75659989984706,127.49008909985425,right,1.0,27.648363000247627,,127.4905807999894,127.5049620999489,127.98973769997248,128.00523509993218,,,,,,,,,,,,,,,,,,,,,,,,,,,sub-059,1.0,random_dot,59.82707586827881,
left,left,,7.0,0.0,14.0,0.0,,,,,,,,,128.00523509993218,,,,,,,,,127.99021769990212,129.20582699985243,130.0060137999244,129.98955709999427,129.98957619979046,130.0060137999244,130.0060137999244,130.0060137999244,131.80694279982708,left,1.0,25.7173542000819,,131.80744709982537,131.82230729982257,132.30627359985374,132.3228511000052,,,,,,,,,,,,,,,,,,,,,,,,,,,sub-059,1.0,random_dot,59.82707586827881,
right,right,,7.0,1.0,15.0,1.0,,,,,,,,,132.3228511000052,,,,,,,,,132.30672009987757,133.12248489982449,133.93999469978735,133.92223399993964,133.92225559987128,133.93999469978735,133.93999469978735,133.93999469978735,135.2766352999024,right,1.0,25.26354930014349,,135.27745920000598,135.28804319980554,135.773462299956,135.78889219998382,,,,,,,,,,,,,,,,,,,,,,,,,,,sub-059,1.0,random_dot,59.82707586827881,
left,left,,8.0,0.0,16.0,0.0,,,,,,,,,135.78889219998382,,,,,,,,,135.77390529983677,136.98999509983696,137.79014589986764,137.77345739980228,137.7734785999637,137.79014589986764,137.79014589986764,137.79014589986764,141.49026499991305,left,1.0,27.620774100301787,,141.49081579991616,141.50476379995234,141.98991109989583,142.00579450000075,,,,,,,,,,,,,,,,,,,,,,,,,,,sub-059,1.0,random_dot,59.82707586827881,
right,right,,8.0,1.0,17.0,1.0,,,,,,,,,142.00579450000075,,,,,,,,,141.99041349999607,142.80566819990054,143.6067977999337,143.5893761999905,143.5894014998339,143.6067977999337,143.6067977999337,143.6067977999337,149.64113639993593,right,1.0,29.948527600150555,,149.64164389995858,149.65594149986282,150.15602369979024,,148.58899129997008,,,,,,,,,,,,,,,,,,,,,,,,,,sub-059,1.0,random_dot,59.82707586827881,
left,left,,9.0,0.0,18.0,0.0,,,,,,,,,150.1725954997819,,,,,,,,,150.15651629981585,150.2557423999533,151.0564521998167,151.040153299924,151.0401909998618,151.0564521998167,151.0564521998167,151.0564521998167,152.70689709996805,left,1.0,25.570413700304925,,152.70738109992817,152.7226489998866,153.22216139989905,,,,,,,,,,,,,,,,,,,,,,,,,,,,sub-059,1.0,random_dot,59.82707586827881,
right,right,,9.0,1.0,19.0,1.0,,,,,,,,,153.23908979981206,,,,,,,,,153.22262789984234,153.57136279996485,154.37306289980188,154.3565664999187,154.35659089987166,154.37306289980188,154.37306289980188,154.37306289980188,158.774778699968,right,1.0,28.32915520016104,,158.77540399995632,158.78830239991655,159.27339519979432,159.28943019988947,,,,,,,,,,,,,,,,,,,,,,,,,,,sub-059,1.0,random_dot,59.82707586827881,
,,,,,,,,,,,,,,,,,,,,,,,,,,,,,,,,,,,,,,,,,,159.27348639979027,159.28943019988947,159.28943019988947,164.7403245999012,space,29.366985300322995,,,,,,,,,,,,,,,,,,,,sub-059,1.0,random_dot,59.82707586827881,
,,,,,,,,,,,,,,,,,,,,,,,,,,,,,,,,,,,,,,,,,,,,,,,,,164.7403613999486,164.75615519983694,164.75615519983694,174.80720999999903,space,33.97996160015464,,,,,,,,,,,,,sub-059,1.0,random_dot,59.82707586827881,
left,left,accuracy,,,,,0.0,0.0,0.0,0.0,0.0,0.0,0.0,0.0,178.18001149990596,,,,,,,,,178.1715576997958,178.53141949977726,179.33109679981135,179.31484249979258,179.31486589997075,179.33109679981135,179.33109679981135,179.33109679981135,182.16641519987024,left,1.0,26.76506770029664,,,,,,,,,,,,,,,,,,,,,174.82635249989107,174.8450482999906,174.8450482999906,178.16482589999214,space,27.23739770008251,,,,,,sub-059,1.0,random_dot,59.82707586827881,
right,right,accuracy,,,,,0.0,0.0,0.0,0.0,0.0,1.0,1.0,1.0,182.18005239986812,,,,,,,,,182.1682379997801,183.38087189989164,184.19725639978424,184.1806214998942,184.1806472998578,184.19725639978424,184.19725639978424,184.19725639978424,187.5158503998537,right,1.0,27.234082400333136,,,,,,,,,,,,,,,,,,,,,,,,,,,,,,,,sub-059,1.0,random_dot,59.82707586827881,
left,left,accuracy,,,,,0.0,0.0,0.0,0.0,1.0,0.0,2.0,0.0,187.53075789986175,,,,,,,,,187.51683639991097,188.33010309981185,189.1310127999168,189.11406729999,189.1140875997953,189.1310127999168,189.1310127999168,189.1310127999168,192.28191309981048,left,1.0,27.06790620018728,,,,,,,,,,,,,,,,,,,,,,,,,,,,,,,,sub-059,1.0,random_dot,59.82707586827881,
right,right,accuracy,,,,,0.0,0.0,0.0,0.0,1.0,1.0,3.0,1.0,192.2962664999068,,,,,,,,,192.28288239985704,193.09768629982136,193.89760179980655,193.88194149988703,193.8819661999587,193.89760179980655,193.89760179980655,193.89760179980655,196.3507295998279,right,1.0,26.36765780020505,,,,,,,,,,,,,,,,,,,,,,,,,,,,,,,,sub-059,1.0,random_dot,59.82707586827881,
right,right,accuracy,,,,,0.0,0.0,0.0,0.0,2.0,0.0,4.0,1.0,196.36309799994345,,,,,,,,,196.35168139985765,197.5637826998718,198.36410709982735,198.34775329986587,198.34777639992532,198.36410709982735,198.36410709982735,198.36410709982735,201.1651994998101,left,0.0,26.724977900274094,,,,,,,,,,,,,,,,,,,,,,,,,,,,,,,,sub-059,1.0,random_dot,59.82707586827881,
left,left,accuracy,,,,,0.0,0.0,0.0,0.0,2.0,1.0,5.0,0.0,201.1798582999036,,,,,,,,,201.16614629980177,202.38002379983664,203.1810846999288,203.16344109992497,203.1634670998901,203.1810846999288,203.1810846999288,203.1810846999288,206.2321141997818,left,1.0,26.972237900132317,,,,,,,,,,,,,,,,,,,,,,,,,,,,,,,,sub-059,1.0,random_dot,59.82707586827881,
right,right,accuracy,,,,,0.0,0.0,0.0,0.0,3.0,0.0,6.0,1.0,206.24721429985948,,,,,,,,,206.2330864998512,207.4468946999405,208.24677349999547,208.230606299825,208.2306308997795,208.24677349999547,208.24677349999547,208.24677349999547,209.84891559998505,right,1.0,25.518346400232986,,,,,,,,,,,,,,,,,,,,,,,,,,,,,,,,sub-059,1.0,random_dot,59.82707586827881,
left,left,accuracy,,,,,0.0,0.0,0.0,0.0,3.0,1.0,7.0,0.0,209.8635763998609,,,,,,,,,209.8498721998185,210.21329039987177,211.01468399981968,210.99779959977604,210.9978212998249,211.01468399981968,211.01468399981968,211.01468399981968,212.19887189986184,left,1.0,25.099684700137004,,,,,,,,,,,,,,,,,,,,,,,,,,,,,,,,sub-059,1.0,random_dot,59.82707586827881,
left,left,accuracy,,,,,0.0,0.0,0.0,0.0,4.0,0.0,8.0,0.0,212.21378219989128,,,,,,,,,212.19988709990864,212.56400309992023,213.3646807000041,213.3481011998374,213.34812589990904,213.3646807000041,213.3646807000041,213.3646807000041,215.19881989993155,left,1.0,25.754148200154305,,,,,,,,,,,,,,,,,,,,,,,,,,,,,,,,sub-059,1.0,random_dot,59.82707586827881,
right,right,accuracy,,,,,0.0,0.0,0.0,0.0,4.0,1.0,9.0,1.0,215.2135360999964,,,,,,,,,215.1998426998034,216.0136138999369,216.81447909981944,216.79744529980235,216.79746919986792,216.81447909981944,216.81447909981944,216.81447909981944,218.9166328997817,right,1.0,26.03170050028712,,,,,,,,,,,,,,,,,,,,,,,,,,,,,,,,sub-059,1.0,random_dot,59.82707586827881,
right,right,accuracy,,,,,0.0,0.0,0.0,0.0,5.0,0.0,10.0,1.0,218.934785499936,,,,,,,,,218.91778769996017,219.7307859999128,220.5309444998857,220.51456119981597,220.51458219997585,220.5309444998857,220.5309444998857,220.5309444998857,222.6328390999697,right,1.0,26.028515400132164,,,,,,,,,,,,,,,,,,,,,,,,,,,,,,,,sub-059,1.0,random_dot,59.82707586827881,
left,left,accuracy,,,,,0.0,0.0,0.0,0.0,5.0,1.0,11.0,0.0,222.64685399993323,,,,,,,,,222.63383869989772,222.7478012999054,223.54794540000148,223.53112699999477,223.5311481999233,223.54794540000148,223.54794540000148,223.54794540000148,224.91448879987,left,1.0,25.28269210015424,,,,,,,,,,,,,,,,,,,,,,,,,,,,,,,,sub-059,1.0,random_dot,59.82707586827881,
left,left,accuracy,,,,,0.0,0.0,0.0,0.0,6.0,0.0,12.0,0.0,224.92990239989007,,,,,,,,,224.9157619997859,225.2802511998452,226.08112119999717,226.0642561998684,226.06427719979547,226.08112119999717,226.08112119999717,226.08112119999717,227.88167139980945,left,1.0,25.71557890018448,,,,,,,,,,,,,,,,,,,,,,,,,,,,,,,,sub-059,1.0,random_dot,59.82707586827881,
right,right,accuracy,,,,,0.0,0.0,0.0,0.0,6.0,1.0,13.0,1.0,227.89667689986527,,,,,,,,,227.88262219983156,228.2465668998193,229.04804899985905,229.03139259992167,229.0314213999081,229.04804899985905,229.04804899985905,229.04804899985905,231.8151286998764,left,0.0,26.683954200008884,,,,,,,,,,,,,,,,,,,,,,,,,,,,,,,,sub-059,1.0,random_dot,59.82707586827881,
left,left,accuracy,,,,,0.0,0.0,0.0,0.0,7.0,0.0,14.0,0.0,231.83055269997567,,,,,,,,,231.81610649987124,231.92963709984903,232.7312284999061,232.7138219999615,232.7138472998049,232.7312284999061,232.7312284999061,232.7312284999061,234.9140945998952,left,1.0,26.106038100318983,,,,,,,,,,,,,,,,,,,,,,,,,,,,,,,,sub-059,1.0,random_dot,59.82707586827881,
right,right,accuracy,,,,,0.0,0.0,0.0,0.0,7.0,1.0,15.0,1.0,234.92938609980047,,,,,,,,,234.9151252999436,235.03007699991576,235.8307548998855,235.81370679987597,235.8137355998624,235.8307548998855,235.8307548998855,235.8307548998855,240.24829489993863,left,0.0,28.334929700242355,,,,,,,,,,,,,,,,,,,,,,,,,,,,,,,,sub-059,1.0,random_dot,59.82707586827881,
right,right,accuracy,,,,,0.0,0.0,0.0,0.0,8.0,0.0,16.0,1.0,240.2626811999362,,,,,,,,,240.24927329993807,241.46338129998185,242.26433999999423,242.2476524999365,242.2476720998529,242.26433999999423,242.26433999999423,242.26433999999423,243.99863329995424,right,1.0,25.64935900014825,,,,,,,,,,,,,,,,,,,,,,,,,,,,,,,,sub-059,1.0,random_dot,59.82707586827881,
left,left,accuracy,,,,,0.0,0.0,0.0,0.0,8.0,1.0,17.0,0.0,244.01305919978768,,,,,,,,,243.99990949989296,245.2137482999824,246.01432729978117,245.99769709981047,245.9977207998745,246.01432729978117,246.01432729978117,246.01432729978117,247.04826959990896,left,1.0,24.959335000021383,,,,,,,,,,,,,,,,,,,,,,,,,,,,,,,,sub-059,1.0,random_dot,59.82707586827881,
left,left,accuracy,,,,,0.0,0.0,0.0,0.0,9.0,0.0,18.0,0.0,247.0631478999276,,,,,,,,,247.04928159993145,248.26250479999,249.06342219980436,249.0468915998936,249.0469213000033,249.06342219980436,249.06342219980436,249.06342219980436,249.9975466998294,left,1.0,24.85442940029316,,,,,,,,,,,,,,,,,,,,,,,,,,,,,,,,sub-059,1.0,random_dot,59.82707586827881,
right,right,accuracy,,,,,0.0,0.0,0.0,0.0,9.0,1.0,19.0,1.0,250.01263169990847,,,,,,,,,249.9985063998029,250.3626545998268,251.16322509991005,251.1467443997972,251.14678319985975,251.16322509991005,251.16322509991005,251.16322509991005,255.0641599998344,right,1.0,27.81827730010264,,,,,,,,,,,,,,,,,,,,,,,,,,,,,,,,sub-059,1.0,random_dot,59.82707586827881,
left,left,accuracy,,,,,0.0,0.0,0.0,0.0,10.0,0.0,20.0,0.0,255.078979899874,,,,,,,,,255.06542549980804,255.17920019989836,255.98122119996697,255.96483059995808,255.9648519998882,255.98122119996697,255.98122119996697,255.98122119996697,257.59762399992906,left,1.0,25.54110569995828,,,,,,,,,,,,,,,,,,,,,,,,,,,,,,,,sub-059,1.0,random_dot,59.82707586827881,
right,right,accuracy,,,,,0.0,0.0,0.0,0.0,10.0,1.0,21.0,1.0,257.6124562998302,,,,,,,,,257.5989287998528,258.4137304998003,259.23028309992515,259.2138229999691,259.213846599916,259.23028309992515,259.23028309992515,259.23028309992515,262.8996048998088,left,0.0,27.597969700116664,,,,,,,,,,,,,,,,,,,,,,,,,,,,,,,,sub-059,1.0,random_dot,59.82707586827881,
right,right,accuracy,,,,,0.0,0.0,0.0,0.0,11.0,0.0,22.0,1.0,262.91306649986655,,,,,,,,,262.90061579993926,263.71267799986526,264.51375059993006,264.4980142998975,264.49803949985653,264.51375059993006,264.51375059993006,264.51375059993006,265.63210859987885,right,1.0,25.036834300030023,,,,,,,,,,,,,,,,,,,,,,,,,,,,,,,,sub-059,1.0,random_dot,59.82707586827881,
left,left,accuracy,,,,,0.0,0.0,0.0,0.0,11.0,1.0,23.0,0.0,265.6464079997968,,,,,,,,,265.6330600997899,265.9967801999301,266.79788129986264,266.7817593999207,266.78177939984016,266.79788129986264,266.79788129986264,266.79788129986264,268.14754009991884,left,1.0,25.27255480014719,,,,,,,,,,,,,,,,,,,,,,,,,,,,,,,,sub-059,1.0,random_dot,59.82707586827881,
left,left,accuracy,,,,,0.0,0.0,0.0,0.0,12.0,0.0,24.0,0.0,268.16240989998914,,,,,,,,,268.1485344998073,268.5134383998811,269.3142126998864,269.2975665999111,269.2975910999812,269.3142126998864,269.3142126998864,269.3142126998864,270.4975823999848,left,1.0,25.101015500025824,,,,,,,,,,,,,,,,,,,,,,,,,,,,,,,,sub-059,1.0,random_dot,59.82707586827881,
right,right,accuracy,,,,,0.0,0.0,0.0,0.0,12.0,1.0,25.0,1.0,270.5123269998003,,,,,,,,,270.49860169994645,270.6137297998648,271.4302170998417,271.4133651999291,271.4133903000038,271.4302170998417,271.4302170998417,271.4302170998417,272.6650460998062,right,1.0,25.15571180009283,,,,,,,,,,,,,,,,,,,,,,,,,,,,,,,,sub-059,1.0,random_dot,59.82707586827881,
left,left,accuracy,,,,,0.0,0.0,0.0,0.0,13.0,0.0,26.0,0.0,272.67941409978084,,,,,,,,,272.66617919993587,273.47999589983374,274.2969310998451,274.2801003998611,274.28012559982017,274.2969310998451,274.2969310998451,274.2969310998451,276.5982352998108,left,1.0,26.218298400286585,,,,,,,,,,,,,,,,,,,,,,,,,,,,,,,,sub-059,1.0,random_dot,59.82707586827881,
right,right,accuracy,,,,,0.0,0.0,0.0,0.0,13.0,1.0,27.0,1.0,276.613031799905,,,,,,,,,276.5991849999409,277.41372239985503,278.21337999985553,278.1979480998125,278.19796939985827,278.21337999985553,278.21337999985553,278.21337999985553,280.764715799829,left,0.0,26.47094259993173,,,,,,,,,,,,,,,,,,,,,,,,,,,,,,,,sub-059,1.0,random_dot,59.82707586827881,
right,right,accuracy,,,,,0.0,0.0,0.0,0.0,14.0,0.0,28.0,1.0,280.77959529985674,,,,,,,,,280.76567709981464,280.88050379999913,281.69714699988253,281.68088339990936,281.68090179981664,281.69714699988253,281.69714699988253,281.69714699988253,284.23121059988625,right,1.0,26.463041400071237,,,,,,,,,,,,,,,,,,,,,,,,,,,,,,,,sub-059,1.0,random_dot,59.82707586827881,
left,left,accuracy,,,,,0.0,0.0,0.0,0.0,14.0,1.0,29.0,0.0,284.24587339977734,,,,,,,,,284.2322163998615,285.0456818998791,285.84686129982583,285.8298598998226,285.829890999943,285.84686129982583,285.84686129982583,285.84686129982583,287.6307846999261,left,1.0,25.70132190012373,,,,,,,,,,,,,,,,,,,,,,,,,,,,,,,,sub-059,1.0,random_dot,59.82707586827881,
left,left,accuracy,,,,,0.0,0.0,0.0,0.0,15.0,0.0,30.0,0.0,287.64598329993896,,,,,,,,,287.63180069997907,288.44658039999194,289.2476838999428,289.23081399989314,289.2308335998096,289.2476838999428,289.2476838999428,289.2476838999428,290.9644891999196,left,1.0,25.63310680002905,,,,,,,,,,,,,,,,,,,,,,,,,,,,,,,,sub-059,1.0,random_dot,59.82707586827881,
right,right,accuracy,,,,,0.0,0.0,0.0,0.0,15.0,1.0,31.0,1.0,290.9794321998488,,,,,,,,,290.9654430998489,291.3299830998294,292.1300096998457,292.1135308998637,292.11355659994297,292.1300096998457,292.1300096998457,292.1300096998457,293.398467999883,right,1.0,25.183643100317568,,,,,,,,,,,,,,,,,,,,,,,,,,,,,,,,sub-059,1.0,random_dot,59.82707586827881,
left,left,accuracy,,,,,0.0,0.0,0.0,0.0,16.0,0.0,32.0,0.0,293.4133377999533,,,,,,,,,293.3994831999298,294.6124953997787,295.41319509991445,295.3967865000013,295.39681119984016,295.41319509991445,295.41319509991445,295.41319509991445,296.3636570998933,left,1.0,24.87463720003143,,,,,,,,,,,,,,,,,,,,,,,,,,,,,,,,sub-059,1.0,random_dot,59.82707586827881,
right,right,accuracy,,,,,0.0,0.0,0.0,0.0,16.0,1.0,33.0,1.0,296.3792530999053,,,,,,,,,296.364573800005,297.17950769979507,297.9799567000009,297.9628268999513,297.9628465999849,297.9799567000009,297.9799567000009,297.9799567000009,300.2983384998515,right,1.0,26.2401069002226,,,,,,,,,,,,,,,,,,,,,,,,,,,,,,,,sub-059,1.0,random_dot,59.82707586827881,
left,left,accuracy,,,,,0.0,0.0,0.0,0.0,17.0,0.0,34.0,0.0,300.31296949996613,,,,,,,,,300.2994259998668,301.11416959995404,301.929466099944,301.91348049999215,301.9135010999162,301.929466099944,301.929466099944,301.929466099944,303.58128019981086,left,1.0,25.57970660016872,,,,,,,,,,,,,,,,,,,,,,,,,,,,,,,,sub-059,1.0,random_dot,59.82707586827881,
right,right,accuracy,,,,,0.0,0.0,0.0,0.0,17.0,1.0,35.0,1.0,303.59559169993736,,,,,,,,,303.58255579997785,303.9465516998898,304.7466307999566,304.7299321999308,304.7299573000055,304.7466307999566,304.7466307999566,304.7466307999566,306.96379339997657,right,1.0,26.132247200235724,,,,,,,,,,,,,,,,,,,,,,,,,,,,,,,,sub-059,1.0,random_dot,59.82707586827881,
right,right,accuracy,,,,,0.0,0.0,0.0,0.0,18.0,0.0,36.0,1.0,306.9788637999445,,,,,,,,,306.964733999921,308.1792898999993,308.9799840999767,308.96363789984025,308.963663399918,308.9799840999767,308.9799840999767,308.9799840999767,311.4808143998962,left,0.0,26.415396000025797,,,,,,,,,,,,,,,,,,,,,,,,,,,,,,,,sub-059,1.0,random_dot,59.82707586827881,
left,left,accuracy,,,,,0.0,0.0,0.0,0.0,18.0,1.0,37.0,0.0,311.4960002999287,,,,,,,,,311.48210659995675,312.29589549987577,313.0975865998771,313.0805380998645,313.08055889979005,313.0975865998771,313.0975865998771,313.0975865998771,315.2818889999762,left,1.0,26.109177500009537,,,,,,,,,,,,,,,,,,,,,,,,,,,,,,,,sub-059,1.0,random_dot,59.82707586827881,
left,left,accuracy,,,,,0.0,0.0,0.0,0.0,19.0,0.0,38.0,0.0,315.2962187998928,,,,,,,,,315.2832522999961,316.4965824999381,317.29758269991726,317.2813779998105,317.28140300000086,317.29758269991726,317.29758269991726,317.29758269991726,318.74853439978324,left,1.0,25.36829900019802,,,,,,,,,,,,,,,,,,,,,,,,,,,,,,,,sub-059,1.0,random_dot,59.82707586827881,
right,right,accuracy,,,,,0.0,0.0,0.0,0.0,19.0,1.0,39.0,1.0,318.76342459977604,,,,,,,,,318.74950079992414,318.8633492998779,319.66469439980574,319.6472329997923,319.6472599999979,319.66469439980574,319.66469439980574,319.66469439980574,323.1148236999288,right,1.0,27.364147200249132,,,,,,,,,,,,,,,,,,,,,,,,,,,,,,,,sub-059,1.0,random_dot,59.82707586827881,
right,right,accuracy,,,,,0.0,0.0,0.0,0.0,20.0,0.0,40.0,1.0,323.129333099816,,,,,,,,,323.1161061997991,323.92930059996434,324.730150999967,324.71350359986536,324.7135264999233,324.730150999967,324.730150999967,324.730150999967,327.6814439999871,left,0.0,26.87025499995798,,,,,,,,,,,,,,,,,,,,,,,,,,,,,,,,sub-059,1.0,random_dot,59.82707586827881,
left,left,accuracy,,,,,0.0,0.0,0.0,0.0,20.0,1.0,41.0,0.0,327.6957923998125,,,,,,,,,327.6827109998558,328.896655399818,329.6970901999157,329.68011989980005,329.680145899998,329.6970901999157,329.6970901999157,329.6970901999157,330.531740399776,left,1.0,24.751469200244173,,,,,,,,,,,,,,,,,,,,,,,,,,,,,,,,sub-059,1.0,random_dot,59.82707586827881,
right,right,accuracy,,,,,0.0,0.0,0.0,0.0,21.0,0.0,42.0,1.0,330.54619069979526,,,,,,,,,330.532779000001,331.3465640998911,332.14752819994465,332.1308430999052,332.1308679999784,332.14752819994465,332.14752819994465,332.14752819994465,335.59746309998445,right,1.0,27.37442890019156,,,,,,,,,,,,,,,,,,,,,,,,,,,,,,,,sub-059,1.0,random_dot,59.82707586827881,
left,left,accuracy,,,,,0.0,0.0,0.0,0.0,21.0,1.0,43.0,0.0,335.6127323999536,,,,,,,,,335.598438099958,336.81320309988223,337.61363419983536,337.5967317998875,337.5967570999637,337.61363419983536,337.61363419983536,337.61363419983536,338.84727989998646,left,1.0,25.15447090030648,,,,,,,,,,,,,,,,,,,,,,,,,,,,,,,,sub-059,1.0,random_dot,59.82707586827881,
left,left,accuracy,,,,,0.0,0.0,0.0,0.0,22.0,0.0,44.0,0.0,338.86187159991823,,,,,,,,,338.84820879995823,340.06319559994154,340.8794083998073,340.86268649995327,340.8627080998849,340.8794083998073,340.8794083998073,340.8794083998073,342.31340179988183,left,1.0,25.354753200197592,,,,,,,,,,,,,,,,,,,,,,,,,,,,,,,,sub-059,1.0,random_dot,59.82707586827881,
right,right,accuracy,,,,,0.0,0.0,0.0,0.0,22.0,1.0,45.0,1.0,342.32846659980714,,,,,,,,,342.31483749998733,342.4301984999329,343.24663739977404,343.22971959994175,343.2297591997776,343.24663739977404,343.24663739977404,343.24663739977404,345.5474389998708,right,1.0,26.222528100246564,,,,,,,,,,,,,,,,,,,,,,,,,,,,,,,,sub-059,1.0,random_dot,59.82707586827881,
right,right,accuracy,,,,,0.0,0.0,0.0,0.0,23.0,0.0,46.0,1.0,345.5625046999194,,,,,,,,,345.5484091998078,346.36508859996684,347.17986059980467,347.1639733999036,347.16399589995854,347.17986059980467,347.17986059980467,347.17986059980467,351.5484686999116,left,0.0,28.287301200209185,,,,,,,,,,,,,,,,,,,,,,,,,,,,,,,,sub-059,1.0,random_dot,59.82707586827881,
left,left,accuracy,,,,,0.0,0.0,0.0,0.0,23.0,1.0,47.0,0.0,351.56276679993607,,,,,,,,,351.5494660998229,352.36325339996256,353.1642657998018,353.14772919984534,353.14774909988046,353.1642657998018,353.1642657998018,353.1642657998018,354.19881209987216,left,1.0,24.949649500194937,,,,,,,,,,,,,,,,,,,,,,,,,,,,,,,,sub-059,1.0,random_dot,59.82707586827881,
right,right,accuracy,,,,,0.0,0.0,0.0,0.0,24.0,0.0,48.0,1.0,354.21375429979526,,,,,,,,,354.1999659999274,354.5622823999729,355.36373099987395,355.3475924998056,355.34761709999293,355.36373099987395,355.36373099987395,355.36373099987395,357.8979024,right,1.0,26.454172200057656,,,,,,,,,,,,,,,,,,,,,,,,,,,,,,,,sub-059,1.0,random_dot,59.82707586827881,
left,left,accuracy,,,,,0.0,0.0,0.0,0.0,24.0,1.0,49.0,0.0,357.9126148999203,,,,,,,,,357.89892479986884,358.71177769987844,359.514261999866,359.4969314998016,359.49695309996605,359.514261999866,359.514261999866,359.514261999866,362.2812319998629,left,1.0,26.68679379997775,,,,,,,,,,,,,,,,,,,,,,,,,,,,,,,,sub-059,1.0,random_dot,59.82707586827881,
left,left,accuracy,,,,,0.0,0.0,0.0,0.0,25.0,0.0,50.0,0.0,362.2962479998823,,,,,,,,,362.2822505999357,362.6463918997906,363.44695729995146,363.4304938998539,363.43051829980686,363.44695729995146,363.44695729995146,363.44695729995146,365.81473059998825,left,1.0,26.295339199947197,,,,,,,,,,,,,,,,,,,,,,,,,,,,,,,,sub-059,1.0,random_dot,59.82707586827881,
right,right,accuracy,,,,,0.0,0.0,0.0,0.0,25.0,1.0,51.0,1.0,365.8291223999113,,,,,,,,,365.81570049980655,367.029076699866,367.830648199888,367.8139845998958,367.8140091998503,367.830648199888,367.830648199888,367.830648199888,369.0973542998545,right,1.0,25.18283020029776,,,,,,,,,,,,,,,,,,,,,,,,,,,,,,,,sub-059,1.0,random_dot,59.82707586827881,
left,left,accuracy,,,,,0.0,0.0,0.0,0.0,26.0,0.0,52.0,0.0,369.1125193999615,,,,,,,,,369.0982819998171,369.4622581999283,370.26350549981,370.2466588998213,370.24668270000257,370.26350549981,370.26350549981,370.26350549981,374.6481154998765,left,1.0,28.30363960028626,,,,,,,,,,,,,,,,,,,,,,,,,,,,,,,,sub-059,1.0,random_dot,59.82707586827881,
right,right,accuracy,,,,,0.0,0.0,0.0,0.0,26.0,1.0,53.0,1.0,374.6628024999518,,,,,,,,,374.6490616998635,374.7627667000052,375.5805040998384,375.5635485998355,375.5635730999056,375.5805040998384,375.5805040998384,375.5805040998384,379.7814775998704,left,0.0,28.12074170028791,,,,,,,,,,,,,,,,,,,,,,,,,,,,,,,,sub-059,1.0,random_dot,59.82707586827881,
left,left,accuracy,,,,,0.0,0.0,0.0,0.0,27.0,0.0,54.0,0.0,379.79585489979945,,,,,,,,,379.7824844999705,380.1466040997766,380.9471714999527,380.9305926999077,380.9306140998378,380.9471714999527,380.9471714999527,380.9471714999527,382.7983880999964,left,1.0,25.767854200210422,,,,,,,,,,,,,,,,,,,,,,,,,,,,,,,,sub-059,1.0,random_dot,59.82707586827881,
right,right,accuracy,,,,,0.0,0.0,0.0,0.0,27.0,1.0,55.0,1.0,382.8129601997789,,,,,,,,,382.7993319998495,383.1616638998967,383.9629081999883,383.9463125998154,383.9463346998673,383.9629081999883,383.9629081999883,383.9629081999883,385.54710659990087,right,1.0,25.51041140011512,,,,,,,,,,,,,,,,,,,,,,,,,,,,,,,,sub-059,1.0,random_dot,59.82707586827881,
right,right,accuracy,,,,,0.0,0.0,0.0,0.0,28.0,0.0,56.0,1.0,385.5624252997805,,,,,,,,,385.548515799921,386.36217419989407,387.1633242999669,387.1459647999145,387.1459979999345,387.1633242999669,387.1633242999669,387.1633242999669,392.2006313998718,left,0.0,28.963595899986103,,,,,,392.1496783997864,,,,,,,,,,,,,,,,,,,,,,,,,,sub-059,1.0,random_dot,59.82707586827881,
left,left,accuracy,,,,,0.0,0.0,0.0,0.0,28.0,1.0,57.0,0.0,392.21481019980274,,,,,,,,,392.20157069992274,392.3152546999045,393.116556199966,393.09971889993176,393.0997451997828,393.116556199966,393.116556199966,393.116556199966,394.0342087999452,left,1.0,24.845422900281847,,,,,,,,,,,,,,,,,,,,,,,,,,,,,,,,sub-059,1.0,random_dot,59.82707586827881,
left,left,accuracy,,,,,0.0,0.0,0.0,0.0,29.0,0.0,58.0,0.0,394.04872229998,,,,,,,,,394.0351520997938,395.2490624999628,396.0498315999285,396.0355384999421,396.0355630998965,396.0498315999285,396.0498315999285,396.0498315999285,397.5181746999733,left,1.0,25.39173330017365,,,,,,,,,,,,,,,,,,,,,,,,,,,,,,,,sub-059,1.0,random_dot,59.82707586827881,
right,right,accuracy,,,,,0.0,0.0,0.0,0.0,29.0,1.0,59.0,1.0,397.5320780999027,,,,,,,,,397.5191377999727,398.3324195998721,399.1331380999181,399.1162686999887,399.1162964999676,399.1331380999181,399.1331380999181,399.1331380999181,400.3498009999748,right,1.0,25.1404272003565,,,,,,,,,,,,,,,,,,,,,,,,,,,,,,,,sub-059,1.0,random_dot,59.82707586827881,
,,accuracy,,,,,0.0,0.0,0.0,0.0,,,,,,,,,,,,,,,,,,,,,,,,,,,,,,,,,,,,,,,,,,,,,,,,,,,,,,,,,sub-059,1.0,random_dot,59.82707586827881,
right,right,speed,,,,,0.0,1.0,1.0,1.0,0.0,0.0,0.0,1.0,404.07710619992577,,,,,,,,,404.0705342998263,404.16593419993296,404.9660098999738,404.9494786998257,404.9495283998549,404.9660098999738,404.9660098999738,404.9660098999738,409.0007786999922,left,0.0,27.957349100150168,,,,,,,,,,,,,,,,,,,,,400.3510667998344,400.3656063999515,400.3656063999515,404.0499123998452,space,27.608095300151035,,,,,,sub-059,1.0,random_dot,59.82707586827881,
left,left,speed,,,,,0.0,1.0,1.0,1.0,0.0,1.0,1.0,0.0,409.0151375997812,,,,,,,,,409.0023786998354,410.2150112998206,411.0163163999096,411.0000165998936,411.0000355998054,411.0163163999096,411.0163163999096,411.0163163999096,411.8002474999521,left,1.0,24.707323200069368,,,,,,,,,,,,,,,,,,,,,,,,,,,,,,,,sub-059,1.0,random_dot,59.82707586827881,
left,left,speed,,,,,0.0,1.0,1.0,1.0,1.0,0.0,2.0,0.0,411.81469669984654,,,,,,,,,411.80142999999225,411.9151371999178,412.71679159998894,412.69934049993753,412.699360099854,412.71679159998894,412.71679159998894,412.71679159998894,413.74979879986495,left,1.0,24.96040079998784,,,,,,,,,,,,,,,,,,,,,,,,,,,,,,,,sub-059,1.0,random_dot,59.82707586827881,
right,right,speed,,,,,0.0,1.0,1.0,1.0,1.0,1.0,3.0,1.0,413.7649361998774,,,,,,,,,413.7508055998478,414.1146081998013,414.91617019986734,414.89983699982986,414.89985799998976,414.91617019986734,414.91617019986734,414.91617019986734,419.51808139984496,right,1.0,28.52689540013671,,,,,,,,,,,,,,,,,,,,,,,,,,,,,,,,sub-059,1.0,random_dot,59.82707586827881,
left,left,speed,,,,,0.0,1.0,1.0,1.0,2.0,0.0,4.0,0.0,419.5329673998058,,,,,,,,,419.51903039985336,420.3324058998842,421.1496308997739,421.132771599805,421.1328020999208,421.1496308997739,421.1496308997739,421.1496308997739,423.0669219999109,left,1.0,25.8363407002762,,,,,,,,,,,,,,,,,,,,,,,,,,,,,,,,sub-059,1.0,random_dot,59.82707586827881,
right,right,speed,,,,,0.0,1.0,1.0,1.0,2.0,1.0,5.0,1.0,423.08254459989257,,,,,,,,,423.06790169980377,424.2822310999036,425.0830772998743,425.0665269999299,425.0665463998448,425.0830772998743,425.0830772998743,425.0830772998743,428.8005077999551,left,0.0,27.63752089999616,,,,,,,,,,,,,,,,,,,,,,,,,,,,,,,,sub-059,1.0,random_dot,59.82707586827881,
left,left,speed,,,,,0.0,1.0,1.0,1.0,3.0,0.0,6.0,0.0,428.81495229993016,,,,,,,,,428.80146849993616,429.6149196999613,430.41649329988286,430.3996008997783,430.3996257998515,430.41649329988286,430.41649329988286,430.41649329988286,432.7170307999477,left,1.0,26.229647500207648,,,,,,,,,,,,,,,,,,,,,,,,,,,,,,,,sub-059,1.0,random_dot,59.82707586827881,
right,right,speed,,,,,0.0,1.0,1.0,1.0,3.0,1.0,7.0,1.0,432.7327075998765,,,,,,,,,432.7179584999103,433.5323253998067,434.33285689982586,434.31567259994335,434.3156988997944,434.33285689982586,434.33285689982586,434.33285689982586,438.1836131999735,left,0.0,27.765507400035855,,,,,,,,,,,,,,,,,,,,,,,,,,,,,,,,sub-059,1.0,random_dot,59.82707586827881,
left,left,speed,,,,,0.0,1.0,1.0,1.0,4.0,0.0,8.0,0.0,438.198515499942,,,,,,,,,438.18486139993183,438.9983161999844,439.7989456998184,439.7827502998989,439.78277269983664,439.7989456998184,439.7989456998184,439.7989456998184,441.5003839998972,left,1.0,25.620339200133454,,,,,,,,,,,,,,,,,,,,,,,,,,,,,,,,sub-059,1.0,random_dot,59.82707586827881,
right,right,speed,,,,,0.0,1.0,1.0,1.0,4.0,1.0,9.0,1.0,441.5150158999022,,,,,,,,,441.5014410999138,441.61498039984144,442.4161822998431,442.4002453999128,442.40026969998144,442.4161822998431,442.4161822998431,442.4161822998431,443.5502480999567,right,1.0,25.061917000217363,,,,,,,,,,,,,,,,,,,,,,,,,,,,,,,,sub-059,1.0,random_dot,59.82707586827881,
right,right,speed,,,,,0.0,1.0,1.0,1.0,5.0,0.0,10.0,1.0,443.5645223997999,,,,,,,,,443.551188999787,443.6660875999369,444.46608469984494,444.44987829984166,444.4498991998844,444.46608469984494,444.46608469984494,444.46608469984494,450.43342749984,left,0.0,29.88185160025023,,,,,,449.44942299998365,,,,,,,,,,,,,,,,,,,,,,,,,,sub-059,1.0,random_dot,59.82707586827881,
left,left,speed,,,,,0.0,1.0,1.0,1.0,5.0,1.0,11.0,0.0,450.4483083998784,,,,,,,,,450.4346937998198,451.6490130999591,452.4492832999677,452.4324493999593,452.43247249978594,452.4492832999677,452.4492832999677,452.4492832999677,453.3002835998777,left,1.0,24.77411540015601,,,,,,,,,,,,,,,,,,,,,,,,,,,,,,,,sub-059,1.0,random_dot,59.82707586827881,
left,left,speed,,,,,0.0,1.0,1.0,1.0,6.0,0.0,12.0,0.0,453.3151412999723,,,,,,,,,453.3015743999276,453.4162374997977,454.2161003998481,454.1996320998296,454.19965329999104,454.2161003998481,454.2161003998481,454.2161003998481,455.9004971999675,left,1.0,25.61064470023848,,,,,,,,,,,,,,,,,,,,,,,,,,,,,,,,sub-059,1.0,random_dot,59.82707586827881,
right,right,speed,,,,,0.0,1.0,1.0,1.0,6.0,1.0,13.0,1.0,455.9147954999935,,,,,,,,,455.9014611998573,456.7156198997982,457.5162295999471,457.49982879986055,457.4998524999246,457.5162295999471,457.5162295999471,457.5162295999471,458.7833000998944,right,1.0,25.18414770020172,,,,,,,,,,,,,,,,,,,,,,,,,,,,,,,,sub-059,1.0,random_dot,59.82707586827881,
right,right,speed,,,,,0.0,1.0,1.0,1.0,7.0,0.0,14.0,1.0,458.7983442998957,,,,,,,,,458.7842660997994,458.8990788999945,459.6991364997812,459.6830811998807,459.68310689996,459.6991364997812,459.6991364997812,459.6991364997812,462.2354303000029,left,0.0,26.4578575999476,,,,,,,,,,,,,,,,,,,,,,,,,,,,,,,,sub-059,1.0,random_dot,59.82707586827881,
left,left,speed,,,,,0.0,1.0,1.0,1.0,7.0,1.0,15.0,0.0,462.24779519997537,,,,,,,,,462.2363975998014,463.4533967999741,464.26612419984303,464.2492958998773,464.249320599949,464.26612419984303,464.26612419984303,464.26612419984303,465.1839310999494,left,1.0,24.84275250020437,,,,,,,,,,,,,,,,,,,,,,,,,,,,,,,,sub-059,1.0,random_dot,59.82707586827881,
right,right,speed,,,,,0.0,1.0,1.0,1.0,8.0,0.0,16.0,1.0,465.19804269983433,,,,,,,,,465.18526729987934,465.9989027997945,466.7994915999007,466.78276009997353,466.7827799997758,466.7994915999007,466.7994915999007,466.7994915999007,469.0834801997989,left,0.0,26.202687800163403,,,,,,,,,,,,,,,,,,,,,,,,,,,,,,,,sub-059,1.0,random_dot,59.82707586827881,
left,left,speed,,,,,0.0,1.0,1.0,1.0,8.0,1.0,17.0,0.0,469.0981782998424,,,,,,,,,469.0844755999278,469.4484216999263,470.2663387998473,470.2494547998067,470.249479399994,470.2663387998473,470.2663387998473,470.2663387998473,471.98359479988,left,1.0,25.63479910022579,,,,,,,,,,,,,,,,,,,,,,,,,,,,,,,,sub-059,1.0,random_dot,59.82707586827881,
left,left,speed,,,,,0.0,1.0,1.0,1.0,9.0,0.0,18.0,0.0,471.99867179989815,,,,,,,,,471.9845480998047,472.34802969987504,473.1487521999516,473.1324160997756,473.1324502998032,473.1487521999516,473.1487521999516,473.1487521999516,475.2162422998808,left,1.0,25.98995369998738,,,,,,,,,,,,,,,,,,,,,,,,,,,,,,,,sub-059,1.0,random_dot,59.82707586827881,
right,right,speed,,,,,0.0,1.0,1.0,1.0,9.0,1.0,19.0,1.0,475.2316691998858,,,,,,,,,475.2172120998148,475.5823137999978,476.3831753998529,476.3659210999031,476.3659418998286,476.3831753998529,476.3831753998529,476.3831753998529,477.2005442997906,right,1.0,24.740314800292253,,,,,,,,,,,,,,,,,,,,,,,,,,,,,,,,sub-059,1.0,random_dot,59.82707586827881,
right,right,speed,,,,,0.0,1.0,1.0,1.0,10.0,0.0,20.0,1.0,477.2149467999116,,,,,,,,,477.20150959980674,477.565586199984,478.3671443997882,478.3494904998224,478.34951479989104,478.3671443997882,478.3671443997882,478.3671443997882,480.99990619998425,right,1.0,26.552106300136074,,,,,,,,,,,,,,,,,,,,,,,,,,,,,,,,sub-059,1.0,random_dot,59.82707586827881,
left,left,speed,,,,,0.0,1.0,1.0,1.0,10.0,1.0,21.0,0.0,481.0148873999715,,,,,,,,,481.0009095999412,481.81554089998826,482.6323035999667,482.6151546998881,482.61517579993233,482.6323035999667,482.6323035999667,482.6323035999667,483.5833380999975,left,1.0,24.87401800020598,,,,,,,,,,,,,,,,,,,,,,,,,,,,,,,,sub-059,1.0,random_dot,59.82707586827881,
left,left,speed,,,,,0.0,1.0,1.0,1.0,11.0,0.0,22.0,0.0,483.5979481998365,,,,,,,,,483.5843481000047,483.6973121999763,484.4991758998949,484.48221779987216,484.4822431998328,484.4991758998949,484.4991758998949,484.4991758998949,486.63355199992657,left,1.0,26.05112520023249,,,,,,,,,,,,,,,,,,,,,,,,,,,,,,,,sub-059,1.0,random_dot,59.82707586827881,
right,right,speed,,,,,0.0,1.0,1.0,1.0,11.0,1.0,23.0,1.0,486.64806509995833,,,,,,,,,486.6346322000026,486.748114499962,487.5493522998877,487.5326275997795,487.5326564998832,487.5493522998877,487.5493522998877,487.5493522998877,488.5834631999023,right,1.0,24.9607787001878,,,,,,,,,,,,,,,,,,,,,,,,,,,,,,,,sub-059,1.0,random_dot,59.82707586827881,
left,left,speed,,,,,0.0,1.0,1.0,1.0,12.0,0.0,24.0,0.0,488.5984633998014,,,,,,,,,488.5847506998107,489.39874909981154,490.1987552999053,490.1820518998429,490.1820712999906,490.1987552999053,490.1987552999053,490.1987552999053,491.0175280999392,left,1.0,24.74324920028448,,,,,,,,,,,,,,,,,,,,,,,,,,,,,,,,sub-059,1.0,random_dot,59.82707586827881,
right,right,speed,,,,,0.0,1.0,1.0,1.0,12.0,1.0,25.0,1.0,491.0319601998199,,,,,,,,,491.018491699826,491.8319708998315,492.6327288998291,492.6157321999781,492.6157526997849,492.6327288998291,492.6327288998291,492.6327288998291,493.5332262997981,right,1.0,24.825937600107864,,,,,,,,,,,,,,,,,,,,,,,,,,,,,,,,sub-059,1.0,random_dot,59.82707586827881,
left,left,speed,,,,,0.0,1.0,1.0,1.0,13.0,0.0,26.0,0.0,493.5475570999552,,,,,,,,,493.5341660999693,493.89836849994026,494.6993215999101,494.6830762999598,494.6830956998747,494.6993215999101,494.6993215999101,494.6993215999101,496.09954809979536,left,1.0,25.32753950008191,,,,,,,,,,,,,,,,,,,,,,,,,,,,,,,,sub-059,1.0,random_dot,59.82707586827881,
right,right,speed,,,,,0.0,1.0,1.0,1.0,13.0,1.0,27.0,1.0,496.1145721999928,,,,,,,,,496.1005110999104,496.4651575000025,497.266326099867,497.2494319998659,497.2494532999117,497.266326099867,497.266326099867,497.266326099867,499.64989579981193,right,1.0,26.298471600050107,,,,,,,,,,,,,,,,,,,,,,,,,,,,,,,,sub-059,1.0,random_dot,59.82707586827881,
left,left,speed,,,,,0.0,1.0,1.0,1.0,14.0,0.0,28.0,0.0,499.6647454998456,,,,,,,,,499.65088949981146,500.4642939998303,501.26561189978383,501.2487887998577,501.24880739999935,501.26561189978383,501.26561189978383,501.26561189978383,501.999757199781,left,1.0,24.66056350013241,,,,,,,,,,,,,,,,,,,,,,,,,,,,,,,,sub-059,1.0,random_dot,59.82707586827881,
right,right,speed,,,,,0.0,1.0,1.0,1.0,14.0,1.0,29.0,1.0,502.0141847999767,,,,,,,,,502.000676299911,503.21531649981625,504.0160430998076,503.9998056998011,503.99982859985903,504.0160430998076,504.0160430998076,504.0160430998076,506.3500638999976,left,0.0,26.248308700043708,,,,,,,,,,,,,,,,,,,,,,,,,,,,,,,,sub-059,1.0,random_dot,59.82707586827881,
left,left,speed,,,,,0.0,1.0,1.0,1.0,15.0,0.0,30.0,0.0,506.36441379995085,,,,,,,,,506.3510452997871,506.4638204998337,507.26502849999815,507.24834369984455,507.2483628999908,507.26502849999815,507.26502849999815,507.26502849999815,508.2497342999559,left,1.0,24.909219400025904,,,,,,,,,,,,,,,,,,,,,,,,,,,,,,,,sub-059,1.0,random_dot,59.82707586827881,
right,right,speed,,,,,0.0,1.0,1.0,1.0,15.0,1.0,31.0,1.0,508.2648362999316,,,,,,,,,508.2509818999097,508.3650834998116,509.1659439997748,509.14910559984855,509.14913849998266,509.1659439997748,509.1659439997748,509.1659439997748,512.2831212999299,right,1.0,27.042266600299627,,,,,,,,,,,,,,,,,,,,,,,,,,,,,,,,sub-059,1.0,random_dot,59.82707586827881,
left,left,speed,,,,,0.0,1.0,1.0,1.0,16.0,0.0,32.0,0.0,512.2980666998774,,,,,,,,,512.2844010998961,512.3981563998386,513.1986645997968,513.1827613997739,513.1827837999444,513.1986645997968,513.1986645997968,513.1986645997968,513.9672630999703,left,1.0,24.697202200070024,,,,,,,,,,,,,,,,,,,,,,,,,,,,,,,,sub-059,1.0,random_dot,59.82707586827881,
right,right,speed,,,,,0.0,1.0,1.0,1.0,16.0,1.0,33.0,1.0,513.9824249998201,,,,,,,,,513.968216399895,515.1819921999704,515.9830491999164,515.9664236998651,515.9664443999063,515.9830491999164,515.9830491999164,515.9830491999164,518.3836023998447,right,1.0,26.323908100137487,,,,,,,,,,,,,,,,,,,,,,,,,,,,,,,,sub-059,1.0,random_dot,59.82707586827881,
right,right,speed,,,,,0.0,1.0,1.0,1.0,17.0,0.0,34.0,1.0,518.398386299843,,,,,,,,,518.3848919998854,519.1989877999295,519.9995453997981,519.9824693999253,519.9824912999757,519.9995453997981,519.9995453997981,519.9995453997981,521.8162737998646,right,1.0,25.736776700243357,,,,,,,,,,,,,,,,,,,,,,,,,,,,,,,,sub-059,1.0,random_dot,59.82707586827881,
left,left,speed,,,,,0.0,1.0,1.0,1.0,17.0,1.0,35.0,0.0,521.8315419999417,,,,,,,,,521.8172144999262,521.930971799884,522.7324399999343,522.7156245999504,522.7156463998836,522.7324399999343,522.7324399999343,522.7324399999343,523.8332436999772,left,1.0,25.01963310013525,,,,,,,,,,,,,,,,,,,,,,,,,,,,,,,,sub-059,1.0,random_dot,59.82707586827881,
right,right,speed,,,,,0.0,1.0,1.0,1.0,18.0,0.0,36.0,1.0,523.8477028999478,,,,,,,,,523.8341785999946,524.648378299782,525.4484989999328,525.4318968998268,525.4319180999883,525.4484989999328,525.4484989999328,525.4484989999328,527.8163670999929,right,1.0,26.282325700158253,,,,,,,,,,,,,,,,,,,,,,,,,,,,,,,,sub-059,1.0,random_dot,59.82707586827881,
left,left,speed,,,,,0.0,1.0,1.0,1.0,18.0,1.0,37.0,0.0,527.8309592998121,,,,,,,,,527.8174505999777,529.0311206998304,529.8485585998278,529.8310618998948,529.831083699828,529.8485585998278,529.8485585998278,529.8485585998278,531.2500589999836,left,1.0,25.318954500136897,,,,,,,,,,,,,,,,,,,,,,,,,,,,,,,,sub-059,1.0,random_dot,59.82707586827881,
right,right,speed,,,,,0.0,1.0,1.0,1.0,19.0,0.0,38.0,1.0,531.2651597999502,,,,,,,,,531.2510612998158,531.6154226998333,532.4160065997858,532.3987661998253,532.3987859999761,532.4160065997858,532.4160065997858,532.4160065997858,534.6505645997822,right,1.0,26.159805500181392,,,,,,,,,,,,,,,,,,,,,,,,,,,,,,,,sub-059,1.0,random_dot,59.82707586827881,
left,left,speed,,,,,0.0,1.0,1.0,1.0,19.0,1.0,39.0,0.0,534.6648065999616,,,,,,,,,534.6515670998488,535.4656823999248,536.2823284999467,536.265755499946,536.2657849998213,536.2823284999467,536.2823284999467,536.2823284999467,537.5339889999013,left,1.0,25.181481800042093,,,,,,,,,,,,,,,,,,,,,,,,,,,,,,,,sub-059,1.0,random_dot,59.82707586827881,
left,left,speed,,,,,0.0,1.0,1.0,1.0,20.0,0.0,40.0,0.0,537.547743299976,,,,,,,,,537.5352194998413,537.8984650999773,538.6994546998758,538.6827009997796,538.6827216998208,538.6994546998758,538.6994546998758,538.6994546998758,541.3827751998324,left,1.0,26.5981655002106,,,,,,,,,,,,,,,,,,,,,,,,,,,,,,,,sub-059,1.0,random_dot,59.82707586827881,
right,right,speed,,,,,0.0,1.0,1.0,1.0,20.0,1.0,41.0,1.0,541.3982365999836,,,,,,,,,541.3837091999594,541.749091199832,542.5491382000037,542.5325981997885,542.5326327998191,542.5491382000037,542.5491382000037,542.5491382000037,543.5662638999056,right,1.0,24.93230320001021,,,,,,,,,,,,,,,,,,,,,,,,,,,,,,,,sub-059,1.0,random_dot,59.82707586827881,
right,right,speed,,,,,0.0,1.0,1.0,1.0,21.0,0.0,42.0,1.0,543.5812412998639,,,,,,,,,543.5675809998065,543.930984799983,544.7320669000037,544.71563589992,544.7156567999627,544.7320669000037,544.7320669000037,544.7320669000037,547.8489221998025,right,1.0,27.03244940005243,,,,,,,,,,,,,,,,,,,,,,,,,,,,,,,,sub-059,1.0,random_dot,59.82707586827881,
left,left,speed,,,,,0.0,1.0,1.0,1.0,21.0,1.0,43.0,0.0,547.86377109983,,,,,,,,,547.8499378999695,548.215798899997,549.0324402998667,549.0158757998142,549.0159004998859,549.0324402998667,549.0324402998667,549.0324402998667,550.2839663999621,left,1.0,25.176499100169167,,,,,,,,,,,,,,,,,,,,,,,,,,,,,,,,sub-059,1.0,random_dot,59.82707586827881,
right,right,speed,,,,,0.0,1.0,1.0,1.0,22.0,0.0,44.0,1.0,550.2980671999976,,,,,,,,,550.285147999879,550.3979585999623,551.1988037999254,551.181237799814,551.18125959998,551.1988037999254,551.1988037999254,551.1988037999254,554.1160455998033,right,1.0,26.84368930011988,,,,,,,,,,,,,,,,,,,,,,,,,,,,,,,,sub-059,1.0,random_dot,59.82707586827881,
left,left,speed,,,,,0.0,1.0,1.0,1.0,22.0,1.0,45.0,0.0,554.130855599884,,,,,,,,,554.1170370997861,554.2325215998571,555.0496057998389,555.0324551998638,555.0324799998198,555.0496057998389,555.0496057998389,555.0496057998389,557.2667983998545,left,1.0,26.13526470004581,,,,,,,,,,,,,,,,,,,,,,,,,,,,,,,,sub-059,1.0,random_dot,59.82707586827881,
right,right,speed,,,,,0.0,1.0,1.0,1.0,23.0,0.0,46.0,1.0,557.2815684999805,,,,,,,,,557.2678667998407,557.6312688000035,558.4315170999616,558.4178973999806,558.4179196998011,558.4315170999616,558.4315170999616,558.4315170999616,561.4998978998046,right,1.0,26.9843378001824,,,,,,,,,,,,,,,,,,,,,,,,,,,,,,,,sub-059,1.0,random_dot,59.82707586827881,
left,left,speed,,,,,0.0,1.0,1.0,1.0,23.0,1.0,47.0,0.0,561.5149006999563,,,,,,,,,561.5008751999121,561.865164199844,562.6814199998043,562.6649401998147,562.6649594998453,562.6814199998043,562.6814199998043,562.6814199998043,565.7333774999715,left,1.0,26.97544140019454,,,,,,,,,,,,,,,,,,,,,,,,,,,,,,,,sub-059,1.0,random_dot,59.82707586827881,
right,right,speed,,,,,0.0,1.0,1.0,1.0,24.0,0.0,48.0,1.0,565.7478882998694,,,,,,,,,565.7343787997961,566.9479054999538,567.7484923999291,567.7321070998441,567.7321315999143,567.7484923999291,567.7484923999291,567.7484923999291,570.8500433999579,left,0.0,27.019665100146085,,,,,,,,,,,,,,,,,,,,,,,,,,,,,,,,sub-059,1.0,random_dot,59.82707586827881,
left,left,speed,,,,,0.0,1.0,1.0,1.0,24.0,1.0,49.0,0.0,570.8650108999573,,,,,,,,,570.8510571999941,571.6647733999416,572.4646657998674,572.4484350997955,572.4484604999889,572.4646657998674,572.4646657998674,572.4646657998674,573.732398699969,left,1.0,25.192304800031707,,,,,,,,,,,,,,,,,,,,,,,,,,,,,,,,sub-059,1.0,random_dot,59.82707586827881,
right,right,speed,,,,,0.0,1.0,1.0,1.0,25.0,0.0,50.0,1.0,573.7467451998964,,,,,,,,,573.7333507000003,574.0971905000042,574.8991483999416,574.8821103998926,574.8821310999338,574.8991483999416,574.8991483999416,574.8991483999416,575.6657484997995,right,1.0,24.68983060005121,,,,,,,,,,,,,,,,,,,,,,,,,,,,,,,,sub-059,1.0,random_dot,59.82707586827881,
left,left,speed,,,,,0.0,1.0,1.0,1.0,25.0,1.0,51.0,0.0,575.6807913999073,,,,,,,,,575.6667199998628,576.0317553000059,576.8314450997859,576.8152830000035,576.815307599958,576.8314450997859,576.8314450997859,576.8314450997859,577.633249099832,left,1.0,24.716671200236306,,,,,,,,,,,,,,,,,,,,,,,,,,,,,,,,sub-059,1.0,random_dot,59.82707586827881,
right,right,speed,,,,,0.0,1.0,1.0,1.0,26.0,0.0,52.0,1.0,577.6483399998397,,,,,,,,,577.6342075997964,577.7485034998972,578.5487494999543,578.5322410999797,578.5322620999068,578.5487494999543,578.5487494999543,578.5487494999543,579.2834732998163,right,1.0,24.657497600186616,,,,,,,,,,,,,,,,,,,,,,,,,,,,,,,,sub-059,1.0,random_dot,59.82707586827881,
left,left,speed,,,,,0.0,1.0,1.0,1.0,26.0,1.0,53.0,0.0,579.2981441000011,,,,,,,,,579.2844329997897,580.4971492998302,581.2985500998329,581.282336199889,581.2823575998191,581.2985500998329,581.2985500998329,581.2985500998329,584.1836069999263,right,0.0,26.804043400101364,,,,,,,,,,,,,,,,,,,,,,,,,,,,,,,,sub-059,1.0,random_dot,59.82707586827881,
right,right,speed,,,,,0.0,1.0,1.0,1.0,27.0,0.0,54.0,1.0,584.1981152999215,,,,,,,,,584.1845490999985,584.9979127999395,585.7982025998645,585.7828899999149,585.7829128999729,585.7982025998645,585.7982025998645,585.7982025998645,587.5985761999618,right,1.0,25.722819900140166,,,,,,,,,,,,,,,,,,,,,,,,,,,,,,,,sub-059,1.0,random_dot,59.82707586827881,
left,left,speed,,,,,0.0,1.0,1.0,1.0,27.0,1.0,55.0,0.0,587.6136706999969,,,,,,,,,587.600039599929,588.8144916999154,589.6156560999807,589.5991622000001,589.5991909999866,589.6156560999807,589.6156560999807,589.6156560999807,592.2001317997929,left,1.0,26.50244990014471,,,,,,,,,,,,,,,,,,,,,,,,,,,,,,,,sub-059,1.0,random_dot,59.82707586827881,
right,right,speed,,,,,0.0,1.0,1.0,1.0,28.0,0.0,56.0,1.0,592.2139172998723,,,,,,,,,592.2014568999875,592.5646973999683,593.3654401998501,593.348090799991,593.348110599909,593.3654401998501,593.3654401998501,593.3654401998501,596.8994163998868,left,0.0,27.453414499992505,,,,,,,,,,,,,,,,,,,,,,,,,,,,,,,,sub-059,1.0,random_dot,59.82707586827881,
left,left,speed,,,,,0.0,1.0,1.0,1.0,28.0,1.0,57.0,0.0,596.9144315999001,,,,,,,,,596.9003367999103,597.2645305998158,598.06458009989,598.0481162997894,598.0481352999341,598.06458009989,598.06458009989,598.06458009989,599.8839211999439,left,1.0,25.73632730008103,,,,,,,,,,,,,,,,,,,,,,,,,,,,,,,,sub-059,1.0,random_dot,59.82707586827881,
left,left,speed,,,,,0.0,1.0,1.0,1.0,29.0,0.0,58.0,0.0,599.8974591998849,,,,,,,,,599.8849271999206,601.0982726998627,601.91506629996,601.8978681999724,601.8978927999269,601.91506629996,601.91506629996,601.91506629996,605.6663147998042,left,1.0,27.672687500016764,,,,,,,,,,,,,,,,,,,,,,,,,,,,,,,,sub-059,1.0,random_dot,59.82707586827881,
right,right,speed,,,,,0.0,1.0,1.0,1.0,29.0,1.0,59.0,1.0,605.6809838998597,,,,,,,,,605.6673462998588,606.8816400999203,607.6978286998346,607.6817844999023,607.6818060998339,607.6978286998346,607.6978286998346,607.6978286998346,609.801448599901,right,1.0,26.02092760009691,,,,,,,,,,,,,,,,,,,,,,,,,,,,,,,,sub-059,1.0,random_dot,59.82707586827881,
,,speed,,,,,0.0,1.0,1.0,1.0,,,,,,,,,,,,,,,,,,,,,,,,,,,,,,,,,,,,,,,,,,,,,,,,,,,,,,,,,sub-059,1.0,random_dot,59.82707586827881,
,,,,,,,,,,,,,,,,,,,,,,,,,,,,,,,,,,,,,,,,,,,,,,,,,,,,,,,,,,,,,,,609.8021840997972,609.8143146999646,614.8142823998351,614.7984767998569,sub-059,,,,
