wordCTK,colorCTK,corrAnsCTK,congruentCTK,thisN,thisTrialN,thisRepN,keyResp_CTK.keys,keyResp_CTK.corr,keyResp_CTK.rt,keyResp_CTK.duration,wordPractice,colorPractice,corrAnsPractice,congruentPractice,respPractice.keys,respPractice.corr,respPractice.rt,respPractice.duration,word,color,corrAns,congruent,keyResp_test_run.keys,keyResp_test_run.corr,keyResp_test_run.rt,keyResp_test_run.duration,trials_CTK.thisRepN,trials_CTK.thisTrialN,trials_CTK.thisN,trials_CTK.thisIndex,trials_practice.thisRepN,trials_practice.thisTrialN,trials_practice.thisN,trials_practice.thisIndex,trials_test.thisRepN,trials_test.thisTrialN,trials_test.thisN,trials_test.thisIndex,thisRow.t,notes,instruction.started,instr_text.started,instr_image.started,instr_resp.started,instruction.stopped,instr_resp.keys,instr_resp.rt,instr_resp.duration,instr_color_to_key.started,instr_ctk.started,resp_ctk.started,instr_color_to_key.stopped,resp_ctk.keys,resp_ctk.rt,resp_ctk.duration,ITI.started,fixcross.started,fixcross.stopped,ITI.stopped,color_to_key_run.started,stimulus_CTK.started,keyResp_CTK.started,color_to_key_run.stopped,trials_CTK.keyResp_CTK.keys,trials_CTK.keyResp_CTK.corr,trials_CTK.keyResp_CTK.rt,trials_CTK.keyResp_CTK.duration,instr_practice.started,instr_practice_text.started,instr_practice_resp.started,instr_practice.stopped,instr_practice_resp.keys,instr_practice_resp.rt,instr_practice_resp.duration,practice_run.started,stimulus_practice.started,respPractice.started,practice_run.stopped,trials_practice.respPractice.keys,trials_practice.respPractice.corr,trials_practice.respPractice.rt,trials_practice.respPractice.duration,feedback.started,textFeedback.started,feedback.stopped,textFeedback.stopped,instr_test.started,instr_test_text.started,instr_test_resp.started,instr_test.stopped,instr_test_resp.keys,instr_test_resp.rt,instr_test_resp.duration,test_run.started,stimulus_test_run.started,keyResp_test_run.started,test_run.stopped,trials_test.keyResp_test_run.keys,trials_test.keyResp_test_run.corr,trials_test.keyResp_test_run.rt,trials_test.keyResp_test_run.duration,goodbye.started,textGoodbye.started,goodbye.stopped,participant,session,expName,frameRate,Unnamed: 112
,,,,,,,,,,,,,,,,,,,,,,,,,,,,,,,,,,,,,,,,,0.0183573479998813,0.0562359149998883,0.0562359149998883,0.0562359149998883,100.08654333000004,space,100.02266237000003,,,,,,,,,,,,,,,,,,,,,,,,,,,,,,,,,,,,,,,,,,,,,,,,,,,,,,,,,,sub-232,1,stroop_test,64.80769886955149,
,,,,,,,,,,,,,,,,,,,,,,,,,,,,,,,,,,,,,,,,,,,,,,,,,100.0866334440002,100.10021217500024,100.10021217500024,120.85318197800008,space,20.748972761000005,,,,,,,,,,,,,,,,,,,,,,,,,,,,,,,,,,,,,,,,,,,,,,,,,,,sub-232,1,stroop_test,64.80769886955149,
test,blue,b,1.0,0.0,0.0,0.0,b,1.0,3.658437511000102,,,,,,,,,,,,,,,,,,0.0,0.0,0.0,2.0,,,,,,,,,120.88079853699992,,,,,,,,,,,,,,,,,120.87030816200011,121.6522340360002,122.4594349670001,122.44226567700024,122.449592897,122.4594349670001,122.4594349670001,126.12108931400007,b,1.0,3.658437511000102,,,,,,,,,,,,,,,,,,,,,,,,,,,,,,,,,,,,,,,sub-232,1,stroop_test,64.80769886955149,
test,yellow,g,1.0,1.0,1.0,0.0,g,1.0,1.2206900549999773,,,,,,,,,,,,,,,,,,0.0,1.0,1.0,1.0,,,,,,,,,126.13259209900023,,,,,,,,,,,,,,,,,126.12166186600008,126.9164578990003,127.71119089800004,127.7017054349999,127.70248322199996,127.71119089800004,127.71119089800004,128.9397268990001,g,1.0,1.2206900549999773,,,,,,,,,,,,,,,,,,,,,,,,,,,,,,,,,,,,,,,sub-232,1,stroop_test,64.80769886955149,
test,red,r,1.0,2.0,2.0,0.0,r,1.0,0.9242430419999436,,,,,,,,,,,,,,,,,,0.0,2.0,2.0,0.0,,,,,,,,,128.9490425670001,,,,,,,,,,,,,,,,,128.94001495800012,129.73283392200028,130.52719803900027,130.51753099200005,130.5183197780002,130.52719803900027,130.52719803900027,131.4585184360003,r,1.0,0.9242430419999436,,,,,,,,,,,,,,,,,,,,,,,,,,,,,,,,,,,,,,,sub-232,1,stroop_test,64.80769886955149,
test,red,r,1.0,3.0,0.0,1.0,r,1.0,0.5874060460000692,,,,,,,,,,,,,,,,,,1.0,0.0,3.0,0.0,,,,,,,,,131.48172435200013,,,,,,,,,,,,,,,,,131.45880322699986,131.55614786000024,132.35310078200018,132.34155440299992,132.34235399599993,132.35310078200018,132.35310078200018,132.95247604299993,r,1.0,0.5874060460000692,,,,,,,,,,,,,,,,,,,,,,,,,,,,,,,,,,,,,,,sub-232,1,stroop_test,64.80769886955149,
test,yellow,g,1.0,4.0,1.0,1.0,g,1.0,0.8471013560001666,,,,,,,,,,,,,,,,,,1.0,1.0,4.0,1.0,,,,,,,,,132.9648096830001,,,,,,,,,,,,,,,,,132.95289429900004,134.15024815700008,134.94405643200025,134.9347999700003,134.935610171,134.94405643200025,134.94405643200025,135.7947514020002,g,1.0,0.8471013560001666,,,,,,,,,,,,,,,,,,,,,,,,,,,,,,,,,,,,,,,sub-232,1,stroop_test,64.80769886955149,
test,blue,b,1.0,5.0,2.0,1.0,b,1.0,0.5611274700004287,,,,,,,,,,,,,,,,,,1.0,2.0,5.0,2.0,,,,,,,,,135.80534898099995,,,,,,,,,,,,,,,,,135.79527118500027,136.9905099020002,137.7862749330002,137.774857591,137.77564330799987,137.7862749330002,137.7862749330002,138.35742183399998,b,1.0,0.5611274700004287,,,,,,,,,,,,,,,,,,,,,,,,,,,,,,,,,,,,,,,sub-232,1,stroop_test,64.80769886955149,
test,yellow,g,1.0,6.0,0.0,2.0,g,1.0,0.6641203410003982,,,,,,,,,,,,,,,,,,2.0,0.0,6.0,1.0,,,,,,,,,138.38276240999994,,,,,,,,,,,,,,,,,138.3578199399999,138.7104947810003,139.5128638240003,139.50187762299993,139.50265634400012,139.5128638240003,139.5128638240003,140.18051146900007,g,1.0,0.6641203410003982,,,,,,,,,,,,,,,,,,,,,,,,,,,,,,,,,,,,,,,sub-232,1,stroop_test,64.80769886955149,
test,red,r,1.0,7.0,1.0,2.0,r,1.0,0.6774535930003367,,,,,,,,,,,,,,,,,,2.0,1.0,7.0,0.0,,,,,,,,,140.19295866099992,,,,,,,,,,,,,,,,,140.18114072300023,141.37370938799995,142.16975817999992,142.15803570800017,142.15883666199989,142.16975817999992,142.16975817999992,142.8522662610003,r,1.0,0.6774535930003367,,,,,,,,,,,,,,,,,,,,,,,,,,,,,,,,,,,,,,,sub-232,1,stroop_test,64.80769886955149,
test,blue,b,1.0,8.0,2.0,2.0,b,1.0,0.7590720670000337,,,,,,,,,,,,,,,,,,2.0,2.0,8.0,2.0,,,,,,,,,142.8639912110002,,,,,,,,,,,,,,,,,142.85266950999994,142.94969622400004,143.766799516,143.7401023450002,143.74085903700006,143.766799516,143.766799516,144.5359575970001,b,1.0,0.7590720670000337,,,,,,,,,,,,,,,,,,,,,,,,,,,,,,,,,,,,,,,sub-232,1,stroop_test,64.80769886955149,
test,yellow,g,1.0,9.0,0.0,3.0,g,1.0,0.7282716330000767,,,,,,,,,,,,,,,,,,3.0,0.0,9.0,1.0,,,,,,,,,144.5488738879999,,,,,,,,,,,,,,,,,144.53634791600007,145.33268256300016,146.1267154000002,146.11704154300014,146.11782480300008,146.1267154000002,146.1267154000002,146.8582756730002,g,1.0,0.7282716330000767,,,,,,,,,,,,,,,,,,,,,,,,,,,,,,,,,,,,,,,sub-232,1,stroop_test,64.80769886955149,
test,red,r,1.0,10.0,1.0,3.0,r,1.0,0.5488707399999839,,,,,,,,,,,,,,,,,,3.0,1.0,10.0,0.0,,,,,,,,,146.87108006000017,,,,,,,,,,,,,,,,,146.8588269259999,148.05718935999994,148.85269574599988,148.8412228870002,148.84202234400027,148.85269574599988,148.85269574599988,149.41260063000027,r,1.0,0.5488707399999839,,,,,,,,,,,,,,,,,,,,,,,,,,,,,,,,,,,,,,,sub-232,1,stroop_test,64.80769886955149,
test,blue,b,1.0,11.0,2.0,3.0,b,1.0,0.6261939799996981,,,,,,,,,,,,,,,,,,3.0,2.0,11.0,2.0,,,,,,,,,149.42431665699996,,,,,,,,,,,,,,,,,149.41316582700028,150.6062390090001,151.40478820599992,151.39343305600005,151.3940910780002,151.40478820599992,151.40478820599992,152.0337589400001,b,1.0,0.6261939799996981,,,,,,,,,,,,,,,,,,,,,,,,,,,,,,,,,,,,,,,sub-232,1,stroop_test,64.80769886955149,
,,,,,,,,,,,,,,,,,,,,,,,,,,,,,,,,,,,,,,,,,,,,,,,,,,,,,,,,,,,,,,,,,,,,152.033963158,152.0487651970002,152.0487651970002,171.6844922549999,space,19.619522622000204,,,,,,,,,,,,,,,,,,,,,,,,,,,,,,,,sub-232,1,stroop_test,64.80769886955149,
,,,,0.0,0.0,0.0,,,,,rot,red,r,1.0,r,1.0,0.5567069870003252,,,,,,,,,,,,,,0.0,0.0,0.0,0.0,,,,,171.70880387199986,,,,,,,,,,,,,,,,,171.69828949400016,172.48143086000027,173.282315508,173.26710862300024,,,,,,,,,,,,,,,,173.2735850670001,173.282315508,173.282315508,173.8527414680002,r,1.0,0.5567069870003252,,173.8596916460001,173.87270302200022,174.85324739299995,,,,,,,,,,,,,,,,,,,,sub-232,1,stroop_test,64.80769886955149,
,,,,1.0,1.0,0.0,,,,,rot,red,r,1.0,r,1.0,0.5414283709997108,,,,,,,,,,,,,,0.0,1.0,1.0,1.0,,,,,174.8668244139999,,,,,,,,,,,,,,,,,174.85403441200015,175.199427001,175.99340759999995,175.9836485159999,,,,,,,,,,,,,,,,175.9844358700002,175.99340759999995,175.99340759999995,176.54578518400012,r,1.0,0.5414283709997108,,176.54664301000005,176.55961724200006,177.54380733400012,177.55475375700007,,,,,,,,,,,,,,,,,,,sub-232,1,stroop_test,64.80769886955149,
,,,,2.0,2.0,0.0,,,,,blau,red,r,0.0,b,0.0,0.9510063040002024,,,,,,,,,,,,,,0.0,2.0,2.0,4.0,,,,,177.55475375700007,,,,,,,,,,,,,,,,,177.5443323919999,178.34000676200003,179.14493487500022,179.1329529960003,,,,,,,,,,,,,,,,179.137132329,179.14493487500022,179.14493487500022,180.10207583600004,b,0.0,0.9510063040002024,,180.10671481200006,180.11884907000012,181.11119361300007,,,,,,,,,,,,,,,,,,,,sub-232,1,stroop_test,64.80769886955149,
,,,,3.0,3.0,0.0,,,,,rot,blue,b,0.0,b,1.0,3.963661104000039,,,,,,,,,,,,,,0.0,3.0,3.0,2.0,,,,,181.121799994,,,,,,,,,,,,,,,,,181.11174327000023,181.203652015,182.0054348130002,181.99283476500025,,,,,,,,,,,,,,,,181.99559745800025,182.0054348130002,182.0054348130002,185.98005331500008,b,1.0,3.963661104000039,,185.9839046090001,185.99745592599996,186.98351514500015,,,,,,,,,,,,,,,,,,,,sub-232,1,stroop_test,64.80769886955149,
,,,,4.0,4.0,0.0,,,,,rot,yellow,g,0.0,g,1.0,0.8102142619995902,,,,,,,,,,,,,,0.0,4.0,4.0,3.0,,,,,186.993261352,,,,,,,,,,,,,,,,,186.984058004,187.0833274710003,187.88342596400025,187.8668937460002,,,,,,,,,,,,,,,,187.86768473700025,187.88342596400025,187.88342596400025,188.70890764600017,g,1.0,0.8102142619995902,,188.709550648,188.72021105600012,189.70734315100023,189.71630271799995,,,,,,,,,,,,,,,,,,,sub-232,1,stroop_test,64.80769886955149,
,,,,5.0,5.0,0.0,,,,,gelb,red,r,0.0,r,1.0,0.8487635889996454,,,,,,,,,,,,,,0.0,5.0,5.0,8.0,,,,,189.71630271799995,,,,,,,,,,,,,,,,,189.70786506600007,190.50651749500005,191.30467322899997,191.2910537580001,,,,,,,,,,,,,,,,191.29552983600024,191.30467322899997,191.30467322899997,192.169613436,r,1.0,0.8487635889996454,,192.1704625140001,192.18434228700016,193.167687483,193.177189219,,,,,,,,,,,,,,,,,,,sub-232,1,stroop_test,64.80769886955149,
,,,,6.0,6.0,0.0,,,,,blau,blue,b,1.0,b,1.0,1.0441087340000197,,,,,,,,,,,,,,0.0,6.0,6.0,6.0,,,,,193.177189219,,,,,,,,,,,,,,,,,193.1681888410003,193.268962739,194.08357758500009,194.0666975080003,,,,,,,,,,,,,,,,194.07114861399987,194.08357758500009,194.08357758500009,195.15119407400016,b,1.0,1.0441087340000197,,195.1518213690001,195.1669838480002,196.150907796,196.15953221000015,,,,,,,,,,,,,,,,,,,sub-232,1,stroop_test,64.80769886955149,
,,,,7.0,7.0,0.0,,,,,blau,blue,b,1.0,b,1.0,0.763328511999589,,,,,,,,,,,,,,0.0,7.0,7.0,5.0,,,,,196.15953221000015,,,,,,,,,,,,,,,,,196.15142276200004,196.503236559,197.3165891130002,197.30002473600007,,,,,,,,,,,,,,,,197.30080154000007,197.3165891130002,197.3165891130002,198.0862731990001,b,1.0,0.763328511999589,,198.08712945200023,198.10143023,199.08656210000024,,,,,,,,,,,,,,,,,,,,sub-232,1,stroop_test,64.80769886955149,
,,,,8.0,8.0,0.0,,,,,gelb,yellow,g,1.0,g,1.0,0.6001845790001425,,,,,,,,,,,,,,0.0,8.0,8.0,11.0,,,,,199.0998632410001,,,,,,,,,,,,,,,,,199.08710152799995,199.4337202249999,200.2324585450001,200.21819259099996,,,,,,,,,,,,,,,,200.222166693,200.2324585450001,200.2324585450001,200.83653905400024,g,1.0,0.6001845790001425,,200.8373987509999,200.84992501800025,201.8374074520002,201.8498306360002,,,,,,,,,,,,,,,,,,,sub-232,1,stroop_test,64.80769886955149,
,,,,9.0,9.0,0.0,,,,,gelb,blue,b,0.0,b,1.0,0.758575804999964,,,,,,,,,,,,,,0.0,9.0,9.0,9.0,,,,,201.8498306360002,,,,,,,,,,,,,,,,,201.8379390240002,202.18356415400007,202.98390892999987,202.97180993300023,,,,,,,,,,,,,,,,202.9726001690001,202.98390892999987,202.98390892999987,203.74635703500007,b,1.0,0.758575804999964,,203.74715535099995,203.7596509230002,204.74910484400016,,,,,,,,,,,,,,,,,,,,sub-232,1,stroop_test,64.80769886955149,
,,,,10.0,10.0,0.0,,,,,blau,yellow,g,0.0,g,1.0,1.5208848390002458,,,,,,,,,,,,,,0.0,10.0,10.0,7.0,,,,,204.75651491000008,,,,,,,,,,,,,,,,,204.74965893700028,205.93961341400015,206.7375756280003,206.72379183300015,,,,,,,,,,,,,,,,206.72847194199997,206.7375756280003,206.7375756280003,208.26979619200029,g,1.0,1.5208848390002458,,208.2706832650001,208.2831278980002,209.27100478800003,209.28303061,,,,,,,,,,,,,,,,,,,sub-232,1,stroop_test,64.80769886955149,
,,,,11.0,11.0,0.0,,,,,gelb,yellow,g,1.0,g,1.0,0.6831933499997831,,,,,,,,,,,,,,0.0,11.0,11.0,10.0,,,,,209.28303061,,,,,,,,,,,,,,,,,209.2715572550001,209.61520449499997,210.41287038100015,210.39954788000023,,,,,,,,,,,,,,,,210.40441306799997,210.41287038100015,210.41287038100015,211.10720490099996,g,1.0,0.6831933499997831,,211.10806333200023,211.12133049600016,212.107085397,212.1156969409999,,,,,,,,,,,,,,,,,,,sub-232,1,stroop_test,64.80769886955149,
,,,,12.0,0.0,1.0,,,,,rot,red,r,1.0,r,1.0,0.6102196780002487,,,,,,,,,,,,,,1.0,0.0,12.0,1.0,,,,,212.1156969409999,,,,,,,,,,,,,,,,,212.10760017600023,212.4557244130001,213.25301799399995,213.24012318699988,,,,,,,,,,,,,,,,213.2443078189999,213.25301799399995,213.25301799399995,213.86842903200025,r,1.0,0.6102196780002487,,213.869075736,213.88273234400003,214.86951849600015,,,,,,,,,,,,,,,,,,,,sub-232,1,stroop_test,64.80769886955149,
,,,,13.0,1.0,1.0,,,,,gelb,blue,b,0.0,b,1.0,1.4405079809998824,,,,,,,,,,,,,,1.0,1.0,13.0,9.0,,,,,214.88299294099988,,,,,,,,,,,,,,,,,214.87030895299995,215.219569375,216.02101900700015,216.0059028159999,,,,,,,,,,,,,,,,216.01043145199992,216.02101900700015,216.02101900700015,217.4733791980002,b,1.0,1.4405079809998824,,217.47400717200023,217.48729646900028,218.483116465,,,,,,,,,,,,,,,,,,,,sub-232,1,stroop_test,64.80769886955149,
,,,,14.0,2.0,1.0,,,,,blau,red,r,0.0,r,1.0,0.8045011709996288,,,,,,,,,,,,,,1.0,2.0,14.0,4.0,,,,,218.492887249,,,,,,,,,,,,,,,,,218.48365761600007,219.67199941700028,220.4701409070003,220.456977026,,,,,,,,,,,,,,,,220.4611971600002,220.4701409070003,220.4701409070003,221.28552412399995,r,1.0,0.8045011709996288,,221.286376217,221.300472508,222.28856072100007,,,,,,,,,,,,,,,,,,,,sub-232,1,stroop_test,64.80769886955149,
,,,,15.0,3.0,1.0,,,,,rot,yellow,g,0.0,g,1.0,0.9454994219995568,,,,,,,,,,,,,,1.0,3.0,15.0,3.0,,,,,222.297932552,,,,,,,,,,,,,,,,,222.28911666700012,223.48132522600008,224.2736816710003,224.2644724290003,,,,,,,,,,,,,,,,224.2667610100002,224.2736816710003,224.2736816710003,225.22263861600004,g,1.0,0.9454994219995568,,225.22308094400023,225.2323084110003,226.2215761100001,226.23090850000017,,,,,,,,,,,,,,,,,,,sub-232,1,stroop_test,64.80769886955149,
,,,,16.0,4.0,1.0,,,,,rot,red,r,1.0,r,1.0,0.6088180149999971,,,,,,,,,,,,,,1.0,4.0,16.0,0.0,,,,,226.23090850000017,,,,,,,,,,,,,,,,,226.2219694119999,227.0205979070001,227.81410101500023,227.8047470370002,,,,,,,,,,,,,,,,227.80527746300004,227.81410101500023,227.81410101500023,228.43278434700005,r,1.0,0.6088180149999971,,228.4333292680003,228.44261406400028,229.43200362700009,229.43923044200028,,,,,,,,,,,,,,,,,,,sub-232,1,stroop_test,64.80769886955149,
,,,,17.0,5.0,1.0,,,,,gelb,yellow,g,1.0,g,1.0,0.7088882359998934,,,,,,,,,,,,,,1.0,5.0,17.0,10.0,,,,,229.43923044200028,,,,,,,,,,,,,,,,,229.4325268550001,230.23103561100012,231.02575195300005,231.0149361210001,,,,,,,,,,,,,,,,231.018258308,231.02575195300005,231.02575195300005,231.7398716600001,g,1.0,0.7088882359998934,,231.74042130599992,231.75191176399997,232.73970153300024,232.74800878299996,,,,,,,,,,,,,,,,,,,sub-232,1,stroop_test,64.80769886955149,
,,,,18.0,6.0,1.0,,,,,blau,blue,b,1.0,b,1.0,0.6234961750001276,,,,,,,,,,,,,,1.0,6.0,18.0,5.0,,,,,232.74800878299996,,,,,,,,,,,,,,,,,232.74025209899992,232.8370910030003,233.63142030400013,233.62083510999992,,,,,,,,,,,,,,,,233.62368670700016,233.63142030400013,233.63142030400013,234.26506437199987,b,1.0,0.6234961750001276,,234.26561621400012,234.27479110900003,235.26513739600023,235.27167217500028,,,,,,,,,,,,,,,,,,,sub-232,1,stroop_test,64.80769886955149,
,,,,19.0,7.0,1.0,,,,,blau,yellow,g,0.0,g,1.0,0.8363243690000672,,,,,,,,,,,,,,1.0,7.0,19.0,7.0,,,,,235.27167217500028,,,,,,,,,,,,,,,,,235.26564781900012,236.46398534399987,237.25745687900007,237.24844994000023,,,,,,,,,,,,,,,,237.24924013600003,237.25745687900007,237.25745687900007,238.1054729880002,g,1.0,0.8363243690000672,,238.10611376199995,238.11803351100025,239.11600404499995,,,,,,,,,,,,,,,,,,,,sub-232,1,stroop_test,64.80769886955149,
,,,,20.0,8.0,1.0,,,,,gelb,yellow,g,1.0,g,1.0,0.6349243320000824,,,,,,,,,,,,,,1.0,8.0,20.0,11.0,,,,,239.124295736,,,,,,,,,,,,,,,,,239.11641089400015,239.90214278300027,240.70403169600013,240.69034533900003,,,,,,,,,,,,,,,,240.69477128000017,240.70403169600013,240.70403169600013,241.3449668620001,g,1.0,0.6349243320000824,,241.345664384,241.357283417,242.34853926000005,,,,,,,,,,,,,,,,,,,,sub-232,1,stroop_test,64.80769886955149,
,,,,21.0,9.0,1.0,,,,,rot,blue,b,0.0,b,1.0,0.7430661410003268,,,,,,,,,,,,,,1.0,9.0,21.0,2.0,,,,,242.35594663500024,,,,,,,,,,,,,,,,,242.3490659580002,243.5389506000001,244.33666388200027,244.32332208300025,,,,,,,,,,,,,,,,244.3276982340003,244.33666388200027,244.33666388200027,245.08477127700007,b,1.0,0.7430661410003268,,245.08540477399995,245.09728434,246.08356339700003,246.09342311,,,,,,,,,,,,,,,,,,,sub-232,1,stroop_test,64.80769886955149,
,,,,22.0,10.0,1.0,,,,,blau,blue,b,1.0,b,1.0,0.7809757019999779,,,,,,,,,,,,,,1.0,10.0,22.0,6.0,,,,,246.09342311,,,,,,,,,,,,,,,,,246.08410262000007,246.88149213399996,247.6789402610002,247.6663798140003,,,,,,,,,,,,,,,,247.67058575200008,247.6789402610002,247.6789402610002,248.4689999770003,b,1.0,0.7809757019999779,,248.469548308,248.48224445999995,249.46687037399988,249.4753981240001,,,,,,,,,,,,,,,,,,,sub-232,1,stroop_test,64.80769886955149,
,,,,23.0,11.0,1.0,,,,,gelb,red,r,0.0,r,1.0,0.7695158480000828,,,,,,,,,,,,,,1.0,11.0,23.0,8.0,,,,,249.4753981240001,,,,,,,,,,,,,,,,,249.4673773110003,249.81534888500028,250.61025571000027,250.5989634739999,,,,,,,,,,,,,,,,250.602207984,250.61025571000027,250.61025571000027,251.38465510600008,r,1.0,0.7695158480000828,,251.3852829020002,251.39709798400008,252.38261992100024,252.39110146800024,,,,,,,,,,,,,,,,,,,sub-232,1,stroop_test,64.80769886955149,
,,,,,,,,,,,,,,,,,,,,,,,,,,,,,,,,,,,,,,,,,,,,,,,,,,,,,,,,,,,,,,,,,,,,,,,,,,,,,,,,,,,,,,,252.38278738300005,252.39110146800024,252.39110146800024,260.1493330070002,space,7.746752751999793,,,,,,,,,,,,,sub-232,1,stroop_test,64.80769886955149,
,,,,0.0,0.0,0.0,,,,,,,,,,,,,rot,red,r,1.0,r,1.0,0.7066282760001741,,,,,,,,,,0.0,0.0,0.0,1.0,260.16990118500007,,,,,,,,,,,,,,,,,260.1596496520001,260.4982300290003,261.2946579019999,261.28210062900007,,,,,,,,,,,,,,,,,,,,,,,,,,,,,,,,,,,261.2865385760001,261.2946579019999,261.2946579019999,262.012545566,r,1.0,0.7066282760001741,,,,,sub-232,1,stroop_test,64.80769886955149,
,,,,1.0,1.0,0.0,,,,,,,,,,,,,rot,blue,b,0.0,b,1.0,0.7202549650000947,,,,,,,,,,0.0,1.0,1.0,2.0,262.02459799100006,,,,,,,,,,,,,,,,,262.0132928500002,262.8049781260001,263.6019568930001,263.5912111570001,,,,,,,,,,,,,,,,,,,,,,,,,,,,,,,,,,,263.592023915,263.6019568930001,263.6019568930001,264.334708593,b,1.0,0.7202549650000947,,,,,sub-232,1,stroop_test,64.80769886955149,
,,,,2.0,2.0,0.0,,,,,,,,,,,,,gelb,blue,b,0.0,g,0.0,0.791374913999789,,,,,,,,,,0.0,2.0,2.0,9.0,264.34564189699995,,,,,,,,,,,,,,,,,264.3351512029999,265.5323764069999,266.33732137800007,266.32076480900014,,,,,,,,,,,,,,,,,,,,,,,,,,,,,,,,,,,266.3245848649999,266.33732137800007,266.33732137800007,267.1394494410001,g,0.0,0.791374913999789,,,,,sub-232,1,stroop_test,64.80769886955149,
,,,,3.0,3.0,0.0,,,,,,,,,,,,,gelb,red,r,0.0,r,1.0,1.1868836980002015,,,,,,,,,,0.0,3.0,3.0,8.0,267.1524835580003,,,,,,,,,,,,,,,,,267.13989595600015,267.9412451950002,268.7388259019999,268.72690553400025,,,,,,,,,,,,,,,,,,,,,,,,,,,,,,,,,,,268.7277089700001,268.7388259019999,268.7388259019999,269.92894487600006,r,1.0,1.1868836980002015,,,,,sub-232,1,stroop_test,64.80769886955149,
,,,,4.0,4.0,0.0,,,,,,,,,,,,,blau,blue,b,1.0,b,1.0,0.6164506019999862,,,,,,,,,,0.0,4.0,4.0,6.0,269.9406239280001,,,,,,,,,,,,,,,,,269.9294858819999,270.7219546280003,271.51986359600005,271.50652495500026,,,,,,,,,,,,,,,,,,,,,,,,,,,,,,,,,,,271.51091452499986,271.51986359600005,271.51986359600005,272.14107399500017,b,1.0,0.6164506019999862,,,,,sub-232,1,stroop_test,64.80769886955149,
,,,,5.0,5.0,0.0,,,,,,,,,,,,,blau,blue,b,1.0,b,1.0,0.5995999369997662,,,,,,,,,,0.0,5.0,5.0,5.0,272.1518078859999,,,,,,,,,,,,,,,,,272.141461017,272.238330442,273.0309726559999,273.02211076799995,,,,,,,,,,,,,,,,,,,,,,,,,,,,,,,,,,,273.02268898500006,273.0309726559999,273.0309726559999,273.6381406280002,b,1.0,0.5995999369997662,,,,,sub-232,1,stroop_test,64.80769886955149,
,,,,6.0,6.0,0.0,,,,,,,,,,,,,gelb,yellow,g,1.0,g,1.0,0.6295473330001187,,,,,,,,,,0.0,6.0,6.0,10.0,273.64817071200014,,,,,,,,,,,,,,,,,273.6385948350003,273.9806547389999,274.7779934590003,274.7654349730001,,,,,,,,,,,,,,,,,,,,,,,,,,,,,,,,,,,274.7697978410001,274.7779934590003,274.7779934590003,275.4172672120003,g,1.0,0.6295473330001187,,,,,sub-232,1,stroop_test,64.80769886955149,
,,,,7.0,7.0,0.0,,,,,,,,,,,,,blau,red,r,0.0,r,1.0,0.5637310690003687,,,,,,,,,,0.0,7.0,7.0,4.0,275.42735617100016,,,,,,,,,,,,,,,,,275.4177098800001,276.61438794700007,277.41158840200023,277.39857035600016,,,,,,,,,,,,,,,,,,,,,,,,,,,,,,,,,,,277.4030762309999,277.41158840200023,277.41158840200023,277.9788185430002,r,1.0,0.5637310690003687,,,,,sub-232,1,stroop_test,64.80769886955149,
,,,,8.0,8.0,0.0,,,,,,,,,,,,,blau,yellow,g,0.0,b,0.0,0.6473502779999762,,,,,,,,,,0.0,8.0,8.0,7.0,277.9905589780001,,,,,,,,,,,,,,,,,277.9792858380001,278.33216089100006,279.1267722299999,279.1166206050002,,,,,,,,,,,,,,,,,,,,,,,,,,,,,,,,,,,279.1172813389999,279.1267722299999,279.1267722299999,279.7843459810001,b,0.0,0.6473502779999762,,,,,sub-232,1,stroop_test,64.80769886955149,
,,,,9.0,9.0,0.0,,,,,,,,,,,,,rot,yellow,g,0.0,g,1.0,0.937573328000326,,,,,,,,,,0.0,9.0,9.0,3.0,279.795601711,,,,,,,,,,,,,,,,,279.784866,279.891079599,280.69126129000006,280.67601944800026,,,,,,,,,,,,,,,,,,,,,,,,,,,,,,,,,,,280.68133426700024,280.69126129000006,280.69126129000006,281.6400338130002,g,1.0,0.937573328000326,,,,,sub-232,1,stroop_test,64.80769886955149,
,,,,10.0,10.0,0.0,,,,,,,,,,,,,rot,red,r,1.0,r,1.0,1.006832461999693,,,,,,,,,,0.0,10.0,10.0,0.0,281.6527418340001,,,,,,,,,,,,,,,,,281.64064315,282.83739518599987,283.63400535400024,283.6227665189999,,,,,,,,,,,,,,,,,,,,,,,,,,,,,,,,,,,283.62356509400024,283.63400535400024,283.63400535400024,284.6448566180002,r,1.0,1.006832461999693,,,,,sub-232,1,stroop_test,64.80769886955149,
,,,,11.0,11.0,0.0,,,,,,,,,,,,,gelb,yellow,g,1.0,g,1.0,0.5645788960000573,,,,,,,,,,0.0,11.0,11.0,11.0,284.655769428,,,,,,,,,,,,,,,,,284.64542352900025,285.4383232800001,286.2357664840001,286.22258961800026,,,,,,,,,,,,,,,,,,,,,,,,,,,,,,,,,,,286.22694066700024,286.2357664840001,286.2357664840001,286.81150036100007,g,1.0,0.5645788960000573,,,,,sub-232,1,stroop_test,64.80769886955149,
,,,,12.0,0.0,1.0,,,,,,,,,,,,,blau,blue,b,1.0,b,1.0,0.5697114320000765,,,,,,,,,,1.0,0.0,12.0,5.0,286.8236040800002,,,,,,,,,,,,,,,,,286.81196128400006,287.15871246100005,287.963401212,287.94962978600006,,,,,,,,,,,,,,,,,,,,,,,,,,,,,,,,,,,287.95373749300006,287.963401212,287.963401212,288.5461281170001,b,1.0,0.5697114320000765,,,,,sub-232,1,stroop_test,64.80769886955149,
,,,,13.0,1.0,1.0,,,,,,,,,,,,,gelb,yellow,g,1.0,g,1.0,0.5083231479998176,,,,,,,,,,1.0,1.0,13.0,11.0,288.5581450130003,,,,,,,,,,,,,,,,,288.54674974399995,289.738300903,290.5463257189999,290.5220085750002,,,,,,,,,,,,,,,,,,,,,,,,,,,,,,,,,,,290.524282202,290.5463257189999,290.5463257189999,291.05965699299986,g,1.0,0.5083231479998176,,,,,sub-232,1,stroop_test,64.80769886955149,
,,,,14.0,2.0,1.0,,,,,,,,,,,,,blau,blue,b,1.0,b,1.0,0.7032096559996717,,,,,,,,,,1.0,2.0,14.0,6.0,291.0709482870002,,,,,,,,,,,,,,,,,291.0600501990002,291.157391275,291.9544330980002,291.9410268249999,,,,,,,,,,,,,,,,,,,,,,,,,,,,,,,,,,,291.94477016300016,291.9544330980002,291.9544330980002,292.6600652719999,b,1.0,0.7032096559996717,,,,,sub-232,1,stroop_test,64.80769886955149,
,,,,15.0,3.0,1.0,,,,,,,,,,,,,blau,red,r,0.0,r,1.0,0.5433201709997775,,,,,,,,,,1.0,3.0,15.0,4.0,292.672403437,,,,,,,,,,,,,,,,,292.6605530229999,293.4541266270003,294.2543935530002,294.24706614000024,,,,,,,,,,,,,,,,,,,,,,,,,,,,,,,,,,,294.24749779800004,294.2543935530002,294.2543935530002,294.80493043800016,r,1.0,0.5433201709997775,,,,,sub-232,1,stroop_test,64.80769886955149,
,,,,16.0,4.0,1.0,,,,,,,,,,,,,rot,yellow,g,0.0,r,0.0,0.6879626830000234,,,,,,,,,,1.0,4.0,16.0,3.0,294.81439219000004,,,,,,,,,,,,,,,,,294.805264312,296.0031029480001,296.7973810970002,296.7866149870001,,,,,,,,,,,,,,,,,,,,,,,,,,,,,,,,,,,296.7888774940002,296.7973810970002,296.7973810970002,297.488502533,r,0.0,0.6879626830000234,,,,,sub-232,1,stroop_test,64.80769886955149,
,,,,17.0,5.0,1.0,,,,,,,,,,,,,rot,red,r,1.0,r,1.0,0.8089401900001576,,,,,,,,,,1.0,5.0,17.0,0.0,297.49787758699995,,,,,,,,,,,,,,,,,297.48882733300024,297.5856868420001,298.38030209,298.3710099330001,,,,,,,,,,,,,,,,,,,,,,,,,,,,,,,,,,,298.37182026400023,298.38030209,298.38030209,299.21375273500007,r,1.0,0.8089401900001576,,,,,sub-232,1,stroop_test,64.80769886955149,
,,,,18.0,6.0,1.0,,,,,,,,,,,,,gelb,blue,b,0.0,b,1.0,0.6564323689999583,,,,,,,,,,1.0,6.0,18.0,9.0,299.2297230510003,,,,,,,,,,,,,,,,,299.2141956569999,299.303620488,300.10199596500024,300.08827746999987,,,,,,,,,,,,,,,,,,,,,,,,,,,,,,,,,,,300.0935586360001,300.10199596500024,300.10199596500024,300.76669939700014,b,1.0,0.6564323689999583,,,,,sub-232,1,stroop_test,64.80769886955149,
,,,,19.0,7.0,1.0,,,,,,,,,,,,,gelb,yellow,g,1.0,g,1.0,0.6099642829999539,,,,,,,,,,1.0,7.0,19.0,10.0,300.77605914700007,,,,,,,,,,,,,,,,,300.7671461990003,301.11339659700025,301.90689332400007,301.8977426270003,,,,,,,,,,,,,,,,,,,,,,,,,,,,,,,,,,,301.8985624490001,301.90689332400007,301.90689332400007,302.52699659400014,g,1.0,0.6099642829999539,,,,,sub-232,1,stroop_test,64.80769886955149,
,,,,20.0,8.0,1.0,,,,,,,,,,,,,blau,yellow,g,0.0,g,1.0,0.9580044539998198,,,,,,,,,,1.0,8.0,20.0,7.0,302.5379462189999,,,,,,,,,,,,,,,,,302.52750967300017,302.6228350780002,303.4234879579999,303.41385343,,,,,,,,,,,,,,,,,,,,,,,,,,,,,,,,,,,303.41614495700014,303.4234879579999,303.4234879579999,304.38716698400003,g,1.0,0.9580044539998198,,,,,sub-232,1,stroop_test,64.80769886955149,
,,,,21.0,9.0,1.0,,,,,,,,,,,,,gelb,red,r,0.0,b,0.0,0.8093216830002348,,,,,,,,,,1.0,9.0,21.0,8.0,304.396989935,,,,,,,,,,,,,,,,,304.3875499139999,304.73077397,305.5260677199999,305.51485014900027,,,,,,,,,,,,,,,,,,,,,,,,,,,,,,,,,,,305.5180539769999,305.5260677199999,305.5260677199999,306.339434902,b,0.0,0.8093216830002348,,,,,sub-232,1,stroop_test,64.80769886955149,
,,,,22.0,10.0,1.0,,,,,,,,,,,,,rot,blue,b,0.0,b,1.0,2.1854527109999253,,,,,,,,,,1.0,10.0,22.0,2.0,306.3518328549999,,,,,,,,,,,,,,,,,306.3400557969999,306.431411912,307.2275921579999,307.21568921900007,,,,,,,,,,,,,,,,,,,,,,,,,,,,,,,,,,,307.2192048930001,307.2275921579999,307.2275921579999,309.4208089650001,b,1.0,2.1854527109999253,,,,,sub-232,1,stroop_test,64.80769886955149,
,,,,23.0,11.0,1.0,,,,,,,,,,,,,rot,red,r,1.0,r,1.0,0.6342436640002234,,,,,,,,,,1.0,11.0,23.0,1.0,309.4310902299999,,,,,,,,,,,,,,,,,309.4212634820001,309.53091160500026,310.3230962550001,310.3140788640003,,,,,,,,,,,,,,,,,,,,,,,,,,,,,,,,,,,310.31460472200024,310.3230962550001,310.3230962550001,310.96741028199995,r,1.0,0.6342436640002234,,,,,sub-232,1,stroop_test,64.80769886955149,
,,,,24.0,0.0,2.0,,,,,,,,,,,,,gelb,red,r,0.0,r,1.0,0.924940830000196,,,,,,,,,,2.0,0.0,24.0,8.0,310.980283893,,,,,,,,,,,,,,,,,310.9680162660002,311.3146366250003,312.1109187760003,312.0984174700002,,,,,,,,,,,,,,,,,,,,,,,,,,,,,,,,,,,312.10265404200027,312.1109187760003,312.1109187760003,313.039294792,r,1.0,0.924940830000196,,,,,sub-232,1,stroop_test,64.80769886955149,
,,,,25.0,1.0,2.0,,,,,,,,,,,,,rot,yellow,g,0.0,g,1.0,0.5835161459999654,,,,,,,,,,2.0,1.0,25.0,3.0,313.05166848,,,,,,,,,,,,,,,,,313.039826234,314.2373667900001,315.0362487550001,315.02256124099995,,,,,,,,,,,,,,,,,,,,,,,,,,,,,,,,,,,315.0272000640002,315.0362487550001,315.0362487550001,315.6315141170003,g,1.0,0.5835161459999654,,,,,sub-232,1,stroop_test,64.80769886955149,
,,,,26.0,2.0,2.0,,,,,,,,,,,,,gelb,yellow,g,1.0,g,1.0,0.6512939029998961,,,,,,,,,,2.0,2.0,26.0,11.0,315.6428625630001,,,,,,,,,,,,,,,,,315.63225144199987,316.83048146400006,317.6299203440003,317.61530807300005,,,,,,,,,,,,,,,,,,,,,,,,,,,,,,,,,,,317.6215296989999,317.6299203440003,317.6299203440003,318.283507399,g,1.0,0.6512939029998961,,,,,sub-232,1,stroop_test,64.80769886955149,
,,,,27.0,3.0,2.0,,,,,,,,,,,,,rot,blue,b,0.0,b,1.0,0.8780179620002855,,,,,,,,,,2.0,3.0,27.0,2.0,318.2957712350003,,,,,,,,,,,,,,,,,318.283995712,318.6304879300001,319.42772692000017,319.414788864,,,,,,,,,,,,,,,,,,,,,,,,,,,,,,,,,,,319.4191390770002,319.42772692000017,319.42772692000017,320.3110634210002,b,1.0,0.8780179620002855,,,,,sub-232,1,stroop_test,64.80769886955149,
,,,,28.0,4.0,2.0,,,,,,,,,,,,,rot,red,r,1.0,r,1.0,0.5722060910002256,,,,,,,,,,2.0,4.0,28.0,1.0,320.3223705320001,,,,,,,,,,,,,,,,,320.31159688200023,321.50450138199994,322.29982825100024,322.2890285860003,,,,,,,,,,,,,,,,,,,,,,,,,,,,,,,,,,,322.2898208020001,322.29982825100024,322.29982825100024,322.8828777570002,r,1.0,0.5722060910002256,,,,,sub-232,1,stroop_test,64.80769886955149,
,,,,29.0,5.0,2.0,,,,,,,,,,,,,rot,red,r,1.0,r,1.0,0.5371060689999467,,,,,,,,,,2.0,5.0,29.0,0.0,322.8950799080003,,,,,,,,,,,,,,,,,322.8833330560001,323.6804307100001,324.47407011199994,324.46386407599994,,,,,,,,,,,,,,,,,,,,,,,,,,,,,,,,,,,324.46464029300023,324.47407011199994,324.47407011199994,325.02038655100023,r,1.0,0.5371060689999467,,,,,sub-232,1,stroop_test,64.80769886955149,
,,,,30.0,6.0,2.0,,,,,,,,,,,,,blau,yellow,g,0.0,g,1.0,0.5854038289999153,,,,,,,,,,2.0,6.0,30.0,7.0,325.0301286849999,,,,,,,,,,,,,,,,,325.0208272980003,326.2136671010003,327.0103555310002,326.99795770499986,,,,,,,,,,,,,,,,,,,,,,,,,,,,,,,,,,,327.0022872459999,327.0103555310002,327.0103555310002,327.60084994,g,1.0,0.5854038289999153,,,,,sub-232,1,stroop_test,64.80769886955149,
,,,,31.0,7.0,2.0,,,,,,,,,,,,,gelb,blue,b,0.0,b,1.0,0.4671186020000277,,,,,,,,,,2.0,7.0,31.0,9.0,327.613070976,,,,,,,,,,,,,,,,,327.6014563900003,328.3986550560003,329.202257555,329.1874877559999,,,,,,,,,,,,,,,,,,,,,,,,,,,,,,,,,,,329.1917790709999,329.202257555,329.202257555,329.67837810499987,b,1.0,0.4671186020000277,,,,,sub-232,1,stroop_test,64.80769886955149,
,,,,32.0,8.0,2.0,,,,,,,,,,,,,blau,blue,b,1.0,b,1.0,0.6258461420002277,,,,,,,,,,2.0,8.0,32.0,5.0,329.6904750630001,,,,,,,,,,,,,,,,,329.6790396340002,330.0228383210001,330.8274335850001,330.81482149700014,,,,,,,,,,,,,,,,,,,,,,,,,,,,,,,,,,,330.81922573400016,330.8274335850001,330.8274335850001,331.4666193480002,b,1.0,0.6258461420002277,,,,,sub-232,1,stroop_test,64.80769886955149,
,,,,33.0,9.0,2.0,,,,,,,,,,,,,gelb,yellow,g,1.0,g,1.0,0.7621344559997851,,,,,,,,,,2.0,9.0,33.0,10.0,331.48089489699987,,,,,,,,,,,,,,,,,331.467221464,331.8138013550001,332.6102894290002,332.5977518660002,,,,,,,,,,,,,,,,,,,,,,,,,,,,,,,,,,,332.60230372700016,332.6102894290002,332.6102894290002,333.38164587200026,g,1.0,0.7621344559997851,,,,,sub-232,1,stroop_test,64.80769886955149,
,,,,34.0,10.0,2.0,,,,,,,,,,,,,blau,red,r,0.0,r,1.0,0.6563345430004119,,,,,,,,,,2.0,10.0,34.0,4.0,333.3984217080001,,,,,,,,,,,,,,,,,333.38196044200004,334.598025537,335.3969115750001,335.38244915199994,,,,,,,,,,,,,,,,,,,,,,,,,,,,,,,,,,,335.386959814,335.3969115750001,335.3969115750001,336.0604753050002,r,1.0,0.6563345430004119,,,,,sub-232,1,stroop_test,64.80769886955149,
,,,,35.0,11.0,2.0,,,,,,,,,,,,,blau,blue,b,1.0,b,1.0,0.7907592800002021,,,,,,,,,,2.0,11.0,35.0,6.0,336.07153665700025,,,,,,,,,,,,,,,,,336.0609159979999,336.85390765600005,337.651198046,337.63968013800013,,,,,,,,,,,,,,,,,,,,,,,,,,,,,,,,,,,337.6404731739999,337.651198046,337.651198046,338.4540302390001,b,1.0,0.7907592800002021,,,,,sub-232,1,stroop_test,64.80769886955149,
,,,,36.0,0.0,3.0,,,,,,,,,,,,,blau,red,r,0.0,r,1.0,0.7687916159998167,,,,,,,,,,3.0,0.0,36.0,4.0,338.46438524,,,,,,,,,,,,,,,,,338.4544710129999,339.64714578600024,340.44071520800026,340.43229322000025,,,,,,,,,,,,,,,,,,,,,,,,,,,,,,,,,,,340.43306664500005,340.44071520800026,340.44071520800026,341.2211463480003,r,1.0,0.7687916159998167,,,,,sub-232,1,stroop_test,64.80769886955149,
,,,,37.0,1.0,3.0,,,,,,,,,,,,,blau,yellow,g,0.0,g,1.0,0.5790724620001129,,,,,,,,,,3.0,1.0,37.0,7.0,341.23099404899995,,,,,,,,,,,,,,,,,341.221533938,341.3138819840001,342.1071643270002,342.09754439200015,,,,,,,,,,,,,,,,,,,,,,,,,,,,,,,,,,,342.0983366190003,342.1071643270002,342.1071643270002,342.6999564319999,g,1.0,0.5790724620001129,,,,,sub-232,1,stroop_test,64.80769886955149,
,,,,38.0,2.0,3.0,,,,,,,,,,,,,blau,blue,b,1.0,b,1.0,0.598694943999817,,,,,,,,,,3.0,2.0,38.0,6.0,342.7139499580003,,,,,,,,,,,,,,,,,342.7005572550001,342.798591495,343.60126956800013,343.58987926500004,,,,,,,,,,,,,,,,,,,,,,,,,,,,,,,,,,,343.5906856880001,343.60126956800013,343.60126956800013,344.20429007300027,b,1.0,0.598694943999817,,,,,sub-232,1,stroop_test,64.80769886955149,
,,,,39.0,3.0,3.0,,,,,,,,,,,,,rot,yellow,g,0.0,b,0.0,0.8181244889997288,,,,,,,,,,3.0,3.0,39.0,3.0,344.214137555,,,,,,,,,,,,,,,,,344.204671902,344.29777506100027,345.102093473,345.08679005700014,,,,,,,,,,,,,,,,,,,,,,,,,,,,,,,,,,,345.0912530569999,345.102093473,345.102093473,345.92726298200023,b,0.0,0.8181244889997288,,,,,sub-232,1,stroop_test,64.80769886955149,
,,,,40.0,4.0,3.0,,,,,,,,,,,,,gelb,yellow,g,1.0,g,1.0,0.6153247629999896,,,,,,,,,,3.0,4.0,40.0,11.0,345.9384337780002,,,,,,,,,,,,,,,,,345.9277512839999,346.0237575450001,346.826284753,346.81399912100005,,,,,,,,,,,,,,,,,,,,,,,,,,,,,,,,,,,346.8180759930001,346.826284753,346.826284753,347.4502739,g,1.0,0.6153247629999896,,,,,sub-232,1,stroop_test,64.80769886955149,
,,,,41.0,5.0,3.0,,,,,,,,,,,,,rot,blue,b,0.0,b,1.0,1.0867733530003534,,,,,,,,,,3.0,5.0,41.0,2.0,347.4644259659999,,,,,,,,,,,,,,,,,347.45087129800004,347.5468858019999,348.36492747600005,348.3483460000002,,,,,,,,,,,,,,,,,,,,,,,,,,,,,,,,,,,348.35276633600006,348.36492747600005,348.36492747600005,349.4606108359999,b,1.0,1.0867733530003534,,,,,sub-232,1,stroop_test,64.80769886955149,
,,,,42.0,6.0,3.0,,,,,,,,,,,,,blau,blue,b,1.0,b,1.0,0.6710798819999582,,,,,,,,,,3.0,6.0,42.0,5.0,349.472431099,,,,,,,,,,,,,,,,,349.4611928950003,349.80486408900015,350.6028463360003,350.589381494,,,,,,,,,,,,,,,,,,,,,,,,,,,,,,,,,,,350.5938508170002,350.6028463360003,350.6028463360003,351.2818482050002,b,1.0,0.6710798819999582,,,,,sub-232,1,stroop_test,64.80769886955149,
,,,,43.0,7.0,3.0,,,,,,,,,,,,,gelb,red,r,0.0,r,1.0,0.8332645680002315,,,,,,,,,,3.0,7.0,43.0,8.0,351.2921717039999,,,,,,,,,,,,,,,,,351.28216266100026,351.37164170100004,352.1728243719999,352.15788563900014,,,,,,,,,,,,,,,,,,,,,,,,,,,,,,,,,,,352.1626040790002,352.1728243719999,352.1728243719999,353.0105323500002,r,1.0,0.8332645680002315,,,,,sub-232,1,stroop_test,64.80769886955149,
,,,,44.0,8.0,3.0,,,,,,,,,,,,,rot,red,r,1.0,r,1.0,0.6773648570001569,,,,,,,,,,3.0,8.0,44.0,1.0,353.0225742010002,,,,,,,,,,,,,,,,,353.01110726100023,353.80428626799994,354.602414213,354.5885468629999,,,,,,,,,,,,,,,,,,,,,,,,,,,,,,,,,,,354.59328527200023,354.602414213,354.602414213,355.28347318600026,r,1.0,0.6773648570001569,,,,,sub-232,1,stroop_test,64.80769886955149,
,,,,45.0,9.0,3.0,,,,,,,,,,,,,rot,red,r,1.0,r,1.0,0.6738657079999939,,,,,,,,,,3.0,9.0,45.0,0.0,355.2927948669999,,,,,,,,,,,,,,,,,355.283858536,356.4798208780003,357.27301556600014,357.26399926700014,,,,,,,,,,,,,,,,,,,,,,,,,,,,,,,,,,,357.26458454500016,357.27301556600014,357.27301556600014,357.9507359170002,r,1.0,0.6738657079999939,,,,,sub-232,1,stroop_test,64.80769886955149,
,,,,46.0,10.0,3.0,,,,,,,,,,,,,gelb,yellow,g,1.0,g,1.0,0.6952840040003139,,,,,,,,,,3.0,10.0,46.0,10.0,357.96316320999995,,,,,,,,,,,,,,,,,357.95123408200016,358.2955768259999,359.088843256,359.0793547200001,,,,,,,,,,,,,,,,,,,,,,,,,,,,,,,,,,,359.0820693169999,359.088843256,359.088843256,359.7873624839999,g,1.0,0.6952840040003139,,,,,sub-232,1,stroop_test,64.80769886955149,
,,,,47.0,11.0,3.0,,,,,,,,,,,,,gelb,blue,b,0.0,b,1.0,0.7990481980000368,,,,,,,,,,3.0,11.0,47.0,9.0,359.79605020100007,,,,,,,,,,,,,,,,,359.7876856410003,360.1355456860001,360.929247387,360.9198759250002,,,,,,,,,,,,,,,,,,,,,,,,,,,,,,,,,,,360.9206019150001,360.929247387,360.929247387,361.73066094600017,b,1.0,0.7990481980000368,,,,,sub-232,1,stroop_test,64.80769886955149,
,,,,48.0,0.0,4.0,,,,,,,,,,,,,blau,red,r,0.0,r,1.0,0.7317833330002941,,,,,,,,,,4.0,0.0,48.0,4.0,361.7396243829999,,,,,,,,,,,,,,,,,361.73099654,361.828886922,362.6227761700002,362.61307975599993,,,,,,,,,,,,,,,,,,,,,,,,,,,,,,,,,,,362.615476772,362.6227761700002,362.6227761700002,363.3587876360002,r,1.0,0.7317833330002941,,,,,sub-232,1,stroop_test,64.80769886955149,
,,,,49.0,1.0,4.0,,,,,,,,,,,,,rot,red,r,1.0,r,1.0,0.534651113000109,,,,,,,,,,4.0,1.0,49.0,1.0,363.3702648210001,,,,,,,,,,,,,,,,,363.3593520250001,364.5540405259999,365.35102833400015,365.3379812620001,,,,,,,,,,,,,,,,,,,,,,,,,,,,,,,,,,,365.342300026,365.35102833400015,365.35102833400015,365.8932332029999,r,1.0,0.534651113000109,,,,,sub-232,1,stroop_test,64.80769886955149,
,,,,50.0,2.0,4.0,,,,,,,,,,,,,gelb,yellow,g,1.0,g,1.0,0.5806502859995817,,,,,,,,,,4.0,2.0,50.0,10.0,365.9041948869999,,,,,,,,,,,,,,,,,365.8937075859999,365.9885099600001,366.78608018800014,366.7721705680001,,,,,,,,,,,,,,,,,,,,,,,,,,,,,,,,,,,366.77699577600015,366.78608018800014,366.78608018800014,367.374180927,g,1.0,0.5806502859995817,,,,,sub-232,1,stroop_test,64.80769886955149,
,,,,51.0,3.0,4.0,,,,,,,,,,,,,rot,yellow,g,0.0,g,1.0,0.7086955330000819,,,,,,,,,,4.0,3.0,51.0,3.0,367.384435771,,,,,,,,,,,,,,,,,367.37461778700026,368.1697759190001,368.9665675430001,368.9540283860001,,,,,,,,,,,,,,,,,,,,,,,,,,,,,,,,,,,368.957918309,368.9665675430001,368.9665675430001,369.68205521100026,g,1.0,0.7086955330000819,,,,,sub-232,1,stroop_test,64.80769886955149,
,,,,52.0,4.0,4.0,,,,,,,,,,,,,gelb,red,r,0.0,r,1.0,0.6647535530000823,,,,,,,,,,4.0,4.0,52.0,8.0,369.6922295330001,,,,,,,,,,,,,,,,,369.68244050500016,370.8790879850003,371.67615478200014,371.66334761100006,,,,,,,,,,,,,,,,,,,,,,,,,,,,,,,,,,,371.66732412400006,371.67615478200014,371.67615478200014,372.3504617460003,r,1.0,0.6647535530000823,,,,,sub-232,1,stroop_test,64.80769886955149,
,,,,53.0,5.0,4.0,,,,,,,,,,,,,blau,yellow,g,0.0,g,1.0,0.6212007760000233,,,,,,,,,,4.0,5.0,53.0,7.0,372.3624978840003,,,,,,,,,,,,,,,,,372.3510706719999,372.447797031,373.246704703,373.23473619000015,,,,,,,,,,,,,,,,,,,,,,,,,,,,,,,,,,,373.23798917700014,373.246704703,373.246704703,373.87675112800025,g,1.0,0.6212007760000233,,,,,sub-232,1,stroop_test,64.80769886955149,
,,,,54.0,6.0,4.0,,,,,,,,,,,,,blau,blue,b,1.0,b,1.0,0.640839792999941,,,,,,,,,,4.0,6.0,54.0,6.0,373.8884136239999,,,,,,,,,,,,,,,,,373.877195947,375.07062144300016,375.8670270990001,375.8552772799999,,,,,,,,,,,,,,,,,,,,,,,,,,,,,,,,,,,375.85606890200006,375.8670270990001,375.8670270990001,376.522742954,b,1.0,0.640839792999941,,,,,sub-232,1,stroop_test,64.80769886955149,
,,,,55.0,7.0,4.0,,,,,,,,,,,,,blau,blue,b,1.0,b,1.0,0.7544474669998635,,,,,,,,,,4.0,7.0,55.0,5.0,376.531081057,,,,,,,,,,,,,,,,,376.5232065139999,377.7213323159999,378.52029935400014,378.5078501060002,,,,,,,,,,,,,,,,,,,,,,,,,,,,,,,,,,,378.5088754950002,378.52029935400014,378.52029935400014,379.283170573,b,1.0,0.7544474669998635,,,,,sub-232,1,stroop_test,64.80769886955149,
,,,,56.0,8.0,4.0,,,,,,,,,,,,,gelb,yellow,g,1.0,g,1.0,0.660032503000366,,,,,,,,,,4.0,8.0,56.0,11.0,379.29669747900016,,,,,,,,,,,,,,,,,379.28376796500015,379.397901196,380.1980523410002,380.18182013900014,,,,,,,,,,,,,,,,,,,,,,,,,,,,,,,,,,,380.18632281300006,380.1980523410002,380.1980523410002,380.870920072,g,1.0,0.660032503000366,,,,,sub-232,1,stroop_test,64.80769886955149,
,,,,57.0,9.0,4.0,,,,,,,,,,,,,gelb,blue,b,0.0,b,1.0,0.7849134119996961,,,,,,,,,,4.0,9.0,57.0,9.0,380.88402190700026,,,,,,,,,,,,,,,,,380.871369988,380.96747912,381.7807206759999,381.763838894,,,,,,,,,,,,,,,,,,,,,,,,,,,,,,,,,,,381.764643342,381.7807206759999,381.7807206759999,382.58203033100017,b,1.0,0.7849134119996961,,,,,sub-232,1,stroop_test,64.80769886955149,
,,,,58.0,10.0,4.0,,,,,,,,,,,,,rot,red,r,1.0,r,1.0,0.6776975760003552,,,,,,,,,,4.0,10.0,58.0,0.0,382.590222676,,,,,,,,,,,,,,,,,382.5824628340001,382.92941056100017,383.72704087400007,383.714319446,,,,,,,,,,,,,,,,,,,,,,,,,,,,,,,,,,,383.7187126220001,383.72704087400007,383.72704087400007,384.409145701,r,1.0,0.6776975760003552,,,,,sub-232,1,stroop_test,64.80769886955149,
,,,,59.0,11.0,4.0,,,,,,,,,,,,,rot,blue,b,0.0,b,1.0,0.7190287660000649,,,,,,,,,,4.0,11.0,59.0,2.0,384.4199430419999,,,,,,,,,,,,,,,,,384.409621322,385.6072897690001,386.4145930499999,386.3974657140002,,,,,,,,,,,,,,,,,,,,,,,,,,,,,,,,,,,386.3982483240002,386.4145930499999,386.4145930499999,387.1437195829999,b,1.0,0.7190287660000649,,,,,sub-232,1,stroop_test,64.80769886955149,
,,,,60.0,0.0,5.0,,,,,,,,,,,,,gelb,red,r,0.0,r,1.0,0.6706122149998919,,,,,,,,,,5.0,0.0,60.0,8.0,387.1563140379999,,,,,,,,,,,,,,,,,387.1443304049999,387.4896652110001,388.297464237,388.2815811810001,,,,,,,,,,,,,,,,,,,,,,,,,,,,,,,,,,,388.2859784319999,388.297464237,388.297464237,388.9714048609999,r,1.0,0.6706122149998919,,,,,sub-232,1,stroop_test,64.80769886955149,
,,,,61.0,1.0,5.0,,,,,,,,,,,,,blau,blue,b,1.0,r,0.0,0.6310916820002603,,,,,,,,,,5.0,1.0,61.0,5.0,388.9836971489999,,,,,,,,,,,,,,,,,388.9718713729999,390.1672367680003,390.9682154100001,390.9531246010001,,,,,,,,,,,,,,,,,,,,,,,,,,,,,,,,,,,390.957482197,390.9682154100001,390.9682154100001,391.615412742,r,0.0,0.6310916820002603,,,,,sub-232,1,stroop_test,64.80769886955149,
,,,,62.0,2.0,5.0,,,,,,,,,,,,,blau,yellow,g,0.0,g,1.0,0.7317319119997592,,,,,,,,,,5.0,2.0,62.0,7.0,391.6252425560001,,,,,,,,,,,,,,,,,391.6159160289999,392.4126777720003,393.206981717,393.1976973710002,,,,,,,,,,,,,,,,,,,,,,,,,,,,,,,,,,,393.198526956,393.206981717,393.206981717,393.9431187139999,g,1.0,0.7317319119997592,,,,,sub-232,1,stroop_test,64.80769886955149,
,,,,63.0,3.0,5.0,,,,,,,,,,,,,blau,red,r,0.0,r,1.0,0.6833810660000381,,,,,,,,,,5.0,3.0,63.0,4.0,393.95470726400026,,,,,,,,,,,,,,,,,393.9437095860003,394.0378414480001,394.843588447,394.8321726180002,,,,,,,,,,,,,,,,,,,,,,,,,,,,,,,,,,,394.8329589240002,394.843588447,394.843588447,395.5378268929999,r,1.0,0.6833810660000381,,,,,sub-232,1,stroop_test,64.80769886955149,
,,,,64.0,4.0,5.0,,,,,,,,,,,,,gelb,blue,b,0.0,b,1.0,1.0055380329999934,,,,,,,,,,5.0,4.0,64.0,9.0,395.54963638900017,,,,,,,,,,,,,,,,,395.538267253,395.6356638880002,396.438547704,396.4236180369999,,,,,,,,,,,,,,,,,,,,,,,,,,,,,,,,,,,396.4282538900002,396.438547704,396.438547704,397.4493363950001,b,1.0,1.0055380329999934,,,,,sub-232,1,stroop_test,64.80769886955149,
,,,,65.0,5.0,5.0,,,,,,,,,,,,,rot,red,r,1.0,r,1.0,0.649936334999893,,,,,,,,,,5.0,5.0,65.0,0.0,397.4605799760002,,,,,,,,,,,,,,,,,397.449787262,398.64609233400006,399.4440667580002,399.4307057290002,,,,,,,,,,,,,,,,,,,,,,,,,,,,,,,,,,,399.435809134,399.4440667580002,399.4440667580002,400.1044483650003,r,1.0,0.649936334999893,,,,,sub-232,1,stroop_test,64.80769886955149,
,,,,66.0,6.0,5.0,,,,,,,,,,,,,gelb,yellow,g,1.0,g,1.0,0.6666732199996659,,,,,,,,,,5.0,6.0,66.0,11.0,400.1162795260002,,,,,,,,,,,,,,,,,400.1048945000002,401.308243982,402.110517053,402.0978994070001,,,,,,,,,,,,,,,,,,,,,,,,,,,,,,,,,,,402.1018823710001,402.110517053,402.110517053,402.78780333600025,g,1.0,0.6666732199996659,,,,,sub-232,1,stroop_test,64.80769886955149,
,,,,67.0,7.0,5.0,,,,,,,,,,,,,gelb,yellow,g,1.0,g,1.0,0.642291478000061,,,,,,,,,,5.0,7.0,67.0,10.0,402.801173888,,,,,,,,,,,,,,,,,402.7883987770001,403.98704079900017,404.7827810200001,404.7711757910001,,,,,,,,,,,,,,,,,,,,,,,,,,,,,,,,,,,404.771972214,404.7827810200001,404.7827810200001,405.4388665790002,g,1.0,0.642291478000061,,,,,sub-232,1,stroop_test,64.80769886955149,
,,,,68.0,8.0,5.0,,,,,,,,,,,,,blau,blue,b,1.0,b,1.0,0.9638543229998504,,,,,,,,,,5.0,8.0,68.0,6.0,405.45261812900026,,,,,,,,,,,,,,,,,405.4394696919999,405.5403228690002,406.3400745449999,406.32465845800016,,,,,,,,,,,,,,,,,,,,,,,,,,,,,,,,,,,406.3295313869999,406.3400745449999,406.3400745449999,407.3169192790001,b,1.0,0.9638543229998504,,,,,sub-232,1,stroop_test,64.80769886955149,
,,,,69.0,9.0,5.0,,,,,,,,,,,,,rot,red,r,1.0,r,1.0,0.7245981529999881,,,,,,,,,,5.0,9.0,69.0,1.0,407.33022315000017,,,,,,,,,,,,,,,,,407.31754682300016,407.41405406700005,408.21901081700025,408.2025413350002,,,,,,,,,,,,,,,,,,,,,,,,,,,,,,,,,,,408.2068231389999,408.21901081700025,408.21901081700025,408.954431095,r,1.0,0.7245981529999881,,,,,sub-232,1,stroop_test,64.80769886955149,
,,,,70.0,10.0,5.0,,,,,,,,,,,,,rot,blue,b,0.0,b,1.0,0.8789628879999327,,,,,,,,,,5.0,10.0,70.0,2.0,408.9664207300002,,,,,,,,,,,,,,,,,408.954862696,409.2963660350001,410.0883289799999,410.07967715,,,,,,,,,,,,,,,,,,,,,,,,,,,,,,,,,,,410.080240801,410.0883289799999,410.0883289799999,410.9705656250003,b,1.0,0.8789628879999327,,,,,sub-232,1,stroop_test,64.80769886955149,
,,,,71.0,11.0,5.0,,,,,,,,,,,,,rot,yellow,g,0.0,g,1.0,0.9794873670002744,,,,,,,,,,5.0,11.0,71.0,3.0,410.9830468969999,,,,,,,,,,,,,,,,,410.97118540400015,411.063065329,411.86410688900014,411.8475273160002,,,,,,,,,,,,,,,,,,,,,,,,,,,,,,,,,,,411.8483157740002,411.86410688900014,411.86410688900014,412.8535260660001,g,1.0,0.9794873670002744,,,,,sub-232,1,stroop_test,64.80769886955149,
,,,,72.0,0.0,6.0,,,,,,,,,,,,,rot,yellow,g,0.0,g,1.0,1.019515188999776,,,,,,,,,,6.0,0.0,72.0,3.0,412.865577691,,,,,,,,,,,,,,,,,412.85412244200006,412.947095261,413.7433763029999,413.731722304,,,,,,,,,,,,,,,,,,,,,,,,,,,,,,,,,,,413.732513811,413.7433763029999,413.7433763029999,414.769905527,g,1.0,1.019515188999776,,,,,sub-232,1,stroop_test,64.80769886955149,
,,,,73.0,1.0,6.0,,,,,,,,,,,,,gelb,yellow,g,1.0,g,1.0,0.7431663359998311,,,,,,,,,,6.0,1.0,73.0,10.0,414.781073959,,,,,,,,,,,,,,,,,414.7703437180003,415.1222260929999,415.929202713,415.914930212,,,,,,,,,,,,,,,,,,,,,,,,,,,,,,,,,,,415.919416573,415.929202713,415.929202713,416.67750425500026,g,1.0,0.7431663359998311,,,,,sub-232,1,stroop_test,64.80769886955149,
,,,,74.0,2.0,6.0,,,,,,,,,,,,,blau,blue,b,1.0,b,1.0,0.7364135030002217,,,,,,,,,,6.0,2.0,74.0,6.0,416.6891364530002,,,,,,,,,,,,,,,,,416.6781441389999,417.480706763,418.2849807329999,418.2678644719999,,,,,,,,,,,,,,,,,,,,,,,,,,,,,,,,,,,418.272356552,418.2849807329999,418.2849807329999,419.026502015,b,1.0,0.7364135030002217,,,,,sub-232,1,stroop_test,64.80769886955149,
,,,,75.0,3.0,6.0,,,,,,,,,,,,,blau,yellow,g,0.0,g,1.0,0.798237816999972,,,,,,,,,,6.0,3.0,75.0,7.0,419.03858961700007,,,,,,,,,,,,,,,,,419.0270998609999,420.2198527430001,421.012616217,421.0037559870002,,,,,,,,,,,,,,,,,,,,,,,,,,,,,,,,,,,421.004358568,421.012616217,421.012616217,421.8154050389999,g,1.0,0.798237816999972,,,,,sub-232,1,stroop_test,64.80769886955149,
,,,,76.0,4.0,6.0,,,,,,,,,,,,,gelb,red,r,0.0,r,1.0,0.7908262789997025,,,,,,,,,,6.0,4.0,76.0,8.0,421.8255016440002,,,,,,,,,,,,,,,,,421.815802309,421.91351345700014,422.71889739200014,422.704417767,,,,,,,,,,,,,,,,,,,,,,,,,,,,,,,,,,,422.7096491289999,422.71889739200014,422.71889739200014,423.5148485280001,r,1.0,0.7908262789997025,,,,,sub-232,1,stroop_test,64.80769886955149,
,,,,77.0,5.0,6.0,,,,,,,,,,,,,gelb,blue,b,0.0,b,1.0,0.7789310910002314,,,,,,,,,,6.0,5.0,77.0,9.0,423.525815214,,,,,,,,,,,,,,,,,423.5152478340001,423.6125630770002,424.407370464,424.396960782,,,,,,,,,,,,,,,,,,,,,,,,,,,,,,,,,,,424.3977284460002,424.407370464,424.407370464,425.1996038930001,b,1.0,0.7789310910002314,,,,,sub-232,1,stroop_test,64.80769886955149,
,,,,78.0,6.0,6.0,,,,,,,,,,,,,gelb,yellow,g,1.0,g,1.0,1.1291215789997295,,,,,,,,,,6.0,6.0,78.0,11.0,425.2124327689999,,,,,,,,,,,,,,,,,425.2002228659999,426.395724814,427.1901298349999,427.18036271200026,,,,,,,,,,,,,,,,,,,,,,,,,,,,,,,,,,,427.18117030500025,427.1901298349999,427.1901298349999,428.323866667,g,1.0,1.1291215789997295,,,,,sub-232,1,stroop_test,64.80769886955149,
,,,,79.0,7.0,6.0,,,,,,,,,,,,,rot,red,r,1.0,r,1.0,1.147869109000112,,,,,,,,,,6.0,7.0,79.0,1.0,428.3345383189999,,,,,,,,,,,,,,,,,428.3242517190001,429.1199962390001,429.9212400720003,429.911853738,,,,,,,,,,,,,,,,,,,,,,,,,,,,,,,,,,,429.914145793,429.9212400720003,429.9212400720003,431.0792070990001,r,1.0,1.147869109000112,,,,,sub-232,1,stroop_test,64.80769886955149,
,,,,80.0,8.0,6.0,,,,,,,,,,,,,rot,red,r,1.0,r,1.0,0.6388747239998338,,,,,,,,,,6.0,8.0,80.0,0.0,431.0872599250001,,,,,,,,,,,,,,,,,431.079520928,431.177843679,431.9687684109999,431.961757043,,,,,,,,,,,,,,,,,,,,,,,,,,,,,,,,,,,431.96217536,431.9687684109999,431.9687684109999,432.612753551,r,1.0,0.6388747239998338,,,,,sub-232,1,stroop_test,64.80769886955149,
,,,,81.0,9.0,6.0,,,,,,,,,,,,,rot,blue,b,0.0,b,1.0,0.974418619000062,,,,,,,,,,6.0,9.0,81.0,2.0,432.6208524970002,,,,,,,,,,,,,,,,,432.613067367,432.7111639740001,433.50376505500026,433.4955008470001,,,,,,,,,,,,,,,,,,,,,,,,,,,,,,,,,,,433.4960738499999,433.50376505500026,433.50376505500026,434.4803701760002,b,1.0,0.974418619000062,,,,,sub-232,1,stroop_test,64.80769886955149,
,,,,82.0,10.0,6.0,,,,,,,,,,,,,blau,blue,b,1.0,b,1.0,0.7180361629998515,,,,,,,,,,6.0,10.0,82.0,5.0,434.4893459099999,,,,,,,,,,,,,,,,,434.4809872820001,434.8284302870002,435.6251831530003,435.612827549,,,,,,,,,,,,,,,,,,,,,,,,,,,,,,,,,,,435.6172627629999,435.6251831530003,435.6251831530003,436.35206330200026,b,1.0,0.7180361629998515,,,,,sub-232,1,stroop_test,64.80769886955149,
,,,,83.0,11.0,6.0,,,,,,,,,,,,,blau,red,r,0.0,r,1.0,0.6929047810003794,,,,,,,,,,6.0,11.0,83.0,4.0,436.3625249750002,,,,,,,,,,,,,,,,,436.352513327,437.14577492800026,437.939341928,437.92980766200026,,,,,,,,,,,,,,,,,,,,,,,,,,,,,,,,,,,437.9306257000003,437.939341928,437.939341928,438.63720283600014,r,1.0,0.6929047810003794,,,,,sub-232,1,stroop_test,64.80769886955149,
,,,,84.0,0.0,7.0,,,,,,,,,,,,,gelb,blue,b,0.0,b,1.0,0.6457468389999121,,,,,,,,,,7.0,0.0,84.0,9.0,438.6496389409999,,,,,,,,,,,,,,,,,438.637653671,439.835136533,440.6313403270001,440.61908335499993,,,,,,,,,,,,,,,,,,,,,,,,,,,,,,,,,,,440.6219906609999,440.6313403270001,440.6313403270001,441.2828916460003,b,1.0,0.6457468389999121,,,,,sub-232,1,stroop_test,64.80769886955149,
,,,,85.0,1.0,7.0,,,,,,,,,,,,,rot,blue,b,0.0,b,1.0,0.8019890089999535,,,,,,,,,,7.0,1.0,85.0,2.0,441.296454196,,,,,,,,,,,,,,,,,441.2834421380003,442.0949938570002,442.892154781,442.8803147950002,,,,,,,,,,,,,,,,,,,,,,,,,,,,,,,,,,,442.8843853070002,442.892154781,442.892154781,443.6991210410001,b,1.0,0.8019890089999535,,,,,sub-232,1,stroop_test,64.80769886955149,
,,,,86.0,2.0,7.0,,,,,,,,,,,,,blau,red,r,0.0,r,1.0,0.6530411430003369,,,,,,,,,,7.0,2.0,86.0,4.0,443.7109731730002,,,,,,,,,,,,,,,,,443.6997297450002,444.49539894200007,445.293454265,445.2802459620002,,,,,,,,,,,,,,,,,,,,,,,,,,,,,,,,,,,445.2854435690001,445.293454265,445.293454265,445.95299890700016,r,1.0,0.6530411430003369,,,,,sub-232,1,stroop_test,64.80769886955149,
,,,,87.0,3.0,7.0,,,,,,,,,,,,,rot,red,r,1.0,r,1.0,0.7264914050001607,,,,,,,,,,7.0,3.0,87.0,0.0,445.9635240420002,,,,,,,,,,,,,,,,,445.9534453280002,446.0504075409999,446.8564708480003,446.8417377169999,,,,,,,,,,,,,,,,,,,,,,,,,,,,,,,,,,,446.8459812240003,446.8564708480003,446.8564708480003,447.5871285450002,r,1.0,0.7264914050001607,,,,,sub-232,1,stroop_test,64.80769886955149,
,,,,88.0,4.0,7.0,,,,,,,,,,,,,blau,blue,b,1.0,b,1.0,0.7013148910000382,,,,,,,,,,7.0,4.0,88.0,5.0,447.6005703619999,,,,,,,,,,,,,,,,,447.58756944000015,447.6845333790002,448.4889129520002,448.47408174300017,,,,,,,,,,,,,,,,,,,,,,,,,,,,,,,,,,,448.47901492200026,448.4889129520002,448.4889129520002,449.1984844640001,b,1.0,0.7013148910000382,,,,,sub-232,1,stroop_test,64.80769886955149,
,,,,89.0,5.0,7.0,,,,,,,,,,,,,gelb,red,r,0.0,r,1.0,1.1400554400001963,,,,,,,,,,7.0,5.0,89.0,8.0,449.20933511600015,,,,,,,,,,,,,,,,,449.1989185719999,449.9952933530003,450.79271301100016,450.78030527300007,,,,,,,,,,,,,,,,,,,,,,,,,,,,,,,,,,,450.7843624520001,450.79271301100016,450.79271301100016,451.9357461630002,r,1.0,1.1400554400001963,,,,,sub-232,1,stroop_test,64.80769886955149,
,,,,90.0,6.0,7.0,,,,,,,,,,,,,gelb,yellow,g,1.0,g,1.0,0.7907653440001923,,,,,,,,,,7.0,6.0,90.0,11.0,451.94552666200025,,,,,,,,,,,,,,,,,451.93614796600014,452.2792882839999,453.072340618,453.06277270300006,,,,,,,,,,,,,,,,,,,,,,,,,,,,,,,,,,,453.06355842,453.072340618,453.072340618,453.870158273,g,1.0,0.7907653440001923,,,,,sub-232,1,stroop_test,64.80769886955149,
,,,,91.0,7.0,7.0,,,,,,,,,,,,,rot,yellow,g,0.0,g,1.0,0.6949217559999852,,,,,,,,,,7.0,7.0,91.0,3.0,453.89570148300027,,,,,,,,,,,,,,,,,453.870609131,455.0697446580002,455.8676456769999,455.8540675500003,,,,,,,,,,,,,,,,,,,,,,,,,,,,,,,,,,,455.8586058770002,455.8676456769999,455.8676456769999,456.5812520630002,g,1.0,0.6949217559999852,,,,,sub-232,1,stroop_test,64.80769886955149,
,,,,92.0,8.0,7.0,,,,,,,,,,,,,rot,red,r,1.0,r,1.0,0.6524062449998382,,,,,,,,,,7.0,8.0,92.0,1.0,456.5917798989999,,,,,,,,,,,,,,,,,456.581690126,456.6824924020002,457.4867521020001,457.474934289,,,,,,,,,,,,,,,,,,,,,,,,,,,,,,,,,,,457.4758342800001,457.4867521020001,457.4867521020001,458.1424721220001,r,1.0,0.6524062449998382,,,,,sub-232,1,stroop_test,64.80769886955149,
,,,,93.0,9.0,7.0,,,,,,,,,,,,,blau,blue,b,1.0,b,1.0,0.9873094129998208,,,,,,,,,,7.0,9.0,93.0,6.0,458.1538800630001,,,,,,,,,,,,,,,,,458.1429428659999,458.9467755169999,459.7504088720002,459.7358746680002,,,,,,,,,,,,,,,,,,,,,,,,,,,,,,,,,,,459.7398559850003,459.7504088720002,459.7504088720002,460.7484074990002,b,1.0,0.9873094129998208,,,,,sub-232,1,stroop_test,64.80769886955149,
,,,,94.0,10.0,7.0,,,,,,,,,,,,,blau,yellow,g,0.0,g,1.0,0.744539144999635,,,,,,,,,,7.0,10.0,94.0,7.0,460.7608185980002,,,,,,,,,,,,,,,,,460.748846252,461.5452096459999,462.339527827,462.32986448500014,,,,,,,,,,,,,,,,,,,,,,,,,,,,,,,,,,,462.330675702,462.339527827,462.339527827,463.0974005329999,g,1.0,0.744539144999635,,,,,sub-232,1,stroop_test,64.80769886955149,
,,,,95.0,11.0,7.0,,,,,,,,,,,,,gelb,yellow,g,1.0,g,1.0,0.5768154369998229,,,,,,,,,,7.0,11.0,95.0,10.0,463.1084828910002,,,,,,,,,,,,,,,,,463.0978709199999,463.4451362919999,464.24312051900006,464.2304238050001,,,,,,,,,,,,,,,,,,,,,,,,,,,,,,,,,,,464.2350846960003,464.24312051900006,464.24312051900006,464.824844492,g,1.0,0.5768154369998229,,,,,sub-232,1,stroop_test,64.80769886955149,
,,,,96.0,0.0,8.0,,,,,,,,,,,,,rot,red,r,1.0,r,1.0,0.6466319229998589,,,,,,,,,,8.0,0.0,96.0,1.0,464.83589250700015,,,,,,,,,,,,,,,,,464.8253273720002,464.9192589100003,465.7172348660001,465.7039419040002,,,,,,,,,,,,,,,,,,,,,,,,,,,,,,,,,,,465.7082999930003,465.7172348660001,465.7172348660001,466.3749740860003,r,1.0,0.6466319229998589,,,,,sub-232,1,stroop_test,64.80769886955149,
,,,,97.0,1.0,8.0,,,,,,,,,,,,,gelb,yellow,g,1.0,g,1.0,0.7731407510000281,,,,,,,,,,8.0,1.0,97.0,11.0,466.386022402,,,,,,,,,,,,,,,,,466.37545026,467.1695414650003,467.967543317,467.9540095990001,,,,,,,,,,,,,,,,,,,,,,,,,,,,,,,,,,,467.95842437300007,467.967543317,467.967543317,468.75290283999993,g,1.0,0.7731407510000281,,,,,sub-232,1,stroop_test,64.80769886955149,
,,,,98.0,2.0,8.0,,,,,,,,,,,,,blau,red,r,0.0,r,1.0,0.7659901279998849,,,,,,,,,,8.0,2.0,98.0,4.0,468.778370732,,,,,,,,,,,,,,,,,468.7533503959999,469.9525548300003,470.7510408900002,470.7375632870003,,,,,,,,,,,,,,,,,,,,,,,,,,,,,,,,,,,470.7419846460002,470.7510408900002,470.7510408900002,471.5305120090002,r,1.0,0.7659901279998849,,,,,sub-232,1,stroop_test,64.80769886955149,
,,,,99.0,3.0,8.0,,,,,,,,,,,,,gelb,blue,b,0.0,b,1.0,0.6161104520001572,,,,,,,,,,8.0,3.0,99.0,9.0,471.5403350010001,,,,,,,,,,,,,,,,,471.530892542,472.328380594,473.12532533600006,473.1130502650003,,,,,,,,,,,,,,,,,,,,,,,,,,,,,,,,,,,473.117157275,473.12532533600006,473.12532533600006,473.75277661200016,b,1.0,0.6161104520001572,,,,,sub-232,1,stroop_test,64.80769886955149,
,,,,100.0,4.0,8.0,,,,,,,,,,,,,rot,red,r,1.0,r,1.0,0.5459738260001359,,,,,,,,,,8.0,4.0,100.0,0.0,473.77902725700005,,,,,,,,,,,,,,,,,473.75322235600015,474.9454233280003,475.74235,475.729475613,,,,,,,,,,,,,,,,,,,,,,,,,,,,,,,,,,,475.733866823,475.74235,475.74235,476.29798294500006,r,1.0,0.5459738260001359,,,,,sub-232,1,stroop_test,64.80769886955149,
,,,,101.0,5.0,8.0,,,,,,,,,,,,,gelb,yellow,g,1.0,g,1.0,0.6839964000000691,,,,,,,,,,8.0,5.0,101.0,10.0,476.3090954250001,,,,,,,,,,,,,,,,,476.2984205490002,477.09480079000014,477.891829061,477.8790678790001,,,,,,,,,,,,,,,,,,,,,,,,,,,,,,,,,,,477.883571675,477.891829061,477.891829061,478.5867156929999,g,1.0,0.6839964000000691,,,,,sub-232,1,stroop_test,64.80769886955149,
,,,,102.0,6.0,8.0,,,,,,,,,,,,,rot,blue,b,0.0,b,1.0,0.93089778500007,,,,,,,,,,8.0,6.0,102.0,2.0,478.6003055649999,,,,,,,,,,,,,,,,,478.58731042,479.7859076620002,480.5848703380002,480.5706427959999,,,,,,,,,,,,,,,,,,,,,,,,,,,,,,,,,,,480.5759110050003,480.5848703380002,480.5848703380002,481.5228687560002,b,1.0,0.93089778500007,,,,,sub-232,1,stroop_test,64.80769886955149,
,,,,103.0,7.0,8.0,,,,,,,,,,,,,blau,yellow,g,0.0,g,1.0,0.7143069950002428,,,,,,,,,,8.0,7.0,103.0,7.0,481.5343649270003,,,,,,,,,,,,,,,,,481.5232544240002,482.71824825700014,483.5162605800001,483.5030041810001,,,,,,,,,,,,,,,,,,,,,,,,,,,,,,,,,,,483.5074458130002,483.5162605800001,483.5162605800001,484.2362844540002,g,1.0,0.7143069950002428,,,,,sub-232,1,stroop_test,64.80769886955149,
,,,,104.0,8.0,8.0,,,,,,,,,,,,,blau,blue,b,1.0,b,1.0,0.8522745129998839,,,,,,,,,,8.0,8.0,104.0,5.0,484.2616607150003,,,,,,,,,,,,,,,,,484.2367193,484.5862784340002,485.3814428589999,485.3699980440001,,,,,,,,,,,,,,,,,,,,,,,,,,,,,,,,,,,485.3707858460002,485.3814428589999,485.3814428589999,486.2376393750001,b,1.0,0.8522745129998839,,,,,sub-232,1,stroop_test,64.80769886955149,
,,,,105.0,9.0,8.0,,,,,,,,,,,,,blau,blue,b,1.0,b,1.0,0.5760032490002231,,,,,,,,,,8.0,9.0,105.0,6.0,486.25134254800014,,,,,,,,,,,,,,,,,486.238079626,487.03577960300026,487.8317573459999,487.8203978460001,,,,,,,,,,,,,,,,,,,,,,,,,,,,,,,,,,,487.8211842569999,487.8317573459999,487.8317573459999,488.41742074600006,b,1.0,0.5760032490002231,,,,,sub-232,1,stroop_test,64.80769886955149,
,,,,106.0,10.0,8.0,,,,,,,,,,,,,gelb,red,r,0.0,r,1.0,0.6817586129996016,,,,,,,,,,8.0,10.0,106.0,8.0,488.4295337520002,,,,,,,,,,,,,,,,,488.417857506,489.2115236270001,490.0072226540001,489.9956669600001,,,,,,,,,,,,,,,,,,,,,,,,,,,,,,,,,,,489.9992125449999,490.0072226540001,490.0072226540001,490.7017101900001,r,1.0,0.6817586129996016,,,,,sub-232,1,stroop_test,64.80769886955149,
,,,,107.0,11.0,8.0,,,,,,,,,,,,,rot,yellow,g,0.0,g,1.0,0.59027532600021,,,,,,,,,,8.0,11.0,107.0,3.0,490.71300851800015,,,,,,,,,,,,,,,,,490.702176112,491.906982299,492.7084371220003,492.6967904500002,,,,,,,,,,,,,,,,,,,,,,,,,,,,,,,,,,,492.69928792200017,492.7084371220003,492.7084371220003,493.3028141969999,g,1.0,0.59027532600021,,,,,sub-232,1,stroop_test,64.80769886955149,
,,,,108.0,0.0,9.0,,,,,,,,,,,,,gelb,yellow,g,1.0,g,1.0,0.6433674609997979,,,,,,,,,,9.0,0.0,108.0,10.0,493.3115656340001,,,,,,,,,,,,,,,,,493.3031348029999,493.650586665,494.4490306890002,494.43635366800027,,,,,,,,,,,,,,,,,,,,,,,,,,,,,,,,,,,494.44048681999993,494.4490306890002,494.4490306890002,495.1028878729999,g,1.0,0.6433674609997979,,,,,sub-232,1,stroop_test,64.80769886955149,
,,,,109.0,1.0,9.0,,,,,,,,,,,,,blau,yellow,g,0.0,g,1.0,0.5064463500002603,,,,,,,,,,9.0,1.0,109.0,7.0,495.1281550429999,,,,,,,,,,,,,,,,,495.1033304540001,495.902412678,496.7007139319999,496.686634787,,,,,,,,,,,,,,,,,,,,,,,,,,,,,,,,,,,496.691347896,496.7007139319999,496.7007139319999,497.2188887980001,g,1.0,0.5064463500002603,,,,,sub-232,1,stroop_test,64.80769886955149,
,,,,110.0,2.0,9.0,,,,,,,,,,,,,rot,blue,b,0.0,b,1.0,1.1240727809999953,,,,,,,,,,9.0,2.0,110.0,2.0,497.2292381110001,,,,,,,,,,,,,,,,,497.21932766200007,498.4170868240003,499.22148348200017,499.20612096600007,,,,,,,,,,,,,,,,,,,,,,,,,,,,,,,,,,,499.21125126000015,499.22148348200017,499.22148348200017,500.3529696300002,b,1.0,1.1240727809999953,,,,,sub-232,1,stroop_test,64.80769886955149,
,,,,111.0,3.0,9.0,,,,,,,,,,,,,blau,blue,b,1.0,b,1.0,0.5735773330002303,,,,,,,,,,9.0,3.0,111.0,5.0,500.36649893,,,,,,,,,,,,,,,,,500.35340744,501.5495435040002,502.343081386,502.33413761500015,,,,,,,,,,,,,,,,,,,,,,,,,,,,,,,,,,,502.3363959839999,502.343081386,502.343081386,502.9188852890002,b,1.0,0.5735773330002303,,,,,sub-232,1,stroop_test,64.80769886955149,
,,,,112.0,4.0,9.0,,,,,,,,,,,,,gelb,blue,b,0.0,b,1.0,0.6541313109996736,,,,,,,,,,9.0,4.0,112.0,9.0,502.92733441200016,,,,,,,,,,,,,,,,,502.91921278400014,503.7162902989999,504.5113468459999,504.50081859400007,,,,,,,,,,,,,,,,,,,,,,,,,,,,,,,,,,,504.5037013010001,504.5113468459999,504.5113468459999,505.169420492,b,1.0,0.6541313109996736,,,,,sub-232,1,stroop_test,64.80769886955149,
,,,,113.0,5.0,9.0,,,,,,,,,,,,,blau,blue,b,1.0,b,1.0,0.6385983549998855,,,,,,,,,,9.0,5.0,113.0,6.0,505.1777655380001,,,,,,,,,,,,,,,,,505.1697326980002,505.51653350100014,506.3265696870003,506.301020933,,,,,,,,,,,,,,,,,,,,,,,,,,,,,,,,,,,506.30427574500027,506.3265696870003,506.3265696870003,506.9733408780003,b,1.0,0.6385983549998855,,,,,sub-232,1,stroop_test,64.80769886955149,
,,,,114.0,6.0,9.0,,,,,,,,,,,,,rot,yellow,g,0.0,g,1.0,0.7764316279999548,,,,,,,,,,9.0,6.0,114.0,3.0,506.984318199,,,,,,,,,,,,,,,,,506.9740590050001,507.3184530510002,508.1163423640001,508.10297879100017,,,,,,,,,,,,,,,,,,,,,,,,,,,,,,,,,,,508.1076599769999,508.1163423640001,508.1163423640001,508.9034398009999,g,1.0,0.7764316279999548,,,,,sub-232,1,stroop_test,64.80769886955149,
,,,,115.0,7.0,9.0,,,,,,,,,,,,,gelb,yellow,g,1.0,g,1.0,0.8770427750000636,,,,,,,,,,9.0,7.0,115.0,11.0,508.916933855,,,,,,,,,,,,,,,,,508.9040380460001,509.7021031670001,510.4997383089999,510.4864072270002,,,,,,,,,,,,,,,,,,,,,,,,,,,,,,,,,,,510.4906809990002,510.4997383089999,510.4997383089999,511.38082513200015,g,1.0,0.8770427750000636,,,,,sub-232,1,stroop_test,64.80769886955149,
,,,,116.0,8.0,9.0,,,,,,,,,,,,,rot,red,r,1.0,r,1.0,0.6014991460001511,,,,,,,,,,9.0,8.0,116.0,0.0,511.391768121,,,,,,,,,,,,,,,,,511.3811560690001,511.7271604120001,512.5221589810003,512.5113731850001,,,,,,,,,,,,,,,,,,,,,,,,,,,,,,,,,,,512.5145597680003,512.5221589810003,512.5221589810003,513.1311570530002,r,1.0,0.6014991460001511,,,,,sub-232,1,stroop_test,64.80769886955149,
,,,,117.0,9.0,9.0,,,,,,,,,,,,,blau,red,r,0.0,r,1.0,1.3702772269998604,,,,,,,,,,9.0,9.0,117.0,4.0,513.1418217730002,,,,,,,,,,,,,,,,,513.1315607010001,513.927801887,514.7261776370001,514.7125598370003,,,,,,,,,,,,,,,,,,,,,,,,,,,,,,,,,,,514.7177735730002,514.7261776370001,514.7261776370001,516.1121918960002,r,1.0,1.3702772269998604,,,,,sub-232,1,stroop_test,64.80769886955149,
,,,,118.0,10.0,9.0,,,,,,,,,,,,,gelb,red,r,0.0,r,1.0,0.6715086019999035,,,,,,,,,,9.0,10.0,118.0,8.0,516.120914914,,,,,,,,,,,,,,,,,516.1126714760003,517.3109501540002,518.108811732,518.0956693010003,,,,,,,,,,,,,,,,,,,,,,,,,,,,,,,,,,,518.1001593619999,518.108811732,518.108811732,518.791992424,r,1.0,0.6715086019999035,,,,,sub-232,1,stroop_test,64.80769886955149,
,,,,119.0,11.0,9.0,,,,,,,,,,,,,rot,red,r,1.0,r,1.0,0.5020696629999293,,,,,,,,,,9.0,11.0,119.0,1.0,518.8040918209999,,,,,,,,,,,,,,,,,518.792637512,519.1359709500002,519.9339807260003,519.9202294930001,,,,,,,,,,,,,,,,,,,,,,,,,,,,,,,,,,,519.9250095850002,519.9339807260003,519.9339807260003,520.4416063620001,r,1.0,0.5020696629999293,,,,,sub-232,1,stroop_test,64.80769886955149,
,,,,,,,,,,,,,,,,,,,,,,,,,,,,,,,,,,,,,,,,,,,,,,,,,,,,,,,,,,,,,,,,,,,,,,,,,,,,,,,,,,,,,,,,,,,,,,,,,,,,,,520.44183527,520.45549506,525.444322715,sub-232,1,stroop_test,64.80769886955149,
