direction,corrAns,thisN,thisTrialN,thisRepN,respDots.keys,respDots.corr,respDots.rt,respDots.duration,randomInstr,respRandomInstr.keys,respRandomInstr.rt,respRandomInstr.duration,practice_trials.thisRepN,practice_trials.thisTrialN,practice_trials.thisN,practice_trials.thisIndex,instr_trials.thisRepN,instr_trials.thisTrialN,instr_trials.thisN,instr_trials.thisIndex,test_trials.thisRepN,test_trials.thisTrialN,test_trials.thisN,test_trials.thisIndex,thisRow.t,notes,general_instruction.started,textGeneralInstr.started,respGeneralInstr.started,general_instruction.stopped,respGeneralInstr.keys,respGeneralInstr.rt,respGeneralInstr.duration,ITI.started,fixcross.started,fixcross.stopped,ITI.stopped,dots.started,backgroundDots.started,stimulusDots.started,respDots.started,dots.stopped,practice_trials.respDots.keys,practice_trials.respDots.corr,practice_trials.respDots.rt,practice_trials.respDots.duration,feedback.started,textFeedback.started,feedback.stopped,textFeedback.stopped,info.started,textInfo.started,keyRespInfo.started,info.stopped,keyRespInfo.keys,keyRespInfo.rt,keyRespInfo.duration,test_instruction.started,textTestInstr.started,respTestInstr.started,test_instruction.stopped,respTestInstr.keys,respTestInstr.rt,respTestInstr.duration,random_instruction.started,textRandomInstr.started,respRandomInstr.started,random_instruction.stopped,instr_trials.respRandomInstr.keys,instr_trials.respRandomInstr.rt,instr_trials.respRandomInstr.duration,test_trials.respDots.keys,test_trials.respDots.corr,test_trials.respDots.rt,test_trials.respDots.duration,goodbye.started,textGoodbye.started,textGoodbye.stopped,goodbye.stopped,participant,session,expName,frameRate,Unnamed: 87
,,,,,,,,,,,,,,,,,,,,,,,,,,,0.0113574159986455,0.0204911659966455,0.0204911659966455,37.67716266599746,space,37.649034959002165,,,,,,,,,,,,,,,,,,,,,,,,,,,,,,,,,,,,,,,,,,,,,,,,sub-163,1,random_dot,119.66923375674004,
right,right,0.0,0.0,0.0,right,1.0,3.538691166002536,,,,,,0.0,0.0,0.0,1.0,,,,,,,,,37.72742266600108,,,,,,,,,37.70908545800194,38.484854165995785,39.29365308299748,39.26938800000062,39.26998895799625,39.29365308299748,39.29365308299748,39.29365308299748,42.83672583299631,right,1.0,3.538691166002536,,42.84470754100039,42.8580905830022,43.34189604099811,,,,,,,,,,,,,,,,,,,,,,,,,,,,,,,sub-163,1,random_dot,119.66923375674004,
left,left,1.0,1.0,0.0,left,1.0,2.0699388749999343,,,,,,0.0,1.0,1.0,0.0,,,,,,,,,43.35231362500053,,,,,,,,,43.34237095800199,43.68558450000273,44.47811499999807,44.46955295799853,44.47003612499975,44.47811499999807,44.47811499999807,44.47811499999807,46.55381395800214,left,1.0,2.0699388749999343,,46.55393470799754,46.56284979100019,47.05318149999948,47.059101790997374,,,,,,,,,,,,,,,,,,,,,,,,,,,,,,sub-163,1,random_dot,119.66923375674004,
right,right,2.0,0.0,1.0,right,1.0,2.995587290999538,,,,,,1.0,0.0,2.0,1.0,,,,,,,,,47.059101790997374,,,,,,,,,47.05363904099795,47.85226604100171,48.64421354099613,48.63623183299933,48.63669395799661,48.64421354099613,48.64421354099613,48.64421354099613,51.64430212500156,right,1.0,2.995587290999538,,51.64441033299954,51.66870912499871,52.15235904099973,,,,,,,,,,,,,,,,,,,,,,,,,,,,,,,sub-163,1,random_dot,119.66923375674004,
left,left,3.0,1.0,1.0,left,1.0,2.351585666998289,,,,,,1.0,1.0,3.0,0.0,,,,,,,,,52.15852354100207,,,,,,,,,52.15283787500084,53.3422622500002,54.135306208001566,54.12602170799801,54.12652212499961,54.135306208001566,54.135306208001566,54.135306208001566,56.493933040997945,left,1.0,2.351585666998289,,56.49404662499728,56.50208854099765,56.986427875002846,56.99235891600256,,,,,,,,,,,,,,,,,,,,,,,,,,,,,,sub-163,1,random_dot,119.66923375674004,
left,left,4.0,0.0,2.0,right,0.0,2.7361180000007157,,,,,,2.0,0.0,4.0,0.0,,,,,,,,,56.99235891600256,,,,,,,,,56.986888040999474,57.79208833300072,58.58526908299973,58.5752638749982,58.57573391599726,58.58526908299973,58.58526908299973,58.58526908299973,61.32750875000056,right,0.0,2.7361180000007157,,61.333470290999685,61.34181725000235,61.82497308299935,61.83599095799582,,,,,,,,,,,,,,,,,,,,,,,,,,,,,,sub-163,1,random_dot,119.66923375674004,
right,right,5.0,1.0,2.0,right,1.0,1.082514917005028,,,,,,2.0,1.0,5.0,1.0,,,,,,,,,61.83599095799582,,,,,,,,,61.8253751250013,62.17622504100291,62.978164000000106,62.96988366600272,62.9703753329959,62.978164000000106,62.978164000000106,62.978164000000106,64.0706837079997,right,1.0,1.082514917005028,,64.0738447909971,64.08353250000073,64.56965037500049,64.57531654099876,,,,,,,,,,,,,,,,,,,,,,,,,,,,,,sub-163,1,random_dot,119.66923375674004,
left,left,6.0,0.0,3.0,left,1.0,2.350262083004054,,,,,,3.0,0.0,6.0,0.0,,,,,,,,,64.57531654099876,,,,,,,,,64.57003954100219,64.91939679099596,65.71138687500206,65.7033046659999,65.70377108299726,65.71138687500206,65.71138687500206,65.71138687500206,68.07056758299586,left,1.0,2.350262083004054,,68.07068758300011,68.07935704100237,68.5701978329962,68.57607441599976,,,,,,,,,,,,,,,,,,,,,,,,,,,,,,sub-163,1,random_dot,119.66923375674004,
right,right,7.0,1.0,3.0,right,1.0,2.834902583002986,,,,,,3.0,1.0,7.0,1.0,,,,,,,,,68.57607441599976,,,,,,,,,68.57064341600199,68.66951541599701,69.46193095800118,69.45338054100284,69.45389191599679,69.46193095800118,69.46193095800118,69.46193095800118,72.30356941599894,right,1.0,2.834902583002986,,72.3036830830024,72.31212570799835,72.80369566599984,72.80970274999709,,,,,,,,,,,,,,,,,,,,,,,,,,,,,,sub-163,1,random_dot,119.66923375674004,
left,left,8.0,0.0,4.0,right,0.0,2.037333084001148,,,,,,4.0,0.0,8.0,0.0,,,,,,,,,72.80970274999709,,,,,,,,,72.80414654099877,72.89272429099947,73.6858066249988,73.67637566600024,73.67681774999801,73.6858066249988,73.6858066249988,73.6858066249988,75.72792141600075,right,0.0,2.037333084001148,,75.7310469160002,75.73978129099851,76.22502012499899,76.23647595800139,,,,,,,,,,,,,,,,,,,,,,,,,,,,,,sub-163,1,random_dot,119.66923375674004,
right,right,9.0,1.0,4.0,right,1.0,1.1132100839968189,,,,,,4.0,1.0,9.0,1.0,,,,,,,,,76.23647595800139,,,,,,,,,76.22540883300098,76.32603550000204,77.12842304100195,77.12030345799576,77.12076966599852,77.12842304100195,77.12842304100195,77.12842304100195,78.24447045799752,right,1.0,1.1132100839968189,,78.24758470799861,78.25592399999732,78.74228808299813,78.752777624999,,,,,,,,,,,,,,,,,,,,,,,,,,,,,,sub-163,1,random_dot,119.66923375674004,
left,left,10.0,0.0,5.0,left,1.0,3.340078041997913,,,,,,5.0,0.0,10.0,0.0,,,,,,,,,78.752777624999,,,,,,,,,78.74278104100085,79.94271024999762,80.73494945799757,80.7268849999964,80.72739337499661,80.73494945799757,80.73494945799757,80.73494945799757,84.07773608299613,left,1.0,3.340078041997913,,84.07785475000128,84.08604670799832,84.57044241599942,84.57641737499944,,,,,,,,,,,,,,,,,,,,,,,,,,,,,,sub-163,1,random_dot,119.66923375674004,
right,right,11.0,1.0,5.0,right,1.0,1.6516538330033654,,,,,,5.0,1.0,11.0,1.0,,,,,,,,,84.57641737499944,,,,,,,,,84.57089033300144,85.77518595800211,86.56917441599944,86.55887991599593,86.55934562499897,86.56917441599944,86.56917441599944,86.56917441599944,88.22802750000119,right,1.0,1.6516538330033654,,88.2281416659971,88.23644970799796,88.72026154099876,88.72611991599842,,,,,,,,,,,,,,,,,,,,,,,,,,,,,,sub-163,1,random_dot,119.66923375674004,
right,right,12.0,0.0,6.0,right,1.0,2.013579916994786,,,,,,6.0,0.0,12.0,1.0,,,,,,,,,88.72611991599842,,,,,,,,,88.72069716599799,88.82650450000074,89.61930216600012,89.61005412499799,89.61052166599984,89.61930216600012,89.61930216600012,89.61930216600012,91.63794824999786,right,1.0,2.013579916994786,,91.63806745799955,91.64633933299774,92.13704229099676,92.14290004099894,,,,,,,,,,,,,,,,,,,,,,,,,,,,,,sub-163,1,random_dot,119.66923375674004,
left,left,13.0,1.0,6.0,left,1.0,2.061788457998773,,,,,,6.0,1.0,13.0,0.0,,,,,,,,,92.14290004099894,,,,,,,,,92.13743195799908,92.48660079100227,93.27860900000088,93.27052554099646,93.27097841599608,93.27860900000088,93.27860900000088,93.27860900000088,95.34489875000143,left,1.0,2.061788457998773,,95.34500991599634,95.35303687499982,95.8371759579968,95.8431087909994,,,,,,,,,,,,,,,,,,,,,,,,,,,,,,sub-163,1,random_dot,119.66923375674004,
right,right,14.0,0.0,7.0,left,0.0,2.4223157500018715,,,,,,7.0,0.0,14.0,1.0,,,,,,,,,95.8431087909994,,,,,,,,,95.83763145800184,97.04278158299712,97.8361983750001,97.8258422910003,97.82630000000064,97.8361983750001,97.8361983750001,97.8361983750001,100.26164383300056,left,0.0,2.4223157500018715,,100.26522229099646,100.27367212499666,100.7604875830002,100.76987829100108,,,,,,,,,,,,,,,,,,,,,,,,,,,,,,sub-163,1,random_dot,119.66923375674004,
left,left,15.0,1.0,7.0,left,1.0,3.435316082999634,,,,,,7.0,1.0,15.0,0.0,,,,,,,,,100.76987829100108,,,,,,,,,100.76090000000112,101.56033666599978,102.35302391600273,102.34382658299728,102.34432420800294,102.35302391600273,102.35302391600273,102.35302391600273,105.79504550000274,left,1.0,3.435316082999634,,105.798199416,105.80678287499904,106.29247020799812,106.3035361660004,,,,,,,,,,,,,,,,,,,,,,,,,,,,,,sub-163,1,random_dot,119.66923375674004,
left,left,16.0,0.0,8.0,right,0.0,1.3615573329952897,,,,,,8.0,0.0,16.0,0.0,,,,,,,,,106.3035361660004,,,,,,,,,106.29279470800248,107.09381487499924,107.89588904099946,107.88773695800046,107.8882072080014,107.89588904099946,107.89588904099946,107.89588904099946,109.26195766599994,right,0.0,1.3615573329952897,,109.2650383750006,109.27353204099929,109.76099024999712,109.77006566600176,,,,,,,,,,,,,,,,,,,,,,,,,,,,,,sub-163,1,random_dot,119.66923375674004,
right,right,17.0,1.0,8.0,right,1.0,1.6586045839940198,,,,,,8.0,1.0,17.0,1.0,,,,,,,,,109.77006566600176,,,,,,,,,109.76143704100105,110.5597498749994,111.35304399999586,111.34315945799608,111.34364387499954,111.35304399999586,111.35304399999586,111.35304399999586,113.0218123329978,right,1.0,1.6586045839940198,,113.02498187500169,113.03378670800156,113.52125912500196,113.5267250830002,,,,,,,,,,,,,,,,,,,,,,,,,,,,,,sub-163,1,random_dot,119.66923375674004,
right,right,18.0,0.0,9.0,left,0.0,3.121512375000748,,,,,,9.0,0.0,18.0,1.0,,,,,,,,,113.5267250830002,,,,,,,,,113.52169470799709,114.72052495800015,115.51242566599832,115.50432029100192,115.50479612500204,115.51242566599832,115.51242566599832,115.51242566599832,118.63825304099736,left,0.0,3.121512375000748,,118.64137820799806,118.65025274999788,119.1378168750016,119.1436009579993,,,,,,,,,,,,,,,,,,,,,,,,,,,,,,sub-163,1,random_dot,119.66923375674004,
left,left,19.0,1.0,9.0,left,1.0,1.4408676250022836,,,,,,9.0,1.0,19.0,0.0,,,,,,,,,119.1436009579993,,,,,,,,,119.13820766600112,119.48734262499784,120.2794442079976,120.2712876250007,120.27182245800212,120.2794442079976,120.2794442079976,120.2794442079976,121.72278895800264,left,1.0,1.4408676250022836,,121.72592254100164,121.73488758299936,122.22132062500168,122.22884112499742,,,,,,,,,,,,,,,,,,,,,,,,,,,,,,sub-163,1,random_dot,119.66923375674004,
,,,,,,,,,,,,,,,,,,,,,,,,,,,,,,,,,,,,,,,,,,,,,,,,,,,122.22147412499908,122.22884112499742,122.22884112499742,131.5954188329997,space,9.359865708000145,,,,,,,,,,,,,,,,,,,,,,,,sub-163,1,random_dot,119.66923375674004,
,,,,,,,,,,,,,,,,,,,,,,,,,,,,,,,,,,,,,,,,,,,,,,,,,,,,,,,,,,131.59550041599869,131.60640033300297,131.60640033300297,138.84023333300138,space,7.231182791998435,,,,,,,,,,,,,,,,,sub-163,1,random_dot,119.66923375674004,
left,left,0.0,0.0,0.0,right,0.0,0.8502686669962713,,speed,space,10.906136958001298,,,,,,0.0,0.0,0.0,1.0,0.0,0.0,0.0,0.0,149.80591316599748,,,,,,,,,149.7968372079995,150.58804945799784,151.38045162500202,151.37187737500062,151.3724532080014,151.38045162500202,151.38045162500202,151.38045162500202,152.23925683299603,,,,,,,,,,,,,,,,,,,,,,,138.8623264159978,138.87229770799604,138.87229770799604,149.78936950000207,space,10.906136958001298,,right,0.0,0.8502686669962713,,,,,,sub-163,1,random_dot,119.66923375674004,
right,right,1.0,1.0,0.0,left,0.0,1.332899708002515,,speed,space,10.906136958001298,,,,,,0.0,0.0,0.0,1.0,0.0,1.0,1.0,1.0,152.2475462079965,,,,,,,,,152.23966862499947,152.33798716599995,153.130930583,153.12195179099945,153.12253241599683,153.130930583,153.130930583,153.130930583,154.47271304100286,,,,,,,,,,,,,,,,,,,,,,,,,,,,,,left,0.0,1.332899708002515,,,,,,sub-163,1,random_dot,119.66923375674004,
right,right,2.0,0.0,1.0,right,1.0,1.033425082998292,,speed,space,10.906136958001298,,,,,,0.0,0.0,0.0,1.0,1.0,0.0,2.0,1.0,154.48133791599685,,,,,,,,,154.4731113750022,155.67125504100113,156.46366329099692,156.4554240829966,156.45595304099697,156.46366329099692,156.46366329099692,156.46366329099692,157.50578649999807,,,,,,,,,,,,,,,,,,,,,,,,,,,,,,right,1.0,1.033425082998292,,,,,,sub-163,1,random_dot,119.66923375674004,
left,left,3.0,1.0,1.0,left,1.0,1.224546792000183,,speed,space,10.906136958001298,,,,,,0.0,0.0,0.0,1.0,1.0,1.0,3.0,0.0,157.51407454100263,,,,,,,,,157.50620820799668,158.69526370799576,159.49694891599938,159.48861920800118,159.48910841599718,159.49694891599938,159.49694891599938,159.49694891599938,160.72964391599817,,,,,,,,,,,,,,,,,,,,,,,,,,,,,,left,1.0,1.224546792000183,,,,,,sub-163,1,random_dot,119.66923375674004,
right,right,4.0,0.0,2.0,left,0.0,1.948524291998183,,speed,space,10.906136958001298,,,,,,0.0,0.0,0.0,1.0,2.0,0.0,4.0,1.0,160.7383324580005,,,,,,,,,160.7300427500013,161.9280477909997,162.719918666,162.7117565410008,162.7122452909971,162.719918666,162.719918666,162.719918666,164.67265300000145,,,,,,,,,,,,,,,,,,,,,,,,,,,,,,left,0.0,1.948524291998183,,,,,,sub-163,1,random_dot,119.66923375674004,
left,left,5.0,1.0,2.0,left,1.0,1.2358437919974676,,speed,space,10.906136958001298,,,,,,0.0,0.0,0.0,1.0,2.0,1.0,5.0,0.0,164.6785374999963,,,,,,,,,164.67305833299906,165.02161258299748,165.81369262500084,165.80554758299695,165.80602429099963,165.81369262500084,165.81369262500084,165.81369262500084,167.05638729099883,,,,,,,,,,,,,,,,,,,,,,,,,,,,,,left,1.0,1.2358437919974676,,,,,,sub-163,1,random_dot,119.66923375674004,
right,right,6.0,0.0,3.0,right,1.0,1.0359030420004274,,speed,space,10.906136958001298,,,,,,0.0,0.0,0.0,1.0,3.0,0.0,6.0,1.0,167.06474974999583,,,,,,,,,167.05679216599674,168.2548230829998,169.04783224999846,169.03915816600056,169.03970370799652,169.04783224999846,169.04783224999846,169.04783224999846,170.08961029099737,,,,,,,,,,,,,,,,,,,,,,,,,,,,,,right,1.0,1.0359030420004274,,,,,,sub-163,1,random_dot,119.66923375674004,
left,left,7.0,1.0,3.0,left,1.0,1.1177173329997458,,speed,space,10.906136958001298,,,,,,0.0,0.0,0.0,1.0,3.0,1.0,7.0,0.0,170.09833600000275,,,,,,,,,170.09001904100296,170.88828720799938,171.6804817079974,171.67215012499946,171.67267883299792,171.6804817079974,171.6804817079974,171.6804817079974,172.80623650000052,,,,,,,,,,,,,,,,,,,,,,,,,,,,,,left,1.0,1.1177173329997458,,,,,,sub-163,1,random_dot,119.66923375674004,
left,left,8.0,0.0,4.0,right,0.0,0.7265835829966818,,speed,space,10.906136958001298,,,,,,0.0,0.0,0.0,1.0,4.0,0.0,8.0,0.0,172.81443891600065,,,,,,,,,172.80663887500123,173.15501683299954,173.94744695800182,173.93900854099775,173.9395525,173.94744695800182,173.94744695800182,173.94744695800182,174.6802770409995,,,,,,,,,,,,,,,,,,,,,,,,,,,,,,right,0.0,0.7265835829966818,,,,,,sub-163,1,random_dot,119.66923375674004,
right,right,9.0,1.0,4.0,right,1.0,1.4390120409952942,,speed,space,10.906136958001298,,,,,,0.0,0.0,0.0,1.0,4.0,1.0,9.0,1.0,174.6885112500022,,,,,,,,,174.6806744159985,175.02798237500247,175.82113220800238,175.81123366599786,175.81172183300075,175.82113220800238,175.82113220800238,175.82113220800238,177.263609540998,,,,,,,,,,,,,,,,,,,,,,,,,,,,,,right,1.0,1.4390120409952942,,,,,,sub-163,1,random_dot,119.66923375674004,
right,right,10.0,0.0,5.0,right,1.0,1.1236516659992049,,speed,space,10.906136958001298,,,,,,0.0,0.0,0.0,1.0,5.0,0.0,10.0,1.0,177.2720097499987,,,,,,,,,177.26401770800294,178.46185100000002,179.2537172079974,179.24574612500146,179.2462160829964,179.2537172079974,179.2537172079974,179.2537172079974,180.37986116600223,,,,,,,,,,,,,,,,,,,,,,,,,,,,,,right,1.0,1.1236516659992049,,,,,,sub-163,1,random_dot,119.66923375674004,
left,left,11.0,1.0,5.0,left,1.0,0.8719362920019194,,speed,space,10.906136958001298,,,,,,0.0,0.0,0.0,1.0,5.0,1.0,11.0,0.0,180.3879158330019,,,,,,,,,180.38027449999936,180.47845508300088,181.2703591660029,181.2623367499982,181.2628134159968,181.2703591660029,181.2703591660029,181.2703591660029,182.14679608299772,,,,,,,,,,,,,,,,,,,,,,,,,,,,,,left,1.0,0.8719362920019194,,,,,,sub-163,1,random_dot,119.66923375674004,
left,left,12.0,0.0,6.0,left,1.0,1.1724346249975497,,speed,space,10.906136958001298,,,,,,0.0,0.0,0.0,1.0,6.0,0.0,12.0,0.0,182.1547247499984,,,,,,,,,182.1471828329959,182.4951875830011,183.29714445799615,183.2890379579985,183.2895047909988,183.29714445799615,183.29714445799615,183.29714445799615,184.47295633299652,,,,,,,,,,,,,,,,,,,,,,,,,,,,,,left,1.0,1.1724346249975497,,,,,,sub-163,1,random_dot,119.66923375674004,
right,right,13.0,1.0,6.0,right,1.0,0.8404977090031025,,speed,space,10.906136958001298,,,,,,0.0,0.0,0.0,1.0,6.0,1.0,13.0,1.0,184.48110295800143,,,,,,,,,184.4733447079998,184.56181204099997,185.3646520409966,185.35620879099588,185.3568066660009,185.3646520409966,185.3646520409966,185.3646520409966,186.20732245800173,,,,,,,,,,,,,,,,,,,,,,,,,,,,,,right,1.0,0.8404977090031025,,,,,,sub-163,1,random_dot,119.66923375674004,
right,right,14.0,0.0,7.0,right,1.0,0.7256113749972428,,speed,space,10.906136958001298,,,,,,0.0,0.0,0.0,1.0,7.0,0.0,14.0,1.0,186.2133279580012,,,,,,,,,186.20772508299703,186.30485766600032,187.0973554160009,187.08918962499592,187.08972066600109,187.0973554160009,187.0973554160009,187.0973554160009,187.83021604100213,,,,,,,,,,,,,,,,,,,,,,,,,,,,,,right,1.0,0.7256113749972428,,,,,,sub-163,1,random_dot,119.66923375674004,
left,left,15.0,1.0,7.0,left,1.0,0.9690408749956988,,speed,space,10.906136958001298,,,,,,0.0,0.0,0.0,1.0,7.0,1.0,15.0,0.0,187.8385181659978,,,,,,,,,187.8306231250026,188.17843095799617,188.9807622910012,188.97283654099735,188.97333375000017,188.9807622910012,188.9807622910012,188.9807622910012,189.95673549999628,,,,,,,,,,,,,,,,,,,,,,,,,,,,,,left,1.0,0.9690408749956988,,,,,,sub-163,1,random_dot,119.66923375674004,
right,right,16.0,0.0,8.0,right,1.0,1.0102686669997638,,speed,space,10.906136958001298,,,,,,0.0,0.0,0.0,1.0,8.0,0.0,16.0,1.0,189.96500708299573,,,,,,,,,189.9571427080009,190.05515462499895,190.8472052500001,190.8392487079982,190.839713333,190.8472052500001,190.8472052500001,190.8472052500001,191.8634406659985,,,,,,,,,,,,,,,,,,,,,,,,,,,,,,right,1.0,1.0102686669997638,,,,,,sub-163,1,random_dot,119.66923375674004,
left,left,17.0,1.0,8.0,right,0.0,1.1342992080026306,,speed,space,10.906136958001298,,,,,,0.0,0.0,0.0,1.0,8.0,1.0,17.0,0.0,191.87155558299852,,,,,,,,,191.863841624996,192.2127332500022,193.00436770800297,192.9960616250028,192.99649079099615,193.00436770800297,193.00436770800297,193.00436770800297,194.140728624996,,,,,,,,,,,,,,,,,,,,,,,,,,,,,,right,0.0,1.1342992080026306,,,,,,sub-163,1,random_dot,119.66923375674004,
left,left,18.0,0.0,9.0,right,0.0,1.1622627499964435,,speed,space,10.906136958001298,,,,,,0.0,0.0,0.0,1.0,9.0,0.0,18.0,0.0,194.1465432080004,,,,,,,,,194.14113825000092,195.338565207996,196.13166945800185,196.1228350829988,196.1234326249978,196.13166945800185,196.13166945800185,196.13166945800185,197.29683816599567,,,,,,,,,,,,,,,,,,,,,,,,,,,,,,right,0.0,1.1622627499964435,,,,,,sub-163,1,random_dot,119.66923375674004,
right,right,19.0,1.0,9.0,left,0.0,0.8637182909951662,,speed,space,10.906136958001298,,,,,,0.0,0.0,0.0,1.0,9.0,1.0,19.0,1.0,197.3048944159964,,,,,,,,,197.2972327079988,198.49561866599836,199.297518833002,199.2894266250005,199.28989470800295,199.297518833002,199.297518833002,199.297518833002,200.1646079580023,,,,,,,,,,,,,,,,,,,,,,,,,,,,,,left,0.0,0.8637182909951662,,,,,,sub-163,1,random_dot,119.66923375674004,
left,left,20.0,0.0,10.0,left,1.0,0.950586958999338,,speed,space,10.906136958001298,,,,,,0.0,0.0,0.0,1.0,10.0,0.0,20.0,0.0,200.18852845799847,,,,,,,,,200.1649937499969,201.3611046660008,202.15482166600123,202.1465211659961,202.14707558300145,202.15482166600123,202.15482166600123,202.15482166600123,203.1075267499982,,,,,,,,,,,,,,,,,,,,,,,,,,,,,,left,1.0,0.950586958999338,,,,,,sub-163,1,random_dot,119.66923375674004,
right,right,21.0,1.0,10.0,right,1.0,0.6598066669976106,,speed,space,10.906136958001298,,,,,,0.0,0.0,0.0,1.0,10.0,1.0,21.0,1.0,203.11332958300045,,,,,,,,,203.10793308299617,204.30578512499775,205.097681457999,205.08956962500088,205.0900257079993,205.097681457999,205.097681457999,205.097681457999,205.76392579099772,,,,,,,,,,,,,,,,,,,,,,,,,,,,,,right,1.0,0.6598066669976106,,,,,,sub-163,1,random_dot,119.66923375674004,
right,right,22.0,0.0,11.0,right,1.0,0.9024738340012846,,speed,space,10.906136958001298,,,,,,0.0,0.0,0.0,1.0,11.0,0.0,22.0,1.0,205.7718442080004,,,,,,,,,205.76431700000103,206.1116917909967,206.9051011249976,206.8949641250001,206.8954083330027,206.9051011249976,206.9051011249976,206.9051011249976,207.8129628329989,,,,,,,,,,,,,,,,,,,,,,,,,,,,,,right,1.0,0.9024738340012846,,,,,,sub-163,1,random_dot,119.66923375674004,
left,left,23.0,1.0,11.0,right,0.0,0.8751492079973104,,speed,space,10.906136958001298,,,,,,0.0,0.0,0.0,1.0,11.0,1.0,23.0,0.0,207.82199895800292,,,,,,,,,207.81316470800084,208.16208337499847,208.9551750000028,208.9459245409962,208.94644687500116,208.9551750000028,208.9551750000028,208.9551750000028,209.84041816600077,,,,,,,,,,,,,,,,,,,,,,,,,,,,,,right,0.0,0.8751492079973104,,,,,,sub-163,1,random_dot,119.66923375674004,
right,right,24.0,0.0,12.0,left,0.0,0.9615001670026686,,speed,space,10.906136958001298,,,,,,0.0,0.0,0.0,1.0,12.0,0.0,24.0,1.0,209.84880137500292,,,,,,,,,209.8408389999968,210.1890064159961,210.98169429099653,210.97303033299977,210.97350358300173,210.98169429099653,210.98169429099653,210.98169429099653,211.94732870799635,,,,,,,,,,,,,,,,,,,,,,,,,,,,,,left,0.0,0.9615001670026686,,,,,,sub-163,1,random_dot,119.66923375674004,
left,left,25.0,1.0,12.0,right,0.0,0.8405055830007768,,speed,space,10.906136958001298,,,,,,0.0,0.0,0.0,1.0,12.0,1.0,25.0,0.0,211.95527495799612,,,,,,,,,211.94772250000096,212.7460621249993,213.53761891600152,213.52980725000089,213.5303049159993,213.53761891600152,213.53761891600152,213.53761891600152,214.38074708299973,,,,,,,,,,,,,,,,,,,,,,,,,,,,,,right,0.0,0.8405055830007768,,,,,,sub-163,1,random_dot,119.66923375674004,
left,left,26.0,0.0,13.0,right,0.0,0.9519194579988834,,speed,space,10.906136958001298,,,,,,0.0,0.0,0.0,1.0,13.0,0.0,26.0,0.0,214.38895374999996,,,,,,,,,214.3811482079982,214.47892445800244,215.27200712500053,215.2620581660012,215.26258424999835,215.27200712500053,215.27200712500053,215.27200712500053,216.231324458,,,,,,,,,,,,,,,,,,,,,,,,,,,,,,right,0.0,0.9519194579988834,,,,,,sub-163,1,random_dot,119.66923375674004,
right,right,27.0,1.0,13.0,right,1.0,1.4777042919959058,,speed,space,10.906136958001298,,,,,,0.0,0.0,0.0,1.0,13.0,1.0,27.0,1.0,216.23949804100263,,,,,,,,,216.23171991600248,217.02928016599617,217.83088183299697,217.82305816600277,217.8235292909958,217.83088183299697,217.83088183299697,217.83088183299697,219.314411708001,,,,,,,,,,,,,,,,,,,,,,,,,,,,,,right,1.0,1.4777042919959058,,,,,,sub-163,1,random_dot,119.66923375674004,
right,right,28.0,0.0,14.0,left,0.0,0.9150146669999232,,speed,space,10.906136958001298,,,,,,0.0,0.0,0.0,1.0,14.0,0.0,28.0,1.0,219.3229627499968,,,,,,,,,219.31480754099903,220.1121908749992,220.91469679099828,220.90655079099812,220.90701679099584,220.91469679099828,220.91469679099828,220.91469679099828,221.8566187079996,,,,,,,,,,,,,,,,,,,,,,,,,,,,,,left,0.0,0.9150146669999232,,,,,,sub-163,1,random_dot,119.66923375674004,
left,left,29.0,1.0,14.0,left,1.0,1.0505910829961067,,speed,space,10.906136958001298,,,,,,0.0,0.0,0.0,1.0,14.0,1.0,29.0,0.0,221.872813957998,,,,,,,,,221.85702637500071,221.94881495799928,222.74793050000156,222.74010545799683,222.74055724999928,222.74793050000156,222.74793050000156,222.74793050000156,223.80722208299997,,,,,,,,,,,,,,,,,,,,,,,,,,,,,,left,1.0,1.0505910829961067,,,,,,sub-163,1,random_dot,119.66923375674004,
right,right,30.0,0.0,15.0,left,0.0,2.2129933750038617,,speed,space,10.906136958001298,,,,,,0.0,0.0,0.0,1.0,15.0,0.0,30.0,1.0,223.81588133300104,,,,,,,,,223.80761766599608,223.9060493750003,224.6986823330008,224.6904445830005,224.69098383300295,224.6986823330008,224.6986823330008,224.6986823330008,226.9141386249976,,,,,,,,,,,,,,,,,,,,,,,,,,,,,,left,0.0,2.2129933750038617,,,,,,sub-163,1,random_dot,119.66923375674004,
left,left,31.0,1.0,15.0,right,0.0,0.7861758329963777,,speed,space,10.906136958001298,,,,,,0.0,0.0,0.0,1.0,15.0,1.0,31.0,0.0,226.9223179999972,,,,,,,,,226.91454229100052,227.0141014999972,227.815234665999,227.80701854099607,227.8075588329957,227.815234665999,227.815234665999,227.815234665999,228.6071991249992,,,,,,,,,,,,,,,,,,,,,,,,,,,,,,right,0.0,0.7861758329963777,,,,,,sub-163,1,random_dot,119.66923375674004,
right,right,32.0,0.0,16.0,right,1.0,1.0799812499972177,,speed,space,10.906136958001298,,,,,,0.0,0.0,0.0,1.0,16.0,0.0,32.0,1.0,228.61580570800288,,,,,,,,,228.60759341599623,228.94664095799817,229.73899854099727,229.7300821250028,229.73053691600217,229.73899854099727,229.73899854099727,229.73899854099727,230.82405933299745,,,,,,,,,,,,,,,,,,,,,,,,,,,,,,right,1.0,1.0799812499972177,,,,,,sub-163,1,random_dot,119.66923375674004,
left,left,33.0,1.0,16.0,left,1.0,0.9501924170035636,,speed,space,10.906136958001298,,,,,,0.0,0.0,0.0,1.0,16.0,1.0,33.0,0.0,230.8323901659969,,,,,,,,,230.82447225000212,232.0230099999972,232.81489645799596,232.80694712499823,232.8074130410023,232.81489645799596,232.81489645799596,232.81489645799596,233.7742372499997,,,,,,,,,,,,,,,,,,,,,,,,,,,,,,left,1.0,0.9501924170035636,,,,,,sub-163,1,random_dot,119.66923375674004,
left,left,34.0,0.0,17.0,left,1.0,2.394449542000075,,speed,space,10.906136958001298,,,,,,0.0,0.0,0.0,1.0,17.0,0.0,34.0,0.0,233.7823367500023,,,,,,,,,233.7746300409999,234.5730212499984,235.3656979160005,235.35715937500208,235.3576865409996,235.3656979160005,235.3656979160005,235.3656979160005,237.7647467499992,,,,,,,,,,,,,,,,,,,,,,,,,,,,,,left,1.0,2.394449542000075,,,,,,sub-163,1,random_dot,119.66923375674004,
right,right,35.0,1.0,17.0,right,1.0,1.4248572910000803,,speed,space,10.906136958001298,,,,,,0.0,0.0,0.0,1.0,17.0,1.0,35.0,1.0,237.77281550000043,,,,,,,,,237.7651470830024,238.11326454099617,238.9059129160014,238.89645883299815,238.896948540998,238.9059129160014,238.9059129160014,238.9059129160014,240.34110004099784,,,,,,,,,,,,,,,,,,,,,,,,,,,,,,right,1.0,1.4248572910000803,,,,,,sub-163,1,random_dot,119.66923375674004,
left,left,36.0,0.0,18.0,left,1.0,1.395144458998402,,speed,space,10.906136958001298,,,,,,0.0,0.0,0.0,1.0,18.0,0.0,36.0,0.0,240.34937483300016,,,,,,,,,240.3415040409964,241.13958479100256,241.93195033299708,241.9238599579985,241.9243223750018,241.93195033299708,241.93195033299708,241.93195033299708,243.3312335829978,,,,,,,,,,,,,,,,,,,,,,,,,,,,,,left,1.0,1.395144458998402,,,,,,sub-163,1,random_dot,119.66923375674004,
right,right,37.0,1.0,18.0,right,1.0,1.8823899999988496,,speed,space,10.906136958001298,,,,,,0.0,0.0,0.0,1.0,18.0,1.0,37.0,1.0,243.33923879099893,,,,,,,,,243.33163191600036,243.43255141600093,244.2321159580024,244.2239522910022,244.2244109579988,244.2321159580024,244.2321159580024,244.2321159580024,246.1245082500027,,,,,,,,,,,,,,,,,,,,,,,,,,,,,,right,1.0,1.8823899999988496,,,,,,sub-163,1,random_dot,119.66923375674004,
right,right,38.0,0.0,19.0,right,1.0,1.306354584005021,,speed,space,10.906136958001298,,,,,,0.0,0.0,0.0,1.0,19.0,0.0,38.0,1.0,246.1327392500025,,,,,,,,,246.1249085829986,246.4732260410019,247.26490208299947,247.25713274999725,247.2576191249973,247.26490208299947,247.26490208299947,247.26490208299947,248.5745405830021,,,,,,,,,,,,,,,,,,,,,,,,,,,,,,right,1.0,1.306354584005021,,,,,,sub-163,1,random_dot,119.66923375674004,
left,left,39.0,1.0,19.0,left,1.0,1.01222395899822,,speed,space,10.906136958001298,,,,,,0.0,0.0,0.0,1.0,19.0,1.0,39.0,0.0,248.5805066249959,,,,,,,,,248.57493920799607,249.77309329099808,250.56484508299764,250.55723466599736,250.55771545800235,250.56484508299764,250.56484508299764,250.56484508299764,251.5818181249997,,,,,,,,,,,,,,,,,,,,,,,,,,,,,,left,1.0,1.01222395899822,,,,,,sub-163,1,random_dot,119.66923375674004,
right,right,40.0,0.0,20.0,right,1.0,0.9536022499960382,,speed,space,10.906136958001298,,,,,,0.0,0.0,0.0,1.0,20.0,0.0,40.0,1.0,251.5903293329975,,,,,,,,,251.5823011249959,252.78024020799785,253.58259133299725,253.5743711249961,253.5749090829995,253.58259133299725,253.58259133299725,253.58259133299725,254.5412892500026,,,,,,,,,,,,,,,,,,,,,,,,,,,,,,right,1.0,0.9536022499960382,,,,,,sub-163,1,random_dot,119.66923375674004,
left,left,41.0,1.0,20.0,left,1.0,1.038613582997641,,speed,space,10.906136958001298,,,,,,0.0,0.0,0.0,1.0,20.0,1.0,41.0,0.0,254.54966625000088,,,,,,,,,254.5417060830005,254.64007100000163,255.43222758299817,255.42407495799853,255.4245412079981,255.43222758299817,255.43222758299817,255.43222758299817,256.4746812500016,,,,,,,,,,,,,,,,,,,,,,,,,,,,,,left,1.0,1.038613582997641,,,,,,sub-163,1,random_dot,119.66923375674004,
right,right,42.0,0.0,21.0,right,1.0,1.258079833998636,,speed,space,10.906136958001298,,,,,,0.0,0.0,0.0,1.0,21.0,0.0,42.0,1.0,256.4807151249988,,,,,,,,,256.4750849159973,256.82349916599924,257.6151420000024,257.6070951660004,257.6075646660029,257.6151420000024,257.6151420000024,257.6151420000024,258.8752718329997,,,,,,,,,,,,,,,,,,,,,,,,,,,,,,right,1.0,1.258079833998636,,,,,,sub-163,1,random_dot,119.66923375674004,
left,left,43.0,1.0,21.0,left,1.0,2.275643790999311,,speed,space,10.906136958001298,,,,,,0.0,0.0,0.0,1.0,21.0,1.0,43.0,0.0,258.88104374999966,,,,,,,,,258.8756767910017,259.2235642500018,260.0158170829964,260.0076041249995,260.0081464159957,260.0158170829964,260.0158170829964,260.0158170829964,262.2984614160014,,,,,,,,,,,,,,,,,,,,,,,,,,,,,,left,1.0,2.275643790999311,,,,,,sub-163,1,random_dot,119.66923375674004,
right,right,44.0,0.0,22.0,left,0.0,1.5667694169969764,,speed,space,10.906136958001298,,,,,,0.0,0.0,0.0,1.0,22.0,0.0,44.0,1.0,262.3072876660008,,,,,,,,,262.29885966599977,262.395769540999,263.18964679099736,263.179426374998,263.17988387499645,263.18964679099736,263.18964679099736,263.18964679099736,264.7583694999994,,,,,,,,,,,,,,,,,,,,,,,,,,,,,,left,0.0,1.5667694169969764,,,,,,sub-163,1,random_dot,119.66923375674004,
left,left,45.0,1.0,22.0,right,0.0,1.4601657919993158,,speed,space,10.906136958001298,,,,,,0.0,0.0,0.0,1.0,22.0,1.0,45.0,0.0,264.76405679099844,,,,,,,,,264.7587916659977,264.85706537499937,265.6488639160016,265.6408182910018,265.6412795829965,265.6488639160016,265.6488639160016,265.6488639160016,267.11622120800166,,,,,,,,,,,,,,,,,,,,,,,,,,,,,,right,0.0,1.4601657919993158,,,,,,sub-163,1,random_dot,119.66923375674004,
right,right,46.0,0.0,23.0,right,1.0,0.8254176249974989,,speed,space,10.906136958001298,,,,,,0.0,0.0,0.0,1.0,23.0,0.0,46.0,1.0,267.13997137499973,,,,,,,,,267.1166282080012,267.4635570000028,268.26516883300064,268.2575784579967,268.258040875,268.26516883300064,268.26516883300064,268.26516883300064,269.09861783299857,,,,,,,,,,,,,,,,,,,,,,,,,,,,,,right,1.0,0.8254176249974989,,,,,,sub-163,1,random_dot,119.66923375674004,
left,left,47.0,1.0,23.0,left,1.0,0.725585250002041,,speed,space,10.906136958001298,,,,,,0.0,0.0,0.0,1.0,23.0,1.0,47.0,0.0,269.10706512499746,,,,,,,,,269.0990073329958,269.89677241600293,270.699427790998,270.691213332997,270.691665665996,270.699427790998,270.699427790998,270.699427790998,271.4321623329961,,,,,,,,,,,,,,,,,,,,,,,,,,,,,,left,1.0,0.725585250002041,,,,,,sub-163,1,random_dot,119.66923375674004,
right,right,48.0,0.0,24.0,right,1.0,1.3780604999992647,,speed,space,10.906136958001298,,,,,,0.0,0.0,0.0,1.0,24.0,0.0,48.0,1.0,271.4402262079966,,,,,,,,,271.43255279099685,272.23051341599785,273.0226145409979,273.01405979099945,273.01460341599886,273.0226145409979,273.0226145409979,273.0226145409979,274.40827354099747,,,,,,,,,,,,,,,,,,,,,,,,,,,,,,right,1.0,1.3780604999992647,,,,,,sub-163,1,random_dot,119.66923375674004,
left,left,49.0,1.0,24.0,left,1.0,0.7622234160007793,,speed,space,10.906136958001298,,,,,,0.0,0.0,0.0,1.0,24.0,1.0,49.0,0.0,274.416555374999,,,,,,,,,274.40871224999864,274.7572755829969,275.5490359999967,275.54091037499893,275.54144720800105,275.5490359999967,275.5490359999967,275.5490359999967,276.3155314999967,,,,,,,,,,,,,,,,,,,,,,,,,,,,,,left,1.0,0.7622234160007793,,,,,,sub-163,1,random_dot,119.66923375674004,
left,left,50.0,0.0,25.0,right,0.0,1.8997611660015536,,speed,space,10.906136958001298,,,,,,0.0,0.0,0.0,1.0,25.0,0.0,50.0,0.0,276.3237415830008,,,,,,,,,276.3159302499989,276.4165737500007,277.21616054100014,277.2079434580009,277.2084203330014,277.21616054100014,277.21616054100014,277.21616054100014,279.1253456659979,,,,,,,,,,,,,,,,,,,,,,,,,,,,,,right,0.0,1.8997611660015536,,,,,,sub-163,1,random_dot,119.66923375674004,
right,right,51.0,1.0,25.0,left,0.0,0.9963607919999048,,speed,space,10.906136958001298,,,,,,0.0,0.0,0.0,1.0,25.0,1.0,51.0,1.0,279.13356254099926,,,,,,,,,279.1257558750003,279.9240710829981,280.71598220799933,280.7079258750018,280.7083902079976,280.71598220799933,280.71598220799933,280.71598220799933,281.7154387080009,,,,,,,,,,,,,,,,,,,,,,,,,,,,,,left,0.0,0.9963607919999048,,,,,,sub-163,1,random_dot,119.66923375674004,
left,left,52.0,0.0,26.0,left,1.0,1.038053124997532,,speed,space,10.906136958001298,,,,,,0.0,0.0,0.0,1.0,26.0,0.0,52.0,0.0,281.72349204099737,,,,,,,,,281.7158216250027,282.51372791599715,283.31591916600155,283.30781845800084,283.30828929100244,283.31591916600155,283.31591916600155,283.31591916600155,284.358494125001,,,,,,,,,,,,,,,,,,,,,,,,,,,,,,left,1.0,1.038053124997532,,,,,,sub-163,1,random_dot,119.66923375674004,
right,right,53.0,1.0,26.0,right,1.0,0.7825085829972522,,speed,space,10.906136958001298,,,,,,0.0,0.0,0.0,1.0,26.0,1.0,53.0,1.0,284.36703479100106,,,,,,,,,284.35887762499624,285.1575870829984,285.94961808300286,285.94133512499684,285.9417935829988,285.94961808300286,285.94961808300286,285.94961808300286,286.74215600000025,,,,,,,,,,,,,,,,,,,,,,,,,,,,,,right,1.0,0.7825085829972522,,,,,,sub-163,1,random_dot,119.66923375674004,
left,left,54.0,0.0,27.0,left,1.0,0.9322422499972164,,speed,space,10.906136958001298,,,,,,0.0,0.0,0.0,1.0,27.0,0.0,54.0,0.0,286.7503482079992,,,,,,,,,286.7425514159986,287.5407972499961,288.3324378749967,288.324605916001,288.3250803749979,288.3324378749967,288.3324378749967,288.3324378749967,289.27539233300195,,,,,,,,,,,,,,,,,,,,,,,,,,,,,,left,1.0,0.9322422499972164,,,,,,sub-163,1,random_dot,119.66923375674004,
right,right,55.0,1.0,27.0,right,1.0,1.2153163330003736,,speed,space,10.906136958001298,,,,,,0.0,0.0,0.0,1.0,27.0,1.0,55.0,1.0,289.2837302909975,,,,,,,,,289.2757977500005,290.07401162500173,290.8664219580023,290.8582059580003,290.85869212500256,290.8664219580023,290.8664219580023,290.8664219580023,292.0923401249965,,,,,,,,,,,,,,,,,,,,,,,,,,,,,,right,1.0,1.2153163330003736,,,,,,sub-163,1,random_dot,119.66923375674004,
right,right,56.0,0.0,28.0,left,0.0,1.759272957999201,,speed,space,10.906136958001298,,,,,,0.0,0.0,0.0,1.0,28.0,0.0,56.0,1.0,292.1007409579979,,,,,,,,,292.09274541599734,292.19083204100025,292.9833424160024,292.97487379099766,292.9753861659992,292.9833424160024,292.9833424160024,292.9833424160024,294.7490289580019,,,,,,,,,,,,,,,,,,,,,,,,,,,,,,left,0.0,1.759272957999201,,,,,,sub-163,1,random_dot,119.66923375674004,
left,left,57.0,1.0,28.0,left,1.0,1.013441540999338,,speed,space,10.906136958001298,,,,,,0.0,0.0,0.0,1.0,28.0,1.0,57.0,0.0,294.7570318329963,,,,,,,,,294.7494187909979,295.94790824999654,296.749727082999,296.7416168749987,296.74209004099976,296.749727082999,296.749727082999,296.749727082999,297.7658212910028,,,,,,,,,,,,,,,,,,,,,,,,,,,,,,left,1.0,1.013441540999338,,,,,,sub-163,1,random_dot,119.66923375674004,
right,right,58.0,0.0,29.0,right,1.0,1.1102022089980892,,speed,space,10.906136958001298,,,,,,0.0,0.0,0.0,1.0,29.0,0.0,58.0,1.0,297.77384408299986,,,,,,,,,297.7662088329962,297.86665945799905,298.66664845799824,298.6584119159961,298.658935790998,298.66664845799824,298.66664845799824,298.66664845799824,299.7826349160023,,,,,,,,,,,,,,,,,,,,,,,,,,,,,,right,1.0,1.1102022089980892,,,,,,sub-163,1,random_dot,119.66923375674004,
left,left,59.0,1.0,29.0,left,1.0,1.243872208004177,,speed,space,10.906136958001298,,,,,,0.0,0.0,0.0,1.0,29.0,1.0,59.0,0.0,299.7907574580022,,,,,,,,,299.7830218750023,300.98105499999656,301.77315712499694,301.76491250000254,301.76541262499813,301.77315712499694,301.77315712499694,301.77315712499694,303.02586991599674,,,,,,,,,,,,,,,,,,,,,,,,,,,,,,left,1.0,1.243872208004177,,,,,,sub-163,1,random_dot,119.66923375674004,
,,0.0,0.0,0.0,,,,,speed,space,10.906136958001298,,,,,,0.0,0.0,0.0,1.0,,,,,,,,,,,,,,,,,,,,,,,,,,,,,,,,,,,,,,,,,,,,,,,,,,,,,,,,,,,,sub-163,1,random_dot,119.66923375674004,
left,left,0.0,0.0,0.0,left,1.0,2.6521104580024257,,accuracy,space,14.395717540995976,,,,,,0.0,1.0,1.0,0.0,0.0,0.0,0.0,0.0,317.4775166659965,,,,,,,,,317.468698208002,318.6578103329957,319.4496365410014,319.4418233329998,319.44230524999875,319.4496365410014,319.4496365410014,319.4496365410014,322.10947083299834,,,,,,,,,,,,,,,,,,,,,,,303.0447594159996,303.0526984579992,303.0526984579992,317.45969370799867,space,14.395717540995976,,left,1.0,2.6521104580024257,,,,,,sub-163,1,random_dot,119.66923375674004,
right,right,1.0,1.0,0.0,right,1.0,1.213344916002825,,accuracy,space,14.395717540995976,,,,,,0.0,1.0,1.0,0.0,0.0,1.0,1.0,1.0,322.1177548330015,,,,,,,,,322.1098696659974,322.4580174579969,323.2501829160028,323.2420639159973,323.2425423750028,323.2501829160028,323.2501829160028,323.2501829160028,324.46619854099845,,,,,,,,,,,,,,,,,,,,,,,,,,,,,,right,1.0,1.213344916002825,,,,,,sub-163,1,random_dot,119.66923375674004,
left,left,2.0,0.0,1.0,right,0.0,1.9469167499992184,,accuracy,space,14.395717540995976,,,,,,0.0,1.0,1.0,0.0,1.0,0.0,2.0,0.0,324.4745435829973,,,,,,,,,324.46659245799674,324.8149972079991,325.61643112499587,325.60877595799684,325.60924412500026,325.61643112499587,325.61643112499587,325.61643112499587,327.56681487499736,,,,,,,,,,,,,,,,,,,,,,,,,,,,,,right,0.0,1.9469167499992184,,,,,,sub-163,1,random_dot,119.66923375674004,
right,right,3.0,1.0,1.0,right,1.0,2.233652458002325,,accuracy,space,14.395717540995976,,,,,,0.0,1.0,1.0,0.0,1.0,1.0,3.0,1.0,327.5747110000011,,,,,,,,,327.5672037909972,328.3652250000014,329.1671821249984,329.15909916599776,329.1595479579992,329.1671821249984,329.1671821249984,329.1671821249984,331.4095075829973,,,,,,,,,,,,,,,,,,,,,,,,,,,,,,right,1.0,2.233652458002325,,,,,,sub-163,1,random_dot,119.66923375674004,
left,left,4.0,0.0,2.0,left,1.0,2.705063375004101,,accuracy,space,14.395717540995976,,,,,,0.0,1.0,1.0,0.0,2.0,0.0,4.0,0.0,331.4178658329984,,,,,,,,,331.4099100000021,331.5081027080014,332.3006516660025,332.2924461250004,332.2929502499974,332.3006516660025,332.3006516660025,332.3006516660025,335.0096407910023,,,,,,,,,,,,,,,,,,,,,,,,,,,,,,left,1.0,2.705063375004101,,,,,,sub-163,1,random_dot,119.66923375674004,
right,right,5.0,1.0,2.0,right,1.0,3.047698250004032,,accuracy,space,14.395717540995976,,,,,,0.0,1.0,1.0,0.0,2.0,1.0,5.0,1.0,335.0178217499997,,,,,,,,,335.01004820800154,335.1082357080013,335.9002534999963,335.8923479579971,335.89281024999946,335.9002534999963,335.9002534999963,335.9002534999963,338.9503194580029,,,,,,,,,,,,,,,,,,,,,,,,,,,,,,right,1.0,3.047698250004032,,,,,,sub-163,1,random_dot,119.66923375674004,
left,left,6.0,0.0,3.0,left,1.0,1.824282917004893,,accuracy,space,14.395717540995976,,,,,,0.0,1.0,1.0,0.0,3.0,0.0,6.0,0.0,338.95829624999897,,,,,,,,,338.95071908299724,339.29834916599793,340.1008869579964,340.0926885000008,340.0931492910022,340.1008869579964,340.1008869579964,340.1008869579964,341.92744762499933,,,,,,,,,,,,,,,,,,,,,,,,,,,,,,left,1.0,1.824282917004893,,,,,,sub-163,1,random_dot,119.66923375674004,
right,right,7.0,1.0,3.0,left,0.0,3.116437333999784,,accuracy,space,14.395717540995976,,,,,,0.0,1.0,1.0,0.0,3.0,1.0,7.0,1.0,341.933531415998,,,,,,,,,341.9278485409959,342.72509983299824,343.5174477499968,343.5092839159988,343.5097845830024,343.5174477499968,343.5174477499968,343.5174477499968,346.6432647909969,,,,,,,,,,,,,,,,,,,,,,,,,,,,,,left,0.0,3.116437333999784,,,,,,sub-163,1,random_dot,119.66923375674004,
right,right,8.0,0.0,4.0,right,1.0,1.490603457998077,,accuracy,space,14.395717540995976,,,,,,0.0,1.0,1.0,0.0,4.0,0.0,8.0,1.0,346.6515662500024,,,,,,,,,346.64367295800184,347.4421149159971,348.23468037499697,348.22615295799915,348.2266673749982,348.23468037499697,348.23468037499697,348.23468037499697,349.72731866600225,,,,,,,,,,,,,,,,,,,,,,,,,,,,,,right,1.0,1.490603457998077,,,,,,sub-163,1,random_dot,119.66923375674004,
left,left,9.0,1.0,4.0,left,1.0,2.324860125001578,,accuracy,space,14.395717540995976,,,,,,0.0,1.0,1.0,0.0,4.0,1.0,9.0,0.0,349.7353333330029,,,,,,,,,349.7277368750001,350.07557237499714,350.8673776659998,350.8593299159984,350.8597880829984,350.8673776659998,350.8673776659998,350.8673776659998,353.2012519580021,,,,,,,,,,,,,,,,,,,,,,,,,,,,,,left,1.0,2.324860125001578,,,,,,sub-163,1,random_dot,119.66923375674004,
right,right,10.0,0.0,5.0,right,1.0,2.019324583001435,,accuracy,space,14.395717540995976,,,,,,0.0,1.0,1.0,0.0,5.0,0.0,10.0,1.0,353.2250034999961,,,,,,,,,353.2016415830003,354.3989157499964,355.2011918749995,355.19307675000164,355.19354237499647,355.2011918749995,355.2011918749995,355.2011918749995,357.2269483330019,,,,,,,,,,,,,,,,,,,,,,,,,,,,,,right,1.0,2.019324583001435,,,,,,sub-163,1,random_dot,119.66923375674004,
left,left,11.0,1.0,5.0,left,1.0,2.742866499997035,,accuracy,space,14.395717540995976,,,,,,0.0,1.0,1.0,0.0,5.0,1.0,11.0,0.0,357.2353129159965,,,,,,,,,357.2273408330002,357.32535629099584,358.118184125,358.10961987500195,358.110138582997,358.118184125,358.118184125,358.118184125,360.86706995799614,,,,,,,,,,,,,,,,,,,,,,,,,,,,,,left,1.0,2.742866499997035,,,,,,sub-163,1,random_dot,119.66923375674004,
left,left,12.0,0.0,6.0,left,1.0,2.458684750003158,,accuracy,space,14.395717540995976,,,,,,0.0,1.0,1.0,0.0,6.0,0.0,12.0,0.0,360.8752914159995,,,,,,,,,360.8674761250004,360.9655443329975,361.7676426249964,361.7596152909973,361.76008095799625,361.7676426249964,361.7676426249964,361.7676426249964,364.2336254159964,,,,,,,,,,,,,,,,,,,,,,,,,,,,,,left,1.0,2.458684750003158,,,,,,sub-163,1,random_dot,119.66923375674004,
right,right,13.0,1.0,6.0,right,1.0,1.612669583002571,,accuracy,space,14.395717540995976,,,,,,0.0,1.0,1.0,0.0,6.0,1.0,13.0,1.0,364.2419270000028,,,,,,,,,364.2340154999984,364.3315308329984,365.1252005409988,365.1162479580016,365.11669883300056,365.1252005409988,365.1252005409988,365.1252005409988,366.74375770799816,,,,,,,,,,,,,,,,,,,,,,,,,,,,,,right,1.0,1.612669583002571,,,,,,sub-163,1,random_dot,119.66923375674004,
left,left,14.0,0.0,7.0,left,1.0,2.461529416999838,,accuracy,space,14.395717540995976,,,,,,0.0,1.0,1.0,0.0,7.0,0.0,14.0,0.0,366.7519319159983,,,,,,,,,366.74418012500246,367.9425255829992,368.7344690829996,368.72634599999583,368.7268140410015,368.7344690829996,368.7344690829996,368.7344690829996,371.20081299999583,,,,,,,,,,,,,,,,,,,,,,,,,,,,,,left,1.0,2.461529416999838,,,,,,sub-163,1,random_dot,119.66923375674004,
right,right,15.0,1.0,7.0,left,0.0,2.9973956249959883,,accuracy,space,14.395717540995976,,,,,,0.0,1.0,1.0,0.0,7.0,1.0,15.0,1.0,371.20896145799634,,,,,,,,,371.2012029999969,371.2987834160013,372.0911705830004,372.082937332998,372.0834286660029,372.0911705830004,372.0911705830004,372.0911705830004,375.0938867910008,,,,,,,,,,,,,,,,,,,,,,,,,,,,,,left,0.0,2.9973956249959883,,,,,,sub-163,1,random_dot,119.66923375674004,
right,right,16.0,0.0,8.0,right,1.0,1.0478572909996728,,accuracy,space,14.395717540995976,,,,,,0.0,1.0,1.0,0.0,8.0,0.0,16.0,1.0,375.10224412500247,,,,,,,,,375.0942933330007,375.442585290999,376.23517258300126,376.2267694999973,376.2272739580003,376.23517258300126,376.23517258300126,376.23517258300126,377.3099820409989,,,,,,,,,,,,,,,,,,,,,,,,,,,,,,right,1.0,1.0478572909996728,,,,,,sub-163,1,random_dot,119.66923375674004,
left,left,17.0,1.0,8.0,left,1.0,2.4072598749989997,,accuracy,space,14.395717540995976,,,,,,0.0,1.0,1.0,0.0,8.0,1.0,17.0,0.0,377.3260221660021,,,,,,,,,377.3103833749992,377.3997822079982,378.20141583299846,378.1935196659979,378.19398341600026,378.20141583299846,378.20141583299846,378.20141583299846,380.6107197500023,,,,,,,,,,,,,,,,,,,,,,,,,,,,,,left,1.0,2.4072598749989997,,,,,,sub-163,1,random_dot,119.66923375674004,
right,right,18.0,0.0,9.0,right,1.0,1.867530125004123,,accuracy,space,14.395717540995976,,,,,,0.0,1.0,1.0,0.0,9.0,0.0,18.0,1.0,380.6165875829975,,,,,,,,,380.6111353750021,381.40933433300233,382.20140462499694,382.19333241599816,382.1937912499998,382.20140462499694,382.20140462499694,382.20140462499694,384.0776880409976,,,,,,,,,,,,,,,,,,,,,,,,,,,,,,right,1.0,1.867530125004123,,,,,,sub-163,1,random_dot,119.66923375674004,
left,left,19.0,1.0,9.0,left,1.0,3.258308583004691,,accuracy,space,14.395717540995976,,,,,,0.0,1.0,1.0,0.0,9.0,1.0,19.0,0.0,384.0859210830022,,,,,,,,,384.0780946250016,384.4258562909963,385.2187019580015,385.2102082909987,385.2108270000026,385.2187019580015,385.2187019580015,385.2187019580015,388.4844677079964,,,,,,,,,,,,,,,,,,,,,,,,,,,,,,left,1.0,3.258308583004691,,,,,,sub-163,1,random_dot,119.66923375674004,
right,right,20.0,0.0,10.0,left,0.0,4.841733958004625,,accuracy,space,14.395717540995976,,,,,,0.0,1.0,1.0,0.0,10.0,0.0,20.0,1.0,388.4923460409991,,,,,,,,,388.4848544999986,389.6825789159993,390.4849807080027,390.4768571250024,390.4773253329986,390.4849807080027,390.4849807080027,390.4849807080027,395.3346970409984,,,,,,,,,,,,,,,,,,,,,,,,,,,,,,left,0.0,4.841733958004625,,,,,,sub-163,1,random_dot,119.66923375674004,
left,left,21.0,1.0,10.0,right,0.0,1.014344332994369,,accuracy,space,14.395717540995976,,,,,,0.0,1.0,1.0,0.0,10.0,1.0,21.0,0.0,395.34322308300034,,,,,,,,,395.33509358300216,395.43301383299695,396.2354778329973,396.2272355829991,396.2276985829958,396.2354778329973,396.2354778329973,396.2354778329973,397.2518607910024,,,,,,,,,,,,,,,,,,,,,,,,,,,,,,right,0.0,1.014344332994369,,,,,,sub-163,1,random_dot,119.66923375674004,
right,right,22.0,0.0,11.0,right,1.0,1.2340934590029065,,accuracy,space,14.395717540995976,,,,,,0.0,1.0,1.0,0.0,11.0,0.0,22.0,1.0,397.2600072080022,,,,,,,,,397.25225849999697,398.4485802499985,399.24247629100137,399.2325225829991,399.2330762080019,399.24247629100137,399.24247629100137,399.24247629100137,400.4843127080021,,,,,,,,,,,,,,,,,,,,,,,,,,,,,,right,1.0,1.2340934590029065,,,,,,sub-163,1,random_dot,119.66923375674004,
left,left,23.0,1.0,11.0,left,1.0,2.433530958995106,,accuracy,space,14.395717540995976,,,,,,0.0,1.0,1.0,0.0,11.0,1.0,23.0,0.0,400.4923993330012,,,,,,,,,400.4847036249994,401.2832382909983,402.0854401249962,402.07722508299776,402.0777041659967,402.0854401249962,402.0854401249962,402.0854401249962,404.5277756659998,,,,,,,,,,,,,,,,,,,,,,,,,,,,,,left,1.0,2.433530958995106,,,,,,sub-163,1,random_dot,119.66923375674004,
left,left,24.0,0.0,12.0,left,1.0,2.212160249997396,,accuracy,space,14.395717540995976,,,,,,0.0,1.0,1.0,0.0,12.0,0.0,24.0,0.0,404.5360408749984,,,,,,,,,404.5281928749973,404.8769142910023,405.66825958299887,405.66047587499634,405.6609448329982,405.66825958299887,405.66825958299887,405.66825958299887,407.8850064579965,,,,,,,,,,,,,,,,,,,,,,,,,,,,,,left,1.0,2.212160249997396,,,,,,sub-163,1,random_dot,119.66923375674004,
right,right,25.0,1.0,12.0,right,1.0,1.1481825000009849,,accuracy,space,14.395717540995976,,,,,,0.0,1.0,1.0,0.0,12.0,1.0,25.0,1.0,407.8929764580025,,,,,,,,,407.885394500001,409.0832783750011,409.8851267499995,409.8773032079989,409.8777615829968,409.8851267499995,409.8851267499995,409.8851267499995,411.0354087500018,,,,,,,,,,,,,,,,,,,,,,,,,,,,,,right,1.0,1.1481825000009849,,,,,,sub-163,1,random_dot,119.66923375674004,
right,right,26.0,0.0,13.0,right,1.0,1.7758345830006874,,accuracy,space,14.395717540995976,,,,,,0.0,1.0,1.0,0.0,13.0,0.0,26.0,1.0,411.0437679999959,,,,,,,,,411.0358014579979,411.8337905829976,412.6356187909987,412.6274603749989,412.6279745409993,412.6356187909987,412.6356187909987,412.6356187909987,414.418148040997,,,,,,,,,,,,,,,,,,,,,,,,,,,,,,right,1.0,1.7758345830006874,,,,,,sub-163,1,random_dot,119.66923375674004,
left,left,27.0,1.0,13.0,left,1.0,1.5205961250030668,,accuracy,space,14.395717540995976,,,,,,0.0,1.0,1.0,0.0,13.0,1.0,27.0,0.0,414.4261848329989,,,,,,,,,414.4185390409984,414.5163169579973,415.3089756249974,415.3008177079973,415.30130808299873,415.3089756249974,415.3089756249974,415.3089756249974,416.83574537499953,,,,,,,,,,,,,,,,,,,,,,,,,,,,,,left,1.0,1.5205961250030668,,,,,,sub-163,1,random_dot,119.66923375674004,
right,right,28.0,0.0,14.0,right,1.0,2.3329639580042567,,accuracy,space,14.395717540995976,,,,,,0.0,1.0,1.0,0.0,14.0,0.0,28.0,1.0,416.8598135409993,,,,,,,,,416.8361359580013,417.1834014999986,417.98571866600105,417.9775316250016,417.977975916001,417.98571866600105,417.98571866600105,417.98571866600105,420.3280171660008,,,,,,,,,,,,,,,,,,,,,,,,,,,,,,right,1.0,2.3329639580042567,,,,,,sub-163,1,random_dot,119.66923375674004,
left,left,29.0,1.0,14.0,left,1.0,2.0463568330014823,,accuracy,space,14.395717540995976,,,,,,0.0,1.0,1.0,0.0,14.0,1.0,29.0,0.0,420.3365419159964,,,,,,,,,420.3284132080007,420.41731354100193,421.2186664580004,421.2109924999968,421.21145145800256,421.2186664580004,421.2186664580004,421.2186664580004,423.2697248749973,,,,,,,,,,,,,,,,,,,,,,,,,,,,,,left,1.0,2.0463568330014823,,,,,,sub-163,1,random_dot,119.66923375674004,
left,left,30.0,0.0,15.0,left,1.0,2.6948330829982297,,accuracy,space,14.395717540995976,,,,,,0.0,1.0,1.0,0.0,15.0,0.0,30.0,0.0,423.2788776660018,,,,,,,,,423.2701400000005,424.0672542079992,424.8698227080022,424.8613631659973,424.86193758300215,424.8698227080022,424.8698227080022,424.8698227080022,427.5692901250004,,,,,,,,,,,,,,,,,,,,,,,,,,,,,,left,1.0,2.6948330829982297,,,,,,sub-163,1,random_dot,119.66923375674004,
right,right,31.0,1.0,15.0,right,1.0,1.512811499997042,,accuracy,space,14.395717540995976,,,,,,0.0,1.0,1.0,0.0,15.0,1.0,31.0,1.0,427.59393912499945,,,,,,,,,427.5696800000005,428.3663338749975,429.1594230830015,429.14986150000186,429.1504279579967,429.1594230830015,429.1594230830015,429.1594230830015,430.6784039159975,,,,,,,,,,,,,,,,,,,,,,,,,,,,,,right,1.0,1.512811499997042,,,,,,sub-163,1,random_dot,119.66923375674004,
left,left,32.0,0.0,16.0,left,1.0,1.516247707993898,,accuracy,space,14.395717540995976,,,,,,0.0,1.0,1.0,0.0,16.0,0.0,32.0,0.0,430.6866563329968,,,,,,,,,430.6788002079993,430.77694950000296,431.5696546249965,431.56090224999934,431.561429333,431.5696546249965,431.5696546249965,431.5696546249965,433.0952636660004,,,,,,,,,,,,,,,,,,,,,,,,,,,,,,left,1.0,1.516247707993898,,,,,,sub-163,1,random_dot,119.66923375674004,
right,right,33.0,1.0,16.0,right,1.0,2.014436042001762,,accuracy,space,14.395717540995976,,,,,,0.0,1.0,1.0,0.0,16.0,1.0,33.0,1.0,433.1034514999992,,,,,,,,,433.095663291002,433.19401045799896,433.9852449999962,433.9775455409981,433.9780075000017,433.9852449999962,433.9852449999962,433.9852449999962,436.0021283750029,,,,,,,,,,,,,,,,,,,,,,,,,,,,,,right,1.0,2.014436042001762,,,,,,sub-163,1,random_dot,119.66923375674004,
right,right,34.0,0.0,17.0,right,1.0,1.7884537079953589,,accuracy,space,14.395717540995976,,,,,,0.0,1.0,1.0,0.0,17.0,0.0,34.0,1.0,436.01031204099854,,,,,,,,,436.0025201660028,436.8004698329969,437.6031726660003,437.5947739999974,437.5953927500013,437.6031726660003,437.6031726660003,437.6031726660003,439.3951444999984,,,,,,,,,,,,,,,,,,,,,,,,,,,,,,right,1.0,1.7884537079953589,,,,,,sub-163,1,random_dot,119.66923375674004,
left,left,35.0,1.0,17.0,left,1.0,1.9198686250019816,,accuracy,space,14.395717540995976,,,,,,0.0,1.0,1.0,0.0,17.0,1.0,35.0,0.0,439.4034476250017,,,,,,,,,439.3955437909972,440.5939914159972,441.3865539159961,441.37783050000144,441.3782987079976,441.3865539159961,441.3865539159961,441.3865539159961,443.3120432079959,,,,,,,,,,,,,,,,,,,,,,,,,,,,,,left,1.0,1.9198686250019816,,,,,,sub-163,1,random_dot,119.66923375674004,
left,left,36.0,0.0,18.0,left,1.0,1.6583245420042658,,accuracy,space,14.395717540995976,,,,,,0.0,1.0,1.0,0.0,18.0,0.0,36.0,0.0,443.3205492909983,,,,,,,,,443.3124387909993,443.660765749999,444.452246832996,444.4445252500009,444.4449906660011,444.452246832996,444.452246832996,444.452246832996,446.1126204999964,,,,,,,,,,,,,,,,,,,,,,,,,,,,,,left,1.0,1.6583245420042658,,,,,,sub-163,1,random_dot,119.66923375674004,
right,right,37.0,1.0,18.0,right,1.0,0.9499479170044652,,accuracy,space,14.395717540995976,,,,,,0.0,1.0,1.0,0.0,18.0,1.0,37.0,1.0,446.118359250002,,,,,,,,,446.1130262079969,446.4608743749996,447.2529372499994,447.2446184159999,447.2450804580003,447.2529372499994,447.2529372499994,447.2529372499994,448.2120632079968,,,,,,,,,,,,,,,,,,,,,,,,,,,,,,right,1.0,0.9499479170044652,,,,,,sub-163,1,random_dot,119.66923375674004,
left,left,38.0,0.0,19.0,right,0.0,2.4839659169956576,,accuracy,space,14.395717540995976,,,,,,0.0,1.0,1.0,0.0,19.0,0.0,38.0,0.0,448.2202935410023,,,,,,,,,448.2124592909968,448.3105376250023,449.1021206250007,449.09445958300057,449.0949315830003,449.1021206250007,449.1021206250007,449.1021206250007,451.5956402910015,,,,,,,,,,,,,,,,,,,,,,,,,,,,,,right,0.0,2.4839659169956576,,,,,,sub-163,1,random_dot,119.66923375674004,
right,right,39.0,1.0,19.0,left,0.0,2.6512182080041384,,accuracy,space,14.395717540995976,,,,,,0.0,1.0,1.0,0.0,19.0,1.0,39.0,1.0,451.6038980000012,,,,,,,,,451.59604483300063,451.9440334999963,452.73663912499615,452.7280474579966,452.7285795409989,452.73663912499615,452.73663912499615,452.73663912499615,455.3955353749989,,,,,,,,,,,,,,,,,,,,,,,,,,,,,,left,0.0,2.6512182080041384,,,,,,sub-163,1,random_dot,119.66923375674004,
left,left,40.0,0.0,20.0,right,0.0,2.507808832997398,,accuracy,space,14.395717540995976,,,,,,0.0,1.0,1.0,0.0,20.0,0.0,40.0,0.0,455.4037696250016,,,,,,,,,455.395941666,456.5942906249984,457.3869002909996,457.3783923750016,457.3789144999973,457.3869002909996,457.3869002909996,457.3869002909996,459.9028254160002,,,,,,,,,,,,,,,,,,,,,,,,,,,,,,right,0.0,2.507808832997398,,,,,,sub-163,1,random_dot,119.66923375674004,
right,right,41.0,1.0,20.0,right,1.0,1.097601499997836,,accuracy,space,14.395717540995976,,,,,,0.0,1.0,1.0,0.0,20.0,1.0,41.0,1.0,459.91078979099984,,,,,,,,,459.9032174579989,461.1005703749979,461.8938084580004,461.8836215409974,461.884110166,461.8938084580004,461.8938084580004,461.8938084580004,462.9955373749981,,,,,,,,,,,,,,,,,,,,,,,,,,,,,,right,1.0,1.097601499997836,,,,,,sub-163,1,random_dot,119.66923375674004,
right,right,42.0,0.0,21.0,right,1.0,2.341820041998289,,accuracy,space,14.395717540995976,,,,,,0.0,1.0,1.0,0.0,21.0,0.0,42.0,1.0,463.0012524999984,,,,,,,,,462.9959401660017,464.1945728749997,464.9863933750021,464.97821024999575,464.9787492499963,464.9863933750021,464.9863933750021,464.9863933750021,467.3360833749976,,,,,,,,,,,,,,,,,,,,,,,,,,,,,,right,1.0,2.341820041998289,,,,,,sub-163,1,random_dot,119.66923375674004,
left,left,43.0,1.0,21.0,left,1.0,1.226506207996863,,accuracy,space,14.395717540995976,,,,,,0.0,1.0,1.0,0.0,21.0,1.0,43.0,0.0,467.3442912499959,,,,,,,,,467.3364690410017,468.1340519160003,468.9273053750003,468.91822654099815,468.918717665998,468.9273053750003,468.9273053750003,468.9273053750003,470.1625152909983,,,,,,,,,,,,,,,,,,,,,,,,,,,,,,left,1.0,1.226506207996863,,,,,,sub-163,1,random_dot,119.66923375674004,
left,left,44.0,0.0,22.0,left,1.0,1.5133317910003825,,accuracy,space,14.395717540995976,,,,,,0.0,1.0,1.0,0.0,22.0,0.0,44.0,0.0,470.1712250830024,,,,,,,,,470.1629484579971,471.3615295830023,472.1541339999967,472.1452973749984,472.145760499996,472.1541339999967,472.1541339999967,472.1541339999967,473.6698615830028,,,,,,,,,,,,,,,,,,,,,,,,,,,,,,left,1.0,1.5133317910003825,,,,,,sub-163,1,random_dot,119.66923375674004,
right,right,45.0,1.0,22.0,right,1.0,3.25089633299649,,accuracy,space,14.395717540995976,,,,,,0.0,1.0,1.0,0.0,22.0,1.0,45.0,1.0,473.6778474579987,,,,,,,,,473.6702493749981,474.4678178749964,475.26074145799794,475.2508134579985,475.25126337500114,475.26074145799794,475.26074145799794,475.26074145799794,478.5194894579981,,,,,,,,,,,,,,,,,,,,,,,,,,,,,,right,1.0,3.25089633299649,,,,,,sub-163,1,random_dot,119.66923375674004,
left,left,46.0,0.0,23.0,left,1.0,2.8330287920034607,,accuracy,space,14.395717540995976,,,,,,0.0,1.0,1.0,0.0,23.0,0.0,46.0,0.0,478.5276700409959,,,,,,,,,478.5198755829988,479.3180227499979,480.1209079580003,480.1122619579983,480.1128821250022,480.1209079580003,480.1209079580003,480.1209079580003,482.96266237500095,,,,,,,,,,,,,,,,,,,,,,,,,,,,,,left,1.0,2.8330287920034607,,,,,,sub-163,1,random_dot,119.66923375674004,
right,right,47.0,1.0,23.0,right,1.0,1.4875253749996773,,accuracy,space,14.395717540995976,,,,,,0.0,1.0,1.0,0.0,23.0,1.0,47.0,1.0,482.9709749999965,,,,,,,,,482.9630691659986,483.0612827910009,483.8538813749983,483.8453119580008,483.8458403330005,483.8538813749983,483.8538813749983,483.8538813749983,485.3460469999991,,,,,,,,,,,,,,,,,,,,,,,,,,,,,,right,1.0,1.4875253749996773,,,,,,sub-163,1,random_dot,119.66923375674004,
left,left,48.0,0.0,24.0,right,0.0,1.493963833003363,,accuracy,space,14.395717540995976,,,,,,0.0,1.0,1.0,0.0,24.0,0.0,48.0,0.0,485.35194679100096,,,,,,,,,485.346453332997,485.6947506249999,486.4876571249988,486.4790778749957,486.4796623329967,486.4876571249988,486.4876571249988,486.4876571249988,487.98644945799606,,,,,,,,,,,,,,,,,,,,,,,,,,,,,,right,0.0,1.493963833003363,,,,,,sub-163,1,random_dot,119.66923375674004,
right,right,49.0,1.0,24.0,right,1.0,1.6077264999985346,,accuracy,space,14.395717540995976,,,,,,0.0,1.0,1.0,0.0,24.0,1.0,49.0,1.0,487.9942348330005,,,,,,,,,487.9868422910004,488.78506200000265,489.5871680409982,489.5789115410007,489.5793862080027,489.5871680409982,489.5871680409982,489.5871680409982,491.1969176249986,,,,,,,,,,,,,,,,,,,,,,,,,,,,,,right,1.0,1.6077264999985346,,,,,,sub-163,1,random_dot,119.66923375674004,
left,left,50.0,0.0,25.0,left,1.0,1.799014582997188,,accuracy,space,14.395717540995976,,,,,,0.0,1.0,1.0,0.0,25.0,0.0,50.0,0.0,491.2029227079984,,,,,,,,,491.19732037500216,491.5450240409991,492.3379452079971,492.3292588749973,492.329858457997,492.3379452079971,492.3379452079971,492.3379452079971,494.1465160829976,,,,,,,,,,,,,,,,,,,,,,,,,,,,,,left,1.0,1.799014582997188,,,,,,sub-163,1,random_dot,119.66923375674004,
right,right,51.0,1.0,25.0,right,1.0,1.9038305840003888,,accuracy,space,14.395717540995976,,,,,,0.0,1.0,1.0,0.0,25.0,1.0,51.0,1.0,494.1549217909997,,,,,,,,,494.1469328750027,494.2450672499981,495.03741612500016,495.0290085829984,495.0294772080015,495.03741612500016,495.03741612500016,495.03741612500016,496.9462997079973,,,,,,,,,,,,,,,,,,,,,,,,,,,,,,right,1.0,1.9038305840003888,,,,,,sub-163,1,random_dot,119.66923375674004,
left,left,52.0,0.0,26.0,left,1.0,1.953417417003948,,accuracy,space,14.395717540995976,,,,,,0.0,1.0,1.0,0.0,26.0,0.0,52.0,0.0,496.9545715830027,,,,,,,,,496.9467077079971,498.1452730000019,498.9370791659967,498.9288807499979,498.92935820799903,498.9370791659967,498.9370791659967,498.9370791659967,500.89623495799606,,,,,,,,,,,,,,,,,,,,,,,,,,,,,,left,1.0,1.953417417003948,,,,,,sub-163,1,random_dot,119.66923375674004,
right,right,53.0,1.0,26.0,right,1.0,2.4100497079998604,,accuracy,space,14.395717540995976,,,,,,0.0,1.0,1.0,0.0,26.0,1.0,53.0,1.0,500.9044995000004,,,,,,,,,500.8966296660001,501.6952218750012,502.4876826659965,502.4792498749957,502.4797861659972,502.4876826659965,502.4876826659965,502.4876826659965,504.9039627079983,,,,,,,,,,,,,,,,,,,,,,,,,,,,,,right,1.0,2.4100497079998604,,,,,,sub-163,1,random_dot,119.66923375674004,
right,right,54.0,0.0,27.0,left,0.0,3.6416901249976954,,accuracy,space,14.395717540995976,,,,,,0.0,1.0,1.0,0.0,27.0,0.0,54.0,1.0,504.9124639579968,,,,,,,,,504.904359250002,505.7020420409972,506.5036155830021,506.4958479580018,506.49631337499886,506.5036155830021,506.5036155830021,506.5036155830021,510.154474582996,,,,,,,,,,,,,,,,,,,,,,,,,,,,,,left,0.0,3.6416901249976954,,,,,,sub-163,1,random_dot,119.66923375674004,
left,left,55.0,1.0,27.0,right,0.0,2.2574967079999624,,accuracy,space,14.395717540995976,,,,,,0.0,1.0,1.0,0.0,27.0,1.0,55.0,0.0,510.1784352909963,,,,,,,,,510.1548612080005,510.50216570799967,511.3038959159967,511.2959121250024,511.2963800829966,511.3038959159967,511.3038959159967,511.3038959159967,513.5634958750015,,,,,,,,,,,,,,,,,,,,,,,,,,,,,,right,0.0,2.2574967079999624,,,,,,sub-163,1,random_dot,119.66923375674004,
right,right,56.0,0.0,28.0,right,1.0,2.732233000002452,,accuracy,space,14.395717540995976,,,,,,0.0,1.0,1.0,0.0,28.0,0.0,56.0,1.0,513.5691124160003,,,,,,,,,513.5638826249997,514.7620105000024,515.5540601659959,515.5459535409973,515.5464622910004,515.5540601659959,515.5540601659959,515.5540601659959,518.296923832997,,,,,,,,,,,,,,,,,,,,,,,,,,,,,,right,1.0,2.732233000002452,,,,,,sub-163,1,random_dot,119.66923375674004,
left,left,57.0,1.0,28.0,right,0.0,3.984371041005943,,accuracy,space,14.395717540995976,,,,,,0.0,1.0,1.0,0.0,28.0,1.0,57.0,0.0,518.305558041,,,,,,,,,518.2973236659964,518.395324457997,519.1884554159988,519.1795798750027,519.1801545830021,519.1884554159988,519.1884554159988,519.1884554159988,523.1807820829999,,,,,,,,,,,,,,,,,,,,,,,,,,,,,,right,0.0,3.984371041005943,,,,,,sub-163,1,random_dot,119.66923375674004,
left,left,58.0,0.0,29.0,right,0.0,3.570401707998826,,accuracy,space,14.395717540995976,,,,,,0.0,1.0,1.0,0.0,29.0,0.0,58.0,0.0,523.1891955829997,,,,,,,,,523.181266790998,523.5291108329984,524.3210016660014,524.3128254580006,524.3133014580017,524.3210016660014,524.3210016660014,524.3210016660014,527.8974591660008,,,,,,,,,,,,,,,,,,,,,,,,,,,,,,right,0.0,3.570401707998826,,,,,,sub-163,1,random_dot,119.66923375674004,
right,right,59.0,1.0,29.0,right,1.0,2.176452791005431,,accuracy,space,14.395717540995976,,,,,,0.0,1.0,1.0,0.0,29.0,1.0,59.0,1.0,527.9060516660029,,,,,,,,,527.8978692079982,528.2457991659976,529.0376874579961,529.0296238329975,529.030113957997,529.0376874579961,529.0376874579961,529.0376874579961,531.2201062079985,,,,,,,,,,,,,,,,,,,,,,,,,,,,,,right,1.0,2.176452791005431,,,,,,sub-163,1,random_dot,119.66923375674004,
,,1.0,1.0,0.0,,,,,accuracy,space,14.395717540995976,,,,,,0.0,1.0,1.0,0.0,,,,,,,,,,,,,,,,,,,,,,,,,,,,,,,,,,,,,,,,,,,,,,,,,,,,,,,,,,,,sub-163,1,random_dot,119.66923375674004,
,,,,,,,,,,,,,,,,,,,,,,,,,,,,,,,,,,,,,,,,,,,,,,,,,,,,,,,,,,,,,,,,,,,,,,,,,,,,531.2266874999987,531.2354698330018,536.2292732909991,536.2184749160006,sub-163,1,random_dot,119.66923375674004,
