direction,corrAns,thisN,thisTrialN,thisRepN,respDots.keys,respDots.corr,respDots.rt,respDots.duration,randomInstr,respRandomInstr.keys,respRandomInstr.rt,respRandomInstr.duration,practice_trials.thisRepN,practice_trials.thisTrialN,practice_trials.thisN,practice_trials.thisIndex,instr_trials.thisRepN,instr_trials.thisTrialN,instr_trials.thisN,instr_trials.thisIndex,test_trials.thisRepN,test_trials.thisTrialN,test_trials.thisN,test_trials.thisIndex,thisRow.t,notes,general_instruction.started,textGeneralInstr.started,respGeneralInstr.started,general_instruction.stopped,respGeneralInstr.keys,respGeneralInstr.rt,respGeneralInstr.duration,ITI.started,fixcross.started,fixcross.stopped,ITI.stopped,dots.started,backgroundDots.started,stimulusDots.started,respDots.started,dots.stopped,practice_trials.respDots.keys,practice_trials.respDots.corr,practice_trials.respDots.rt,practice_trials.respDots.duration,feedback.started,textFeedback.started,textFeedback.stopped,feedback.stopped,info.started,textInfo.started,keyRespInfo.started,info.stopped,keyRespInfo.keys,keyRespInfo.rt,keyRespInfo.duration,test_instruction.started,textTestInstr.started,respTestInstr.started,test_instruction.stopped,respTestInstr.keys,respTestInstr.rt,respTestInstr.duration,random_instruction.started,textRandomInstr.started,respRandomInstr.started,random_instruction.stopped,instr_trials.respRandomInstr.keys,instr_trials.respRandomInstr.rt,instr_trials.respRandomInstr.duration,test_trials.respDots.keys,test_trials.respDots.corr,test_trials.respDots.rt,test_trials.respDots.duration,goodbye.started,textGoodbye.started,goodbye.stopped,participant,session,expName,frameRate,Unnamed: 86
,,,,,,,,,,,,,,,,,,,,,,,,,,,0.0118654170073568,0.0215992918238043,0.0215992918238043,7.989344791974872,space,7.848303709179163,,,,,,,,,,,,,,,,,,,,,,,,,,,,,,,,,,,,,,,,,,,,,,,sub-114,1,random_dot,,
left,left,0.0,0.0,0.0,left,1.0,1.3898903329391032,,,,,,0.0,0.0,0.0,0.0,,,,,,,,,8.01500758389011,,,,,,,,,8.006601166911423,8.788437458919361,9.590922791976482,9.573103333823385,9.57411124999635,9.590922791976482,9.590922791976482,9.590922791976482,11.060153583995998,left,1.0,1.3898903329391032,,11.063367916969582,11.067660124972464,11.56230749981478,11.556087833829224,,,,,,,,,,,,,,,,,,,,,,,,,,,,,sub-114,1,random_dot,,
right,right,1.0,1.0,0.0,right,1.0,0.5713915410451591,,,,,,0.0,1.0,1.0,1.0,,,,,,,,,11.56230749981478,,,,,,,,,11.556796624790875,12.75549870892428,13.548318999819458,13.539138958789408,13.539919416885825,13.548318999819458,13.548318999819458,13.548318999819458,14.122186458902434,right,1.0,0.5713915410451591,,14.122373333899304,14.132119833957404,14.628503499785438,14.622579416958615,,,,,,,,,,,,,,,,,,,,,,,,,,,,,sub-114,1,random_dot,,
left,left,2.0,0.0,1.0,left,1.0,0.6996141669806093,,,,,,1.0,0.0,2.0,0.0,,,,,,,,,14.628503499785438,,,,,,,,,14.623115833848717,14.962259208783507,15.754032416967677,15.74566158396192,15.746131458785383,15.754032416967677,15.754032416967677,15.754032416967677,16.456055749906227,left,1.0,0.6996141669806093,,16.456204833928496,16.464602041989565,16.962220416869968,16.95568041689694,,,,,,,,,,,,,,,,,,,,,,,,,,,,,sub-114,1,random_dot,,
right,right,3.0,1.0,1.0,right,1.0,0.4696180829778313,,,,,,1.0,1.0,3.0,1.0,,,,,,,,,16.962220416869968,,,,,,,,,16.95647191698663,17.04550070897676,17.84692008397542,17.839222208829597,17.83970612497069,17.84692008397542,17.84692008397542,17.84692008397542,18.323122958885502,right,1.0,0.4696180829778313,,18.32329545891844,18.33169237500988,18.827995916828517,18.822452458785847,,,,,,,,,,,,,,,,,,,,,,,,,,,,,sub-114,1,random_dot,,
left,left,4.0,0.0,2.0,left,1.0,0.4247279590927064,,,,,,2.0,0.0,4.0,0.0,,,,,,,,,18.827995916828517,,,,,,,,,18.82294633379206,19.61276674992405,20.404026333941147,20.395647916942835,20.39619954186492,20.404026333941147,20.404026333941147,20.404026333941147,20.830793750006706,left,1.0,0.4247279590927064,,20.830935249803588,20.83970933384262,21.329207124887034,21.32271154201589,,,,,,,,,,,,,,,,,,,,,,,,,,,,,sub-114,1,random_dot,,
right,right,5.0,1.0,2.0,right,1.0,0.7178392498753965,,,,,,2.0,1.0,5.0,1.0,,,,,,,,,21.329207124887034,,,,,,,,,21.3234354169108,21.677521499805152,22.47053970885463,22.462014458840716,22.46244937484153,22.47053970885463,22.47053970885463,22.47053970885463,23.19934295886196,right,1.0,0.7178392498753965,,23.199484499869868,23.205866999924183,23.695081749930974,23.689326208783317,,,,,,,,,,,,,,,,,,,,,,,,,,,,,sub-114,1,random_dot,,
left,left,6.0,0.0,3.0,right,0.0,0.4522951249964535,,,,,,3.0,0.0,6.0,0.0,,,,,,,,,23.695081749930974,,,,,,,,,23.689715208951384,24.048602249938995,24.848102958872914,24.839512541890144,24.84020312479697,24.848102958872914,24.848102958872914,24.848102958872914,25.30583441699855,right,0.0,0.4522951249964535,,25.31268758396618,25.33468491700478,,25.812171750003472,,,,,,,,,,,,,,,,,,,,,,,,,,,,,sub-114,1,random_dot,,
right,right,7.0,1.0,3.0,right,1.0,0.5001672501675785,,,,,,3.0,1.0,7.0,1.0,,,,,,,,,25.82220133394003,,,,,,,,,25.81257850001566,25.895744583802298,26.687165999785066,26.678636624943465,26.67909320886247,26.687165999785066,26.687165999785066,26.687165999785066,27.1903358749114,right,1.0,0.5001672501675785,,27.19545649993233,27.204642166849226,27.694923041854054,27.689168374985456,,,,,,,,,,,,,,,,,,,,,,,,,,,,,sub-114,1,random_dot,,
left,left,8.0,0.0,4.0,left,1.0,0.770793833071366,,,,,,4.0,0.0,8.0,0.0,,,,,,,,,27.694923041854054,,,,,,,,,27.689732499886304,28.038453791989014,28.829434416955337,28.821484583895653,28.82201816700399,28.829434416955337,28.829434416955337,28.829434416955337,29.605389083968475,left,1.0,0.770793833071366,,29.60557116684504,29.614565958967432,,30.105704958783463,,,,,,,,,,,,,,,,,,,,,,,,,,,,,sub-114,1,random_dot,,
right,right,9.0,1.0,4.0,right,1.0,0.502961291000247,,,,,,4.0,1.0,9.0,1.0,,,,,,,,,30.111777124926448,,,,,,,,,30.10639999993145,30.444039416965097,31.237268208991736,31.22897845879197,31.22946641687304,31.237268208991736,31.237268208991736,31.237268208991736,31.746618459001184,right,1.0,0.502961291000247,,31.74676416697912,31.75570895895362,32.24580687494017,32.239363541826606,,,,,,,,,,,,,,,,,,,,,,,,,,,,,sub-114,1,random_dot,,
right,right,10.0,0.0,5.0,right,1.0,0.6186353750526905,,,,,,5.0,0.0,10.0,1.0,,,,,,,,,32.24580687494017,,,,,,,,,32.240036374889314,32.59554749983363,33.387317791813985,33.37883887486532,33.37927083391696,33.387317791813985,33.387317791813985,33.387317791813985,34.01601141691208,right,1.0,0.6186353750526905,,34.01613191701472,34.02209737501107,34.511704499833286,34.505862874910235,,,,,,,,,,,,,,,,,,,,,,,,,,,,,sub-114,1,random_dot,,
left,left,11.0,1.0,5.0,left,1.0,0.5633025001734495,,,,,,5.0,1.0,11.0,0.0,,,,,,,,,34.511704499833286,,,,,,,,,34.50638149981387,34.86198529182002,35.65379866701551,35.64589291694574,35.6463376248721,35.65379866701551,35.65379866701551,35.65379866701551,36.22207016684115,left,1.0,0.5633025001734495,,36.222261333838105,36.23092558397912,,36.72237129183486,,,,,,,,,,,,,,,,,,,,,,,,,,,,,sub-114,1,random_dot,,
left,left,12.0,0.0,6.0,right,0.0,0.5610552919097245,,,,,,6.0,0.0,12.0,0.0,,,,,,,,,36.728777499869466,,,,,,,,,36.72305487492122,37.511926749954,38.30381633387879,38.29577804193832,38.2962176669389,38.30381633387879,38.30381633387879,38.30381633387879,38.87345987488516,right,0.0,0.5610552919097245,,38.878644791897386,38.8874065419659,39.37846712488681,39.372134167002514,,,,,,,,,,,,,,,,,,,,,,,,,,,,,sub-114,1,random_dot,,
right,right,13.0,1.0,6.0,right,1.0,0.6741289591882378,,,,,,6.0,1.0,13.0,1.0,,,,,,,,,39.37846712488681,,,,,,,,,39.37280424986966,39.47142833401449,40.26469495892525,40.25577408401296,40.25637787487358,40.26469495892525,40.26469495892525,40.26469495892525,40.949977666838095,right,1.0,0.6741289591882378,,40.95363958389498,40.95915287500248,41.45524745900184,41.44588529178873,,,,,,,,,,,,,,,,,,,,,,,,,,,,,sub-114,1,random_dot,,
left,left,14.0,0.0,7.0,left,1.0,0.5994727909564972,,,,,,7.0,0.0,14.0,0.0,,,,,,,,,41.45524745900184,,,,,,,,,41.44636529195122,42.64554874994792,43.43717070878483,43.428782959003,43.42934966692701,43.43717070878483,43.43717070878483,43.43717070878483,44.03875520895235,left,1.0,0.5994727909564972,,44.03894020896405,44.04721300001256,,44.53907454200089,,,,,,,,,,,,,,,,,,,,,,,,,,,,,sub-114,1,random_dot,,
right,right,15.0,1.0,7.0,right,1.0,0.8052002089098096,,,,,,7.0,1.0,15.0,1.0,,,,,,,,,44.54539383389056,,,,,,,,,44.53976362501271,44.628207749919966,45.42044191691093,45.41150408401154,45.4120607918594,45.42044191691093,45.42044191691093,45.42044191691093,46.23028387478553,right,1.0,0.8052002089098096,,46.23043187498115,46.238919416908175,46.72875616699457,46.7222898339387,,,,,,,,,,,,,,,,,,,,,,,,,,,,,sub-114,1,random_dot,,
right,right,16.0,0.0,8.0,left,0.0,0.574656292097643,,,,,,8.0,0.0,16.0,1.0,,,,,,,,,46.72875616699457,,,,,,,,,46.72296012495645,46.828311749966815,47.62198312487453,47.61302449996583,47.61360862478614,47.62198312487453,47.62198312487453,47.62198312487453,48.20488737500273,left,0.0,0.574656292097643,,48.209750041831285,48.21793512487784,,48.70571537478827,,,,,,,,,,,,,,,,,,,,,,,,,,,,,sub-114,1,random_dot,,
left,left,17.0,1.0,8.0,right,0.0,0.773596707964316,,,,,,8.0,1.0,17.0,0.0,,,,,,,,,48.71195445884951,,,,,,,,,48.70641704183072,49.04319545882754,49.83799433382228,49.82896241685376,49.82954462501221,49.83799433382228,49.83799433382228,49.83799433382228,50.61347412480973,right,0.0,0.773596707964316,,50.6136196248699,50.621618708828464,51.11236604186706,51.10588274989277,,,,,,,,,,,,,,,,,,,,,,,,,,,,,sub-114,1,random_dot,,
left,left,18.0,0.0,9.0,right,0.0,1.1878445418551564,,,,,,9.0,0.0,18.0,0.0,,,,,,,,,51.11236604186706,,,,,,,,,51.10661299992353,51.91204704181291,52.703707666834816,52.6946319998242,52.6951119590085,52.703707666834816,52.703707666834816,52.703707666834816,53.89548287494108,right,0.0,1.1878445418551564,,53.895632416941226,53.904549499973655,54.39443004201166,54.38880974985659,,,,,,,,,,,,,,,,,,,,,,,,,,,,,sub-114,1,random_dot,,
right,right,19.0,1.0,9.0,left,0.0,1.20515445782803,,,,,,9.0,1.0,19.0,1.0,,,,,,,,,54.39443004201166,,,,,,,,,54.38925241678953,54.49569716700353,55.28730616695248,55.27847116696648,55.27908170898445,55.28730616695248,55.28730616695248,55.28730616695248,56.49537141690962,left,0.0,1.20515445782803,,56.49554695887491,56.50392766692676,56.99846058385447,56.98908195900731,,,,,,,,,,,,,,,,,,,,,,,,,,,,,sub-114,1,random_dot,,
,,,,,,,,,,,,,,,,,,,,,,,,,,,,,,,,,,,,,,,,,,,,,,,,,,,56.98938062484376,56.99846058385447,56.99846058385447,59.68970666686073,space,2.686100374907255,,,,,,,,,,,,,,,,,,,,,,,sub-114,1,random_dot,,
,,,,,,,,,,,,,,,,,,,,,,,,,,,,,,,,,,,,,,,,,,,,,,,,,,,,,,,,,,59.68981170887128,59.70316962478682,59.70316962478682,60.90716824983247,space,1.1982349161989987,,,,,,,,,,,,,,,,sub-114,1,random_dot,,
left,left,0.0,0.0,0.0,right,0.0,1.6870891249272972,,accuracy,space,0.785048957914114,,,,,,0.0,0.0,0.0,0.0,0.0,0.0,0.0,0.0,61.757851749891415,,,,,,,,,61.75105095887557,62.0886482920032,62.88201979198493,62.87253262498416,62.87331212498248,62.88201979198493,62.88201979198493,62.88201979198493,64.5725096669048,,,,,,,,,,,,,,,,,,,,,,,60.93809416680597,60.94629695895128,60.94629695895128,61.73972412501462,space,0.785048957914114,,right,0.0,1.6870891249272972,,,,,sub-114,1,random_dot,,
right,right,1.0,1.0,0.0,right,1.0,0.8607562500983477,,accuracy,space,0.785048957914114,,,,,,0.0,0.0,0.0,0.0,0.0,1.0,1.0,1.0,64.58047941699624,,,,,,,,,64.57324370881543,65.76217445894144,66.55423474987037,66.5455051669851,66.54605737491511,66.55423474987037,66.55423474987037,66.55423474987037,67.42326641688123,,,,,,,,,,,,,,,,,,,,,,,,,,,,,,right,1.0,0.8607562500983477,,,,,sub-114,1,random_dot,,
right,right,2.0,0.0,1.0,right,1.0,1.750043333042413,,accuracy,space,0.785048957914114,,,,,,0.0,0.0,0.0,0.0,1.0,0.0,2.0,1.0,67.43131474987604,,,,,,,,,67.42401574994437,67.52198804193176,68.31400424987078,68.30554920900613,68.30612808396108,68.31400424987078,68.31400424987078,68.31400424987078,70.07335754181258,,,,,,,,,,,,,,,,,,,,,,,,,,,,,,right,1.0,1.750043333042413,,,,,sub-114,1,random_dot,,
left,left,3.0,1.0,1.0,left,1.0,2.5194772919639945,,accuracy,space,0.785048957914114,,,,,,0.0,0.0,0.0,0.0,1.0,1.0,3.0,0.0,70.08167379186489,,,,,,,,,70.07409245893359,71.27188379201107,72.0642248338554,72.05525566684082,72.05585529189557,72.0642248338554,72.0642248338554,72.0642248338554,74.58958058385178,,,,,,,,,,,,,,,,,,,,,,,,,,,,,,left,1.0,2.5194772919639945,,,,,sub-114,1,random_dot,,
right,right,4.0,0.0,2.0,right,1.0,0.6516362088732421,,accuracy,space,0.785048957914114,,,,,,0.0,0.0,0.0,0.0,2.0,0.0,4.0,1.0,74.59754249989055,,,,,,,,,74.59016108396463,74.93829183396883,75.7306518338155,75.7221440419089,75.72288820892572,75.7306518338155,75.7306518338155,75.7306518338155,76.38921945891343,,,,,,,,,,,,,,,,,,,,,,,,,,,,,,right,1.0,0.6516362088732421,,,,,sub-114,1,random_dot,,
left,left,5.0,1.0,2.0,left,1.0,0.9342122920788823,,accuracy,space,0.785048957914114,,,,,,0.0,0.0,0.0,0.0,2.0,1.0,5.0,0.0,76.3965179589577,,,,,,,,,76.38967383396812,77.17869149986655,77.97002416686155,77.96163316699676,77.96206441684626,77.97002416686155,77.97002416686155,77.97002416686155,78.90566770895384,,,,,,,,,,,,,,,,,,,,,,,,,,,,,,left,1.0,0.9342122920788823,,,,,sub-114,1,random_dot,,
right,right,6.0,0.0,3.0,right,1.0,0.6633292499464005,,accuracy,space,0.785048957914114,,,,,,0.0,0.0,0.0,0.0,3.0,0.0,6.0,1.0,78.91375070880167,,,,,,,,,78.90624579181895,80.09567374992184,80.88786349981092,80.87874999991618,80.879296583822,80.88786349981092,80.88786349981092,80.88786349981092,81.55489016696811,,,,,,,,,,,,,,,,,,,,,,,,,,,,,,right,1.0,0.6633292499464005,,,,,sub-114,1,random_dot,,
left,left,7.0,1.0,3.0,right,0.0,0.856253125006333,,accuracy,space,0.785048957914114,,,,,,0.0,0.0,0.0,0.0,3.0,1.0,7.0,0.0,81.56274120882154,,,,,,,,,81.55541962501593,81.89539970899932,82.69681429187767,82.68868512497284,82.68927145889029,82.69681429187767,82.69681429187767,82.69681429187767,83.55635074991733,,,,,,,,,,,,,,,,,,,,,,,,,,,,,,right,0.0,0.856253125006333,,,,,sub-114,1,random_dot,,
right,right,8.0,0.0,4.0,right,1.0,0.9649973339401186,,accuracy,space,0.785048957914114,,,,,,0.0,0.0,0.0,0.0,4.0,0.0,8.0,1.0,83.56456504180096,,,,,,,,,83.55704329186119,83.90511395898648,84.69698658399284,84.68843541690148,84.68900554184802,84.69698658399284,84.69698658399284,84.69698658399284,85.67241837480105,,,,,,,,,,,,,,,,,,,,,,,,,,,,,,right,1.0,0.9649973339401186,,,,,sub-114,1,random_dot,,
left,left,9.0,1.0,4.0,left,1.0,1.4606192498467865,,accuracy,space,0.785048957914114,,,,,,0.0,0.0,0.0,0.0,4.0,1.0,9.0,0.0,85.67811887478456,,,,,,,,,85.67299666698091,86.86234466684982,87.65330091700889,87.64531687484123,87.64577841688879,87.65330091700889,87.65330091700889,87.65330091700889,89.12256041681394,,,,,,,,,,,,,,,,,,,,,,,,,,,,,,left,1.0,1.4606192498467865,,,,,sub-114,1,random_dot,,
left,left,10.0,0.0,5.0,left,1.0,1.926666583167389,,accuracy,space,0.785048957914114,,,,,,0.0,0.0,0.0,0.0,5.0,0.0,10.0,0.0,89.13020091690123,,,,,,,,,89.12343529192731,89.46165870898403,90.25518350000492,90.24579983390868,90.24642229196616,90.25518350000492,90.25518350000492,90.25518350000492,92.1881224589888,,,,,,,,,,,,,,,,,,,,,,,,,,,,,,left,1.0,1.926666583167389,,,,,sub-114,1,random_dot,,
right,right,11.0,1.0,5.0,right,1.0,0.6035437919199467,,accuracy,space,0.785048957914114,,,,,,0.0,0.0,0.0,0.0,5.0,1.0,11.0,1.0,92.19686479191296,,,,,,,,,92.1888446668163,92.27810195880012,93.07022020895964,93.06115049985236,93.06158674997278,93.07022020895964,93.07022020895964,93.07022020895964,93.67829141695984,,,,,,,,,,,,,,,,,,,,,,,,,,,,,,right,1.0,0.6035437919199467,,,,,sub-114,1,random_dot,,
right,right,12.0,0.0,6.0,left,0.0,0.9167072910349816,,accuracy,space,0.785048957914114,,,,,,0.0,0.0,0.0,0.0,6.0,0.0,12.0,1.0,93.68677166686392,,,,,,,,,93.67883491679096,94.47857929184102,95.28034579195082,95.27203933382408,95.27263370901346,95.28034579195082,95.28034579195082,95.28034579195082,96.20524366688916,,,,,,,,,,,,,,,,,,,,,,,,,,,,,,left,0.0,0.9167072910349816,,,,,sub-114,1,random_dot,,
left,left,13.0,1.0,6.0,right,0.0,1.272949208971113,,accuracy,space,0.785048957914114,,,,,,0.0,0.0,0.0,0.0,6.0,1.0,13.0,0.0,96.21390812494792,,,,,,,,,96.20598541689104,97.39515799982472,98.18760441686028,98.17894104192963,98.17940441682003,98.18760441686028,98.18760441686028,98.18760441686028,99.4618115418125,,,,,,,,,,,,,,,,,,,,,,,,,,,,,,right,0.0,1.272949208971113,,,,,sub-114,1,random_dot,,
left,left,14.0,0.0,7.0,left,1.0,0.7811510839965194,,accuracy,space,0.785048957914114,,,,,,0.0,0.0,0.0,0.0,7.0,0.0,14.0,0.0,99.47007758379914,,,,,,,,,99.46236279187724,99.56174249993636,100.35325845889749,100.34522433392704,100.34567262488416,100.35325845889749,100.35325845889749,100.35325845889749,101.13932083384134,,,,,,,,,,,,,,,,,,,,,,,,,,,,,,left,1.0,0.7811510839965194,,,,,sub-114,1,random_dot,,
right,right,15.0,1.0,7.0,right,1.0,0.6653919578529894,,accuracy,space,0.785048957914114,,,,,,0.0,0.0,0.0,0.0,7.0,1.0,15.0,1.0,101.1477738749236,,,,,,,,,101.13993308390492,101.2380597498268,102.02993412478828,102.02175441686995,102.02233183383942,102.02993412478828,102.02993412478828,102.02993412478828,102.70627345889808,,,,,,,,,,,,,,,,,,,,,,,,,,,,,,right,1.0,0.6653919578529894,,,,,sub-114,1,random_dot,,
left,left,16.0,0.0,8.0,right,0.0,0.719301207922399,,accuracy,space,0.785048957914114,,,,,,0.0,0.0,0.0,0.0,8.0,0.0,16.0,0.0,102.71228299988434,,,,,,,,,102.70685616694392,103.05486020888202,103.84700487484224,103.8383987089619,103.8389784169849,103.84700487484224,103.84700487484224,103.84700487484224,104.57110266690142,,,,,,,,,,,,,,,,,,,,,,,,,,,,,,right,0.0,0.719301207922399,,,,,sub-114,1,random_dot,,
right,right,17.0,1.0,8.0,left,0.0,1.236380083952099,,accuracy,space,0.785048957914114,,,,,,0.0,0.0,0.0,0.0,8.0,1.0,17.0,1.0,104.57926604198292,,,,,,,,,104.5716389589943,105.36141566699372,106.1539764998015,106.14513941691256,106.14567866688594,106.1539764998015,106.1539764998015,106.1539764998015,107.39614149997942,,,,,,,,,,,,,,,,,,,,,,,,,,,,,,left,0.0,1.236380083952099,,,,,sub-114,1,random_dot,,
right,right,18.0,0.0,9.0,right,1.0,0.5606619170866907,,accuracy,space,0.785048957914114,,,,,,0.0,0.0,0.0,0.0,9.0,0.0,18.0,1.0,107.40475670900196,,,,,,,,,107.39670287491754,107.74482833384536,108.53652054187842,108.5281442089472,108.52868229197338,108.53652054187842,108.53652054187842,108.53652054187842,109.10530949989334,,,,,,,,,,,,,,,,,,,,,,,,,,,,,,right,1.0,0.5606619170866907,,,,,sub-114,1,random_dot,,
left,left,19.0,1.0,9.0,right,0.0,1.179501875070855,,accuracy,space,0.785048957914114,,,,,,0.0,0.0,0.0,0.0,9.0,1.0,19.0,0.0,109.11147283390164,,,,,,,,,109.10585562488995,110.29530383390374,111.08662645891307,111.07814304181376,111.07860095892102,111.08662645891307,111.08662645891307,111.08662645891307,112.271243291907,,,,,,,,,,,,,,,,,,,,,,,,,,,,,,right,0.0,1.179501875070855,,,,,sub-114,1,random_dot,,
right,right,20.0,0.0,10.0,left,0.0,0.478026167023927,,accuracy,space,0.785048957914114,,,,,,0.0,0.0,0.0,0.0,10.0,0.0,20.0,1.0,112.2795607498847,,,,,,,,,112.2717970837839,113.06142341694796,113.8531572499778,113.84476491692476,113.84533624979667,113.8531572499778,113.8531572499778,113.8531572499778,114.33951012487525,,,,,,,,,,,,,,,,,,,,,,,,,,,,,,left,0.0,0.478026167023927,,,,,sub-114,1,random_dot,,
left,left,21.0,1.0,10.0,right,0.0,0.6126597910188138,,accuracy,space,0.785048957914114,,,,,,0.0,0.0,0.0,0.0,10.0,1.0,21.0,0.0,114.34825979196468,,,,,,,,,114.34025391680188,114.43803929188287,115.23044154187664,115.2217684998177,115.22250787494704,115.23044154187664,115.23044154187664,115.23044154187664,115.8456530419644,,,,,,,,,,,,,,,,,,,,,,,,,,,,,,right,0.0,0.6126597910188138,,,,,sub-114,1,random_dot,,
right,right,22.0,0.0,11.0,right,1.0,0.9395424579270184,,accuracy,space,0.785048957914114,,,,,,0.0,0.0,0.0,0.0,11.0,0.0,22.0,1.0,115.8542317089159,,,,,,,,,115.84617916680872,115.94482191698626,116.73638737481087,116.72801283397712,116.72844441700728,116.73638737481087,116.73638737481087,116.73638737481087,117.68034012499264,,,,,,,,,,,,,,,,,,,,,,,,,,,,,,right,1.0,0.9395424579270184,,,,,sub-114,1,random_dot,,
left,left,23.0,1.0,11.0,left,1.0,0.716037374921143,,accuracy,space,0.785048957914114,,,,,,0.0,0.0,0.0,0.0,11.0,1.0,23.0,0.0,117.70455937483348,,,,,,,,,117.68087683385238,118.47814029199073,119.26982837496324,119.26095770881513,119.26140966685487,119.26982837496324,119.26982837496324,119.26982837496324,119.98813574993984,,,,,,,,,,,,,,,,,,,,,,,,,,,,,,left,1.0,0.716037374921143,,,,,sub-114,1,random_dot,,
right,right,24.0,0.0,12.0,left,0.0,2.1342525421641767,,accuracy,space,0.785048957914114,,,,,,0.0,0.0,0.0,0.0,12.0,0.0,24.0,1.0,119.99666337482633,,,,,,,,,119.98882266692816,120.77809824980795,121.56961512495764,121.56112345890142,121.5615580419544,121.56961512495764,121.56961512495764,121.56961512495764,123.70593941700643,,,,,,,,,,,,,,,,,,,,,,,,,,,,,,left,0.0,2.1342525421641767,,,,,sub-114,1,random_dot,,
left,left,25.0,1.0,12.0,left,1.0,1.5246555840130895,,accuracy,space,0.785048957914114,,,,,,0.0,0.0,0.0,0.0,12.0,1.0,25.0,0.0,123.71466270880774,,,,,,,,,123.70667804195546,123.8047757919412,124.5970494169742,124.58861574996264,124.58937587495892,124.5970494169742,124.5970494169742,124.5970494169742,126.12883237493224,,,,,,,,,,,,,,,,,,,,,,,,,,,,,,left,1.0,1.5246555840130895,,,,,sub-114,1,random_dot,,
right,right,26.0,0.0,13.0,right,1.0,1.4849013749044389,,accuracy,space,0.785048957914114,,,,,,0.0,0.0,0.0,0.0,13.0,0.0,26.0,1.0,126.1373163338285,,,,,,,,,126.12937120883726,126.92820170894264,127.73066683392972,127.72149362484924,127.72229125001468,127.73066683392972,127.73066683392972,127.73066683392972,129.22257070895284,,,,,,,,,,,,,,,,,,,,,,,,,,,,,,right,1.0,1.4849013749044389,,,,,sub-114,1,random_dot,,
left,left,27.0,1.0,13.0,left,1.0,1.5551535421982408,,accuracy,space,0.785048957914114,,,,,,0.0,0.0,0.0,0.0,13.0,1.0,27.0,0.0,129.23132087499835,,,,,,,,,129.22332562482916,129.5714264998678,130.36352245882154,130.3547949998174,130.3555652089417,130.36352245882154,130.36352245882154,130.36352245882154,131.9223543338012,,,,,,,,,,,,,,,,,,,,,,,,,,,,,,left,1.0,1.5551535421982408,,,,,sub-114,1,random_dot,,
right,right,28.0,0.0,14.0,right,1.0,1.202593166846782,,accuracy,space,0.785048957914114,,,,,,0.0,0.0,0.0,0.0,14.0,0.0,28.0,1.0,131.93081358401105,,,,,,,,,131.922974166926,132.72085466701537,133.51293008378707,133.50484537496231,133.5054287919775,133.51293008378707,133.51293008378707,133.51293008378707,134.7210124169942,,,,,,,,,,,,,,,,,,,,,,,,,,,,,,right,1.0,1.202593166846782,,,,,sub-114,1,random_dot,,
left,left,29.0,1.0,14.0,left,1.0,0.9206712089944632,,accuracy,space,0.785048957914114,,,,,,0.0,0.0,0.0,0.0,14.0,1.0,29.0,0.0,134.72929029189982,,,,,,,,,134.72158320900053,134.81072983378544,135.6028166669421,135.59425766696222,135.59469520882703,135.6028166669421,135.6028166669421,135.6028166669421,136.5304567918647,,,,,,,,,,,,,,,,,,,,,,,,,,,,,,left,1.0,0.9206712089944632,,,,,sub-114,1,random_dot,,
left,left,30.0,0.0,15.0,left,1.0,1.7373471660539508,,accuracy,space,0.785048957914114,,,,,,0.0,0.0,0.0,0.0,15.0,0.0,30.0,0.0,136.53944245888852,,,,,,,,,136.5309919998981,137.32730408385396,138.12102270894684,138.11188579187728,138.11246954184026,138.12102270894684,138.12102270894684,138.12102270894684,139.8627732088789,,,,,,,,,,,,,,,,,,,,,,,,,,,,,,left,1.0,1.7373471660539508,,,,,sub-114,1,random_dot,,
right,right,31.0,1.0,15.0,right,1.0,1.754321999847889,,accuracy,space,0.785048957914114,,,,,,0.0,0.0,0.0,0.0,15.0,1.0,31.0,1.0,139.87151458393782,,,,,,,,,139.86331470892765,141.06121549988163,141.8529194998555,141.84399195900187,141.84446254186332,141.8529194998555,141.8529194998555,141.8529194998555,143.6132839168422,,,,,,,,,,,,,,,,,,,,,,,,,,,,,,right,1.0,1.754321999847889,,,,,sub-114,1,random_dot,,
left,left,32.0,0.0,16.0,right,0.0,0.7146022079978138,,accuracy,space,0.785048957914114,,,,,,0.0,0.0,0.0,0.0,16.0,0.0,32.0,0.0,143.6374577919487,,,,,,,,,143.61381775001064,144.81066008401103,145.60266616684385,145.5941229998134,145.5946182089392,145.60266616684385,145.60266616684385,145.60266616684385,146.3211976669263,,,,,,,,,,,,,,,,,,,,,,,,,,,,,,right,0.0,0.7146022079978138,,,,,sub-114,1,random_dot,,
right,right,33.0,1.0,16.0,right,1.0,1.6053997920826075,,accuracy,space,0.785048957914114,,,,,,0.0,0.0,0.0,0.0,16.0,1.0,33.0,1.0,146.32937708380632,,,,,,,,,146.32176912482828,147.11166674993,147.90268487483263,147.89474137499928,147.89521158393472,147.90268487483263,147.90268487483263,147.90268487483263,149.51298716687597,,,,,,,,,,,,,,,,,,,,,,,,,,,,,,right,1.0,1.6053997920826075,,,,,sub-114,1,random_dot,,
left,left,34.0,0.0,17.0,left,1.0,0.3721018331125378,,accuracy,space,0.785048957914114,,,,,,0.0,0.0,0.0,0.0,17.0,0.0,34.0,0.0,149.52181466692127,,,,,,,,,149.51355320890434,149.86037783394568,150.65283058397472,150.64384937495925,150.6443097498268,150.65283058397472,150.65283058397472,150.65283058397472,151.02805733401328,,,,,,,,,,,,,,,,,,,,,,,,,,,,,,left,1.0,0.3721018331125378,,,,,sub-114,1,random_dot,,
right,right,35.0,1.0,17.0,right,1.0,0.500379916979,,accuracy,space,0.785048957914114,,,,,,0.0,0.0,0.0,0.0,17.0,1.0,35.0,1.0,151.03621687483974,,,,,,,,,151.02861016686074,151.8273320000153,152.61953520891257,152.61100591695867,152.61155645898543,152.61953520891257,152.61953520891257,152.61953520891257,153.13121058396064,,,,,,,,,,,,,,,,,,,,,,,,,,,,,,right,1.0,0.500379916979,,,,,sub-114,1,random_dot,,
right,right,36.0,0.0,18.0,left,0.0,0.8902289171237499,,accuracy,space,0.785048957914114,,,,,,0.0,0.0,0.0,0.0,18.0,0.0,36.0,1.0,153.13637233385816,,,,,,,,,153.13173629180528,154.32791929179805,155.12060120888054,155.11154183396138,155.11209995881654,155.12060120888054,155.12060120888054,155.12060120888054,156.01209183386527,,,,,,,,,,,,,,,,,,,,,,,,,,,,,,left,0.0,0.8902289171237499,,,,,sub-114,1,random_dot,,
left,left,37.0,1.0,18.0,left,1.0,1.4169863748829812,,accuracy,space,0.785048957914114,,,,,,0.0,0.0,0.0,0.0,18.0,1.0,37.0,0.0,156.01938354200684,,,,,,,,,156.01250612479635,156.11109829181805,156.90280149993487,156.8946531249676,156.89509770879522,156.90280149993487,156.90280149993487,156.90280149993487,158.33066441700794,,,,,,,,,,,,,,,,,,,,,,,,,,,,,,left,1.0,1.4169863748829812,,,,,sub-114,1,random_dot,,
left,left,38.0,0.0,19.0,right,0.0,1.7347698339726776,,accuracy,space,0.785048957914114,,,,,,0.0,0.0,0.0,0.0,19.0,0.0,38.0,0.0,158.33630745881237,,,,,,,,,158.33118920889683,159.12499983399175,159.9198009998072,159.91178008378483,159.91232495894656,159.9198009998072,159.9198009998072,159.9198009998072,161.66456308378838,,,,,,,,,,,,,,,,,,,,,,,,,,,,,,right,0.0,1.7347698339726776,,,,,sub-114,1,random_dot,,
right,right,39.0,1.0,19.0,right,1.0,0.6349687499459833,,accuracy,space,0.785048957914114,,,,,,0.0,0.0,0.0,0.0,19.0,1.0,39.0,1.0,161.67078737495467,,,,,,,,,161.66512158396654,162.86108583398163,163.6526132498402,163.64415508392267,163.64469020883553,163.6526132498402,163.6526132498402,163.6526132498402,164.29805462481454,,,,,,,,,,,,,,,,,,,,,,,,,,,,,,right,1.0,0.6349687499459833,,,,,sub-114,1,random_dot,,
left,left,40.0,0.0,20.0,right,0.0,1.729138124966994,,accuracy,space,0.785048957914114,,,,,,0.0,0.0,0.0,0.0,20.0,0.0,40.0,0.0,164.30422549997456,,,,,,,,,164.29856974980794,164.3944424588699,165.18631349992938,165.17714649997652,165.17758625000715,165.18631349992938,165.18631349992938,165.18631349992938,166.9205095418729,,,,,,,,,,,,,,,,,,,,,,,,,,,,,,right,0.0,1.729138124966994,,,,,sub-114,1,random_dot,,
right,right,41.0,1.0,20.0,left,0.0,0.7709570000879467,,accuracy,space,0.785048957914114,,,,,,0.0,0.0,0.0,0.0,20.0,1.0,41.0,1.0,166.9286637918558,,,,,,,,,166.92104695900343,167.7102961668279,168.5025517088361,168.49399758386426,168.4945379998535,168.5025517088361,168.5025517088361,168.5025517088361,169.27940662484616,,,,,,,,,,,,,,,,,,,,,,,,,,,,,,left,0.0,0.7709570000879467,,,,,sub-114,1,random_dot,,
right,right,42.0,0.0,21.0,right,1.0,0.6031700000166893,,accuracy,space,0.785048957914114,,,,,,0.0,0.0,0.0,0.0,21.0,0.0,42.0,1.0,169.28799374983646,,,,,,,,,169.27991741686128,170.4775494588539,171.26922416687012,171.26040958380327,171.260857374873,171.26922416687012,171.26922416687012,171.26922416687012,171.8786774999462,,,,,,,,,,,,,,,,,,,,,,,,,,,,,,right,1.0,0.6031700000166893,,,,,sub-114,1,random_dot,,
left,left,43.0,1.0,21.0,right,0.0,1.0451250409241766,,accuracy,space,0.785048957914114,,,,,,0.0,0.0,0.0,0.0,21.0,1.0,43.0,0.0,171.88681658380665,,,,,,,,,171.87922979192808,172.67779908399098,173.46914891689084,173.46107716695406,173.46151758381166,173.46914891689084,173.46914891689084,173.46914891689084,174.52048466680571,,,,,,,,,,,,,,,,,,,,,,,,,,,,,,right,0.0,1.0451250409241766,,,,,sub-114,1,random_dot,,
right,right,44.0,0.0,22.0,left,0.0,0.587668458931148,,accuracy,space,0.785048957914114,,,,,,0.0,0.0,0.0,0.0,22.0,0.0,44.0,1.0,174.52853499981575,,,,,,,,,174.521055374993,175.71114395884797,176.50259604188614,176.49444770882835,176.4949065418914,176.50259604188614,176.50259604188614,176.50259604188614,177.09423908381723,,,,,,,,,,,,,,,,,,,,,,,,,,,,,,left,0.0,0.587668458931148,,,,,sub-114,1,random_dot,,
left,left,45.0,1.0,22.0,right,0.0,0.8859959999099374,,accuracy,space,0.785048957914114,,,,,,0.0,0.0,0.0,0.0,22.0,1.0,45.0,0.0,177.10249766684137,,,,,,,,,177.09476295881905,178.29454479180276,179.08718220889568,179.07829008391127,179.07884849980474,179.08718220889568,179.08718220889568,179.08718220889568,179.9792300418485,,,,,,,,,,,,,,,,,,,,,,,,,,,,,,right,0.0,0.8859959999099374,,,,,sub-114,1,random_dot,,
left,left,46.0,0.0,23.0,left,1.0,0.7697301669977605,,accuracy,space,0.785048957914114,,,,,,0.0,0.0,0.0,0.0,23.0,0.0,46.0,0.0,179.98763004201464,,,,,,,,,179.9797580000013,180.32777129183523,181.1294046249241,181.1215214999393,181.1220014169812,181.1294046249241,181.1294046249241,181.1294046249241,181.90427741687745,,,,,,,,,,,,,,,,,,,,,,,,,,,,,,left,1.0,0.7697301669977605,,,,,sub-114,1,random_dot,,
right,right,47.0,1.0,23.0,right,1.0,0.3332603750750422,,accuracy,space,0.785048957914114,,,,,,0.0,0.0,0.0,0.0,23.0,1.0,47.0,1.0,181.91266141692176,,,,,,,,,181.905056708958,182.6945733749308,183.48577395896427,183.4771434587892,183.4776002499275,183.48577395896427,183.48577395896427,183.48577395896427,183.8210801668465,,,,,,,,,,,,,,,,,,,,,,,,,,,,,,right,1.0,0.3332603750750422,,,,,sub-114,1,random_dot,,
left,left,48.0,0.0,24.0,right,0.0,1.1214922091457993,,accuracy,space,0.785048957914114,,,,,,0.0,0.0,0.0,0.0,24.0,0.0,48.0,0.0,183.82915683393367,,,,,,,,,183.82160933385603,185.0092435840052,185.80241674999704,185.79393116687424,185.7944829999469,185.80241674999704,185.80241674999704,185.80241674999704,186.92743770894597,,,,,,,,,,,,,,,,,,,,,,,,,,,,,,right,0.0,1.1214922091457993,,,,,sub-114,1,random_dot,,
right,right,49.0,1.0,24.0,right,1.0,0.802888749865815,,accuracy,space,0.785048957914114,,,,,,0.0,0.0,0.0,0.0,24.0,1.0,49.0,1.0,186.93579895887524,,,,,,,,,186.9279612498358,187.0207629587967,187.8128927089274,187.8041344999801,187.80487779178657,187.8128927089274,187.8128927089274,187.8128927089274,188.6211782919709,,,,,,,,,,,,,,,,,,,,,,,,,,,,,,right,1.0,0.802888749865815,,,,,sub-114,1,random_dot,,
left,left,50.0,0.0,25.0,left,1.0,1.007385125150904,,accuracy,space,0.785048957914114,,,,,,0.0,0.0,0.0,0.0,25.0,0.0,50.0,0.0,188.62942566699348,,,,,,,,,188.62196554197,188.9602915837895,189.75242587481625,189.74422487500124,189.7446707088966,189.75242587481625,189.75242587481625,189.75242587481625,190.77020274987444,,,,,,,,,,,,,,,,,,,,,,,,,,,,,,left,1.0,1.007385125150904,,,,,sub-114,1,random_dot,,
right,right,51.0,1.0,25.0,right,1.0,1.3784394999966023,,accuracy,space,0.785048957914114,,,,,,0.0,0.0,0.0,0.0,25.0,1.0,51.0,1.0,190.77592937485315,,,,,,,,,190.77075054193847,191.56107804179192,192.35233208397403,192.3444494169671,192.344880833989,192.35233208397403,192.35233208397403,192.35233208397403,193.73727716691792,,,,,,,,,,,,,,,,,,,,,,,,,,,,,,right,1.0,1.3784394999966023,,,,,sub-114,1,random_dot,,
left,left,52.0,0.0,26.0,left,1.0,0.9620371249038726,,accuracy,space,0.785048957914114,,,,,,0.0,0.0,0.0,0.0,26.0,0.0,52.0,0.0,193.74580249981955,,,,,,,,,193.73803374986164,194.07823587488383,194.87957733380608,194.8709133749362,194.8716710419394,194.87957733380608,194.87957733380608,194.87957733380608,195.84559437492865,,,,,,,,,,,,,,,,,,,,,,,,,,,,,,left,1.0,0.9620371249038726,,,,,sub-114,1,random_dot,,
right,right,53.0,1.0,26.0,right,1.0,1.6466902079991996,,accuracy,space,0.785048957914114,,,,,,0.0,0.0,0.0,0.0,26.0,1.0,53.0,1.0,195.85423641698435,,,,,,,,,195.84613629197705,196.6435078748036,197.43590274988676,197.42675037495792,197.4272054168396,197.43590274988676,197.43590274988676,197.43590274988676,199.08808108395897,,,,,,,,,,,,,,,,,,,,,,,,,,,,,,right,1.0,1.6466902079991996,,,,,sub-114,1,random_dot,,
left,left,54.0,0.0,27.0,left,1.0,0.8523887910414487,,accuracy,space,0.785048957914114,,,,,,0.0,0.0,0.0,0.0,27.0,0.0,54.0,0.0,199.10396799980663,,,,,,,,,199.08864704193547,199.18725837487727,199.97937354189344,199.97122199996372,199.9719604998827,199.97937354189344,199.97937354189344,199.97937354189344,200.83711149985905,,,,,,,,,,,,,,,,,,,,,,,,,,,,,,left,1.0,0.8523887910414487,,,,,sub-114,1,random_dot,,
right,right,55.0,1.0,27.0,left,0.0,2.5495309999678284,,accuracy,space,0.785048957914114,,,,,,0.0,0.0,0.0,0.0,27.0,1.0,55.0,1.0,200.8450708747841,,,,,,,,,200.83764795889147,200.9270228338428,201.71891379193403,201.71073549985888,201.71119645889848,201.71891379193403,201.71891379193403,201.71891379193403,204.27127974992615,,,,,,,,,,,,,,,,,,,,,,,,,,,,,,left,0.0,2.5495309999678284,,,,,sub-114,1,random_dot,,
right,right,56.0,0.0,28.0,right,1.0,1.3982674998696891,,accuracy,space,0.785048957914114,,,,,,0.0,0.0,0.0,0.0,28.0,0.0,56.0,1.0,204.27955258381556,,,,,,,,,204.2718804588076,204.35931766685096,205.15209666686133,205.1435875419993,205.1440236249473,205.15209666686133,205.15209666686133,205.15209666686133,206.5540183749981,,,,,,,,,,,,,,,,,,,,,,,,,,,,,,right,1.0,1.3982674998696891,,,,,sub-114,1,random_dot,,
left,left,57.0,1.0,28.0,left,1.0,1.2527065421454608,,accuracy,space,0.785048957914114,,,,,,0.0,0.0,0.0,0.0,28.0,1.0,57.0,0.0,206.56224387488328,,,,,,,,,206.55474374978803,206.89293550001457,207.68558591697365,207.6770799998194,207.67766904179007,207.68558591697365,207.68558591697365,207.68558591697365,208.94443891686387,,,,,,,,,,,,,,,,,,,,,,,,,,,,,,left,1.0,1.2527065421454608,,,,,sub-114,1,random_dot,,
left,left,58.0,0.0,29.0,right,0.0,1.2364104168955237,,accuracy,space,0.785048957914114,,,,,,0.0,0.0,0.0,0.0,29.0,0.0,58.0,0.0,208.9524787499104,,,,,,,,,208.94496054179035,209.29354324983436,210.0858271250036,210.07657683384605,210.0770309998188,210.0858271250036,210.0858271250036,210.0858271250036,211.32856287481263,,,,,,,,,,,,,,,,,,,,,,,,,,,,,,right,0.0,1.2364104168955237,,,,,sub-114,1,random_dot,,
right,right,59.0,1.0,29.0,left,0.0,0.7121796670835465,,accuracy,space,0.785048957914114,,,,,,0.0,0.0,0.0,0.0,29.0,1.0,59.0,1.0,211.33736108383164,,,,,,,,,211.32914595888,212.5268821248319,213.31882187491283,213.31002054200508,213.3105952090118,213.31882187491283,213.31882187491283,213.31882187491283,214.03825812484135,,,,,,,,,,,,,,,,,,,,,,,,,,,,,,left,0.0,0.7121796670835465,,,,,sub-114,1,random_dot,,
,,0.0,0.0,0.0,,,,,accuracy,space,0.785048957914114,,,,,,0.0,0.0,0.0,0.0,,,,,,,,,,,,,,,,,,,,,,,,,,,,,,,,,,,,,,,,,,,,,,,,,,,,,,,,,,,sub-114,1,random_dot,,
left,left,0.0,0.0,0.0,right,0.0,0.4672768330201506,,speed,space,4.687841374892741,,,,,,0.0,1.0,1.0,1.0,0.0,0.0,0.0,0.0,218.7879984998144,,,,,,,,,218.7807707088068,219.55943991686215,220.35206229193136,220.34331354196183,220.34388816682625,220.35206229193136,220.35206229193136,220.35206229193136,220.8219560419675,,,,,,,,,,,,,,,,,,,,,,,214.0629471668508,214.06900283391587,214.06900283391587,218.76128124981187,space,4.687841374892741,,right,0.0,0.4672768330201506,,,,,sub-114,1,random_dot,,
right,right,1.0,1.0,0.0,left,0.0,0.3998830409254879,,speed,space,4.687841374892741,,,,,,0.0,1.0,1.0,1.0,0.0,1.0,1.0,1.0,220.830605374882,,,,,,,,,220.82272408390415,221.62033449998123,222.42040833388452,222.4071409588214,222.4076234998647,222.42040833388452,222.42040833388452,222.42040833388452,222.82771595893428,,,,,,,,,,,,,,,,,,,,,,,,,,,,,,left,0.0,0.3998830409254879,,,,,sub-114,1,random_dot,,
left,left,2.0,0.0,1.0,right,0.0,0.5078387919347733,,speed,space,4.687841374892741,,,,,,0.0,1.0,1.0,1.0,1.0,0.0,2.0,0.0,222.835495834006,,,,,,,,,222.82825929182584,222.92751537496224,223.7293326249346,223.72078549978323,223.72137670894156,223.7293326249346,223.7293326249346,223.7293326249346,224.24648324982263,,,,,,,,,,,,,,,,,,,,,,,,,,,,,,right,0.0,0.5078387919347733,,,,,sub-114,1,random_dot,,
right,right,3.0,1.0,1.0,left,0.0,0.3478623749688267,,speed,space,4.687841374892741,,,,,,0.0,1.0,1.0,1.0,1.0,1.0,3.0,1.0,224.25208845897575,,,,,,,,,224.2468599998392,224.34397524991076,225.145389250014,225.1372938340064,225.13787058391608,225.145389250014,225.145389250014,225.145389250014,225.4950420837849,,,,,,,,,,,,,,,,,,,,,,,,,,,,,,left,0.0,0.3478623749688267,,,,,sub-114,1,random_dot,,
left,left,4.0,0.0,2.0,right,0.0,0.6726594588253647,,speed,space,4.687841374892741,,,,,,0.0,1.0,1.0,1.0,2.0,0.0,4.0,0.0,225.50307295890525,,,,,,,,,225.49553712480704,226.69362549996004,227.48553337482736,227.47745408397168,227.4778868749272,227.48553337482736,227.48553337482736,227.48553337482736,228.1604756668676,,,,,,,,,,,,,,,,,,,,,,,,,,,,,,right,0.0,0.6726594588253647,,,,,sub-114,1,random_dot,,
right,right,5.0,1.0,2.0,left,0.0,0.5390414169523865,,speed,space,4.687841374892741,,,,,,0.0,1.0,1.0,1.0,2.0,1.0,5.0,1.0,228.1686982498504,,,,,,,,,228.1610235418193,228.954074958805,229.74590429198,229.7371740418021,229.7379610419739,229.74590429198,229.74590429198,229.74590429198,230.28662904188968,,,,,,,,,,,,,,,,,,,,,,,,,,,,,,left,0.0,0.5390414169523865,,,,,sub-114,1,random_dot,,
right,right,6.0,0.0,3.0,right,1.0,0.2544384580105543,,speed,space,4.687841374892741,,,,,,0.0,1.0,1.0,1.0,3.0,0.0,6.0,1.0,230.2944795419462,,,,,,,,,230.28714649984613,231.0774499590043,231.86860570893623,231.86018437496384,231.86061791679825,231.86860570893623,231.86860570893623,231.86860570893623,232.12704633385877,,,,,,,,,,,,,,,,,,,,,,,,,,,,,,right,1.0,0.2544384580105543,,,,,sub-114,1,random_dot,,
left,left,7.0,1.0,3.0,right,0.0,0.3990325841587037,,speed,space,4.687841374892741,,,,,,0.0,1.0,1.0,1.0,3.0,1.0,7.0,0.0,232.1353511668276,,,,,,,,,232.1276092499029,232.91996316681616,233.71289433399212,233.7041187088471,233.70488379197195,233.71289433399212,233.71289433399212,233.71289433399212,234.1204355419613,,,,,,,,,,,,,,,,,,,,,,,,,,,,,,right,0.0,0.3990325841587037,,,,,sub-114,1,random_dot,,
right,right,8.0,0.0,4.0,left,0.0,0.4609429999254644,,speed,space,4.687841374892741,,,,,,0.0,1.0,1.0,1.0,4.0,0.0,8.0,1.0,234.1283308339771,,,,,,,,,234.12096737488173,235.31101495889013,236.1019804168027,236.09365274989975,236.0940912498627,236.1019804168027,236.1019804168027,236.1019804168027,236.57137162494476,,,,,,,,,,,,,,,,,,,,,,,,,,,,,,left,0.0,0.4609429999254644,,,,,sub-114,1,random_dot,,
left,left,9.0,1.0,4.0,right,0.0,0.4188701671082526,,speed,space,4.687841374892741,,,,,,0.0,1.0,1.0,1.0,4.0,1.0,9.0,0.0,236.57927283388565,,,,,,,,,236.5719463748392,236.67015274986625,237.4629829588812,237.45406416687183,237.45480862492693,237.4629829588812,237.4629829588812,237.4629829588812,237.88687437493357,,,,,,,,,,,,,,,,,,,,,,,,,,,,,,right,0.0,0.4188701671082526,,,,,sub-114,1,random_dot,,
left,left,10.0,0.0,5.0,left,1.0,0.4111696248874068,,speed,space,4.687841374892741,,,,,,0.0,1.0,1.0,1.0,5.0,0.0,10.0,0.0,237.89454845897853,,,,,,,,,237.88739070878364,238.226339292014,239.01855816692117,239.01032870891504,239.0108887918759,239.01855816692117,239.01855816692117,239.01855816692117,239.43689916678704,,,,,,,,,,,,,,,,,,,,,,,,,,,,,,left,1.0,0.4111696248874068,,,,,sub-114,1,random_dot,,
right,right,11.0,1.0,5.0,right,1.0,1.417105457978323,,speed,space,4.687841374892741,,,,,,0.0,1.0,1.0,1.0,5.0,1.0,11.0,1.0,239.4450819999911,,,,,,,,,239.4376119999215,240.6270203748718,241.41953224991448,241.41055954201147,241.41113316686824,241.41953224991448,241.41953224991448,241.41953224991448,242.84385237493552,,,,,,,,,,,,,,,,,,,,,,,,,,,,,,right,1.0,1.417105457978323,,,,,sub-114,1,random_dot,,
right,right,12.0,0.0,6.0,left,0.0,0.4483711251523345,,speed,space,4.687841374892741,,,,,,0.0,1.0,1.0,1.0,6.0,0.0,12.0,1.0,242.85209574992768,,,,,,,,,242.8444099170156,243.19409791682847,243.9961307919584,243.98731695883907,243.988132041879,243.9961307919584,243.9961307919584,243.9961307919584,244.4541794587858,,,,,,,,,,,,,,,,,,,,,,,,,,,,,,left,0.0,0.4483711251523345,,,,,sub-114,1,random_dot,,
left,left,13.0,1.0,6.0,left,1.0,0.9317982499487698,,speed,space,4.687841374892741,,,,,,0.0,1.0,1.0,1.0,6.0,1.0,13.0,0.0,244.46315366681665,,,,,,,,,244.45505549991503,245.25375712499957,246.0456842919812,246.03691962501037,246.03768874984237,246.0456842919812,246.0456842919812,246.0456842919812,246.9885073748883,,,,,,,,,,,,,,,,,,,,,,,,,,,,,,left,1.0,0.9317982499487698,,,,,sub-114,1,random_dot,,
left,left,14.0,0.0,7.0,left,1.0,0.8033092499244958,,speed,space,4.687841374892741,,,,,,0.0,1.0,1.0,1.0,7.0,0.0,14.0,0.0,246.99453204195012,,,,,,,,,246.9891141247936,248.1864984589629,248.9791279998608,248.9701125419233,248.97089770878665,248.9791279998608,248.9791279998608,248.9791279998608,249.78676366689612,,,,,,,,,,,,,,,,,,,,,,,,,,,,,,left,1.0,0.8033092499244958,,,,,sub-114,1,random_dot,,
right,right,15.0,1.0,7.0,right,1.0,0.9654599998611956,,speed,space,4.687841374892741,,,,,,0.0,1.0,1.0,1.0,7.0,1.0,15.0,1.0,249.7950619589537,,,,,,,,,249.78731383383277,250.97677108389323,251.76893545896743,251.760763874976,251.76125379186124,251.76893545896743,251.76893545896743,251.76893545896743,252.73718208400533,,,,,,,,,,,,,,,,,,,,,,,,,,,,,,right,1.0,0.9654599998611956,,,,,sub-114,1,random_dot,,
left,left,16.0,0.0,8.0,left,1.0,0.7362490831874311,,speed,space,4.687841374892741,,,,,,0.0,1.0,1.0,1.0,8.0,0.0,16.0,0.0,252.74639691691848,,,,,,,,,252.7380448339973,253.07708404189907,253.8789214589633,253.87043241690844,253.87104258383624,253.8789214589633,253.8789214589633,253.8789214589633,254.6201493749395,,,,,,,,,,,,,,,,,,,,,,,,,,,,,,left,1.0,0.7362490831874311,,,,,sub-114,1,random_dot,,
right,right,17.0,1.0,8.0,right,1.0,0.7626080419868231,,speed,space,4.687841374892741,,,,,,0.0,1.0,1.0,1.0,8.0,1.0,17.0,1.0,254.62850949983115,,,,,,,,,254.62071924982592,254.95980524993504,255.75169391697276,255.74280916689892,255.7432549588848,255.75169391697276,255.75169391697276,255.75169391697276,256.5201679170132,,,,,,,,,,,,,,,,,,,,,,,,,,,,,,right,1.0,0.7626080419868231,,,,,sub-114,1,random_dot,,
left,left,18.0,0.0,9.0,left,1.0,0.6354169580154121,,speed,space,4.687841374892741,,,,,,0.0,1.0,1.0,1.0,9.0,0.0,18.0,0.0,256.5283877919428,,,,,,,,,256.5207158338744,256.60966866696253,257.4016599999741,257.39307524985634,257.39351120893843,257.4016599999741,257.4016599999741,257.4016599999741,258.0440710419789,,,,,,,,,,,,,,,,,,,,,,,,,,,,,,left,1.0,0.6354169580154121,,,,,sub-114,1,random_dot,,
right,right,19.0,1.0,9.0,left,0.0,0.9857448330149056,,speed,space,4.687841374892741,,,,,,0.0,1.0,1.0,1.0,9.0,1.0,19.0,1.0,258.05201699980535,,,,,,,,,258.04458970879205,258.8432882919442,259.6444129999727,259.63653149991296,259.6373127498664,259.6444129999727,259.6444129999727,259.6444129999727,260.63769424986094,,,,,,,,,,,,,,,,,,,,,,,,,,,,,,left,0.0,0.9857448330149056,,,,,sub-114,1,random_dot,,
left,left,20.0,0.0,10.0,left,1.0,1.580247333040461,,speed,space,4.687841374892741,,,,,,0.0,1.0,1.0,1.0,10.0,0.0,20.0,0.0,260.64529725001194,,,,,,,,,260.63823395897634,260.7368712499738,261.52885170886293,261.52013379195705,261.5208924168255,261.52885170886293,261.52885170886293,261.52885170886293,263.1111526249442,,,,,,,,,,,,,,,,,,,,,,,,,,,,,,left,1.0,1.580247333040461,,,,,sub-114,1,random_dot,,
right,right,21.0,1.0,10.0,left,0.0,1.4462578748352826,,speed,space,4.687841374892741,,,,,,0.0,1.0,1.0,1.0,10.0,1.0,21.0,1.0,263.1193560839165,,,,,,,,,263.1116788338404,263.20962441689335,264.00173870893195,263.99271941697225,263.99315308383666,264.00173870893195,264.00173870893195,264.00173870893195,265.4529216669034,,,,,,,,,,,,,,,,,,,,,,,,,,,,,,left,0.0,1.4462578748352826,,,,,sub-114,1,random_dot,,
right,right,22.0,0.0,11.0,left,0.0,1.858860292006284,,speed,space,4.687841374892741,,,,,,0.0,1.0,1.0,1.0,11.0,0.0,22.0,1.0,265.4606118749361,,,,,,,,,265.4534573748242,265.5436896670144,266.33499087486416,266.3265265838709,266.3270631248597,266.33499087486416,266.33499087486416,266.33499087486416,268.2051352499984,,,,,,,,,,,,,,,,,,,,,,,,,,,,,,left,0.0,1.858860292006284,,,,,sub-114,1,random_dot,,
left,left,23.0,1.0,11.0,right,0.0,0.2588520841673016,,speed,space,4.687841374892741,,,,,,0.0,1.0,1.0,1.0,11.0,1.0,23.0,0.0,268.2111969999969,,,,,,,,,268.2056991248392,268.3032171248924,269.0950274169445,269.0867024587933,269.0874755419791,269.0950274169445,269.0950274169445,269.0950274169445,269.36065370892175,,,,,,,,,,,,,,,,,,,,,,,,,,,,,,right,0.0,0.2588520841673016,,,,,sub-114,1,random_dot,,
right,right,24.0,0.0,12.0,left,0.0,0.6299048329237849,,speed,space,4.687841374892741,,,,,,0.0,1.0,1.0,1.0,12.0,0.0,24.0,1.0,269.3685257087928,,,,,,,,,269.3611929588951,269.46012354199775,270.25198766682297,270.24389024986885,270.24434045888484,270.25198766682297,270.25198766682297,270.25198766682297,270.8877745838836,,,,,,,,,,,,,,,,,,,,,,,,,,,,,,left,0.0,0.6299048329237849,,,,,sub-114,1,random_dot,,
left,left,25.0,1.0,12.0,left,1.0,0.9298857499379664,,speed,space,4.687841374892741,,,,,,0.0,1.0,1.0,1.0,12.0,1.0,25.0,0.0,270.8957932088524,,,,,,,,,270.88835687492974,272.0863212919794,272.8779334588908,272.87010379182175,272.87070495891385,272.8779334588908,272.8779334588908,272.8779334588908,273.8103534998372,,,,,,,,,,,,,,,,,,,,,,,,,,,,,,left,1.0,0.9298857499379664,,,,,sub-114,1,random_dot,,
left,left,26.0,0.0,13.0,left,1.0,1.2294780409429222,,speed,space,4.687841374892741,,,,,,0.0,1.0,1.0,1.0,13.0,0.0,26.0,0.0,273.8183526669163,,,,,,,,,273.8108957919758,273.9122889169957,274.7122512089554,274.7035440418404,274.7043534168042,274.7122512089554,274.7122512089554,274.7122512089554,275.94479824998416,,,,,,,,,,,,,,,,,,,,,,,,,,,,,,left,1.0,1.2294780409429222,,,,,sub-114,1,random_dot,,
right,right,27.0,1.0,13.0,left,0.0,1.0270683751441538,,speed,space,4.687841374892741,,,,,,0.0,1.0,1.0,1.0,13.0,1.0,27.0,1.0,275.95304824993946,,,,,,,,,275.94532683398575,276.29351812484674,277.09455429180525,277.0866765419487,277.0872432088945,277.09455429180525,277.09455429180525,277.09455429180525,278.12875154195353,,,,,,,,,,,,,,,,,,,,,,,,,,,,,,left,0.0,1.0270683751441538,,,,,sub-114,1,random_dot,,
left,left,28.0,0.0,14.0,right,0.0,0.6453888749238104,,speed,space,4.687841374892741,,,,,,0.0,1.0,1.0,1.0,14.0,0.0,28.0,0.0,278.1371281668544,,,,,,,,,278.12932066689245,278.22675220901147,279.019103749888,279.01004941691644,279.0106079999823,279.019103749888,279.019103749888,279.019103749888,279.6702167498879,,,,,,,,,,,,,,,,,,,,,,,,,,,,,,right,0.0,0.6453888749238104,,,,,sub-114,1,random_dot,,
right,right,29.0,1.0,14.0,left,0.0,0.7879567909985781,,speed,space,4.687841374892741,,,,,,0.0,1.0,1.0,1.0,14.0,1.0,29.0,1.0,279.67828583391383,,,,,,,,,279.6709519589785,279.7599874997977,280.55160974990577,280.54308566683903,280.54365254193544,280.55160974990577,280.55160974990577,280.55160974990577,281.3449755839538,,,,,,,,,,,,,,,,,,,,,,,,,,,,,,left,0.0,0.7879567909985781,,,,,sub-114,1,random_dot,,
left,left,30.0,0.0,15.0,left,1.0,1.1437294168863446,,speed,space,4.687841374892741,,,,,,0.0,1.0,1.0,1.0,15.0,0.0,30.0,0.0,281.36972208390944,,,,,,,,,281.34553829184733,281.4468358748127,282.2457114998251,282.2369249998592,282.2376819588244,282.2457114998251,282.2457114998251,282.2457114998251,283.39446220896207,,,,,,,,,,,,,,,,,,,,,,,,,,,,,,left,1.0,1.1437294168863446,,,,,sub-114,1,random_dot,,
right,right,31.0,1.0,15.0,right,1.0,0.4085517080966383,,speed,space,4.687841374892741,,,,,,0.0,1.0,1.0,1.0,15.0,1.0,31.0,1.0,283.40259879198857,,,,,,,,,283.3950401248876,284.1932183748577,284.9848709588405,284.9765114588663,284.97694933391176,284.9848709588405,284.9848709588405,284.9848709588405,285.4039918750059,,,,,,,,,,,,,,,,,,,,,,,,,,,,,,right,1.0,0.4085517080966383,,,,,sub-114,1,random_dot,,
left,left,32.0,0.0,16.0,left,1.0,0.357648832956329,,speed,space,4.687841374892741,,,,,,0.0,1.0,1.0,1.0,16.0,0.0,32.0,0.0,285.4095598338172,,,,,,,,,285.4045237498358,285.74333324981853,286.5346986248624,286.5259181249421,286.52634670888074,286.5346986248624,286.5346986248624,286.5346986248624,286.90294849989004,,,,,,,,,,,,,,,,,,,,,,,,,,,,,,left,1.0,0.357648832956329,,,,,sub-114,1,random_dot,,
right,right,33.0,1.0,16.0,right,1.0,0.6217267499305308,,speed,space,4.687841374892741,,,,,,0.0,1.0,1.0,1.0,16.0,1.0,33.0,1.0,286.9087180418428,,,,,,,,,286.90351587487385,287.6934834998101,288.4955399997998,288.48659208393656,288.4873433338944,288.4955399997998,288.4955399997998,288.4955399997998,289.1208575000055,,,,,,,,,,,,,,,,,,,,,,,,,,,,,,right,1.0,0.6217267499305308,,,,,sub-114,1,random_dot,,
left,left,34.0,0.0,17.0,left,1.0,2.2499458328820765,,speed,space,4.687841374892741,,,,,,0.0,1.0,1.0,1.0,17.0,0.0,34.0,0.0,289.1291057500057,,,,,,,,,289.1214497499168,290.3198742088862,291.11281054187566,291.1035427500028,291.1042907088995,291.11281054187566,291.11281054187566,291.11281054187566,293.3694011250045,,,,,,,,,,,,,,,,,,,,,,,,,,,,,,left,1.0,2.2499458328820765,,,,,sub-114,1,random_dot,,
right,right,35.0,1.0,17.0,left,0.0,1.793885666877031,,speed,space,4.687841374892741,,,,,,0.0,1.0,1.0,1.0,17.0,1.0,35.0,1.0,293.377581166802,,,,,,,,,293.3699553338811,293.4592878748663,294.25236170878634,294.2434942498803,294.2440350838005,294.25236170878634,294.25236170878634,294.25236170878634,296.05422733398154,,,,,,,,,,,,,,,,,,,,,,,,,,,,,,left,0.0,1.793885666877031,,,,,sub-114,1,random_dot,,
right,right,36.0,0.0,18.0,right,1.0,3.978817207971588,,speed,space,4.687841374892741,,,,,,0.0,1.0,1.0,1.0,18.0,0.0,36.0,1.0,296.062528999988,,,,,,,,,296.05479837488383,297.2526293338742,298.0454045839142,298.0365710000042,298.0371499999892,298.0454045839142,298.0454045839142,298.0454045839142,302.0274422499351,,,,,,,,,,,,,,,,,,,,,,,,,,,,,,right,1.0,3.978817207971588,,,,,sub-114,1,random_dot,,
left,left,37.0,1.0,18.0,left,1.0,0.5557959580328315,,speed,space,4.687841374892741,,,,,,0.0,1.0,1.0,1.0,18.0,1.0,37.0,0.0,302.0361485418398,,,,,,,,,302.0280115418136,302.8259360839147,303.6180337499827,303.6094933748245,303.6100584589876,303.6180337499827,303.6180337499827,303.6180337499827,304.17643195879646,,,,,,,,,,,,,,,,,,,,,,,,,,,,,,left,1.0,0.5557959580328315,,,,,sub-114,1,random_dot,,
right,right,38.0,0.0,19.0,left,0.0,2.2282088750507683,,speed,space,4.687841374892741,,,,,,0.0,1.0,1.0,1.0,19.0,0.0,38.0,1.0,304.1847792919725,,,,,,,,,304.1769552088808,304.96958879195154,305.7624140419066,305.75329783395864,305.7540358339902,305.7624140419066,305.7624140419066,305.7624140419066,307.9958414589055,,,,,,,,,,,,,,,,,,,,,,,,,,,,,,left,0.0,2.2282088750507683,,,,,sub-114,1,random_dot,,
left,left,39.0,1.0,19.0,right,0.0,0.267140083014965,,speed,space,4.687841374892741,,,,,,0.0,1.0,1.0,1.0,19.0,1.0,39.0,0.0,308.0048695839941,,,,,,,,,307.99639954185113,308.0924681248144,308.8845579170156,308.8761960838456,308.8766357088461,308.8845579170156,308.8845579170156,308.8845579170156,309.1545525838156,,,,,,,,,,,,,,,,,,,,,,,,,,,,,,right,0.0,0.267140083014965,,,,,sub-114,1,random_dot,,
left,left,40.0,0.0,20.0,left,1.0,0.3270223748404532,,speed,space,4.687841374892741,,,,,,0.0,1.0,1.0,1.0,20.0,0.0,40.0,0.0,309.1633448339999,,,,,,,,,309.15533474995755,310.3525192087982,311.14459691685624,311.1363753748592,311.1371607088949,311.14459691685624,311.14459691685624,311.14459691685624,311.4761980418116,,,,,,,,,,,,,,,,,,,,,,,,,,,,,,left,1.0,0.3270223748404532,,,,,sub-114,1,random_dot,,
right,right,41.0,1.0,20.0,right,1.0,0.2795514171011746,,speed,space,4.687841374892741,,,,,,0.0,1.0,1.0,1.0,20.0,1.0,41.0,1.0,311.4845848749392,,,,,,,,,311.47672608378343,312.67632520897314,313.46799704199657,313.4599227500148,313.4604683748912,313.46799704199657,313.46799704199657,313.46799704199657,313.7531055838336,,,,,,,,,,,,,,,,,,,,,,,,,,,,,,right,1.0,0.2795514171011746,,,,,sub-114,1,random_dot,,
left,left,42.0,0.0,21.0,left,1.0,0.4158421249594539,,speed,space,4.687841374892741,,,,,,0.0,1.0,1.0,1.0,21.0,0.0,42.0,0.0,313.76126737496816,,,,,,,,,313.7536697918549,313.8425592498388,314.634566541994,314.6255494169891,314.62599770887755,314.634566541994,314.634566541994,314.634566541994,315.05408616689965,,,,,,,,,,,,,,,,,,,,,,,,,,,,,,left,1.0,0.4158421249594539,,,,,sub-114,1,random_dot,,
right,right,43.0,1.0,21.0,right,1.0,0.2788524578791111,,speed,space,4.687841374892741,,,,,,0.0,1.0,1.0,1.0,21.0,1.0,43.0,1.0,315.0627365419641,,,,,,,,,315.0548599588219,315.15257004182786,315.94466879195534,315.93650008388795,315.9370590839535,315.94466879195534,315.94466879195534,315.94466879195534,316.2280694588553,,,,,,,,,,,,,,,,,,,,,,,,,,,,,,right,1.0,0.2788524578791111,,,,,sub-114,1,random_dot,,
left,left,44.0,0.0,22.0,right,0.0,0.4855523749720305,,speed,space,4.687841374892741,,,,,,0.0,1.0,1.0,1.0,22.0,0.0,44.0,0.0,316.23670916678384,,,,,,,,,316.22859562491067,316.32658141688444,317.1178953750059,317.10947162494995,317.11002474999987,317.1178953750059,317.1178953750059,317.1178953750059,317.6097288338933,,,,,,,,,,,,,,,,,,,,,,,,,,,,,,right,0.0,0.4855523749720305,,,,,sub-114,1,random_dot,,
right,right,45.0,1.0,22.0,left,0.0,0.4190190841909498,,speed,space,4.687841374892741,,,,,,0.0,1.0,1.0,1.0,22.0,1.0,45.0,1.0,317.618093166966,,,,,,,,,317.6102137498092,317.70987320900895,318.5114525419194,318.5029850418214,318.50377483386546,318.5114525419194,318.5114525419194,318.5114525419194,318.9374893750064,,,,,,,,,,,,,,,,,,,,,,,,,,,,,,left,0.0,0.4190190841909498,,,,,sub-114,1,random_dot,,
left,left,46.0,0.0,23.0,left,1.0,0.55722412513569,,speed,space,4.687841374892741,,,,,,0.0,1.0,1.0,1.0,23.0,0.0,46.0,0.0,318.9459739169106,,,,,,,,,318.9382538748905,319.736124166986,320.5289534998592,320.51985616679303,320.52072004182264,320.5289534998592,320.5289534998592,320.5289534998592,321.0977692089509,,,,,,,,,,,,,,,,,,,,,,,,,,,,,,left,1.0,0.55722412513569,,,,,sub-114,1,random_dot,,
right,right,47.0,1.0,23.0,right,1.0,0.7038964580278844,,speed,space,4.687841374892741,,,,,,0.0,1.0,1.0,1.0,23.0,1.0,47.0,1.0,321.119182708906,,,,,,,,,321.09831537492573,321.8928484588396,322.69439462479204,322.6862810838502,322.68684499990195,322.69439462479204,322.69439462479204,322.69439462479204,323.40387708391063,,,,,,,,,,,,,,,,,,,,,,,,,,,,,,right,1.0,0.7038964580278844,,,,,sub-114,1,random_dot,,
left,left,48.0,0.0,24.0,left,1.0,0.4956021250691265,,speed,space,4.687841374892741,,,,,,0.0,1.0,1.0,1.0,24.0,0.0,48.0,0.0,323.4122016248293,,,,,,,,,323.4044442088343,323.7524094998371,324.54462883388624,324.5363132089842,324.53708004183136,324.54462883388624,324.54462883388624,324.54462883388624,325.04488158388995,,,,,,,,,,,,,,,,,,,,,,,,,,,,,,left,1.0,0.4956021250691265,,,,,sub-114,1,random_dot,,
right,right,49.0,1.0,24.0,right,1.0,0.6349468331318349,,speed,space,4.687841374892741,,,,,,0.0,1.0,1.0,1.0,24.0,1.0,49.0,1.0,325.06932666688226,,,,,,,,,325.0454109169077,325.1348669999279,325.9272616249509,325.9195934999734,325.9201529168058,325.9272616249509,325.9272616249509,325.9272616249509,326.5691209998913,,,,,,,,,,,,,,,,,,,,,,,,,,,,,,right,1.0,0.6349468331318349,,,,,sub-114,1,random_dot,,
right,right,50.0,0.0,25.0,left,0.0,0.5651330419350415,,speed,space,4.687841374892741,,,,,,0.0,1.0,1.0,1.0,25.0,0.0,50.0,1.0,326.57726141694,,,,,,,,,326.56965099996887,327.3598003338557,328.1519130838569,328.1428618337959,328.14330033399165,328.1519130838569,328.1519130838569,328.1519130838569,328.7206027919892,,,,,,,,,,,,,,,,,,,,,,,,,,,,,,left,0.0,0.5651330419350415,,,,,sub-114,1,random_dot,,
left,left,51.0,1.0,25.0,right,0.0,1.7109291250817478,,speed,space,4.687841374892741,,,,,,0.0,1.0,1.0,1.0,25.0,1.0,51.0,0.0,328.72897695889696,,,,,,,,,328.72120341681875,329.51927524991333,330.31094049988315,330.3028552089818,330.30347574991174,330.31094049988315,330.31094049988315,330.31094049988315,332.0261787499767,,,,,,,,,,,,,,,,,,,,,,,,,,,,,,right,0.0,1.7109291250817478,,,,,sub-114,1,random_dot,,
left,left,52.0,0.0,26.0,right,0.0,0.6121684580575675,,speed,space,4.687841374892741,,,,,,0.0,1.0,1.0,1.0,26.0,0.0,52.0,0.0,332.0344667499885,,,,,,,,,332.0267286668532,332.12537912488915,332.91883929190226,332.9099597497843,332.9105118748266,332.91883929190226,332.91883929190226,332.91883929190226,333.5357831248548,,,,,,,,,,,,,,,,,,,,,,,,,,,,,,right,0.0,0.6121684580575675,,,,,sub-114,1,random_dot,,
right,right,53.0,1.0,26.0,left,0.0,0.6429240829311311,,speed,space,4.687841374892741,,,,,,0.0,1.0,1.0,1.0,26.0,1.0,53.0,1.0,333.5443086249288,,,,,,,,,333.53636012482457,333.6249073748477,334.4189885419328,334.4079414589796,334.4083678747993,334.4189885419328,334.4189885419328,334.4189885419328,335.0709529169835,,,,,,,,,,,,,,,,,,,,,,,,,,,,,,left,0.0,0.6429240829311311,,,,,sub-114,1,random_dot,,
right,right,54.0,0.0,27.0,left,0.0,0.5612273341976106,,speed,space,4.687841374892741,,,,,,0.0,1.0,1.0,1.0,27.0,0.0,54.0,1.0,335.0796673749573,,,,,,,,,335.07172362483107,335.1688458749559,335.9609914589673,335.9528182919603,335.9534067090135,335.9609914589673,335.9609914589673,335.9609914589673,336.5266718338244,,,,,,,,,,,,,,,,,,,,,,,,,,,,,,left,0.0,0.5612273341976106,,,,,sub-114,1,random_dot,,
left,left,55.0,1.0,27.0,left,1.0,1.9891171669587493,,speed,space,4.687841374892741,,,,,,0.0,1.0,1.0,1.0,27.0,1.0,55.0,0.0,336.5353224168066,,,,,,,,,336.52719820896164,337.7261554999277,338.5175940420013,338.5097978338599,338.510227791965,338.5175940420013,338.5175940420013,338.5175940420013,340.5106834999752,,,,,,,,,,,,,,,,,,,,,,,,,,,,,,left,1.0,1.9891171669587493,,,,,sub-114,1,random_dot,,
left,left,56.0,0.0,28.0,right,0.0,3.655377666000277,,speed,space,4.687841374892741,,,,,,0.0,1.0,1.0,1.0,28.0,0.0,56.0,0.0,340.53562816698104,,,,,,,,,340.51123112486675,340.8586881668307,341.6512740419712,341.64306433382444,341.6436215417925,341.6512740419712,341.6512740419712,341.6512740419712,345.3091804999858,,,,,,,,,,,,,,,,,,,,,,,,,,,,,,right,0.0,3.655377666000277,,,,,sub-114,1,random_dot,,
right,right,57.0,1.0,28.0,right,1.0,2.868181832833216,,speed,space,4.687841374892741,,,,,,0.0,1.0,1.0,1.0,28.0,1.0,57.0,1.0,345.3176010418684,,,,,,,,,345.3097115419805,345.4097339999862,346.2009509589989,346.1927112499252,346.19318224978633,346.2009509589989,346.2009509589989,346.2009509589989,349.07572670886293,,,,,,,,,,,,,,,,,,,,,,,,,,,,,,right,1.0,2.868181832833216,,,,,sub-114,1,random_dot,,
right,right,58.0,0.0,29.0,left,0.0,0.6965144579298794,,speed,space,4.687841374892741,,,,,,0.0,1.0,1.0,1.0,29.0,0.0,58.0,1.0,349.0842430838384,,,,,,,,,349.07624749979004,349.1693055839278,349.96168037480675,349.9530632919632,349.95379766682163,349.96168037480675,349.96168037480675,349.96168037480675,350.6606646669097,,,,,,,,,,,,,,,,,,,,,,,,,,,,,,left,0.0,0.6965144579298794,,,,,sub-114,1,random_dot,,
left,left,59.0,1.0,29.0,left,1.0,0.7182929588016123,,speed,space,4.687841374892741,,,,,,0.0,1.0,1.0,1.0,29.0,1.0,59.0,0.0,350.6692730837967,,,,,,,,,350.6612020418979,350.75848779198714,351.55080849980004,351.54192916699685,351.54238283401355,351.55080849980004,351.55080849980004,351.55080849980004,352.2760723337997,,,,,,,,,,,,,,,,,,,,,,,,,,,,,,left,1.0,0.7182929588016123,,,,,sub-114,1,random_dot,,
,,1.0,1.0,0.0,,,,,speed,space,4.687841374892741,,,,,,0.0,1.0,1.0,1.0,,,,,,,,,,,,,,,,,,,,,,,,,,,,,,,,,,,,,,,,,,,,,,,,,,,,,,,,,,,sub-114,1,random_dot,,
,,,,,,,,,,,,,,,,,,,,,,,,,,,,,,,,,,,,,,,,,,,,,,,,,,,,,,,,,,,,,,,,,,,,,,,,,,,,352.2857117089443,352.2949986248277,357.2858855838422,sub-114,1,random_dot,,
