direction,corrAns,randomInstr,practice_trials.thisRepN,practice_trials.thisTrialN,practice_trials.thisN,practice_trials.thisIndex,instr_trials.thisRepN,instr_trials.thisTrialN,instr_trials.thisN,instr_trials.thisIndex,test_trials.thisRepN,test_trials.thisTrialN,test_trials.thisN,test_trials.thisIndex,thisRow.t,notes,general_instruction.started,textGeneralInstr.started,respGeneralInstr.started,general_instruction.stopped,respGeneralInstr.keys,respGeneralInstr.rt,respGeneralInstr.duration,ITI.started,fixcross.started,fixcross.stopped,ITI.stopped,dots.started,backgroundDots.started,stimulusDots.started,respDots.started,dots.stopped,respDots.keys,respDots.corr,respDots.rt,respDots.duration,feedback.started,textFeedback.started,textFeedback.stopped,feedback.stopped,info.started,textInfo.started,keyRespInfo.started,info.stopped,keyRespInfo.keys,keyRespInfo.rt,keyRespInfo.duration,test_instruction.started,textTestInstr.started,respTestInstr.started,test_instruction.stopped,respTestInstr.keys,respTestInstr.rt,respTestInstr.duration,random_instruction.started,textRandomInstr.started,respRandomInstr.started,random_instruction.stopped,respRandomInstr.keys,respRandomInstr.rt,respRandomInstr.duration,goodbye.started,textGoodbye.started,participant,session,expName,frameRate,Unnamed: 71
,,,,,,,,,,,,,,,,,0.0100278999998408,0.0124211000002105,0.0124211000002105,14.097514000000956,space,23.98663789999955,,,,,,,,,,,,,,,,,,,,,,,,,,,,,,,,,,,,,,,,,,sub-176,1.0,random_dot,59.93612008326343,
left,left,,0.0,0.0,0.0,0.0,,,,,,,,,14.124525500001257,,,,,,,,,14.120987800000876,14.212067300000854,15.011957300001086,14.99541970000064,14.995444899999711,15.011957300001086,15.011957300001086,15.011957300001086,17.278143499999715,left,1.0,12.1722850999995,,17.279147100000046,17.292619200001354,17.79227340000034,17.77702820000013,,,,,,,,,,,,,,,,,,,,,,,,sub-176,1.0,random_dot,59.93612008326343,
right,right,,0.0,1.0,1.0,1.0,,,,,,,,,17.79227340000034,,,,,,,,,17.777766900000643,17.891913900000873,18.69180729999971,18.676145700001143,18.676200300000342,18.69180729999971,18.69180729999971,18.69180729999971,20.208513999999923,right,1.0,11.41454739999972,,20.20913500000097,20.223261600000114,20.722397999999885,20.706347000001188,,,,,,,,,,,,,,,,,,,,,,,,sub-176,1.0,random_dot,59.93612008326343,
left,left,,1.0,0.0,2.0,0.0,,,,,,,,,20.722397999999885,,,,,,,,,20.70664360000046,21.52212230000077,22.321689600001264,22.30633970000053,22.30639809999957,22.321689600001264,22.321689600001264,22.321689600001264,24.18814190000012,left,1.0,11.7774485000009,,24.18878270000096,24.202919700001075,24.70224550000057,24.68582570000035,,,,,,,,,,,,,,,,,,,,,,,,sub-176,1.0,random_dot,59.93612008326343,
right,right,,1.0,1.0,3.0,1.0,,,,,,,,,24.70224550000057,,,,,,,,,24.686170500001023,25.052205500000127,25.868329599999925,25.85159730000123,25.851615100000345,25.868329599999925,25.868329599999925,25.868329599999925,28.38295720000133,right,1.0,12.42454699999871,,28.38323769999988,28.39863510000032,28.898489999999583,28.882406900000205,,,,,,,,,,,,,,,,,,,,,,,,sub-176,1.0,random_dot,59.93612008326343,
left,left,,2.0,0.0,4.0,0.0,,,,,,,,,28.898489999999583,,,,,,,,,28.88279909999983,29.697423400000844,30.497387700001127,30.480819899999915,30.480837700000848,30.497387700001127,30.497387700001127,30.497387700001127,32.36410729999989,left,1.0,11.770809199999348,,32.36495439999999,32.378576500001145,32.87825880000128,32.86203940000087,,,,,,,,,,,,,,,,,,,,,,,,sub-176,1.0,random_dot,59.93612008326343,
right,right,,2.0,1.0,5.0,1.0,,,,,,,,,32.87825880000128,,,,,,,,,32.862453100000494,32.97800120000102,33.777643600000374,33.76115700000082,33.76118470000074,33.777643600000374,33.777643600000374,33.777643600000374,35.04400600000008,right,1.0,11.173580000000584,,35.044628999999986,35.05920780000088,35.55892289999974,35.54282489999969,,,,,,,,,,,,,,,,,,,,,,,,sub-176,1.0,random_dot,59.93612008326343,
right,right,,3.0,0.0,6.0,1.0,,,,,,,,,35.55892289999974,,,,,,,,,35.54310760000044,35.65898460000062,36.47530010000082,36.459073400001216,36.45912210000097,36.47530010000082,36.47530010000082,36.47530010000082,38.29192150000017,right,1.0,11.722841200000405,,38.29260450000038,38.306355200000326,38.80594860000019,38.790722100000494,,,,,,,,,,,,,,,,,,,,,,,,sub-176,1.0,random_dot,59.93612008326343,
left,left,,3.0,1.0,7.0,0.0,,,,,,,,,38.80594860000019,,,,,,,,,38.79152980000072,40.00476290000006,40.80423370000062,40.78769600000123,40.78771630000119,40.80423370000062,40.80423370000062,40.80423370000062,41.95607380000001,left,1.0,11.061940400000822,,41.95675120000124,41.96966720000091,42.46887179999976,42.45238550000067,,,,,,,,,,,,,,,,,,,,,,,,sub-176,1.0,random_dot,59.93612008326343,
left,left,,4.0,0.0,8.0,0.0,,,,,,,,,42.46887179999976,,,,,,,,,42.45262999999977,43.66765120000127,44.46780829999989,44.45186939999985,44.45192870000028,44.46780829999989,44.46780829999989,44.46780829999989,46.05007889999979,left,1.0,11.49356809999881,,46.0504062,46.06550950000019,46.565289300000586,46.54930930000046,,,,,,,,,,,,,,,,,,,,,,,,sub-176,1.0,random_dot,59.93612008326343,
right,right,,4.0,1.0,9.0,1.0,,,,,,,,,46.565289300000586,,,,,,,,,46.54986610000015,47.36447709999993,48.16413980000107,48.14822110000023,48.14826290000019,48.16413980000107,48.16413980000107,48.16413980000107,48.99849240000003,right,1.0,10.732190199998511,,48.99918609999986,49.01295109999956,49.512327300000834,49.497011200001,,,,,,,,,,,,,,,,,,,,,,,,sub-176,1.0,random_dot,59.93612008326343,
left,left,,5.0,0.0,10.0,0.0,,,,,,,,,49.512327300000834,,,,,,,,,49.49765289999959,50.31173560000025,51.11145750000105,51.0949369000009,51.09496870000112,51.11145750000105,51.11145750000105,51.11145750000105,52.11142520000067,left,1.0,10.898242199999004,,52.11186439999983,52.12686070000018,52.625921599999856,52.60986200000116,,,,,,,,,,,,,,,,,,,,,,,,sub-176,1.0,random_dot,59.93612008326343,
right,right,,5.0,1.0,11.0,1.0,,,,,,,,,52.625921599999856,,,,,,,,,52.61009750000085,53.82496520000132,54.62490780000008,54.6093505000008,54.60942080000132,54.62490780000008,54.62490780000008,54.62490780000008,55.5091338000002,right,1.0,10.788835599998492,,55.50983880000058,55.52353399999993,56.02300370000012,56.007522300000346,,,,,,,,,,,,,,,,,,,,,,,,sub-176,1.0,random_dot,59.93612008326343,
left,left,,6.0,0.0,12.0,0.0,,,,,,,,,56.02300370000012,,,,,,,,,56.00820550000026,56.12341050000032,56.922701999999845,56.90696060000119,56.90700130000005,56.922701999999845,56.922701999999845,56.922701999999845,58.522240399999646,left,1.0,11.502987500000016,,58.52284540000073,58.53735980000056,59.0366310999998,59.02032950000103,,,,,,,,,,,,,,,,,,,,,,,,sub-176,1.0,random_dot,59.93612008326343,
right,right,,6.0,1.0,13.0,1.0,,,,,,,,,59.0366310999998,,,,,,,,,59.0205889000008,59.13697780000075,59.93657030000031,59.92101600000024,59.92106760000024,59.93657030000031,59.93657030000031,59.93657030000031,62.36913330000061,right,1.0,12.3327330000011,,62.36979330000031,62.38394150000022,62.88318150000123,62.866769100000965,,,,,,,,,,,,,,,,,,,,,,,,sub-176,1.0,random_dot,59.93612008326343,
right,right,,7.0,0.0,14.0,1.0,,,,,,,,,62.88318150000123,,,,,,,,,62.86701900000117,64.0818360000012,64.8816708000013,64.86510939999971,64.86513250000098,64.8816708000013,64.8816708000013,64.8816708000013,66.23239439999998,right,1.0,11.25102870000046,,66.23306890000094,66.24674320000122,66.74620920000052,66.73092200000065,,,,,,,,,,,,,,,,,,,,,,,,sub-176,1.0,random_dot,59.93612008326343,
left,left,,7.0,1.0,15.0,0.0,,,,,,,,,66.74620920000052,,,,,,,,,66.7315677000006,66.84633770000073,67.6456460999998,67.62949910000134,67.6295270999999,67.6456460999998,67.6456460999998,67.6456460999998,68.76307579999957,left,1.0,11.022669599999062,,68.76369210000121,68.77797920000012,69.27761459999965,69.26113799999985,,,,,,,,,,,,,,,,,,,,,,,,sub-176,1.0,random_dot,59.93612008326343,
left,left,,8.0,0.0,16.0,0.0,,,,,,,,,69.27761459999965,,,,,,,,,69.26144270000077,70.47629770000094,71.27615239999977,71.26025920000029,71.26030510000055,71.27615239999977,71.27615239999977,71.27615239999977,72.61044920000131,left,1.0,11.232352900000478,,72.61134099999981,72.62410920000002,73.12382050000087,73.10739980000108,,,,,,,,,,,,,,,,,,,,,,,,sub-176,1.0,random_dot,59.93612008326343,
right,right,,8.0,1.0,17.0,1.0,,,,,,,,,73.12382050000087,,,,,,,,,73.10760160000063,73.92300150000119,74.72262260000025,74.70618000000104,74.70619770000121,74.72262260000025,74.72262260000025,74.72262260000025,75.7868223000005,right,1.0,10.961974799998645,,75.78733079999984,75.79092400000081,,76.2878012000001,,,,,,,,,,,,,,,,,,,,,,,,sub-176,1.0,random_dot,59.93612008326343,
right,right,,9.0,0.0,18.0,1.0,,,,,,,,,76.30432629999996,,,,,,,,,76.28842410000107,77.08675779999976,77.88615539999955,77.86959829999978,77.86961300000075,77.88615539999955,77.88615539999955,77.88615539999955,78.88725619999968,right,1.0,10.906328599998233,,78.88791850000052,78.9017229000001,79.40118340000117,79.38643310000043,,,,,,,,,,,,,,,,,,,,,,,,sub-176,1.0,random_dot,59.93612008326343,
left,left,,9.0,1.0,19.0,0.0,,,,,,,,,79.40118340000117,,,,,,,,,79.38727769999969,80.20077230000061,81.00024959999973,80.98446580000018,80.98451150000074,81.00024959999973,81.00024959999973,81.00024959999973,81.76667559999987,left,1.0,10.67554139999993,,81.76694210000096,81.78222740000092,82.28183780000109,82.2656850000003,,,,,,,,,,,,,,,,,,,,,,,,sub-176,1.0,random_dot,59.93612008326343,
,,,,,,,,,,,,,,,,,,,,,,,,,,,,,,,,,,,,,,,,,82.26572000000124,82.28183780000109,82.28183780000109,84.14706000000115,space,11.77541349999956,,,,,,,,,,,,,,,,,,sub-176,1.0,random_dot,59.93612008326343,
,,,,,,,,,,,,,,,,,,,,,,,,,,,,,,,,,,,,,,,,,,,,,,,,84.14708210000026,84.16320670000096,84.16320670000096,91.2261878999998,space,16.972237099998893,,,,,,,,,,,sub-176,1.0,random_dot,59.93612008326343,
right,right,accuracy,,,,,0.0,0.0,0.0,0.0,0.0,0.0,0.0,1.0,97.33433780000088,,,,,,,,,97.3268664999996,97.43429880000076,98.2336892000003,98.21706520000043,98.21708190000028,98.2336892000003,98.2336892000003,98.2336892000003,99.43295050000052,right,1.0,11.104662699999608,,,,,,,,,,,,,,,,,,,,91.23930649999966,91.24733829999968,91.24733829999968,97.3193465000004,space,15.980886699999246,,,,sub-176,1.0,random_dot,59.93612008326343,
left,left,accuracy,,,,,0.0,0.0,0.0,0.0,0.0,1.0,1.0,0.0,99.44878609999978,,,,,,,,,99.43375089999972,99.798874600001,100.59865580000042,100.5826171000008,100.58266200000072,100.59865580000042,100.59865580000042,100.59865580000042,101.5668256000008,left,1.0,10.877764099999697,,,,,,,,,,,,,,,,,,,,,,,,,,,,,sub-176,1.0,random_dot,59.93612008326343,
right,right,accuracy,,,,,0.0,0.0,0.0,0.0,1.0,0.0,2.0,1.0,101.58035870000094,,,,,,,,,101.56840879999982,101.9301802000009,102.72963400000116,102.71439009999996,102.71444859999974,102.72963400000116,102.72963400000116,102.72963400000116,103.8804336000012,right,1.0,11.055303099999946,,,,,,,,,,,,,,,,,,,,,,,,,,,,,sub-176,1.0,random_dot,59.93612008326343,
left,left,accuracy,,,,,0.0,0.0,0.0,0.0,1.0,1.0,3.0,0.0,103.89484699999956,,,,,,,,,103.88127820000044,103.9949273000002,104.7945634000007,104.779080100001,104.77913160000026,104.7945634000007,104.7945634000007,104.7945634000007,106.61071919999996,left,1.0,11.728096500000902,,,,,,,,,,,,,,,,,,,,,,,,,,,,,sub-176,1.0,random_dot,59.93612008326343,
left,left,accuracy,,,,,0.0,0.0,0.0,0.0,2.0,0.0,4.0,0.0,106.6255412999999,,,,,,,,,106.6112090000006,106.97507550000046,107.77488520000044,107.759143700001,107.75918430000092,107.77488520000044,107.77488520000044,107.77488520000044,110.29139940000096,left,1.0,12.422284000000218,,,,,,,,,,,,,,,,,,,,,,,,,,,,,sub-176,1.0,random_dot,59.93612008326343,
right,right,accuracy,,,,,0.0,0.0,0.0,0.0,2.0,1.0,5.0,1.0,110.30569090000064,,,,,,,,,110.2928668000004,110.65530829999987,111.45503910000116,111.43931820000034,111.4393658000008,111.45503910000116,111.45503910000116,111.45503910000116,113.70443560000058,right,1.0,12.153156399999716,,,,,,,,,,,,,,,,,,,,,,,,,,,,,sub-176,1.0,random_dot,59.93612008326343,
left,left,accuracy,,,,,0.0,0.0,0.0,0.0,3.0,0.0,6.0,0.0,113.71906769999988,,,,,,,,,113.7055904000008,114.51808850000089,115.31827090000117,115.3023344000012,115.30237950000082,115.31827090000117,115.31827090000117,115.31827090000117,116.80185820000042,left,1.0,11.381368199999995,,,,,,,,,,,,,,,,,,,,,,,,,,,,,sub-176,1.0,random_dot,59.93612008326343,
right,right,accuracy,,,,,0.0,0.0,0.0,0.0,3.0,1.0,7.0,1.0,116.81613120000112,,,,,,,,,116.80349410000052,117.61567060000016,118.43157840000094,118.41503750000084,118.41505789999974,118.43157840000094,118.43157840000094,118.43157840000094,119.78122360000089,right,1.0,11.254453999999896,,,,,,,,,,,,,,,,,,,,,,,,,,,,,sub-176,1.0,random_dot,59.93612008326343,
right,right,accuracy,,,,,0.0,0.0,0.0,0.0,4.0,0.0,8.0,1.0,119.79651000000013,,,,,,,,,119.7818113000012,120.5961473999996,121.3956675999998,121.38002609999968,121.38007649999965,121.3956675999998,121.3956675999998,121.3956675999998,123.41194390000057,right,1.0,11.922809499999858,,,,,,,,,,,,,,,,,,,,,,,,,,,,,sub-176,1.0,random_dot,59.93612008326343,
left,left,accuracy,,,,,0.0,0.0,0.0,0.0,4.0,1.0,9.0,0.0,123.4263735000004,,,,,,,,,123.41311850000056,123.52632790000098,124.32593199999974,124.30973020000056,124.30976240000018,124.32593199999974,124.32593199999974,124.32593199999974,125.62674789999984,left,1.0,11.201760300000387,,,,,,,,,,,,,,,,,,,,,,,,,,,,,sub-176,1.0,random_dot,59.93612008326343,
left,left,accuracy,,,,,0.0,0.0,0.0,0.0,5.0,0.0,10.0,0.0,125.64120759999967,,,,,,,,,125.62789330000123,125.74087719999989,126.5409111000008,126.52518080000118,126.52522760000102,126.5409111000008,126.5409111000008,126.5409111000008,128.3079842999996,left,1.0,11.663587000000916,,,,,,,,,,,,,,,,,,,,,,,,,,,,,sub-176,1.0,random_dot,59.93612008326343,
right,right,accuracy,,,,,0.0,0.0,0.0,0.0,5.0,1.0,11.0,1.0,128.3222435000007,,,,,,,,,128.30955060000088,129.12117770000077,129.92093209999985,129.90417060000073,129.90418540000064,129.92093209999985,129.92093209999985,129.92093209999985,131.2040065000001,right,1.0,11.187361899997995,,,,,,,,,,,,,,,,,,,,,,,,,,,,,sub-176,1.0,random_dot,59.93612008326343,
left,left,accuracy,,,,,0.0,0.0,0.0,0.0,6.0,0.0,12.0,0.0,131.21921600000132,,,,,,,,,131.20499680000103,132.41812899999968,133.2179300000007,133.20151310000074,133.2015365999996,133.2179300000007,133.2179300000007,133.2179300000007,134.71847490000073,left,1.0,11.407230000000707,,,,,,,,,,,,,,,,,,,,,,,,,,,,,sub-176,1.0,random_dot,59.93612008326343,
right,right,accuracy,,,,,0.0,0.0,0.0,0.0,6.0,1.0,13.0,1.0,134.7329421000013,,,,,,,,,134.71971900000062,135.08209630000056,135.88217749999967,135.86662380000053,135.86668240000108,135.88217749999967,135.88217749999967,135.88217749999967,137.4483665000007,right,1.0,11.47194540000055,,,,,,,,,,,,,,,,,,,,,,,,,,,,,sub-176,1.0,random_dot,59.93612008326343,
right,right,accuracy,,,,,0.0,0.0,0.0,0.0,7.0,0.0,14.0,1.0,137.4634356000006,,,,,,,,,137.44953150000038,137.8131960999999,138.61284640000122,138.59741050000048,138.59745629999998,138.61284640000122,138.61284640000122,138.61284640000122,141.79665560000103,right,1.0,13.09475670000029,,,,,,,,,,,,,,,,,,,,,,,,,,,,,sub-176,1.0,random_dot,59.93612008326343,
left,left,accuracy,,,,,0.0,0.0,0.0,0.0,7.0,1.0,15.0,0.0,141.80943149999985,,,,,,,,,141.79779990000134,142.60853810000117,143.4083496000003,143.3929016000002,143.39295950000087,143.4083496000003,143.4083496000003,143.4083496000003,145.1239357000013,left,1.0,11.622334099998625,,,,,,,,,,,,,,,,,,,,,,,,,,,,,sub-176,1.0,random_dot,59.93612008326343,
right,right,accuracy,,,,,0.0,0.0,0.0,0.0,8.0,0.0,16.0,1.0,145.13928860000124,,,,,,,,,145.12470209999992,145.48924129999978,146.288880600001,146.27332980000028,146.27339530000063,146.288880600001,146.288880600001,146.288880600001,147.92119980000098,right,1.0,11.534908899999207,,,,,,,,,,,,,,,,,,,,,,,,,,,,,sub-176,1.0,random_dot,59.93612008326343,
left,left,accuracy,,,,,0.0,0.0,0.0,0.0,8.0,1.0,17.0,0.0,147.93704830000024,,,,,,,,,147.92200870000124,148.28674690000116,149.1027350000004,149.08607289999964,149.0860853000013,149.1027350000004,149.1027350000004,149.1027350000004,150.7864771000004,left,1.0,11.592294799998854,,,,,,,,,,,,,,,,,,,,,,,,,,,,,sub-176,1.0,random_dot,59.93612008326343,
right,right,accuracy,,,,,0.0,0.0,0.0,0.0,9.0,0.0,18.0,1.0,150.8010049000004,,,,,,,,,150.78773189999993,151.60001589999956,152.39993210000102,152.38452479999978,152.38457709999966,152.39993210000102,152.39993210000102,152.39993210000102,154.46690060000037,right,1.0,11.968824399998994,,,,,,,,,,,,,,,,,,,,,,,,,,,,,sub-176,1.0,random_dot,59.93612008326343,
left,left,accuracy,,,,,0.0,0.0,0.0,0.0,9.0,1.0,19.0,0.0,154.4811120000013,,,,,,,,,154.46851609999976,154.58091630000126,155.38046610000129,155.3639404000005,155.36395319999974,155.38046610000129,155.38046610000129,155.38046610000129,156.89604640000107,left,1.0,11.422201400000633,,,,,,,,,,,,,,,,,,,,,,,,,,,,,sub-176,1.0,random_dot,59.93612008326343,
right,right,accuracy,,,,,0.0,0.0,0.0,0.0,10.0,0.0,20.0,1.0,156.91192489999958,,,,,,,,,156.89656690000083,157.0118977000002,157.82787310000094,157.8115183000009,157.81153149999955,157.82787310000094,157.82787310000094,157.82787310000094,161.64178850000098,right,1.0,13.719339700001,,,,,,,,,,,,,,,,,,,,,,,,,,,,,sub-176,1.0,random_dot,59.93612008326343,
left,left,accuracy,,,,,0.0,0.0,0.0,0.0,10.0,1.0,21.0,0.0,161.65716659999998,,,,,,,,,161.6425022000003,162.00708610000038,162.8070647000004,162.79123380000055,162.7912749999996,162.8070647000004,162.8070647000004,162.8070647000004,164.1578069999996,left,1.0,11.249084000000948,,,,,,,,,,,,,,,,,,,,,,,,,,,,,sub-176,1.0,random_dot,59.93612008326343,
left,left,accuracy,,,,,0.0,0.0,0.0,0.0,11.0,0.0,22.0,0.0,164.1718722000005,,,,,,,,,164.15942639999955,164.97149290000016,165.78755079999974,165.77143570000044,165.77147400000104,165.78755079999974,165.78755079999974,165.78755079999974,167.82034019999992,left,1.0,11.940744899999116,,,,,,,,,,,,,,,,,,,,,,,,,,,,,sub-176,1.0,random_dot,59.93612008326343,
right,right,accuracy,,,,,0.0,0.0,0.0,0.0,11.0,1.0,23.0,1.0,167.83525100000043,,,,,,,,,167.8214484,169.03414599999996,169.8335337999997,169.81788770000094,169.81793040000048,169.8335337999997,169.8335337999997,169.8335337999997,171.4001533999999,right,1.0,11.472609500000544,,,,,,,,,,,,,,,,,,,,,,,,,,,,,sub-176,1.0,random_dot,59.93612008326343,
left,left,accuracy,,,,,0.0,0.0,0.0,0.0,12.0,0.0,24.0,0.0,171.4151299000005,,,,,,,,,171.40126480000072,171.76471380000112,172.56409370000074,172.5484660000002,172.54851919999965,172.56409370000074,172.56409370000074,172.56409370000074,174.33012080000117,left,1.0,11.664211600000272,,,,,,,,,,,,,,,,,,,,,,,,,,,,,sub-176,1.0,random_dot,59.93612008326343,
right,right,accuracy,,,,,0.0,0.0,0.0,0.0,12.0,1.0,25.0,1.0,174.3453632000001,,,,,,,,,174.33078399999977,175.14481110000088,175.94456480000008,175.92906080000105,175.9291205999998,175.94456480000008,175.94456480000008,175.94456480000008,177.49471939999967,right,1.0,11.460539300000164,,,,,,,,,,,,,,,,,,,,,,,,,,,,,sub-176,1.0,random_dot,59.93612008326343,
right,right,accuracy,,,,,0.0,0.0,0.0,0.0,13.0,0.0,26.0,1.0,177.50937370000065,,,,,,,,,177.49599680000028,177.8592523999996,178.67538070000046,178.65953369999988,178.65958030000002,178.67538070000046,178.67538070000046,178.67538070000046,180.4420811,right,1.0,11.665140099999917,,,,,,,,,,,,,,,,,,,,,,,,,,,,,sub-176,1.0,random_dot,59.93612008326343,
left,left,accuracy,,,,,0.0,0.0,0.0,0.0,13.0,1.0,27.0,0.0,180.45665670000017,,,,,,,,,180.4434125000007,180.80586740000035,181.6056194000012,181.5900238000013,181.59007519999977,181.6056194000012,181.6056194000012,181.6056194000012,182.55651960000068,left,1.0,10.855008599999564,,,,,,,,,,,,,,,,,,,,,,,,,,,,,sub-176,1.0,random_dot,59.93612008326343,
left,left,accuracy,,,,,0.0,0.0,0.0,0.0,14.0,0.0,28.0,0.0,182.57129330000132,,,,,,,,,182.55778420000024,183.77011230000065,184.56976190000023,184.5534635000004,184.5534875000012,184.56976190000023,184.56976190000023,184.56976190000023,186.10467430000065,left,1.0,11.445600299999567,,,,,,,,,,,,,,,,,,,,,,,,,,,,,sub-176,1.0,random_dot,59.93612008326343,
right,right,accuracy,,,,,0.0,0.0,0.0,0.0,14.0,1.0,29.0,1.0,186.11779019999997,,,,,,,,,186.10594330000092,186.4673242000008,187.26740400000017,187.25184850000005,187.2519004000005,187.26740400000017,187.26740400000017,187.26740400000017,189.29951830000027,right,1.0,11.932801799999652,,,,,,,,,,,,,,,,,,,,,,,,,,,,,sub-176,1.0,random_dot,59.93612008326343,
right,right,accuracy,,,,,0.0,0.0,0.0,0.0,15.0,0.0,30.0,1.0,189.3149343000005,,,,,,,,,189.30048110000095,190.11454380000032,190.93074590000103,190.91532670000012,190.9153924000002,190.93074590000103,190.93074590000103,190.93074590000103,192.18515389999996,right,1.0,11.152962599999228,,,,,,,,,,,,,,,,,,,,,,,,,,,,,sub-176,1.0,random_dot,59.93612008326343,
left,left,accuracy,,,,,0.0,0.0,0.0,0.0,15.0,1.0,31.0,0.0,192.19554640000024,,,,,,,,,192.18593780000083,193.3944518999997,194.1942307999998,194.1782648999997,194.1783075000003,194.1942307999998,194.1942307999998,194.1942307999998,195.8095857999997,left,1.0,11.517065599999114,,,,,,,,,,,,,,,,,,,,,,,,,,,,,sub-176,1.0,random_dot,59.93612008326343,
left,left,accuracy,,,,,0.0,0.0,0.0,0.0,16.0,0.0,32.0,0.0,195.8251789000005,,,,,,,,,195.81009749999976,196.6248730999996,197.4245666999996,197.40869550000025,197.4087410000011,197.4245666999996,197.4245666999996,197.4245666999996,199.5061784999998,left,1.0,11.991648299999724,,,,,,,,,,,,,,,,,,,,,,,,,,,,,sub-176,1.0,random_dot,59.93612008326343,
right,right,accuracy,,,,,0.0,0.0,0.0,0.0,16.0,1.0,33.0,1.0,199.52203530000045,,,,,,,,,199.50666810000075,200.7207322000013,201.52058899999972,201.50467750000095,201.5047222000012,201.52058899999972,201.52058899999972,201.52058899999972,203.22075210000003,right,1.0,11.603237999999692,,,,,,,,,,,,,,,,,,,,,,,,,,,,,sub-176,1.0,random_dot,59.93612008326343,
left,left,accuracy,,,,,0.0,0.0,0.0,0.0,17.0,0.0,34.0,0.0,203.2352369,,,,,,,,,203.22233310000047,204.4342816999997,205.2338434000012,205.2182086000012,205.2182544999996,205.2338434000012,205.2338434000012,205.2338434000012,207.2656208000008,left,1.0,11.931544199998823,,,,,,,,,,,,,,,,,,,,,,,,,,,,,sub-176,1.0,random_dot,59.93612008326343,
right,right,accuracy,,,,,0.0,0.0,0.0,0.0,17.0,1.0,35.0,1.0,207.2812680999996,,,,,,,,,207.26617120000083,207.63120750000053,208.44727030000104,208.4304456000009,208.4304634,208.44727030000104,208.44727030000104,208.44727030000104,210.78078920000007,right,1.0,12.243050999999468,,,,,,,,,,,,,,,,,,,,,,,,,,,,,sub-176,1.0,random_dot,59.93612008326343,
right,right,accuracy,,,,,0.0,0.0,0.0,0.0,18.0,0.0,36.0,1.0,210.7950954999997,,,,,,,,,210.78231779999987,211.14426970000025,211.94425890000093,211.92851340000016,211.9285658000008,211.94425890000093,211.94425890000093,211.94425890000093,214.8255422000002,right,1.0,12.787735600000817,,,,,,,,,,,,,,,,,,,,,,,,,,,,,sub-176,1.0,random_dot,59.93612008326343,
left,left,accuracy,,,,,0.0,0.0,0.0,0.0,18.0,1.0,37.0,0.0,214.84078360000055,,,,,,,,,214.8263095000002,214.9408628000001,215.7405890000009,215.7245395000009,215.7245743000003,215.7405890000009,215.7405890000009,215.7405890000009,217.65721010000016,left,1.0,11.813330899998618,,,,,,,,,,,,,,,,,,,,,,,,,,,,,sub-176,1.0,random_dot,59.93612008326343,
left,left,accuracy,,,,,0.0,0.0,0.0,0.0,19.0,0.0,38.0,0.0,217.6714907000005,,,,,,,,,217.6586038000005,218.47103620000053,219.2706036,219.25390140000127,219.2539128999997,219.2706036,219.2706036,219.2706036,223.4519691000005,left,1.0,14.08252039999934,,,,,,,,,,,,,,,,,,,,,,,,,,,,,sub-176,1.0,random_dot,59.93612008326343,
right,right,accuracy,,,,,0.0,0.0,0.0,0.0,19.0,1.0,39.0,1.0,223.46608240000023,,,,,,,,,223.4535321000003,223.81590610000055,224.61564200000063,224.6001431000004,224.6001895999998,224.61564200000063,224.61564200000063,224.61564200000063,226.99777300000096,right,1.0,12.27963230000023,,,,,,,,,,,,,,,,,,,,,,,,,,,,,sub-176,1.0,random_dot,59.93612008326343,
left,left,accuracy,,,,,0.0,0.0,0.0,0.0,20.0,0.0,40.0,0.0,227.01281410000047,,,,,,,,,226.9986590000008,227.1128836000007,227.91281010000057,227.8965702000005,227.89661270000036,227.91281010000057,227.91281010000057,227.91281010000057,229.31315610000087,left,1.0,11.305542400001286,,,,,,,,,,,,,,,,,,,,,,,,,,,,,sub-176,1.0,random_dot,59.93612008326343,
right,right,accuracy,,,,,0.0,0.0,0.0,0.0,20.0,1.0,41.0,1.0,229.3274008999997,,,,,,,,,229.3145796000008,229.42755990000117,230.22713020000083,230.2113872000009,230.2114287000004,230.22713020000083,230.22713020000083,230.22713020000083,231.40966560000012,right,1.0,11.088993899998968,,,,,,,,,,,,,,,,,,,,,,,,,,,,,sub-176,1.0,random_dot,59.93612008326343,
left,left,accuracy,,,,,0.0,0.0,0.0,0.0,21.0,0.0,42.0,0.0,231.42536180000025,,,,,,,,,231.41016540000052,231.77526860000037,232.5911704000009,232.5746878000009,232.57470730000023,232.5911704000009,232.5911704000009,232.5911704000009,233.5577355000005,left,1.0,10.87554259999888,,,,,,,,,,,,,,,,,,,,,,,,,,,,,sub-176,1.0,random_dot,59.93612008326343,
right,right,accuracy,,,,,0.0,0.0,0.0,0.0,21.0,1.0,43.0,1.0,233.57333850000032,,,,,,,,,233.55832689999988,234.7725889000012,235.5888816000006,235.57203320000008,235.5720502000004,235.5888816000006,235.5888816000006,235.5888816000006,236.57193990000087,right,1.0,10.892855800000689,,,,,,,,,,,,,,,,,,,,,,,,,,,,,sub-176,1.0,random_dot,59.93612008326343,
left,left,accuracy,,,,,0.0,0.0,0.0,0.0,22.0,0.0,44.0,0.0,236.58733420000132,,,,,,,,,236.5726482000009,236.93702210000083,237.7368671000004,237.72044620000088,237.72048090000132,237.7368671000004,237.7368671000004,237.7368671000004,239.07053540000013,left,1.0,11.235996200000956,,,,,,,,,,,,,,,,,,,,,,,,,,,,,sub-176,1.0,random_dot,59.93612008326343,
right,right,accuracy,,,,,0.0,0.0,0.0,0.0,22.0,1.0,45.0,1.0,239.0851588000005,,,,,,,,,239.0719697000004,239.18522440000012,240.0010985000008,239.98448370000008,239.9845114,240.0010985000008,240.0010985000008,240.0010985000008,240.91772320000015,right,1.0,10.827731999999742,,,,,,,,,,,,,,,,,,,,,,,,,,,,,sub-176,1.0,random_dot,59.93612008326343,
right,right,accuracy,,,,,0.0,0.0,0.0,0.0,23.0,0.0,46.0,1.0,240.93307480000112,,,,,,,,,240.9183376000001,241.7328154999996,242.54871269999967,242.5318129999996,242.53182770000055,242.54871269999967,242.54871269999967,242.54871269999967,243.86458570000104,left,0.0,11.21777739999925,,,,,,,,,,,,,,,,,,,,,,,,,,,,,sub-176,1.0,random_dot,59.93612008326343,
left,left,accuracy,,,,,0.0,0.0,0.0,0.0,23.0,1.0,47.0,0.0,243.8802642999999,,,,,,,,,243.8650765000002,244.67993220000065,245.47948290000025,245.46394979999968,245.46399329999983,245.47948290000025,245.47948290000025,245.47948290000025,246.54581030000008,left,1.0,10.974136499999076,,,,,,,,,,,,,,,,,,,,,,,,,,,,,sub-176,1.0,random_dot,59.93612008326343,
right,right,accuracy,,,,,0.0,0.0,0.0,0.0,24.0,0.0,48.0,1.0,246.5613700000013,,,,,,,,,246.54651879999983,247.36061990000053,248.1604414000012,248.1447723000001,248.1448207000012,248.1604414000012,248.1604414000012,248.1604414000012,250.4265832000001,left,0.0,12.173787199999424,,,,,,,,,,,,,,,,,,,,,,,,,,,,,sub-176,1.0,random_dot,59.93612008326343,
left,left,accuracy,,,,,0.0,0.0,0.0,0.0,24.0,1.0,49.0,0.0,250.4410879999996,,,,,,,,,250.4278157000008,251.24045450000085,252.03988620000015,252.0233988,252.0234261000005,252.03988620000015,252.03988620000015,252.03988620000015,253.57364620000044,left,1.0,11.44374769999922,,,,,,,,,,,,,,,,,,,,,,,,,,,,,sub-176,1.0,random_dot,59.93612008326343,
right,right,accuracy,,,,,0.0,0.0,0.0,0.0,25.0,0.0,50.0,1.0,253.58833220000088,,,,,,,,,253.57495890000064,253.68832529999963,254.504437900001,254.48896520000017,254.48900230000072,254.504437900001,254.504437900001,254.504437900001,256.88682320000044,right,1.0,12.292091500001334,,,,,,,,,,,,,,,,,,,,,,,,,,,,,sub-176,1.0,random_dot,59.93612008326343,
left,left,accuracy,,,,,0.0,0.0,0.0,0.0,25.0,1.0,51.0,0.0,256.90140840000095,,,,,,,,,256.88787200000115,257.00149950000014,257.80087730000014,257.78430050000134,257.7843198999999,257.80087730000014,257.80087730000014,257.80087730000014,260.03388780000023,left,1.0,12.138924799999586,,,,,,,,,,,,,,,,,,,,,,,,,,,,,sub-176,1.0,random_dot,59.93612008326343,
right,right,accuracy,,,,,0.0,0.0,0.0,0.0,26.0,0.0,52.0,1.0,260.0488308000004,,,,,,,,,260.03509160000067,261.24760830000014,262.0474367999996,262.03186450000067,262.0319173000007,262.0474367999996,262.0474367999996,262.0474367999996,263.76418980000017,right,1.0,11.622968799998487,,,,,,,,,,,,,,,,,,,,,,,,,,,,,sub-176,1.0,random_dot,59.93612008326343,
left,left,accuracy,,,,,0.0,0.0,0.0,0.0,26.0,1.0,53.0,0.0,263.7787650999999,,,,,,,,,263.76552679999986,264.1281608999998,264.928019500001,264.91279920000125,264.9128579999997,264.928019500001,264.928019500001,264.928019500001,266.5280708999999,left,1.0,11.509572400000252,,,,,,,,,,,,,,,,,,,,,,,,,,,,,sub-176,1.0,random_dot,59.93612008326343,
right,right,accuracy,,,,,0.0,0.0,0.0,0.0,27.0,0.0,54.0,1.0,266.5424460000013,,,,,,,,,266.52907550000054,267.7412519999998,268.54128560000026,268.52570170000035,268.5257615999999,268.54128560000026,268.54128560000026,268.54128560000026,270.1402291000013,right,1.0,11.497289699998872,,,,,,,,,,,,,,,,,,,,,,,,,,,,,sub-176,1.0,random_dot,59.93612008326343,
left,left,accuracy,,,,,0.0,0.0,0.0,0.0,27.0,1.0,55.0,0.0,270.15607380000074,,,,,,,,,270.14087180000024,271.35483660000136,272.15457760000027,272.1390732,272.13913180000054,272.15457760000027,272.15457760000027,272.15457760000027,273.4885953000012,left,1.0,11.23810070000036,,,,,,,,,,,,,,,,,,,,,,,,,,,,,sub-176,1.0,random_dot,59.93612008326343,
right,right,accuracy,,,,,0.0,0.0,0.0,0.0,28.0,0.0,56.0,1.0,273.5028682000011,,,,,,,,,273.4899636000009,273.8527135000004,274.6689187000011,274.6526266000001,274.6526543,274.6689187000011,274.6689187000011,274.6689187000011,276.5173296000012,right,1.0,11.749287300001017,,,,,,,,,,,,,,,,,,,,,,,,,,,,,sub-176,1.0,random_dot,59.93612008326343,
left,left,accuracy,,,,,0.0,0.0,0.0,0.0,28.0,1.0,57.0,0.0,276.5331033000002,,,,,,,,,276.51777870000114,276.8832344000002,277.68264420000014,277.6664817000001,277.6665215000012,277.68264420000014,277.68264420000014,277.68264420000014,279.6153856000001,left,1.0,11.842105800000354,,,,,,,,,,,,,,,,,,,,,,,,,,,,,sub-176,1.0,random_dot,59.93612008326343,
right,right,accuracy,,,,,0.0,0.0,0.0,0.0,29.0,0.0,58.0,1.0,279.63040060000094,,,,,,,,,279.61651020000136,280.42959540000084,281.22933900000135,281.21346670000094,281.2135137000005,281.22933900000135,281.22933900000135,281.22933900000135,285.17745450000075,right,1.0,13.85480920000009,,,,,,,,,,,,,,,,,,,,,,,,,,,,,sub-176,1.0,random_dot,59.93612008326343,
left,left,accuracy,,,,,0.0,0.0,0.0,0.0,29.0,1.0,59.0,0.0,285.19179020000047,,,,,,,,,285.17854330000046,286.3907113000005,287.1905654000002,287.1744107000013,287.17445340000086,287.1905654000002,287.1905654000002,287.1905654000002,289.4232348000005,left,1.0,12.134205199999997,,,,,,,,,,,,,,,,,,,,,,,,,,,,,sub-176,1.0,random_dot,59.93612008326343,
,,accuracy,,,,,0.0,0.0,0.0,0.0,,,,,,,,,,,,,,,,,,,,,,,,,,,,,,,,,,,,,,,,,,,,,,,,,,,,,,sub-176,1.0,random_dot,59.93612008326343,
right,right,speed,,,,,0.0,1.0,1.0,1.0,0.0,0.0,0.0,1.0,302.7251487000012,,,,,,,,,302.7205081000011,302.8251001000008,303.6247761000013,303.60910330000115,303.60915039999963,303.6247761000013,303.6247761000013,303.6247761000013,304.27669160000005,right,1.0,10.55497159999868,,,,,,,,,,,,,,,,,,,,289.4244439000013,289.4378570000008,289.4378570000008,302.7125200000009,space,23.18536689999928,,,,sub-176,1.0,random_dot,59.93612008326343,
left,left,speed,,,,,0.0,1.0,1.0,1.0,0.0,1.0,1.0,0.0,304.29067399999985,,,,,,,,,304.27848260000064,304.39023740000084,305.19045350000124,305.1743082000012,305.1743714000004,305.19045350000124,305.19045350000124,305.19045350000124,305.69009110000115,left,1.0,10.39850529999967,,,,,,,,,,,,,,,,,,,,,,,,,,,,,sub-176,1.0,random_dot,59.93612008326343,
left,left,speed,,,,,0.0,1.0,1.0,1.0,1.0,0.0,2.0,0.0,305.70581980000134,,,,,,,,,305.6906116000009,306.90471720000096,307.70468660000006,307.68886759999987,307.68890810000084,307.70468660000006,307.70468660000006,307.70468660000006,308.6552222999999,left,1.0,10.860442799999872,,,,,,,,,,,,,,,,,,,,,,,,,,,,,sub-176,1.0,random_dot,59.93612008326343,
right,right,speed,,,,,0.0,1.0,1.0,1.0,1.0,1.0,3.0,1.0,308.66977469999983,,,,,,,,,308.65639740000006,309.0195117000003,309.81912960000045,309.8033656000007,309.8034375999996,309.81912960000045,309.81912960000045,309.81912960000045,310.36956530000134,right,1.0,10.453471900000295,,,,,,,,,,,,,,,,,,,,,,,,,,,,,sub-176,1.0,random_dot,59.93612008326343,
left,left,speed,,,,,0.0,1.0,1.0,1.0,2.0,0.0,4.0,0.0,310.3848412999996,,,,,,,,,310.3703666000001,311.5840668000001,312.38327000000027,312.3681262000009,312.3681866000006,312.38327000000027,312.38327000000027,312.38327000000027,312.967955600001,left,1.0,10.49256559999958,,,,,,,,,,,,,,,,,,,,,,,,,,,,,sub-176,1.0,random_dot,59.93612008326343,
right,right,speed,,,,,0.0,1.0,1.0,1.0,2.0,1.0,5.0,1.0,312.9824356000008,,,,,,,,,312.9693064000003,313.78181720000066,314.59773830000086,314.5811270000013,314.58113950000006,314.59773830000086,314.59773830000086,314.59773830000086,315.11621620000005,right,1.0,10.415250399999422,,,,,,,,,,,,,,,,,,,,,,,,,,,,,sub-176,1.0,random_dot,59.93612008326343,
left,left,speed,,,,,0.0,1.0,1.0,1.0,3.0,0.0,6.0,0.0,315.13055200000053,,,,,,,,,315.117593500001,315.9297688000006,316.72952799999985,316.71386990000065,316.7139103999998,316.72952799999985,316.72952799999985,316.72952799999985,317.2982344000011,left,1.0,10.467129300001034,,,,,,,,,,,,,,,,,,,,,,,,,,,,,sub-176,1.0,random_dot,59.93612008326343,
right,right,speed,,,,,0.0,1.0,1.0,1.0,3.0,1.0,7.0,1.0,317.31178910000017,,,,,,,,,317.29987729999993,317.4118011999999,318.21139680000124,318.1950092999996,318.19503369999984,318.21139680000124,318.21139680000124,318.21139680000124,318.7461524999999,right,1.0,10.438180999999531,,,,,,,,,,,,,,,,,,,,,,,,,,,,,sub-176,1.0,random_dot,59.93612008326343,
left,left,speed,,,,,0.0,1.0,1.0,1.0,4.0,0.0,8.0,0.0,318.76038549999976,,,,,,,,,318.7473905999996,319.5593304000013,320.3593019,320.3434460000008,320.34348450000107,320.3593019,320.3593019,320.3593019,321.0601662000008,left,1.0,10.602961099999447,,,,,,,,,,,,,,,,,,,,,,,,,,,,,sub-176,1.0,random_dot,59.93612008326343,
right,right,speed,,,,,0.0,1.0,1.0,1.0,4.0,1.0,9.0,1.0,321.0750636000012,,,,,,,,,321.06129560000045,322.2738055000009,323.0734873000001,323.05708740000046,323.05712459999995,323.0734873000001,323.0734873000001,323.0734873000001,323.9904426000012,right,1.0,10.82483669999965,,,,,,,,,,,,,,,,,,,,,,,,,,,,,sub-176,1.0,random_dot,59.93612008326343,
left,left,speed,,,,,0.0,1.0,1.0,1.0,5.0,0.0,10.0,0.0,324.0056375000004,,,,,,,,,323.9916111000002,324.1055343000007,324.9050660000012,324.8891514999996,324.8891782999999,324.9050660000012,324.9050660000012,324.9050660000012,325.7066941000012,left,1.0,10.713606500001331,,,,,,,,,,,,,,,,,,,,,,,,,,,,,sub-176,1.0,random_dot,59.93612008326343,
right,right,speed,,,,,0.0,1.0,1.0,1.0,5.0,1.0,11.0,1.0,325.720556100001,,,,,,,,,325.7073467000009,326.52009830000134,327.31977519999964,327.3031484000003,327.30318070000067,327.31977519999964,327.31977519999964,327.31977519999964,328.10402369999974,right,1.0,10.688395000001035,,,,,,,,,,,,,,,,,,,,,,,,,,,,,sub-176,1.0,random_dot,59.93612008326343,
right,right,speed,,,,,0.0,1.0,1.0,1.0,6.0,0.0,12.0,1.0,328.11857260000033,,,,,,,,,328.10526050000044,328.9177316000005,329.7336316000001,329.7172375000009,329.7172520000004,329.7336316000001,329.7336316000001,329.7336316000001,330.4851357000007,right,1.0,10.65464449999854,,,,,,,,,,,,,,,,,,,,,,,,,,,,,sub-176,1.0,random_dot,59.93612008326343,
left,left,speed,,,,,0.0,1.0,1.0,1.0,6.0,1.0,13.0,0.0,330.4992964000012,,,,,,,,,330.4864150000012,330.5995038000001,331.39917290000085,331.38367480000124,331.3837344000003,331.39917290000085,331.39917290000085,331.39917290000085,332.09893770000053,left,1.0,10.608647399998516,,,,,,,,,,,,,,,,,,,,,,,,,,,,,sub-176,1.0,random_dot,59.93612008326343,
right,right,speed,,,,,0.0,1.0,1.0,1.0,7.0,0.0,14.0,1.0,332.1144424000013,,,,,,,,,332.0995184000003,332.91405680000025,333.71354919999976,333.69733989999986,333.6973796000002,333.71354919999976,333.71354919999976,333.71354919999976,335.26364079999985,right,1.0,11.459042199998294,,,,,,,,,,,,,,,,,,,,,,,,,,,,,sub-176,1.0,random_dot,59.93612008326343,
left,left,speed,,,,,0.0,1.0,1.0,1.0,7.0,1.0,15.0,0.0,335.2783366000004,,,,,,,,,335.26484940000046,336.07726189999994,336.8772148999997,336.8605383000013,336.86056110000027,336.8772148999997,336.8772148999997,336.8772148999997,337.3771864999999,left,1.0,10.40611870000066,,,,,,,,,,,,,,,,,,,,,,,,,,,,,sub-176,1.0,random_dot,59.93612008326343,
right,right,speed,,,,,0.0,1.0,1.0,1.0,8.0,0.0,16.0,1.0,337.3926743000011,,,,,,,,,337.377894700001,338.1922469000001,338.99186740000005,338.9750332000003,338.97504560000016,338.99186740000005,338.99186740000005,338.99186740000005,339.60889769999994,right,1.0,10.51583109999956,,,,,,,,,,,,,,,,,,,,,,,,,,,,,sub-176,1.0,random_dot,59.93612008326343,
left,left,speed,,,,,0.0,1.0,1.0,1.0,8.0,1.0,17.0,0.0,339.6241480000008,,,,,,,,,339.60962910000126,340.42369490000056,341.23986870000044,341.2233809999998,341.2234176000002,341.23986870000044,341.23986870000044,341.23986870000044,341.889967000001,left,1.0,10.553794899999048,,,,,,,,,,,,,,,,,,,,,,,,,,,,,sub-176,1.0,random_dot,59.93612008326343,
right,right,speed,,,,,0.0,1.0,1.0,1.0,9.0,0.0,18.0,1.0,341.9053015999998,,,,,,,,,341.890623700001,342.7050220000001,343.50429970000005,343.48786440000003,343.4878776000005,343.50429970000005,343.50429970000005,343.50429970000005,344.1548651000012,right,1.0,10.559556800000792,,,,,,,,,,,,,,,,,,,,,,,,,,,,,sub-176,1.0,random_dot,59.93612008326343,
left,left,speed,,,,,0.0,1.0,1.0,1.0,9.0,1.0,19.0,0.0,344.1701458999996,,,,,,,,,344.1558275999996,344.2702241999996,345.0861268000008,345.07054419999986,345.0705885999996,345.0861268000008,345.0861268000008,345.0861268000008,345.7706092000008,left,1.0,10.595667999999932,,,,,,,,,,,,,,,,,,,,,,,,,,,,,sub-176,1.0,random_dot,59.93612008326343,
right,right,speed,,,,,0.0,1.0,1.0,1.0,10.0,0.0,20.0,1.0,345.7850529999996,,,,,,,,,345.7717124999999,345.8851066999996,346.68479169999955,346.6690365000013,346.6690808000003,346.68479169999955,346.68479169999955,346.68479169999955,347.9188051000001,right,1.0,11.135206099999778,,,,,,,,,,,,,,,,,,,,,,,,,,,,,sub-176,1.0,random_dot,59.93612008326343,
left,left,speed,,,,,0.0,1.0,1.0,1.0,10.0,1.0,21.0,0.0,347.93318400000135,,,,,,,,,347.9201806000001,349.1319683000001,349.931524900001,349.91512610000063,349.91515150000123,349.931524900001,349.931524900001,349.931524900001,350.56674589999966,left,1.0,10.54594630000065,,,,,,,,,,,,,,,,,,,,,,,,,,,,,sub-176,1.0,random_dot,59.93612008326343,
right,right,speed,,,,,0.0,1.0,1.0,1.0,11.0,0.0,22.0,1.0,350.5806209000002,,,,,,,,,350.56807219999973,351.3799154999997,352.1797440999999,352.1627575000002,352.16277420000006,352.1797440999999,352.1797440999999,352.1797440999999,353.29741450000074,right,1.0,11.026761499999338,,,,,,,,,,,,,,,,,,,,,,,,,,,,,sub-176,1.0,random_dot,59.93612008326343,
left,left,speed,,,,,0.0,1.0,1.0,1.0,11.0,1.0,23.0,0.0,353.31157350000103,,,,,,,,,353.2989109000009,353.41147509999973,354.21089310000025,354.1944650000005,354.19449090000126,354.21089310000025,354.21089310000025,354.21089310000025,354.94412100000045,left,1.0,10.641061000000263,,,,,,,,,,,,,,,,,,,,,,,,,,,,,sub-176,1.0,random_dot,59.93612008326343,
right,right,speed,,,,,0.0,1.0,1.0,1.0,12.0,0.0,24.0,1.0,354.95966059999955,,,,,,,,,354.9448083999996,355.0594859000012,355.8592128,355.8437126000008,355.84375920000093,355.8592128,355.8592128,355.8592128,356.5444041999999,right,1.0,10.587662800000544,,,,,,,,,,,,,,,,,,,,,,,,,,,,,sub-176,1.0,random_dot,59.93612008326343,
left,left,speed,,,,,0.0,1.0,1.0,1.0,12.0,1.0,25.0,0.0,356.55852080000113,,,,,,,,,356.54602890000024,357.35758630000055,358.157053500001,358.1412228999998,358.1412631000003,358.157053500001,358.157053500001,358.157053500001,358.8071815000003,left,1.0,10.563135899999908,,,,,,,,,,,,,,,,,,,,,,,,,,,,,sub-176,1.0,random_dot,59.93612008326343,
left,left,speed,,,,,0.0,1.0,1.0,1.0,13.0,0.0,26.0,0.0,358.8225694000012,,,,,,,,,358.8076509000002,359.6222733000013,360.42193380000026,360.4061806000009,360.40622220000114,360.42193380000026,360.42193380000026,360.42193380000026,360.9895897000006,right,0.0,10.474131799999668,,,,,,,,,,,,,,,,,,,,,,,,,,,,,sub-176,1.0,random_dot,59.93612008326343,
right,right,speed,,,,,0.0,1.0,1.0,1.0,13.0,1.0,27.0,1.0,361.0042174999999,,,,,,,,,360.9908697999999,361.8032639000012,362.60294630000135,362.5860611999997,362.5860712000013,362.60294630000135,362.60294630000135,362.60294630000135,363.2708171000013,right,1.0,10.572351000000708,,,,,,,,,,,,,,,,,,,,,,,,,,,,,sub-176,1.0,random_dot,59.93612008326343,
right,right,speed,,,,,0.0,1.0,1.0,1.0,14.0,0.0,28.0,1.0,363.28560800000014,,,,,,,,,363.2719261000002,363.63491310000063,364.4347491000008,364.4188360999997,364.4188821999997,364.4347491000008,364.4347491000008,364.4347491000008,364.9512969000007,right,1.0,10.42035450000003,,,,,,,,,,,,,,,,,,,,,,,,,,,,,sub-176,1.0,random_dot,59.93612008326343,
left,left,speed,,,,,0.0,1.0,1.0,1.0,14.0,1.0,29.0,0.0,364.9670767000007,,,,,,,,,364.9517682000005,365.0668839999999,365.86684890000106,365.8512271,365.8512793000009,365.86684890000106,365.86684890000106,365.86684890000106,366.70159280000007,left,1.0,10.739580299999943,,,,,,,,,,,,,,,,,,,,,,,,,,,,,sub-176,1.0,random_dot,59.93612008326343,
left,left,speed,,,,,0.0,1.0,1.0,1.0,15.0,0.0,30.0,0.0,366.71554240000114,,,,,,,,,366.7031579000013,367.065053100001,367.8649576000007,367.8484317000002,367.8484606000002,367.8649576000007,367.8649576000007,367.8649576000007,369.11607170000025,left,1.0,11.154521899999963,,,,,,,,,,,,,,,,,,,,,,,,,,,,,sub-176,1.0,random_dot,59.93612008326343,
right,right,speed,,,,,0.0,1.0,1.0,1.0,15.0,1.0,31.0,1.0,369.1298717999998,,,,,,,,,369.1174664999999,369.4796477,370.2792786999999,370.26266380000015,370.2626883000012,370.2792786999999,370.2792786999999,370.2792786999999,370.781432400001,right,1.0,10.412529100000029,,,,,,,,,,,,,,,,,,,,,,,,,,,,,sub-176,1.0,random_dot,59.93612008326343,
left,left,speed,,,,,0.0,1.0,1.0,1.0,16.0,0.0,32.0,0.0,370.7950582000012,,,,,,,,,370.78286320000007,371.99403619999975,372.7938222000012,372.7781573000011,372.7782110000008,372.7938222000012,372.7938222000012,372.7938222000012,373.24438089999967,left,1.0,10.354036599999745,,,,,,,,,,,,,,,,,,,,,,,,,,,,,sub-176,1.0,random_dot,59.93612008326343,
right,right,speed,,,,,0.0,1.0,1.0,1.0,16.0,1.0,33.0,1.0,373.2595746999996,,,,,,,,,373.2453607000007,373.6094042000004,374.4089199000009,374.39268410000113,374.3927216000011,374.4089199000009,374.4089199000009,374.4089199000009,374.8269082999996,right,1.0,10.315080899999884,,,,,,,,,,,,,,,,,,,,,,,,,,,,,sub-176,1.0,random_dot,59.93612008326343,
right,right,speed,,,,,0.0,1.0,1.0,1.0,17.0,0.0,34.0,1.0,374.841139600001,,,,,,,,,374.8283208000012,375.6408270000011,376.4565825000009,376.4398435000003,376.4398567999997,376.4565825000009,376.4565825000009,376.4565825000009,377.0565865999997,right,1.0,10.50328350000018,,,,,,,,,,,,,,,,,,,,,,,,,,,,,sub-176,1.0,random_dot,59.93612008326343,
left,left,speed,,,,,0.0,1.0,1.0,1.0,17.0,1.0,35.0,0.0,377.0723283999996,,,,,,,,,377.0571572999997,377.4221472999998,378.2220960000013,378.2061852000006,378.2062311999998,378.2220960000013,378.2220960000013,378.2220960000013,378.7061867000011,left,1.0,10.381435799999965,,,,,,,,,,,,,,,,,,,,,,,,,,,,,sub-176,1.0,random_dot,59.93612008326343,
left,left,speed,,,,,0.0,1.0,1.0,1.0,18.0,0.0,36.0,0.0,378.7209049000012,,,,,,,,,378.70749500000056,379.9199222999996,380.7197434999998,380.7031106000013,380.70314320000034,380.7197434999998,380.7197434999998,380.7197434999998,381.55268980000073,left,1.0,10.744430000000648,,,,,,,,,,,,,,,,,,,,,,,,,,,,,sub-176,1.0,random_dot,59.93612008326343,
right,right,speed,,,,,0.0,1.0,1.0,1.0,18.0,1.0,37.0,1.0,381.5679990999997,,,,,,,,,381.5535046000005,382.7669769000004,383.56708080000135,383.5510078000007,383.55105970000113,383.56708080000135,383.56708080000135,383.56708080000135,384.0666305000013,right,1.0,10.407183099998292,,,,,,,,,,,,,,,,,,,,,,,,,,,,,sub-176,1.0,random_dot,59.93612008326343,
left,left,speed,,,,,0.0,1.0,1.0,1.0,19.0,0.0,38.0,0.0,384.0822441,,,,,,,,,384.0670545000012,384.8819495999997,385.6815110999996,385.6659615000008,385.6660032,385.6815110999996,385.6815110999996,385.6815110999996,386.2488506000009,left,1.0,10.468685100000584,,,,,,,,,,,,,,,,,,,,,,,,,,,,,sub-176,1.0,random_dot,59.93612008326343,
right,right,speed,,,,,0.0,1.0,1.0,1.0,19.0,1.0,39.0,1.0,386.263990200001,,,,,,,,,386.24991820000105,386.6133279000005,387.4133655000005,387.3970497999999,387.39708249999967,387.4133655000005,387.4133655000005,387.4133655000005,388.03266749999966,right,1.0,10.5298516999992,,,,,,,,,,,,,,,,,,,,,,,,,,,,,sub-176,1.0,random_dot,59.93612008326343,
right,right,speed,,,,,0.0,1.0,1.0,1.0,20.0,0.0,40.0,1.0,388.0456152000006,,,,,,,,,388.0339547000003,388.8449772000004,389.64460900000086,389.6284792000006,389.6285117999996,389.64460900000086,389.64460900000086,389.64460900000086,390.3608426999999,right,1.0,10.620759699999326,,,,,,,,,,,,,,,,,,,,,,,,,,,,,sub-176,1.0,random_dot,59.93612008326343,
left,left,speed,,,,,0.0,1.0,1.0,1.0,20.0,1.0,41.0,0.0,390.376477400001,,,,,,,,,390.3613490999997,391.5755225000012,392.3750680000012,392.35819660000016,392.3582083000001,392.3750680000012,392.3750680000012,392.3750680000012,393.0094638999999,left,1.0,10.538837099999,,,,,,,,,,,,,,,,,,,,,,,,,,,,,sub-176,1.0,random_dot,59.93612008326343,
left,left,speed,,,,,0.0,1.0,1.0,1.0,21.0,0.0,42.0,0.0,393.0242789000004,,,,,,,,,393.01063460000114,393.1241717000012,393.92401150000114,393.9081633000005,393.9082434000011,393.92401150000114,393.92401150000114,393.92401150000114,395.1075701999998,left,1.0,11.086600599999656,,,,,,,,,,,,,,,,,,,,,,,,,,,,,sub-176,1.0,random_dot,59.93612008326343,
right,right,speed,,,,,0.0,1.0,1.0,1.0,21.0,1.0,43.0,1.0,395.12252380000064,,,,,,,,,395.10861060000025,395.2220502,396.0219572000005,396.00601240000105,396.0060537000009,396.0219572000005,396.0219572000005,396.0219572000005,396.92429770000126,right,1.0,10.812990699998409,,,,,,,,,,,,,,,,,,,,,,,,,,,,,sub-176,1.0,random_dot,59.93612008326343,
right,right,speed,,,,,0.0,1.0,1.0,1.0,22.0,0.0,44.0,1.0,396.9373083999999,,,,,,,,,396.9254363,398.1362864000002,398.9359765999998,398.9193747000008,398.91940090000026,398.9359765999998,398.9359765999998,398.9359765999998,400.1196939000001,right,1.0,11.085473600000114,,,,,,,,,,,,,,,,,,,,,,,,,,,,,sub-176,1.0,random_dot,59.93612008326343,
left,left,speed,,,,,0.0,1.0,1.0,1.0,22.0,1.0,45.0,0.0,400.13425710000047,,,,,,,,,400.1209125000005,400.9335914000003,401.7495809000011,401.7328386000008,401.7328519000002,401.7495809000011,401.7495809000011,401.7495809000011,403.08284690000073,left,1.0,11.243691199999375,,,,,,,,,,,,,,,,,,,,,,,,,,,,,sub-176,1.0,random_dot,59.93612008326343,
left,left,speed,,,,,0.0,1.0,1.0,1.0,23.0,0.0,46.0,0.0,403.0982597000002,,,,,,,,,403.08396730000095,404.2970001000013,405.0967907000013,405.0799036000008,405.0799207,405.0967907000013,405.0967907000013,405.0967907000013,405.74973710000086,left,1.0,10.563277000001108,,,,,,,,,,,,,,,,,,,,,,,,,,,,,sub-176,1.0,random_dot,59.93612008326343,
right,right,speed,,,,,0.0,1.0,1.0,1.0,23.0,1.0,47.0,1.0,405.76243609999983,,,,,,,,,405.7510542,406.1120520000004,406.9282172000003,406.9122097,406.91225470000063,406.9282172000003,406.9282172000003,406.9282172000003,407.4312112999996,right,1.0,10.413977500000328,,,,,,,,,,,,,,,,,,,,,,,,,,,,,sub-176,1.0,random_dot,59.93612008326343,
right,right,speed,,,,,0.0,1.0,1.0,1.0,24.0,0.0,48.0,1.0,407.4443281000004,,,,,,,,,407.4324269999997,407.544174300001,408.34375999999975,408.3280789,408.32812399999966,408.34375999999975,408.34375999999975,408.34375999999975,408.9781645000003,right,1.0,10.541827199998806,,,,,,,,,,,,,,,,,,,,,,,,,,,,,sub-176,1.0,random_dot,59.93612008326343,
left,left,speed,,,,,0.0,1.0,1.0,1.0,24.0,1.0,49.0,0.0,408.9926603000004,,,,,,,,,408.9793915000009,409.7919383999997,410.59134730000005,410.5746230000004,410.5746326000008,410.59134730000005,410.59134730000005,410.59134730000005,411.42574010000135,left,1.0,10.746885900000052,,,,,,,,,,,,,,,,,,,,,,,,,,,,,sub-176,1.0,random_dot,59.93612008326343,
right,right,speed,,,,,0.0,1.0,1.0,1.0,25.0,0.0,50.0,1.0,411.4403546000012,,,,,,,,,411.4264936,411.7898894000009,412.5898235000004,412.5740834999997,412.5741345000006,412.5898235000004,412.5898235000004,412.5898235000004,413.1562666000009,right,1.0,10.479025799999365,,,,,,,,,,,,,,,,,,,,,,,,,,,,,sub-176,1.0,random_dot,59.93612008326343,
left,left,speed,,,,,0.0,1.0,1.0,1.0,25.0,1.0,51.0,0.0,413.1717566000007,,,,,,,,,413.15680840000095,414.3708055999996,415.1705586999997,415.1538108000004,415.15382169999975,415.1705586999997,415.1705586999997,415.1705586999997,415.93753520000064,left,1.0,10.674436199999036,,,,,,,,,,,,,,,,,,,,,,,,,,,,,sub-176,1.0,random_dot,59.93612008326343,
left,left,speed,,,,,0.0,1.0,1.0,1.0,26.0,0.0,52.0,0.0,415.9529430000002,,,,,,,,,415.938082300001,416.7518633,417.5517135000009,417.5361396000008,417.53619080000135,417.5517135000009,417.5517135000009,417.5517135000009,418.1347802,right,0.0,10.48605680000037,,,,,,,,,,,,,,,,,,,,,,,,,,,,,sub-176,1.0,random_dot,59.93612008326343,
right,right,speed,,,,,0.0,1.0,1.0,1.0,26.0,1.0,53.0,1.0,418.1505237000001,,,,,,,,,418.13534009999967,418.50044850000086,419.3165950000002,419.2996746999997,419.2996868999999,419.3165950000002,419.3165950000002,419.3165950000002,419.8848216000006,right,1.0,10.474148699999205,,,,,,,,,,,,,,,,,,,,,,,,,,,,,sub-176,1.0,random_dot,59.93612008326343,
right,right,speed,,,,,0.0,1.0,1.0,1.0,27.0,0.0,54.0,1.0,419.8991748999997,,,,,,,,,419.8862554000007,420.6983736000002,421.4980437000013,421.4821577000002,421.48220290000063,421.4980437000013,421.4980437000013,421.4980437000013,422.1162423000005,right,1.0,10.516113899999254,,,,,,,,,,,,,,,,,,,,,,,,,,,,,sub-176,1.0,random_dot,59.93612008326343,
left,left,speed,,,,,0.0,1.0,1.0,1.0,27.0,1.0,55.0,0.0,422.1305759000006,,,,,,,,,422.11777660000007,422.4801836000006,423.2961477999997,423.2792243000004,423.2792416000011,423.2961477999997,423.2961477999997,423.2961477999997,423.8641912000003,left,1.0,10.470712500000444,,,,,,,,,,,,,,,,,,,,,,,,,,,,,sub-176,1.0,random_dot,59.93612008326343,
left,left,speed,,,,,0.0,1.0,1.0,1.0,28.0,0.0,56.0,0.0,423.8787556999996,,,,,,,,,423.8653731000013,425.07740580000063,425.8773254999997,425.8613591000012,425.861400400001,425.8773254999997,425.8773254999997,425.8773254999997,426.4623639000001,left,1.0,10.48179699999855,,,,,,,,,,,,,,,,,,,,,,,,,,,,,sub-176,1.0,random_dot,59.93612008326343,
right,right,speed,,,,,0.0,1.0,1.0,1.0,28.0,1.0,57.0,1.0,426.4763569999996,,,,,,,,,426.4637856000009,427.67535430000135,428.47482350000064,428.4588416000006,428.4588827999996,428.47482350000064,428.47482350000064,428.47482350000064,428.9756725000007,right,1.0,10.410588599999755,,,,,,,,,,,,,,,,,,,,,,,,,,,,,sub-176,1.0,random_dot,59.93612008326343,
left,left,speed,,,,,0.0,1.0,1.0,1.0,29.0,0.0,58.0,0.0,428.99055790000057,,,,,,,,,428.9768292000008,429.0903759000012,429.89035909999984,429.87445130000015,429.8744974000001,429.89035909999984,429.89035909999984,429.89035909999984,430.37459240000135,left,1.0,10.383361800000785,,,,,,,,,,,,,,,,,,,,,,,,,,,,,sub-176,1.0,random_dot,59.93612008326343,
right,right,speed,,,,,0.0,1.0,1.0,1.0,29.0,1.0,59.0,1.0,430.38930600000094,,,,,,,,,430.37577969999984,430.4891989000007,431.2889520999997,431.2728598000013,431.2728962000001,431.2889520999997,431.2889520999997,431.2889520999997,431.9884691000007,right,1.0,10.60318229999939,,,,,,,,,,,,,,,,,,,,,,,,,,,,,sub-176,1.0,random_dot,59.93612008326343,
,,speed,,,,,0.0,1.0,1.0,1.0,,,,,,,,,,,,,,,,,,,,,,,,,,,,,,,,,,,,,,,,,,,,,,,,,,,,,,sub-176,1.0,random_dot,59.93612008326343,
,,,,,,,,,,,,,,,,,,,,,,,,,,,,,,,,,,,,,,,,,,,,,,,,,,,,,,,,,,,,,,431.9888060000012,432.0043357000013,sub-176,,,,
