direction,corrAns,thisN,thisTrialN,thisRepN,respDots.keys,respDots.corr,respDots.rt,respDots.duration,randomInstr,respRandomInstr.keys,respRandomInstr.rt,respRandomInstr.duration,practice_trials.thisRepN,practice_trials.thisTrialN,practice_trials.thisN,practice_trials.thisIndex,instr_trials.thisRepN,instr_trials.thisTrialN,instr_trials.thisN,instr_trials.thisIndex,test_trials.thisRepN,test_trials.thisTrialN,test_trials.thisN,test_trials.thisIndex,thisRow.t,notes,general_instruction.started,textGeneralInstr.started,respGeneralInstr.started,general_instruction.stopped,respGeneralInstr.keys,respGeneralInstr.rt,respGeneralInstr.duration,ITI.started,fixcross.started,fixcross.stopped,ITI.stopped,dots.started,backgroundDots.started,stimulusDots.started,respDots.started,stimulusDots.stopped,dots.stopped,practice_trials.respDots.keys,practice_trials.respDots.corr,practice_trials.respDots.rt,practice_trials.respDots.duration,feedback.started,textFeedback.started,feedback.stopped,textFeedback.stopped,info.started,textInfo.started,keyRespInfo.started,info.stopped,keyRespInfo.keys,keyRespInfo.rt,keyRespInfo.duration,test_instruction.started,textTestInstr.started,respTestInstr.started,test_instruction.stopped,respTestInstr.keys,respTestInstr.rt,respTestInstr.duration,random_instruction.started,textRandomInstr.started,respRandomInstr.started,random_instruction.stopped,instr_trials.respRandomInstr.keys,instr_trials.respRandomInstr.rt,instr_trials.respRandomInstr.duration,test_trials.respDots.keys,test_trials.respDots.corr,test_trials.respDots.rt,test_trials.respDots.duration,goodbye.started,textGoodbye.started,participant,session,expName,frameRate,Unnamed: 86
,,,,,,,,,,,,,,,,,,,,,,,,,,,0.0146127499999693,0.0229865419998986,0.0229865419998986,31.74844629199993,space,31.60886437499994,,,,,,,,,,,,,,,,,,,,,,,,,,,,,,,,,,,,,,,,,,,,,,,sub-216,1.0,random_dot,,
left,left,0.0,0.0,0.0,left,1.0,6.2531068339999365,,,,,,0.0,0.0,0.0,0.0,,,,,,,,,31.781679291999808,,,,,,,,,31.764622959000008,32.60416387499981,33.45119275000002,33.38875066699984,33.389511791999894,33.45119275000002,33.45119275000002,33.45119275000002,38.37703483399992,39.70631004199981,left,1.0,6.2531068339999365,,39.717021209,39.74555274999989,40.210970666999856,,,,,,,,,,,,,,,,,,,,,,,,,,,,,sub-216,1.0,random_dot,,
right,right,1.0,1.0,0.0,right,1.0,5.17078708400004,,,,,,0.0,1.0,1.0,1.0,,,,,,,,,40.221860417000016,,,,,,,,,40.21149354199997,40.55497137499992,41.3462354589999,41.33852912499992,41.339068291999865,41.3462354589999,41.3462354589999,41.3462354589999,46.338272125,46.522767875,right,1.0,5.17078708400004,,46.52290845899984,46.53360633399984,47.02225833399984,47.02786616699996,,,,,,,,,,,,,,,,,,,,,,,,,,,,sub-216,1.0,random_dot,,
left,left,2.0,0.0,1.0,left,1.0,6.222704582999995,,,,,,1.0,0.0,2.0,0.0,,,,,,,,,47.02786616699996,,,,,,,,,47.02285620899988,48.22177624999995,49.01307391699993,49.00542187499991,49.00613158399983,49.01307391699993,49.01307391699993,49.01307391699993,54.00508054199986,55.24032566699998,left,1.0,6.222704582999995,,55.240571458999966,55.249000958999886,55.73879820899992,55.74438512500001,,,,,,,,,,,,,,,,,,,,,,,,,,,,sub-216,1.0,random_dot,,
right,right,3.0,1.0,1.0,left,0.0,2.752926208999952,,,,,,1.0,1.0,3.0,1.0,,,,,,,,,55.74438512500001,,,,,,,,,55.73939974999985,56.08840462499984,56.880584667,56.87225816699993,56.87295904199982,56.880584667,56.880584667,56.880584667,,59.639561249999815,left,0.0,2.752926208999952,,59.64690541699997,59.66662920899989,60.14261608399988,,,,,,,,,,,,,,,,,,,,,,,,,,,,,sub-216,1.0,random_dot,,
left,left,4.0,0.0,2.0,left,1.0,5.396527375000005,,,,,,2.0,0.0,4.0,0.0,,,,,,,,,60.15512970899999,,,,,,,,,60.143050458999824,60.93846166699996,61.73003204199995,61.722084374999895,61.72277733399983,61.73003204199995,61.73003204199995,61.73003204199995,66.71016870899984,67.12809791699988,left,1.0,5.396527375000005,,67.13249754200001,67.14185062499996,67.62793729199984,67.6386148749998,,,,,,,,,,,,,,,,,,,,,,,,,,,,sub-216,1.0,random_dot,,
right,right,5.0,1.0,2.0,left,0.0,5.752212166999925,,,,,,2.0,1.0,5.0,1.0,,,,,,,,,67.6386148749998,,,,,,,,,67.62833204200001,68.42830408399982,69.22023820899994,69.21091883399981,69.21136533399999,69.22023820899994,69.22023820899994,69.22023820899994,74.2049884999999,74.97844341699988,left,0.0,5.752212166999925,,74.98229674999993,74.99182208399998,75.47756370899992,75.48839049999992,,,,,,,,,,,,,,,,,,,,,,,,,,,,sub-216,1.0,random_dot,,
right,right,6.0,0.0,3.0,right,1.0,4.280289000000039,,,,,,3.0,0.0,6.0,1.0,,,,,,,,,75.48839049999992,,,,,,,,,75.47791925000001,76.67695291699988,77.4715884589998,77.46091424999986,77.46135208399983,77.4715884589998,77.4715884589998,77.4715884589998,,81.75620654199997,right,1.0,4.280289000000039,,81.76133216699986,81.76907270899983,82.25558658399996,82.26120512499983,,,,,,,,,,,,,,,,,,,,,,,,,,,,sub-216,1.0,random_dot,,
left,left,7.0,1.0,3.0,right,0.0,3.3771581249998235,,,,,,3.0,1.0,7.0,0.0,,,,,,,,,82.26120512499983,,,,,,,,,82.25615829200001,82.3549157089999,83.14620991699985,83.13859833400011,83.13918254200007,83.14620991699985,83.14620991699985,83.14620991699985,,86.52997929200001,right,0.0,3.3771581249998235,,86.53365799999983,86.541763834,87.02791487500008,87.03841741699989,,,,,,,,,,,,,,,,,,,,,,,,,,,,sub-216,1.0,random_dot,,
left,left,8.0,0.0,4.0,left,1.0,3.74148333300036,,,,,,4.0,0.0,8.0,0.0,,,,,,,,,87.03841741699989,,,,,,,,,87.02836470900002,87.82740854199983,88.62119037499997,88.61123687500003,88.61169145899976,88.62119037499997,88.62119037499997,88.62119037499997,,92.3730449169998,left,1.0,3.74148333300036,,92.37809079199997,92.3862399589998,92.87223399999992,92.87778637499969,,,,,,,,,,,,,,,,,,,,,,,,,,,,sub-216,1.0,random_dot,,
right,right,9.0,1.0,4.0,left,0.0,2.895813167000142,,,,,,4.0,1.0,9.0,1.0,,,,,,,,,92.87778637499969,,,,,,,,,92.87281499999972,93.2217744589998,94.01354454200008,94.00540554200006,94.006103875,94.01354454200008,94.01354454200008,94.01354454200008,,96.91194395899991,left,0.0,2.895813167000142,,96.91569545899983,96.92520504200002,97.4100592499999,97.4217790419998,,,,,,,,,,,,,,,,,,,,,,,,,,,,sub-216,1.0,random_dot,,
left,left,10.0,0.0,5.0,right,0.0,4.48125462500002,,,,,,5.0,0.0,10.0,0.0,,,,,,,,,97.4217790419998,,,,,,,,,97.41052304200002,98.21104941699969,99.00442475,98.9945009170001,98.99494624999988,99.00442475,99.00442475,99.00442475,,103.48957812499977,right,0.0,4.48125462500002,,103.489754792,103.4978514999998,103.98874924999971,103.994335417,,,,,,,,,,,,,,,,,,,,,,,,,,,,sub-216,1.0,random_dot,,
right,right,11.0,1.0,5.0,left,0.0,5.430858582999917,,,,,,5.0,1.0,11.0,1.0,,,,,,,,,103.994335417,,,,,,,,,103.98935729200002,105.1884652089998,105.98025624999993,105.97212987500006,105.972830917,105.98025624999993,105.98025624999993,105.98025624999993,110.97166666699968,111.42301270899998,left,0.0,5.430858582999917,,111.42319470899974,111.4311272089999,111.922083209,111.92762249999988,,,,,,,,,,,,,,,,,,,,,,,,,,,,sub-216,1.0,random_dot,,
left,left,12.0,0.0,6.0,left,1.0,2.767752333000317,,,,,,6.0,0.0,12.0,0.0,,,,,,,,,111.92762249999988,,,,,,,,,111.922685042,112.72171708399992,113.51300087499976,113.50537229199972,113.50607916699984,113.51300087499976,113.51300087499976,113.51300087499976,,116.28889320899998,left,1.0,2.767752333000317,,116.292952667,116.3010372499998,116.78876349999972,116.79417970899976,,,,,,,,,,,,,,,,,,,,,,,,,,,,sub-216,1.0,random_dot,,
right,right,13.0,1.0,6.0,right,1.0,5.814249250000103,,,,,,6.0,1.0,13.0,1.0,,,,,,,,,116.79417970899976,,,,,,,,,116.78938145899974,116.87789304199988,117.67003758400006,117.661152959,117.66167608399974,117.67003758400006,117.67003758400006,117.67003758400006,122.65495749999992,123.4902374999997,right,1.0,5.814249250000103,,123.49048341699972,123.49904250000009,123.98864454199976,123.99407220900002,,,,,,,,,,,,,,,,,,,,,,,,,,,,sub-216,1.0,random_dot,,
right,right,14.0,0.0,7.0,left,0.0,2.3270409579999978,,,,,,7.0,0.0,14.0,1.0,,,,,,,,,123.99407220900002,,,,,,,,,123.98923424999975,124.78829799999994,125.580004292,125.57215079199976,125.5728587499998,125.580004292,125.580004292,125.580004292,,127.91208104199995,left,0.0,2.3270409579999978,,127.91588679200004,127.92506179199972,128.4111507499997,128.42171033399973,,,,,,,,,,,,,,,,,,,,,,,,,,,,sub-216,1.0,random_dot,,
left,left,15.0,1.0,7.0,left,1.0,5.533985749999829,,,,,,7.0,1.0,15.0,0.0,,,,,,,,,128.42171033399973,,,,,,,,,128.41160541699992,129.20927437499995,130.00499274999993,129.99332833400013,129.9938075,130.00499274999993,130.00499274999993,130.00499274999993,134.9884996249998,135.54585108399988,left,1.0,5.533985749999829,,135.54966495899998,135.55841762499995,136.04449791699972,136.0550415839998,,,,,,,,,,,,,,,,,,,,,,,,,,,,sub-216,1.0,random_dot,,
left,left,16.0,0.0,8.0,left,1.0,5.4625135830001454,,,,,,8.0,0.0,16.0,0.0,,,,,,,,,136.0550415839998,,,,,,,,,136.0448724590001,136.14460066699985,136.93819374999975,136.92765495899994,136.92808616699995,136.93819374999975,136.93819374999975,136.93819374999975,141.9216792090001,142.4069586669998,left,1.0,5.4625135830001454,,142.4071128339997,142.41573974999983,142.90552420899985,142.91083725,,,,,,,,,,,,,,,,,,,,,,,,,,,,sub-216,1.0,random_dot,,
right,right,17.0,1.0,8.0,right,1.0,5.654923749999853,,,,,,8.0,1.0,17.0,1.0,,,,,,,,,142.91083725,,,,,,,,,142.90610395900012,143.7049797499999,144.49608316700005,144.48856295899986,144.4890861670001,144.49608316700005,144.49608316700005,144.49608316700005,149.47715679199973,150.156967292,right,1.0,5.654923749999853,,150.15714049999997,150.165853125,150.6552885420001,150.6599608749998,,,,,,,,,,,,,,,,,,,,,,,,,,,,sub-216,1.0,random_dot,,
right,right,18.0,0.0,9.0,left,0.0,5.337869958000283,,,,,,9.0,0.0,18.0,1.0,,,,,,,,,150.6599608749998,,,,,,,,,150.65573541699996,151.4550885839999,152.24592737500006,152.23860820899972,152.23913783399985,152.24592737500006,152.24592737500006,152.24592737500006,157.22730254199996,157.590305875,left,0.0,5.337869958000283,,157.59514308400003,157.60387850000006,158.0889834589998,158.09437579199994,,,,,,,,,,,,,,,,,,,,,,,,,,,,sub-216,1.0,random_dot,,
left,left,19.0,1.0,9.0,right,0.0,3.0037078750001456,,,,,,9.0,1.0,19.0,0.0,,,,,,,,,158.09437579199994,,,,,,,,,158.08956575000002,158.1884676669997,158.97973074999982,158.97204833399974,158.97275695899998,158.97973074999982,158.97973074999982,158.97973074999982,,161.98994808399993,right,0.0,3.0037078750001456,,161.99013991699985,161.9991730419997,162.48896149999973,162.49722004199975,,,,,,,,,,,,,,,,,,,,,,,,,,,,sub-216,1.0,random_dot,,
,,,,,,,,,,,,,,,,,,,,,,,,,,,,,,,,,,,,,,,,,,,,,,,,,,,,162.4891936670001,162.49722004199975,162.49722004199975,165.6904178750001,space,3.181831332999991,,,,,,,,,,,,,,,,,,,,,,sub-216,1.0,random_dot,,
,,,,,,,,,,,,,,,,,,,,,,,,,,,,,,,,,,,,,,,,,,,,,,,,,,,,,,,,,,,165.6905644999997,165.70387237499972,165.70387237499972,169.79004595900005,space,4.076202833000025,,,,,,,,,,,,,,,sub-216,1.0,random_dot,,
right,right,0.0,0.0,0.0,right,1.0,5.015235458000007,,accuracy,space,2.71078820799994,,,,,,0.0,0.0,0.0,0.0,0.0,0.0,0.0,1.0,172.55737762499984,,,,,,,,,172.55009570899983,172.6384559590001,173.42883408399985,173.42175937499997,173.4221990420001,173.42883408399985,173.42883408399985,173.42883408399985,178.4096379590001,178.44566245899978,,,,,,,,,,,,,,,,,,,,,,,169.81537287499987,169.8229527499998,169.8229527499998,172.53953995899974,space,2.71078820799994,,right,1.0,5.015235458000007,,,,sub-216,1.0,random_dot,,
left,left,1.0,1.0,0.0,right,0.0,2.2371358749996944,,accuracy,space,2.71078820799994,,,,,,0.0,0.0,0.0,0.0,0.0,1.0,1.0,0.0,178.45352820900007,,,,,,,,,178.446259542,179.64280583399977,180.4371967920001,180.427792042,180.42832099999987,180.4371967920001,180.4371967920001,180.4371967920001,,182.6802134589998,,,,,,,,,,,,,,,,,,,,,,,,,,,,,,right,0.0,2.2371358749996944,,,,sub-216,1.0,random_dot,,
right,right,2.0,0.0,1.0,left,0.0,2.617960250000124,,accuracy,space,2.71078820799994,,,,,,0.0,0.0,0.0,0.0,1.0,0.0,2.0,1.0,182.68767829199987,,,,,,,,,182.68068162500003,182.7776949169997,183.5709186670001,183.561018292,183.56155070900013,183.5709186670001,183.5709186670001,183.5709186670001,,186.19966724999995,,,,,,,,,,,,,,,,,,,,,,,,,,,,,,left,0.0,2.617960250000124,,,,sub-216,1.0,random_dot,,
left,left,3.0,1.0,1.0,left,1.0,2.118008207999992,,accuracy,space,2.71078820799994,,,,,,0.0,0.0,0.0,0.0,1.0,1.0,3.0,0.0,186.20452970899987,,,,,,,,,186.2001324590001,186.9936347089997,187.78675804199972,187.77780895899969,187.778253042,187.78675804199972,187.78675804199972,187.78675804199972,,189.90625624999984,,,,,,,,,,,,,,,,,,,,,,,,,,,,,,left,1.0,2.118008207999992,,,,sub-216,1.0,random_dot,,
right,right,4.0,0.0,2.0,left,0.0,4.278617417000078,,accuracy,space,2.71078820799994,,,,,,0.0,0.0,0.0,0.0,2.0,0.0,4.0,1.0,189.91386033399976,,,,,,,,,189.9067759999998,191.10503770900004,191.8969979589997,191.8886777499997,191.88935816699995,191.8969979589997,191.8969979589997,191.8969979589997,,196.1794850840001,,,,,,,,,,,,,,,,,,,,,,,,,,,,,,left,0.0,4.278617417000078,,,,sub-216,1.0,random_dot,,
left,left,5.0,1.0,2.0,right,0.0,5.305687958999897,,accuracy,space,2.71078820799994,,,,,,0.0,0.0,0.0,0.0,2.0,1.0,5.0,0.0,196.18758745900004,,,,,,,,,196.1799591250001,196.52761058399983,197.31999345899976,197.31109320899984,197.3116238749999,197.31999345899976,197.31999345899976,197.31999345899976,202.3114672920001,202.62885275000008,,,,,,,,,,,,,,,,,,,,,,,,,,,,,,right,0.0,5.305687958999897,,,,sub-216,1.0,random_dot,,
left,left,6.0,0.0,3.0,right,0.0,4.984106708000127,,accuracy,space,2.71078820799994,,,,,,0.0,0.0,0.0,0.0,3.0,0.0,6.0,0.0,202.63724687500007,,,,,,,,,202.629336,202.7277590839999,203.5200113749997,203.51091899999983,203.5114616249998,203.5200113749997,203.5200113749997,203.5200113749997,208.50488366699983,208.50624437499985,,,,,,,,,,,,,,,,,,,,,,,,,,,,,,right,0.0,4.984106708000127,,,,sub-216,1.0,random_dot,,
right,right,7.0,1.0,3.0,right,1.0,5.120337917000143,,accuracy,space,2.71078820799994,,,,,,0.0,0.0,0.0,0.0,3.0,1.0,7.0,1.0,208.5149375420001,,,,,,,,,208.50690133399985,208.854915292,209.64751529199972,209.63875929200003,209.639452292,209.64751529199972,209.64751529199972,209.64751529199972,214.62698550000005,214.77390970899975,,,,,,,,,,,,,,,,,,,,,,,,,,,,,,right,1.0,5.120337917000143,,,,sub-216,1.0,random_dot,,
left,left,8.0,0.0,4.0,left,1.0,5.60461554199992,,accuracy,space,2.71078820799994,,,,,,0.0,0.0,0.0,0.0,4.0,0.0,8.0,0.0,214.78296291700008,,,,,,,,,214.7748718339999,215.12176929199995,215.9132462919997,215.9053588339998,215.9060654169998,215.9132462919997,215.9132462919997,215.9132462919997,220.89367508399985,221.52346816699992,,,,,,,,,,,,,,,,,,,,,,,,,,,,,,left,1.0,5.60461554199992,,,,sub-216,1.0,random_dot,,
right,right,9.0,1.0,4.0,right,1.0,2.2386967920001557,,accuracy,space,2.71078820799994,,,,,,0.0,0.0,0.0,0.0,4.0,1.0,9.0,1.0,221.53246279199996,,,,,,,,,221.52439429200007,221.87170908400003,222.66365366699983,222.65535499999987,222.65603495899995,222.66365366699983,222.66365366699983,222.66365366699983,,224.9047799169998,,,,,,,,,,,,,,,,,,,,,,,,,,,,,,right,1.0,2.2386967920001557,,,,sub-216,1.0,random_dot,,
right,right,10.0,0.0,5.0,right,1.0,3.624670750000405,,accuracy,space,2.71078820799994,,,,,,0.0,0.0,0.0,0.0,5.0,0.0,10.0,1.0,224.91305974999975,,,,,,,,,224.90527320899992,226.09454074999985,226.88817570899985,226.87756037500003,226.878002125,226.88817570899985,226.88817570899985,226.88817570899985,,230.52284329199983,,,,,,,,,,,,,,,,,,,,,,,,,,,,,,right,1.0,3.624670750000405,,,,sub-216,1.0,random_dot,,
left,left,11.0,1.0,5.0,left,1.0,5.621614749999935,,accuracy,space,2.71078820799994,,,,,,0.0,0.0,0.0,0.0,5.0,1.0,11.0,0.0,230.5312279169998,,,,,,,,,230.52338087499996,231.32161216699976,232.113083709,232.10547300000007,232.1061427919999,232.113083709,232.113083709,232.113083709,237.0937239169998,237.74020145899976,,,,,,,,,,,,,,,,,,,,,,,,,,,,,,left,1.0,5.621614749999935,,,,sub-216,1.0,random_dot,,
left,left,12.0,0.0,6.0,right,0.0,4.934981332999996,,accuracy,space,2.71078820799994,,,,,,0.0,0.0,0.0,0.0,6.0,0.0,12.0,0.0,237.74926241699995,,,,,,,,,237.741159917,238.08844229199985,238.8791014999997,238.871964125,238.87242966699975,238.8791014999997,238.8791014999997,238.8791014999997,,243.82279912500007,,,,,,,,,,,,,,,,,,,,,,,,,,,,,,right,0.0,4.934981332999996,,,,sub-216,1.0,random_dot,,
right,right,13.0,1.0,6.0,left,0.0,4.221516999999949,,accuracy,space,2.71078820799994,,,,,,0.0,0.0,0.0,0.0,6.0,1.0,13.0,1.0,243.830928375,,,,,,,,,243.82328608399985,244.17166425000005,244.963182167,244.95554712500007,244.956205125,244.963182167,244.963182167,244.963182167,,249.1895704589997,,,,,,,,,,,,,,,,,,,,,,,,,,,,,,left,0.0,4.221516999999949,,,,sub-216,1.0,random_dot,,
right,right,14.0,0.0,7.0,right,1.0,3.795826458999727,,accuracy,space,2.71078820799994,,,,,,0.0,0.0,0.0,0.0,7.0,0.0,14.0,1.0,249.198260959,,,,,,,,,249.1902392920001,249.53840283399995,250.3298518749998,250.32195866699976,250.3224883339999,250.3298518749998,250.3298518749998,250.3298518749998,,254.1299077919998,,,,,,,,,,,,,,,,,,,,,,,,,,,,,,right,1.0,3.795826458999727,,,,sub-216,1.0,random_dot,,
left,left,15.0,1.0,7.0,left,1.0,1.721973208000236,,accuracy,space,2.71078820799994,,,,,,0.0,0.0,0.0,0.0,7.0,1.0,15.0,0.0,254.138033875,,,,,,,,,254.13037662499983,254.9278463749997,255.72932108399985,255.72182191699997,255.72235054199973,255.72932108399985,255.72932108399985,255.72932108399985,,257.4563733340001,,,,,,,,,,,,,,,,,,,,,,,,,,,,,,left,1.0,1.721973208000236,,,,sub-216,1.0,random_dot,,
left,left,16.0,0.0,8.0,left,1.0,2.2272058339999603,,accuracy,space,2.71078820799994,,,,,,0.0,0.0,0.0,0.0,8.0,0.0,16.0,0.0,257.46509458399987,,,,,,,,,257.45703525,257.5551452499999,258.3459836249999,258.3386597919998,258.3391876669998,258.3459836249999,258.3459836249999,258.3459836249999,,260.578992667,,,,,,,,,,,,,,,,,,,,,,,,,,,,,,left,1.0,2.2272058339999603,,,,sub-216,1.0,random_dot,,
right,right,17.0,1.0,8.0,right,1.0,3.490876667000066,,accuracy,space,2.71078820799994,,,,,,0.0,0.0,0.0,0.0,8.0,1.0,17.0,1.0,260.5872139590001,,,,,,,,,260.5794783749998,260.6770590420001,261.47114487499994,261.46105320900006,261.46152774999973,261.47114487499994,261.47114487499994,261.47114487499994,,264.9735366249997,,,,,,,,,,,,,,,,,,,,,,,,,,,,,,right,1.0,3.490876667000066,,,,sub-216,1.0,random_dot,,
right,right,18.0,0.0,9.0,left,0.0,2.065833792000376,,accuracy,space,2.71078820799994,,,,,,0.0,0.0,0.0,0.0,9.0,0.0,18.0,1.0,264.982188125,,,,,,,,,264.97439733400006,265.771739625,266.56366154199986,266.55558137499975,266.5562599589998,266.56366154199986,266.56366154199986,266.56366154199986,,268.640637084,,,,,,,,,,,,,,,,,,,,,,,,,,,,,,left,0.0,2.065833792000376,,,,sub-216,1.0,random_dot,,
left,left,19.0,1.0,9.0,right,0.0,1.3425787920000405,,accuracy,space,2.71078820799994,,,,,,0.0,0.0,0.0,0.0,9.0,1.0,19.0,0.0,268.64925441700007,,,,,,,,,268.6414279589999,269.83834262499977,270.62963949999994,270.6220172089997,270.62271950000013,270.62963949999994,270.62963949999994,270.62963949999994,,271.98289933399974,,,,,,,,,,,,,,,,,,,,,,,,,,,,,,right,0.0,1.3425787920000405,,,,sub-216,1.0,random_dot,,
left,left,20.0,0.0,10.0,right,0.0,1.9903229169999577,,accuracy,space,2.71078820799994,,,,,,0.0,0.0,0.0,0.0,10.0,0.0,20.0,0.0,271.9877664169999,,,,,,,,,271.9833520419997,272.77800479200005,273.57103874999984,273.56102574999977,273.56148066700007,273.57103874999984,273.57103874999984,273.57103874999984,,275.5734376669998,,,,,,,,,,,,,,,,,,,,,,,,,,,,,,right,0.0,1.9903229169999577,,,,sub-216,1.0,random_dot,,
right,right,21.0,1.0,10.0,left,0.0,4.47978695799975,,accuracy,space,2.71078820799994,,,,,,0.0,0.0,0.0,0.0,10.0,1.0,21.0,1.0,275.5819017499998,,,,,,,,,275.5740739170001,276.3714675420001,277.163210959,277.1553604999999,277.1560421670001,277.163210959,277.163210959,277.163210959,,281.6479106669999,,,,,,,,,,,,,,,,,,,,,,,,,,,,,,left,0.0,4.47978695799975,,,,sub-216,1.0,random_dot,,
left,left,22.0,0.0,11.0,left,1.0,2.3678574999999,,accuracy,space,2.71078820799994,,,,,,0.0,0.0,0.0,0.0,11.0,0.0,22.0,0.0,281.65866479199985,,,,,,,,,281.6484955420001,282.44457525000007,283.2366737499997,283.227887,283.2284169589998,283.2366737499997,283.2366737499997,283.2366737499997,,285.61433933399985,,,,,,,,,,,,,,,,,,,,,,,,,,,,,,left,1.0,2.3678574999999,,,,sub-216,1.0,random_dot,,
right,right,23.0,1.0,11.0,right,1.0,1.8261132500001624,,accuracy,space,2.71078820799994,,,,,,0.0,0.0,0.0,0.0,11.0,1.0,23.0,1.0,285.6199919589999,,,,,,,,,285.6147848339997,286.4113138339999,287.2033335840001,287.1943833340001,287.194912,287.2033335840001,287.2033335840001,287.2033335840001,,289.0396712500001,,,,,,,,,,,,,,,,,,,,,,,,,,,,,,right,1.0,1.8261132500001624,,,,sub-216,1.0,random_dot,,
right,right,24.0,0.0,12.0,left,0.0,5.62787174999994,,accuracy,space,2.71078820799994,,,,,,0.0,0.0,0.0,0.0,12.0,0.0,24.0,1.0,289.0482361669997,,,,,,,,,289.0403289589999,289.3881245839998,290.1802829590001,290.1721912089997,290.17285754199975,290.1802829590001,290.1802829590001,290.1802829590001,295.1608564170001,295.81257041699973,,,,,,,,,,,,,,,,,,,,,,,,,,,,,,left,0.0,5.62787174999994,,,,sub-216,1.0,random_dot,,
left,left,25.0,1.0,12.0,right,0.0,1.3852885410001363,,accuracy,space,2.71078820799994,,,,,,0.0,0.0,0.0,0.0,12.0,1.0,25.0,0.0,295.82081712499985,,,,,,,,,295.8130391249997,295.9133418749998,296.71294179200004,296.705338792,296.7060420839998,296.71294179200004,296.71294179200004,296.71294179200004,,298.1046939170001,,,,,,,,,,,,,,,,,,,,,,,,,,,,,,right,0.0,1.3852885410001363,,,,sub-216,1.0,random_dot,,
left,left,26.0,0.0,13.0,left,1.0,5.533316415999707,,accuracy,space,2.71078820799994,,,,,,0.0,0.0,0.0,0.0,13.0,0.0,26.0,0.0,298.112965542,,,,,,,,,298.1052239589999,298.194143917,298.9882265000001,298.9776140839999,298.97809737499983,298.9882265000001,298.9882265000001,298.9882265000001,303.971664875,304.5233928749999,,,,,,,,,,,,,,,,,,,,,,,,,,,,,,left,1.0,5.533316415999707,,,,sub-216,1.0,random_dot,,
right,right,27.0,1.0,13.0,right,1.0,1.869308207999893,,accuracy,space,2.71078820799994,,,,,,0.0,0.0,0.0,0.0,13.0,1.0,27.0,1.0,304.531636667,,,,,,,,,304.5239552919997,304.6216428749999,305.4128798339998,305.40515908399993,305.405695125,305.4128798339998,305.4128798339998,305.4128798339998,,307.28961983399995,,,,,,,,,,,,,,,,,,,,,,,,,,,,,,right,1.0,1.869308207999893,,,,sub-216,1.0,random_dot,,
right,right,28.0,0.0,14.0,left,0.0,2.653221709000263,,accuracy,space,2.71078820799994,,,,,,0.0,0.0,0.0,0.0,14.0,0.0,28.0,1.0,307.29837337499976,,,,,,,,,307.2902774999998,307.6383122919997,308.42981466699985,308.4219687499999,308.422654042,308.42981466699985,308.42981466699985,308.42981466699985,,311.08982379200006,,,,,,,,,,,,,,,,,,,,,,,,,,,,,,left,0.0,2.653221709000263,,,,sub-216,1.0,random_dot,,
left,left,29.0,1.0,14.0,right,0.0,2.273358625000128,,accuracy,space,2.71078820799994,,,,,,0.0,0.0,0.0,0.0,14.0,1.0,29.0,0.0,311.09845704200006,,,,,,,,,311.0905039999998,311.8883578750001,312.6785970420001,312.6718003339997,312.6722127089997,312.6785970420001,312.6785970420001,312.6785970420001,,314.9556191249999,,,,,,,,,,,,,,,,,,,,,,,,,,,,,,right,0.0,2.273358625000128,,,,sub-216,1.0,random_dot,,
left,left,30.0,0.0,15.0,right,0.0,2.4398679579999225,,accuracy,space,2.71078820799994,,,,,,0.0,0.0,0.0,0.0,15.0,0.0,30.0,0.0,314.9639174999997,,,,,,,,,314.9561315000001,315.29317008399994,316.087044334,316.0777695839997,316.0782746249997,316.087044334,316.087044334,316.087044334,,318.52995333399986,,,,,,,,,,,,,,,,,,,,,,,,,,,,,,right,0.0,2.4398679579999225,,,,sub-216,1.0,random_dot,,
right,right,31.0,1.0,15.0,right,1.0,3.373102082999594,,accuracy,space,2.71078820799994,,,,,,0.0,0.0,0.0,0.0,15.0,1.0,31.0,1.0,318.5547485839997,,,,,,,,,318.530427959,319.32625766699994,320.1200632089999,320.11096524999994,320.11148004200004,320.1200632089999,320.1200632089999,320.1200632089999,,323.49572091699974,,,,,,,,,,,,,,,,,,,,,,,,,,,,,,right,1.0,3.373102082999594,,,,sub-216,1.0,random_dot,,
right,right,32.0,0.0,16.0,right,1.0,1.6612690000001749,,accuracy,space,2.71078820799994,,,,,,0.0,0.0,0.0,0.0,16.0,0.0,32.0,1.0,323.50362029200005,,,,,,,,,323.49618704199975,324.29403783399994,325.0875300839998,325.07777591700005,325.0782037089998,325.0875300839998,325.0875300839998,325.0875300839998,,326.7563850419997,,,,,,,,,,,,,,,,,,,,,,,,,,,,,,right,1.0,1.6612690000001749,,,,sub-216,1.0,random_dot,,
left,left,33.0,1.0,16.0,right,0.0,1.867177291999724,,accuracy,space,2.71078820799994,,,,,,0.0,0.0,0.0,0.0,16.0,1.0,33.0,0.0,326.7651755419997,,,,,,,,,326.757097834,326.85490708399993,327.6464699999997,327.6387988339998,327.63948520899976,327.6464699999997,327.6464699999997,327.6464699999997,,329.5245473340001,,,,,,,,,,,,,,,,,,,,,,,,,,,,,,right,0.0,1.867177291999724,,,,sub-216,1.0,random_dot,,
left,left,34.0,0.0,17.0,left,1.0,1.124983125000199,,accuracy,space,2.71078820799994,,,,,,0.0,0.0,0.0,0.0,17.0,0.0,34.0,0.0,329.5380028750001,,,,,,,,,329.5249844169998,330.7217312499997,331.5135157089999,331.5053822919999,331.5060911249998,331.5135157089999,331.5135157089999,331.5135157089999,,332.64986691700005,,,,,,,,,,,,,,,,,,,,,,,,,,,,,,left,1.0,1.124983125000199,,,,sub-216,1.0,random_dot,,
right,right,35.0,1.0,17.0,right,1.0,2.2238739160002297,,accuracy,space,2.71078820799994,,,,,,0.0,0.0,0.0,0.0,17.0,1.0,35.0,1.0,332.6713932089997,,,,,,,,,332.65034012499973,332.74461762500005,333.5367201670001,333.528139,333.528592917,333.5367201670001,333.5367201670001,333.5367201670001,,335.7636457089998,,,,,,,,,,,,,,,,,,,,,,,,,,,,,,right,1.0,2.2238739160002297,,,,sub-216,1.0,random_dot,,
right,right,36.0,0.0,18.0,right,1.0,5.492773166000006,,accuracy,space,2.71078820799994,,,,,,0.0,0.0,0.0,0.0,18.0,0.0,36.0,1.0,335.7733686669999,,,,,,,,,335.7641167500001,336.1111029169997,336.90331687499975,336.89440612499993,336.8949400839997,336.90331687499975,336.90331687499975,336.90331687499975,341.88840137499983,342.40691775000005,,,,,,,,,,,,,,,,,,,,,,,,,,,,,,right,1.0,5.492773166000006,,,,sub-216,1.0,random_dot,,
left,left,37.0,1.0,18.0,left,1.0,2.717396290999659,,accuracy,space,2.71078820799994,,,,,,0.0,0.0,0.0,0.0,18.0,1.0,37.0,0.0,342.416587792,,,,,,,,,342.40796,343.2050187499999,343.996899709,343.98883612500003,343.9895524169997,343.996899709,343.996899709,343.996899709,,346.72301549999975,,,,,,,,,,,,,,,,,,,,,,,,,,,,,,left,1.0,2.717396290999659,,,,sub-216,1.0,random_dot,,
right,right,38.0,0.0,19.0,right,1.0,3.193266333000338,,accuracy,space,2.71078820799994,,,,,,0.0,0.0,0.0,0.0,19.0,0.0,38.0,1.0,346.73176566699976,,,,,,,,,346.7236643339997,347.5215109999999,348.3132311669997,348.30536412499987,348.306038875,348.3132311669997,348.3132311669997,348.3132311669997,,351.5131255000001,,,,,,,,,,,,,,,,,,,,,,,,,,,,,,right,1.0,3.193266333000338,,,,sub-216,1.0,random_dot,,
left,left,39.0,1.0,19.0,right,0.0,4.832500208000056,,accuracy,space,2.71078820799994,,,,,,0.0,0.0,0.0,0.0,19.0,1.0,39.0,0.0,351.5211555000001,,,,,,,,,351.5135920419998,352.31031370899973,353.10484695900004,353.0937789169998,353.0942087919998,353.10484695900004,353.10484695900004,353.10484695900004,,357.9392285839999,,,,,,,,,,,,,,,,,,,,,,,,,,,,,,right,0.0,4.832500208000056,,,,sub-216,1.0,random_dot,,
left,left,40.0,0.0,20.0,left,1.0,4.372494458000347,,accuracy,space,2.71078820799994,,,,,,0.0,0.0,0.0,0.0,20.0,0.0,40.0,0.0,357.9477180839999,,,,,,,,,357.9397330419997,359.13818545899994,359.92993666699977,359.92209283400007,359.9228211669997,359.92993666699977,359.92993666699977,359.92993666699977,,364.3061640420001,,,,,,,,,,,,,,,,,,,,,,,,,,,,,,left,1.0,4.372494458000347,,,,sub-216,1.0,random_dot,,
right,right,41.0,1.0,20.0,right,1.0,2.7701745409999603,,accuracy,space,2.71078820799994,,,,,,0.0,0.0,0.0,0.0,20.0,1.0,41.0,1.0,364.3149950419997,,,,,,,,,364.3068628339997,365.1051565419998,365.8960408339999,365.888491875,365.8890057089998,365.8960408339999,365.8960408339999,365.8960408339999,,368.6736162920001,,,,,,,,,,,,,,,,,,,,,,,,,,,,,,right,1.0,2.7701745409999603,,,,sub-216,1.0,random_dot,,
right,right,42.0,0.0,21.0,right,1.0,3.6931072080001286,,accuracy,space,2.71078820799994,,,,,,0.0,0.0,0.0,0.0,21.0,0.0,42.0,1.0,368.68227820899983,,,,,,,,,368.6743285419998,368.771755834,369.5630630840001,369.555386084,369.5560637089998,369.5630630840001,369.5630630840001,369.5630630840001,,373.2631243339997,,,,,,,,,,,,,,,,,,,,,,,,,,,,,,right,1.0,3.6931072080001286,,,,sub-216,1.0,random_dot,,
left,left,43.0,1.0,21.0,left,1.0,5.528727875000186,,accuracy,space,2.71078820799994,,,,,,0.0,0.0,0.0,0.0,21.0,1.0,43.0,0.0,373.2713255419999,,,,,,,,,373.2635867089998,373.61088100000006,374.4033327920001,374.3943826669997,374.3949069999999,374.4033327920001,374.4033327920001,374.4033327920001,379.3876555839997,379.94021325,,,,,,,,,,,,,,,,,,,,,,,,,,,,,,left,1.0,5.528727875000186,,,,sub-216,1.0,random_dot,,
left,left,44.0,0.0,22.0,right,0.0,5.364560916999835,,accuracy,space,2.71078820799994,,,,,,0.0,0.0,0.0,0.0,22.0,0.0,44.0,0.0,379.94961225,,,,,,,,,379.9412662089999,381.1384961670001,381.9293794999999,381.9218316249999,381.9223769589999,381.9293794999999,381.9293794999999,381.9293794999999,386.9097215839997,387.296165875,,,,,,,,,,,,,,,,,,,,,,,,,,,,,,right,0.0,5.364560916999835,,,,sub-216,1.0,random_dot,,
right,right,45.0,1.0,22.0,right,1.0,5.866375042000072,,accuracy,space,2.71078820799994,,,,,,0.0,0.0,0.0,0.0,22.0,1.0,45.0,1.0,387.30654987499975,,,,,,,,,387.2970338340001,387.64439220899976,388.4376042499998,388.42766070900007,388.4281324589997,388.4376042499998,388.4376042499998,388.4376042499998,393.4215654589998,394.30667749999975,,,,,,,,,,,,,,,,,,,,,,,,,,,,,,right,1.0,5.866375042000072,,,,sub-216,1.0,random_dot,,
left,left,46.0,0.0,23.0,left,1.0,5.93609991700032,,accuracy,space,2.71078820799994,,,,,,0.0,0.0,0.0,0.0,23.0,0.0,46.0,0.0,394.315709042,,,,,,,,,394.307560834,395.5049914169999,396.296787834,396.2887769589997,396.289505667,396.296787834,396.296787834,396.296787834,401.2764930419999,402.239584209,,,,,,,,,,,,,,,,,,,,,,,,,,,,,,left,1.0,5.93609991700032,,,,sub-216,1.0,random_dot,,
right,right,47.0,1.0,23.0,right,1.0,3.370144334000088,,accuracy,space,2.71078820799994,,,,,,0.0,0.0,0.0,0.0,23.0,1.0,47.0,1.0,402.2480125419997,,,,,,,,,402.240097209,402.338295,403.1300172920001,403.122222042,403.122752667,403.1300172920001,403.1300172920001,403.1300172920001,,406.5059273749998,,,,,,,,,,,,,,,,,,,,,,,,,,,,,,right,1.0,3.370144334000088,,,,sub-216,1.0,random_dot,,
right,right,48.0,0.0,24.0,right,1.0,3.844527833000029,,accuracy,space,2.71078820799994,,,,,,0.0,0.0,0.0,0.0,24.0,0.0,48.0,1.0,406.514312709,,,,,,,,,406.506444959,406.6046832090001,407.3957849170001,407.3884895420001,407.3890073339999,407.3957849170001,407.3957849170001,407.3957849170001,,411.2449497919997,,,,,,,,,,,,,,,,,,,,,,,,,,,,,,right,1.0,3.844527833000029,,,,sub-216,1.0,random_dot,,
left,left,49.0,1.0,24.0,left,1.0,3.4480909999997493,,accuracy,space,2.71078820799994,,,,,,0.0,0.0,0.0,0.0,24.0,1.0,49.0,0.0,411.2542705000001,,,,,,,,,411.2454211670001,411.3445269169997,412.13678345900007,412.12836779200006,412.128875209,412.13678345900007,412.13678345900007,412.13678345900007,,415.5895889999997,,,,,,,,,,,,,,,,,,,,,,,,,,,,,,left,1.0,3.4480909999997493,,,,sub-216,1.0,random_dot,,
left,left,50.0,0.0,25.0,left,1.0,5.710416833000181,,accuracy,space,2.71078820799994,,,,,,0.0,0.0,0.0,0.0,25.0,0.0,50.0,0.0,415.5984760000001,,,,,,,,,415.5902504169999,416.3882693339997,417.1796724169999,417.1721052089997,417.1727811249998,417.1796724169999,417.1796724169999,417.1796724169999,422.1715705419997,422.895969834,,,,,,,,,,,,,,,,,,,,,,,,,,,,,,left,1.0,5.710416833000181,,,,sub-216,1.0,random_dot,,
right,right,51.0,1.0,25.0,right,1.0,5.555902250000145,,accuracy,space,2.71078820799994,,,,,,0.0,0.0,0.0,0.0,25.0,1.0,51.0,1.0,422.90437408399976,,,,,,,,,422.8964421669998,423.2445539169999,424.0377722089997,424.0275947089999,424.028034167,424.0377722089997,424.0377722089997,424.0377722089997,429.0216408749998,429.6066464169999,,,,,,,,,,,,,,,,,,,,,,,,,,,,,,right,1.0,5.555902250000145,,,,sub-216,1.0,random_dot,,
right,right,52.0,0.0,26.0,right,1.0,5.058058375000201,,accuracy,space,2.71078820799994,,,,,,0.0,0.0,0.0,0.0,26.0,0.0,52.0,1.0,429.61565837499984,,,,,,,,,429.60758504199976,430.4049722499999,431.1967065419999,431.188629792,431.1893212089999,431.1967065419999,431.1967065419999,431.1967065419999,436.1778055,436.25685266699975,,,,,,,,,,,,,,,,,,,,,,,,,,,,,,right,1.0,5.058058375000201,,,,sub-216,1.0,random_dot,,
left,left,53.0,1.0,26.0,left,1.0,5.663497292000102,,accuracy,space,2.71078820799994,,,,,,0.0,0.0,0.0,0.0,26.0,1.0,53.0,0.0,436.2659615419998,,,,,,,,,436.257852709,437.05506558399975,437.8465148749997,437.8386888750001,437.839380334,437.8465148749997,437.8465148749997,437.8465148749997,442.8270622089999,443.5127822089999,,,,,,,,,,,,,,,,,,,,,,,,,,,,,,left,1.0,5.663497292000102,,,,sub-216,1.0,random_dot,,
right,right,54.0,0.0,27.0,left,0.0,5.415337208999972,,accuracy,space,2.71078820799994,,,,,,0.0,0.0,0.0,0.0,27.0,0.0,54.0,1.0,443.5380515839997,,,,,,,,,443.5134190419999,444.71072054199976,445.5042692090001,445.49427916700006,445.4947120839997,445.5042692090001,445.5042692090001,445.5042692090001,450.4881411249999,450.923466625,,,,,,,,,,,,,,,,,,,,,,,,,,,,,,left,0.0,5.415337208999972,,,,sub-216,1.0,random_dot,,
left,left,55.0,1.0,27.0,right,0.0,5.347577292000096,,accuracy,space,2.71078820799994,,,,,,0.0,0.0,0.0,0.0,27.0,1.0,55.0,0.0,450.9326084999998,,,,,,,,,450.9241591249997,451.0203621249998,451.8134843749999,451.8053638749998,451.8060583749998,451.8134843749999,451.8134843749999,451.8134843749999,456.7936802499999,457.1726412499997,,,,,,,,,,,,,,,,,,,,,,,,,,,,,,right,0.0,5.347577292000096,,,,sub-216,1.0,random_dot,,
right,right,56.0,0.0,28.0,right,1.0,2.922275124999942,,accuracy,space,2.71078820799994,,,,,,0.0,0.0,0.0,0.0,28.0,0.0,56.0,1.0,457.1801971669997,,,,,,,,,457.1730419999999,457.5216100419998,458.3133792499998,458.305254459,458.3059586669997,458.3133792499998,458.3133792499998,458.3133792499998,,461.2392770419997,,,,,,,,,,,,,,,,,,,,,,,,,,,,,,right,1.0,2.922275124999942,,,,sub-216,1.0,random_dot,,
left,left,57.0,1.0,28.0,right,0.0,5.337064874999669,,accuracy,space,2.71078820799994,,,,,,0.0,0.0,0.0,0.0,28.0,1.0,57.0,0.0,461.248175959,,,,,,,,,461.239799167,462.438414834,463.2299093749998,463.221851584,463.2225565419999,463.2299093749998,463.2299093749998,463.2299093749998,468.2215945419998,468.573454334,,,,,,,,,,,,,,,,,,,,,,,,,,,,,,right,0.0,5.337064874999669,,,,sub-216,1.0,random_dot,,
right,right,58.0,0.0,29.0,left,0.0,1.7058765000001586,,accuracy,space,2.71078820799994,,,,,,0.0,0.0,0.0,0.0,29.0,0.0,58.0,1.0,468.5825140839997,,,,,,,,,468.5744343749998,469.371573292,470.162654625,470.1548907500001,470.1554730839998,470.162654625,470.162654625,470.162654625,,471.873055084,,,,,,,,,,,,,,,,,,,,,,,,,,,,,,left,0.0,1.7058765000001586,,,,sub-216,1.0,random_dot,,
left,left,59.0,1.0,29.0,left,1.0,5.494430125000235,,accuracy,space,2.71078820799994,,,,,,0.0,0.0,0.0,0.0,29.0,1.0,59.0,0.0,471.8820666249999,,,,,,,,,471.8736790419998,473.0716210000001,473.86281400000007,473.8551954169998,473.8557270839997,473.86281400000007,473.86281400000007,473.86281400000007,478.8435481669999,479.3625495840001,,,,,,,,,,,,,,,,,,,,,,,,,,,,,,left,1.0,5.494430125000235,,,,sub-216,1.0,random_dot,,
,,0.0,0.0,0.0,,,,,accuracy,space,2.71078820799994,,,,,,0.0,0.0,0.0,0.0,,,,,,,,,,,,,,,,,,,,,,,,,,,,,,,,,,,,,,,,,,,,,,,,,,,,,,,,,,,sub-216,1.0,random_dot,,
left,left,0.0,0.0,0.0,right,0.0,0.5925471250002374,,speed,space,3.4279826659999344,,,,,,0.0,1.0,1.0,1.0,0.0,0.0,0.0,0.0,482.8403922919997,,,,,,,,,482.8337376669997,482.921595542,483.713147334,483.705256667,483.7059625419997,483.713147334,483.713147334,483.713147334,,484.31225370899983,,,,,,,,,,,,,,,,,,,,,,,479.3809927500001,479.3878688340001,479.3878688340001,482.822883667,space,3.4279826659999344,,right,0.0,0.5925471250002374,,,,sub-216,1.0,random_dot,,
right,right,1.0,1.0,0.0,left,0.0,1.2594325420000132,,speed,space,3.4279826659999344,,,,,,0.0,1.0,1.0,1.0,0.0,1.0,1.0,1.0,484.32013525,,,,,,,,,484.312724209,485.1110302090001,485.903357834,485.8943195419997,485.8948382499998,485.903357834,485.903357834,485.903357834,,487.17293770900005,,,,,,,,,,,,,,,,,,,,,,,,,,,,,,left,0.0,1.2594325420000132,,,,sub-216,1.0,random_dot,,
right,right,2.0,0.0,1.0,right,1.0,2.2156280409999454,,speed,space,3.4279826659999344,,,,,,0.0,1.0,1.0,1.0,1.0,0.0,2.0,1.0,487.180696209,,,,,,,,,487.1734549590001,487.9715531249999,488.7630207920001,488.7553620419999,488.756064959,488.7630207920001,488.7630207920001,488.7630207920001,,490.98851775,,,,,,,,,,,,,,,,,,,,,,,,,,,,,,right,1.0,2.2156280409999454,,,,sub-216,1.0,random_dot,,
left,left,3.0,1.0,1.0,left,1.0,3.697940208000091,,speed,space,3.4279826659999344,,,,,,0.0,1.0,1.0,1.0,1.0,1.0,3.0,0.0,490.99337020899975,,,,,,,,,490.9889858749998,491.7776692090001,492.5715380839997,492.560353584,492.5608926669997,492.5715380839997,492.5715380839997,492.5715380839997,,496.2725660420001,,,,,,,,,,,,,,,,,,,,,,,,,,,,,,left,1.0,3.697940208000091,,,,sub-216,1.0,random_dot,,
left,left,4.0,0.0,2.0,right,0.0,0.9385509579997232,,speed,space,3.4279826659999344,,,,,,0.0,1.0,1.0,1.0,2.0,0.0,4.0,0.0,496.2803537089999,,,,,,,,,496.273074875,497.4715434169998,498.263542959,498.2554748749999,498.2562077919997,498.263542959,498.263542959,498.263542959,,499.20598166699983,,,,,,,,,,,,,,,,,,,,,,,,,,,,,,right,0.0,0.9385509579997232,,,,sub-216,1.0,random_dot,,
right,right,5.0,1.0,2.0,left,0.0,3.305894999999964,,speed,space,3.4279826659999344,,,,,,0.0,1.0,1.0,1.0,2.0,1.0,5.0,1.0,499.2137457499998,,,,,,,,,499.20648516699976,500.0048852089999,500.796645167,500.788530584,500.7892206249999,500.796645167,500.796645167,500.796645167,,504.1055226250001,,,,,,,,,,,,,,,,,,,,,,,,,,,,,,left,0.0,3.305894999999964,,,,sub-216,1.0,random_dot,,
right,right,6.0,0.0,3.0,right,1.0,5.053517499999998,,speed,space,3.4279826659999344,,,,,,0.0,1.0,1.0,1.0,3.0,0.0,6.0,1.0,504.11324829199975,,,,,,,,,504.1060537499998,505.29403279200005,506.087887959,506.0775724999999,506.0780623339997,506.087887959,506.087887959,506.087887959,511.0715733339998,511.1449494999997,,,,,,,,,,,,,,,,,,,,,,,,,,,,,,right,1.0,5.053517499999998,,,,sub-216,1.0,random_dot,,
left,left,7.0,1.0,3.0,left,1.0,4.826285209000162,,speed,space,3.4279826659999344,,,,,,0.0,1.0,1.0,1.0,3.0,1.0,7.0,0.0,511.153423667,,,,,,,,,511.1455447499998,511.9443838749999,512.736627625,512.7278637499999,512.7283982089998,512.736627625,512.736627625,512.736627625,,517.5713662499998,,,,,,,,,,,,,,,,,,,,,,,,,,,,,,left,1.0,4.826285209000162,,,,sub-216,1.0,random_dot,,
left,left,8.0,0.0,4.0,left,1.0,0.9003141250000226,,speed,space,3.4279826659999344,,,,,,0.0,1.0,1.0,1.0,4.0,0.0,8.0,0.0,517.579300459,,,,,,,,,517.5718848339998,517.9090664169998,518.7037273749997,518.6941321670001,518.6945880419999,518.7037273749997,518.7037273749997,518.7037273749997,,519.606722125,,,,,,,,,,,,,,,,,,,,,,,,,,,,,,left,1.0,0.9003141250000226,,,,sub-216,1.0,random_dot,,
right,right,9.0,1.0,4.0,left,0.0,2.909120833000088,,speed,space,3.4279826659999344,,,,,,0.0,1.0,1.0,1.0,4.0,1.0,9.0,1.0,519.615033042,,,,,,,,,519.6073821249997,519.7050214169999,520.4967550000001,520.4886742089998,520.489355792,520.4967550000001,520.4967550000001,520.4967550000001,,523.412293292,,,,,,,,,,,,,,,,,,,,,,,,,,,,,,left,0.0,2.909120833000088,,,,sub-216,1.0,random_dot,,
left,left,10.0,0.0,5.0,left,1.0,5.662909832999958,,speed,space,3.4279826659999344,,,,,,0.0,1.0,1.0,1.0,5.0,0.0,10.0,0.0,523.4202421249997,,,,,,,,,523.41276625,524.6112012919998,525.4037521249998,525.3943106249999,525.394755709,525.4037521249998,525.4037521249998,525.4037521249998,530.388113042,531.07294675,,,,,,,,,,,,,,,,,,,,,,,,,,,,,,left,1.0,5.662909832999958,,,,sub-216,1.0,random_dot,,
right,right,11.0,1.0,5.0,right,1.0,1.5425082920000932,,speed,space,3.4279826659999344,,,,,,0.0,1.0,1.0,1.0,5.0,1.0,11.0,1.0,531.081565084,,,,,,,,,531.0736273749999,531.171546,531.9637644169998,531.9554324169999,531.9561162499999,531.9637644169998,531.9637644169998,531.9637644169998,,533.5121948749998,,,,,,,,,,,,,,,,,,,,,,,,,,,,,,right,1.0,1.5425082920000932,,,,sub-216,1.0,random_dot,,
right,right,12.0,0.0,6.0,right,1.0,4.875397749999593,,speed,space,3.4279826659999344,,,,,,0.0,1.0,1.0,1.0,6.0,0.0,12.0,1.0,533.520765584,,,,,,,,,533.5126835840001,534.3110592499997,535.1036854169997,535.0943211670001,535.094859459,535.1036854169997,535.1036854169997,535.1036854169997,,539.9893281249997,,,,,,,,,,,,,,,,,,,,,,,,,,,,,,right,1.0,4.875397749999593,,,,sub-216,1.0,random_dot,,
left,left,13.0,1.0,6.0,right,0.0,1.966390790999867,,speed,space,3.4279826659999344,,,,,,0.0,1.0,1.0,1.0,6.0,1.0,13.0,0.0,539.9973776669999,,,,,,,,,539.9898255419998,540.088317959,540.8802989999999,540.8719774589999,540.872696209,540.8802989999999,540.8802989999999,540.8802989999999,,542.8555343749999,,,,,,,,,,,,,,,,,,,,,,,,,,,,,,right,0.0,1.966390790999867,,,,sub-216,1.0,random_dot,,
right,right,14.0,0.0,7.0,right,1.0,1.531283750000057,,speed,space,3.4279826659999344,,,,,,0.0,1.0,1.0,1.0,7.0,0.0,14.0,1.0,542.8639431249999,,,,,,,,,542.856173959,544.0436060419997,544.836587584,544.827799959,544.8283311669998,544.836587584,544.836587584,544.836587584,,546.3725254589999,,,,,,,,,,,,,,,,,,,,,,,,,,,,,,right,1.0,1.531283750000057,,,,sub-216,1.0,random_dot,,
left,left,15.0,1.0,7.0,left,1.0,3.6824712500001615,,speed,space,3.4279826659999344,,,,,,0.0,1.0,1.0,1.0,7.0,1.0,15.0,0.0,546.3806192090001,,,,,,,,,546.3730404590001,546.710729167,547.5032364999997,547.4943053749998,547.4948515000001,547.5032364999997,547.5032364999997,547.5032364999997,,551.1892364589999,,,,,,,,,,,,,,,,,,,,,,,,,,,,,,left,1.0,3.6824712500001615,,,,sub-216,1.0,random_dot,,
left,left,16.0,0.0,8.0,left,1.0,4.587484916999983,,speed,space,3.4279826659999344,,,,,,0.0,1.0,1.0,1.0,8.0,0.0,16.0,0.0,551.1973172089997,,,,,,,,,551.1897600419998,551.5382610419997,552.3313553339999,552.321931,552.3226517919998,552.3313553339999,552.3313553339999,552.3313553339999,,556.9225320840001,,,,,,,,,,,,,,,,,,,,,,,,,,,,,,left,1.0,4.587484916999983,,,,sub-216,1.0,random_dot,,
right,right,17.0,1.0,8.0,right,1.0,2.812469209000028,,speed,space,3.4279826659999344,,,,,,0.0,1.0,1.0,1.0,8.0,1.0,17.0,1.0,556.9307571250001,,,,,,,,,556.9230521669997,557.7112534170001,558.512915709,558.5051452089997,558.5056797500001,558.512915709,558.512915709,558.512915709,,561.3298408339997,,,,,,,,,,,,,,,,,,,,,,,,,,,,,,right,1.0,2.812469209000028,,,,sub-216,1.0,random_dot,,
left,left,18.0,0.0,9.0,left,1.0,1.365982666999571,,speed,space,3.4279826659999344,,,,,,0.0,1.0,1.0,1.0,9.0,0.0,18.0,0.0,561.338018209,,,,,,,,,561.3303443750001,562.1279641669998,562.9210525419999,562.910881709,562.9113352919999,562.9210525419999,562.9210525419999,562.9210525419999,,564.2898568339997,,,,,,,,,,,,,,,,,,,,,,,,,,,,,,left,1.0,1.365982666999571,,,,sub-216,1.0,random_dot,,
right,right,19.0,1.0,9.0,right,1.0,3.526274333999936,,speed,space,3.4279826659999344,,,,,,0.0,1.0,1.0,1.0,9.0,1.0,19.0,1.0,564.2980902919999,,,,,,,,,564.2904719590001,565.4883173339999,566.279955167,566.2717481249997,566.2722833339999,566.279955167,566.279955167,566.279955167,,569.8130725000001,,,,,,,,,,,,,,,,,,,,,,,,,,,,,,right,1.0,3.526274333999936,,,,sub-216,1.0,random_dot,,
left,left,20.0,0.0,10.0,right,0.0,2.8560693749996062,,speed,space,3.4279826659999344,,,,,,0.0,1.0,1.0,1.0,10.0,0.0,20.0,0.0,569.8206652089998,,,,,,,,,569.8135320420001,569.9109791669998,570.7047713749998,570.6942395420001,570.694671875,570.7047713749998,570.7047713749998,570.7047713749998,,573.5633282499998,,,,,,,,,,,,,,,,,,,,,,,,,,,,,,right,0.0,2.8560693749996062,,,,sub-216,1.0,random_dot,,
right,right,21.0,1.0,10.0,left,0.0,1.236554791999879,,speed,space,3.4279826659999344,,,,,,0.0,1.0,1.0,1.0,10.0,1.0,21.0,1.0,573.5712198749998,,,,,,,,,573.5637864589999,574.3612643749998,575.1542142089997,575.1441199169999,575.144551292,575.1542142089997,575.1542142089997,575.1542142089997,,576.3964918749998,,,,,,,,,,,,,,,,,,,,,,,,,,,,,,left,0.0,1.236554791999879,,,,sub-216,1.0,random_dot,,
right,right,22.0,0.0,11.0,right,1.0,3.520265417000246,,speed,space,3.4279826659999344,,,,,,0.0,1.0,1.0,1.0,11.0,0.0,22.0,1.0,576.4043674169998,,,,,,,,,576.3969500419998,577.5943798339999,578.3875255419998,578.377444834,578.37788125,578.3875255419998,578.3875255419998,578.3875255419998,,581.9123182089997,,,,,,,,,,,,,,,,,,,,,,,,,,,,,,right,1.0,3.520265417000246,,,,sub-216,1.0,random_dot,,
left,left,23.0,1.0,11.0,left,1.0,1.590212832999896,,speed,space,3.4279826659999344,,,,,,0.0,1.0,1.0,1.0,11.0,1.0,23.0,0.0,581.9201975840001,,,,,,,,,581.9128034589999,582.710748209,583.5050138749998,583.4940270419997,583.4944627499999,583.5050138749998,583.5050138749998,583.5050138749998,,585.1059795420001,,,,,,,,,,,,,,,,,,,,,,,,,,,,,,left,1.0,1.590212832999896,,,,sub-216,1.0,random_dot,,
left,left,24.0,0.0,12.0,right,0.0,4.298442917000102,,speed,space,3.4279826659999344,,,,,,0.0,1.0,1.0,1.0,12.0,0.0,24.0,0.0,585.1139862919999,,,,,,,,,585.106490875,585.8942259589999,586.6869619169997,586.677767917,586.6782934590001,586.6869619169997,586.6869619169997,586.6869619169997,,590.9892749999999,,,,,,,,,,,,,,,,,,,,,,,,,,,,,,right,0.0,4.298442917000102,,,,sub-216,1.0,random_dot,,
right,right,25.0,1.0,12.0,left,0.0,1.438684374999866,,speed,space,3.4279826659999344,,,,,,0.0,1.0,1.0,1.0,12.0,1.0,25.0,1.0,590.9975724169999,,,,,,,,,590.9898083339999,592.18831925,592.9793697919999,592.971893334,592.972559542,592.9793697919999,592.9793697919999,592.9793697919999,,594.4216993340001,,,,,,,,,,,,,,,,,,,,,,,,,,,,,,left,0.0,1.438684374999866,,,,sub-216,1.0,random_dot,,
left,left,26.0,0.0,13.0,right,0.0,2.6010132080000403,,speed,space,3.4279826659999344,,,,,,0.0,1.0,1.0,1.0,13.0,0.0,26.0,0.0,594.4303065419999,,,,,,,,,594.4223631249997,595.2110641670001,596.0041820419997,595.994538125,595.9949612089999,596.0041820419997,596.0041820419997,596.0041820419997,,598.6131507919999,,,,,,,,,,,,,,,,,,,,,,,,,,,,,,right,0.0,2.6010132080000403,,,,sub-216,1.0,random_dot,,
right,right,27.0,1.0,13.0,left,0.0,1.6621623749997525,,speed,space,3.4279826659999344,,,,,,0.0,1.0,1.0,1.0,13.0,1.0,27.0,1.0,598.6381043339998,,,,,,,,,598.6137305419998,598.7106632919999,599.503589167,599.494381209,599.4949034589999,599.503589167,599.503589167,599.503589167,,601.172589667,,,,,,,,,,,,,,,,,,,,,,,,,,,,,,left,0.0,1.6621623749997525,,,,sub-216,1.0,random_dot,,
left,left,28.0,0.0,14.0,right,0.0,1.5578153340002243,,speed,space,3.4279826659999344,,,,,,0.0,1.0,1.0,1.0,14.0,0.0,28.0,0.0,601.180768709,,,,,,,,,601.1732109999998,601.5215370420001,602.3129745840001,602.305295875,602.305969084,602.3129745840001,602.3129745840001,602.3129745840001,,603.8727565419999,,,,,,,,,,,,,,,,,,,,,,,,,,,,,,right,0.0,1.5578153340002243,,,,sub-216,1.0,random_dot,,
right,right,29.0,1.0,14.0,left,0.0,1.4147590410002522,,speed,space,3.4279826659999344,,,,,,0.0,1.0,1.0,1.0,14.0,1.0,29.0,1.0,603.8810939169998,,,,,,,,,603.873439042,603.9715874589997,604.762908834,604.7552271669997,604.7558833749999,604.762908834,604.762908834,604.762908834,,606.1793485419998,,,,,,,,,,,,,,,,,,,,,,,,,,,,,,left,0.0,1.4147590410002522,,,,sub-216,1.0,random_dot,,
right,right,30.0,0.0,15.0,right,1.0,3.7194900829999824,,speed,space,3.4279826659999344,,,,,,0.0,1.0,1.0,1.0,15.0,0.0,30.0,1.0,606.1872157089997,,,,,,,,,606.1798143339997,606.9776927089997,607.7712981249997,607.760983917,607.7614255419999,607.7712981249997,607.7712981249997,607.7712981249997,,611.4965214169997,,,,,,,,,,,,,,,,,,,,,,,,,,,,,,right,1.0,3.7194900829999824,,,,sub-216,1.0,random_dot,,
left,left,31.0,1.0,15.0,right,0.0,0.9149663329999383,,speed,space,3.4279826659999344,,,,,,0.0,1.0,1.0,1.0,15.0,1.0,31.0,0.0,611.5046927089998,,,,,,,,,611.497004584,612.2943347089999,613.0874195420001,613.0773797920001,613.0779065419997,613.0874195420001,613.0874195420001,613.0874195420001,,614.0061350000001,,,,,,,,,,,,,,,,,,,,,,,,,,,,,,right,0.0,0.9149663329999383,,,,sub-216,1.0,random_dot,,
right,right,32.0,0.0,16.0,right,1.0,1.0079112920002444,,speed,space,3.4279826659999344,,,,,,0.0,1.0,1.0,1.0,16.0,0.0,32.0,1.0,614.01485275,,,,,,,,,614.0067967499999,614.3546374590001,615.1462782499998,615.1386283339998,615.1393042499999,615.1462782499998,615.1462782499998,615.1462782499998,,616.1559930839999,,,,,,,,,,,,,,,,,,,,,,,,,,,,,,right,1.0,1.0079112920002444,,,,sub-216,1.0,random_dot,,
left,left,33.0,1.0,16.0,left,1.0,1.2973444159997598,,speed,space,3.4279826659999344,,,,,,0.0,1.0,1.0,1.0,16.0,1.0,33.0,0.0,616.164320542,,,,,,,,,616.1566400419997,617.3547879170001,618.146813459,618.1386589999997,618.1393309169998,618.146813459,618.146813459,618.146813459,,619.446168167,,,,,,,,,,,,,,,,,,,,,,,,,,,,,,left,1.0,1.2973444159997598,,,,sub-216,1.0,random_dot,,
right,right,34.0,0.0,17.0,right,1.0,1.080276666999907,,speed,space,3.4279826659999344,,,,,,0.0,1.0,1.0,1.0,17.0,0.0,34.0,1.0,619.4541215419999,,,,,,,,,619.4466202089998,619.544275834,620.3459171249997,620.3383333339998,620.3388620420001,620.3459171249997,620.3459171249997,620.3459171249997,,621.430805209,,,,,,,,,,,,,,,,,,,,,,,,,,,,,,right,1.0,1.080276666999907,,,,sub-216,1.0,random_dot,,
left,left,35.0,1.0,17.0,left,1.0,0.8257853330001126,,speed,space,3.4279826659999344,,,,,,0.0,1.0,1.0,1.0,17.0,1.0,35.0,0.0,621.4396776250001,,,,,,,,,621.431282042,622.2278119590001,623.0213641669998,623.0106332089999,623.0110724589999,623.0213641669998,623.0213641669998,623.0213641669998,,623.8559150000001,,,,,,,,,,,,,,,,,,,,,,,,,,,,,,left,1.0,0.8257853330001126,,,,sub-216,1.0,random_dot,,
right,right,36.0,0.0,18.0,right,1.0,2.202284958999826,,speed,space,3.4279826659999344,,,,,,0.0,1.0,1.0,1.0,18.0,0.0,36.0,1.0,623.8639577499998,,,,,,,,,623.8564191669998,625.0548162919999,625.8464021249997,625.838702084,625.8394063339997,625.8464021249997,625.8464021249997,625.8464021249997,,628.05480425,,,,,,,,,,,,,,,,,,,,,,,,,,,,,,right,1.0,2.202284958999826,,,,sub-216,1.0,random_dot,,
left,left,37.0,1.0,18.0,left,1.0,2.8361968340000203,,speed,space,3.4279826659999344,,,,,,0.0,1.0,1.0,1.0,18.0,1.0,37.0,0.0,628.0629975839997,,,,,,,,,628.0553314999997,628.3940714169999,629.1880832500001,629.177579917,629.1779995839997,629.1880832500001,629.1880832500001,629.1880832500001,,632.029885292,,,,,,,,,,,,,,,,,,,,,,,,,,,,,,left,1.0,2.8361968340000203,,,,sub-216,1.0,random_dot,,
left,left,38.0,0.0,19.0,right,0.0,1.108003916999678,,speed,space,3.4279826659999344,,,,,,0.0,1.0,1.0,1.0,19.0,0.0,38.0,0.0,632.037738209,,,,,,,,,632.0303899169999,632.827570084,633.6301404999999,633.621985792,633.6226537919997,633.6301404999999,633.6301404999999,633.6301404999999,,634.7487350420001,,,,,,,,,,,,,,,,,,,,,,,,,,,,,,right,0.0,1.108003916999678,,,,sub-216,1.0,random_dot,,
right,right,39.0,1.0,19.0,right,1.0,3.058393416000399,,speed,space,3.4279826659999344,,,,,,0.0,1.0,1.0,1.0,19.0,1.0,39.0,1.0,634.753530167,,,,,,,,,634.7492065000001,635.0938083339997,635.8880750419999,635.8774920420001,635.8779307089999,635.8880750419999,635.8880750419999,635.8880750419999,,638.955189667,,,,,,,,,,,,,,,,,,,,,,,,,,,,,,right,1.0,3.058393416000399,,,,sub-216,1.0,random_dot,,
left,left,40.0,0.0,20.0,right,0.0,2.8401760409997223,,speed,space,3.4279826659999344,,,,,,0.0,1.0,1.0,1.0,20.0,0.0,40.0,0.0,638.9640265419998,,,,,,,,,638.955937834,639.293390459,640.0869676249999,640.0775556670001,640.0781219169999,640.0869676249999,640.0869676249999,640.0869676249999,,642.9289989999997,,,,,,,,,,,,,,,,,,,,,,,,,,,,,,right,0.0,2.8401760409997223,,,,sub-216,1.0,random_dot,,
right,right,41.0,1.0,20.0,right,1.0,3.760269915999743,,speed,space,3.4279826659999344,,,,,,0.0,1.0,1.0,1.0,20.0,1.0,41.0,1.0,642.936968,,,,,,,,,642.929468709,643.0275333750001,643.821377709,643.810765875,643.811218667,643.821377709,643.821377709,643.821377709,,647.5890764589999,,,,,,,,,,,,,,,,,,,,,,,,,,,,,,right,1.0,3.760269915999743,,,,sub-216,1.0,random_dot,,
left,left,42.0,0.0,21.0,left,1.0,1.1168659169998136,,speed,space,3.4279826659999344,,,,,,0.0,1.0,1.0,1.0,21.0,0.0,42.0,0.0,647.597486875,,,,,,,,,647.5896045,647.9279310839997,648.7203774589998,648.7107995420001,648.7113434590001,648.7203774589998,648.7203774589998,648.7203774589998,,649.8488098749999,,,,,,,,,,,,,,,,,,,,,,,,,,,,,,left,1.0,1.1168659169998136,,,,sub-216,1.0,random_dot,,
right,right,43.0,1.0,21.0,left,0.0,0.8032197089996771,,speed,space,3.4279826659999344,,,,,,0.0,1.0,1.0,1.0,21.0,1.0,43.0,1.0,649.854105459,,,,,,,,,649.849289709,650.6442820419998,651.4370308749999,651.427434917,651.427896792,651.4370308749999,651.4370308749999,651.4370308749999,,652.247283917,,,,,,,,,,,,,,,,,,,,,,,,,,,,,,left,0.0,0.8032197089996771,,,,sub-216,1.0,random_dot,,
right,right,44.0,0.0,22.0,left,0.0,2.6394416250000177,,speed,space,3.4279826659999344,,,,,,0.0,1.0,1.0,1.0,22.0,0.0,44.0,1.0,652.256119875,,,,,,,,,652.2477466669998,652.3431567919997,653.1366345419997,653.1281308339999,653.128614875,653.1366345419997,653.1366345419997,653.1366345419997,,655.7788877919998,,,,,,,,,,,,,,,,,,,,,,,,,,,,,,left,0.0,2.6394416250000177,,,,sub-216,1.0,random_dot,,
left,left,45.0,1.0,22.0,right,0.0,3.429511166999873,,speed,space,3.4279826659999344,,,,,,0.0,1.0,1.0,1.0,22.0,1.0,45.0,0.0,655.787204625,,,,,,,,,655.7793782089998,656.5776058339998,657.3705253339999,657.3610883749998,657.3616147919997,657.3705253339999,657.3705253339999,657.3705253339999,,660.8059430419999,,,,,,,,,,,,,,,,,,,,,,,,,,,,,,right,0.0,3.429511166999873,,,,sub-216,1.0,random_dot,,
left,left,46.0,0.0,23.0,right,0.0,1.4128292920004242,,speed,space,3.4279826659999344,,,,,,0.0,1.0,1.0,1.0,23.0,0.0,46.0,0.0,660.8149091669998,,,,,,,,,660.8066563749999,661.6050166669997,662.396798792,662.388640917,662.3893257089999,662.396798792,662.396798792,662.396798792,,663.8115615839997,,,,,,,,,,,,,,,,,,,,,,,,,,,,,,right,0.0,1.4128292920004242,,,,sub-216,1.0,random_dot,,
right,right,47.0,1.0,23.0,right,1.0,3.0313622079997917,,speed,space,3.4279826659999344,,,,,,0.0,1.0,1.0,1.0,23.0,1.0,47.0,1.0,663.8199951669999,,,,,,,,,663.8120266249998,663.911211917,664.7032254999999,664.6943215000001,664.6948484589998,664.7032254999999,664.7032254999999,664.7032254999999,,667.739204125,,,,,,,,,,,,,,,,,,,,,,,,,,,,,,right,1.0,3.0313622079997917,,,,sub-216,1.0,random_dot,,
right,right,48.0,0.0,24.0,left,0.0,2.2061083329999747,,speed,space,3.4279826659999344,,,,,,0.0,1.0,1.0,1.0,24.0,0.0,48.0,1.0,667.7480112919998,,,,,,,,,667.739750875,668.5382440419999,669.330258084,669.3218865419999,669.3225833339998,669.330258084,669.330258084,669.330258084,,671.5392044999999,,,,,,,,,,,,,,,,,,,,,,,,,,,,,,left,0.0,2.2061083329999747,,,,sub-216,1.0,random_dot,,
left,left,49.0,1.0,24.0,right,0.0,0.9629973750002137,,speed,space,3.4279826659999344,,,,,,0.0,1.0,1.0,1.0,24.0,1.0,49.0,0.0,671.5478332089997,,,,,,,,,671.5397029169999,671.6382040839999,672.4304097499999,672.422018667,672.422725459,672.4304097499999,672.4304097499999,672.4304097499999,,673.3955500839998,,,,,,,,,,,,,,,,,,,,,,,,,,,,,,right,0.0,0.9629973750002137,,,,sub-216,1.0,random_dot,,
left,left,50.0,0.0,25.0,left,1.0,1.0547682080000411,,speed,space,3.4279826659999344,,,,,,0.0,1.0,1.0,1.0,25.0,0.0,50.0,0.0,673.4037293749998,,,,,,,,,673.3960198750001,673.7440888749998,674.5366108339999,674.5276315840001,674.5281609589997,674.5366108339999,674.5366108339999,674.5366108339999,,675.5970145420001,,,,,,,,,,,,,,,,,,,,,,,,,,,,,,left,1.0,1.0547682080000411,,,,sub-216,1.0,random_dot,,
right,right,51.0,1.0,25.0,right,1.0,0.8651306250003472,,speed,space,3.4279826659999344,,,,,,0.0,1.0,1.0,1.0,25.0,1.0,51.0,1.0,675.6063666669997,,,,,,,,,675.597497709,675.9443434589998,676.7381701670001,676.7274600000001,676.727887042,676.7381701670001,676.7381701670001,676.7381701670001,,677.6061329169997,,,,,,,,,,,,,,,,,,,,,,,,,,,,,,right,1.0,0.8651306250003472,,,,sub-216,1.0,random_dot,,
left,left,52.0,0.0,26.0,left,1.0,1.190446666000298,,speed,space,3.4279826659999344,,,,,,0.0,1.0,1.0,1.0,26.0,0.0,52.0,0.0,677.61514025,,,,,,,,,677.60676375,678.4050152499999,679.196778,679.1886542919997,679.1893543339997,679.196778,679.196778,679.196778,,680.3977768340001,,,,,,,,,,,,,,,,,,,,,,,,,,,,,,left,1.0,1.190446666000298,,,,sub-216,1.0,random_dot,,
right,right,53.0,1.0,26.0,right,1.0,1.1025233750001462,,speed,space,3.4279826659999344,,,,,,0.0,1.0,1.0,1.0,26.0,1.0,53.0,1.0,680.4033399999998,,,,,,,,,680.3982935839999,680.4940799169999,681.286682084,681.277674209,681.2781957920001,681.286682084,681.286682084,681.286682084,,682.3954451249997,,,,,,,,,,,,,,,,,,,,,,,,,,,,,,right,1.0,1.1025233750001462,,,,sub-216,1.0,random_dot,,
right,right,54.0,0.0,27.0,right,1.0,2.938422124999761,,speed,space,3.4279826659999344,,,,,,0.0,1.0,1.0,1.0,27.0,0.0,54.0,1.0,682.4037532499997,,,,,,,,,682.3959412089998,682.4943375839998,683.2866107089999,683.2775826249999,683.2780352919999,683.2866107089999,683.2866107089999,683.2866107089999,,686.2295161249999,,,,,,,,,,,,,,,,,,,,,,,,,,,,,,right,1.0,2.938422124999761,,,,sub-216,1.0,random_dot,,
left,left,55.0,1.0,27.0,right,0.0,5.344754208000268,,speed,space,3.4279826659999344,,,,,,0.0,1.0,1.0,1.0,27.0,1.0,55.0,0.0,686.2547319589999,,,,,,,,,686.229985209,687.4277131670001,688.2199377500001,688.2110994169998,688.211644,688.2199377500001,688.2199377500001,688.2199377500001,693.2047777919997,693.572950709,,,,,,,,,,,,,,,,,,,,,,,,,,,,,,right,0.0,5.344754208000268,,,,sub-216,1.0,random_dot,,
left,left,56.0,0.0,28.0,left,1.0,1.8621012500002507,,speed,space,3.4279826659999344,,,,,,0.0,1.0,1.0,1.0,28.0,0.0,56.0,0.0,693.581943792,,,,,,,,,693.5736973749999,694.3714486250001,695.1630837499997,695.1551495419999,695.1556944169997,695.1630837499997,695.1630837499997,695.1630837499997,,697.0296182920001,,,,,,,,,,,,,,,,,,,,,,,,,,,,,,left,1.0,1.8621012500002507,,,,sub-216,1.0,random_dot,,
right,right,57.0,1.0,28.0,right,1.0,0.9516320000002452,,speed,space,3.4279826659999344,,,,,,0.0,1.0,1.0,1.0,28.0,1.0,57.0,1.0,697.0378579170001,,,,,,,,,697.0300875419998,697.8274459589998,698.6199328339999,698.611000417,698.6115420420001,698.6199328339999,698.6199328339999,698.6199328339999,,699.5819530419999,,,,,,,,,,,,,,,,,,,,,,,,,,,,,,right,1.0,0.9516320000002452,,,,sub-216,1.0,random_dot,,
right,right,58.0,0.0,29.0,right,1.0,3.2879990410001483,,speed,space,3.4279826659999344,,,,,,0.0,1.0,1.0,1.0,29.0,0.0,58.0,1.0,699.5867638750001,,,,,,,,,699.5823244170001,700.377667834,701.1714547920001,701.1608758339999,701.1613359590001,701.1714547920001,701.1714547920001,701.1714547920001,,704.4630052090001,,,,,,,,,,,,,,,,,,,,,,,,,,,,,,right,1.0,3.2879990410001483,,,,sub-216,1.0,random_dot,,
left,left,59.0,1.0,29.0,left,1.0,1.387591750000411,,speed,space,3.4279826659999344,,,,,,0.0,1.0,1.0,1.0,29.0,1.0,59.0,0.0,704.4712185419999,,,,,,,,,704.4634523750001,704.5606605839998,705.3548781249997,705.343929917,705.3444026249999,705.3548781249997,705.3548781249997,705.3548781249997,,706.7442326249998,,,,,,,,,,,,,,,,,,,,,,,,,,,,,,left,1.0,1.387591750000411,,,,sub-216,1.0,random_dot,,
,,1.0,1.0,0.0,,,,,speed,space,3.4279826659999344,,,,,,0.0,1.0,1.0,1.0,,,,,,,,,,,,,,,,,,,,,,,,,,,,,,,,,,,,,,,,,,,,,,,,,,,,,,,,,,,sub-216,1.0,random_dot,,
,,,,,,,,,,,,,,,,,,,,,,,,,,,,,,,,,,,,,,,,,,,,,,,,,,,,,,,,,,,,,,,,,,,,,,,,,,,,,706.752694542,706.761785792,sub-216,,,,
