direction,corrAns,thisN,thisTrialN,thisRepN,respDots.keys,respDots.corr,respDots.rt,respDots.duration,randomInstr,respRandomInstr.keys,respRandomInstr.rt,respRandomInstr.duration,practice_trials.thisRepN,practice_trials.thisTrialN,practice_trials.thisN,practice_trials.thisIndex,instr_trials.thisRepN,instr_trials.thisTrialN,instr_trials.thisN,instr_trials.thisIndex,test_trials.thisRepN,test_trials.thisTrialN,test_trials.thisN,test_trials.thisIndex,thisRow.t,notes,general_instruction.started,textGeneralInstr.started,respGeneralInstr.started,general_instruction.stopped,respGeneralInstr.keys,respGeneralInstr.rt,respGeneralInstr.duration,ITI.started,fixcross.started,fixcross.stopped,ITI.stopped,dots.started,backgroundDots.started,stimulusDots.started,respDots.started,dots.stopped,practice_trials.respDots.keys,practice_trials.respDots.corr,practice_trials.respDots.rt,practice_trials.respDots.duration,feedback.started,textFeedback.started,feedback.stopped,textFeedback.stopped,info.started,textInfo.started,keyRespInfo.started,info.stopped,keyRespInfo.keys,keyRespInfo.rt,keyRespInfo.duration,test_instruction.started,textTestInstr.started,respTestInstr.started,test_instruction.stopped,respTestInstr.keys,respTestInstr.rt,respTestInstr.duration,random_instruction.started,textRandomInstr.started,respRandomInstr.started,random_instruction.stopped,instr_trials.respRandomInstr.keys,instr_trials.respRandomInstr.rt,instr_trials.respRandomInstr.duration,test_trials.respDots.keys,test_trials.respDots.corr,test_trials.respDots.rt,test_trials.respDots.duration,goodbye.started,textGoodbye.started,goodbye.stopped,participant,session,expName,frameRate
,,,,,,,,,,,,,,,,,,,,,,,,,,,0.0029347,0.0093052,0.0093052,55.4357614,space,55.4071688,None,,,,,,,,,,,,,,,,,,,,,,,,,,,,,,,,,,,,,,,,,,,,,,sub-219,1,random_dot,59.94334156
left,left,0,0,0,left,1,4.3066432,None,,,,,0,0,0,0,,,,,,,,,55.4570466,,,,,,,,,55.4508975,56.2409161,57.0490179,57.0260705,57.0265978,57.0490179,57.0490179,57.0490179,61.3636003,left,1,4.3066432,None,61.3873381,61.3933941,61.8790672,,,,,,,,,,,,,,,,,,,,,,,,,,,,,,sub-219,1,random_dot,59.94334156
right,right,1,1,0,left,0,3.8748398,None,,,,,0,1,1,1,,,,,,,,,61.895675,,,,,,,,,61.8794892,63.0794001,63.8813372,63.8638267,63.8644054,63.8813372,63.8813372,63.8813372,67.7683238,left,0,3.8748398,None,67.7810988,67.7897799,68.2832144,,,,,,,,,,,,,,,,,,,,,,,,,,,,,,sub-219,1,random_dot,59.94334156
right,right,2,0,1,right,1,1.6414264,None,,,,,1,0,2,1,,,,,,,,,68.3001256,,,,,,,,,68.2836789,68.3831356,69.1848485,69.1673583,69.1678419,69.1848485,69.1848485,69.1848485,70.8367185,right,1,1.6414264,None,70.842696,70.8514292,71.3355613,71.3518659,,,,,,,,,,,,,,,,,,,,,,,,,,,,,sub-219,1,random_dot,59.94334156
left,left,3,1,1,left,1,3.1019624,None,,,,,1,1,3,0,,,,,,,,,71.3518659,,,,,,,,,71.3359172,71.7015076,72.5039518,72.4859615,72.4864215,72.5039518,72.5039518,72.5039518,75.6068269,left,1,3.1019624,None,75.6070212,75.6210405,76.1052736,76.121998,,,,,,,,,,,,,,,,,,,,,,,,,,,,,sub-219,1,random_dot,59.94334156
left,left,4,0,2,right,0,1.8224242,None,,,,,2,0,4,0,,,,,,,,,76.121998,,,,,,,,,76.1057766,76.2216446,77.0235632,77.005816,77.0063566,77.0235632,77.0235632,77.0235632,78.8587598,right,0,1.8224242,None,78.8644803,78.8734148,79.3575203,79.3741137,,,,,,,,,,,,,,,,,,,,,,,,,,,,,sub-219,1,random_dot,59.94334156
right,right,5,1,2,right,1,1.8466949,None,,,,,2,1,5,1,,,,,,,,,79.3741137,,,,,,,,,79.3579462,80.1574979,80.9594913,80.9421663,80.9426359,80.9594913,80.9594913,80.9594913,82.8112793,right,1,1.8466949,None,82.8171666,82.8260149,83.3106504,83.3268345,,,,,,,,,,,,,,,,,,,,,,,,,,,,,sub-219,1,random_dot,59.94334156
left,left,6,0,3,left,1,2.5275184,None,,,,,3,0,6,0,,,,,,,,,83.3268345,,,,,,,,,83.3110802,83.4265666,84.2285958,84.2109019,84.211411,84.2285958,84.2285958,84.2285958,86.7641014,left,1,2.5275184,None,86.7642472,86.7789789,87.2633257,87.2796302,,,,,,,,,,,,,,,,,,,,,,,,,,,,,sub-219,1,random_dot,59.94334156
right,right,7,1,3,right,1,2.9656811,None,,,,,3,1,7,1,,,,,,,,,87.2796302,,,,,,,,,87.2637051,87.6295912,88.4311871,88.41396,88.4144402,88.4311871,88.4311871,88.4311871,91.4004673,right,1,2.9656811,None,91.4006098,91.4155826,91.8993151,91.9155816,,,,,,,,,,,,,,,,,,,,,,,,,,,,,sub-219,1,random_dot,59.94334156
left,left,8,0,4,right,0,1.9433583,None,,,,,4,0,8,0,,,,,,,,,91.9155816,,,,,,,,,91.8997698,93.0997366,93.9021542,93.8843622,93.8848591,93.9021542,93.9021542,93.9021542,95.8536684,right,0,1.9433583,None,95.8572112,95.8686876,96.3527491,96.3689972,,,,,,,,,,,,,,,,,,,,,,,,,,,,,sub-219,1,random_dot,59.94334156
right,right,9,1,4,left,0,1.9158349,None,,,,,4,1,9,1,,,,,,,,,96.3689972,,,,,,,,,96.3532022,96.7190361,97.5209562,97.5038271,97.5042688,97.5209562,97.5209562,97.5209562,99.4394094,left,0,1.9158349,None,99.4395433,99.4544856,99.9383054,99.9546294,,,,,,,,,,,,,,,,,,,,,,,,,,,,,sub-219,1,random_dot,59.94334156
left,left,10,0,5,right,0,1.2747845,None,,,,,5,0,10,0,,,,,,,,,99.9546294,,,,,,,,,99.9387734,101.1389672,101.9410044,101.9230312,101.9235635,101.9410044,101.9410044,101.9410044,103.2255376,right,0,1.2747845,None,103.2256771,103.2402934,103.7242269,103.7408277,,,,,,,,,,,,,,,,,,,,,,,,,,,,,sub-219,1,random_dot,59.94334156
right,right,11,1,5,left,0,3.5234131,None,,,,,5,1,11,1,,,,,,,,,103.7408277,,,,,,,,,103.7247312,104.0912446,104.8925735,104.8752112,104.8757237,104.8925735,104.8925735,104.8925735,108.4292571,left,0,3.5234131,None,108.4293938,108.4441352,108.9281743,108.9442673,,,,,,,,,,,,,,,,,,,,,,,,,,,,,sub-219,1,random_dot,59.94334156
right,right,12,0,6,left,0,1.6889778,None,,,,,6,0,12,1,,,,,,,,,108.9442673,,,,,,,,,108.9285715,109.7451343,110.5467557,110.5292415,110.5297597,110.5467557,110.5467557,110.5467557,112.2481648,left,0,1.6889778,None,112.2483061,112.2628492,112.7471364,112.7635849,,,,,,,,,,,,,,,,,,,,,,,,,,,,,sub-219,1,random_dot,59.94334156
left,left,13,1,6,left,1,4.3199933,None,,,,,6,1,13,0,,,,,,,,,112.7635849,,,,,,,,,112.7473987,113.5640243,114.36592,114.3481853,114.3487279,114.36592,114.36592,114.36592,118.7023519,left,1,4.3199933,None,118.7079959,118.7172278,119.2014178,119.2181691,,,,,,,,,,,,,,,,,,,,,,,,,,,,,sub-219,1,random_dot,59.94334156
left,left,14,0,7,right,0,2.6125713,None,,,,,7,0,14,0,,,,,,,,,119.2181691,,,,,,,,,119.2018059,119.5518914,120.3532544,120.3361429,120.3365951,120.3532544,120.3532544,120.3532544,122.972043,right,0,2.6125713,None,122.9773901,122.9868872,123.4709531,123.4872045,,,,,,,,,,,,,,,,,,,,,,,,,,,,,sub-219,1,random_dot,59.94334156
right,right,15,1,7,right,1,2.1424137,None,,,,,7,1,15,1,,,,,,,,,123.4872045,,,,,,,,,123.4713913,124.6718611,125.4739686,125.45599,125.4564382,125.4739686,125.4739686,125.4739686,127.6256072,right,1,2.1424137,None,127.6302388,127.640362,128.1245849,128.1409924,,,,,,,,,,,,,,,,,,,,,,,,,,,,,sub-219,1,random_dot,59.94334156
left,left,16,0,8,left,1,1.4541907,None,,,,,8,0,16,0,,,,,,,,,128.1409924,,,,,,,,,128.1249869,128.4913556,129.2929555,129.2750455,129.2755488,129.2929555,129.2929555,129.2929555,130.7610457,left,1,1.4541907,None,130.7612461,130.7754153,131.259997,131.2765632,,,,,,,,,,,,,,,,,,,,,,,,,,,,,sub-219,1,random_dot,59.94334156
right,right,17,1,8,right,1,0.9592244,None,,,,,8,1,17,1,,,,,,,,,131.2765632,,,,,,,,,131.2604345,131.6262177,132.4285007,132.410931,132.4114432,132.4285007,132.4285007,132.4285007,133.396298,right,1,0.9592244,None,133.3964437,133.4113023,133.8950279,133.9112576,,,,,,,,,,,,,,,,,,,,,,,,,,,,,sub-219,1,random_dot,59.94334156
left,left,18,0,9,left,1,0.8735244,None,,,,,9,0,18,0,,,,,,,,,133.9112576,,,,,,,,,133.8954469,134.0114056,134.8134541,134.7958738,134.796494,134.8134541,134.8134541,134.8134541,135.6978995,left,1,0.8735244,None,135.6980676,135.7125739,136.196676,136.2128878,,,,,,,,,,,,,,,,,,,,,,,,,,,,,sub-219,1,random_dot,59.94334156
right,right,19,1,9,right,1,0.5526477,None,,,,,9,1,19,1,,,,,,,,,136.2128878,,,,,,,,,136.1971611,137.0134338,137.8149434,137.7977138,137.7981999,137.8149434,137.8149434,137.8149434,138.3833568,right,1,0.5526477,None,138.383512,138.3980066,138.8821137,138.898633,,,,,,,,,,,,,,,,,,,,,,,,,,,,,sub-219,1,random_dot,59.94334156
,,,,,,,,,,,,,,,,,,,,,,,,,,,,,,,,,,,,,,,,,,,,,,,,,,,138.8822796,138.898633,138.898633,146.0703808,space,7.1581562,None,,,,,,,,,,,,,,,,,,,,,,sub-219,1,random_dot,59.94334156
,,,,,,,,,,,,,,,,,,,,,,,,,,,,,,,,,,,,,,,,,,,,,,,,,,,,,,,,,,146.0704728,146.0868815,146.0868815,157.4118685,space,11.3103242,None,,,,,,,,,,,,,,,sub-219,1,random_dot,59.94334156
left,left,0,0,0,left,1,1.426121,None,accuracy,space,5.7681533,None,,,,,0,0,0,0,0,0,0,0,163.2648619,,,,,,,,,163.254449,164.0487949,164.8506227,164.8330833,164.8335986,164.8506227,164.8506227,164.8506227,166.2858976,,,,,,,,,,,,,,,,,,,,,,,157.4613813,157.4679419,157.4679419,163.2488013,space,5.7681533,None,left,1,1.426121,None,,,,sub-219,1,random_dot,59.94334156
right,right,1,1,0,right,1,1.9639954,None,accuracy,space,5.7681533,None,,,,,0,0,0,0,0,1,1,1,166.300189,,,,,,,,,166.2864948,167.5013971,168.3031049,168.2856648,168.2860892,168.3031049,168.3031049,168.3031049,170.2712336,,,,,,,,,,,,,,,,,,,,,,,,,,,,,,right,1,1.9639954,None,,,,sub-219,1,random_dot,59.94334156
left,left,2,0,1,right,0,2.0581471,None,accuracy,space,5.7681533,None,,,,,0,0,0,0,1,0,2,0,170.2862728,,,,,,,,,170.2717591,170.6369893,171.4386233,171.4209353,171.421413,171.4386233,171.4386233,171.4386233,173.5071757,,,,,,,,,,,,,,,,,,,,,,,,,,,,,,right,0,2.0581471,None,,,,sub-219,1,random_dot,59.94334156
right,right,3,1,1,left,0,2.2632711,None,accuracy,space,5.7681533,None,,,,,0,0,0,0,1,1,3,1,173.5214648,,,,,,,,,173.5077118,173.8718395,174.6739377,174.6565167,174.6569382,174.6739377,174.6739377,174.6739377,176.9424249,,,,,,,,,,,,,,,,,,,,,,,,,,,,,,left,0,2.2632711,None,,,,sub-219,1,random_dot,59.94334156
left,left,4,0,2,left,1,2.7172002,None,accuracy,space,5.7681533,None,,,,,0,0,0,0,2,0,4,0,176.9577199,,,,,,,,,176.9429529,177.0578203,177.8598666,177.8416948,177.8421888,177.8598666,177.8598666,177.8598666,180.579152,,,,,,,,,,,,,,,,,,,,,,,,,,,,,,left,1,2.7172002,None,,,,sub-219,1,random_dot,59.94334156
right,right,5,1,2,right,1,2.191467,None,accuracy,space,5.7681533,None,,,,,0,0,0,0,2,1,5,1,180.5934169,,,,,,,,,180.5796207,180.9437618,181.7457867,181.7282446,181.7287341,181.7457867,181.7457867,181.7457867,183.9475537,,,,,,,,,,,,,,,,,,,,,,,,,,,,,,right,1,2.191467,None,,,,sub-219,1,random_dot,59.94334156
right,right,6,0,3,right,1,2.842046,None,accuracy,space,5.7681533,None,,,,,0,0,0,0,3,0,6,1,183.9625795,,,,,,,,,183.9480144,184.763185,185.5649302,185.5470932,185.5475815,185.5649302,185.5649302,185.5649302,188.4174679,,,,,,,,,,,,,,,,,,,,,,,,,,,,,,right,1,2.842046,None,,,,sub-219,1,random_dot,59.94334156
left,left,7,1,3,left,1,1.9029756,None,accuracy,space,5.7681533,None,,,,,0,0,0,0,3,1,7,0,188.432144,,,,,,,,,188.4179922,188.5322159,189.3342987,189.3165659,189.3170576,189.3342987,189.3342987,189.3342987,191.2526734,,,,,,,,,,,,,,,,,,,,,,,,,,,,,,left,1,1.9029756,None,,,,sub-219,1,random_dot,59.94334156
left,left,8,0,4,right,0,1.6470772,None,accuracy,space,5.7681533,None,,,,,0,0,0,0,4,0,8,0,191.2670655,,,,,,,,,191.253176,192.0680901,192.8699574,192.8524033,192.8529394,192.8699574,192.8699574,192.8699574,194.521387,,,,,,,,,,,,,,,,,,,,,,,,,,,,,,right,0,1.6470772,None,,,,sub-219,1,random_dot,59.94334156
right,right,9,1,4,left,0,2.5087822,None,accuracy,space,5.7681533,None,,,,,0,0,0,0,4,1,9,1,194.536471,,,,,,,,,194.5219092,194.636533,195.4385614,195.4204372,195.4209338,195.4385614,195.4385614,195.4385614,197.9573601,,,,,,,,,,,,,,,,,,,,,,,,,,,,,,left,0,2.5087822,None,,,,sub-219,1,random_dot,59.94334156
left,left,10,0,5,left,1,2.6021039,None,accuracy,space,5.7681533,None,,,,,0,0,0,0,5,0,10,0,197.9721392,,,,,,,,,197.9579332,199.1732572,199.974925,199.9572424,199.9577283,199.974925,199.974925,199.974925,202.5937825,,,,,,,,,,,,,,,,,,,,,,,,,,,,,,left,1,2.6021039,None,,,,sub-219,1,random_dot,59.94334156
right,right,11,1,5,right,1,1.7261238,None,accuracy,space,5.7681533,None,,,,,0,0,0,0,5,1,11,1,202.6086949,,,,,,,,,202.5942668,203.8097542,204.611102,204.5932812,204.5938218,204.611102,204.611102,204.611102,206.3464356,,,,,,,,,,,,,,,,,,,,,,,,,,,,,,right,1,1.7261238,None,,,,sub-219,1,random_dot,59.94334156
left,left,12,0,6,left,1,1.7331067,None,accuracy,space,5.7681533,None,,,,,0,0,0,0,6,0,12,0,206.3612704,,,,,,,,,206.3471854,207.5622527,208.3639498,208.3462934,208.3468196,208.3639498,208.3639498,208.3639498,210.0996792,,,,,,,,,,,,,,,,,,,,,,,,,,,,,,left,1,1.7331067,None,,,,sub-219,1,random_dot,59.94334156
right,right,13,1,6,right,1,2.1110073,None,accuracy,space,5.7681533,None,,,,,0,0,0,0,6,1,13,1,210.1134544,,,,,,,,,210.1001897,210.9139515,211.7164424,211.6984926,211.6989176,211.7164424,211.7164424,211.7164424,213.8348165,,,,,,,,,,,,,,,,,,,,,,,,,,,,,,right,1,2.1110073,None,,,,sub-219,1,random_dot,59.94334156
left,left,14,0,7,right,0,2.2950287,None,accuracy,space,5.7681533,None,,,,,0,0,0,0,7,0,14,0,213.8494266,,,,,,,,,213.8356076,214.2001752,215.0018784,214.98403,214.9845344,215.0018784,215.0018784,215.0018784,217.3035906,,,,,,,,,,,,,,,,,,,,,,,,,,,,,,right,0,2.2950287,None,,,,sub-219,1,random_dot,59.94334156
right,right,15,1,7,left,0,1.542374,None,accuracy,space,5.7681533,None,,,,,0,0,0,0,7,1,15,1,217.3187159,,,,,,,,,217.3041033,218.1022427,218.9046084,218.8869959,218.8874885,218.9046084,218.9046084,218.9046084,220.4560953,,,,,,,,,,,,,,,,,,,,,,,,,,,,,,left,0,1.542374,None,,,,sub-219,1,random_dot,59.94334156
left,left,16,0,8,right,0,2.1032884,None,accuracy,space,5.7681533,None,,,,,0,0,0,0,8,0,16,0,220.4709324,,,,,,,,,220.4566496,220.5709295,221.3726595,221.3554011,221.3560774,221.3726595,221.3726595,221.3726595,223.4909387,,,,,,,,,,,,,,,,,,,,,,,,,,,,,,right,0,2.1032884,None,,,,sub-219,1,random_dot,59.94334156
right,right,17,1,8,left,0,2.0446179,None,accuracy,space,5.7681533,None,,,,,0,0,0,0,8,1,17,1,223.5060847,,,,,,,,,223.4913252,224.6905253,225.4922279,225.4747005,225.4752862,225.4922279,225.4922279,225.4922279,227.5444263,,,,,,,,,,,,,,,,,,,,,,,,,,,,,,left,0,2.0446179,None,,,,sub-219,1,random_dot,59.94334156
right,right,18,0,9,left,0,2.4555435,None,accuracy,space,5.7681533,None,,,,,0,0,0,0,9,0,18,1,227.5589162,,,,,,,,,227.5449536,228.3596376,229.1613721,229.144061,229.1445668,229.1613721,229.1613721,229.1613721,231.6305007,,,,,,,,,,,,,,,,,,,,,,,,,,,,,,left,0,2.4555435,None,,,,sub-219,1,random_dot,59.94334156
left,left,19,1,9,right,0,1.5797917,None,accuracy,space,5.7681533,None,,,,,0,0,0,0,9,1,19,0,231.6453646,,,,,,,,,231.6309902,232.8459311,233.6480318,233.630348,233.6308832,233.6480318,233.6480318,233.6480318,235.2329095,,,,,,,,,,,,,,,,,,,,,,,,,,,,,,right,0,1.5797917,None,,,,sub-219,1,random_dot,59.94334156
right,right,20,0,10,left,0,1.5151693,None,accuracy,space,5.7681533,None,,,,,0,0,0,0,10,0,20,1,235.2474864,,,,,,,,,235.2333802,236.4321371,237.2331261,237.2163722,237.2168781,237.2331261,237.2331261,237.2331261,238.7517989,,,,,,,,,,,,,,,,,,,,,,,,,,,,,,left,0,1.5151693,None,,,,sub-219,1,random_dot,59.94334156
left,left,21,1,10,right,0,1.7788624,None,accuracy,space,5.7681533,None,,,,,0,0,0,0,10,1,21,0,238.7666735,,,,,,,,,238.7523396,238.8672858,239.6687971,239.6511454,239.6516553,239.6687971,239.6687971,239.6687971,241.4539939,,,,,,,,,,,,,,,,,,,,,,,,,,,,,,right,0,1.7788624,None,,,,sub-219,1,random_dot,59.94334156
left,left,22,0,11,left,1,2.3169972,None,accuracy,space,5.7681533,None,,,,,0,0,0,0,11,0,22,0,241.4684003,,,,,,,,,241.4545323,242.6693616,243.4714377,243.4538784,243.4543044,243.4714377,243.4714377,243.4714377,245.790903,,,,,,,,,,,,,,,,,,,,,,,,,,,,,,left,1,2.3169972,None,,,,sub-219,1,random_dot,59.94334156
right,right,23,1,11,right,1,2.8511457,None,accuracy,space,5.7681533,None,,,,,0,0,0,0,11,1,23,1,245.804936,,,,,,,,,245.7914434,245.9052491,246.7066702,246.689623,246.6900781,246.7066702,246.7066702,246.7066702,249.5595834,,,,,,,,,,,,,,,,,,,,,,,,,,,,,,right,1,2.8511457,None,,,,sub-219,1,random_dot,59.94334156
right,right,24,0,12,left,0,1.491154,None,accuracy,space,5.7681533,None,,,,,0,0,0,0,12,0,24,1,249.5744259,,,,,,,,,249.5600815,250.3746688,251.1766771,251.1592514,251.1597729,251.1766771,251.1766771,251.1766771,252.6785402,,,,,,,,,,,,,,,,,,,,,,,,,,,,,,left,0,1.491154,None,,,,sub-219,1,random_dot,59.94334156
left,left,25,1,12,left,1,1.4834369,None,accuracy,space,5.7681533,None,,,,,0,0,0,0,12,1,25,0,252.6929329,,,,,,,,,252.6790336,253.4936845,254.2952787,254.2781782,254.2786703,254.2952787,254.2952787,254.2952787,255.7811488,,,,,,,,,,,,,,,,,,,,,,,,,,,,,,left,1,1.4834369,None,,,,sub-219,1,random_dot,59.94334156
left,left,26,0,13,right,0,1.6901169,None,accuracy,space,5.7681533,None,,,,,0,0,0,0,13,0,26,0,255.7953149,,,,,,,,,255.7816514,256.5960387,257.3978853,257.3799248,257.3803733,257.3978853,257.3978853,257.3978853,259.0993587,,,,,,,,,,,,,,,,,,,,,,,,,,,,,,right,0,1.6901169,None,,,,sub-219,1,random_dot,59.94334156
right,right,27,1,13,left,0,1.770961,None,accuracy,space,5.7681533,None,,,,,0,0,0,0,13,1,27,1,259.114216,,,,,,,,,259.099891,260.3151185,261.1169785,261.0993137,261.0998664,261.1169785,261.1169785,261.1169785,262.9019624,,,,,,,,,,,,,,,,,,,,,,,,,,,,,,left,0,1.770961,None,,,,sub-219,1,random_dot,59.94334156
left,left,28,0,14,right,0,1.5291496,None,accuracy,space,5.7681533,None,,,,,0,0,0,0,14,0,28,0,262.9164987,,,,,,,,,262.9024902,263.7174203,264.5191912,264.5012333,264.5016908,264.5191912,264.5191912,264.5191912,266.0540952,,,,,,,,,,,,,,,,,,,,,,,,,,,,,,right,0,1.5291496,None,,,,sub-219,1,random_dot,59.94334156
right,right,29,1,14,right,1,1.5364089,None,accuracy,space,5.7681533,None,,,,,0,0,0,0,14,1,29,1,266.0687652,,,,,,,,,266.0546067,266.4191091,267.2213003,267.2038465,267.2042719,267.2213003,267.2213003,267.2213003,268.7727041,,,,,,,,,,,,,,,,,,,,,,,,,,,,,,right,1,1.5364089,None,,,,sub-219,1,random_dot,59.94334156
left,left,30,0,15,left,1,1.6680643,None,accuracy,space,5.7681533,None,,,,,0,0,0,0,15,0,30,0,268.7870794,,,,,,,,,268.7732269,269.5879951,270.3897135,270.3718816,270.3723051,270.3897135,270.3897135,270.3897135,272.0590411,,,,,,,,,,,,,,,,,,,,,,,,,,,,,,left,1,1.6680643,None,,,,sub-219,1,random_dot,59.94334156
right,right,31,1,15,right,1,2.2937291,None,accuracy,space,5.7681533,None,,,,,0,0,0,0,15,1,31,1,272.0733172,,,,,,,,,272.0595646,272.4233072,273.2245767,273.2077435,273.2081675,273.2245767,273.2245767,273.2245767,275.5272112,,,,,,,,,,,,,,,,,,,,,,,,,,,,,,right,1,2.2937291,None,,,,sub-219,1,random_dot,59.94334156
right,right,32,0,16,left,0,1.6131388,None,accuracy,space,5.7681533,None,,,,,0,0,0,0,16,0,32,1,275.5421945,,,,,,,,,275.5277188,276.7428954,277.544826,277.5268943,277.5273943,277.544826,277.544826,277.544826,279.1631111,,,,,,,,,,,,,,,,,,,,,,,,,,,,,,left,0,1.6131388,None,,,,sub-219,1,random_dot,59.94334156
left,left,33,1,16,right,0,1.7474804,None,accuracy,space,5.7681533,None,,,,,0,0,0,0,16,1,33,0,279.1778774,,,,,,,,,279.1638356,279.9782078,280.780555,280.7626654,280.7634566,280.780555,280.780555,280.780555,282.5320041,,,,,,,,,,,,,,,,,,,,,,,,,,,,,,right,0,1.7474804,None,,,,sub-219,1,random_dot,59.94334156
right,right,34,0,17,left,0,2.2293026,None,accuracy,space,5.7681533,None,,,,,0,0,0,0,17,0,34,1,282.5465927,,,,,,,,,282.5324701,282.8973013,283.6990752,283.6817626,283.6823819,283.6990752,283.6990752,283.6990752,285.9340408,,,,,,,,,,,,,,,,,,,,,,,,,,,,,,left,0,2.2293026,None,,,,sub-219,1,random_dot,59.94334156
left,left,35,1,17,left,1,2.0726028,None,accuracy,space,5.7681533,None,,,,,0,0,0,0,17,1,35,0,285.9490485,,,,,,,,,285.9345776,287.1334873,287.9352378,287.9171898,287.9176454,287.9352378,287.9352378,287.9352378,290.0199957,,,,,,,,,,,,,,,,,,,,,,,,,,,,,,left,1,2.0726028,None,,,,sub-219,1,random_dot,59.94334156
left,left,36,0,18,right,0,1.7603554,None,accuracy,space,5.7681533,None,,,,,0,0,0,0,18,0,36,0,290.0348751,,,,,,,,,290.0204921,290.1354475,290.9370984,290.9191858,290.9195006,290.9370984,290.9370984,290.9370984,292.7052815,,,,,,,,,,,,,,,,,,,,,,,,,,,,,,right,0,1.7603554,None,,,,sub-219,1,random_dot,59.94334156
right,right,37,1,18,left,0,1.1708412,None,accuracy,space,5.7681533,None,,,,,0,0,0,0,18,1,37,1,292.7204519,,,,,,,,,292.7057394,293.9045172,294.706814,294.6891498,294.6896482,294.706814,294.706814,294.706814,295.8912624,,,,,,,,,,,,,,,,,,,,,,,,,,,,,,left,0,1.1708412,None,,,,sub-219,1,random_dot,59.94334156
left,left,38,0,19,left,1,2.6094115,None,accuracy,space,5.7681533,None,,,,,0,0,0,0,19,0,38,0,295.9060971,,,,,,,,,295.8917399,296.7067186,297.5083702,297.4912968,297.4917805,297.5083702,297.5083702,297.5083702,300.1280898,,,,,,,,,,,,,,,,,,,,,,,,,,,,,,left,1,2.6094115,None,,,,sub-219,1,random_dot,59.94334156
right,right,39,1,19,right,1,1.3636222,None,accuracy,space,5.7681533,None,,,,,0,0,0,0,19,1,39,1,300.1425996,,,,,,,,,300.1287135,300.2421496,301.0444499,301.0268837,301.0273749,301.0444499,301.0444499,301.0444499,302.4122518,,,,,,,,,,,,,,,,,,,,,,,,,,,,,,right,1,1.3636222,None,,,,sub-219,1,random_dot,59.94334156
left,left,40,0,20,left,1,1.6193497,None,accuracy,space,5.7681533,None,,,,,0,0,0,0,20,0,40,0,302.4272666,,,,,,,,,302.4127984,302.7771162,303.5795774,303.5619047,303.5623954,303.5795774,303.5795774,303.5795774,305.2143316,,,,,,,,,,,,,,,,,,,,,,,,,,,,,,left,1,1.6193497,None,,,,sub-219,1,random_dot,59.94334156
right,right,41,1,20,right,1,1.1166558,None,accuracy,space,5.7681533,None,,,,,0,0,0,0,20,1,41,1,305.2292268,,,,,,,,,305.2149748,306.0299387,306.8313816,306.8137431,306.8141953,306.8313816,306.8313816,306.8313816,307.950182,,,,,,,,,,,,,,,,,,,,,,,,,,,,,,right,1,1.1166558,None,,,,sub-219,1,random_dot,59.94334156
left,left,42,0,21,left,1,1.2410088,None,accuracy,space,5.7681533,None,,,,,0,0,0,0,21,0,42,0,307.9646246,,,,,,,,,307.9506893,309.1655397,309.9669616,309.9497627,309.9502964,309.9669616,309.9669616,309.9669616,311.2185946,,,,,,,,,,,,,,,,,,,,,,,,,,,,,,left,1,1.2410088,None,,,,sub-219,1,random_dot,59.94334156
right,right,43,1,21,right,1,1.7616047,None,accuracy,space,5.7681533,None,,,,,0,0,0,0,21,1,43,1,311.2337315,,,,,,,,,311.2191112,312.0335007,312.8354248,312.8177082,312.8181324,312.8354248,312.8354248,312.8354248,314.6039093,,,,,,,,,,,,,,,,,,,,,,,,,,,,,,right,1,1.7616047,None,,,,sub-219,1,random_dot,59.94334156
right,right,44,0,22,right,1,2.0669131,None,accuracy,space,5.7681533,None,,,,,0,0,0,0,22,0,44,1,314.6187386,,,,,,,,,314.6043896,314.7188183,315.5205774,315.5033,315.5038011,315.5205774,315.5205774,315.5205774,317.5895672,,,,,,,,,,,,,,,,,,,,,,,,,,,,,,right,1,2.0669131,None,,,,sub-219,1,random_dot,59.94334156
left,left,45,1,22,right,0,2.8618539,None,accuracy,space,5.7681533,None,,,,,0,0,0,0,22,1,45,0,317.6036947,,,,,,,,,317.5898449,317.9540287,318.7565092,318.7389398,318.7395064,318.7565092,318.7565092,318.7565092,321.6256714,,,,,,,,,,,,,,,,,,,,,,,,,,,,,,right,0,2.8618539,None,,,,sub-219,1,random_dot,59.94334156
left,left,46,0,23,left,1,1.3160154,None,accuracy,space,5.7681533,None,,,,,0,0,0,0,23,0,46,0,321.6407863,,,,,,,,,321.626184,321.7406587,322.5422919,322.524887,322.5254608,322.5422919,322.5422919,322.5422919,323.8607352,,,,,,,,,,,,,,,,,,,,,,,,,,,,,,left,1,1.3160154,None,,,,sub-219,1,random_dot,59.94334156
right,right,47,1,23,left,0,3.1103869,None,accuracy,space,5.7681533,None,,,,,0,0,0,0,23,1,47,1,323.8752385,,,,,,,,,323.8612443,323.9756255,324.7773811,324.7599704,324.7604205,324.7773811,324.7773811,324.7773811,327.8970382,,,,,,,,,,,,,,,,,,,,,,,,,,,,,,left,0,3.1103869,None,,,,sub-219,1,random_dot,59.94334156
left,left,48,0,24,right,0,1.2656167,None,accuracy,space,5.7681533,None,,,,,0,0,0,0,24,0,48,0,327.9114186,,,,,,,,,327.8975577,328.261577,329.0633548,329.045846,329.0463067,329.0633548,329.0633548,329.0633548,330.3319443,,,,,,,,,,,,,,,,,,,,,,,,,,,,,,right,0,1.2656167,None,,,,sub-219,1,random_dot,59.94334156
right,right,49,1,24,right,1,1.3291259,None,accuracy,space,5.7681533,None,,,,,0,0,0,0,24,1,49,1,330.3461959,,,,,,,,,330.3324907,331.5474458,332.3491885,332.3317942,332.3322212,332.3491885,332.3491885,332.3491885,333.6839725,,,,,,,,,,,,,,,,,,,,,,,,,,,,,,right,1,1.3291259,None,,,,sub-219,1,random_dot,59.94334156
left,left,50,0,25,left,1,1.3868209,None,accuracy,space,5.7681533,None,,,,,0,0,0,0,25,0,50,0,333.6988784,,,,,,,,,333.6845859,334.499344,335.3007832,335.2834067,335.2838966,335.3007832,335.3007832,335.3007832,336.7031876,,,,,,,,,,,,,,,,,,,,,,,,,,,,,,left,1,1.3868209,None,,,,sub-219,1,random_dot,59.94334156
right,right,51,1,25,right,1,2.1181583,None,accuracy,space,5.7681533,None,,,,,0,0,0,0,25,1,51,1,336.7170512,,,,,,,,,336.7036867,337.0671204,337.8695906,337.8520749,337.8526079,337.8695906,337.8695906,337.8695906,340.0050759,,,,,,,,,,,,,,,,,,,,,,,,,,,,,,right,1,2.1181583,None,,,,sub-219,1,random_dot,59.94334156
left,left,52,0,26,left,1,2.2174335,None,accuracy,space,5.7681533,None,,,,,0,0,0,0,26,0,52,0,340.0199611,,,,,,,,,340.00565,340.1196343,340.9216871,340.9040031,340.9044679,340.9216871,340.9216871,340.9216871,343.1410244,,,,,,,,,,,,,,,,,,,,,,,,,,,,,,left,1,2.2174335,None,,,,sub-219,1,random_dot,59.94334156
right,right,53,1,26,right,1,1.2316312,None,accuracy,space,5.7681533,None,,,,,0,0,0,0,26,1,53,1,343.1548812,,,,,,,,,343.1415373,343.2552881,344.0572297,344.0395041,344.0400926,344.0572297,344.0572297,344.0572297,345.2922755,,,,,,,,,,,,,,,,,,,,,,,,,,,,,,right,1,1.2316312,None,,,,sub-219,1,random_dot,59.94334156
left,left,54,0,27,left,1,1.1297688,None,accuracy,space,5.7681533,None,,,,,0,0,0,0,27,0,54,0,345.3062518,,,,,,,,,345.2927588,345.6571647,346.4589027,346.4412297,346.4417307,346.4589027,346.4589027,346.4589027,347.5929253,,,,,,,,,,,,,,,,,,,,,,,,,,,,,,left,1,1.1297688,None,,,,sub-219,1,random_dot,59.94334156
right,right,55,1,27,right,1,1.1883161,None,accuracy,space,5.7681533,None,,,,,0,0,0,0,27,1,55,1,347.6078801,,,,,,,,,347.5932069,348.4090759,349.210701,349.1932789,349.1937662,349.210701,349.210701,349.210701,350.4119141,,,,,,,,,,,,,,,,,,,,,,,,,,,,,,right,1,1.1883161,None,,,,sub-219,1,random_dot,59.94334156
right,right,56,0,28,left,0,2.1861391,None,accuracy,space,5.7681533,None,,,,,0,0,0,0,28,0,56,1,350.4269523,,,,,,,,,350.4124669,351.2106151,352.0128112,351.9953078,351.995805,352.0128112,352.0128112,352.0128112,354.2145593,,,,,,,,,,,,,,,,,,,,,,,,,,,,,,left,0,2.1861391,None,,,,sub-219,1,random_dot,59.94334156
left,left,57,1,28,right,0,1.2371238,None,accuracy,space,5.7681533,None,,,,,0,0,0,0,28,1,57,0,354.2294762,,,,,,,,,354.2150689,354.3297845,355.1314506,355.1138025,355.1142619,355.1314506,355.1314506,355.1314506,356.3828842,,,,,,,,,,,,,,,,,,,,,,,,,,,,,,right,0,1.2371238,None,,,,sub-219,1,random_dot,59.94334156
right,right,58,0,29,right,1,2.0788763,None,accuracy,space,5.7681533,None,,,,,0,0,0,0,29,0,58,1,356.3976453,,,,,,,,,356.3833827,356.4976328,357.2997496,357.2821708,357.2826266,357.2997496,357.2997496,357.2997496,359.3854912,,,,,,,,,,,,,,,,,,,,,,,,,,,,,,right,1,2.0788763,None,,,,sub-219,1,random_dot,59.94334156
left,left,59,1,29,left,1,1.1368443,None,accuracy,space,5.7681533,None,,,,,0,0,0,0,29,1,59,0,359.3997038,,,,,,,,,359.3860629,360.6004945,361.402224,361.3852163,361.3857103,361.402224,361.402224,361.402224,362.5538807,,,,,,,,,,,,,,,,,,,,,,,,,,,,,,left,1,1.1368443,None,,,,sub-219,1,random_dot,59.94334156
,,0,0,0,,,,,accuracy,space,5.7681533,None,,,,,0,0,0,0,,,,,,,,,,,,,,,,,,,,,,,,,,,,,,,,,,,,,,,,,,,,,,,,,,,,,,,,,,,sub-219,1,random_dot,59.94334156
left,left,0,0,0,left,1,0.9150435,None,speed,space,4.8326222,None,,,,,0,1,1,1,0,0,0,0,367.4386535,,,,,,,,,367.4320081,368.2222345,369.0244545,369.0068498,369.0074347,369.0244545,369.0244545,369.0244545,369.9423075,,,,,,,,,,,,,,,,,,,,,,,362.580098,362.5863083,362.5863083,367.4224346,space,4.8326222,None,left,1,0.9150435,None,,,,sub-219,1,random_dot,59.94334156
right,right,1,1,0,right,1,0.3185062,None,speed,space,4.8326222,None,,,,,0,1,1,1,0,1,1,1,369.9568345,,,,,,,,,369.9428447,371.1581587,371.9600097,371.9420999,371.9426023,371.9600097,371.9600097,371.9600097,372.2936993,,,,,,,,,,,,,,,,,,,,,,,,,,,,,,right,1,0.3185062,None,,,,sub-219,1,random_dot,59.94334156
left,left,2,0,1,right,0,0.6878345,None,speed,space,4.8326222,None,,,,,0,1,1,1,1,0,2,0,372.308953,,,,,,,,,372.2941726,373.5097445,374.3110363,374.2935382,374.2940335,374.3110363,374.3110363,374.3110363,375.0118829,,,,,,,,,,,,,,,,,,,,,,,,,,,,,,right,0,0.6878345,None,,,,sub-219,1,random_dot,59.94334156
right,right,3,1,1,left,0,1.0267191,None,speed,space,4.8326222,None,,,,,0,1,1,1,1,1,3,1,375.0271595,,,,,,,,,375.0124065,375.8109452,376.6126435,376.5953265,376.5958239,376.6126435,376.6126435,376.6126435,377.6476111,,,,,,,,,,,,,,,,,,,,,,,,,,,,,,left,0,1.0267191,None,,,,sub-219,1,random_dot,59.94334156
right,right,4,0,2,right,1,1.1452859,None,speed,space,4.8326222,None,,,,,0,1,1,1,2,0,4,1,377.6623298,,,,,,,,,377.6481227,377.7619171,378.5641769,378.5466824,378.5471784,378.5641769,378.5641769,378.5641769,379.715333,,,,,,,,,,,,,,,,,,,,,,,,,,,,,,right,1,1.1452859,None,,,,sub-219,1,random_dot,59.94334156
left,left,5,1,2,right,0,1.0859449,None,speed,space,4.8326222,None,,,,,0,1,1,1,2,1,5,0,379.7307065,,,,,,,,,379.715795,380.5308435,381.3324887,381.3154315,381.3159424,381.3324887,381.3324887,381.3324887,382.4339621,,,,,,,,,,,,,,,,,,,,,,,,,,,,,,right,0,1.0859449,None,,,,sub-219,1,random_dot,59.94334156
right,right,6,0,3,left,0,0.9075892,None,speed,space,4.8326222,None,,,,,0,1,1,1,3,0,6,1,382.4490733,,,,,,,,,382.4345707,383.649925,384.4518385,384.4341786,384.4346366,384.4518385,384.4518385,384.4518385,385.3695004,,,,,,,,,,,,,,,,,,,,,,,,,,,,,,left,0,0.9075892,None,,,,sub-219,1,random_dot,59.94334156
left,left,7,1,3,right,0,1.4926313,None,speed,space,4.8326222,None,,,,,0,1,1,1,3,1,7,0,385.384238,,,,,,,,,385.3700375,385.7345982,386.5363438,386.5190473,386.5195604,386.5363438,386.5363438,386.5363438,388.0377,,,,,,,,,,,,,,,,,,,,,,,,,,,,,,right,0,1.4926313,None,,,,sub-219,1,random_dot,59.94334156
right,right,8,0,4,right,1,1.8240337,None,speed,space,4.8326222,None,,,,,0,1,1,1,4,0,8,1,388.0527223,,,,,,,,,388.0382036,388.4025104,389.2049499,389.1872626,389.1879826,389.2049499,389.2049499,389.2049499,391.0400397,,,,,,,,,,,,,,,,,,,,,,,,,,,,,,right,1,1.8240337,None,,,,sub-219,1,random_dot,59.94334156
left,left,9,1,4,right,0,2.0332293,None,speed,space,4.8326222,None,,,,,0,1,1,1,4,1,9,0,391.0549413,,,,,,,,,391.0405289,391.1547711,391.9567561,391.9391071,391.939648,391.9567561,391.9567561,391.9567561,393.9925459,,,,,,,,,,,,,,,,,,,,,,,,,,,,,,right,0,2.0332293,None,,,,sub-219,1,random_dot,59.94334156
right,right,10,0,5,left,0,1.0393185,None,speed,space,4.8326222,None,,,,,0,1,1,1,5,0,10,1,394.0067567,,,,,,,,,393.9930567,395.2079755,396.0098986,395.9921511,395.9926294,396.0098986,396.0098986,396.0098986,397.0607288,,,,,,,,,,,,,,,,,,,,,,,,,,,,,,left,0,1.0393185,None,,,,sub-219,1,random_dot,59.94334156
left,left,11,1,5,left,1,1.2617267,None,speed,space,4.8326222,None,,,,,0,1,1,1,5,1,11,0,397.0755917,,,,,,,,,397.0612102,397.1757452,397.9778175,397.9598157,397.9603625,397.9778175,397.9778175,397.9778175,399.2457957,,,,,,,,,,,,,,,,,,,,,,,,,,,,,,left,1,1.2617267,None,,,,sub-219,1,random_dot,59.94334156
left,left,12,0,6,right,0,1.8362293,None,speed,space,4.8326222,None,,,,,0,1,1,1,6,0,12,0,399.2607958,,,,,,,,,399.246332,400.0610156,400.8629036,400.8456205,400.8461766,400.8629036,400.8629036,400.8629036,402.7146058,,,,,,,,,,,,,,,,,,,,,,,,,,,,,,right,0,1.8362293,None,,,,sub-219,1,random_dot,59.94334156
right,right,13,1,6,left,0,2.2679415,None,speed,space,4.8326222,None,,,,,0,1,1,1,6,1,13,1,402.7294797,,,,,,,,,402.7152555,402.8296533,403.6309884,403.614094,403.6146691,403.6309884,403.6309884,403.6309884,405.9163974,,,,,,,,,,,,,,,,,,,,,,,,,,,,,,left,0,2.2679415,None,,,,sub-219,1,random_dot,59.94334156
left,left,14,0,7,right,0,1.051606,None,speed,space,4.8326222,None,,,,,0,1,1,1,7,0,14,0,405.9315418,,,,,,,,,405.9168575,407.1157359,407.917288,407.9003531,407.900822,407.917288,407.917288,407.917288,408.985562,,,,,,,,,,,,,,,,,,,,,,,,,,,,,,right,0,1.051606,None,,,,sub-219,1,random_dot,59.94334156
right,right,15,1,7,right,1,1.0065621,None,speed,space,4.8326222,None,,,,,0,1,1,1,7,1,15,1,409.0004023,,,,,,,,,408.9860256,409.8014158,410.6025166,410.5852383,410.5856937,410.6025166,410.6025166,410.6025166,411.6207502,,,,,,,,,,,,,,,,,,,,,,,,,,,,,,right,1,1.0065621,None,,,,sub-219,1,random_dot,59.94334156
left,left,16,0,8,right,0,1.2904632,None,speed,space,4.8326222,None,,,,,0,1,1,1,8,0,16,0,411.6358467,,,,,,,,,411.621304,412.8365707,413.6386676,413.6209634,413.6214243,413.6386676,413.6386676,413.6386676,414.9402419,,,,,,,,,,,,,,,,,,,,,,,,,,,,,,right,0,1.2904632,None,,,,sub-219,1,random_dot,59.94334156
right,right,17,1,8,left,0,0.7113025,None,speed,space,4.8326222,None,,,,,0,1,1,1,8,1,17,1,414.9546027,,,,,,,,,414.9407544,416.1551949,416.9570609,416.9388967,416.9393619,416.9570609,416.9570609,416.9570609,417.674241,,,,,,,,,,,,,,,,,,,,,,,,,,,,,,left,0,0.7113025,None,,,,sub-219,1,random_dot,59.94334156
right,right,18,0,9,right,1,1.3973998,None,speed,space,4.8326222,None,,,,,0,1,1,1,9,0,18,1,417.6891366,,,,,,,,,417.6745159,418.0395654,418.8418699,418.8241586,418.8247803,418.8418699,418.8418699,418.8418699,420.2433915,,,,,,,,,,,,,,,,,,,,,,,,,,,,,,right,1,1.3973998,None,,,,sub-219,1,random_dot,59.94334156
left,left,19,1,9,left,1,1.0787293,None,speed,space,4.8326222,None,,,,,0,1,1,1,9,1,19,0,420.2583122,,,,,,,,,420.2439304,420.6087801,421.4100871,421.3923248,421.3928969,421.4100871,421.4100871,421.4100871,422.4945789,,,,,,,,,,,,,,,,,,,,,,,,,,,,,,left,1,1.0787293,None,,,,sub-219,1,random_dot,59.94334156
left,left,20,0,10,left,1,1.5665696,None,speed,space,4.8326222,None,,,,,0,1,1,1,10,0,20,0,422.5093239,,,,,,,,,422.4950555,422.6096961,423.4118449,423.3937051,423.3939507,423.4118449,423.4118449,423.4118449,424.9802476,,,,,,,,,,,,,,,,,,,,,,,,,,,,,,left,1,1.5665696,None,,,,sub-219,1,random_dot,59.94334156
right,right,21,1,10,right,1,0.6613935,None,speed,space,4.8326222,None,,,,,0,1,1,1,10,1,21,1,424.9942955,,,,,,,,,424.9807082,426.1954407,426.9976596,426.9798057,426.9802432,426.9976596,426.9976596,426.9976596,427.6652649,,,,,,,,,,,,,,,,,,,,,,,,,,,,,,right,1,0.6613935,None,,,,sub-219,1,random_dot,59.94334156
right,right,22,0,11,right,1,0.9565566,None,speed,space,4.8326222,None,,,,,0,1,1,1,11,0,22,1,427.679942,,,,,,,,,427.6657979,428.880464,429.6825811,429.6654876,429.6660207,429.6825811,429.6825811,429.6825811,430.6505502,,,,,,,,,,,,,,,,,,,,,,,,,,,,,,right,1,0.9565566,None,,,,sub-219,1,random_dot,59.94334156
left,left,23,1,11,left,1,1.9020604,None,speed,space,4.8326222,None,,,,,0,1,1,1,11,1,23,0,430.6653889,,,,,,,,,430.6511027,430.7655297,431.5671127,431.54965,431.5501569,431.5671127,431.5671127,431.5671127,433.4860089,,,,,,,,,,,,,,,,,,,,,,,,,,,,,,left,1,1.9020604,None,,,,sub-219,1,random_dot,59.94334156
right,right,24,0,12,left,0,1.1357091,None,speed,space,4.8326222,None,,,,,0,1,1,1,12,0,24,1,433.5008474,,,,,,,,,433.4865319,434.3015405,435.1032825,435.0856513,435.0861668,435.1032825,435.1032825,435.1032825,436.2544169,,,,,,,,,,,,,,,,,,,,,,,,,,,,,,left,0,1.1357091,None,,,,sub-219,1,random_dot,59.94334156
left,left,25,1,12,right,0,1.2369964,None,speed,space,4.8326222,None,,,,,0,1,1,1,12,1,25,0,436.269242,,,,,,,,,436.255032,437.0700286,437.87187,437.8542106,437.8547005,437.87187,437.87187,437.87187,439.1226956,,,,,,,,,,,,,,,,,,,,,,,,,,,,,,right,0,1.2369964,None,,,,sub-219,1,random_dot,59.94334156
left,left,26,0,13,right,0,0.9500787,None,speed,space,4.8326222,None,,,,,0,1,1,1,13,0,26,0,439.1377127,,,,,,,,,439.1231479,439.2380611,440.0396269,440.0221711,440.0226238,440.0396269,440.0396269,440.0396269,440.991544,,,,,,,,,,,,,,,,,,,,,,,,,,,,,,right,0,0.9500787,None,,,,sub-219,1,random_dot,59.94334156
right,right,27,1,13,left,0,1.7422309,None,speed,space,4.8326222,None,,,,,0,1,1,1,13,1,27,1,441.0060709,,,,,,,,,440.9920454,441.8067865,442.6081869,442.5906088,442.5910373,442.6081869,442.6081869,442.6081869,444.3599821,,,,,,,,,,,,,,,,,,,,,,,,,,,,,,left,0,1.7422309,None,,,,sub-219,1,random_dot,59.94334156
right,right,28,0,14,right,1,1.3827185,None,speed,space,4.8326222,None,,,,,0,1,1,1,14,0,28,1,444.3748344,,,,,,,,,444.3604845,445.5757845,446.3776403,446.3600775,446.360526,446.3776403,446.3776403,446.3776403,447.7627237,,,,,,,,,,,,,,,,,,,,,,,,,,,,,,right,1,1.3827185,None,,,,sub-219,1,random_dot,59.94334156
left,left,29,1,14,left,1,1.4609293,None,speed,space,4.8326222,None,,,,,0,1,1,1,14,1,29,0,447.7770076,,,,,,,,,447.7632554,448.127602,448.9289003,448.9115123,448.9120841,448.9289003,448.9289003,448.9289003,450.3973256,,,,,,,,,,,,,,,,,,,,,,,,,,,,,,left,1,1.4609293,None,,,,sub-219,1,random_dot,59.94334156
left,left,30,0,15,left,1,1.7454278,None,speed,space,4.8326222,None,,,,,0,1,1,1,15,0,30,0,450.4124595,,,,,,,,,450.3978199,450.7625617,451.5646902,451.5469333,451.5474726,451.5646902,451.5646902,451.5646902,453.3156874,,,,,,,,,,,,,,,,,,,,,,,,,,,,,,left,1,1.7454278,None,,,,sub-219,1,random_dot,59.94334156
right,right,31,1,15,right,1,0.9978989,None,speed,space,4.8326222,None,,,,,0,1,1,1,15,1,31,1,453.3310638,,,,,,,,,453.3162326,453.4312504,454.2331355,454.2152478,454.2157046,454.2331355,454.2331355,454.2331355,455.2343826,,,,,,,,,,,,,,,,,,,,,,,,,,,,,,right,1,0.9978989,None,,,,sub-219,1,random_dot,59.94334156
right,right,32,0,16,right,1,1.0087476,None,speed,space,4.8326222,None,,,,,0,1,1,1,16,0,32,1,455.2487527,,,,,,,,,455.2349068,455.3492344,456.1509481,456.1337674,456.1342271,456.1509481,456.1509481,456.1509481,457.1687364,,,,,,,,,,,,,,,,,,,,,,,,,,,,,,right,1,1.0087476,None,,,,sub-219,1,random_dot,59.94334156
left,left,33,1,16,left,1,1.1404281,None,speed,space,4.8326222,None,,,,,0,1,1,1,16,1,33,0,457.1837282,,,,,,,,,457.1692372,457.9674298,458.7692638,458.7515036,458.7519319,458.7692638,458.7692638,458.7692638,459.9202814,,,,,,,,,,,,,,,,,,,,,,,,,,,,,,left,1,1.1404281,None,,,,sub-219,1,random_dot,59.94334156
left,left,34,0,17,right,0,1.8831193,None,speed,space,4.8326222,None,,,,,0,1,1,1,17,0,34,0,459.9350569,,,,,,,,,459.9206128,460.035242,460.837686,460.8197506,460.8202398,460.837686,460.837686,460.837686,462.7233567,,,,,,,,,,,,,,,,,,,,,,,,,,,,,,right,0,1.8831193,None,,,,sub-219,1,random_dot,59.94334156
right,right,35,1,17,right,1,1.689967,None,speed,space,4.8326222,None,,,,,0,1,1,1,17,1,35,1,462.7372309,,,,,,,,,462.7238773,462.8377716,463.6397524,463.6218968,463.6223624,463.6397524,463.6397524,463.6397524,465.3411605,,,,,,,,,,,,,,,,,,,,,,,,,,,,,,right,1,1.689967,None,,,,sub-219,1,random_dot,59.94334156
right,right,36,0,18,left,0,1.3914928,None,speed,space,4.8326222,None,,,,,0,1,1,1,18,0,36,1,465.3558649,,,,,,,,,465.3416983,466.5570967,467.3586109,467.3409374,467.3416394,467.3586109,467.3586109,467.3586109,468.7600001,,,,,,,,,,,,,,,,,,,,,,,,,,,,,,left,0,1.3914928,None,,,,sub-219,1,random_dot,59.94334156
left,left,37,1,18,left,1,1.2528397,None,speed,space,4.8326222,None,,,,,0,1,1,1,18,1,37,0,468.7749441,,,,,,,,,468.760505,469.5756018,470.3772033,470.3594981,470.359972,470.3772033,470.3772033,470.3772033,471.645502,,,,,,,,,,,,,,,,,,,,,,,,,,,,,,left,1,1.2528397,None,,,,sub-219,1,random_dot,59.94334156
left,left,38,0,19,right,0,1.1469797,None,speed,space,4.8326222,None,,,,,0,1,1,1,19,0,38,0,471.6602751,,,,,,,,,471.6460131,472.8612315,473.6630447,473.6450325,473.6455587,473.6630447,473.6630447,473.6630447,474.8141193,,,,,,,,,,,,,,,,,,,,,,,,,,,,,,right,0,1.1469797,None,,,,sub-219,1,random_dot,59.94334156
right,right,39,1,19,right,1,0.9386797,None,speed,space,4.8326222,None,,,,,0,1,1,1,19,1,39,1,474.8289638,,,,,,,,,474.8146109,475.6296597,476.4311862,476.4138933,476.4143889,476.4311862,476.4311862,476.4311862,477.3825776,,,,,,,,,,,,,,,,,,,,,,,,,,,,,,right,1,0.9386797,None,,,,sub-219,1,random_dot,59.94334156
left,left,40,0,20,right,0,1.1002606,None,speed,space,4.8326222,None,,,,,0,1,1,1,20,0,40,0,477.397396,,,,,,,,,477.3831159,478.1978857,478.9994685,478.9815484,478.9818451,478.9994685,478.9994685,478.9994685,480.101484,,,,,,,,,,,,,,,,,,,,,,,,,,,,,,right,0,1.1002606,None,,,,sub-219,1,random_dot,59.94334156
right,right,41,1,20,left,0,0.8820399,None,speed,space,4.8326222,None,,,,,0,1,1,1,20,1,41,1,480.1162006,,,,,,,,,480.1019388,480.9167537,481.7184233,481.7007277,481.7011514,481.7184233,481.7184233,481.7184233,482.6029793,,,,,,,,,,,,,,,,,,,,,,,,,,,,,,left,0,0.8820399,None,,,,sub-219,1,random_dot,59.94334156
right,right,42,0,21,left,0,1.1690859,None,speed,space,4.8326222,None,,,,,0,1,1,1,21,0,42,1,482.617898,,,,,,,,,482.6035155,483.8185755,484.6206949,484.6029817,484.6034769,484.6206949,484.6206949,484.6206949,485.8049235,,,,,,,,,,,,,,,,,,,,,,,,,,,,,,left,0,1.1690859,None,,,,sub-219,1,random_dot,59.94334156
left,left,43,1,21,right,0,0.9681022,None,speed,space,4.8326222,None,,,,,0,1,1,1,21,1,43,0,485.8201003,,,,,,,,,485.8053815,486.1705348,486.9720648,486.9544343,486.9549947,486.9720648,486.9720648,486.9720648,487.9569603,,,,,,,,,,,,,,,,,,,,,,,,,,,,,,right,0,0.9681022,None,,,,sub-219,1,random_dot,59.94334156
left,left,44,0,22,right,0,0.9251999,None,speed,space,4.8326222,None,,,,,0,1,1,1,22,0,44,0,487.9713352,,,,,,,,,487.9575297,488.7720123,489.5739858,489.5561062,489.5565788,489.5739858,489.5739858,489.5739858,490.5080887,,,,,,,,,,,,,,,,,,,,,,,,,,,,,,right,0,0.9251999,None,,,,sub-219,1,random_dot,59.94334156
right,right,45,1,22,left,0,1.3550371,None,speed,space,4.8326222,None,,,,,0,1,1,1,22,1,45,1,490.5231112,,,,,,,,,490.5084888,490.6231951,491.4246657,491.4073337,491.4079508,491.4246657,491.4246657,491.4246657,492.7931819,,,,,,,,,,,,,,,,,,,,,,,,,,,,,,left,0,1.3550371,None,,,,sub-219,1,random_dot,59.94334156
right,right,46,0,23,left,0,2.0601533,None,speed,space,4.8326222,None,,,,,0,1,1,1,23,0,46,1,492.8076777,,,,,,,,,492.7937255,493.1587134,493.9601039,493.9424314,493.9429115,493.9601039,493.9601039,493.9601039,496.02918,,,,,,,,,,,,,,,,,,,,,,,,,,,,,,left,0,2.0601533,None,,,,sub-219,1,random_dot,59.94334156
left,left,47,1,23,right,0,0.9333141,None,speed,space,4.8326222,None,,,,,0,1,1,1,23,1,47,0,496.043886,,,,,,,,,496.0296871,497.2445788,498.046646,498.02883,498.0293906,498.046646,498.046646,498.046646,498.9814303,,,,,,,,,,,,,,,,,,,,,,,,,,,,,,right,0,0.9333141,None,,,,sub-219,1,random_dot,59.94334156
right,right,48,0,24,left,0,1.4412261,None,speed,space,4.8326222,None,,,,,0,1,1,1,24,0,48,1,498.9957916,,,,,,,,,498.9819239,500.1965605,500.9984993,500.9809881,500.98148,500.9984993,500.9984993,500.9984993,502.4502054,,,,,,,,,,,,,,,,,,,,,,,,,,,,,,left,0,1.4412261,None,,,,sub-219,1,random_dot,59.94334156
left,left,49,1,24,right,0,1.62212,None,speed,space,4.8326222,None,,,,,0,1,1,1,24,1,49,0,502.4648055,,,,,,,,,502.4507157,503.665797,504.4673487,504.4497315,504.4501911,504.4673487,504.4673487,504.4673487,506.1021676,,,,,,,,,,,,,,,,,,,,,,,,,,,,,,right,0,1.62212,None,,,,sub-219,1,random_dot,59.94334156
left,left,50,0,25,right,0,1.5565479,None,speed,space,4.8326222,None,,,,,0,1,1,1,25,0,50,0,506.1174496,,,,,,,,,506.1026829,507.3014387,508.1033317,508.0856728,508.0861244,508.1033317,508.1033317,508.1033317,509.6715806,,,,,,,,,,,,,,,,,,,,,,,,,,,,,,right,0,1.5565479,None,,,,sub-219,1,random_dot,59.94334156
right,right,51,1,25,left,0,1.6118544,None,speed,space,4.8326222,None,,,,,0,1,1,1,25,1,51,1,509.6865022,,,,,,,,,509.6720454,509.7864507,510.5880028,510.5704637,510.571006,510.5880028,510.5880028,510.5880028,512.2067369,,,,,,,,,,,,,,,,,,,,,,,,,,,,,,left,0,1.6118544,None,,,,sub-219,1,random_dot,59.94334156
right,right,52,0,26,right,1,1.9668218,None,speed,space,4.8326222,None,,,,,0,1,1,1,26,0,52,1,512.2214362,,,,,,,,,512.2072707,512.57161,513.373639,513.3560463,513.3565426,513.373639,513.373639,513.373639,515.3429632,,,,,,,,,,,,,,,,,,,,,,,,,,,,,,right,1,1.9668218,None,,,,sub-219,1,random_dot,59.94334156
left,left,53,1,26,left,1,1.9912425,None,speed,space,4.8326222,None,,,,,0,1,1,1,26,1,53,0,515.3569395,,,,,,,,,515.3434931,515.7075086,516.5091685,516.4913986,516.4918971,516.5091685,516.5091685,516.5091685,518.5109656,,,,,,,,,,,,,,,,,,,,,,,,,,,,,,left,1,1.9912425,None,,,,sub-219,1,random_dot,59.94334156
left,left,54,0,27,right,0,2.6027488,None,speed,space,4.8326222,None,,,,,0,1,1,1,27,0,54,0,518.5253687,,,,,,,,,518.5115318,518.6260505,519.4273901,519.4104113,519.4108979,519.4273901,519.4273901,519.4273901,522.0465149,,,,,,,,,,,,,,,,,,,,,,,,,,,,,,right,0,2.6027488,None,,,,sub-219,1,random_dot,59.94334156
right,right,55,1,27,left,0,2.155818,None,speed,space,4.8326222,None,,,,,0,1,1,1,27,1,55,1,522.0616507,,,,,,,,,522.047063,522.4120883,523.2136059,523.1959179,523.1964967,523.2136059,523.2136059,523.2136059,525.382539,,,,,,,,,,,,,,,,,,,,,,,,,,,,,,left,0,2.155818,None,,,,sub-219,1,random_dot,59.94334156
right,right,56,0,28,right,1,1.7407051,None,speed,space,4.8326222,None,,,,,0,1,1,1,28,0,56,1,525.3972564,,,,,,,,,525.3830899,526.1978778,526.9991814,526.9815399,526.9818386,526.9991814,526.9991814,526.9991814,528.7517921,,,,,,,,,,,,,,,,,,,,,,,,,,,,,,right,1,1.7407051,None,,,,sub-219,1,random_dot,59.94334156
left,left,57,1,28,right,0,1.6213026,None,speed,space,4.8326222,None,,,,,0,1,1,1,28,1,57,0,528.7661695,,,,,,,,,528.7523129,529.5665617,530.3688454,530.3506665,530.3511883,530.3688454,530.3688454,530.3688454,532.0035849,,,,,,,,,,,,,,,,,,,,,,,,,,,,,,right,0,1.6213026,None,,,,sub-219,1,random_dot,59.94334156
right,right,58,0,29,left,0,1.4392305,None,speed,space,4.8326222,None,,,,,0,1,1,1,29,0,58,1,532.0186232,,,,,,,,,532.0041165,532.8192028,533.620726,533.6032574,533.6038319,533.620726,533.620726,533.620726,535.0721428,,,,,,,,,,,,,,,,,,,,,,,,,,,,,,left,0,1.4392305,None,,,,sub-219,1,random_dot,59.94334156
left,left,59,1,29,left,1,1.2802653,None,speed,space,4.8326222,None,,,,,0,1,1,1,29,1,59,0,535.0873975,,,,,,,,,535.0727457,535.88775,536.6898248,536.6721471,536.6726354,536.6898248,536.6898248,536.6898248,537.9740445,,,,,,,,,,,,,,,,,,,,,,,,,,,,,,left,1,1.2802653,None,,,,sub-219,1,random_dot,59.94334156
,,1,1,0,,,,,speed,space,4.8326222,None,,,,,0,1,1,1,,,,,,,,,,,,,,,,,,,,,,,,,,,,,,,,,,,,,,,,,,,,,,,,,,,,,,,,,,,sub-219,1,random_dot,59.94334156
,,,,,,,,,,,,,,,,,,,,,,,,,,,,,,,,,,,,,,,,,,,,,,,,,,,,,,,,,,,,,,,,,,,,,,,,,,,,537.9808852,537.9888249,542.9761621,sub-219,1,random_dot,59.94334156
