direction,corrAns,thisN,thisTrialN,thisRepN,respDots.keys,respDots.corr,respDots.rt,respDots.duration,randomInstr,respRandomInstr.keys,respRandomInstr.rt,respRandomInstr.duration,practice_trials.thisRepN,practice_trials.thisTrialN,practice_trials.thisN,practice_trials.thisIndex,instr_trials.thisRepN,instr_trials.thisTrialN,instr_trials.thisN,instr_trials.thisIndex,test_trials.thisRepN,test_trials.thisTrialN,test_trials.thisN,test_trials.thisIndex,thisRow.t,notes,general_instruction.started,textGeneralInstr.started,respGeneralInstr.started,general_instruction.stopped,respGeneralInstr.keys,respGeneralInstr.rt,respGeneralInstr.duration,ITI.started,fixcross.started,fixcross.stopped,ITI.stopped,dots.started,backgroundDots.started,stimulusDots.started,respDots.started,stimulusDots.stopped,dots.stopped,practice_trials.respDots.keys,practice_trials.respDots.corr,practice_trials.respDots.rt,practice_trials.respDots.duration,feedback.started,textFeedback.started,feedback.stopped,textFeedback.stopped,info.started,textInfo.started,keyRespInfo.started,info.stopped,keyRespInfo.keys,keyRespInfo.rt,keyRespInfo.duration,test_instruction.started,textTestInstr.started,respTestInstr.started,test_instruction.stopped,respTestInstr.keys,respTestInstr.rt,respTestInstr.duration,random_instruction.started,textRandomInstr.started,respRandomInstr.started,random_instruction.stopped,instr_trials.respRandomInstr.keys,instr_trials.respRandomInstr.rt,instr_trials.respRandomInstr.duration,test_trials.respDots.keys,test_trials.respDots.corr,test_trials.respDots.rt,test_trials.respDots.duration,goodbye.started,textGoodbye.started,textGoodbye.stopped,goodbye.stopped,participant,session,expName,frameRate,Unnamed: 88
,,,,,,,,,,,,,,,,,,,,,,,,,,,0.0104049580040737,0.0183743750021676,0.0183743750021676,70.02061112500087,space,69.95597441700374,,,,,,,,,,,,,,,,,,,,,,,,,,,,,,,,,,,,,,,,,,,,,,,,,sub-168,1,random_dot,,
left,left,0.0,0.0,0.0,right,0.0,5.195084750004753,,,,,,0.0,0.0,0.0,0.0,,,,,,,,,70.06705245799822,,,,,,,,,70.0452701250033,70.82873204199859,71.63780141700408,71.61289808300353,71.6134745829986,71.63780141700408,71.63780141700408,71.63780141700408,76.61216387500463,76.83703516700189,right,0.0,5.195084750004753,,76.8458141250012,76.86871375000192,77.34585679200245,,,,,,,,,,,,,,,,,,,,,,,,,,,,,,,sub-168,1,random_dot,,
right,right,1.0,1.0,0.0,left,0.0,2.710472083999776,,,,,,0.0,1.0,1.0,1.0,,,,,,,,,77.35431487500318,,,,,,,,,77.34625579199928,78.53619566700218,79.33862675000273,79.33025833300053,79.33081462499831,79.33862675000273,79.33862675000273,79.33862675000273,,82.05417808300263,left,0.0,2.710472083999776,,82.05429554200236,82.06300920800277,82.54666250000446,82.55253295799776,,,,,,,,,,,,,,,,,,,,,,,,,,,,,,sub-168,1,random_dot,,
left,left,2.0,0.0,1.0,right,0.0,4.907612249997328,,,,,,1.0,0.0,2.0,0.0,,,,,,,,,82.55253295799776,,,,,,,,,82.54704258299898,83.35221250000177,84.14537533299881,84.1354914170006,84.1359683749979,84.14537533299881,84.14537533299881,84.14537533299881,,89.05511991700041,right,0.0,4.907612249997328,,89.05523700000049,89.07918454200262,89.563139124999,,,,,,,,,,,,,,,,,,,,,,,,,,,,,,,sub-168,1,random_dot,,
right,right,3.0,1.0,1.0,right,1.0,7.259619958000258,,,,,,1.0,1.0,3.0,1.0,,,,,,,,,89.57107237500168,,,,,,,,,89.56353462499828,90.75301483300429,91.5543886250016,91.54671162500016,91.54719145800482,91.5543886250016,91.5543886250016,91.5543886250016,96.53512766700442,98.82565737500408,right,1.0,7.259619958000258,,98.83134516700376,98.8377762500022,99.32935900000302,,,,,,,,,,,,,,,,,,,,,,,,,,,,,,,sub-168,1,random_dot,,
right,right,4.0,0.0,2.0,left,0.0,7.177642208996986,,,,,,2.0,0.0,4.0,1.0,,,,,,,,,99.3345627919989,,,,,,,,,99.3297856249992,99.4183599579992,100.21246175000124,100.20299679200252,100.20349295800406,100.21246175000124,100.21246175000124,100.21246175000124,105.19624699999986,107.39859870800136,left,0.0,7.177642208996986,,107.40179533300396,107.4110704170016,107.89724404200388,107.9030059170036,,,,,,,,,,,,,,,,,,,,,,,,,,,,,,sub-168,1,random_dot,,
left,left,5.0,1.0,2.0,left,1.0,6.308073667001736,,,,,,2.0,1.0,5.0,0.0,,,,,,,,,107.9030059170036,,,,,,,,,107.89763545800088,108.24654554200242,109.03870754200034,109.03048362499976,109.03096033300244,109.03870754200034,109.03870754200034,109.03870754200034,114.01880020800309,115.34948454199912,left,1.0,6.308073667001736,,115.3537392080034,115.36279404200468,115.84702970799844,115.85271741700126,,,,,,,,,,,,,,,,,,,,,,,,,,,,,,sub-168,1,random_dot,,
left,left,6.0,0.0,3.0,right,0.0,6.0179333749983925,,,,,,3.0,0.0,6.0,0.0,,,,,,,,,115.85271741700126,,,,,,,,,115.84744329200475,117.04697195799965,117.83934183300153,117.830947208,117.83145683300243,117.83934183300153,117.83934183300153,117.83934183300153,122.82999229199775,123.86573870800204,right,0.0,6.0179333749983925,,123.86882812499972,123.8775829580045,124.36421483300364,124.37019279200469,,,,,,,,,,,,,,,,,,,,,,,,,,,,,,sub-168,1,random_dot,,
right,right,7.0,1.0,3.0,right,1.0,7.793785750000097,,,,,,3.0,1.0,7.0,1.0,,,,,,,,,124.37019279200469,,,,,,,,,124.36466091700277,125.16373712500354,125.9558364580007,125.94764512500116,125.9481142920049,125.9558364580007,125.9558364580007,125.9558364580007,130.94700037500297,133.7550935420004,right,1.0,7.793785750000097,,133.75827112499974,133.76713995799946,134.25358270799916,134.26426812499994,,,,,,,,,,,,,,,,,,,,,,,,,,,,,,sub-168,1,random_dot,,
right,right,8.0,0.0,4.0,left,0.0,6.102009042006102,,,,,,4.0,0.0,8.0,1.0,,,,,,,,,134.26426812499994,,,,,,,,,134.25396275000094,135.45382520800194,136.24678670799767,136.23756779199903,136.23810833300377,136.24678670799767,136.24678670799767,136.24678670799767,141.23051208299876,142.35658787500142,left,0.0,6.102009042006102,,142.36017137500312,142.368439124999,142.85319820800214,142.86421229199914,,,,,,,,,,,,,,,,,,,,,,,,,,,,,,sub-168,1,random_dot,,
left,left,9.0,1.0,4.0,left,1.0,7.184018541003752,,,,,,4.0,1.0,9.0,0.0,,,,,,,,,142.86421229199914,,,,,,,,,142.8535688330012,143.20356862500194,143.99703670800227,143.98682362500404,143.98730516700016,143.99703670800227,143.99703670800227,143.99703670800227,148.98076720799872,151.1835934999981,left,1.0,7.184018541003752,,151.18690079200314,151.19607179200102,151.68203650000214,151.6879587500007,,,,,,,,,,,,,,,,,,,,,,,,,,,,,,sub-168,1,random_dot,,
left,left,10.0,0.0,5.0,left,1.0,6.094444334004948,,,,,,5.0,0.0,10.0,0.0,,,,,,,,,151.6879587500007,,,,,,,,,151.68248737500107,152.88097595800355,153.67360379199818,153.66504841700225,153.6655591250019,153.67360379199818,153.67360379199818,153.67360379199818,158.66437037500145,159.7730485830034,left,1.0,6.094444334004948,,159.7731961669997,159.79792075000296,160.28160758299782,,,,,,,,,,,,,,,,,,,,,,,,,,,,,,,sub-168,1,random_dot,,
right,right,11.0,1.0,5.0,right,1.0,6.353555375004362,,,,,,5.0,1.0,11.0,1.0,,,,,,,,,160.28686320799898,,,,,,,,,160.28199362500163,160.37114716700307,161.1738063330049,161.16563204200065,161.16616062499816,161.1738063330049,161.1738063330049,161.1738063330049,166.16452683300304,167.53390591700008,right,1.0,6.353555375004362,,167.53402325000206,167.54252620800253,168.0322694580027,168.03800562499964,,,,,,,,,,,,,,,,,,,,,,,,,,,,,,sub-168,1,random_dot,,
right,right,12.0,0.0,6.0,right,1.0,6.842575750000833,,,,,,6.0,0.0,12.0,1.0,,,,,,,,,168.03800562499964,,,,,,,,,168.03266024999903,168.3817200420017,169.17358695800067,169.16546762500366,169.16593000000285,169.17358695800067,169.17358695800067,169.17358695800067,174.15415833300358,176.02352091699868,right,1.0,6.842575750000833,,176.02363566699933,176.0319309999977,176.5158035830027,176.52158958300424,,,,,,,,,,,,,,,,,,,,,,,,,,,,,,sub-168,1,random_dot,,
left,left,13.0,1.0,6.0,right,0.0,5.516339041998435,,,,,,6.0,1.0,13.0,0.0,,,,,,,,,176.52158958300424,,,,,,,,,176.51618858300208,176.8715979999979,177.67469008300395,177.66579579200334,177.6662601670032,177.67469008300395,177.67469008300395,177.67469008300395,182.6541674580003,183.20005108300396,right,0.0,5.516339041998435,,183.20344758300047,183.21198600000207,183.6991767080035,183.70485579199885,,,,,,,,,,,,,,,,,,,,,,,,,,,,,,sub-168,1,random_dot,,
left,left,14.0,0.0,7.0,right,0.0,5.858841291999852,,,,,,7.0,0.0,14.0,0.0,,,,,,,,,183.70485579199885,,,,,,,,,183.6995872080006,183.7987321670007,184.59092812499875,184.5826478750023,184.58319525000115,184.59092812499875,184.59092812499875,184.59092812499875,189.58176508299948,190.45642366700488,right,0.0,5.858841291999852,,190.4565537500021,190.46504404200093,190.94951075000424,190.9552394170023,,,,,,,,,,,,,,,,,,,,,,,,,,,,,,sub-168,1,random_dot,,
right,right,15.0,1.0,7.0,left,0.0,7.004502916002821,,,,,,7.0,1.0,15.0,1.0,,,,,,,,,190.9552394170023,,,,,,,,,190.94993787500425,192.1551768330028,192.9578091670046,192.94972450000205,192.9502491250023,192.9578091670046,192.9578091670046,192.9578091670046,197.94876054199997,199.96722691700413,left,0.0,7.004502916002821,,199.96738675000236,199.97626233300247,200.46651220800413,200.47254758299823,,,,,,,,,,,,,,,,,,,,,,,,,,,,,,sub-168,1,random_dot,,
right,right,16.0,0.0,8.0,right,1.0,6.064980208000634,,,,,,8.0,0.0,16.0,1.0,,,,,,,,,200.47254758299823,,,,,,,,,200.46695320800063,200.56583187499928,201.35764587500307,201.34971212500383,201.35018649999984,201.35764587500307,201.35764587500307,201.35764587500307,206.34894741699827,207.43452962500305,right,1.0,6.064980208000634,,207.4379517920024,207.44653070800268,207.93331166700227,207.9389072920021,,,,,,,,,,,,,,,,,,,,,,,,,,,,,,sub-168,1,random_dot,,
left,left,17.0,1.0,8.0,right,0.0,6.258276749998913,,,,,,8.0,1.0,17.0,0.0,,,,,,,,,207.9389072920021,,,,,,,,,207.93372895799985,208.28263170800344,209.0748682920021,209.0665242500036,209.0670294579977,209.0748682920021,209.0748682920021,209.0748682920021,214.0548852080028,215.34195075000025,right,0.0,6.258276749998913,,215.3450635420013,215.35331879200385,215.83872237500327,215.8493180420046,,,,,,,,,,,,,,,,,,,,,,,,,,,,,,sub-168,1,random_dot,,
right,right,18.0,0.0,9.0,left,0.0,6.55707975000405,,,,,,9.0,0.0,18.0,1.0,,,,,,,,,215.8493180420046,,,,,,,,,215.8391145830028,215.93979691700224,216.7324737500021,216.72304716700452,216.72359691699967,216.7324737500021,216.7324737500021,216.7324737500021,221.71598608299973,223.2920362500008,left,0.0,6.55707975000405,,223.29215666700475,223.31598975000088,223.7998214170002,,,,,,,,,,,,,,,,,,,,,,,,,,,,,,,sub-168,1,random_dot,,
left,left,19.0,1.0,9.0,right,0.0,6.677228416003345,,,,,,9.0,1.0,19.0,0.0,,,,,,,,,223.80510479200169,,,,,,,,,223.8002018750049,224.58970237500037,225.39216887499788,225.38390391699795,225.38438620800295,225.39216887499788,225.39216887499788,225.39216887499788,230.38292725000065,232.0745427080037,right,0.0,6.677228416003345,,232.0746625829997,232.0828159169978,232.5670644999991,232.57489733300463,,,,,,,,,,,,,,,,,,,,,,,,,,,,,,sub-168,1,random_dot,,
,,,,,,,,,,,,,,,,,,,,,,,,,,,,,,,,,,,,,,,,,,,,,,,,,,,,232.56723929200237,232.57489733300463,232.57489733300463,251.77564254200115,space,19.192685958005317,,,,,,,,,,,,,,,,,,,,,,,,sub-168,1,random_dot,,
,,,,,,,,,,,,,,,,,,,,,,,,,,,,,,,,,,,,,,,,,,,,,,,,,,,,,,,,,,,251.7757250420036,251.78706270800467,251.78706270800467,282.22052079199784,space,30.41992016699805,,,,,,,,,,,,,,,,,sub-168,1,random_dot,,
left,left,0.0,0.0,0.0,left,1.0,6.143804334002198,,accuracy,space,6.1843795829991,,,,,,0.0,0.0,0.0,0.0,0.0,0.0,0.0,0.0,288.45482712500234,,,,,,,,,288.4459004579985,288.78475495800376,289.5773812500047,289.5687832920012,289.5693281249987,289.5773812500047,289.5773812500047,289.5773812500047,294.5679762500004,295.7270811249982,,,,,,,,,,,,,,,,,,,,,,,282.2334910830032,282.2413280000037,282.2413280000037,288.43704341699777,space,6.1843795829991,,left,1.0,6.143804334002198,,,,,,sub-168,1,random_dot,,
right,right,1.0,1.0,0.0,right,1.0,5.592592875000264,,accuracy,space,6.1843795829991,,,,,,0.0,0.0,0.0,0.0,0.0,1.0,1.0,1.0,295.75139187500463,,,,,,,,,295.7275022079993,296.9248742080017,297.71770591699897,297.70812750000186,297.70863287500106,297.71770591699897,297.71770591699897,297.71770591699897,302.7014308750004,303.3200903329998,,,,,,,,,,,,,,,,,,,,,,,,,,,,,,right,1.0,5.592592875000264,,,,,,sub-168,1,random_dot,,
right,right,2.0,0.0,1.0,right,1.0,8.13970045899623,,accuracy,space,6.1843795829991,,,,,,0.0,0.0,0.0,0.0,1.0,0.0,2.0,1.0,303.3287735000049,,,,,,,,,303.3205682500047,303.6684861670001,304.4601380000022,304.4522893329995,304.45279029200174,304.4601380000022,304.4601380000022,304.4601380000022,309.440704749999,312.6041790419986,,,,,,,,,,,,,,,,,,,,,,,,,,,,,,right,1.0,8.13970045899623,,,,,,sub-168,1,random_dot,,
left,left,3.0,1.0,1.0,left,1.0,6.180051582996384,,accuracy,space,6.1843795829991,,,,,,0.0,0.0,0.0,0.0,1.0,1.0,3.0,0.0,312.6132089579987,,,,,,,,,312.6047382079996,313.80221279200487,314.59407516699866,314.5860575420011,314.58655037500284,314.59407516699866,314.59407516699866,314.59407516699866,319.5748469169994,320.77679570799955,,,,,,,,,,,,,,,,,,,,,,,,,,,,,,left,1.0,6.180051582996384,,,,,,sub-168,1,random_dot,,
left,left,4.0,0.0,2.0,left,1.0,6.470795791996352,,accuracy,space,6.1843795829991,,,,,,0.0,0.0,0.0,0.0,2.0,0.0,4.0,0.0,320.78534033300093,,,,,,,,,320.77722058300424,321.9756769579981,322.77741575000255,322.7694722079977,322.7699351670017,322.77741575000255,322.77741575000255,322.77741575000255,327.757866042004,329.25459670800046,,,,,,,,,,,,,,,,,,,,,,,,,,,,,,left,1.0,6.470795791996352,,,,,,sub-168,1,random_dot,,
right,right,5.0,1.0,2.0,right,1.0,5.769168332997651,,accuracy,space,6.1843795829991,,,,,,0.0,0.0,0.0,0.0,2.0,1.0,5.0,1.0,329.263495332998,,,,,,,,,329.2551304580047,329.3523019999993,330.14458433300024,330.1362563750008,330.1367972500011,330.14458433300024,330.14458433300024,330.14458433300024,335.1248357500008,335.9208728329977,,,,,,,,,,,,,,,,,,,,,,,,,,,,,,right,1.0,5.769168332997651,,,,,,sub-168,1,random_dot,,
right,right,6.0,0.0,3.0,right,1.0,6.443032542003493,,accuracy,space,6.1843795829991,,,,,,0.0,0.0,0.0,0.0,3.0,0.0,6.0,1.0,335.92950295800256,,,,,,,,,335.92131283300114,336.26945216699824,337.06141745800414,337.05326420799975,337.05373283300287,337.06141745800414,337.06141745800414,337.06141745800414,342.0415703750041,343.51167841700226,,,,,,,,,,,,,,,,,,,,,,,,,,,,,,right,1.0,6.443032542003493,,,,,,sub-168,1,random_dot,,
left,left,7.0,1.0,3.0,right,0.0,7.652074042001914,,accuracy,space,6.1843795829991,,,,,,0.0,0.0,0.0,0.0,3.0,1.0,7.0,0.0,343.53599908300384,,,,,,,,,343.51210320799873,343.6094477919978,344.4022445829978,344.3922189170044,344.3926304580018,344.4022445829978,344.4022445829978,344.4022445829978,349.3859561249992,352.06181520799873,,,,,,,,,,,,,,,,,,,,,,,,,,,,,,right,0.0,7.652074042001914,,,,,,sub-168,1,random_dot,,
right,right,8.0,0.0,4.0,left,0.0,7.477373791996797,,accuracy,space,6.1843795829991,,,,,,0.0,0.0,0.0,0.0,4.0,0.0,8.0,1.0,352.0865462080037,,,,,,,,,352.0623373330018,352.15950537499884,352.9518037919988,352.94369658300275,352.94419975000346,352.9518037919988,352.9518037919988,352.9518037919988,357.93618929199874,360.4383441669997,,,,,,,,,,,,,,,,,,,,,,,,,,,,,,left,0.0,7.477373791996797,,,,,,sub-168,1,random_dot,,
left,left,9.0,1.0,4.0,left,1.0,6.920171750003647,,accuracy,space,6.1843795829991,,,,,,0.0,0.0,0.0,0.0,4.0,1.0,9.0,0.0,360.4469881250043,,,,,,,,,360.4388887919995,361.2364516669986,362.02884483300295,362.0205710000009,362.0211001670032,362.02884483300295,362.02884483300295,362.02884483300295,367.00881570800266,368.95468704200175,,,,,,,,,,,,,,,,,,,,,,,,,,,,,,left,1.0,6.920171750003647,,,,,,sub-168,1,random_dot,,
left,left,10.0,0.0,5.0,left,1.0,6.6614945419933065,,accuracy,space,6.1843795829991,,,,,,0.0,0.0,0.0,0.0,5.0,0.0,10.0,0.0,368.9610751670043,,,,,,,,,368.954885500003,369.74421558299946,370.5451388330039,370.5373256250023,370.5378662920048,370.5451388330039,370.5451388330039,370.5451388330039,375.5257640420023,377.2123082079997,,,,,,,,,,,,,,,,,,,,,,,,,,,,,,left,1.0,6.6614945419933065,,,,,,sub-168,1,random_dot,,
right,right,11.0,1.0,5.0,right,1.0,7.218562583999301,,accuracy,space,6.1843795829991,,,,,,0.0,0.0,0.0,0.0,5.0,1.0,11.0,1.0,377.2366987499991,,,,,,,,,377.21276679199946,378.0100120420029,378.8031291250009,378.7929935420034,378.7934557080007,378.8031291250009,378.8031291250009,378.8031291250009,383.7869822920038,386.0281724169981,,,,,,,,,,,,,,,,,,,,,,,,,,,,,,right,1.0,7.218562583999301,,,,,,sub-168,1,random_dot,,
right,right,12.0,0.0,6.0,right,1.0,7.310821416998806,,accuracy,space,6.1843795829991,,,,,,0.0,0.0,0.0,0.0,6.0,0.0,12.0,1.0,386.0362938750041,,,,,,,,,386.0285949579993,386.82728962499823,387.6293139170011,387.621184292002,387.6216580420005,387.6293139170011,387.6293139170011,387.6293139170011,392.620512458001,394.94557308300136,,,,,,,,,,,,,,,,,,,,,,,,,,,,,,right,1.0,7.310821416998806,,,,,,sub-168,1,random_dot,,
left,left,13.0,1.0,6.0,right,0.0,6.980309667000256,,accuracy,space,6.1843795829991,,,,,,0.0,0.0,0.0,0.0,6.0,1.0,13.0,0.0,394.95381520799856,,,,,,,,,394.9460048750043,395.0445595830024,395.84637849999854,395.8380473330035,395.8385561250034,395.84637849999854,395.84637849999854,395.84637849999854,400.82648066699767,402.83025525000266,,,,,,,,,,,,,,,,,,,,,,,,,,,,,,right,0.0,6.980309667000256,,,,,,sub-168,1,random_dot,,
right,right,14.0,0.0,7.0,right,1.0,5.907875541997782,,accuracy,space,6.1843795829991,,,,,,0.0,0.0,0.0,0.0,7.0,0.0,14.0,1.0,402.8396338329985,,,,,,,,,402.8308045829981,403.626723207999,404.4297773750004,404.42190791699977,404.4224913330036,404.4297773750004,404.4297773750004,404.4297773750004,409.42095462499856,410.34028124999895,,,,,,,,,,,,,,,,,,,,,,,,,,,,,,right,1.0,5.907875541997782,,,,,,sub-168,1,random_dot,,
left,left,15.0,1.0,7.0,left,1.0,6.865653708002355,,accuracy,space,6.1843795829991,,,,,,0.0,0.0,0.0,0.0,7.0,1.0,15.0,0.0,410.34889258300245,,,,,,,,,410.3408293329994,410.437792417004,411.2296448749985,411.22158283300087,411.2220667920046,411.2296448749985,411.2296448749985,411.2296448749985,416.2100727500001,418.10669120799867,,,,,,,,,,,,,,,,,,,,,,,,,,,,,,left,1.0,6.865653708002355,,,,,,sub-168,1,random_dot,,
left,left,16.0,0.0,8.0,right,0.0,6.8083454170046025,,accuracy,space,6.1843795829991,,,,,,0.0,0.0,0.0,0.0,8.0,0.0,16.0,0.0,418.1153259170024,,,,,,,,,418.1072328330047,418.90475279200473,419.696841500001,419.6888039580008,419.6892857920029,419.696841500001,419.696841500001,419.696841500001,424.6879483330049,426.5135312920029,,,,,,,,,,,,,,,,,,,,,,,,,,,,,,right,0.0,6.8083454170046025,,,,,,sub-168,1,random_dot,,
right,right,17.0,1.0,8.0,right,1.0,6.638178834000428,,accuracy,space,6.1843795829991,,,,,,0.0,0.0,0.0,0.0,8.0,1.0,17.0,1.0,426.521947375004,,,,,,,,,426.5139553330009,426.6118692079981,427.413651750001,427.4057123329985,427.40619162499934,427.413651750001,427.413651750001,427.413651750001,432.4048403330016,434.0570034999983,,,,,,,,,,,,,,,,,,,,,,,,,,,,,,right,1.0,6.638178834000428,,,,,,sub-168,1,random_dot,,
right,right,18.0,0.0,9.0,left,0.0,6.275200332995155,,accuracy,space,6.1843795829991,,,,,,0.0,0.0,0.0,0.0,9.0,0.0,18.0,1.0,434.0657653329981,,,,,,,,,434.057566042,435.2552447499984,436.04738024999824,436.039153042002,436.039649958002,436.04738024999824,436.04738024999824,436.04738024999824,441.0383544580036,442.33430249999947,,,,,,,,,,,,,,,,,,,,,,,,,,,,,,left,0.0,6.275200332995155,,,,,,sub-168,1,random_dot,,
left,left,19.0,1.0,9.0,right,0.0,5.469343333999859,,accuracy,space,6.1843795829991,,,,,,0.0,0.0,0.0,0.0,9.0,1.0,19.0,0.0,442.3396693750037,,,,,,,,,442.3347328329983,443.5290038750027,444.33110041700274,444.3226513749978,444.3231951670023,444.33110041700274,444.33110041700274,444.33110041700274,449.3108920829982,449.80752783299977,,,,,,,,,,,,,,,,,,,,,,,,,,,,,,right,0.0,5.469343333999859,,,,,,sub-168,1,random_dot,,
left,left,20.0,0.0,10.0,left,1.0,6.182492790998367,,accuracy,space,6.1843795829991,,,,,,0.0,0.0,0.0,0.0,10.0,0.0,20.0,0.0,449.8164655830042,,,,,,,,,449.8081910420005,450.15548704200046,450.9475954580048,450.9393904169992,450.93985216700094,450.9475954580048,450.9475954580048,450.9475954580048,455.92774612500216,457.1409395419978,,,,,,,,,,,,,,,,,,,,,,,,,,,,,,left,1.0,6.182492790998367,,,,,,sub-168,1,random_dot,,
right,right,21.0,1.0,10.0,right,1.0,5.79181595800037,,accuracy,space,6.1843795829991,,,,,,0.0,0.0,0.0,0.0,10.0,1.0,21.0,1.0,457.1495842500008,,,,,,,,,457.1414710000026,457.488953125001,458.2810979999995,458.2729974169997,458.273458292002,458.2810979999995,458.2810979999995,458.2810979999995,463.26157675000286,464.0755450420038,,,,,,,,,,,,,,,,,,,,,,,,,,,,,,right,1.0,5.79181595800037,,,,,,sub-168,1,random_dot,,
right,right,22.0,0.0,11.0,left,0.0,6.280019959005585,,accuracy,space,6.1843795829991,,,,,,0.0,0.0,0.0,0.0,11.0,0.0,22.0,1.0,464.084015667002,,,,,,,,,464.0759858750025,465.2724487919986,466.0648307080046,466.0564577500045,466.0569798330034,466.0648307080046,466.0648307080046,466.0648307080046,471.0454046669984,472.3474795000002,,,,,,,,,,,,,,,,,,,,,,,,,,,,,,left,0.0,6.280019959005585,,,,,,sub-168,1,random_dot,,
left,left,23.0,1.0,11.0,right,0.0,6.096727374999318,,accuracy,space,6.1843795829991,,,,,,0.0,0.0,0.0,0.0,11.0,1.0,23.0,0.0,472.355916958004,,,,,,,,,472.3479227920034,473.1450925419995,473.9388426670048,473.9290164999984,473.9294971670024,473.9388426670048,473.9388426670048,473.9388426670048,478.9224916250023,480.04185524999775,,,,,,,,,,,,,,,,,,,,,,,,,,,,,,right,0.0,6.096727374999318,,,,,,sub-168,1,random_dot,,
left,left,24.0,0.0,12.0,left,1.0,6.427566250000382,,accuracy,space,6.1843795829991,,,,,,0.0,0.0,0.0,0.0,12.0,0.0,24.0,0.0,480.0508832920023,,,,,,,,,480.0425010420004,480.839719292002,481.6323862920035,481.62384104200464,481.62438487500185,481.6323862920035,481.6323862920035,481.6323862920035,486.6228810419998,488.0646200830015,,,,,,,,,,,,,,,,,,,,,,,,,,,,,,left,1.0,6.427566250000382,,,,,,sub-168,1,random_dot,,
right,right,25.0,1.0,12.0,left,0.0,5.788509458994668,,accuracy,space,6.1843795829991,,,,,,0.0,0.0,0.0,0.0,12.0,1.0,25.0,1.0,488.0729465830009,,,,,,,,,488.06505099999777,489.2621944999992,490.0559269580044,490.0458067080035,490.0463264999999,490.0559269580044,490.0559269580044,490.0559269580044,495.0397012079993,495.8480305000048,,,,,,,,,,,,,,,,,,,,,,,,,,,,,,left,0.0,5.788509458994668,,,,,,sub-168,1,random_dot,,
left,left,26.0,0.0,13.0,left,1.0,5.6573472079981,,accuracy,space,6.1843795829991,,,,,,0.0,0.0,0.0,0.0,13.0,0.0,26.0,0.0,495.85622720800166,,,,,,,,,495.8484533750016,496.1965464169989,496.9995387500021,496.990858833,496.9914633750013,496.9995387500021,496.9995387500021,496.9995387500021,501.98991604200273,502.65950449999946,,,,,,,,,,,,,,,,,,,,,,,,,,,,,,left,1.0,5.6573472079981,,,,,,sub-168,1,random_dot,,
right,right,27.0,1.0,13.0,right,1.0,6.591099208999367,,accuracy,space,6.1843795829991,,,,,,0.0,0.0,0.0,0.0,13.0,1.0,27.0,1.0,502.667976333003,,,,,,,,,502.6599487499989,502.7566916249998,503.5486900420001,503.5408307500038,503.5413047500042,503.5486900420001,503.5486900420001,503.5486900420001,508.5400362920045,510.1421072080048,,,,,,,,,,,,,,,,,,,,,,,,,,,,,,right,1.0,6.591099208999367,,,,,,sub-168,1,random_dot,,
right,right,28.0,0.0,14.0,right,1.0,6.817419875005726,,accuracy,space,6.1843795829991,,,,,,0.0,0.0,0.0,0.0,14.0,0.0,28.0,1.0,510.1502908330003,,,,,,,,,510.14254258300207,511.34051116699993,512.1326784170014,512.1245047499979,512.1249739170016,512.1326784170014,512.1326784170014,512.1326784170014,517.123660917001,518.9587559170031,,,,,,,,,,,,,,,,,,,,,,,,,,,,,,right,1.0,6.817419875005726,,,,,,sub-168,1,random_dot,,
left,left,29.0,1.0,14.0,left,1.0,7.750889082999492,,accuracy,space,6.1843795829991,,,,,,0.0,0.0,0.0,0.0,14.0,1.0,29.0,0.0,518.9672861250001,,,,,,,,,518.9592309170039,519.3074494169996,520.0988076670037,520.0910262079997,520.0915220000024,520.0988076670037,520.0988076670037,520.0988076670037,525.0804403330039,527.8594972499995,,,,,,,,,,,,,,,,,,,,,,,,,,,,,,left,1.0,7.750889082999492,,,,,,sub-168,1,random_dot,,
right,right,30.0,0.0,15.0,left,0.0,6.215670500001579,,accuracy,space,6.1843795829991,,,,,,0.0,0.0,0.0,0.0,15.0,0.0,30.0,1.0,527.8681435420003,,,,,,,,,527.8600439580041,528.2077181670029,528.9993482499995,528.9914932500033,528.9919649170042,528.9993482499995,528.9993482499995,528.9993482499995,533.9906039580019,535.2418414999993,,,,,,,,,,,,,,,,,,,,,,,,,,,,,,left,0.0,6.215670500001579,,,,,,sub-168,1,random_dot,,
left,left,31.0,1.0,15.0,right,0.0,6.282175541993638,,accuracy,space,6.1843795829991,,,,,,0.0,0.0,0.0,0.0,15.0,1.0,31.0,0.0,535.2579016669988,,,,,,,,,535.2423879999988,535.3310682919982,536.1330741670026,536.1250412080044,536.1255024580023,536.1330741670026,536.1330741670026,536.1330741670026,541.1131357920021,542.4265252500045,,,,,,,,,,,,,,,,,,,,,,,,,,,,,,right,0.0,6.282175541993638,,,,,,sub-168,1,random_dot,,
left,left,32.0,0.0,16.0,left,1.0,6.4421766250015935,,accuracy,space,6.1843795829991,,,,,,0.0,0.0,0.0,0.0,16.0,0.0,32.0,0.0,542.435174708,,,,,,,,,542.4270761669977,542.7745062500035,543.5668211250013,543.5586266669998,543.5591739579977,543.5668211250013,543.5668211250013,543.5668211250013,548.5577408750032,550.0151778750005,,,,,,,,,,,,,,,,,,,,,,,,,,,,,,left,1.0,6.4421766250015935,,,,,,sub-168,1,random_dot,,
right,right,33.0,1.0,16.0,right,1.0,5.522056540998165,,accuracy,space,6.1843795829991,,,,,,0.0,0.0,0.0,0.0,16.0,1.0,33.0,1.0,550.024521667001,,,,,,,,,550.0155945000006,550.3647319169977,551.1575277500015,551.1479535830003,551.1484383749994,551.1575277500015,551.1575277500015,551.1575277500015,556.141232957998,556.6833110000007,,,,,,,,,,,,,,,,,,,,,,,,,,,,,,right,1.0,5.522056540998165,,,,,,sub-168,1,random_dot,,
right,right,34.0,0.0,17.0,right,1.0,7.850541416999476,,accuracy,space,6.1843795829991,,,,,,0.0,0.0,0.0,0.0,17.0,0.0,34.0,1.0,556.6918390830033,,,,,,,,,556.6838712919998,556.7816076669988,557.5743452079987,557.5651855000033,557.5656417080027,557.5743452079987,557.5743452079987,557.5743452079987,562.5580448330002,565.427664750001,,,,,,,,,,,,,,,,,,,,,,,,,,,,,,right,1.0,7.850541416999476,,,,,,sub-168,1,random_dot,,
left,left,35.0,1.0,17.0,left,1.0,5.896606000002066,,accuracy,space,6.1843795829991,,,,,,0.0,0.0,0.0,0.0,17.0,1.0,35.0,0.0,565.4366376250036,,,,,,,,,565.4283795419979,565.5252450830012,566.3174686249986,566.309034124999,566.309526750003,566.3174686249986,566.3174686249986,566.3174686249986,571.3082122920023,572.2165687500019,,,,,,,,,,,,,,,,,,,,,,,,,,,,,,left,1.0,5.896606000002066,,,,,,sub-168,1,random_dot,,
right,right,36.0,0.0,18.0,right,1.0,6.511533500000951,,accuracy,space,6.1843795829991,,,,,,0.0,0.0,0.0,0.0,18.0,0.0,36.0,1.0,572.2247422080036,,,,,,,,,572.2169851670042,572.5650917919993,573.3678109579996,573.3593850830002,573.3598791250042,573.3678109579996,573.3678109579996,573.3678109579996,578.3584652920035,579.8840494169999,,,,,,,,,,,,,,,,,,,,,,,,,,,,,,right,1.0,6.511533500000951,,,,,,sub-168,1,random_dot,,
left,left,37.0,1.0,18.0,left,1.0,6.258001875001355,,accuracy,space,6.1843795829991,,,,,,0.0,0.0,0.0,0.0,18.0,1.0,37.0,0.0,579.9084841250005,,,,,,,,,579.8845737500014,580.6820023750042,581.4840900830022,581.476056749998,581.4765436250018,581.4840900830022,581.4840900830022,581.4840900830022,586.4646412080037,587.7447639579987,,,,,,,,,,,,,,,,,,,,,,,,,,,,,,left,1.0,6.258001875001355,,,,,,sub-168,1,random_dot,,
left,left,38.0,0.0,19.0,left,1.0,5.826077582998551,,accuracy,space,6.1843795829991,,,,,,0.0,0.0,0.0,0.0,19.0,0.0,38.0,0.0,587.7533212080016,,,,,,,,,587.7452988330042,587.8420978330032,588.6343637500031,588.6263436669979,588.6268319580049,588.6343637500031,588.6343637500031,588.6343637500031,593.6255029579988,594.468139208002,,,,,,,,,,,,,,,,,,,,,,,,,,,,,,left,1.0,5.826077582998551,,,,,,sub-168,1,random_dot,,
right,right,39.0,1.0,19.0,right,1.0,6.067482541999198,,accuracy,space,6.1843795829991,,,,,,0.0,0.0,0.0,0.0,19.0,1.0,39.0,1.0,594.4776779579988,,,,,,,,,594.4686912500038,595.6654763750048,596.4586673329977,596.4496221669979,596.4501161669978,596.4586673329977,596.4586673329977,596.4586673329977,601.4424271669996,602.5288496670037,,,,,,,,,,,,,,,,,,,,,,,,,,,,,,right,1.0,6.067482541999198,,,,,,sub-168,1,random_dot,,
right,right,40.0,0.0,20.0,right,1.0,5.65906383300171,,accuracy,space,6.1843795829991,,,,,,0.0,0.0,0.0,0.0,20.0,0.0,40.0,1.0,602.537362957999,,,,,,,,,602.5293075419977,603.3260070830001,604.1181492079995,604.1100839170031,604.1105407499999,604.1181492079995,604.1181492079995,604.1181492079995,609.108060999999,609.784533625003,,,,,,,,,,,,,,,,,,,,,,,,,,,,,,right,1.0,5.65906383300171,,,,,,sub-168,1,random_dot,,
left,left,41.0,1.0,20.0,left,1.0,6.186287832999369,,accuracy,space,6.1843795829991,,,,,,0.0,0.0,0.0,0.0,20.0,1.0,41.0,0.0,609.8091903329987,,,,,,,,,609.7850847500013,610.1327394580003,610.9351218750016,610.9270396670036,610.9275720830046,610.9351218750016,610.9351218750016,610.9351218750016,615.9261064169987,617.1284627920031,,,,,,,,,,,,,,,,,,,,,,,,,,,,,,left,1.0,6.186287832999369,,,,,,sub-168,1,random_dot,,
right,right,42.0,0.0,21.0,right,1.0,6.471623790996091,,accuracy,space,6.1843795829991,,,,,,0.0,0.0,0.0,0.0,21.0,0.0,42.0,1.0,617.1368622500013,,,,,,,,,617.1289012499983,618.3264974170015,619.1184402500003,619.1103893750042,619.1108631669995,619.1184402500003,619.1184402500003,619.1184402500003,624.109667333003,625.5951918749997,,,,,,,,,,,,,,,,,,,,,,,,,,,,,,right,1.0,6.471623790996091,,,,,,sub-168,1,random_dot,,
left,left,43.0,1.0,21.0,left,1.0,6.334820500000205,,accuracy,space,6.1843795829991,,,,,,0.0,0.0,0.0,0.0,21.0,1.0,43.0,0.0,625.6036867080038,,,,,,,,,625.5957242920049,625.943277958002,626.7354558750012,626.727170750004,626.7276469580029,626.7354558750012,626.7354558750012,626.7354558750012,631.7264165000015,633.0785794580006,,,,,,,,,,,,,,,,,,,,,,,,,,,,,,left,1.0,6.334820500000205,,,,,,sub-168,1,random_dot,,
left,left,44.0,0.0,22.0,left,1.0,6.175376167004288,,accuracy,space,6.1843795829991,,,,,,0.0,0.0,0.0,0.0,22.0,0.0,44.0,0.0,633.0850578750033,,,,,,,,,633.0788378750003,633.8769935419987,634.6686396670048,634.6607626670011,634.661277500003,634.6686396670048,634.6686396670048,634.6686396670048,639.6598819580031,640.8466449999978,,,,,,,,,,,,,,,,,,,,,,,,,,,,,,left,1.0,6.175376167004288,,,,,,sub-168,1,random_dot,,
right,right,45.0,1.0,22.0,right,1.0,5.808882166005787,,accuracy,space,6.1843795829991,,,,,,0.0,0.0,0.0,0.0,22.0,1.0,45.0,1.0,640.8552997919978,,,,,,,,,640.8472353329998,641.1937292920047,641.985950000002,641.9778295420037,641.9783093750011,641.985950000002,641.985950000002,641.985950000002,646.9769780420029,647.8018984170048,,,,,,,,,,,,,,,,,,,,,,,,,,,,,,right,1.0,5.808882166005787,,,,,,sub-168,1,random_dot,,
right,right,46.0,0.0,23.0,right,1.0,5.681690750003327,,accuracy,space,6.1843795829991,,,,,,0.0,0.0,0.0,0.0,23.0,0.0,46.0,1.0,647.8102215830004,,,,,,,,,647.8024544170039,648.1501945420023,648.9525169999979,648.9444999999978,648.9449976250035,648.9525169999979,648.9525169999979,648.9525169999979,653.9325427500007,654.636657916999,,,,,,,,,,,,,,,,,,,,,,,,,,,,,,right,1.0,5.681690750003327,,,,,,sub-168,1,random_dot,,
left,left,47.0,1.0,23.0,left,1.0,6.051010125003813,,accuracy,space,6.1843795829991,,,,,,0.0,0.0,0.0,0.0,23.0,1.0,47.0,0.0,654.645699749999,,,,,,,,,654.6371004579996,655.4339647919987,656.2360112919996,656.2279629170007,656.2284480419985,656.2360112919996,656.2360112919996,656.2360112919996,661.216102792001,662.2956314170005,,,,,,,,,,,,,,,,,,,,,,,,,,,,,,left,1.0,6.051010125003813,,,,,,sub-168,1,random_dot,,
right,right,48.0,0.0,24.0,right,1.0,5.594180416999734,,accuracy,space,6.1843795829991,,,,,,0.0,0.0,0.0,0.0,24.0,0.0,48.0,1.0,662.3040617919978,,,,,,,,,662.2960617920035,663.0944126250033,663.8861445420043,663.8779802080026,663.8784695420036,663.8861445420043,663.8861445420043,663.8861445420043,668.8663600420041,669.4863572920003,,,,,,,,,,,,,,,,,,,,,,,,,,,,,,right,1.0,5.594180416999734,,,,,,sub-168,1,random_dot,,
left,left,49.0,1.0,24.0,right,0.0,6.441462458002206,,accuracy,space,6.1843795829991,,,,,,0.0,0.0,0.0,0.0,24.0,1.0,49.0,0.0,669.4947182500036,,,,,,,,,669.486773208002,669.5848171250036,670.3860251250007,670.3783467079993,670.3788202920041,670.3860251250007,670.3860251250007,670.3860251250007,675.3774830830007,676.829831916999,,,,,,,,,,,,,,,,,,,,,,,,,,,,,,right,0.0,6.441462458002206,,,,,,sub-168,1,random_dot,,
right,right,50.0,0.0,25.0,left,0.0,6.496392042005027,,accuracy,space,6.1843795829991,,,,,,0.0,0.0,0.0,0.0,25.0,0.0,50.0,1.0,676.835750708,,,,,,,,,676.8302518749988,677.6279790420012,678.4198696250023,678.4118049169992,678.4122588329992,678.4198696250023,678.4198696250023,678.4198696250023,683.4000299580002,684.9189485829993,,,,,,,,,,,,,,,,,,,,,,,,,,,,,,left,0.0,6.496392042005027,,,,,,sub-168,1,random_dot,,
left,left,51.0,1.0,25.0,left,1.0,7.710798250001972,,accuracy,space,6.1843795829991,,,,,,0.0,0.0,0.0,0.0,25.0,1.0,51.0,0.0,684.9273042080022,,,,,,,,,684.9193568749979,685.7181493750031,686.5101657920022,686.5016970420038,686.5021849580007,686.5101657920022,686.5101657920022,686.5101657920022,691.4945297919985,694.2298622079979,,,,,,,,,,,,,,,,,,,,,,,,,,,,,,left,1.0,7.710798250001972,,,,,,sub-168,1,random_dot,,
left,left,52.0,0.0,26.0,right,0.0,7.650104250002187,,accuracy,space,6.1843795829991,,,,,,0.0,0.0,0.0,0.0,26.0,0.0,52.0,0.0,694.2382042919999,,,,,,,,,694.2303110830035,694.5784248749987,695.3705404170032,695.3621883329979,695.362674750002,695.3705404170032,695.3705404170032,695.3705404170032,700.3506264579992,703.0306196250021,,,,,,,,,,,,,,,,,,,,,,,,,,,,,,right,0.0,7.650104250002187,,,,,,sub-168,1,random_dot,,
right,right,53.0,1.0,26.0,right,1.0,5.691901500002132,,accuracy,space,6.1843795829991,,,,,,0.0,0.0,0.0,0.0,26.0,1.0,53.0,1.0,703.0395777500016,,,,,,,,,703.0311512500048,703.3786287080002,704.1707304579977,704.162642000003,704.1631832920029,704.1707304579977,704.1707304579977,704.1707304579977,709.1617488330012,709.8742142920019,,,,,,,,,,,,,,,,,,,,,,,,,,,,,,right,1.0,5.691901500002132,,,,,,sub-168,1,random_dot,,
right,right,54.0,0.0,27.0,left,0.0,5.929126499999256,,accuracy,space,6.1843795829991,,,,,,0.0,0.0,0.0,0.0,27.0,0.0,54.0,1.0,709.8805547080046,,,,,,,,,709.8746348330023,711.0681731250006,711.8613609579988,711.8529464169987,711.8534153750006,711.8613609579988,711.8613609579988,711.8613609579988,716.8507650000029,717.7973752920007,,,,,,,,,,,,,,,,,,,,,,,,,,,,,,left,0.0,5.929126499999256,,,,,,sub-168,1,random_dot,,
left,left,55.0,1.0,27.0,left,1.0,7.427550583000993,,accuracy,space,6.1843795829991,,,,,,0.0,0.0,0.0,0.0,27.0,1.0,55.0,0.0,717.8057085830005,,,,,,,,,717.797810875003,718.995714208002,719.7879864580027,719.7797167919998,719.7802632919993,719.7879864580027,719.7879864580027,719.7879864580027,724.7787477500024,727.220489416999,,,,,,,,,,,,,,,,,,,,,,,,,,,,,,left,1.0,7.427550583000993,,,,,,sub-168,1,random_dot,,
right,right,56.0,0.0,28.0,right,1.0,5.761510374999489,,accuracy,space,6.1843795829991,,,,,,0.0,0.0,0.0,0.0,28.0,0.0,56.0,1.0,727.228968125004,,,,,,,,,727.2209080419998,728.0191355420029,728.8217034580011,728.8132095420005,728.8136816250044,728.8217034580011,728.8217034580011,728.8217034580011,733.8122451250019,734.5878429170043,,,,,,,,,,,,,,,,,,,,,,,,,,,,,,right,1.0,5.761510374999489,,,,,,sub-168,1,random_dot,,
left,left,57.0,1.0,28.0,right,0.0,6.945875375000469,,accuracy,space,6.1843795829991,,,,,,0.0,0.0,0.0,0.0,28.0,1.0,57.0,0.0,734.5957056250045,,,,,,,,,734.5882561250037,734.9355003329983,735.7281457080026,735.7198173330034,735.7203181250006,735.7281457080026,735.7281457080026,735.7281457080026,740.7124676669991,742.6817983750007,,,,,,,,,,,,,,,,,,,,,,,,,,,,,,right,0.0,6.945875375000469,,,,,,sub-168,1,random_dot,,
left,left,58.0,0.0,29.0,right,0.0,5.759379583003465,,accuracy,space,6.1843795829991,,,,,,0.0,0.0,0.0,0.0,29.0,0.0,58.0,0.0,742.691249208001,,,,,,,,,742.6825046669983,743.4796167919994,744.2719084580021,744.2636244169989,744.2641234170005,744.2719084580021,744.2719084580021,744.2719084580021,749.2627461669981,750.0375617500031,,,,,,,,,,,,,,,,,,,,,,,,,,,,,,right,0.0,5.759379583003465,,,,,,sub-168,1,random_dot,,
right,right,59.0,1.0,29.0,left,0.0,6.191373875000863,,accuracy,space,6.1843795829991,,,,,,0.0,0.0,0.0,0.0,29.0,1.0,59.0,1.0,750.0459462920044,,,,,,,,,750.0379791250016,750.136229417003,750.9383546250028,750.9303129580003,750.930780667004,750.9383546250028,750.9383546250028,750.9383546250028,755.9185483750043,757.1324025420035,,,,,,,,,,,,,,,,,,,,,,,,,,,,,,left,0.0,6.191373875000863,,,,,,sub-168,1,random_dot,,
,,0.0,0.0,0.0,,,,,accuracy,space,6.1843795829991,,,,,,0.0,0.0,0.0,0.0,,,,,,,,,,,,,,,,,,,,,,,,,,,,,,,,,,,,,,,,,,,,,,,,,,,,,,,,,,,,,sub-168,1,random_dot,,
left,left,0.0,0.0,0.0,left,1.0,0.7755627500009723,,speed,space,17.009772958001122,,,,,,0.0,1.0,1.0,1.0,0.0,0.0,0.0,0.0,774.198274041999,,,,,,,,,774.187949500003,774.5201946669986,775.3220759169999,775.3142167080005,775.3147074170047,775.3220759169999,775.3220759169999,775.3220759169999,,776.1052800830003,,,,,,,,,,,,,,,,,,,,,,,757.1527053329992,757.1603654580031,757.1603654580031,774.1727527080002,space,17.009772958001122,,left,1.0,0.7755627500009723,,,,,,sub-168,1,random_dot,,
right,right,1.0,1.0,0.0,left,0.0,1.6587977919989498,,speed,space,17.009772958001122,,,,,,0.0,1.0,1.0,1.0,0.0,1.0,1.0,1.0,776.1134582500017,,,,,,,,,776.1056734579979,776.4534429999985,777.2555994580034,777.247560374999,777.2480006670012,777.2555994580034,777.2555994580034,777.2555994580034,,778.9220183750003,,,,,,,,,,,,,,,,,,,,,,,,,,,,,,left,0.0,1.6587977919989498,,,,,,sub-168,1,random_dot,,
left,left,2.0,0.0,1.0,left,1.0,1.791730541997822,,speed,space,17.009772958001122,,,,,,0.0,1.0,1.0,1.0,1.0,0.0,2.0,0.0,778.9300038750007,,,,,,,,,778.9224037500026,779.7201297920037,780.5131544169999,780.5032937920041,780.5037712080011,780.5131544169999,780.5131544169999,780.5131544169999,,782.3149481250002,,,,,,,,,,,,,,,,,,,,,,,,,,,,,,left,1.0,1.791730541997822,,,,,,sub-168,1,random_dot,,
right,right,3.0,1.0,1.0,right,1.0,2.1838399170010234,,speed,space,17.009772958001122,,,,,,0.0,1.0,1.0,1.0,1.0,1.0,3.0,1.0,782.3231577920014,,,,,,,,,782.3153572080046,782.6637051670041,783.4563325830022,783.447996875002,783.4485281250018,783.4563325830022,783.4563325830022,783.4563325830022,,785.648889707998,,,,,,,,,,,,,,,,,,,,,,,,,,,,,,right,1.0,2.1838399170010234,,,,,,sub-168,1,random_dot,,
right,right,4.0,0.0,2.0,left,0.0,3.053445749996172,,speed,space,17.009772958001122,,,,,,0.0,1.0,1.0,1.0,2.0,0.0,4.0,1.0,785.6571939580026,,,,,,,,,785.6493025419986,786.4474390830001,787.2403715420005,787.2316207920012,787.2322359169993,787.2403715420005,787.2403715420005,787.2403715420005,,790.2985082079977,,,,,,,,,,,,,,,,,,,,,,,,,,,,,,left,0.0,3.053445749996172,,,,,,sub-168,1,random_dot,,
left,left,5.0,1.0,2.0,right,0.0,3.2171257919981144,,speed,space,17.009772958001122,,,,,,0.0,1.0,1.0,1.0,2.0,1.0,5.0,0.0,790.3046228750027,,,,,,,,,790.2989362500011,791.0974543330012,791.889610541999,791.8812494579979,791.8817340000023,791.889610541999,791.889610541999,791.889610541999,,795.1156384580026,,,,,,,,,,,,,,,,,,,,,,,,,,,,,,right,0.0,3.2171257919981144,,,,,,sub-168,1,random_dot,,
right,right,6.0,0.0,3.0,left,0.0,6.509433250001166,,speed,space,17.009772958001122,,,,,,0.0,1.0,1.0,1.0,3.0,0.0,6.0,1.0,795.1245301250019,,,,,,,,,795.1161542920017,795.9142490829981,796.7061513330045,796.6982849580018,796.6987356669997,796.7061513330045,796.7061513330045,796.7061513330045,801.6973298750017,803.227126167003,,,,,,,,,,,,,,,,,,,,,,,,,,,,,,left,0.0,6.509433250001166,,,,,,sub-168,1,random_dot,,
left,left,7.0,1.0,3.0,left,1.0,1.8314559579957856,,speed,space,17.009772958001122,,,,,,0.0,1.0,1.0,1.0,3.0,1.0,7.0,0.0,803.2323932920044,,,,,,,,,803.2275622919988,803.3207525000034,804.1231438329996,804.1149322920028,804.1154101249995,804.1231438329996,804.1231438329996,804.1231438329996,,805.9660015420013,,,,,,,,,,,,,,,,,,,,,,,,,,,,,,left,1.0,1.8314559579957856,,,,,,sub-168,1,random_dot,,
right,right,8.0,0.0,4.0,left,0.0,5.292202750002616,,speed,space,17.009772958001122,,,,,,0.0,1.0,1.0,1.0,4.0,0.0,8.0,1.0,805.9707918749991,,,,,,,,,805.9664482500011,806.0641901670024,806.8564154170017,806.8483307499991,806.8487913330027,806.8564154170017,806.8564154170017,806.8564154170017,811.8365870830021,812.1555332080025,,,,,,,,,,,,,,,,,,,,,,,,,,,,,,left,0.0,5.292202750002616,,,,,,sub-168,1,random_dot,,
left,left,9.0,1.0,4.0,left,1.0,2.016635416999634,,speed,space,17.009772958001122,,,,,,0.0,1.0,1.0,1.0,4.0,1.0,9.0,0.0,812.1637861670024,,,,,,,,,812.1559439999983,812.2547348330045,813.0473112079999,813.0376902499993,813.0381847079989,813.0473112079999,813.0473112079999,813.0473112079999,,815.0660718750005,,,,,,,,,,,,,,,,,,,,,,,,,,,,,,left,1.0,2.016635416999634,,,,,,sub-168,1,random_dot,,
right,right,10.0,0.0,5.0,left,0.0,1.6144984170023235,,speed,space,17.009772958001122,,,,,,0.0,1.0,1.0,1.0,5.0,0.0,10.0,1.0,815.0719829580048,,,,,,,,,815.0664814170013,816.264420749998,817.0566387920044,817.0487545420037,817.0492184579998,817.0566387920044,817.0566387920044,817.0566387920044,,818.6733096669996,,,,,,,,,,,,,,,,,,,,,,,,,,,,,,left,0.0,1.6144984170023235,,,,,,sub-168,1,random_dot,,
left,left,11.0,1.0,5.0,left,1.0,3.602749459001643,,speed,space,17.009772958001122,,,,,,0.0,1.0,1.0,1.0,5.0,1.0,11.0,0.0,818.6808939170005,,,,,,,,,818.6736993750019,819.4714619580045,820.2733786669996,820.2653099169984,820.2657896250021,820.2733786669996,820.2733786669996,820.2733786669996,,823.8830358749983,,,,,,,,,,,,,,,,,,,,,,,,,,,,,,left,1.0,3.602749459001643,,,,,,sub-168,1,random_dot,,
right,right,12.0,0.0,6.0,right,1.0,3.259065625003132,,speed,space,17.009772958001122,,,,,,0.0,1.0,1.0,1.0,6.0,0.0,12.0,1.0,823.8914151670033,,,,,,,,,823.8834715420016,824.2315317500033,825.0239054999984,825.0156677920022,825.0161361249993,825.0239054999984,825.0239054999984,825.0239054999984,,828.2896379579979,,,,,,,,,,,,,,,,,,,,,,,,,,,,,,right,1.0,3.259065625003132,,,,,,sub-168,1,random_dot,,
left,left,13.0,1.0,6.0,right,0.0,2.846891624998534,,speed,space,17.009772958001122,,,,,,0.0,1.0,1.0,1.0,6.0,1.0,13.0,0.0,828.2977818330037,,,,,,,,,828.2900327079988,829.0888627079985,829.8906660830035,829.8822169999985,829.8826863330032,829.8906660830035,829.8906660830035,829.8906660830035,,832.7399626250044,,,,,,,,,,,,,,,,,,,,,,,,,,,,,,right,0.0,2.846891624998534,,,,,,sub-168,1,random_dot,,
left,left,14.0,0.0,7.0,left,1.0,1.1191307920016698,,speed,space,17.009772958001122,,,,,,0.0,1.0,1.0,1.0,7.0,0.0,14.0,0.0,832.7482209580048,,,,,,,,,832.7403496670013,833.5384384580029,834.3401265830034,834.3322411250047,834.3327065420017,834.3401265830034,834.3401265830034,834.3401265830034,,835.4663397080003,,,,,,,,,,,,,,,,,,,,,,,,,,,,,,left,1.0,1.1191307920016698,,,,,,sub-168,1,random_dot,,
right,right,15.0,1.0,7.0,left,0.0,4.042304624999815,,speed,space,17.009772958001122,,,,,,0.0,1.0,1.0,1.0,7.0,1.0,15.0,1.0,835.4745899580012,,,,,,,,,835.4667393330019,836.2652048750024,837.0571335830027,837.0491351669989,837.0496025419998,837.0571335830027,837.0571335830027,837.0571335830027,,841.1072504170006,,,,,,,,,,,,,,,,,,,,,,,,,,,,,,left,0.0,4.042304624999815,,,,,,sub-168,1,random_dot,,
left,left,16.0,0.0,8.0,left,1.0,5.583513666999352,,speed,space,17.009772958001122,,,,,,0.0,1.0,1.0,1.0,8.0,0.0,16.0,0.0,841.1154650419994,,,,,,,,,841.1076399169979,842.3051718749994,843.0980014579982,843.0882377919988,843.0886245000002,843.0980014579982,843.0980014579982,843.0980014579982,848.0817371250014,848.6839202499978,,,,,,,,,,,,,,,,,,,,,,,,,,,,,,left,1.0,5.583513666999352,,,,,,sub-168,1,random_dot,,
right,right,17.0,1.0,8.0,left,0.0,7.121077667005011,,speed,space,17.009772958001122,,,,,,0.0,1.0,1.0,1.0,8.0,1.0,17.0,1.0,848.6896955830016,,,,,,,,,848.6843594169986,849.8822182920048,850.6744062500002,850.666153457998,850.6666359580049,850.6744062500002,850.6744062500002,850.6744062500002,855.6652725000022,857.8010250420048,,,,,,,,,,,,,,,,,,,,,,,,,,,,,,left,0.0,7.121077667005011,,,,,,sub-168,1,random_dot,,
left,left,18.0,0.0,9.0,right,0.0,5.457818209004472,,speed,space,17.009772958001122,,,,,,0.0,1.0,1.0,1.0,9.0,0.0,18.0,0.0,857.8098584170002,,,,,,,,,857.8015979580014,858.1490091250016,858.9413330829993,858.9330814999994,858.9336286250036,858.9413330829993,858.9413330829993,858.9413330829993,863.9321725830014,864.4017945829983,,,,,,,,,,,,,,,,,,,,,,,,,,,,,,right,0.0,5.457818209004472,,,,,,sub-168,1,random_dot,,
right,right,19.0,1.0,9.0,left,0.0,3.3667517089998,,speed,space,17.009772958001122,,,,,,0.0,1.0,1.0,1.0,9.0,1.0,19.0,1.0,864.4102044579995,,,,,,,,,864.4022495000027,864.7492560829996,865.5411380420046,865.5330184580016,865.5334971670018,865.5411380420046,865.5411380420046,865.5411380420046,,868.9174089580047,,,,,,,,,,,,,,,,,,,,,,,,,,,,,,left,0.0,3.3667517089998,,,,,,sub-168,1,random_dot,,
right,right,20.0,0.0,10.0,right,1.0,2.138480500005244,,speed,space,17.009772958001122,,,,,,0.0,1.0,1.0,1.0,10.0,0.0,20.0,1.0,868.9259695000001,,,,,,,,,868.9178214999993,870.116072249999,870.9083737500041,870.8999183330016,870.900464833001,870.9083737500041,870.9083737500041,870.9083737500041,,873.0506486250015,,,,,,,,,,,,,,,,,,,,,,,,,,,,,,right,1.0,2.138480500005244,,,,,,sub-168,1,random_dot,,
left,left,21.0,1.0,10.0,right,0.0,2.4471543749968987,,speed,space,17.009772958001122,,,,,,0.0,1.0,1.0,1.0,10.0,1.0,21.0,0.0,873.0563235829977,,,,,,,,,873.0510507920044,873.1494496250016,873.9421152080031,873.9334037080043,873.9339335000041,873.9421152080031,873.9421152080031,873.9421152080031,,876.391428875002,,,,,,,,,,,,,,,,,,,,,,,,,,,,,,right,0.0,2.4471543749968987,,,,,,sub-168,1,random_dot,,
right,right,22.0,0.0,11.0,right,1.0,3.55854541699955,,speed,space,17.009772958001122,,,,,,0.0,1.0,1.0,1.0,11.0,0.0,22.0,1.0,876.4158796250049,,,,,,,,,876.3918270830036,877.589496624998,878.391623208001,878.3835726670004,878.3840399170003,878.391623208001,878.391623208001,878.391623208001,,881.9578256250024,,,,,,,,,,,,,,,,,,,,,,,,,,,,,,right,1.0,3.55854541699955,,,,,,sub-168,1,random_dot,,
left,left,23.0,1.0,11.0,left,1.0,2.6963652080012253,,speed,space,17.009772958001122,,,,,,0.0,1.0,1.0,1.0,11.0,1.0,23.0,0.0,881.9658847500032,,,,,,,,,881.958217833002,882.3061812500018,883.1091240419992,883.1004027919989,883.1008534170032,883.1091240419992,883.1091240419992,883.1091240419992,,885.8079690000013,,,,,,,,,,,,,,,,,,,,,,,,,,,,,,left,1.0,2.6963652080012253,,,,,,sub-168,1,random_dot,,
right,right,24.0,0.0,12.0,left,0.0,3.313432916998863,,speed,space,17.009772958001122,,,,,,0.0,1.0,1.0,1.0,12.0,0.0,24.0,1.0,885.8159559170017,,,,,,,,,885.8083662920035,887.0064112079999,887.8083735000037,887.8002743329998,887.8007526670044,887.8083735000037,887.8083735000037,887.8083735000037,,891.124468916998,,,,,,,,,,,,,,,,,,,,,,,,,,,,,,left,0.0,3.313432916998863,,,,,,sub-168,1,random_dot,,
left,left,25.0,1.0,12.0,right,0.0,3.655277582998679,,speed,space,17.009772958001122,,,,,,0.0,1.0,1.0,1.0,12.0,1.0,25.0,0.0,891.1327044999998,,,,,,,,,891.1248717499984,891.9230045830045,892.7159945000021,892.7062338750038,892.7067082499998,892.7159945000021,892.7159945000021,892.7159945000021,,896.3754462500001,,,,,,,,,,,,,,,,,,,,,,,,,,,,,,right,0.0,3.655277582998679,,,,,,sub-168,1,random_dot,,
left,left,26.0,0.0,13.0,right,0.0,3.3250040840066504,,speed,space,17.009772958001122,,,,,,0.0,1.0,1.0,1.0,13.0,0.0,26.0,0.0,896.3996617919984,,,,,,,,,896.3758643750043,897.5735775830035,898.3660730420015,898.3570943329978,898.3575604580037,898.3660730420015,898.3660730420015,898.3660730420015,,901.7015831669996,,,,,,,,,,,,,,,,,,,,,,,,,,,,,,right,0.0,3.3250040840066504,,,,,,sub-168,1,random_dot,,
right,right,27.0,1.0,13.0,left,0.0,2.5165294159960467,,speed,space,17.009772958001122,,,,,,0.0,1.0,1.0,1.0,13.0,1.0,27.0,1.0,901.7099610420046,,,,,,,,,901.7019896670026,902.8997228750012,903.6920596670024,903.6838867500046,903.684428792003,903.6920596670024,903.6920596670024,903.6920596670024,,906.2180625000036,,,,,,,,,,,,,,,,,,,,,,,,,,,,,,left,0.0,2.5165294159960467,,,,,,sub-168,1,random_dot,,
right,right,28.0,0.0,14.0,right,1.0,2.5696537499970877,,speed,space,17.009772958001122,,,,,,0.0,1.0,1.0,1.0,14.0,0.0,28.0,1.0,906.226721167004,,,,,,,,,906.2184719170036,906.3169380000036,907.1088890829996,907.1009043750018,907.1013545000023,907.1088890829996,907.1088890829996,907.1088890829996,,909.684869417004,,,,,,,,,,,,,,,,,,,,,,,,,,,,,,right,1.0,2.5696537499970877,,,,,,sub-168,1,random_dot,,
left,left,29.0,1.0,14.0,left,1.0,1.9293105000033397,,speed,space,17.009772958001122,,,,,,0.0,1.0,1.0,1.0,14.0,1.0,29.0,0.0,909.6930439999996,,,,,,,,,909.6852701250028,909.7836205830026,910.5753868750036,910.5673848330044,910.5679414999976,910.5753868750036,910.5753868750036,910.5753868750036,,912.5086274999994,,,,,,,,,,,,,,,,,,,,,,,,,,,,,,left,1.0,1.9293105000033397,,,,,,sub-168,1,random_dot,,
left,left,30.0,0.0,15.0,left,1.0,4.32762220800214,,speed,space,17.009772958001122,,,,,,0.0,1.0,1.0,1.0,15.0,0.0,30.0,0.0,912.5166277079989,,,,,,,,,912.5090171250048,912.6075207920004,913.4090689170044,913.4009638330026,913.4014390000012,913.4090689170044,913.4090689170044,913.4090689170044,,917.7419926250004,,,,,,,,,,,,,,,,,,,,,,,,,,,,,,left,1.0,4.32762220800214,,,,,,sub-168,1,random_dot,,
right,right,31.0,1.0,15.0,right,1.0,1.2552470419977908,,speed,space,17.009772958001122,,,,,,0.0,1.0,1.0,1.0,15.0,1.0,31.0,1.0,917.7500404579988,,,,,,,,,917.7423990829992,918.090508125002,918.8832407080045,918.8742493329992,918.8747265420023,918.8832407080045,918.8832407080045,918.8832407080045,,920.141996874998,,,,,,,,,,,,,,,,,,,,,,,,,,,,,,right,1.0,1.2552470419977908,,,,,,sub-168,1,random_dot,,
right,right,32.0,0.0,16.0,right,1.0,4.767203832998348,,speed,space,17.009772958001122,,,,,,0.0,1.0,1.0,1.0,16.0,0.0,32.0,1.0,920.1501454579992,,,,,,,,,920.142394292001,920.2395887919992,921.0334482079998,921.0236816670003,921.0241542500008,921.0334482079998,921.0334482079998,921.0334482079998,,925.809733957998,,,,,,,,,,,,,,,,,,,,,,,,,,,,,,right,1.0,4.767203832998348,,,,,,sub-168,1,random_dot,,
left,left,33.0,1.0,16.0,left,1.0,1.6501751249961671,,speed,space,17.009772958001122,,,,,,0.0,1.0,1.0,1.0,16.0,1.0,33.0,0.0,925.8336354999992,,,,,,,,,925.8101359580032,926.6072836669993,927.4001086249992,927.3902932920028,927.3907840419996,927.4001086249992,927.4001086249992,927.4001086249992,,929.0522307080028,,,,,,,,,,,,,,,,,,,,,,,,,,,,,,left,1.0,1.6501751249961671,,,,,,sub-168,1,random_dot,,
left,left,34.0,0.0,17.0,left,1.0,3.0934726249979576,,speed,space,17.009772958001122,,,,,,0.0,1.0,1.0,1.0,17.0,0.0,34.0,0.0,929.057970875001,,,,,,,,,929.0526479580004,930.2504877500032,931.0428953750016,931.0347883330032,931.0352547920048,931.0428953750016,931.0428953750016,931.0428953750016,,934.1425215420022,,,,,,,,,,,,,,,,,,,,,,,,,,,,,,left,1.0,3.0934726249979576,,,,,,sub-168,1,random_dot,,
right,right,35.0,1.0,17.0,right,1.0,3.7549637910051383,,speed,space,17.009772958001122,,,,,,0.0,1.0,1.0,1.0,17.0,1.0,35.0,1.0,934.1512324580036,,,,,,,,,934.1429258749996,935.3404116250022,936.1336062080009,936.1236157919992,936.1241076250008,936.1336062080009,936.1336062080009,936.1336062080009,,939.8924599169986,,,,,,,,,,,,,,,,,,,,,,,,,,,,,,right,1.0,3.7549637910051383,,,,,,sub-168,1,random_dot,,
left,left,36.0,0.0,18.0,left,1.0,2.929417250001279,,speed,space,17.009772958001122,,,,,,0.0,1.0,1.0,1.0,18.0,0.0,36.0,0.0,939.9004984999992,,,,,,,,,939.892854042002,940.240942000004,941.0338066250042,941.0248696249982,941.0253841250014,941.0338066250042,941.0338066250042,941.0338066250042,,943.9689410420032,,,,,,,,,,,,,,,,,,,,,,,,,,,,,,left,1.0,2.929417250001279,,,,,,sub-168,1,random_dot,,
right,right,37.0,1.0,18.0,right,1.0,2.3425175419979496,,speed,space,17.009772958001122,,,,,,0.0,1.0,1.0,1.0,18.0,1.0,37.0,1.0,943.9772010829984,,,,,,,,,943.9693497920016,944.3177280829988,945.1099095829996,945.1017870420036,945.102244624999,945.1099095829996,945.1099095829996,945.1099095829996,,947.459387875002,,,,,,,,,,,,,,,,,,,,,,,,,,,,,,right,1.0,2.3425175419979496,,,,,,sub-168,1,random_dot,,
left,left,38.0,0.0,19.0,left,1.0,4.663683582999511,,speed,space,17.009772958001122,,,,,,0.0,1.0,1.0,1.0,19.0,0.0,38.0,0.0,947.467473167002,,,,,,,,,947.4598014170042,947.807767917002,948.6100464580012,948.6018954169996,948.6023582080016,948.6100464580012,948.6100464580012,948.6100464580012,,953.2761832920004,,,,,,,,,,,,,,,,,,,,,,,,,,,,,,left,1.0,4.663683582999511,,,,,,sub-168,1,random_dot,,
right,right,39.0,1.0,19.0,right,1.0,1.5907814169986525,,speed,space,17.009772958001122,,,,,,0.0,1.0,1.0,1.0,19.0,1.0,39.0,1.0,953.284437208,,,,,,,,,953.2765798750042,954.0743821249998,954.8770870000008,954.8686700000036,954.8692279169992,954.8770870000008,954.8770870000008,954.8770870000008,,956.4698024579992,,,,,,,,,,,,,,,,,,,,,,,,,,,,,,right,1.0,1.5907814169986525,,,,,,sub-168,1,random_dot,,
right,right,40.0,0.0,20.0,right,1.0,3.2352325829997426,,speed,space,17.009772958001122,,,,,,0.0,1.0,1.0,1.0,20.0,0.0,40.0,1.0,956.477935832998,,,,,,,,,956.4702200000028,957.6682582499998,958.4599450419992,958.4519658330028,958.4524405420016,958.4599450419992,958.4599450419992,958.4599450419992,,961.702905416998,,,,,,,,,,,,,,,,,,,,,,,,,,,,,,right,1.0,3.2352325829997426,,,,,,sub-168,1,random_dot,,
left,left,41.0,1.0,20.0,left,1.0,3.943731209001271,,speed,space,17.009772958001122,,,,,,0.0,1.0,1.0,1.0,20.0,1.0,41.0,0.0,961.7111690419988,,,,,,,,,961.7033040419992,962.901434583,963.6938908330048,963.685733416998,963.6862034170044,963.6938908330048,963.6938908330048,963.6938908330048,,967.6432286670024,,,,,,,,,,,,,,,,,,,,,,,,,,,,,,left,1.0,3.943731209001271,,,,,,sub-168,1,random_dot,,
right,right,42.0,0.0,21.0,right,1.0,2.2304483330008225,,speed,space,17.009772958001122,,,,,,0.0,1.0,1.0,1.0,21.0,0.0,42.0,1.0,967.6510734170006,,,,,,,,,967.6436224999998,968.4414964169991,969.2427430829994,969.2357657500032,969.2362420830032,969.2427430829994,969.2427430829994,969.2427430829994,,971.4768906669996,,,,,,,,,,,,,,,,,,,,,,,,,,,,,,right,1.0,2.2304483330008225,,,,,,sub-168,1,random_dot,,
left,left,43.0,1.0,21.0,right,0.0,4.457991375005804,,speed,space,17.009772958001122,,,,,,0.0,1.0,1.0,1.0,21.0,1.0,43.0,0.0,971.4854740829978,,,,,,,,,971.4772955420048,971.8251581670048,972.627089583002,972.619051792004,972.6195171670042,972.627089583002,972.627089583002,972.627089583002,,977.0966754170004,,,,,,,,,,,,,,,,,,,,,,,,,,,,,,right,0.0,4.457991375005804,,,,,,sub-168,1,random_dot,,
left,left,44.0,0.0,22.0,left,1.0,1.7779119159968104,,speed,space,17.009772958001122,,,,,,0.0,1.0,1.0,1.0,22.0,0.0,44.0,0.0,977.1181986250012,,,,,,,,,977.0970775829992,978.2917888750015,979.084805917002,979.0749034580004,979.0753906250028,979.084805917002,979.084805917002,979.084805917002,,980.8699026250032,,,,,,,,,,,,,,,,,,,,,,,,,,,,,,left,1.0,1.7779119159968104,,,,,,sub-168,1,random_dot,,
right,right,45.0,1.0,22.0,right,1.0,1.1960800000015297,,speed,space,17.009772958001122,,,,,,0.0,1.0,1.0,1.0,22.0,1.0,45.0,1.0,980.8786450830012,,,,,,,,,980.8703068750036,980.9687225829985,981.7610213750012,981.752686042004,981.7531637080028,981.7610213750012,981.7610213750012,981.7610213750012,,982.960685750004,,,,,,,,,,,,,,,,,,,,,,,,,,,,,,right,1.0,1.1960800000015297,,,,,,sub-168,1,random_dot,,
left,left,46.0,0.0,23.0,right,0.0,3.669993707997492,,speed,space,17.009772958001122,,,,,,0.0,1.0,1.0,1.0,23.0,0.0,46.0,0.0,982.969003582999,,,,,,,,,982.9610719580014,984.1583698329996,984.950855791998,984.942536458002,984.9430236250046,984.950855791998,984.950855791998,984.950855791998,,988.6269259580004,,,,,,,,,,,,,,,,,,,,,,,,,,,,,,right,0.0,3.669993707997492,,,,,,sub-168,1,random_dot,,
right,right,47.0,1.0,23.0,right,1.0,2.699017416998686,,speed,space,17.009772958001122,,,,,,0.0,1.0,1.0,1.0,23.0,1.0,47.0,1.0,988.6351921250024,,,,,,,,,988.6273304580028,988.718316917002,989.5115698330046,989.5028994169988,989.503365167002,989.5115698330046,989.5115698330046,989.5115698330046,,992.2202505000024,,,,,,,,,,,,,,,,,,,,,,,,,,,,,,right,1.0,2.699017416998686,,,,,,sub-168,1,random_dot,,
left,left,48.0,0.0,24.0,left,1.0,1.4323816250034724,,speed,space,17.009772958001122,,,,,,0.0,1.0,1.0,1.0,24.0,0.0,48.0,0.0,992.2287587500032,,,,,,,,,992.2206641669982,992.5691015420016,993.3608926250016,993.3528431250016,993.3533064170042,993.3608926250016,993.3608926250016,993.3608926250016,,994.8035697079976,,,,,,,,,,,,,,,,,,,,,,,,,,,,,,left,1.0,1.4323816250034724,,,,,,sub-168,1,random_dot,,
right,right,49.0,1.0,24.0,right,1.0,1.228770165995229,,speed,space,17.009772958001122,,,,,,0.0,1.0,1.0,1.0,24.0,1.0,49.0,1.0,994.8119581249994,,,,,,,,,994.8039897920024,994.9025302080044,995.6940849169988,995.6861377919996,995.6866779580014,995.6940849169988,995.6940849169988,995.6940849169988,,996.9273012080012,,,,,,,,,,,,,,,,,,,,,,,,,,,,,,right,1.0,1.228770165995229,,,,,,sub-168,1,random_dot,,
right,right,50.0,0.0,25.0,right,1.0,3.073908874997869,,speed,space,17.009772958001122,,,,,,0.0,1.0,1.0,1.0,25.0,0.0,50.0,1.0,996.935370375002,,,,,,,,,996.9276918750038,997.0254375830044,997.827886625004,997.8196951249992,997.8201573750048,997.827886625004,997.827886625004,997.827886625004,,1000.903874417003,,,,,,,,,,,,,,,,,,,,,,,,,,,,,,right,1.0,3.073908874997869,,,,,,sub-168,1,random_dot,,
left,left,51.0,1.0,25.0,right,0.0,1.3886655419992169,,speed,space,17.009772958001122,,,,,,0.0,1.0,1.0,1.0,25.0,1.0,51.0,0.0,1000.9119925420018,,,,,,,,,1000.904281791998,1002.102525125003,1002.8946412500007,1002.8865750420008,1002.8870293330036,1002.8946412500007,1002.8946412500007,1002.8946412500007,,1004.2871367080006,,,,,,,,,,,,,,,,,,,,,,,,,,,,,,right,0.0,1.3886655419992169,,,,,,sub-168,1,random_dot,,
left,left,52.0,0.0,26.0,left,1.0,1.024406750002527,,speed,space,17.009772958001122,,,,,,0.0,1.0,1.0,1.0,26.0,0.0,52.0,0.0,1004.2930396250013,,,,,,,,,1004.2875536249994,1005.0857460420012,1005.8776610830027,1005.8697824170011,1005.870242875004,1005.8776610830027,1005.8776610830027,1005.8776610830027,,1006.9042930420036,,,,,,,,,,,,,,,,,,,,,,,,,,,,,,left,1.0,1.024406750002527,,,,,,sub-168,1,random_dot,,
right,right,53.0,1.0,26.0,right,1.0,1.4325189999944996,,speed,space,17.009772958001122,,,,,,0.0,1.0,1.0,1.0,26.0,1.0,53.0,1.0,1006.9127270000026,,,,,,,,,1006.9047902500024,1007.2525515419984,1008.0445907500034,1008.0365100830022,1008.0369928330038,1008.0445907500034,1008.0445907500034,1008.0445907500034,,1009.4874763750048,,,,,,,,,,,,,,,,,,,,,,,,,,,,,,right,1.0,1.4325189999944996,,,,,,sub-168,1,random_dot,,
left,left,54.0,0.0,27.0,left,1.0,1.1085404999976165,,speed,space,17.009772958001122,,,,,,0.0,1.0,1.0,1.0,27.0,0.0,54.0,0.0,1009.4959785829996,,,,,,,,,1009.487907667004,1010.2858023750014,1011.0786072499976,1011.0700580000048,1011.0706727920042,1011.0786072499976,1011.0786072499976,1011.0786072499976,,1012.1946130830038,,,,,,,,,,,,,,,,,,,,,,,,,,,,,,left,1.0,1.1085404999976165,,,,,,sub-168,1,random_dot,,
right,right,55.0,1.0,27.0,right,1.0,1.0636187080017407,,speed,space,17.009772958001122,,,,,,0.0,1.0,1.0,1.0,27.0,1.0,55.0,1.0,1012.202450375,,,,,,,,,1012.1950094170024,1012.2928399579978,1013.0951302079992,1013.0869737079992,1013.0875061670012,1013.0951302079992,1013.0951302079992,1013.0951302079992,,1014.1610909580048,,,,,,,,,,,,,,,,,,,,,,,,,,,,,,right,1.0,1.0636187080017407,,,,,,sub-168,1,random_dot,,
right,right,56.0,0.0,28.0,right,1.0,5.595318125000631,,speed,space,17.009772958001122,,,,,,0.0,1.0,1.0,1.0,28.0,0.0,56.0,1.0,1014.1689957499984,,,,,,,,,1014.1614823749989,1014.2586537079987,1015.0522323330006,1015.0420379170027,1015.0425045000012,1015.0522323330006,1015.0522323330006,1015.0522323330006,1020.035961667003,1020.6549126250028,,,,,,,,,,,,,,,,,,,,,,,,,,,,,,right,1.0,5.595318125000631,,,,,,sub-168,1,random_dot,,
left,left,57.0,1.0,28.0,left,1.0,1.2163971659974775,,speed,space,17.009772958001122,,,,,,0.0,1.0,1.0,1.0,28.0,1.0,57.0,0.0,1020.663230416998,,,,,,,,,1020.6553539579982,1020.7524635829976,1021.5452463750044,1021.5371551670032,1021.537621333002,1021.5452463750044,1021.5452463750044,1021.5452463750044,,1022.7712061249986,,,,,,,,,,,,,,,,,,,,,,,,,,,,,,left,1.0,1.2163971659974775,,,,,,sub-168,1,random_dot,,
right,right,58.0,0.0,29.0,right,1.0,1.1188035839950317,,speed,space,17.009772958001122,,,,,,0.0,1.0,1.0,1.0,29.0,0.0,58.0,1.0,1022.7798361669992,,,,,,,,,1022.7716131670022,1023.9697539170012,1024.760877624998,1024.7533877919996,1024.753851166999,1024.760877624998,1024.760877624998,1024.760877624998,,1025.8875072080043,,,,,,,,,,,,,,,,,,,,,,,,,,,,,,right,1.0,1.1188035839950317,,,,,,sub-168,1,random_dot,,
left,left,59.0,1.0,29.0,left,1.0,1.6846919169984176,,speed,space,17.009772958001122,,,,,,0.0,1.0,1.0,1.0,29.0,1.0,59.0,0.0,1025.8959845420031,,,,,,,,,1025.8879219170049,1026.6862680420018,1027.4781143750006,1027.4703807080004,1027.4708490000048,1027.4781143750006,1027.4781143750006,1027.4781143750006,,1029.171155832999,,,,,,,,,,,,,,,,,,,,,,,,,,,,,,left,1.0,1.6846919169984176,,,,,,sub-168,1,random_dot,,
,,1.0,1.0,0.0,,,,,speed,space,17.009772958001122,,,,,,0.0,1.0,1.0,1.0,,,,,,,,,,,,,,,,,,,,,,,,,,,,,,,,,,,,,,,,,,,,,,,,,,,,,,,,,,,,,sub-168,1,random_dot,,
,,,,,,,,,,,,,,,,,,,,,,,,,,,,,,,,,,,,,,,,,,,,,,,,,,,,,,,,,,,,,,,,,,,,,,,,,,,,,1029.1770361669987,1029.1862386670036,1034.1760212080044,1034.170891792004,sub-168,1,random_dot,,
