direction,corrAns,randomInstr,practice_trials.thisRepN,practice_trials.thisTrialN,practice_trials.thisN,practice_trials.thisIndex,instr_trials.thisRepN,instr_trials.thisTrialN,instr_trials.thisN,instr_trials.thisIndex,test_trials.thisRepN,test_trials.thisTrialN,test_trials.thisN,test_trials.thisIndex,thisRow.t,notes,general_instruction.started,textGeneralInstr.started,respGeneralInstr.started,general_instruction.stopped,respGeneralInstr.keys,respGeneralInstr.rt,respGeneralInstr.duration,ITI.started,fixcross.started,fixcross.stopped,ITI.stopped,dots.started,backgroundDots.started,stimulusDots.started,respDots.started,dots.stopped,respDots.keys,respDots.corr,respDots.rt,respDots.duration,feedback.started,textFeedback.started,feedback.stopped,textFeedback.stopped,stimulusDots.stopped,info.started,textInfo.started,keyRespInfo.started,info.stopped,keyRespInfo.keys,keyRespInfo.rt,keyRespInfo.duration,test_instruction.started,textTestInstr.started,respTestInstr.started,test_instruction.stopped,respTestInstr.keys,respTestInstr.rt,respTestInstr.duration,random_instruction.started,textRandomInstr.started,respRandomInstr.started,random_instruction.stopped,respRandomInstr.keys,respRandomInstr.rt,respRandomInstr.duration,goodbye.started,textGoodbye.started,textGoodbye.stopped,goodbye.stopped,participant,session,expName,frameRate,Unnamed: 74
,,,,,,,,,,,,,,,,,0.0089273000003231,0.0164685999998255,0.0164685999998255,17.48199889999978,space,39.64064739999958,,,,,,,,,,,,,,,,,,,,,,,,,,,,,,,,,,,,,,,,,,,,,sub-136,2.0,random_dot,120.15620306353355,
left,left,,0.0,0.0,0.0,0.0,,,,,,,,,17.502646199999617,,,,,,,,,17.49088649999976,18.68509929999982,19.485345699999925,19.47742879999987,19.477448200000254,19.485345699999925,19.485345699999925,19.485345699999925,23.060929999999644,left,1.0,25.750281200000245,,23.061616500000127,23.071809899999607,23.56384749999961,,,,,,,,,,,,,,,,,,,,,,,,,,,,sub-136,2.0,random_dot,120.15620306353355,
right,right,,0.0,1.0,1.0,1.0,,,,,,,,,23.57199270000001,,,,,,,,,23.56446969999979,24.76364250000006,25.563903299999765,25.556307699999707,25.556327799999963,25.563903299999765,25.563903299999765,25.563903299999765,26.84039800000028,left,0.0,23.44775649999974,,26.840889799999783,26.84897379999984,27.341149400000177,,,,,,,,,,,,,,,,,,,,,,,,,,,,sub-136,2.0,random_dot,120.15620306353355,
left,left,,1.0,0.0,2.0,0.0,,,,,,,,,27.34905499999968,,,,,,,,,27.34201690000009,28.140734200000225,28.94074809999984,28.93322160000025,28.93324049999956,28.94074809999984,28.94074809999984,28.94074809999984,31.64208830000007,right,0.0,24.872390799999263,,31.64255080000021,31.648972199999665,32.141262899999674,32.14926569999989,,,,,,,,,,,,,,,,,,,,,,,,,,,sub-136,2.0,random_dot,120.15620306353355,
right,right,,1.0,1.0,3.0,1.0,,,,,,,,,32.14926569999989,,,,,,,,,32.14163029999963,32.9496036999999,33.748906499999975,33.74139399999967,33.74141320000035,33.748906499999975,33.748906499999975,33.748906499999975,36.017309799999566,left,0.0,24.438019899999745,,36.01780009999948,36.02422320000005,36.51657520000026,36.524133699999766,,,,,,,,,,,,,,,,,,,,,,,,,,,sub-136,2.0,random_dot,120.15620306353355,
right,right,,2.0,0.0,4.0,1.0,,,,,,,,,36.524133699999766,,,,,,,,,36.51694940000016,36.62424649999957,37.42429280000033,37.4166537000001,37.41667330000018,37.42429280000033,37.42429280000033,37.42429280000033,39.97552600000017,right,1.0,24.724478400000407,,39.9759868000001,39.982450499999686,40.47475020000002,40.48293180000019,,,,,,,,,,,,,,,,,,,,,,,,,,,sub-136,2.0,random_dot,120.15620306353355,
left,left,,2.0,1.0,5.0,0.0,,,,,,,,,40.48293180000019,,,,,,,,,40.475268700000015,41.68267730000025,42.482559899999615,42.47473179999997,42.47475159999976,42.482559899999615,42.482559899999615,42.482559899999615,47.394487200000185,right,0.0,27.08494299999984,,47.39500870000029,47.40217829999983,47.89448730000004,47.90221819999988,,,,,,,,,,,,,,,,,,,,,,,,,,,sub-136,2.0,random_dot,120.15620306353355,
right,right,,3.0,0.0,6.0,1.0,,,,,,,,,47.90221819999988,,,,,,,,,47.89510450000034,48.25191280000036,49.05202370000006,49.04425919999994,49.04427889999988,49.05202370000006,49.05202370000006,49.05202370000006,54.345442699999694,left,0.0,27.46445109999968,,54.34610210000028,54.35167449999972,54.84429809999983,54.852223900000354,54.04364520000036,,,,,,,,,,,,,,,,,,,,,,,,,,sub-136,2.0,random_dot,120.15620306353355,
left,left,,3.0,1.0,7.0,0.0,,,,,,,,,54.852223900000354,,,,,,,,,54.84466069999962,55.65223609999976,56.452570399999786,56.44425659999979,56.44427769999948,56.452570399999786,56.452570399999786,56.452570399999786,58.803278399999726,right,0.0,24.52073119999932,,58.80373700000018,58.81079469999986,59.30265229999986,59.31057210000017,,,,,,,,,,,,,,,,,,,,,,,,,,,sub-136,2.0,random_dot,120.15620306353355,
left,left,,4.0,0.0,8.0,0.0,,,,,,,,,59.31057210000017,,,,,,,,,59.30301340000005,60.51031409999996,61.31027600000016,61.30280010000024,61.30282590000024,61.31027600000016,61.31027600000016,61.31027600000016,63.35298289999992,left,1.0,24.218631800000367,,63.35346539999955,63.35998860000018,63.85368029999972,63.86108619999959,,,,,,,,,,,,,,,,,,,,,,,,,,,sub-136,2.0,random_dot,120.15620306353355,
right,right,,4.0,1.0,9.0,1.0,,,,,,,,,63.86108619999959,,,,,,,,,63.8541181999999,63.95234119999986,64.75148689999969,64.74460160000035,64.74464809999972,64.75148689999969,64.75148689999969,64.75148689999969,66.22820619999948,left,0.0,23.6473591999993,,66.22870640000019,66.23541769999974,66.72890730000017,66.73547289999988,,,,,,,,,,,,,,,,,,,,,,,,,,,sub-136,2.0,random_dot,120.15620306353355,
left,left,,5.0,0.0,10.0,0.0,,,,,,,,,66.73547289999988,,,,,,,,,66.72927040000013,66.83556169999974,67.63543550000031,67.62771650000013,67.62773649999963,67.63543550000031,67.63543550000031,67.63543550000031,68.69622160000017,right,0.0,23.23268920000009,,68.69695130000036,68.70182130000012,69.19497729999966,69.20244709999952,,,,,,,,,,,,,,,,,,,,,,,,,,,sub-136,2.0,random_dot,120.15620306353355,
right,right,,5.0,1.0,11.0,1.0,,,,,,,,,69.20244709999952,,,,,,,,,69.19533909999973,70.00224749999961,70.80243679999967,70.79513659999975,70.79515600000013,70.80243679999967,70.80243679999967,70.80243679999967,74.18702899999971,left,0.0,25.560335599999235,,74.18751609999981,74.19386149999991,74.68683750000037,74.69462769999973,,,,,,,,,,,,,,,,,,,,,,,,,,,sub-136,2.0,random_dot,120.15620306353355,
right,right,,6.0,0.0,12.0,1.0,,,,,,,,,74.69462769999973,,,,,,,,,74.68721579999965,75.49387109999952,76.29391419999956,76.2862471999997,76.28626799999984,76.29391419999956,76.29391419999956,76.29391419999956,78.7283011999998,right,1.0,24.60421130000032,,78.72878609999952,78.73529340000005,79.22854730000017,79.2357793000001,,,,,,,,,,,,,,,,,,,,,,,,,,,sub-136,2.0,random_dot,120.15620306353355,
left,left,,6.0,1.0,13.0,0.0,,,,,,,,,79.2357793000001,,,,,,,,,79.22914860000037,80.03558939999948,80.83500170000025,80.82807690000027,80.82809610000004,80.83500170000025,80.83500170000025,80.83500170000025,82.17044090000036,right,0.0,23.5083224,,82.17109919999984,82.1786331000003,82.67133120000017,,,,,,,,,,,,,,,,,,,,,,,,,,,,sub-136,2.0,random_dot,120.15620306353355,
left,left,,7.0,0.0,14.0,0.0,,,,,,,,,82.67896409999958,,,,,,,,,82.67171510000026,82.77069269999993,83.57028919999993,83.56249300000036,83.56251340000017,83.57028919999993,83.57028919999993,83.57028919999993,86.04652389999956,right,0.0,24.64538369999991,,86.04699160000018,86.05391169999984,86.54588779999995,86.55375829999957,,,,,,,,,,,,,,,,,,,,,,,,,,,sub-136,2.0,random_dot,120.15620306353355,
right,right,,7.0,1.0,15.0,1.0,,,,,,,,,86.55375829999957,,,,,,,,,86.54626180000014,86.90400520000003,87.70355389999986,87.69624190000013,87.6962709999998,87.70355389999986,87.70355389999986,87.70355389999986,91.67152350000016,right,1.0,26.14447509999991,,91.67199129999972,91.67875790000016,92.17105249999986,92.17890590000025,,,,,,,,,,,,,,,,,,,,,,,,,,,sub-136,2.0,random_dot,120.15620306353355,
left,left,,8.0,0.0,16.0,0.0,,,,,,,,,92.17890590000025,,,,,,,,,92.1714323999995,93.37889319999977,94.1789388999996,94.17121150000004,94.17124499999954,94.1789388999996,94.1789388999996,94.1789388999996,96.2890441999998,left,1.0,24.281406099999003,,96.2895066000001,96.29552150000018,96.78867730000002,96.79559419999988,,,,,,,,,,,,,,,,,,,,,,,,,,,sub-136,2.0,random_dot,120.15620306353355,
right,right,,8.0,1.0,17.0,1.0,,,,,,,,,96.79559419999988,,,,,,,,,96.78911809999954,96.89647859999968,97.6953169999997,97.68810570000004,97.68813969999974,97.6953169999997,97.6953169999997,97.6953169999997,100.33828579999954,right,1.0,24.815547199999852,,100.33884750000016,100.34550109999964,100.8374764,100.84536000000026,,,,,,,,,,,,,,,,,,,,,,,,,,,sub-136,2.0,random_dot,120.15620306353355,
left,left,,9.0,0.0,18.0,0.0,,,,,,,,,100.84536000000026,,,,,,,,,100.83785059999992,102.04548830000022,102.84546059999956,102.83765529999982,102.83767429999988,102.84546059999956,102.84546059999956,102.84546059999956,104.89655560000028,left,1.0,24.222682599999644,,104.89710959999957,104.90378039999996,105.39617859999998,105.4038942999996,,,,,,,,,,,,,,,,,,,,,,,,,,,sub-136,2.0,random_dot,120.15620306353355,
right,right,,9.0,1.0,19.0,1.0,,,,,,,,,105.4038942999996,,,,,,,,,105.3966793999998,105.50379799999972,106.30389170000036,106.29621039999984,106.29623230000016,106.30389170000036,106.30389170000036,106.30389170000036,108.0383512999997,right,1.0,23.910010699999475,,108.03882710000016,108.04623739999988,108.53810640000027,108.5457553999995,,,,,,,,,,,,,,,,,,,,,,,,,,,sub-136,2.0,random_dot,120.15620306353355,
,,,,,,,,,,,,,,,,,,,,,,,,,,,,,,,,,,,,,,,,,,108.53817150000032,108.5457553999995,108.5457553999995,110.73771560000024,space,24.362609999999226,,,,,,,,,,,,,,,,,,,,sub-136,2.0,random_dot,120.15620306353355,
,,,,,,,,,,,,,,,,,,,,,,,,,,,,,,,,,,,,,,,,,,,,,,,,,110.73774979999962,110.7455160999998,110.7455160999998,112.54733810000016,space,23.97828449999997,,,,,,,,,,,,,sub-136,2.0,random_dot,120.15620306353355,
left,left,speed,,,,,0.0,0.0,0.0,1.0,0.0,0.0,0.0,0.0,114.59899020000012,,,,,,,,,114.59546510000018,115.39087910000036,116.19063470000036,116.18275799999992,116.1827784999996,116.19063470000036,116.19063470000036,116.19063470000036,117.99172519999956,right,0.0,23.973966700000343,,,,,,,,,,,,,,,,,,,,,112.55180380000002,112.56618330000038,112.56618330000038,114.5887074000002,space,24.192592799999147,,,,,,sub-136,2.0,random_dot,120.15620306353355,
right,right,speed,,,,,0.0,0.0,0.0,1.0,0.0,1.0,1.0,1.0,117.9990944000001,,,,,,,,,117.99286680000024,118.09990449999988,118.8990289000003,118.8913504000002,118.89137879999998,118.8990289000003,118.8990289000003,118.8990289000003,121.53454779999991,left,0.0,24.80553449999934,,,,,,,,,,,,,,,,,,,,,,,,,,,,,,,,sub-136,2.0,random_dot,120.15620306353355,
left,left,speed,,,,,0.0,0.0,0.0,1.0,1.0,0.0,2.0,0.0,121.54053920000024,,,,,,,,,121.53546519999963,121.89137690000008,122.69077649999964,122.68309510000016,122.68311999999968,122.69077649999964,122.69077649999964,122.69077649999964,125.12479319999966,right,0.0,24.60371579999992,,,,,,,,,,,,,,,,,,,,,,,,,,,,,,,,sub-136,2.0,random_dot,120.15620306353355,
right,right,speed,,,,,0.0,0.0,0.0,1.0,1.0,1.0,3.0,1.0,125.13302300000032,,,,,,,,,125.12570119999964,126.33242109999992,127.1323881999997,127.12557819999984,127.12559729999975,127.1323881999997,127.1323881999997,127.1323881999997,131.64180260000012,right,1.0,26.684776999999485,,,,,,,,,,,,,,,,,,,,,,,,,,,,,,,,sub-136,2.0,random_dot,120.15620306353355,
right,right,speed,,,,,0.0,0.0,0.0,1.0,2.0,0.0,4.0,1.0,131.6492421000003,,,,,,,,,131.64276640000026,132.84903080000004,133.64958190000016,133.6415877999998,133.64160879999963,133.64958190000016,133.64958190000016,133.64958190000016,136.61675130000003,right,1.0,25.14297170000009,,,,,,,,,,,,,,,,,,,,,,,,,,,,,,,,sub-136,2.0,random_dot,120.15620306353355,
left,left,speed,,,,,0.0,0.0,0.0,1.0,2.0,1.0,5.0,0.0,136.62406360000023,,,,,,,,,136.6181428,137.8241269,138.6240484,138.61655419999988,138.61657980000018,138.6240484,138.6240484,138.6240484,142.45859560000008,left,1.0,26.005408699998952,,,,,,,,,,,,,,,,,,,,,,,,,,,,,,,,sub-136,2.0,random_dot,120.15620306353355,
left,left,speed,,,,,0.0,0.0,0.0,1.0,3.0,0.0,6.0,0.0,142.46655809999993,,,,,,,,,142.4594887000003,143.66592239999954,144.46569089999957,144.45840820000012,144.4584415999998,144.46569089999957,144.46569089999957,144.46569089999957,149.62513200000012,left,1.0,27.332784699999134,,,,,,149.45750380000027,,,,,,,,,,,,,,,,,,,,,,,,,,sub-136,2.0,random_dot,120.15620306353355,
right,right,speed,,,,,0.0,0.0,0.0,1.0,3.0,1.0,7.0,1.0,149.6324414999999,,,,,,,,,149.6261642999998,150.4324227999996,151.2325006000001,151.2249700000002,151.22499020000032,151.2325006000001,151.2325006000001,151.2325006000001,155.8917247999998,left,0.0,26.8314934,,,,,,,,,,,,,,,,,,,,,,,,,,,,,,,,sub-136,2.0,random_dot,120.15620306353355,
right,right,speed,,,,,0.0,0.0,0.0,1.0,4.0,0.0,8.0,1.0,155.89940930000012,,,,,,,,,155.8926381000001,157.09943079999994,157.89927679999985,157.8913118999999,157.8913319000003,157.89927679999985,157.89927679999985,157.89927679999985,160.25025800000003,left,0.0,24.525560599999157,,,,,,,,,,,,,,,,,,,,,,,,,,,,,,,,sub-136,2.0,random_dot,120.15620306353355,
left,left,speed,,,,,0.0,0.0,0.0,1.0,4.0,1.0,9.0,0.0,160.25806269999975,,,,,,,,,160.25117859999955,160.35773570000038,161.15732519999983,161.15015219999987,161.15017650000027,161.15732519999983,161.15732519999983,161.15732519999983,162.5842131999998,right,0.0,23.597487199999705,,,,,,,,,,,,,,,,,,,,,,,,,,,,,,,,sub-136,2.0,random_dot,120.15620306353355,
right,right,speed,,,,,0.0,0.0,0.0,1.0,5.0,0.0,10.0,1.0,162.59039080000002,,,,,,,,,162.58520990000034,162.69089179999992,163.49077789999956,163.4833717000001,163.48339140000007,163.49077789999956,163.49077789999956,163.49077789999956,167.06879889999982,left,0.0,25.747208699999646,,,,,,,,,,,,,,,,,,,,,,,,,,,,,,,,sub-136,2.0,random_dot,120.15620306353355,
left,left,speed,,,,,0.0,0.0,0.0,1.0,5.0,1.0,11.0,0.0,167.0738965999999,,,,,,,,,167.06966980000016,167.42432879999978,168.22404199999983,168.21717720000015,168.2171983999997,168.22404199999983,168.22404199999983,168.22404199999983,171.90014379999957,right,0.0,25.850994999999784,,,,,,,,,,,,,,,,,,,,,,,,,,,,,,,,sub-136,2.0,random_dot,120.15620306353355,
right,right,speed,,,,,0.0,0.0,0.0,1.0,6.0,0.0,12.0,1.0,171.9075557999995,,,,,,,,,171.9010773,172.00775350000004,172.80780380000033,172.7997607999996,172.79978130000018,172.80780380000033,172.80780380000033,172.80780380000033,175.417504,left,0.0,24.779408800000056,,,,,,,,,,,,,,,,,,,,,,,,,,,,,,,,sub-136,2.0,random_dot,120.15620306353355,
left,left,speed,,,,,0.0,0.0,0.0,1.0,6.0,1.0,13.0,0.0,175.42460370000026,,,,,,,,,175.4186268000003,176.22438799999964,177.02375529999972,177.01645199999984,177.01646989999972,177.02375529999972,177.02375529999972,177.02375529999972,180.2333969000001,right,0.0,25.37953440000001,,,,,,,,,,,,,,,,,,,,,,,,,,,,,,,,sub-136,2.0,random_dot,120.15620306353355,
left,left,speed,,,,,0.0,0.0,0.0,1.0,7.0,0.0,14.0,0.0,180.2413829999996,,,,,,,,,180.23426279999967,181.44089340000028,182.2408290000003,182.23338779999995,182.23340749999988,182.2408290000003,182.2408290000003,182.2408290000003,185.17554699999985,right,0.0,25.1069650999998,,,,,,,,,,,,,,,,,,,,,,,,,,,,,,,,sub-136,2.0,random_dot,120.15620306353355,
right,right,speed,,,,,0.0,0.0,0.0,1.0,7.0,1.0,15.0,1.0,185.18241940000007,,,,,,,,,185.17713699999968,185.2828367000002,186.08242749999957,186.07613469999976,186.07616640000012,186.08242749999957,186.08242749999957,186.08242749999957,189.6252126999998,left,0.0,25.71933739999986,,,,,,,,,,,,,,,,,,,,,,,,,,,,,,,,sub-136,2.0,random_dot,120.15620306353355,
left,left,speed,,,,,0.0,0.0,0.0,1.0,8.0,0.0,16.0,0.0,189.63259480000036,,,,,,,,,189.62610159999983,189.7324762999997,190.5331127999998,190.52500260000036,190.5250225,190.5331127999998,190.5331127999998,190.5331127999998,195.55876590000025,right,0.0,27.196775700000217,,,,,,195.5242421000003,,,,,,,,,,,,,,,,,,,,,,,,,,sub-136,2.0,random_dot,120.15620306353355,
right,right,speed,,,,,0.0,0.0,0.0,1.0,8.0,1.0,17.0,1.0,195.56551039999977,,,,,,,,,195.56061810000028,195.91597699999969,196.71962110000004,196.7118260999996,196.71184399999947,196.71962110000004,196.71962110000004,196.71962110000004,198.21159309999985,right,1.0,23.6661454999994,,,,,,,,,,,,,,,,,,,,,,,,,,,,,,,,sub-136,2.0,random_dot,120.15620306353355,
left,left,speed,,,,,0.0,0.0,0.0,1.0,9.0,0.0,18.0,0.0,198.21906709999985,,,,,,,,,198.2125124000004,198.3189268999995,199.11913559999996,199.11150540000017,199.11152609999957,199.11913559999996,199.11913559999996,199.11913559999996,203.23680109999987,left,1.0,26.28938360000029,,,,,,,,,,,,,,,,,,,,,,,,,,,,,,,,sub-136,2.0,random_dot,120.15620306353355,
right,right,speed,,,,,0.0,0.0,0.0,1.0,9.0,1.0,19.0,1.0,203.24381619999983,,,,,,,,,203.2384046999996,203.5939731999997,204.39349589999983,204.3871065000003,204.38712769999984,204.39349589999983,204.39349589999983,204.39349589999983,209.08657179999955,left,0.0,26.86637780000001,,,,,,,,,,,,,,,,,,,,,,,,,,,,,,,,sub-136,2.0,random_dot,120.15620306353355,
right,right,speed,,,,,0.0,0.0,0.0,1.0,10.0,0.0,20.0,1.0,209.0941689000001,,,,,,,,,209.0874704000007,209.44418060000044,210.2439887999999,210.23660219999965,210.23663600000052,210.2439887999999,210.2439887999999,210.2439887999999,214.27896620000047,right,1.0,26.20789650000006,,,,,,,,,,,,,,,,,,,,,,,,,,,,,,,,sub-136,2.0,random_dot,120.15620306353355,
left,left,speed,,,,,0.0,0.0,0.0,1.0,10.0,1.0,21.0,0.0,214.2858045999992,,,,,,,,,214.2798491999993,215.0858287000001,215.8859237000006,215.87788330000055,215.87790290000063,215.8859237000006,215.8859237000006,215.8859237000006,217.8624953999997,left,1.0,24.14701749999949,,,,,,,,,,,,,,,,,,,,,,,,,,,,,,,,sub-136,2.0,random_dot,120.15620306353355,
left,left,speed,,,,,0.0,0.0,0.0,1.0,11.0,0.0,22.0,0.0,217.86889000000065,,,,,,,,,217.8634181999996,217.96921869999915,218.7690589999993,218.7612369000008,218.7612610999995,218.7690589999993,218.7690589999993,218.7690589999993,219.80311510000047,left,1.0,23.20940410000003,,,,,,,,,,,,,,,,,,,,,,,,,,,,,,,,sub-136,2.0,random_dot,120.15620306353355,
right,right,speed,,,,,0.0,0.0,0.0,1.0,11.0,1.0,23.0,1.0,219.8106964000008,,,,,,,,,219.8039963000001,219.91070630000013,220.7106794000001,220.70317410000007,220.7031976999997,220.7106794000001,220.7106794000001,220.7106794000001,221.5115923000003,right,1.0,22.97722629999953,,,,,,,,,,,,,,,,,,,,,,,,,,,,,,,,sub-136,2.0,random_dot,120.15620306353355,
left,left,speed,,,,,0.0,0.0,0.0,1.0,12.0,0.0,24.0,0.0,221.51920100000007,,,,,,,,,221.51248269999903,222.7189451000004,223.51905299999908,223.51148379999995,223.5115108,223.51905299999908,223.51905299999908,223.51905299999908,224.27844020000063,left,1.0,22.932723899999477,,,,,,,,,,,,,,,,,,,,,,,,,,,,,,,,sub-136,2.0,random_dot,120.15620306353355,
right,right,speed,,,,,0.0,0.0,0.0,1.0,12.0,1.0,25.0,1.0,224.28576329999945,,,,,,,,,224.2793391999994,224.6357780999997,225.43562180000023,225.4293712000008,225.4293912999992,225.43562180000023,225.43562180000023,225.43562180000023,226.21160709999916,right,1.0,22.95020210000075,,,,,,,,,,,,,,,,,,,,,,,,,,,,,,,,sub-136,2.0,random_dot,120.15620306353355,
right,right,speed,,,,,0.0,0.0,0.0,1.0,13.0,0.0,26.0,1.0,226.2196673000008,,,,,,,,,226.21263819999967,226.5613712999993,227.3607579999998,227.35289040000043,227.35290900000015,227.3607579999998,227.3607579999998,227.3607579999998,229.9531990000005,right,1.0,24.76324139999997,,,,,,,,,,,,,,,,,,,,,,,,,,,,,,,,sub-136,2.0,random_dot,120.15620306353355,
left,left,speed,,,,,0.0,0.0,0.0,1.0,13.0,1.0,27.0,0.0,229.96083380000076,,,,,,,,,229.95417569999967,230.76120609999907,231.5606834,231.552917,231.5529347999991,231.5606834,231.5606834,231.5606834,233.2370605999995,left,1.0,23.84890339999947,,,,,,,,,,,,,,,,,,,,,,,,,,,,,,,,sub-136,2.0,random_dot,120.15620306353355,
left,left,speed,,,,,0.0,0.0,0.0,1.0,14.0,0.0,28.0,0.0,233.24350119999963,,,,,,,,,233.2387735000002,233.594016,234.3940673999996,234.38641700000065,234.3864447000005,234.3940673999996,234.3940673999996,234.3940673999996,237.11150799999905,right,0.0,24.893806799998856,,,,,,,,,,,,,,,,,,,,,,,,,,,,,,,,sub-136,2.0,random_dot,120.15620306353355,
right,right,speed,,,,,0.0,0.0,0.0,1.0,14.0,1.0,29.0,1.0,237.1189796000008,,,,,,,,,237.11243600000037,237.46908519999943,238.26977220000023,238.2614557999996,238.26147450000008,238.26977220000023,238.26977220000023,238.26977220000023,239.9866140000004,left,0.0,23.887799799998906,,,,,,,,,,,,,,,,,,,,,,,,,,,,,,,,sub-136,2.0,random_dot,120.15620306353355,
right,right,speed,,,,,0.0,0.0,0.0,1.0,15.0,0.0,30.0,1.0,239.99421119999988,,,,,,,,,239.98752689999947,241.1941558000008,241.99402719999944,241.9864312,241.98647880000044,241.99402719999944,241.99402719999944,241.99402719999944,243.19574139999983,right,1.0,23.372027999999773,,,,,,,,,,,,,,,,,,,,,,,,,,,,,,,,sub-136,2.0,random_dot,120.15620306353355,
left,left,speed,,,,,0.0,0.0,0.0,1.0,15.0,1.0,31.0,0.0,243.20242609999968,,,,,,,,,243.1966958999992,243.3026304999994,244.1019237999999,244.09524859999965,244.09527059999985,244.1019237999999,244.1019237999999,244.1019237999999,244.97010510000015,left,1.0,23.04190960000051,,,,,,,,,,,,,,,,,,,,,,,,,,,,,,,,sub-136,2.0,random_dot,120.15620306353355,
right,right,speed,,,,,0.0,0.0,0.0,1.0,16.0,0.0,32.0,1.0,244.97735190000003,,,,,,,,,244.9717843000008,245.77749390000008,246.57759589999927,246.56973070000004,246.5697549000006,246.57759589999927,246.57759589999927,246.57759589999927,248.1195032000005,right,1.0,23.716734700001325,,,,,,,,,,,,,,,,,,,,,,,,,,,,,,,,sub-136,2.0,random_dot,120.15620306353355,
left,left,speed,,,,,0.0,0.0,0.0,1.0,16.0,1.0,33.0,0.0,248.1275957000007,,,,,,,,,248.12046479999933,248.46904669999915,249.26903840000068,249.26172920000045,249.26174959999932,249.26903840000068,249.26903840000068,249.26903840000068,250.0452379999997,left,1.0,22.946999399999186,,,,,,,,,,,,,,,,,,,,,,,,,,,,,,,,sub-136,2.0,random_dot,120.15620306353355,
left,left,speed,,,,,0.0,0.0,0.0,1.0,17.0,0.0,34.0,0.0,250.05230629999917,,,,,,,,,250.0467639999997,251.25265750000017,252.05242819999967,252.04491639999924,252.0449338000008,252.05242819999967,252.05242819999967,252.05242819999967,253.28700839999965,right,0.0,23.411072499999136,,,,,,,,,,,,,,,,,,,,,,,,,,,,,,,,sub-136,2.0,random_dot,120.15620306353355,
right,right,speed,,,,,0.0,0.0,0.0,1.0,17.0,1.0,35.0,1.0,253.2948224999991,,,,,,,,,253.28791249999904,254.49410070000067,255.2940532999992,255.28607610000017,255.28609790000064,255.2940532999992,255.2940532999992,255.2940532999992,256.42850459999954,left,0.0,23.31028829999923,,,,,,,,,,,,,,,,,,,,,,,,,,,,,,,,sub-136,2.0,random_dot,120.15620306353355,
right,right,speed,,,,,0.0,0.0,0.0,1.0,18.0,0.0,36.0,1.0,256.4358258000002,,,,,,,,,256.42939039999965,257.2360803999991,258.0356433999996,258.0285613999995,258.0285945000005,258.0356433999996,258.0356433999996,258.0356433999996,258.74502420000044,right,1.0,22.882789299999786,,,,,,,,,,,,,,,,,,,,,,,,,,,,,,,,sub-136,2.0,random_dot,120.15620306353355,
left,left,speed,,,,,0.0,0.0,0.0,1.0,18.0,1.0,37.0,0.0,258.7525464,,,,,,,,,258.7460493999997,259.10275869999987,259.9025276000002,259.8944898,259.8945104000004,259.9025276000002,259.9025276000002,259.9025276000002,260.4366548000007,left,1.0,22.709928399999622,,,,,,,,,,,,,,,,,,,,,,,,,,,,,,,,sub-136,2.0,random_dot,120.15620306353355,
left,left,speed,,,,,0.0,0.0,0.0,1.0,19.0,0.0,38.0,0.0,260.4442014999995,,,,,,,,,260.43755409999994,261.2442390999995,262.04425919999903,262.0364154000008,262.0364345000007,262.04425919999903,262.04425919999903,262.04425919999903,264.81148850000045,right,0.0,24.941303999999946,,,,,,,,,,,,,,,,,,,,,,,,,,,,,,,,sub-136,2.0,random_dot,120.15620306353355,
right,right,speed,,,,,0.0,0.0,0.0,1.0,19.0,1.0,39.0,1.0,264.81905760000063,,,,,,,,,264.8125592000006,265.6129907000004,266.41273230000024,266.4051019999997,266.4051355999991,266.41273230000024,266.41273230000024,266.41273230000024,268.5133971999994,right,1.0,24.270263200000045,,,,,,,,,,,,,,,,,,,,,,,,,,,,,,,,sub-136,2.0,random_dot,120.15620306353355,
left,left,speed,,,,,0.0,0.0,0.0,1.0,20.0,0.0,40.0,0.0,268.5213212000008,,,,,,,,,268.5144098999999,269.3183782000005,270.1187108000004,270.11047860000053,270.1105130999995,270.1187108000004,270.1187108000004,270.1187108000004,272.7948237999999,left,1.0,24.852910699999484,,,,,,,,,,,,,,,,,,,,,,,,,,,,,,,,sub-136,2.0,random_dot,120.15620306353355,
right,right,speed,,,,,0.0,0.0,0.0,1.0,20.0,1.0,41.0,1.0,272.80233209999915,,,,,,,,,272.7957073000007,274.0015560999991,274.80231360000016,274.79425209999954,274.7942709999997,274.80231360000016,274.80231360000016,274.80231360000016,277.1190926999998,right,1.0,24.486589399999502,,,,,,,,,,,,,,,,,,,,,,,,,,,,,,,,sub-136,2.0,random_dot,120.15620306353355,
left,left,speed,,,,,0.0,0.0,0.0,1.0,21.0,0.0,42.0,0.0,277.1270386999995,,,,,,,,,277.1199888000001,277.92648590000044,278.72636859999966,278.71993629999906,278.7199563999993,278.72636859999966,278.72636859999966,278.72636859999966,280.7279131999994,left,1.0,24.178431700000147,,,,,,,,,,,,,,,,,,,,,,,,,,,,,,,,sub-136,2.0,random_dot,120.15620306353355,
right,right,speed,,,,,0.0,0.0,0.0,1.0,21.0,1.0,43.0,1.0,280.7348635000008,,,,,,,,,280.7288120000003,281.5348125999999,282.33498339999915,282.3270356999992,282.3270557000005,282.33498339999915,282.33498339999915,282.33498339999915,283.76926659999936,left,0.0,23.61096429999816,,,,,,,,,,,,,,,,,,,,,,,,,,,,,,,,sub-136,2.0,random_dot,120.15620306353355,
left,left,speed,,,,,0.0,0.0,0.0,1.0,22.0,0.0,44.0,0.0,283.77675569999974,,,,,,,,,283.77017070000056,283.87653670000054,284.67701020000004,284.6687080999991,284.66872710000007,284.67701020000004,284.67701020000004,284.67701020000004,286.05267600000025,left,1.0,23.54943529999946,,,,,,,,,,,,,,,,,,,,,,,,,,,,,,,,sub-136,2.0,random_dot,120.15620306353355,
right,right,speed,,,,,0.0,0.0,0.0,1.0,22.0,1.0,45.0,1.0,286.0602484000001,,,,,,,,,286.0536922000001,286.4098205,287.21059680000053,287.2019570000002,287.20197669999925,287.21059680000053,287.21059680000053,287.21059680000053,288.2277289999993,right,1.0,23.18820229999983,,,,,,,,,,,,,,,,,,,,,,,,,,,,,,,,sub-136,2.0,random_dot,120.15620306353355,
left,left,speed,,,,,0.0,0.0,0.0,1.0,23.0,0.0,46.0,0.0,288.2354177999996,,,,,,,,,288.2286030000005,288.58509759999924,289.38503500000024,289.3778362999992,289.3778554999999,289.38503500000024,289.38503500000024,289.38503500000024,290.6268919000004,left,1.0,23.41224770000008,,,,,,,,,,,,,,,,,,,,,,,,,,,,,,,,sub-136,2.0,random_dot,120.15620306353355,
right,right,speed,,,,,0.0,0.0,0.0,1.0,23.0,1.0,47.0,1.0,290.63496570000007,,,,,,,,,290.6277734999994,291.4271813999994,292.2265952000007,292.2193003000002,292.21931929999937,292.2265952000007,292.2265952000007,292.2265952000007,297.0521605999993,left,0.0,27.001300800000536,,,,,,,,,,,,,,,,,,,,,,,,,,,,,,,,sub-136,2.0,random_dot,120.15620306353355,
right,right,speed,,,,,0.0,0.0,0.0,1.0,24.0,0.0,48.0,1.0,297.0603863999995,,,,,,,,,297.0531082999996,297.4018599000001,298.2019957999992,298.1942389000005,298.19425689999935,298.2019957999992,298.2019957999992,298.2019957999992,299.7692746999992,right,1.0,23.74394199999915,,,,,,,,,,,,,,,,,,,,,,,,,,,,,,,,sub-136,2.0,random_dot,120.15620306353355,
left,left,speed,,,,,0.0,0.0,0.0,1.0,24.0,1.0,49.0,0.0,299.7765327999996,,,,,,,,,299.77019030000065,299.8765747999996,300.6763478999992,300.6698666000002,300.6698860000006,300.6763478999992,300.6763478999992,300.6763478999992,302.3109458000008,left,1.0,23.80588230000103,,,,,,,,,,,,,,,,,,,,,,,,,,,,,,,,sub-136,2.0,random_dot,120.15620306353355,
left,left,speed,,,,,0.0,0.0,0.0,1.0,25.0,0.0,50.0,0.0,302.31819500000074,,,,,,,,,302.3123059,302.4184735000008,303.2177462999998,303.21049369999946,303.21052169999984,303.2177462999998,303.2177462999998,303.2177462999998,305.0110247999992,left,1.0,23.966718999998196,,,,,,,,,,,,,,,,,,,,,,,,,,,,,,,,sub-136,2.0,random_dot,120.15620306353355,
right,right,speed,,,,,0.0,0.0,0.0,1.0,25.0,1.0,51.0,1.0,305.0189782000007,,,,,,,,,305.0118967000008,305.1184519000008,305.9182331999991,305.9103265999993,305.9103451000001,305.9182331999991,305.9182331999991,305.9182331999991,306.7281379999995,right,1.0,22.98058780000065,,,,,,,,,,,,,,,,,,,,,,,,,,,,,,,,sub-136,2.0,random_dot,120.15620306353355,
left,left,speed,,,,,0.0,0.0,0.0,1.0,26.0,0.0,52.0,0.0,306.7347667999993,,,,,,,,,306.72924259999945,307.0852533999996,307.8851800999992,307.87704310000026,307.8770606999997,307.8851800999992,307.8851800999992,307.8851800999992,309.2360701000007,right,0.0,23.52135400000043,,,,,,,,,,,,,,,,,,,,,,,,,,,,,,,,sub-136,2.0,random_dot,120.15620306353355,
right,right,speed,,,,,0.0,0.0,0.0,1.0,26.0,1.0,53.0,1.0,309.2433236999996,,,,,,,,,309.2369542999995,309.3432447999994,310.1430313999999,310.1357084000001,310.1357328000004,310.1430313999999,310.1430313999999,310.1430313999999,313.01102470000023,left,0.0,25.040301899998667,,,,,,,,,,,,,,,,,,,,,,,,,,,,,,,,sub-136,2.0,random_dot,120.15620306353355,
left,left,speed,,,,,0.0,0.0,0.0,1.0,27.0,0.0,54.0,0.0,313.0184459999992,,,,,,,,,313.0119829999994,313.8184052000006,314.6183697000006,314.61055639999995,314.61057619999974,314.6183697000006,314.6183697000006,314.6183697000006,315.4700488999997,left,1.0,23.023482999999032,,,,,,,,,,,,,,,,,,,,,,,,,,,,,,,,sub-136,2.0,random_dot,120.15620306353355,
right,right,speed,,,,,0.0,0.0,0.0,1.0,27.0,1.0,55.0,1.0,315.4765718999997,,,,,,,,,315.47096130000045,316.2770102000004,317.07701010000073,317.06878550000056,317.0688044000008,317.07701010000073,317.07701010000073,317.07701010000073,318.9530581000008,left,0.0,24.04731449999963,,,,,,,,,,,,,,,,,,,,,,,,,,,,,,,,sub-136,2.0,random_dot,120.15620306353355,
right,right,speed,,,,,0.0,0.0,0.0,1.0,28.0,0.0,56.0,1.0,318.96071369999936,,,,,,,,,318.95393779999995,319.7608570000002,320.56013260000054,320.55218870000044,320.5522066000003,320.56013260000054,320.56013260000054,320.56013260000054,322.46922189999987,left,0.0,24.08035179999933,,,,,,,,,,,,,,,,,,,,,,,,,,,,,,,,sub-136,2.0,random_dot,120.15620306353355,
left,left,speed,,,,,0.0,0.0,0.0,1.0,28.0,1.0,57.0,0.0,322.4766277000008,,,,,,,,,322.4700970999993,323.6767410999992,324.47683509999933,324.4692488999999,324.4692686000008,324.47683509999933,324.47683509999933,324.47683509999933,326.1857432999996,left,1.0,23.88421599999856,,,,,,,,,,,,,,,,,,,,,,,,,,,,,,,,sub-136,2.0,random_dot,120.15620306353355,
right,right,speed,,,,,0.0,0.0,0.0,1.0,29.0,0.0,58.0,1.0,326.1933161999996,,,,,,,,,326.18670160000056,327.3933353000002,328.19342190000043,328.18582460000016,328.1858440999995,328.19342190000043,328.19342190000043,328.19342190000043,329.7024857000006,right,1.0,23.67899849999958,,,,,,,,,,,,,,,,,,,,,,,,,,,,,,,,sub-136,2.0,random_dot,120.15620306353355,
left,left,speed,,,,,0.0,0.0,0.0,1.0,29.0,1.0,59.0,0.0,329.7101145000006,,,,,,,,,329.7033746999996,330.50998300000083,331.3102606999992,331.3024147000005,331.3024340000002,331.3102606999992,331.3102606999992,331.3102606999992,332.48619099999905,left,1.0,23.34677929999998,,,,,,,,,,,,,,,,,,,,,,,,,,,,,,,,sub-136,2.0,random_dot,120.15620306353355,
,,speed,,,,,0.0,0.0,0.0,1.0,,,,,,,,,,,,,,,,,,,,,,,,,,,,,,,,,,,,,,,,,,,,,,,,,,,,,,,,,sub-136,2.0,random_dot,120.15620306353355,
right,right,accuracy,,,,,0.0,1.0,1.0,0.0,0.0,0.0,0.0,1.0,335.1097122000001,,,,,,,,,335.1056228000007,335.20136659999935,336.00142139999934,335.99361659999977,335.9936363000006,336.00142139999934,336.00142139999934,336.00142139999934,336.7693174999995,left,0.0,22.93934160000026,,,,,,,,,,,,,,,,,,,,,332.4871618999996,332.5060891000003,332.5060891000003,335.09858339999937,space,24.765108899999177,,,,,,sub-136,2.0,random_dot,120.15620306353355,
left,left,accuracy,,,,,0.0,1.0,1.0,0.0,0.0,1.0,1.0,0.0,336.7762854999992,,,,,,,,,336.7705264999995,337.5765868999997,338.3766033999991,338.3685016999998,338.3685254000002,338.3766033999991,338.3766033999991,338.3766033999991,339.27730299999985,left,1.0,23.07410409999829,,,,,,,,,,,,,,,,,,,,,,,,,,,,,,,,sub-136,2.0,random_dot,120.15620306353355,
left,left,accuracy,,,,,0.0,1.0,1.0,0.0,1.0,0.0,2.0,0.0,339.28494149999915,,,,,,,,,339.2782123999996,340.4848587999996,341.28481999999985,341.27700989999994,341.27702989999943,341.28481999999985,341.28481999999985,341.28481999999985,344.00233220000064,right,0.0,24.89210730000013,,,,,,,,,,,,,,,,,,,,,,,,,,,,,,,,sub-136,2.0,random_dot,120.15620306353355,
right,right,accuracy,,,,,0.0,1.0,1.0,0.0,1.0,1.0,3.0,1.0,344.0097754000008,,,,,,,,,344.00328979999995,345.20989160000045,346.01033299999926,346.00231749999966,346.0023374999992,346.01033299999926,346.01033299999926,346.01033299999926,347.3190392000006,left,0.0,23.478301099999957,,,,,,,,,,,,,,,,,,,,,,,,,,,,,,,,sub-136,2.0,random_dot,120.15620306353355,
right,right,accuracy,,,,,0.0,1.0,1.0,0.0,2.0,0.0,4.0,1.0,347.3266948999999,,,,,,,,,347.31990529999985,347.4183559000003,348.21824819999983,348.2107645000005,348.2107838999991,348.21824819999983,348.21824819999983,348.21824819999983,350.9447066999992,right,1.0,24.90310049999971,,,,,,,,,,,,,,,,,,,,,,,,,,,,,,,,sub-136,2.0,random_dot,120.15620306353355,
left,left,accuracy,,,,,0.0,1.0,1.0,0.0,2.0,1.0,5.0,0.0,350.95165539999925,,,,,,,,,350.9456024000001,351.0519544000008,351.85151979999955,351.84361249999984,351.8436319000002,351.85151979999955,351.85151979999955,351.85151979999955,352.6692697999997,left,1.0,22.99130299999888,,,,,,,,,,,,,,,,,,,,,,,,,,,,,,,,sub-136,2.0,random_dot,120.15620306353355,
right,right,accuracy,,,,,0.0,1.0,1.0,0.0,3.0,0.0,6.0,1.0,352.6767969999992,,,,,,,,,352.6701939000004,353.02663289999964,353.8266601000005,353.81914699999925,353.81917130000056,353.8266601000005,353.8266601000005,353.8266601000005,355.4202667,right,1.0,23.76508509999985,,,,,,,,,,,,,,,,,,,,,,,,,,,,,,,,sub-136,2.0,random_dot,120.15620306353355,
left,left,accuracy,,,,,0.0,1.0,1.0,0.0,3.0,1.0,7.0,0.0,355.42616870000074,,,,,,,,,355.4211265000004,355.5264775000005,356.32662400000027,356.3188383000006,356.3188581000004,356.32662400000027,356.32662400000027,356.32662400000027,357.4452869000006,left,1.0,23.28989869999896,,,,,,,,,,,,,,,,,,,,,,,,,,,,,,,,sub-136,2.0,random_dot,120.15620306353355,
left,left,accuracy,,,,,0.0,1.0,1.0,0.0,4.0,0.0,8.0,0.0,357.4511998000007,,,,,,,,,357.4468903999996,357.5521674999991,358.35137309999936,358.3437318999995,358.3437583999994,358.35137309999936,358.35137309999936,358.35137309999936,360.1523826999992,right,0.0,23.974849499998527,,,,,,,,,,,,,,,,,,,,,,,,,,,,,,,,sub-136,2.0,random_dot,120.15620306353355,
right,right,accuracy,,,,,0.0,1.0,1.0,0.0,4.0,1.0,9.0,1.0,360.1603673,,,,,,,,,360.1532641999993,360.9598646000004,361.75981779999984,361.7520185999993,361.75203710000005,361.75981779999984,361.75981779999984,361.75981779999984,363.7526816,left,0.0,24.16523310000048,,,,,,,,,,,,,,,,,,,,,,,,,,,,,,,,sub-136,2.0,random_dot,120.15620306353355,
left,left,accuracy,,,,,0.0,1.0,1.0,0.0,5.0,0.0,10.0,0.0,363.7599304999994,,,,,,,,,363.7535737000008,364.5599004000005,365.3599045000001,365.3521284999997,365.35215250000056,365.3599045000001,365.3599045000001,365.3599045000001,366.4609241999997,left,1.0,23.27654419999999,,,,,,,,,,,,,,,,,,,,,,,,,,,,,,,,sub-136,2.0,random_dot,120.15620306353355,
right,right,accuracy,,,,,0.0,1.0,1.0,0.0,5.0,1.0,11.0,1.0,366.4680839999992,,,,,,,,,366.4619570000005,366.56022960000064,367.3598768999991,367.3524339000005,367.3524540999997,367.3598768999991,367.3598768999991,367.3598768999991,370.03620519999913,left,0.0,24.853284800001347,,,,,,,,,,,,,,,,,,,,,,,,,,,,,,,,sub-136,2.0,random_dot,120.15620306353355,
left,left,accuracy,,,,,0.0,1.0,1.0,0.0,6.0,0.0,12.0,0.0,370.04315899999983,,,,,,,,,370.0371186999992,371.2435581,372.0428461000001,372.0357247000002,372.0357539000006,372.0428461000001,372.0428461000001,372.0428461000001,373.23609529999976,left,1.0,23.36712939999961,,,,,,,,,,,,,,,,,,,,,,,,,,,,,,,,sub-136,2.0,random_dot,120.15620306353355,
right,right,accuracy,,,,,0.0,1.0,1.0,0.0,6.0,1.0,13.0,1.0,373.2437342999992,,,,,,,,,373.2369819999994,373.5933921000005,374.3933401999993,374.3854108000005,374.3854301000001,374.3933401999993,374.3933401999993,374.3933401999993,376.6775884000008,left,0.0,24.45711379999921,,,,,,,,,,,,,,,,,,,,,,,,,,,,,,,,sub-136,2.0,random_dot,120.15620306353355,
left,left,accuracy,,,,,0.0,1.0,1.0,0.0,7.0,0.0,14.0,0.0,376.6856469000004,,,,,,,,,376.67848719999984,377.48503000000073,378.28510879999976,378.2771781999991,378.27719759999945,378.28510879999976,378.28510879999976,378.28510879999976,379.8860687999995,left,1.0,23.774143900000126,,,,,,,,,,,,,,,,,,,,,,,,,,,,,,,,sub-136,2.0,random_dot,120.15620306353355,
right,right,accuracy,,,,,0.0,1.0,1.0,0.0,7.0,1.0,15.0,1.0,379.8931131,,,,,,,,,379.8869925000008,379.99324930000057,380.7933844000008,380.7852742999994,380.7852921999993,380.7933844000008,380.7933844000008,380.7933844000008,384.22756369999934,right,1.0,25.607657699998526,,,,,,,,,,,,,,,,,,,,,,,,,,,,,,,,sub-136,2.0,random_dot,120.15620306353355,
left,left,accuracy,,,,,0.0,1.0,1.0,0.0,8.0,0.0,16.0,0.0,384.2352106999997,,,,,,,,,384.2284663,384.5849181000003,385.3843917000004,385.3774893,385.3775082999992,385.3843917000004,385.3843917000004,385.3843917000004,388.7108056999996,left,1.0,25.49782099999902,,,,,,,,,,,,,,,,,,,,,,,,,,,,,,,,sub-136,2.0,random_dot,120.15620306353355,
right,right,accuracy,,,,,0.0,1.0,1.0,0.0,8.0,1.0,17.0,1.0,388.71842299999935,,,,,,,,,388.7117246000007,389.5100548,390.3098104999999,390.3020877000008,390.30210689999967,390.3098104999999,390.3098104999999,390.3098104999999,391.82744999999977,left,0.0,23.69259200000124,,,,,,,,,,,,,,,,,,,,,,,,,,,,,,,,sub-136,2.0,random_dot,120.15620306353355,
left,left,accuracy,,,,,0.0,1.0,1.0,0.0,9.0,0.0,18.0,0.0,391.8354699000001,,,,,,,,,391.8283493000008,392.6351901000007,393.4352609999996,393.4270308999994,393.4270497999996,393.4352609999996,393.4352609999996,393.4352609999996,396.0278528999997,right,0.0,24.765299599999707,,,,,,,,,,,,,,,,,,,,,,,,,,,,,,,,sub-136,2.0,random_dot,120.15620306353355,
right,right,accuracy,,,,,0.0,1.0,1.0,0.0,9.0,1.0,19.0,1.0,396.03515310000057,,,,,,,,,396.0290646000003,396.3850592999997,397.1849188999995,397.17708369999946,397.1771013999996,397.1849188999995,397.1849188999995,397.1849188999995,398.7443496999995,left,0.0,23.733033000000432,,,,,,,,,,,,,,,,,,,,,,,,,,,,,,,,sub-136,2.0,random_dot,120.15620306353355,
right,right,accuracy,,,,,0.0,1.0,1.0,0.0,10.0,0.0,20.0,1.0,398.7515964999993,,,,,,,,,398.74523990000034,398.8440543999996,399.6435728000006,399.6357947000006,399.63581260000046,399.6435728000006,399.6435728000006,399.6435728000006,401.9609816999992,right,1.0,24.48992309999994,,,,,,,,,,,,,,,,,,,,,,,,,,,,,,,,sub-136,2.0,random_dot,120.15620306353355,
left,left,accuracy,,,,,0.0,1.0,1.0,0.0,10.0,1.0,21.0,0.0,401.9684437000005,,,,,,,,,401.9618564999992,402.3186223999992,403.1182896,403.11101139999937,403.11103699999967,403.1182896,403.1182896,403.1182896,404.5361075999999,left,1.0,23.592693799999324,,,,,,,,,,,,,,,,,,,,,,,,,,,,,,,,sub-136,2.0,random_dot,120.15620306353355,
left,left,accuracy,,,,,0.0,1.0,1.0,0.0,11.0,0.0,22.0,0.0,404.5434255999999,,,,,,,,,404.5370348999995,404.6433936000003,405.44330999999966,405.4359035999996,405.4359365999999,405.44330999999966,405.44330999999966,405.44330999999966,408.0776586999991,right,0.0,24.80746949999957,,,,,,,,,,,,,,,,,,,,,,,,,,,,,,,,sub-136,2.0,random_dot,120.15620306353355,
right,right,accuracy,,,,,0.0,1.0,1.0,0.0,11.0,1.0,23.0,1.0,408.0849871,,,,,,,,,408.07868569999937,408.4349885999991,409.2349339999992,409.2271981000004,409.2272165000004,409.2349339999992,409.2349339999992,409.2349339999992,410.4126552000007,left,0.0,23.348205700000108,,,,,,,,,,,,,,,,,,,,,,,,,,,,,,,,sub-136,2.0,random_dot,120.15620306353355,
left,left,accuracy,,,,,0.0,1.0,1.0,0.0,12.0,0.0,24.0,0.0,410.4182769000008,,,,,,,,,410.4136033000004,411.6184703000008,412.4182759999994,412.4116122000005,412.4116461000003,412.4182759999994,412.4182759999994,412.4182759999994,414.6688423000005,right,0.0,24.422535300000163,,,,,,,,,,,,,,,,,,,,,,,,,,,,,,,,sub-136,2.0,random_dot,120.15620306353355,
right,right,accuracy,,,,,0.0,1.0,1.0,0.0,12.0,1.0,25.0,1.0,414.6767633999998,,,,,,,,,414.6697458999997,415.0271777000007,415.827180199999,415.8189823999992,415.8190026999992,415.827180199999,415.827180199999,415.827180199999,416.8698087999992,right,1.0,23.213285499999984,,,,,,,,,,,,,,,,,,,,,,,,,,,,,,,,sub-136,2.0,random_dot,120.15620306353355,
left,left,accuracy,,,,,0.0,1.0,1.0,0.0,13.0,0.0,26.0,0.0,416.87742960000014,,,,,,,,,416.8708082999992,416.9766826999994,417.7765210999996,417.7691961999999,417.76923110000007,417.7765210999996,417.7765210999996,417.7765210999996,418.5777804,left,1.0,22.97549160000017,,,,,,,,,,,,,,,,,,,,,,,,,,,,,,,,sub-136,2.0,random_dot,120.15620306353355,
right,right,accuracy,,,,,0.0,1.0,1.0,0.0,13.0,1.0,27.0,1.0,418.5848474000004,,,,,,,,,418.57920060000015,419.7850642999993,420.5850134000002,420.5773959000008,420.5774157000005,420.5850134000002,420.5850134000002,420.5850134000002,421.59469889999946,right,1.0,23.18591000000015,,,,,,,,,,,,,,,,,,,,,,,,,,,,,,,,sub-136,2.0,random_dot,120.15620306353355,
right,right,accuracy,,,,,0.0,1.0,1.0,0.0,14.0,0.0,28.0,1.0,421.6021074999999,,,,,,,,,421.5955731999993,422.8019661000008,423.6016957999991,423.59399269999903,423.59401290000005,423.6016957999991,423.6016957999991,423.6016957999991,425.8608706999994,right,1.0,24.43037709999953,,,,,,,,,,,,,,,,,,,,,,,,,,,,,,,,sub-136,2.0,random_dot,120.15620306353355,
left,left,accuracy,,,,,0.0,1.0,1.0,0.0,14.0,1.0,29.0,0.0,425.86854159999984,,,,,,,,,425.86175529999946,425.9685564999991,426.7681734999997,426.7609526999995,426.7609863000007,426.7681734999997,426.7681734999997,426.7681734999997,428.0278518999994,left,1.0,23.43198889999985,,,,,,,,,,,,,,,,,,,,,,,,,,,,,,,,sub-136,2.0,random_dot,120.15620306353355,
right,right,accuracy,,,,,0.0,1.0,1.0,0.0,15.0,0.0,30.0,1.0,428.0349483,,,,,,,,,428.0294968999997,428.1350035000005,428.9351269999997,428.9272647999997,428.9272824999998,428.9351269999997,428.9351269999997,428.9351269999997,430.0781846,right,1.0,23.31493090000004,,,,,,,,,,,,,,,,,,,,,,,,,,,,,,,,sub-136,2.0,random_dot,120.15620306353355,
left,left,accuracy,,,,,0.0,1.0,1.0,0.0,15.0,1.0,31.0,0.0,430.0856754000006,,,,,,,,,430.0792393999991,430.8850749999992,431.68480030000046,431.6786631999994,431.6786836999991,431.68480030000046,431.68480030000046,431.68480030000046,432.4192749000004,left,1.0,22.908714600000167,,,,,,,,,,,,,,,,,,,,,,,,,,,,,,,,sub-136,2.0,random_dot,120.15620306353355,
right,right,accuracy,,,,,0.0,1.0,1.0,0.0,16.0,0.0,32.0,1.0,432.4266722000002,,,,,,,,,432.4201884000004,432.7769798,433.57640529999935,433.5689298999996,433.5689554999999,433.57640529999935,433.57640529999935,433.57640529999935,434.5358557999998,right,1.0,23.134167300000627,,,,,,,,,,,,,,,,,,,,,,,,,,,,,,,,sub-136,2.0,random_dot,120.15620306353355,
left,left,accuracy,,,,,0.0,1.0,1.0,0.0,16.0,1.0,33.0,0.0,434.5440762999997,,,,,,,,,434.53674670000055,435.33519350000006,436.1352032000004,436.1281470999993,436.1281809000002,436.1352032000004,436.1352032000004,436.1352032000004,437.3274463000007,right,0.0,23.36327319999873,,,,,,,,,,,,,,,,,,,,,,,,,,,,,,,,sub-136,2.0,random_dot,120.15620306353355,
right,right,accuracy,,,,,0.0,1.0,1.0,0.0,17.0,0.0,34.0,1.0,437.33536790000016,,,,,,,,,437.3283505999998,437.43516720000025,438.235162,438.2281162999998,438.2281498999992,438.235162,438.235162,438.235162,440.8107768,right,1.0,24.749163399999816,,,,,,,,,,,,,,,,,,,,,,,,,,,,,,,,sub-136,2.0,random_dot,120.15620306353355,
left,left,accuracy,,,,,0.0,1.0,1.0,0.0,17.0,1.0,35.0,0.0,440.81839649999984,,,,,,,,,440.8116832000005,442.01903589999984,442.8186789000001,442.8110681999997,442.81108869999935,442.8186789000001,442.8186789000001,442.8186789000001,443.8285256999998,right,0.0,23.186597599999004,,,,,,,,,,,,,,,,,,,,,,,,,,,,,,,,sub-136,2.0,random_dot,120.15620306353355,
right,right,accuracy,,,,,0.0,1.0,1.0,0.0,18.0,0.0,36.0,1.0,443.8353089000002,,,,,,,,,443.82939739999983,444.1850349000006,444.9852342999993,444.9776479999992,444.9776740999996,444.9852342999993,444.9852342999993,444.9852342999993,445.96151270000064,right,1.0,23.15209370000048,,,,,,,,,,,,,,,,,,,,,,,,,,,,,,,,sub-136,2.0,random_dot,120.15620306353355,
left,left,accuracy,,,,,0.0,1.0,1.0,0.0,18.0,1.0,37.0,0.0,445.9683386000006,,,,,,,,,445.9624071999997,446.7685916,447.5684850000007,447.5607864000003,447.5608062000001,447.5684850000007,447.5684850000007,447.5684850000007,451.3201447000001,right,0.0,25.92843339999854,,,,,,,,,,,,,,,,,,,,,,,,,,,,,,,,sub-136,2.0,random_dot,120.15620306353355,
left,left,accuracy,,,,,0.0,1.0,1.0,0.0,19.0,0.0,38.0,0.0,451.32680399999936,,,,,,,,,451.3210611000004,452.1265723000006,452.92671620000056,452.9191106000008,452.9191302999998,452.92671620000056,452.92671620000056,452.92671620000056,455.46147180000025,right,0.0,24.71121679999851,,,,,,,,,,,,,,,,,,,,,,,,,,,,,,,,sub-136,2.0,random_dot,120.15620306353355,
right,right,accuracy,,,,,0.0,1.0,1.0,0.0,19.0,1.0,39.0,1.0,455.46867010000005,,,,,,,,,455.4623560999999,455.5689601000004,456.3683468999998,456.36122220000016,456.3612614999993,456.3683468999998,456.3683468999998,456.3683468999998,457.71129220000057,right,1.0,23.517223400000148,,,,,,,,,,,,,,,,,,,,,,,,,,,,,,,,sub-136,2.0,random_dot,120.15620306353355,
left,left,accuracy,,,,,0.0,1.0,1.0,0.0,20.0,0.0,40.0,0.0,457.7185854999998,,,,,,,,,457.7121844999992,458.06868470000063,458.8691367000001,458.8605797999999,458.8605980999992,458.8691367000001,458.8691367000001,458.8691367000001,472.8778049999992,right,0.0,36.18240199999855,,,,,,463.8611386999992,,,,,,,,,,,,,,,,,,,,,,,,,,sub-136,2.0,random_dot,120.15620306353355,
right,right,accuracy,,,,,0.0,1.0,1.0,0.0,20.0,1.0,41.0,1.0,472.8853011000001,,,,,,,,,472.8787029999994,474.0852901999997,474.8851120999998,474.8777940999999,474.8778278,474.8851120999998,474.8851120999998,474.8851120999998,476.74438610000016,right,1.0,24.032920799998465,,,,,,,,,,,,,,,,,,,,,,,,,,,,,,,,sub-136,2.0,random_dot,120.15620306353355,
right,right,accuracy,,,,,0.0,1.0,1.0,0.0,21.0,0.0,42.0,1.0,476.7518424,,,,,,,,,476.7453608000005,477.9518866000008,478.7522555999994,478.74480010000025,478.7448319999994,478.7522555999994,478.7522555999994,478.7522555999994,481.08593869999913,right,1.0,24.50924920000034,,,,,,,,,,,,,,,,,,,,,,,,,,,,,,,,sub-136,2.0,random_dot,120.15620306353355,
left,left,accuracy,,,,,0.0,1.0,1.0,0.0,21.0,1.0,43.0,0.0,481.0942402999999,,,,,,,,,481.0868837000007,481.1938335000005,481.99428589999934,481.9862390999997,481.9862695999991,481.99428589999934,481.99428589999934,481.99428589999934,484.6197598999997,right,0.0,24.802082000000155,,,,,,,,,,,,,,,,,,,,,,,,,,,,,,,,sub-136,2.0,random_dot,120.15620306353355,
right,right,accuracy,,,,,0.0,1.0,1.0,0.0,22.0,0.0,44.0,1.0,484.6265973,,,,,,,,,484.6210411999991,485.8272036999997,486.62689860000046,486.6190176999999,486.6190371999992,486.62689860000046,486.62689860000046,486.62689860000046,500.0193527999991,right,1.0,35.56381809999948,,,,,,491.6187488000005,,,,,,,,,,,,,,,,,,,,,,,,,,sub-136,2.0,random_dot,120.15620306353355,
left,left,accuracy,,,,,0.0,1.0,1.0,0.0,22.0,1.0,45.0,0.0,500.0270305000004,,,,,,,,,500.0202550000004,501.2272201000005,502.02682899999945,502.02049650000026,502.0205171000007,502.02682899999945,502.02682899999945,502.02682899999945,503.020313,left,1.0,23.16993139999977,,,,,,,,,,,,,,,,,,,,,,,,,,,,,,,,sub-136,2.0,random_dot,120.15620306353355,
right,right,accuracy,,,,,0.0,1.0,1.0,0.0,23.0,0.0,46.0,1.0,503.0268048000007,,,,,,,,,503.0211912000004,503.8275605000008,504.6272003000004,504.61950739999975,504.6195402999992,504.6272003000004,504.6272003000004,504.6272003000004,507.75270759999967,right,1.0,25.29664729999968,,,,,,,,,,,,,,,,,,,,,,,,,,,,,,,,sub-136,2.0,random_dot,120.15620306353355,
left,left,accuracy,,,,,0.0,1.0,1.0,0.0,23.0,1.0,47.0,0.0,507.7603759000003,,,,,,,,,507.7536059000004,508.9603042999997,509.7601007000003,509.7526750999996,509.7526943999992,509.7601007000003,509.7601007000003,509.7601007000003,512.0369966999997,left,1.0,24.449204000000464,,,,,,,,,,,,,,,,,,,,,,,,,,,,,,,,sub-136,2.0,random_dot,120.15620306353355,
left,left,accuracy,,,,,0.0,1.0,1.0,0.0,24.0,0.0,48.0,0.0,512.0437873000001,,,,,,,,,512.0379036000004,513.2447184999992,514.0437940999991,514.0359366000002,514.0359562000003,514.0437940999991,514.0437940999991,514.0437940999991,517.0280919000006,left,1.0,25.15751439999985,,,,,,,,,,,,,,,,,,,,,,,,,,,,,,,,sub-136,2.0,random_dot,120.15620306353355,
right,right,accuracy,,,,,0.0,1.0,1.0,0.0,24.0,1.0,49.0,1.0,517.0357260999999,,,,,,,,,517.0289808000007,518.2353646000001,519.0353748000007,519.0285531,519.0285833000007,519.0353748000007,519.0353748000007,519.0353748000007,521.2533212999997,right,1.0,24.388019899999563,,,,,,,,,,,,,,,,,,,,,,,,,,,,,,,,sub-136,2.0,random_dot,120.15620306353355,
left,left,accuracy,,,,,0.0,1.0,1.0,0.0,25.0,0.0,50.0,0.0,521.2605732000002,,,,,,,,,521.2541928,521.6108458999997,522.4101134999992,522.402644499999,522.4026721,522.4101134999992,522.4101134999992,522.4101134999992,523.4115035999994,left,1.0,23.171827599999236,,,,,,,,,,,,,,,,,,,,,,,,,,,,,,,,sub-136,2.0,random_dot,120.15620306353355,
right,right,accuracy,,,,,0.0,1.0,1.0,0.0,25.0,1.0,51.0,1.0,523.4187038999999,,,,,,,,,523.4123687999991,523.7695474000002,524.5688841000001,524.5609243000008,524.5609541000003,524.5688841000001,524.5688841000001,524.5688841000001,525.2203115999991,right,1.0,22.82824450000044,,,,,,,,,,,,,,,,,,,,,,,,,,,,,,,,sub-136,2.0,random_dot,120.15620306353355,
right,right,accuracy,,,,,0.0,1.0,1.0,0.0,26.0,0.0,52.0,1.0,525.2274291000003,,,,,,,,,525.2211844000003,525.5771421,526.3768885,526.3694435999996,526.3694929000003,526.3768885,526.3768885,526.3768885,527.2860651000001,left,0.0,23.081346400000257,,,,,,,,,,,,,,,,,,,,,,,,,,,,,,,,sub-136,2.0,random_dot,120.15620306353355,
left,left,accuracy,,,,,0.0,1.0,1.0,0.0,26.0,1.0,53.0,0.0,527.2937190000002,,,,,,,,,527.2869409999994,528.0941090000006,528.893987299999,528.8862221999998,528.8862555000005,528.893987299999,528.893987299999,528.893987299999,529.7199174000007,left,1.0,22.997576800000388,,,,,,,,,,,,,,,,,,,,,,,,,,,,,,,,sub-136,2.0,random_dot,120.15620306353355,
right,right,accuracy,,,,,0.0,1.0,1.0,0.0,27.0,0.0,54.0,1.0,529.7269759000001,,,,,,,,,529.7210771,530.9272802999994,531.7274597000005,531.7195873999999,531.719607,531.7274597000005,531.7274597000005,531.7274597000005,532.6946283000007,right,1.0,23.143554599999334,,,,,,,,,,,,,,,,,,,,,,,,,,,,,,,,sub-136,2.0,random_dot,120.15620306353355,
left,left,accuracy,,,,,0.0,1.0,1.0,0.0,27.0,1.0,55.0,0.0,532.7018104999997,,,,,,,,,532.6963048999996,533.0520986000001,533.8518553000004,533.8443558000008,533.8443754999998,533.8518553000004,533.8518553000004,533.8518553000004,534.8030195000001,left,1.0,23.126026300000376,,,,,,,,,,,,,,,,,,,,,,,,,,,,,,,,sub-136,2.0,random_dot,120.15620306353355,
right,right,accuracy,,,,,0.0,1.0,1.0,0.0,28.0,0.0,56.0,1.0,534.8099419,,,,,,,,,534.8044562999994,536.010346,536.8103094999997,536.8031925999994,536.8032259000001,536.8103094999997,536.8103094999997,536.8103094999997,537.4866267000007,right,1.0,22.849401800000123,,,,,,,,,,,,,,,,,,,,,,,,,,,,,,,,sub-136,2.0,random_dot,120.15620306353355,
left,left,accuracy,,,,,0.0,1.0,1.0,0.0,28.0,1.0,57.0,0.0,537.4935988999996,,,,,,,,,537.4875490000004,537.8437382999991,538.6438650999999,538.6372137999997,538.6372474999998,538.6438650999999,538.6438650999999,538.6438650999999,541.9861152000003,left,1.0,25.51251179999963,,,,,,,,,,,,,,,,,,,,,,,,,,,,,,,,sub-136,2.0,random_dot,120.15620306353355,
left,left,accuracy,,,,,0.0,1.0,1.0,0.0,29.0,0.0,58.0,0.0,541.9936041999999,,,,,,,,,541.9870695,543.1849991999998,543.9855261999992,543.9776916000001,543.9777112999991,543.9855261999992,543.9855261999992,543.9855261999992,545.3124947999995,left,1.0,23.50340750000032,,,,,,,,,,,,,,,,,,,,,,,,,,,,,,,,sub-136,2.0,random_dot,120.15620306353355,
right,right,accuracy,,,,,0.0,1.0,1.0,0.0,29.0,1.0,59.0,1.0,545.3185339000001,,,,,,,,,545.3133910000006,546.1190127,546.9186657,546.9111719000002,546.9111910000001,546.9186657,546.9186657,546.9186657,548.0696194999991,right,1.0,23.326566300000195,,,,,,,,,,,,,,,,,,,,,,,,,,,,,,,,sub-136,2.0,random_dot,120.15620306353355,
,,accuracy,,,,,0.0,1.0,1.0,0.0,,,,,,,,,,,,,,,,,,,,,,,,,,,,,,,,,,,,,,,,,,,,,,,,,,,,,,,,,sub-136,2.0,random_dot,120.15620306353355,
,,,,,,,,,,,,,,,,,,,,,,,,,,,,,,,,,,,,,,,,,,,,,,,,,,,,,,,,,,,,,,,548.0702962999994,548.0770958000003,553.0771279999999,553.0694276000004,sub-136,,,,
