direction,corrAns,randomInstr,practice_trials.thisRepN,practice_trials.thisTrialN,practice_trials.thisN,practice_trials.thisIndex,instr_trials.thisRepN,instr_trials.thisTrialN,instr_trials.thisN,instr_trials.thisIndex,test_trials.thisRepN,test_trials.thisTrialN,test_trials.thisN,test_trials.thisIndex,thisRow.t,notes,general_instruction.started,textGeneralInstr.started,respGeneralInstr.started,general_instruction.stopped,respGeneralInstr.keys,respGeneralInstr.rt,respGeneralInstr.duration,ITI.started,fixcross.started,fixcross.stopped,ITI.stopped,dots.started,backgroundDots.started,stimulusDots.started,respDots.started,dots.stopped,respDots.keys,respDots.corr,respDots.rt,respDots.duration,feedback.started,textFeedback.started,feedback.stopped,textFeedback.stopped,stimulusDots.stopped,info.started,textInfo.started,keyRespInfo.started,info.stopped,keyRespInfo.keys,keyRespInfo.rt,keyRespInfo.duration,test_instruction.started,textTestInstr.started,respTestInstr.started,test_instruction.stopped,respTestInstr.keys,respTestInstr.rt,respTestInstr.duration,random_instruction.started,textRandomInstr.started,respRandomInstr.started,random_instruction.stopped,respRandomInstr.keys,respRandomInstr.rt,respRandomInstr.duration,goodbye.started,textGoodbye.started,textGoodbye.stopped,goodbye.stopped,participant,session,expName,frameRate,Unnamed: 74
,,,,,,,,,,,,,,,,,0.0031594000174663,0.0063091000192798,0.0063091000192798,66.16455859999405,space,87.57949500001268,,,,,,,,,,,,,,,,,,,,,,,,,,,,,,,,,,,,,,,,,,,,,sub-127,1.0,random_dot,60.10930275569645,
left,left,,0.0,0.0,0.0,0.0,,,,,,,,,66.18029520002892,,,,,,,,,66.17712449998362,66.5263210000121,67.32649569999194,67.31080069998279,67.31084089999786,67.32649569999194,67.32649569999194,67.32649569999194,69.98091669997666,right,0.0,24.07799820002401,,69.98189659998752,69.99668480001856,70.49316539999563,,,,,,,,,,,,,,,,,,,,,,,,,,,,sub-127,1.0,random_dot,60.10930275569645,
right,right,,0.0,1.0,1.0,1.0,,,,,,,,,70.50973089999752,,,,,,,,,70.49394369998481,70.59311279997928,71.39365939999698,71.37808100000257,71.37813389999792,71.39365939999698,71.39365939999698,71.39365939999698,74.72826270002406,left,0.0,24.74833290005336,,74.72907920001308,74.74318500002846,75.2275836999761,75.24299350002548,,,,,,,,,,,,,,,,,,,,,,,,,,,sub-127,1.0,random_dot,60.10930275569645,
left,left,,1.0,0.0,2.0,0.0,,,,,,,,,75.24299350002548,,,,,,,,,75.22894160001306,76.04297930002213,76.84338789997855,76.82762729999376,76.82768079999369,76.84338789997855,76.84338789997855,76.84338789997855,78.76145579997683,left,1.0,23.340409099997487,,78.76224479998928,78.77567280002404,79.26102829998126,79.27629000000888,,,,,,,,,,,,,,,,,,,,,,,,,,,sub-127,1.0,random_dot,60.10930275569645,
right,right,,1.0,1.0,3.0,1.0,,,,,,,,,79.27629000000888,,,,,,,,,79.26216260000365,80.07642290001968,80.87647229997674,80.86028490000172,80.86031269998057,80.87647229997674,80.87647229997674,80.87647229997674,85.96222719998332,right,1.0,26.502584800007757,,85.96312189998571,85.9759312000242,86.46095899998909,86.47559490002459,85.85978850000538,,,,,,,,,,,,,,,,,,,,,,,,,,sub-127,1.0,random_dot,60.10930275569645,
left,left,,2.0,0.0,4.0,0.0,,,,,,,,,86.47559490002459,,,,,,,,,86.46172030002344,87.27614360000007,88.07656170002883,88.06126470002346,88.06132209999487,88.07656170002883,88.07656170002883,88.07656170002883,90.16269710002234,right,0.0,23.51137970003765,,90.16328430001158,90.17560810002033,90.66099940001732,90.67641710001044,,,,,,,,,,,,,,,,,,,,,,,,,,,sub-127,1.0,random_dot,60.10930275569645,
right,right,,2.0,1.0,5.0,1.0,,,,,,,,,90.67641710001044,,,,,,,,,90.66205799998716,90.77618540002732,91.57644620002247,91.5609510000213,91.56100569997216,91.57644620002247,91.57644620002247,91.57644620002247,100.46438050002324,right,1.0,30.31032420002157,,100.46521100000244,100.47528419998709,100.9609296999988,100.97576060000574,96.576048500021,,,,,,,,,,,,,,,,,,,,,,,,,,sub-127,1.0,random_dot,60.10930275569645,
right,right,,3.0,0.0,6.0,1.0,,,,,,,,,100.97576060000574,,,,,,,,,100.96192700002575,101.07580659998348,101.87623689998873,101.86038420000114,101.8604419999756,101.87623689998873,101.87623689998873,101.87623689998873,104.36554269999031,right,1.0,23.91270640003495,,104.36629139998696,104.37576939997962,104.85909450001782,104.8768763000262,,,,,,,,,,,,,,,,,,,,,,,,,,,sub-127,1.0,random_dot,60.10930275569645,
left,left,,3.0,1.0,7.0,0.0,,,,,,,,,104.8768763000262,,,,,,,,,104.85955980001016,104.97532520000824,105.7758570999722,105.75991770002292,105.7599575999775,105.7758570999722,105.7758570999722,105.7758570999722,108.8992542999913,left,1.0,24.54663850000361,,108.90022030001272,108.9088995999773,109.39344620000338,109.40897839999523,,,,,,,,,,,,,,,,,,,,,,,,,,,sub-127,1.0,random_dot,60.10930275569645,
left,left,,4.0,0.0,8.0,0.0,,,,,,,,,109.40897839999523,,,,,,,,,109.3941649000044,109.7591579,110.55892099998891,110.54264659999173,110.54266909998842,110.55892099998891,110.55892099998891,110.55892099998891,112.24430219997885,left,1.0,23.10344910004642,,112.24509989999932,112.25900640001056,112.74378369998884,112.75896870001452,,,,,,,,,,,,,,,,,,,,,,,,,,,sub-127,1.0,random_dot,60.10930275569645,
right,right,,4.0,1.0,9.0,1.0,,,,,,,,,112.75896870001452,,,,,,,,,112.7444886000012,112.85861290001776,113.65977550001116,113.64423550001813,113.6442936999956,113.65977550001116,113.65977550001116,113.65977550001116,115.32788659998914,left,0.0,23.080190500011668,,115.32863589999032,115.34243169997352,115.8259794000187,115.8423347999924,,,,,,,,,,,,,,,,,,,,,,,,,,,sub-127,1.0,random_dot,60.10930275569645,
left,left,,5.0,0.0,10.0,0.0,,,,,,,,,115.8423347999924,,,,,,,,,115.82663959998172,115.9424334000214,116.74255289998835,116.72680579998996,116.72685139998794,116.74255289998835,116.74255289998835,116.74255289998835,118.99356059997808,right,0.0,23.673162500024773,,118.99420489999466,119.00878109998304,119.49359069997443,119.50883080001222,,,,,,,,,,,,,,,,,,,,,,,,,,,sub-127,1.0,random_dot,60.10930275569645,
right,right,,5.0,1.0,11.0,1.0,,,,,,,,,119.50883080001222,,,,,,,,,119.49447789997794,120.30883769999492,121.1087684999802,121.09302600001683,121.093056600017,121.1087684999802,121.1087684999802,121.1087684999802,126.09343250002712,left,0.0,26.402937899983957,,126.09414619999006,126.1089048999711,126.59343479998644,126.60901670000749,126.09218179999152,,,,,,,,,,,,,,,,,,,,,,,,,,sub-127,1.0,random_dot,60.10930275569645,
right,right,,6.0,0.0,12.0,1.0,,,,,,,,,126.60901670000749,,,,,,,,,126.5940491000074,127.40892710001208,128.2091577000101,128.19257860002108,128.19261440000264,128.2091577000101,128.2091577000101,128.2091577000101,131.3602327000117,left,0.0,24.56557229999453,,131.36091659998056,131.37495700002182,131.8599649000098,131.87545220000902,,,,,,,,,,,,,,,,,,,,,,,,,,,sub-127,1.0,random_dot,60.10930275569645,
left,left,,6.0,1.0,13.0,0.0,,,,,,,,,131.87545220000902,,,,,,,,,131.86078340001404,133.07524400000693,133.87602959998185,133.860305899987,133.86035729997093,133.87602959998185,133.87602959998185,133.87602959998185,136.96049289999064,right,0.0,24.506719700002577,,136.96147999999812,136.97501029999694,137.46031529997708,137.47572029998992,,,,,,,,,,,,,,,,,,,,,,,,,,,sub-127,1.0,random_dot,60.10930275569645,
left,left,,7.0,0.0,14.0,0.0,,,,,,,,,137.47572029998992,,,,,,,,,137.461320900009,138.67528959998162,139.47561570000835,139.45930139999837,139.45934360002866,139.47561570000835,139.47561570000835,139.47561570000835,145.36111120000714,right,0.0,27.30346040002769,,145.3622295000241,145.37477629998466,145.8585885000066,145.87488319998374,144.45911029999843,,,,,,,,,,,,,,,,,,,,,,,,,,sub-127,1.0,random_dot,60.10930275569645,
right,right,,7.0,1.0,15.0,1.0,,,,,,,,,145.87488319998374,,,,,,,,,145.85910699999658,146.22544140001992,147.0253117000102,147.01006609998876,147.0101095000282,147.0253117000102,147.0253117000102,147.0253117000102,149.76229899999453,left,0.0,24.147620900068432,,149.76333589997375,149.77514390001306,150.25968740001554,150.27481869998155,,,,,,,,,,,,,,,,,,,,,,,,,,,sub-127,1.0,random_dot,60.10930275569645,
left,left,,8.0,0.0,16.0,0.0,,,,,,,,,150.27481869998155,,,,,,,,,150.26030229998287,150.37505179998698,151.17533499997808,151.16024800000014,151.16030799999135,151.17533499997808,151.17533499997808,151.17533499997808,154.64734269998735,right,0.0,24.893913900014013,,154.64806420000969,154.65819370001554,155.14258960000006,155.15837469999678,,,,,,,,,,,,,,,,,,,,,,,,,,,sub-127,1.0,random_dot,60.10930275569645,
right,right,,8.0,1.0,17.0,1.0,,,,,,,,,155.15837469999678,,,,,,,,,155.143341100018,155.50802270002896,156.30862520000665,156.29312540002866,156.29317299998365,156.30862520000665,156.30862520000665,156.30862520000665,160.3590608999948,left,0.0,25.464768400008325,,160.35976560000563,160.3746259000036,160.8580713000265,160.87441930000205,,,,,,,,,,,,,,,,,,,,,,,,,,,sub-127,1.0,random_dot,60.10930275569645,
left,left,,9.0,0.0,18.0,0.0,,,,,,,,,160.87441930000205,,,,,,,,,160.8583700999734,161.22454109997489,162.0253658000147,162.00821190001443,162.00823480001418,162.0253658000147,162.0253658000147,162.0253658000147,164.87581579998368,left,1.0,24.272220999991987,,164.87641329999315,164.89105949999066,165.3748141999822,165.39105089998338,,,,,,,,,,,,,,,,,,,,,,,,,,,sub-127,1.0,random_dot,60.10930275569645,
right,right,,9.0,1.0,19.0,1.0,,,,,,,,,165.39105089998338,,,,,,,,,165.37525699997786,165.74107049999293,166.54143230000045,166.52475969999796,166.5247829,166.54143230000045,166.54143230000045,166.54143230000045,167.508801900025,right,1.0,22.39270269998815,,167.5091952999937,167.52437990001636,168.00819349999074,168.02434320002794,,,,,,,,,,,,,,,,,,,,,,,,,,,sub-127,1.0,random_dot,60.10930275569645,
,,,,,,,,,,,,,,,,,,,,,,,,,,,,,,,,,,,,,,,,,,168.00825369998347,168.02434320002794,168.02434320002794,170.5279069999815,space,23.86868860002141,,,,,,,,,,,,,,,,,,,,sub-127,1.0,random_dot,60.10930275569645,
,,,,,,,,,,,,,,,,,,,,,,,,,,,,,,,,,,,,,,,,,,,,,,,,,170.52793729997938,170.53115499997512,170.53115499997512,180.72488970000995,space,31.61583470006008,,,,,,,,,,,,,sub-127,1.0,random_dot,60.10930275569645,
right,right,accuracy,,,,,0.0,0.0,0.0,0.0,0.0,0.0,0.0,1.0,185.25737120001577,,,,,,,,,185.2495048000128,186.4573609000072,187.2587177000241,187.2427484000218,187.24280710000312,187.2587177000241,187.2587177000241,187.2587177000241,189.24760709999828,left,0.0,23.41100620001089,,,,,,,,,,,,,,,,,,,,,180.72809480002616,180.74903070001164,180.74903070001164,185.2418825000059,space,25.917964600026608,,,,,,sub-127,1.0,random_dot,60.10930275569645,
left,left,accuracy,,,,,0.0,0.0,0.0,0.0,0.0,1.0,1.0,0.0,189.25776940002103,,,,,,,,,189.249543700018,190.4577223000233,191.25822369998787,191.24247019999893,191.24251000001092,191.25822369998787,191.25822369998787,191.25822369998787,194.70962440001315,left,1.0,24.86619219998829,,,,,,,,,,,,,,,,,,,,,,,,,,,,,,,,sub-127,1.0,random_dot,60.10930275569645,
right,right,accuracy,,,,,0.0,0.0,0.0,0.0,1.0,0.0,2.0,1.0,194.7244233000092,,,,,,,,,194.71098289999645,195.52435670001432,196.32424940000053,196.30832220002776,196.3083653000067,196.32424940000053,196.32424940000053,196.32424940000053,198.79322970000797,left,0.0,23.88198579999153,,,,,,,,,,,,,,,,,,,,,,,,,,,,,,,,sub-127,1.0,random_dot,60.10930275569645,
left,left,accuracy,,,,,0.0,0.0,0.0,0.0,1.0,1.0,3.0,0.0,198.80773459997727,,,,,,,,,198.7954096000176,198.90753079997376,199.7082459999947,199.6922600999824,199.69229440001072,199.7082459999947,199.7082459999947,199.7082459999947,201.90975330001675,right,0.0,23.617463500006124,,,,,,,,,,,,,,,,,,,,,,,,,,,,,,,,sub-127,1.0,random_dot,60.10930275569645,
right,right,accuracy,,,,,0.0,0.0,0.0,0.0,2.0,0.0,4.0,1.0,201.9246372000198,,,,,,,,,201.9111471999786,202.2749326999765,203.0748392000096,203.05904640001245,203.05909970001085,203.0748392000096,203.0748392000096,203.0748392000096,205.86175739998,left,0.0,24.21100979996845,,,,,,,,,,,,,,,,,,,,,,,,,,,,,,,,sub-127,1.0,random_dot,60.10930275569645,
left,left,accuracy,,,,,0.0,0.0,0.0,0.0,2.0,1.0,5.0,0.0,205.87385610002093,,,,,,,,,205.86314349999884,206.6742029999732,207.47495379997417,207.4591182000004,207.45917699998245,207.47495379997417,207.47495379997417,207.47495379997417,209.74310319998767,right,0.0,23.683677799999717,,,,,,,,,,,,,,,,,,,,,,,,,,,,,,,,sub-127,1.0,random_dot,60.10930275569645,
left,left,accuracy,,,,,0.0,0.0,0.0,0.0,3.0,0.0,6.0,0.0,209.7575949999737,,,,,,,,,209.7448353000218,210.55765710002743,211.35803000000303,211.3422088000225,211.34226449998096,211.35803000000303,211.35803000000303,211.35803000000303,213.7766440000269,left,1.0,23.833217500068717,,,,,,,,,,,,,,,,,,,,,,,,,,,,,,,,sub-127,1.0,random_dot,60.10930275569645,
right,right,accuracy,,,,,0.0,0.0,0.0,0.0,3.0,1.0,7.0,1.0,213.79096339998068,,,,,,,,,213.7781391000026,216.576056800026,218.34974249999505,218.34592079999857,218.34593539999327,218.34974249999505,218.34974249999505,218.34974249999505,222.21001809998413,left,0.0,25.272285500075668,,,,,,,,,,,,,,,,,,,,,,,,,,,,,,,,sub-127,1.0,random_dot,60.10930275569645,
left,left,accuracy,,,,,0.0,0.0,0.0,0.0,4.0,0.0,8.0,0.0,222.2255871000234,,,,,,,,,222.21045670000603,223.02577220002425,223.8260852000094,223.80931149999375,223.8093271999969,223.8260852000094,223.8260852000094,223.8260852000094,225.7599185999716,right,0.0,23.35104209999554,,,,,,,,,,,,,,,,,,,,,,,,,,,,,,,,sub-127,1.0,random_dot,60.10930275569645,
right,right,accuracy,,,,,0.0,0.0,0.0,0.0,4.0,1.0,9.0,1.0,225.7755544999964,,,,,,,,,225.76063719997185,225.87555499997688,226.67599429999245,226.65937639999905,226.6593900999869,226.67599429999245,226.67599429999245,226.67599429999245,229.46002920001047,left,0.0,24.20720760000404,,,,,,,,,,,,,,,,,,,,,,,,,,,,,,,,sub-127,1.0,random_dot,60.10930275569645,
right,right,accuracy,,,,,0.0,0.0,0.0,0.0,5.0,0.0,10.0,1.0,229.4756381000043,,,,,,,,,229.46047380001983,230.27541800000472,231.0761368999956,231.05957209999903,231.0595870999969,231.0761368999956,231.0761368999956,231.0761368999956,233.7600774000166,right,1.0,24.105451000039466,,,,,,,,,,,,,,,,,,,,,,,,,,,,,,,,sub-127,1.0,random_dot,60.10930275569645,
left,left,accuracy,,,,,0.0,0.0,0.0,0.0,5.0,1.0,11.0,0.0,233.7756629000069,,,,,,,,,233.7605432000128,234.57568299997365,235.37593049998395,235.3596106999903,235.35962920001475,235.37593049998395,235.37593049998395,235.37593049998395,238.0930318000028,left,1.0,24.135067800059915,,,,,,,,,,,,,,,,,,,,,,,,,,,,,,,,sub-127,1.0,random_dot,60.10930275569645,
left,left,accuracy,,,,,0.0,0.0,0.0,0.0,6.0,0.0,12.0,0.0,238.10889209999004,,,,,,,,,238.09346339997137,238.1921175000025,238.99281560000964,238.97601340000983,238.97602529998403,238.99281560000964,238.99281560000964,238.99281560000964,241.22636929998407,right,0.0,23.656104700057767,,,,,,,,,,,,,,,,,,,,,,,,,,,,,,,,sub-127,1.0,random_dot,60.10930275569645,
right,right,accuracy,,,,,0.0,0.0,0.0,0.0,6.0,1.0,13.0,1.0,241.24257599998964,,,,,,,,,241.22679420001805,241.3422125999932,242.14270139997825,242.125859999971,242.12587510002777,242.14270139997825,242.14270139997825,242.14270139997825,244.57619210000848,left,0.0,23.84677689999808,,,,,,,,,,,,,,,,,,,,,,,,,,,,,,,,sub-127,1.0,random_dot,60.10930275569645,
right,right,accuracy,,,,,0.0,0.0,0.0,0.0,7.0,0.0,14.0,1.0,244.59219629998552,,,,,,,,,244.5767681999714,245.79186910000865,246.59241969999857,246.5757458999869,246.5757606999832,246.59241969999857,246.59241969999857,246.59241969999857,249.7932683000108,right,1.0,24.61471380002331,,,,,,,,,,,,,,,,,,,,,,,,,,,,,,,,sub-127,1.0,random_dot,60.10930275569645,
left,left,accuracy,,,,,0.0,0.0,0.0,0.0,7.0,1.0,15.0,0.0,249.8085016999976,,,,,,,,,249.7937327999971,249.90867749997412,250.70908439997584,250.69259519997289,250.69260639999996,250.70908439997584,250.70908439997584,250.70908439997584,254.0936723999912,left,1.0,24.80328220000956,,,,,,,,,,,,,,,,,,,,,,,,,,,,,,,,sub-127,1.0,random_dot,60.10930275569645,
left,left,accuracy,,,,,0.0,0.0,0.0,0.0,8.0,0.0,16.0,0.0,254.10835240001325,,,,,,,,,254.0941336000105,255.3085583000211,256.1088097000029,256.09272630000487,256.09273670002585,256.1088097000029,256.1088097000029,256.1088097000029,258.97635539999465,left,1.0,24.281093000026885,,,,,,,,,,,,,,,,,,,,,,,,,,,,,,,,sub-127,1.0,random_dot,60.10930275569645,
right,right,accuracy,,,,,0.0,0.0,0.0,0.0,8.0,1.0,17.0,1.0,258.9920172999846,,,,,,,,,258.97687030001543,259.3419049999793,260.1422472000122,260.1257447000244,260.1257610999746,260.1422472000122,260.1422472000122,260.1422472000122,263.12626430002274,right,1.0,24.40038890001597,,,,,,,,,,,,,,,,,,,,,,,,,,,,,,,,sub-127,1.0,random_dot,60.10930275569645,
right,right,accuracy,,,,,0.0,0.0,0.0,0.0,9.0,0.0,18.0,1.0,263.1420652000233,,,,,,,,,263.12716769997496,264.3417240999988,265.14211880002404,265.1257736000116,265.1257924999809,265.14211880002404,265.14211880002404,265.14211880002404,268.72621049999725,left,0.0,25.006595699989703,,,,,,,,,,,,,,,,,,,,,,,,,,,,,,,,sub-127,1.0,random_dot,60.10930275569645,
left,left,accuracy,,,,,0.0,0.0,0.0,0.0,9.0,1.0,19.0,0.0,268.7418039999902,,,,,,,,,268.7266617999994,269.0920562000247,269.8922464000061,269.8760108000133,269.8760403000051,269.8922464000061,269.8922464000061,269.8922464000061,272.6092769000097,left,1.0,24.133993200026453,,,,,,,,,,,,,,,,,,,,,,,,,,,,,,,,sub-127,1.0,random_dot,60.10930275569645,
right,right,accuracy,,,,,0.0,0.0,0.0,0.0,10.0,0.0,20.0,1.0,272.6248315999983,,,,,,,,,272.609835500014,273.82488560001366,274.6256135000149,274.60821370000485,274.60822719999123,274.6256135000149,274.6256135000149,274.6256135000149,276.5622233999893,right,1.0,23.359136299986854,,,,,,,,,,,,,,,,,,,,,,,,,,,,,,,,sub-127,1.0,random_dot,60.10930275569645,
left,left,accuracy,,,,,0.0,0.0,0.0,0.0,10.0,1.0,21.0,0.0,276.57462009997107,,,,,,,,,276.5626808999805,277.37531350000063,278.17534670000896,278.158837200026,278.1588556999923,278.17534670000896,278.17534670000896,278.17534670000896,280.5926810000092,left,1.0,23.83856420003576,,,,,,,,,,,,,,,,,,,,,,,,,,,,,,,,sub-127,1.0,random_dot,60.10930275569645,
right,right,accuracy,,,,,0.0,0.0,0.0,0.0,11.0,0.0,22.0,1.0,280.6086315999856,,,,,,,,,280.59322079998674,280.958311400027,281.758666299982,281.742333400005,281.74235010001576,281.758666299982,281.758666299982,281.758666299982,283.425800899975,left,0.0,23.088451399991754,,,,,,,,,,,,,,,,,,,,,,,,,,,,,,,,sub-127,1.0,random_dot,60.10930275569645,
left,left,accuracy,,,,,0.0,0.0,0.0,0.0,11.0,1.0,23.0,0.0,283.44173239998054,,,,,,,,,283.42630819999613,283.7749732999946,284.5752063000109,284.5583763999748,284.558388800011,284.5752063000109,284.5752063000109,284.5752063000109,286.8093971000053,right,0.0,23.653143600036856,,,,,,,,,,,,,,,,,,,,,,,,,,,,,,,,sub-127,1.0,random_dot,60.10930275569645,
left,left,accuracy,,,,,0.0,0.0,0.0,0.0,12.0,0.0,24.0,0.0,286.8251000000164,,,,,,,,,286.80989809997845,286.9246585000073,287.72510580002563,287.70874730002834,287.7087652999908,287.72510580002563,287.72510580002563,287.72510580002563,290.74238449998666,left,1.0,24.44087190000573,,,,,,,,,,,,,,,,,,,,,,,,,,,,,,,,sub-127,1.0,random_dot,60.10930275569645,
right,right,accuracy,,,,,0.0,0.0,0.0,0.0,12.0,1.0,25.0,1.0,290.7583568000118,,,,,,,,,290.7429410999757,291.95797940000193,292.75853759999154,292.7422287000227,292.74224430002505,292.75853759999154,292.75853759999154,292.75853759999154,294.7758899999899,right,1.0,23.43047080002725,,,,,,,,,,,,,,,,,,,,,,,,,,,,,,,,sub-127,1.0,random_dot,60.10930275569645,
left,left,accuracy,,,,,0.0,0.0,0.0,0.0,13.0,0.0,26.0,0.0,294.7914053000277,,,,,,,,,294.7763488999917,295.9913803000236,296.79176789999474,296.7755280000274,296.77555189997656,296.79176789999474,296.79176789999474,296.79176789999474,299.1424670999986,left,1.0,23.775483300036285,,,,,,,,,,,,,,,,,,,,,,,,,,,,,,,,sub-127,1.0,random_dot,60.10930275569645,
right,right,accuracy,,,,,0.0,0.0,0.0,0.0,13.0,1.0,27.0,1.0,299.1581559000188,,,,,,,,,299.1429654000094,299.50801879999926,300.3087317000027,300.2919396000216,300.291951399995,300.3087317000027,300.3087317000027,300.3087317000027,301.99209469999187,right,1.0,23.10056950006401,,,,,,,,,,,,,,,,,,,,,,,,,,,,,,,,sub-127,1.0,random_dot,60.10930275569645,
right,right,accuracy,,,,,0.0,0.0,0.0,0.0,14.0,0.0,28.0,1.0,302.0076678000041,,,,,,,,,301.9925605999888,303.2080930999946,304.0081534999772,303.9917793999776,303.9917981000035,304.0081534999772,304.0081534999772,304.0081534999772,307.0085920999991,right,1.0,24.41399140004069,,,,,,,,,,,,,,,,,,,,,,,,,,,,,,,,sub-127,1.0,random_dot,60.10930275569645,
left,left,accuracy,,,,,0.0,0.0,0.0,0.0,14.0,1.0,29.0,0.0,307.0249906000099,,,,,,,,,307.009032699978,307.3581018000259,308.1582364999922,308.14185870002257,308.1418736000196,308.1582364999922,308.1582364999922,308.1582364999922,310.0924012999749,left,1.0,23.35996780003188,,,,,,,,,,,,,,,,,,,,,,,,,,,,,,,,sub-127,1.0,random_dot,60.10930275569645,
left,left,accuracy,,,,,0.0,0.0,0.0,0.0,15.0,0.0,30.0,0.0,310.1080735999858,,,,,,,,,310.09284250001656,310.4581948000123,311.2581252999953,311.2420157999732,311.2420367000159,311.2581252999953,311.2581252999953,311.2581252999953,313.22654190001776,left,1.0,23.39451590005774,,,,,,,,,,,,,,,,,,,,,,,,,,,,,,,,sub-127,1.0,random_dot,60.10930275569645,
right,right,accuracy,,,,,0.0,0.0,0.0,0.0,15.0,1.0,31.0,1.0,313.24110669997754,,,,,,,,,313.22702130000107,313.591058799997,314.3915165999788,314.3747908999794,314.3748139999807,314.3915165999788,314.3915165999788,314.3915165999788,316.9936258000089,right,1.0,24.02874520001933,,,,,,,,,,,,,,,,,,,,,,,,,,,,,,,,sub-127,1.0,random_dot,60.10930275569645,
left,left,accuracy,,,,,0.0,0.0,0.0,0.0,16.0,0.0,32.0,0.0,317.007824899978,,,,,,,,,316.9941308000125,318.2079310999834,319.00816989998566,318.9915581999812,318.9915745999897,319.00816989998566,319.00816989998566,319.00816989998566,321.82545379997464,left,1.0,24.23375180002768,,,,,,,,,,,,,,,,,,,,,,,,,,,,,,,,sub-127,1.0,random_dot,60.10930275569645,
right,right,accuracy,,,,,0.0,0.0,0.0,0.0,16.0,1.0,33.0,1.0,321.840950599988,,,,,,,,,321.82596759998705,322.19118929997785,322.991525200021,322.97505220002495,322.9750745000201,322.991525200021,322.991525200021,322.991525200021,325.208813300007,right,1.0,23.631339100014884,,,,,,,,,,,,,,,,,,,,,,,,,,,,,,,,sub-127,1.0,random_dot,60.10930275569645,
left,left,accuracy,,,,,0.0,0.0,0.0,0.0,17.0,0.0,34.0,0.0,325.2244134999928,,,,,,,,,325.2092320999945,326.42390380002325,327.2243899999885,327.2073589999927,327.2073700000183,327.2243899999885,327.2243899999885,327.2243899999885,328.74150150001515,left,1.0,22.94011250004405,,,,,,,,,,,,,,,,,,,,,,,,,,,,,,,,sub-127,1.0,random_dot,60.10930275569645,
right,right,accuracy,,,,,0.0,0.0,0.0,0.0,17.0,1.0,35.0,1.0,328.75721140002133,,,,,,,,,328.74202639999567,329.10721480002394,329.9075292000198,329.8907018000027,329.8907142999815,329.9075292000198,329.9075292000198,329.9075292000198,331.50817510002526,right,1.0,23.01500410004519,,,,,,,,,,,,,,,,,,,,,,,,,,,,,,,,sub-127,1.0,random_dot,60.10930275569645,
right,right,accuracy,,,,,0.0,0.0,0.0,0.0,18.0,0.0,36.0,1.0,331.52379180002026,,,,,,,,,331.508870700025,331.8738881999743,332.67453740001656,332.6579009999987,332.6579131999752,332.67453740001656,332.67453740001656,332.67453740001656,334.6253069000086,right,1.0,23.36413540004287,,,,,,,,,,,,,,,,,,,,,,,,,,,,,,,,sub-127,1.0,random_dot,60.10930275569645,
left,left,accuracy,,,,,0.0,0.0,0.0,0.0,18.0,1.0,37.0,0.0,334.64095909998287,,,,,,,,,334.6257639999967,335.84060120000504,336.64111129997764,336.6242435000022,336.62426100001903,336.64111129997764,336.64111129997764,336.64111129997764,338.6930365000153,left,1.0,23.470713799993973,,,,,,,,,,,,,,,,,,,,,,,,,,,,,,,,sub-127,1.0,random_dot,60.10930275569645,
left,left,accuracy,,,,,0.0,0.0,0.0,0.0,19.0,0.0,38.0,0.0,338.7075201999978,,,,,,,,,338.6939047999913,339.9075893000117,340.7077598000178,340.69140790001256,340.69142709998414,340.7077598000178,340.7077598000178,340.7077598000178,344.2084569999716,left,1.0,24.921430200047325,,,,,,,,,,,,,,,,,,,,,,,,,,,,,,,,sub-127,1.0,random_dot,60.10930275569645,
right,right,accuracy,,,,,0.0,0.0,0.0,0.0,19.0,1.0,39.0,1.0,344.2242774000042,,,,,,,,,344.2090016999864,344.3240770000266,345.1244132000138,345.1079131999868,345.1079273999785,345.1244132000138,345.1244132000138,345.1244132000138,348.524589299981,right,1.0,24.819317999994382,,,,,,,,,,,,,,,,,,,,,,,,,,,,,,,,sub-127,1.0,random_dot,60.10930275569645,
right,right,accuracy,,,,,0.0,0.0,0.0,0.0,20.0,0.0,40.0,1.0,348.5404425999732,,,,,,,,,348.5250556999817,348.6402855999768,349.4407517000218,349.4238991999882,349.423913799983,349.4407517000218,349.4407517000218,349.4407517000218,352.7249225000269,left,0.0,24.70868809998501,,,,,,,,,,,,,,,,,,,,,,,,,,,,,,,,sub-127,1.0,random_dot,60.10930275569645,
left,left,accuracy,,,,,0.0,0.0,0.0,0.0,20.0,1.0,41.0,0.0,352.7402995000012,,,,,,,,,352.7256489000283,353.5401875000098,354.3408447999973,354.3238260999788,354.3238420999842,354.3408447999973,354.3408447999973,354.3408447999973,357.2086361999973,right,0.0,24.285016699985132,,,,,,,,,,,,,,,,,,,,,,,,,,,,,,,,sub-127,1.0,random_dot,60.10930275569645,
left,left,accuracy,,,,,0.0,0.0,0.0,0.0,21.0,0.0,42.0,0.0,357.2240846999921,,,,,,,,,357.2093098000041,358.4238083999953,359.2239344000118,359.2072373999981,359.20725259999745,359.2239344000118,359.2239344000118,359.2239344000118,361.5753763000248,left,1.0,23.77836310002021,,,,,,,,,,,,,,,,,,,,,,,,,,,,,,,,sub-127,1.0,random_dot,60.10930275569645,
right,right,accuracy,,,,,0.0,0.0,0.0,0.0,21.0,1.0,43.0,1.0,361.5900566999917,,,,,,,,,361.576196399983,362.39036299998406,363.1905613000272,363.17376590002095,363.17378870002,363.1905613000272,363.1905613000272,363.1905613000272,365.6939242000226,right,1.0,23.925001300056465,,,,,,,,,,,,,,,,,,,,,,,,,,,,,,,,sub-127,1.0,random_dot,60.10930275569645,
right,right,accuracy,,,,,0.0,0.0,0.0,0.0,22.0,0.0,44.0,1.0,365.7069514999748,,,,,,,,,365.694377399981,366.0567424999899,366.85715529997833,366.8403546999907,366.8403681999771,366.85715529997833,366.85715529997833,366.85715529997833,369.5580895000021,right,1.0,24.113311799999792,,,,,,,,,,,,,,,,,,,,,,,,,,,,,,,,sub-127,1.0,random_dot,60.10930275569645,
left,left,accuracy,,,,,0.0,0.0,0.0,0.0,22.0,1.0,45.0,0.0,369.57358780002687,,,,,,,,,369.5587731000269,370.3734363000258,371.1737900999724,371.1570433999877,371.1570544000133,371.1737900999724,371.1737900999724,371.1737900999724,373.8916831000242,left,1.0,24.13136790000135,,,,,,,,,,,,,,,,,,,,,,,,,,,,,,,,sub-127,1.0,random_dot,60.10930275569645,
right,right,accuracy,,,,,0.0,0.0,0.0,0.0,23.0,0.0,46.0,1.0,373.9068225999945,,,,,,,,,373.89217180002015,375.1069375000079,375.9072991000139,375.8901681000134,375.8901949999854,375.9072991000139,375.9072991000139,375.9072991000139,378.19123920000857,right,1.0,23.698032399988733,,,,,,,,,,,,,,,,,,,,,,,,,,,,,,,,sub-127,1.0,random_dot,60.10930275569645,
left,left,accuracy,,,,,0.0,0.0,0.0,0.0,23.0,1.0,47.0,0.0,378.2070991999936,,,,,,,,,378.19175019999966,379.4067762999912,380.2075268999906,380.19060849997913,380.1906183999963,380.2075268999906,380.2075268999906,380.2075268999906,383.3577929000021,right,0.0,24.56856980000157,,,,,,,,,,,,,,,,,,,,,,,,,,,,,,,,sub-127,1.0,random_dot,60.10930275569645,
left,left,accuracy,,,,,0.0,0.0,0.0,0.0,24.0,0.0,48.0,0.0,383.3736605999875,,,,,,,,,383.3582255999791,384.57312160002766,385.3736399000045,385.3573504000087,385.35736660001567,385.3736399000045,385.3736399000045,385.3736399000045,388.2240430000238,left,1.0,24.27618860005168,,,,,,,,,,,,,,,,,,,,,,,,,,,,,,,,sub-127,1.0,random_dot,60.10930275569645,
right,right,accuracy,,,,,0.0,0.0,0.0,0.0,24.0,1.0,49.0,1.0,388.23987310001394,,,,,,,,,388.2245287999976,389.44003509997856,390.24043990002247,390.223673600005,390.2236877999967,390.24043990002247,390.24043990002247,390.24043990002247,392.5746455999906,right,1.0,23.761079200019594,,,,,,,,,,,,,,,,,,,,,,,,,,,,,,,,sub-127,1.0,random_dot,60.10930275569645,
left,left,accuracy,,,,,0.0,0.0,0.0,0.0,25.0,0.0,50.0,0.0,392.59007540001767,,,,,,,,,392.575221200008,393.3900741999969,394.1899100000155,394.1737955000135,394.1738050000277,394.1899100000155,394.1899100000155,394.1899100000155,395.6408519999823,left,1.0,22.872006400022656,,,,,,,,,,,,,,,,,,,,,,,,,,,,,,,,sub-127,1.0,random_dot,60.10930275569645,
right,right,accuracy,,,,,0.0,0.0,0.0,0.0,25.0,1.0,51.0,1.0,395.6564608999761,,,,,,,,,395.641293200024,395.7568233999773,396.5571879000054,396.5402983999811,396.54031200002646,396.5571879000054,396.5571879000054,396.5571879000054,399.5242226999835,left,0.0,24.387963400047735,,,,,,,,,,,,,,,,,,,,,,,,,,,,,,,,sub-127,1.0,random_dot,60.10930275569645,
right,right,accuracy,,,,,0.0,0.0,0.0,0.0,26.0,0.0,52.0,1.0,399.5399229999748,,,,,,,,,399.5246916000033,399.6396689999965,400.44043409998994,400.4236670000246,400.4236944000004,400.44043409998994,400.44043409998994,400.44043409998994,401.6079764000024,right,1.0,22.594115099986084,,,,,,,,,,,,,,,,,,,,,,,,,,,,,,,,sub-127,1.0,random_dot,60.10930275569645,
left,left,accuracy,,,,,0.0,0.0,0.0,0.0,26.0,1.0,53.0,0.0,401.6233573000063,,,,,,,,,401.6085431000101,401.723380499985,402.52351059997454,402.5067660000059,402.5067807000014,402.52351059997454,402.52351059997454,402.52351059997454,404.0257523999898,right,0.0,22.92867970006773,,,,,,,,,,,,,,,,,,,,,,,,,,,,,,,,sub-127,1.0,random_dot,60.10930275569645,
right,right,accuracy,,,,,0.0,0.0,0.0,0.0,27.0,0.0,54.0,1.0,404.0398892000085,,,,,,,,,404.0262045999989,405.2397975000204,406.04003620002186,406.0237085000263,406.0237202999997,406.04003620002186,406.04003620002186,406.04003620002186,407.7905891999835,left,0.0,23.17482890002429,,,,,,,,,,,,,,,,,,,,,,,,,,,,,,,,sub-127,1.0,random_dot,60.10930275569645,
left,left,accuracy,,,,,0.0,0.0,0.0,0.0,27.0,1.0,55.0,0.0,407.8064251000178,,,,,,,,,407.7910348000005,407.90640360000543,408.7068474999978,408.68989769998007,408.68990940001095,408.7068474999978,408.7068474999978,408.7068474999978,410.1758844999713,left,1.0,22.895355299988296,,,,,,,,,,,,,,,,,,,,,,,,,,,,,,,,sub-127,1.0,random_dot,60.10930275569645,
left,left,accuracy,,,,,0.0,0.0,0.0,0.0,28.0,0.0,56.0,0.0,410.1894039000035,,,,,,,,,410.176355100004,410.2899317999836,411.08996080001816,411.0735281999805,411.07354459998896,411.08996080001816,411.08996080001816,411.08996080001816,413.0573873000103,left,1.0,23.38059610000346,,,,,,,,,,,,,,,,,,,,,,,,,,,,,,,,sub-127,1.0,random_dot,60.10930275569645,
right,right,accuracy,,,,,0.0,0.0,0.0,0.0,28.0,1.0,57.0,1.0,413.0729856999824,,,,,,,,,413.0578324000234,414.2730486000073,415.07346260000486,415.0565889999853,415.0566007000161,415.07346260000486,415.07346260000486,415.07346260000486,416.5072229999933,right,1.0,22.85888969997177,,,,,,,,,,,,,,,,,,,,,,,,,,,,,,,,sub-127,1.0,random_dot,60.10930275569645,
left,left,accuracy,,,,,0.0,0.0,0.0,0.0,29.0,0.0,58.0,0.0,416.5231914999895,,,,,,,,,416.5077133000013,416.6230624999735,417.4232697000261,417.40673400001833,417.4067476000055,417.4232697000261,417.4232697000261,417.4232697000261,419.72405349998735,right,0.0,23.722029700002167,,,,,,,,,,,,,,,,,,,,,,,,,,,,,,,,sub-127,1.0,random_dot,60.10930275569645,
right,right,accuracy,,,,,0.0,0.0,0.0,0.0,29.0,1.0,59.0,1.0,419.7395199000021,,,,,,,,,419.7246997000184,420.0897556000273,420.88996509998105,420.873413000023,420.8734263000079,420.88996509998105,420.88996509998105,420.88996509998105,422.4904567999765,right,1.0,23.02244020003127,,,,,,,,,,,,,,,,,,,,,,,,,,,,,,,,sub-127,1.0,random_dot,60.10930275569645,
,,accuracy,,,,,0.0,0.0,0.0,0.0,,,,,,,,,,,,,,,,,,,,,,,,,,,,,,,,,,,,,,,,,,,,,,,,,,,,,,,,,sub-127,1.0,random_dot,60.10930275569645,
left,left,speed,,,,,0.0,1.0,1.0,1.0,0.0,0.0,0.0,0.0,427.7396306999726,,,,,,,,,427.7269907000009,428.92290359997423,429.7232244000188,429.706623999984,429.7066421000054,429.7232244000188,429.7232244000188,429.7232244000188,430.6072323999833,left,1.0,22.29852110001957,,,,,,,,,,,,,,,,,,,,,422.4909052000148,422.50589179998497,422.50589179998497,427.7233940999722,space,26.631432300026063,,,,,,sub-127,1.0,random_dot,60.10930275569645,
right,right,speed,,,,,0.0,1.0,1.0,1.0,0.0,1.0,1.0,1.0,430.6225164000061,,,,,,,,,430.60777800000506,431.8228215000127,432.62334069999633,432.6066282999818,432.6066425999743,432.62334069999633,432.62334069999633,432.62334069999633,433.4573477000231,right,1.0,22.247250400017947,,,,,,,,,,,,,,,,,,,,,,,,,,,,,,,,sub-127,1.0,random_dot,60.10930275569645,
right,right,speed,,,,,0.0,1.0,1.0,1.0,1.0,0.0,2.0,1.0,433.4727737000212,,,,,,,,,433.4578119000071,433.8227734999964,434.6230888999999,434.6064066999825,434.6064204000286,434.6230888999999,434.6230888999999,434.6230888999999,435.6907900000224,left,0.0,22.49419540003873,,,,,,,,,,,,,,,,,,,,,,,,,,,,,,,,sub-127,1.0,random_dot,60.10930275569645,
left,left,speed,,,,,0.0,1.0,1.0,1.0,1.0,1.0,3.0,0.0,435.7061380000087,,,,,,,,,435.69127130002016,435.8058999999776,436.60651389998384,436.5897409999743,436.58975769998506,436.60651389998384,436.60651389998384,436.60651389998384,437.5240465999814,left,1.0,22.339159200026188,,,,,,,,,,,,,,,,,,,,,,,,,,,,,,,,sub-127,1.0,random_dot,60.10930275569645,
right,right,speed,,,,,0.0,1.0,1.0,1.0,2.0,0.0,4.0,1.0,437.5395078000147,,,,,,,,,437.52448239998193,437.6391131000128,438.4400217999937,438.4231296000071,438.4231442000018,438.4400217999937,438.4400217999937,438.4400217999937,439.55689399997937,left,0.0,22.530930900014937,,,,,,,,,,,,,,,,,,,,,,,,,,,,,,,,sub-127,1.0,random_dot,60.10930275569645,
left,left,speed,,,,,0.0,1.0,1.0,1.0,2.0,1.0,5.0,0.0,439.5726312000188,,,,,,,,,439.5573753999779,440.3727106999722,441.1730407999712,441.1565555999987,441.1565726000117,441.1730407999712,441.1730407999712,441.1730407999712,443.4736644999939,left,1.0,23.721545499982312,,,,,,,,,,,,,,,,,,,,,,,,,,,,,,,,sub-127,1.0,random_dot,60.10930275569645,
right,right,speed,,,,,0.0,1.0,1.0,1.0,3.0,0.0,6.0,1.0,443.4891889999853,,,,,,,,,443.47409540001536,443.83935720002046,444.6392933999887,444.6231705999817,444.623187899997,444.6392933999887,444.6392933999887,444.6392933999887,445.4738070999738,right,1.0,22.25558370002545,,,,,,,,,,,,,,,,,,,,,,,,,,,,,,,,sub-127,1.0,random_dot,60.10930275569645,
left,left,speed,,,,,0.0,1.0,1.0,1.0,3.0,1.0,7.0,0.0,445.489285800024,,,,,,,,,445.4743320000125,446.6892663000035,447.48979219998,447.4729208999779,447.47293579997495,447.48979219998,447.48979219998,447.48979219998,448.6094469000236,left,1.0,22.545567799999844,,,,,,,,,,,,,,,,,,,,,,,,,,,,,,,,sub-127,1.0,random_dot,60.10930275569645,
left,left,speed,,,,,0.0,1.0,1.0,1.0,4.0,0.0,8.0,0.0,448.6224960000254,,,,,,,,,448.6099517000257,449.822628199996,450.62305120000383,450.6062105000019,450.6062237999868,450.62305120000383,450.62305120000383,450.62305120000383,451.8069396999781,left,1.0,22.603442200052086,,,,,,,,,,,,,,,,,,,,,,,,,,,,,,,,sub-127,1.0,random_dot,60.10930275569645,
right,right,speed,,,,,0.0,1.0,1.0,1.0,4.0,1.0,9.0,1.0,451.8226205999963,,,,,,,,,451.8074034000165,452.1725299999816,452.9726356000174,452.9563143000123,452.9563241000287,452.9726356000174,452.9726356000174,452.9726356000174,454.8070182999945,left,0.0,23.25329399999464,,,,,,,,,,,,,,,,,,,,,,,,,,,,,,,,sub-127,1.0,random_dot,60.10930275569645,
left,left,speed,,,,,0.0,1.0,1.0,1.0,5.0,0.0,10.0,0.0,454.8221056999755,,,,,,,,,454.8075105000171,456.02208500000415,456.8227893000003,456.8061447999789,456.8061571000144,456.8227893000003,456.8227893000003,456.8227893000003,458.10667299997294,left,1.0,22.70476780005265,,,,,,,,,,,,,,,,,,,,,,,,,,,,,,,,sub-127,1.0,random_dot,60.10930275569645,
right,right,speed,,,,,0.0,1.0,1.0,1.0,5.0,1.0,11.0,1.0,458.1223265000153,,,,,,,,,458.1071772999712,458.2223493999918,459.0228367000236,459.0063508999883,459.0063651999808,459.0228367000236,459.0228367000236,459.0228367000236,459.9753772999975,right,1.0,22.378876400005534,,,,,,,,,,,,,,,,,,,,,,,,,,,,,,,,sub-127,1.0,random_dot,60.10930275569645,
left,left,speed,,,,,0.0,1.0,1.0,1.0,6.0,0.0,12.0,0.0,459.98874479997903,,,,,,,,,459.9758399000275,460.7891062999842,461.5894144999911,461.5727274999954,461.5727392000263,461.5894144999911,461.5894144999911,461.5894144999911,462.92297549999785,left,1.0,22.7460538999876,,,,,,,,,,,,,,,,,,,,,,,,,,,,,,,,sub-127,1.0,random_dot,60.10930275569645,
right,right,speed,,,,,0.0,1.0,1.0,1.0,6.0,1.0,13.0,1.0,462.9389508999884,,,,,,,,,462.9234118000022,463.7222292000079,464.5222663999885,464.5059647000162,464.5059799000155,464.5222663999885,464.5222663999885,464.5222663999885,465.9570526999887,right,1.0,22.85462140000891,,,,,,,,,,,,,,,,,,,,,,,,,,,,,,,,sub-127,1.0,random_dot,60.10930275569645,
right,right,speed,,,,,0.0,1.0,1.0,1.0,7.0,0.0,14.0,1.0,465.9722725999891,,,,,,,,,465.9575327999773,466.77241570001934,467.5726213000016,467.5558312999783,467.5558451000252,467.5726213000016,467.5726213000016,467.5726213000016,469.4398325000074,left,0.0,23.28459760005353,,,,,,,,,,,,,,,,,,,,,,,,,,,,,,,,sub-127,1.0,random_dot,60.10930275569645,
left,left,speed,,,,,0.0,1.0,1.0,1.0,7.0,1.0,15.0,0.0,469.45547390001593,,,,,,,,,469.4404218000127,469.80526300001657,470.6058907000115,470.5893810000271,470.58939530001953,470.6058907000115,470.6058907000115,470.6058907000115,472.3071221000282,left,1.0,23.125712600012776,,,,,,,,,,,,,,,,,,,,,,,,,,,,,,,,sub-127,1.0,random_dot,60.10930275569645,
right,right,speed,,,,,0.0,1.0,1.0,1.0,8.0,0.0,16.0,1.0,472.32230689999415,,,,,,,,,472.3075883000274,472.6721651999978,473.4720407000277,473.4552916000248,473.4553049000097,473.4720407000277,473.4720407000277,473.4720407000277,474.7733932000119,right,1.0,22.722541100054517,,,,,,,,,,,,,,,,,,,,,,,,,,,,,,,,sub-127,1.0,random_dot,60.10930275569645,
left,left,speed,,,,,0.0,1.0,1.0,1.0,8.0,1.0,17.0,0.0,474.7886341999984,,,,,,,,,474.7739534000284,475.5884887999855,476.3890200000024,476.3726832999964,476.3727023000247,476.3890200000024,476.3890200000024,476.3890200000024,478.5229803000111,right,0.0,23.54833590006456,,,,,,,,,,,,,,,,,,,,,,,,,,,,,,,,sub-127,1.0,random_dot,60.10930275569645,
right,right,speed,,,,,0.0,1.0,1.0,1.0,9.0,0.0,18.0,1.0,478.5387556999922,,,,,,,,,478.5235127999913,479.7386430000188,480.5389315999928,480.5228867999977,480.5228967000148,480.5389315999928,480.5389315999928,480.5389315999928,481.9727018999984,right,1.0,22.850489800039213,,,,,,,,,,,,,,,,,,,,,,,,,,,,,,,,sub-127,1.0,random_dot,60.10930275569645,
left,left,speed,,,,,0.0,1.0,1.0,1.0,9.0,1.0,19.0,0.0,481.9894906000118,,,,,,,,,481.973210999975,482.0887842000229,482.8892096999916,482.872373900027,482.8723890000256,482.8892096999916,482.8892096999916,482.8892096999916,484.10628619999625,left,1.0,22.63660560001153,,,,,,,,,,,,,,,,,,,,,,,,,,,,,,,,sub-127,1.0,random_dot,60.10930275569645,
left,left,speed,,,,,0.0,1.0,1.0,1.0,10.0,0.0,20.0,0.0,484.1220258999965,,,,,,,,,484.1068159000133,484.9218564999756,485.7223380000214,485.7059541000053,485.7059692000039,485.7223380000214,485.7223380000214,485.7223380000214,487.73945880000247,left,1.0,23.435557499993596,,,,,,,,,,,,,,,,,,,,,,,,,,,,,,,,sub-127,1.0,random_dot,60.10930275569645,
right,right,speed,,,,,0.0,1.0,1.0,1.0,10.0,1.0,21.0,1.0,487.7549263000256,,,,,,,,,487.74002829997335,488.95509920001496,489.7555193000008,489.738865900028,489.7388951000176,489.7555193000008,489.7555193000008,489.7555193000008,492.2068713000044,right,1.0,23.878615499997977,,,,,,,,,,,,,,,,,,,,,,,,,,,,,,,,sub-127,1.0,random_dot,60.10930275569645,
left,left,speed,,,,,0.0,1.0,1.0,1.0,11.0,0.0,22.0,0.0,492.2219240000122,,,,,,,,,492.2073076000088,492.3217941999901,493.12205870001344,493.10574109997833,493.1057633999735,493.12205870001344,493.12205870001344,493.12205870001344,493.9897192000062,left,1.0,22.280950400047004,,,,,,,,,,,,,,,,,,,,,,,,,,,,,,,,sub-127,1.0,random_dot,60.10930275569645,
right,right,speed,,,,,0.0,1.0,1.0,1.0,11.0,1.0,23.0,1.0,494.0051147000049,,,,,,,,,493.99019570002565,494.1051636000048,494.905396200018,494.88890640001046,494.8889173999778,494.905396200018,494.905396200018,494.905396200018,495.8396342999768,right,1.0,22.347504200064577,,,,,,,,,,,,,,,,,,,,,,,,,,,,,,,,sub-127,1.0,random_dot,60.10930275569645,
left,left,speed,,,,,0.0,1.0,1.0,1.0,12.0,0.0,24.0,0.0,495.8550113000092,,,,,,,,,495.8401142000221,495.9548822999932,496.7555269000004,496.73886139999377,496.738880400022,496.7555269000004,496.7555269000004,496.7555269000004,498.08939580002334,left,1.0,22.75838190002833,,,,,,,,,,,,,,,,,,,,,,,,,,,,,,,,sub-127,1.0,random_dot,60.10930275569645,
right,right,speed,,,,,0.0,1.0,1.0,1.0,12.0,1.0,25.0,1.0,498.10519749997184,,,,,,,,,498.0899638999836,499.3051793000195,500.1053221999901,500.0888162999763,500.0888278000057,500.1053221999901,500.1053221999901,500.1053221999901,501.4728500000201,right,1.0,22.784944400016684,,,,,,,,,,,,,,,,,,,,,,,,,,,,,,,,sub-127,1.0,random_dot,60.10930275569645,
right,right,speed,,,,,0.0,1.0,1.0,1.0,13.0,0.0,26.0,1.0,501.4885631999932,,,,,,,,,501.4732879999792,501.58854349999456,502.3887483999715,502.3721665000194,502.37218469998334,502.3887483999715,502.3887483999715,502.3887483999715,503.1389510000008,right,1.0,22.16704979998758,,,,,,,,,,,,,,,,,,,,,,,,,,,,,,,,sub-127,1.0,random_dot,60.10930275569645,
left,left,speed,,,,,0.0,1.0,1.0,1.0,13.0,1.0,27.0,0.0,503.15462039998965,,,,,,,,,503.1396711000125,503.5052631999715,504.3051326000132,504.2882918000105,504.2883028999786,504.3051326000132,504.3051326000132,504.3051326000132,506.33922500000335,right,0.0,23.45454890001565,,,,,,,,,,,,,,,,,,,,,,,,,,,,,,,,sub-127,1.0,random_dot,60.10930275569645,
right,right,speed,,,,,0.0,1.0,1.0,1.0,14.0,0.0,28.0,1.0,506.3548873999971,,,,,,,,,506.3396542000119,506.7046816999791,507.50525250000646,507.4884833000251,507.4884954000008,507.50525250000646,507.50525250000646,507.50525250000646,509.2235145000159,left,0.0,23.144628400041256,,,,,,,,,,,,,,,,,,,,,,,,,,,,,,,,sub-127,1.0,random_dot,60.10930275569645,
left,left,speed,,,,,0.0,1.0,1.0,1.0,14.0,1.0,29.0,0.0,509.2384893000126,,,,,,,,,509.22397769999225,509.5879206000245,510.3883833999862,510.3724527999875,510.37249689997407,510.3883833999862,510.3883833999862,510.3883833999862,512.0560474999947,right,0.0,23.084622099995613,,,,,,,,,,,,,,,,,,,,,,,,,,,,,,,,sub-127,1.0,random_dot,60.10930275569645,
left,left,speed,,,,,0.0,1.0,1.0,1.0,15.0,0.0,30.0,0.0,512.071424899972,,,,,,,,,512.0564740999835,512.4215510999784,513.2221182999783,513.2057266000193,513.2057524999836,513.2221182999783,513.2221182999783,513.2221182999783,514.3556564999744,left,1.0,22.552367299969774,,,,,,,,,,,,,,,,,,,,,,,,,,,,,,,,sub-127,1.0,random_dot,60.10930275569645,
right,right,speed,,,,,0.0,1.0,1.0,1.0,15.0,1.0,31.0,1.0,514.3715836000047,,,,,,,,,514.3561119000078,514.7214517000248,515.5219180000131,515.5055168999825,515.505530000024,515.5219180000131,515.5219180000131,515.5219180000131,516.7392521000002,right,1.0,22.634289500012528,,,,,,,,,,,,,,,,,,,,,,,,,,,,,,,,sub-127,1.0,random_dot,60.10930275569645,
left,left,speed,,,,,0.0,1.0,1.0,1.0,16.0,0.0,32.0,0.0,516.7546919999877,,,,,,,,,516.7396881000022,517.954770500015,518.7550016000168,518.7389602999901,518.7389893999789,518.7550016000168,518.7550016000168,518.7550016000168,520.6225413000211,left,1.0,23.289670400030445,,,,,,,,,,,,,,,,,,,,,,,,,,,,,,,,sub-127,1.0,random_dot,60.10930275569645,
right,right,speed,,,,,0.0,1.0,1.0,1.0,16.0,1.0,33.0,1.0,520.6381213000277,,,,,,,,,520.6229966999963,521.8380162999965,522.6383124000276,522.6218087999732,522.6218265999923,522.6383124000276,522.6383124000276,522.6383124000276,524.6223736000247,right,1.0,23.406537700037006,,,,,,,,,,,,,,,,,,,,,,,,,,,,,,,,sub-127,1.0,random_dot,60.10930275569645,
right,right,speed,,,,,0.0,1.0,1.0,1.0,17.0,0.0,34.0,1.0,524.6378830000176,,,,,,,,,524.6228317000205,524.9880779000232,525.7882695000153,525.7717446999741,525.7717626999947,525.7882695000153,525.7882695000153,525.7882695000153,527.0386078999727,right,1.0,22.66279949998716,,,,,,,,,,,,,,,,,,,,,,,,,,,,,,,,sub-127,1.0,random_dot,60.10930275569645,
left,left,speed,,,,,0.0,1.0,1.0,1.0,17.0,1.0,35.0,0.0,527.0547389999847,,,,,,,,,527.0390821999754,527.1546925000148,527.9550626000273,527.9386432999745,527.938660099986,527.9550626000273,527.9550626000273,527.9550626000273,528.8720180999953,left,1.0,22.33082710002782,,,,,,,,,,,,,,,,,,,,,,,,,,,,,,,,sub-127,1.0,random_dot,60.10930275569645,
left,left,speed,,,,,0.0,1.0,1.0,1.0,18.0,0.0,36.0,0.0,528.8881015999941,,,,,,,,,528.8724567000172,530.0879956000135,530.8882742000278,530.8716826000018,530.8717000000179,530.8882742000278,530.8882742000278,530.8882742000278,532.3552262000157,right,0.0,22.8910695000086,,,,,,,,,,,,,,,,,,,,,,,,,,,,,,,,sub-127,1.0,random_dot,60.10930275569645,
right,right,speed,,,,,0.0,1.0,1.0,1.0,18.0,1.0,37.0,1.0,532.3710780999972,,,,,,,,,532.3556714999722,533.1710698999814,533.9714446000289,533.9545554000069,533.9545672999811,533.9714446000289,533.9714446000289,533.9714446000289,535.4051222000271,right,1.0,22.85239880002337,,,,,,,,,,,,,,,,,,,,,,,,,,,,,,,,sub-127,1.0,random_dot,60.10930275569645,
left,left,speed,,,,,0.0,1.0,1.0,1.0,19.0,0.0,38.0,0.0,535.4209257999901,,,,,,,,,535.4055740999756,535.5207921999972,536.3212026000256,536.3044017999782,536.304416399973,536.3212026000256,536.3212026000256,536.3212026000256,537.2386065999744,left,1.0,22.33092159999069,,,,,,,,,,,,,,,,,,,,,,,,,,,,,,,,sub-127,1.0,random_dot,60.10930275569645,
right,right,speed,,,,,0.0,1.0,1.0,1.0,19.0,1.0,39.0,1.0,537.2541196999955,,,,,,,,,537.2398237999878,538.0541082000127,538.8544750000001,538.8377910000272,538.8378086999874,538.8544750000001,538.8544750000001,538.8544750000001,540.121880199993,left,0.0,22.681964899995364,,,,,,,,,,,,,,,,,,,,,,,,,,,,,,,,sub-127,1.0,random_dot,60.10930275569645,
left,left,speed,,,,,0.0,1.0,1.0,1.0,20.0,0.0,40.0,0.0,540.1373554000165,,,,,,,,,540.122442700027,540.4872973000165,541.2878107000142,541.2711615000153,541.271179399977,541.2878107000142,541.2878107000142,541.2878107000142,543.1896771999891,left,1.0,23.31995570001891,,,,,,,,,,,,,,,,,,,,,,,,,,,,,,,,sub-127,1.0,random_dot,60.10930275569645,
right,right,speed,,,,,0.0,1.0,1.0,1.0,20.0,1.0,41.0,1.0,543.2044183000107,,,,,,,,,543.1905414999928,544.0046395999962,544.804750500014,544.7881060999935,544.7881193999783,544.804750500014,544.804750500014,544.804750500014,545.672691099986,right,1.0,22.288748900056817,,,,,,,,,,,,,,,,,,,,,,,,,,,,,,,,sub-127,1.0,random_dot,60.10930275569645,
left,left,speed,,,,,0.0,1.0,1.0,1.0,21.0,0.0,42.0,0.0,545.6878675000044,,,,,,,,,545.6734039000003,546.8876534000156,547.6881680000224,547.6714386999956,547.6714589999756,547.6881680000224,547.6881680000224,547.6881680000224,548.9635540000163,right,0.0,22.69249050004873,,,,,,,,,,,,,,,,,,,,,,,,,,,,,,,,sub-127,1.0,random_dot,60.10930275569645,
right,right,speed,,,,,0.0,1.0,1.0,1.0,21.0,1.0,43.0,1.0,548.971057799994,,,,,,,,,548.9640354000148,550.1710554999881,550.9711058000103,550.9547542000073,550.9547665999853,550.9711058000103,550.9711058000103,550.9711058000103,552.1384307999979,right,1.0,22.590720000036526,,,,,,,,,,,,,,,,,,,,,,,,,,,,,,,,sub-127,1.0,random_dot,60.10930275569645,
left,left,speed,,,,,0.0,1.0,1.0,1.0,22.0,0.0,44.0,0.0,552.1538540999754,,,,,,,,,552.1388935000286,552.2540319000254,553.0543911000132,553.0374947999953,553.0375058000209,553.0543911000132,553.0543911000132,553.0543911000132,554.7882821999956,left,1.0,23.15923360001761,,,,,,,,,,,,,,,,,,,,,,,,,,,,,,,,sub-127,1.0,random_dot,60.10930275569645,
right,right,speed,,,,,0.0,1.0,1.0,1.0,22.0,1.0,45.0,1.0,554.803966699983,,,,,,,,,554.7887695999816,556.0039552000235,556.8043063000077,556.7875700999866,556.7875883000088,556.8043063000077,556.8043063000077,556.8043063000077,558.1047738000052,right,1.0,22.72647190000862,,,,,,,,,,,,,,,,,,,,,,,,,,,,,,,,sub-127,1.0,random_dot,60.10930275569645,
right,right,speed,,,,,0.0,1.0,1.0,1.0,23.0,0.0,46.0,1.0,558.1206872999901,,,,,,,,,558.1055067999987,558.2204821999767,559.0208476000116,559.003955800028,559.0039709000266,559.0208476000116,559.0208476000116,559.0208476000116,559.9379772000248,right,1.0,22.343885999987837,,,,,,,,,,,,,,,,,,,,,,,,,,,,,,,,sub-127,1.0,random_dot,60.10930275569645,
left,left,speed,,,,,0.0,1.0,1.0,1.0,23.0,1.0,47.0,0.0,559.953740899975,,,,,,,,,559.9385076999897,560.303812899976,561.1044922000146,561.087820900022,561.0878306999803,561.1044922000146,561.1044922000146,561.1044922000146,562.0884265999775,left,1.0,22.406922800058965,,,,,,,,,,,,,,,,,,,,,,,,,,,,,,,,sub-127,1.0,random_dot,60.10930275569645,
left,left,speed,,,,,0.0,1.0,1.0,1.0,24.0,0.0,48.0,0.0,562.1043589999899,,,,,,,,,562.0888923999737,562.9043186000199,563.7045672999811,563.6880275000003,563.6880378000205,563.7045672999811,563.7045672999811,563.7045672999811,565.7549324000138,right,0.0,23.463974400016014,,,,,,,,,,,,,,,,,,,,,,,,,,,,,,,,sub-127,1.0,random_dot,60.10930275569645,
right,right,speed,,,,,0.0,1.0,1.0,1.0,24.0,1.0,49.0,1.0,565.7708944000187,,,,,,,,,565.7553793999832,565.8708922999795,566.6711377999745,566.654606600001,566.6546181999729,566.6711377999745,566.6711377999745,566.6711377999745,568.2882288999972,right,1.0,23.035850700049195,,,,,,,,,,,,,,,,,,,,,,,,,,,,,,,,sub-127,1.0,random_dot,60.10930275569645,
right,right,speed,,,,,0.0,1.0,1.0,1.0,25.0,0.0,50.0,1.0,568.3038917999947,,,,,,,,,568.2886585000088,568.6539020999917,569.4543536999845,569.4376703000162,569.4376849000109,569.4543536999845,569.4543536999845,569.4543536999845,570.9218264999799,left,0.0,22.88088130002143,,,,,,,,,,,,,,,,,,,,,,,,,,,,,,,,sub-127,1.0,random_dot,60.10930275569645,
left,left,speed,,,,,0.0,1.0,1.0,1.0,25.0,1.0,51.0,0.0,570.9371170999948,,,,,,,,,570.9222902000183,571.2872405999806,572.0875031999894,572.0711574999732,572.0711782000144,572.0875031999894,572.0875031999894,572.0875031999894,573.7717733000172,left,1.0,23.102400600037072,,,,,,,,,,,,,,,,,,,,,,,,,,,,,,,,sub-127,1.0,random_dot,60.10930275569645,
right,right,speed,,,,,0.0,1.0,1.0,1.0,26.0,0.0,52.0,1.0,573.7872828000109,,,,,,,,,573.7722112999763,574.5867584000225,575.3876011000248,575.3711502000224,575.3711675999803,575.3876011000248,575.3876011000248,575.3876011000248,577.2879978999845,left,0.0,23.319559400028083,,,,,,,,,,,,,,,,,,,,,,,,,,,,,,,,sub-127,1.0,random_dot,60.10930275569645,
left,left,speed,,,,,0.0,1.0,1.0,1.0,26.0,1.0,53.0,0.0,577.3039453999954,,,,,,,,,577.2884495999897,577.3867782999878,578.1876114999759,578.1710430000094,578.1710618999787,578.1876114999759,578.1876114999759,578.1876114999759,580.9047311000177,left,1.0,24.137990800023545,,,,,,,,,,,,,,,,,,,,,,,,,,,,,,,,sub-127,1.0,random_dot,60.10930275569645,
right,right,speed,,,,,0.0,1.0,1.0,1.0,27.0,0.0,54.0,1.0,580.9205442999955,,,,,,,,,580.9051959000062,581.0206892000278,581.8209081999958,581.8042850000202,581.8042974999989,581.8209081999958,581.8209081999958,581.8209081999958,582.5544348999974,right,1.0,22.147803300002124,,,,,,,,,,,,,,,,,,,,,,,,,,,,,,,,sub-127,1.0,random_dot,60.10930275569645,
left,left,speed,,,,,0.0,1.0,1.0,1.0,27.0,1.0,55.0,0.0,582.5700962999836,,,,,,,,,582.554926700017,583.7539593999973,584.5537376999855,584.5372777999728,584.5372877999907,584.5537376999855,584.5537376999855,584.5537376999855,586.2548418000224,right,0.0,23.11837320000632,,,,,,,,,,,,,,,,,,,,,,,,,,,,,,,,sub-127,1.0,random_dot,60.10930275569645,
left,left,speed,,,,,0.0,1.0,1.0,1.0,28.0,0.0,56.0,0.0,586.2704829000286,,,,,,,,,586.255340499978,586.6206541999709,587.420827599999,587.4040405999986,587.4040496000089,587.420827599999,587.420827599999,587.420827599999,588.3549810000113,left,1.0,22.34702980000293,,,,,,,,,,,,,,,,,,,,,,,,,,,,,,,,sub-127,1.0,random_dot,60.10930275569645,
right,right,speed,,,,,0.0,1.0,1.0,1.0,28.0,1.0,57.0,1.0,588.3706441000104,,,,,,,,,588.3554406000185,588.4705552000087,589.2708111000247,589.2542736000032,589.254286499985,589.2708111000247,589.2708111000247,589.2708111000247,591.35488910001,left,0.0,23.502207899990022,,,,,,,,,,,,,,,,,,,,,,,,,,,,,,,,sub-127,1.0,random_dot,60.10930275569645,
left,left,speed,,,,,0.0,1.0,1.0,1.0,29.0,0.0,58.0,0.0,591.3702466000104,,,,,,,,,591.3553650000249,591.7201610999764,592.5207851000014,592.5041234000237,592.504138600023,592.5207851000014,592.5207851000014,592.5207851000014,594.3215103999828,left,1.0,23.222779500007164,,,,,,,,,,,,,,,,,,,,,,,,,,,,,,,,sub-127,1.0,random_dot,60.10930275569645,
right,right,speed,,,,,0.0,1.0,1.0,1.0,29.0,1.0,59.0,1.0,594.3368110000156,,,,,,,,,594.3219781999942,594.6869791999925,595.4873014999903,595.4707894999883,595.4708102999721,595.4873014999903,595.4873014999903,595.4873014999903,597.2379639000283,left,0.0,23.17115240002749,,,,,,,,,,,,,,,,,,,,,,,,,,,,,,,,sub-127,1.0,random_dot,60.10930275569645,
,,speed,,,,,0.0,1.0,1.0,1.0,,,,,,,,,,,,,,,,,,,,,,,,,,,,,,,,,,,,,,,,,,,,,,,,,,,,,,,,,sub-127,1.0,random_dot,60.10930275569645,
,,,,,,,,,,,,,,,,,,,,,,,,,,,,,,,,,,,,,,,,,,,,,,,,,,,,,,,,,,,,,,,597.2383146000211,597.2533429000177,602.2533500000136,602.2372736000107,sub-127,,,,
