wordCTK,colorCTK,corrAnsCTK,congruentCTK,thisN,thisTrialN,thisRepN,keyResp_CTK.keys,keyResp_CTK.corr,keyResp_CTK.rt,keyResp_CTK.duration,wordPractice,colorPractice,corrAnsPractice,congruentPractice,respPractice.keys,respPractice.corr,respPractice.rt,respPractice.duration,word,color,corrAns,congruent,keyResp_test_run.keys,keyResp_test_run.corr,keyResp_test_run.rt,keyResp_test_run.duration,trials_CTK.thisRepN,trials_CTK.thisTrialN,trials_CTK.thisN,trials_CTK.thisIndex,trials_practice.thisRepN,trials_practice.thisTrialN,trials_practice.thisN,trials_practice.thisIndex,trials_test.thisRepN,trials_test.thisTrialN,trials_test.thisN,trials_test.thisIndex,thisRow.t,notes,instruction.started,instr_text.started,instr_image.started,instr_resp.started,instruction.stopped,instr_resp.keys,instr_resp.rt,instr_resp.duration,instr_color_to_key.started,instr_ctk.started,resp_ctk.started,instr_color_to_key.stopped,resp_ctk.keys,resp_ctk.rt,resp_ctk.duration,ITI.started,fixcross.started,fixcross.stopped,ITI.stopped,color_to_key_run.started,stimulus_CTK.started,keyResp_CTK.started,color_to_key_run.stopped,trials_CTK.keyResp_CTK.keys,trials_CTK.keyResp_CTK.corr,trials_CTK.keyResp_CTK.rt,trials_CTK.keyResp_CTK.duration,instr_practice.started,instr_practice_text.started,instr_practice_resp.started,instr_practice.stopped,instr_practice_resp.keys,instr_practice_resp.rt,instr_practice_resp.duration,practice_run.started,stimulus_practice.started,respPractice.started,practice_run.stopped,trials_practice.respPractice.keys,trials_practice.respPractice.corr,trials_practice.respPractice.rt,trials_practice.respPractice.duration,feedback.started,textFeedback.started,feedback.stopped,textFeedback.stopped,instr_test.started,instr_test_text.started,instr_test_resp.started,instr_test.stopped,instr_test_resp.keys,instr_test_resp.rt,instr_test_resp.duration,test_run.started,stimulus_test_run.started,keyResp_test_run.started,test_run.stopped,trials_test.keyResp_test_run.keys,trials_test.keyResp_test_run.corr,trials_test.keyResp_test_run.rt,trials_test.keyResp_test_run.duration,goodbye.started,textGoodbye.started,textGoodbye.stopped,goodbye.stopped,participant,session,expName,frameRate,Unnamed: 113
,,,,,,,,,,,,,,,,,,,,,,,,,,,,,,,,,,,,,,,,,0.0051665999926626,0.0325964000076055,0.0325964000076055,0.0325964000076055,13.005461799912156,space,12.91886830003932,,,,,,,,,,,,,,,,,,,,,,,,,,,,,,,,,,,,,,,,,,,,,,,,,,,,,,,,,,,sub-091,1,stroop_test,59.734480202547694,
,,,,,,,,,,,,,,,,,,,,,,,,,,,,,,,,,,,,,,,,,,,,,,,,,13.005513499956578,13.014382999856023,13.014382999856023,17.077332000015303,space,4.054240800207481,,,,,,,,,,,,,,,,,,,,,,,,,,,,,,,,,,,,,,,,,,,,,,,,,,,,sub-091,1,stroop_test,59.734480202547694,
test,red,r,1.0,0.0,0.0,0.0,r,1.0,0.6907907000277191,,,,,,,,,,,,,,,,,,0.0,0.0,0.0,0.0,,,,,,,,,17.094621199881658,,,,,,,,,,,,,,,,,17.089642399922013,17.892329399939626,18.701895700069144,18.676255400059745,18.692810599925,18.701895700069144,18.701895700069144,19.397148499963805,r,1.0,0.6907907000277191,,,,,,,,,,,,,,,,,,,,,,,,,,,,,,,,,,,,,,,,sub-091,1,stroop_test,59.734480202547694,
test,blue,b,1.0,1.0,1.0,0.0,b,1.0,1.2682517000939697,,,,,,,,,,,,,,,,,,0.0,1.0,1.0,2.0,,,,,,,,,19.410223399987444,,,,,,,,,,,,,,,,,19.39740530005656,20.61023089988157,21.40878619998693,21.393456999910995,21.393832799978554,21.40878619998693,21.40878619998693,22.67927649989724,b,1.0,1.2682517000939697,,,,,,,,,,,,,,,,,,,,,,,,,,,,,,,,,,,,,,,,sub-091,1,stroop_test,59.734480202547694,
test,yellow,g,1.0,2.0,2.0,0.0,g,1.0,0.2864065999165177,,,,,,,,,,,,,,,,,,0.0,2.0,2.0,1.0,,,,,,,,,22.69277109997347,,,,,,,,,,,,,,,,,22.6795121000614,23.04335969989188,23.84350259997882,23.82740109995939,23.82767719984986,23.84350259997882,23.84350259997882,24.14490030007437,g,1.0,0.2864065999165177,,,,,,,,,,,,,,,,,,,,,,,,,,,,,,,,,,,,,,,,sub-091,1,stroop_test,59.734480202547694,
test,yellow,g,1.0,3.0,0.0,1.0,g,1.0,0.5744140001479536,,,,,,,,,,,,,,,,,,1.0,0.0,3.0,1.0,,,,,,,,,24.15993639989756,,,,,,,,,,,,,,,,,24.14513049996458,25.3596252000425,26.1605592998676,26.14418140007183,26.1446235999465,26.1605592998676,26.1605592998676,26.743724700063467,g,1.0,0.5744140001479536,,,,,,,,,,,,,,,,,,,,,,,,,,,,,,,,,,,,,,,,sub-091,1,stroop_test,59.734480202547694,
test,red,r,1.0,4.0,1.0,1.0,r,1.0,0.5852876000571996,,,,,,,,,,,,,,,,,,1.0,1.0,4.0,0.0,,,,,,,,,26.76010029995814,,,,,,,,,,,,,,,,,26.74397619999945,27.942863299977034,28.74414149997756,28.72799799987115,28.728366799885407,28.74414149997756,28.74414149997756,29.34547479986213,r,1.0,0.5852876000571996,,,,,,,,,,,,,,,,,,,,,,,,,,,,,,,,,,,,,,,,sub-091,1,stroop_test,59.734480202547694,
test,blue,b,1.0,5.0,2.0,1.0,b,1.0,0.6360879999119788,,,,,,,,,,,,,,,,,,1.0,2.0,5.0,2.0,,,,,,,,,29.360090299975127,,,,,,,,,,,,,,,,,29.34581599989906,30.159369299886748,30.959667999995872,30.944436699850485,30.9447556999512,30.959667999995872,30.959667999995872,31.6106910998933,b,1.0,0.6360879999119788,,,,,,,,,,,,,,,,,,,,,,,,,,,,,,,,,,,,,,,,sub-091,1,stroop_test,59.734480202547694,
test,yellow,g,1.0,6.0,0.0,2.0,g,1.0,0.6767386000137776,,,,,,,,,,,,,,,,,,2.0,0.0,6.0,1.0,,,,,,,,,31.625954299932346,,,,,,,,,,,,,,,,,31.61098110000603,31.70937240007333,32.509612899972126,32.49416869995184,32.49464130005799,32.509612899972126,32.509612899972126,33.194145400077105,g,1.0,0.6767386000137776,,,,,,,,,,,,,,,,,,,,,,,,,,,,,,,,,,,,,,,,sub-091,1,stroop_test,59.734480202547694,
test,red,r,1.0,7.0,1.0,2.0,r,1.0,0.3881854999344796,,,,,,,,,,,,,,,,,,2.0,1.0,7.0,0.0,,,,,,,,,33.2095228000544,,,,,,,,,,,,,,,,,33.194440399995074,34.00943830003962,34.8088543000631,34.79409720003605,34.79438590002246,34.8088543000631,34.8088543000631,35.210286299930885,r,1.0,0.3881854999344796,,,,,,,,,,,,,,,,,,,,,,,,,,,,,,,,,,,,,,,,sub-091,1,stroop_test,59.734480202547694,
test,blue,b,1.0,8.0,2.0,2.0,b,1.0,0.3907370001543313,,,,,,,,,,,,,,,,,,2.0,2.0,8.0,2.0,,,,,,,,,35.22532769991085,,,,,,,,,,,,,,,,,35.21050469996408,35.56005269987509,36.35993320005946,36.34346070000902,36.34379359986633,36.35993320005946,36.35993320005946,36.76063250005245,b,1.0,0.3907370001543313,,,,,,,,,,,,,,,,,,,,,,,,,,,,,,,,,,,,,,,,sub-091,1,stroop_test,59.734480202547694,
test,red,r,1.0,9.0,0.0,3.0,r,1.0,0.5876535999123007,,,,,,,,,,,,,,,,,,3.0,0.0,9.0,0.0,,,,,,,,,36.77586330007762,,,,,,,,,,,,,,,,,36.76090530003421,36.87476360006258,37.67609459999949,37.66002919990569,37.66039099986665,37.67609459999949,37.67609459999949,38.27652630000375,r,1.0,0.5876535999123007,,,,,,,,,,,,,,,,,,,,,,,,,,,,,,,,,,,,,,,,sub-091,1,stroop_test,59.734480202547694,
test,blue,b,1.0,10.0,1.0,3.0,b,1.0,0.6874579999130219,,,,,,,,,,,,,,,,,,3.0,1.0,10.0,2.0,,,,,,,,,38.29205140005797,,,,,,,,,,,,,,,,,38.27674059988931,38.37579229986295,39.17686629993841,39.16086249984801,39.16133989999071,39.17686629993841,39.17686629993841,39.877716300077736,b,1.0,0.6874579999130219,,,,,,,,,,,,,,,,,,,,,,,,,,,,,,,,,,,,,,,,sub-091,1,stroop_test,59.734480202547694,
test,yellow,g,1.0,11.0,2.0,3.0,g,1.0,0.4802864999510348,,,,,,,,,,,,,,,,,,3.0,2.0,11.0,1.0,,,,,,,,,39.89221920003183,,,,,,,,,,,,,,,,,39.87790760002099,40.22676880005747,41.0265174000524,41.0102581998799,41.010579199995846,41.0265174000524,41.0265174000524,41.51141979987733,g,1.0,0.4802864999510348,,,,,,,,,,,,,,,,,,,,,,,,,,,,,,,,,,,,,,,,sub-091,1,stroop_test,59.734480202547694,
,,,,,,,,,,,,,,,,,,,,,,,,,,,,,,,,,,,,,,,,,,,,,,,,,,,,,,,,,,,,,,,,,,,,41.511683699907735,41.52535289991647,41.52535289991647,44.34481919999234,space,2.8153570001013577,,,,,,,,,,,,,,,,,,,,,,,,,,,,,,,,,sub-091,1,stroop_test,59.734480202547694,
,,,,0.0,0.0,0.0,,,,,rot,blue,b,0.0,b,1.0,0.8982828001026064,,,,,,,,,,,,,,0.0,0.0,0.0,2.0,,,,,44.35864480002783,,,,,,,,,,,,,,,,,44.35192899988033,45.15938859991729,45.95809799991548,45.94360079988837,,,,,,,,,,,,,,,,45.95030250004493,45.95809799991548,45.95809799991548,46.86050509987399,b,1.0,0.8982828001026064,,46.87601589993574,46.882097699912265,47.876107200048864,,,,,,,,,,,,,,,,,,,,,sub-091,1,stroop_test,59.734480202547694,
,,,,1.0,1.0,0.0,,,,,blau,yellow,g,0.0,g,1.0,0.6456281000282615,,,,,,,,,,,,,,0.0,1.0,1.0,7.0,,,,,47.89289000001736,,,,,,,,,,,,,,,,,47.87641409994103,49.076042499858886,49.881497599883005,49.85962169989944,,,,,,,,,,,,,,,,49.87364539992996,49.881497599883005,49.881497599883005,50.5437761999201,g,1.0,0.6456281000282615,,50.544153599999845,50.55879450007342,51.54288939991966,51.55922599998303,,,,,,,,,,,,,,,,,,,,sub-091,1,stroop_test,59.734480202547694,
,,,,2.0,2.0,0.0,,,,,rot,red,r,1.0,r,1.0,0.4520006000529974,,,,,,,,,,,,,,0.0,2.0,2.0,0.0,,,,,51.55922599998303,,,,,,,,,,,,,,,,,51.54315289994702,51.90931189991534,52.70874419994652,52.69386269990355,,,,,,,,,,,,,,,,52.69641850003973,52.70874419994652,52.70874419994652,53.17714380007237,r,1.0,0.4520006000529974,,53.17750389990397,53.19211659999564,54.1768229000736,54.19271679990925,,,,,,,,,,,,,,,,,,,,sub-091,1,stroop_test,59.734480202547694,
,,,,3.0,3.0,0.0,,,,,blau,blue,b,1.0,b,1.0,1.015087699983269,,,,,,,,,,,,,,0.0,3.0,3.0,6.0,,,,,54.19271679990925,,,,,,,,,,,,,,,,,54.17701500002295,54.99203019984998,55.79240769986063,55.77565460000187,,,,,,,,,,,,,,,,55.77858619997278,55.79240769986063,55.79240769986063,56.81026729987934,b,1.0,1.015087699983269,,56.81062190001831,56.8255107998848,57.80929509992711,57.8251273999922,,,,,,,,,,,,,,,,,,,,sub-091,1,stroop_test,59.734480202547694,
,,,,4.0,4.0,0.0,,,,,rot,red,r,1.0,r,1.0,0.72954440000467,,,,,,,,,,,,,,0.0,4.0,4.0,1.0,,,,,57.8251273999922,,,,,,,,,,,,,,,,,57.80962119996548,59.00979460007511,59.81291089998558,59.794700499856845,,,,,,,,,,,,,,,,59.80496679991484,59.81291089998558,59.81291089998558,60.544688699999824,r,1.0,0.72954440000467,,60.54499409999698,60.55922270007432,61.54332159995101,61.55935849994421,,,,,,,,,,,,,,,,,,,,sub-091,1,stroop_test,59.734480202547694,
,,,,5.0,5.0,0.0,,,,,gelb,blue,b,0.0,b,1.0,1.0851709998678416,,,,,,,,,,,,,,0.0,5.0,5.0,9.0,,,,,61.55935849994421,,,,,,,,,,,,,,,,,61.54360909992829,61.65867809997872,62.46092829992995,62.44299610005692,,,,,,,,,,,,,,,,62.45383460004814,62.46092829992995,62.46092829992995,63.55918059987016,b,1.0,1.0851709998678416,,63.55954409996048,63.57624579989351,64.5596491000615,64.57589129987173,,,,,,,,,,,,,,,,,,,,sub-091,1,stroop_test,59.734480202547694,
,,,,6.0,6.0,0.0,,,,,blau,blue,b,1.0,b,1.0,0.6817465999629349,,,,,,,,,,,,,,0.0,6.0,6.0,5.0,,,,,64.57589129987173,,,,,,,,,,,,,,,,,64.55996660003439,65.77565740002319,66.57525429991074,66.56087849987671,,,,,,,,,,,,,,,,66.56413339986466,66.57525429991074,66.57525429991074,67.25994369992986,b,1.0,0.6817465999629349,,67.26028129993938,67.27531079994515,68.25972380000167,68.27628919994459,,,,,,,,,,,,,,,,,,,,sub-091,1,stroop_test,59.734480202547694,
,,,,7.0,7.0,0.0,,,,,rot,yellow,g,0.0,g,1.0,0.8751789999660105,,,,,,,,,,,,,,0.0,7.0,7.0,3.0,,,,,68.27628919994459,,,,,,,,,,,,,,,,,68.26001219986938,69.05913249985315,69.866378699895,69.84410579991527,,,,,,,,,,,,,,,,69.85558089986444,69.866378699895,69.866378699895,70.74424419994466,g,1.0,0.8751789999660105,,70.74458739999682,70.75886439997703,71.74337469995953,71.75911029987037,,,,,,,,,,,,,,,,,,,,sub-091,1,stroop_test,59.734480202547694,
,,,,8.0,8.0,0.0,,,,,gelb,yellow,g,1.0,g,1.0,0.7629410000517964,,,,,,,,,,,,,,0.0,8.0,8.0,11.0,,,,,71.75911029987037,,,,,,,,,,,,,,,,,71.74371179984882,72.9581589999143,73.77911960007623,73.74273349996656,,,,,,,,,,,,,,,,73.7736032998655,73.77911960007623,73.77911960007623,74.5444624000229,g,1.0,0.7629410000517964,,74.5448097998742,74.55905509996228,75.54261799994856,75.55917140003294,,,,,,,,,,,,,,,,,,,,sub-091,1,stroop_test,59.734480202547694,
,,,,9.0,9.0,0.0,,,,,blau,red,r,0.0,r,1.0,0.8329701998736709,,,,,,,,,,,,,,0.0,9.0,9.0,4.0,,,,,75.55917140003294,,,,,,,,,,,,,,,,,75.54294329998083,76.75837070005946,77.5597945000045,77.5431945999153,,,,,,,,,,,,,,,,77.5455233999528,77.5597945000045,77.5597945000045,78.4095463999547,r,1.0,0.8329701998736709,,78.40986100002192,78.42436939990148,79.40989280003123,79.42577179986984,,,,,,,,,,,,,,,,,,,,sub-091,1,stroop_test,59.734480202547694,
,,,,10.0,10.0,0.0,,,,,gelb,red,r,0.0,r,1.0,1.0175558999180794,,,,,,,,,,,,,,0.0,10.0,10.0,8.0,,,,,79.42577179986984,,,,,,,,,,,,,,,,,79.41013869992457,79.50810740003362,80.30819729994982,80.29196509998292,,,,,,,,,,,,,,,,80.29554570000619,80.30819729994982,80.30819729994982,81.34176289988682,r,1.0,1.0175558999180794,,81.34205279988237,81.35813100007363,82.34229910001159,82.3578198000323,,,,,,,,,,,,,,,,,,,,sub-091,1,stroop_test,59.734480202547694,
,,,,11.0,11.0,0.0,,,,,gelb,yellow,g,1.0,g,1.0,0.9440933999139816,,,,,,,,,,,,,,0.0,11.0,11.0,10.0,,,,,82.3578198000323,,,,,,,,,,,,,,,,,82.34249860001728,82.69141649990343,83.49208120000549,83.47728529991582,,,,,,,,,,,,,,,,83.47780760005116,83.49208120000549,83.49208120000549,84.4438570998609,g,1.0,0.9440933999139816,,84.44424470001832,84.45870619989,85.44230189989321,85.45764299994335,,,,,,,,,,,,,,,,,,,,sub-091,1,stroop_test,59.734480202547694,
,,,,12.0,0.0,1.0,,,,,blau,red,r,0.0,r,1.0,0.7123992999549955,,,,,,,,,,,,,,1.0,0.0,12.0,4.0,,,,,85.45764299994335,,,,,,,,,,,,,,,,,85.44251419999637,85.8079987000674,86.61233879998326,86.59262889996171,,,,,,,,,,,,,,,,86.60166859999299,86.61233879998326,86.61233879998326,87.32716599991545,r,1.0,0.7123992999549955,,87.32844610000029,87.3421432999894,88.32657899986953,88.34229429997504,,,,,,,,,,,,,,,,,,,,sub-091,1,stroop_test,59.734480202547694,
,,,,13.0,1.0,1.0,,,,,rot,yellow,g,0.0,g,1.0,1.0331356001552194,,,,,,,,,,,,,,1.0,1.0,13.0,3.0,,,,,88.34229429997504,,,,,,,,,,,,,,,,,88.32701759994961,89.14164589997381,89.94318749988452,89.92607169994153,,,,,,,,,,,,,,,,89.92862490005791,89.94318749988452,89.94318749988452,90.99190000002272,g,1.0,1.0331356001552194,,90.9922316998709,91.00713369995356,91.99206890002824,92.00784490001388,,,,,,,,,,,,,,,,,,,,sub-091,1,stroop_test,59.734480202547694,
,,,,14.0,2.0,1.0,,,,,gelb,blue,b,0.0,b,1.0,0.8110701001714915,,,,,,,,,,,,,,1.0,2.0,14.0,9.0,,,,,92.00784490001388,,,,,,,,,,,,,,,,,91.99227360007352,92.09184739994816,92.9073707999196,92.89136689994484,,,,,,,,,,,,,,,,92.89363229996523,92.9073707999196,92.9073707999196,93.72561730002052,b,1.0,0.8110701001714915,,93.72597440006211,93.74101760005578,94.72649080003612,,,,,,,,,,,,,,,,,,,,,sub-091,1,stroop_test,59.734480202547694,
,,,,15.0,3.0,1.0,,,,,blau,blue,b,1.0,b,1.0,0.777146500069648,,,,,,,,,,,,,,1.0,3.0,15.0,6.0,,,,,94.74120300007051,,,,,,,,,,,,,,,,,94.72681829985233,94.82491279998794,95.62504930002616,95.60950040002352,,,,,,,,,,,,,,,,95.6128441998735,95.62504930002616,95.62504930002616,96.41004609991796,b,1.0,0.777146500069648,,96.4103812999092,96.4253400999587,97.40924050007015,97.42537209996954,,,,,,,,,,,,,,,,,,,,sub-091,1,stroop_test,59.734480202547694,
,,,,16.0,4.0,1.0,,,,,gelb,yellow,g,1.0,g,1.0,0.6147014000453055,,,,,,,,,,,,,,1.0,4.0,16.0,11.0,,,,,97.42537209996954,,,,,,,,,,,,,,,,,97.40954190003686,98.62571469997056,99.42519319988789,99.4096621000208,,,,,,,,,,,,,,,,99.41288329986855,99.42519319988789,99.42519319988789,100.0435504000634,g,1.0,0.6147014000453055,,100.043880000012,100.05766759999096,101.04374370002188,101.06000379985198,,,,,,,,,,,,,,,,,,,,sub-091,1,stroop_test,59.734480202547694,
,,,,17.0,5.0,1.0,,,,,rot,red,r,1.0,r,1.0,0.5713800999801606,,,,,,,,,,,,,,1.0,5.0,17.0,0.0,,,,,101.06000379985198,,,,,,,,,,,,,,,,,101.04409089987166,101.85819689999336,102.65972310001962,102.64205230004154,,,,,,,,,,,,,,,,102.65245449985376,102.65972310001962,102.65972310001962,103.2423731999006,r,1.0,0.5713800999801606,,103.24278709990904,103.25824759993702,104.24252139986493,104.25898569985291,,,,,,,,,,,,,,,,,,,,sub-091,1,stroop_test,59.734480202547694,
,,,,18.0,6.0,1.0,,,,,gelb,red,r,0.0,r,1.0,0.5344474001321942,,,,,,,,,,,,,,1.0,6.0,18.0,8.0,,,,,104.25898569985291,,,,,,,,,,,,,,,,,104.24284869991244,104.59192679985426,105.39126929990016,105.37536199996248,,,,,,,,,,,,,,,,105.3783698999323,105.39126929990016,105.39126929990016,105.9417709999252,r,1.0,0.5344474001321942,,105.94208139996044,105.95830379985271,106.94220509985462,106.9589597999584,,,,,,,,,,,,,,,,,,,,sub-091,1,stroop_test,59.734480202547694,
,,,,19.0,7.0,1.0,,,,,rot,blue,b,0.0,b,1.0,0.9120356999337672,,,,,,,,,,,,,,1.0,7.0,19.0,2.0,,,,,106.9589597999584,,,,,,,,,,,,,,,,,106.94247030001134,107.04181939992122,107.84146029991098,107.8266900999006,,,,,,,,,,,,,,,,107.82912490004674,107.84146029991098,107.84146029991098,108.75967000005768,b,1.0,0.9120356999337672,,108.76002219994552,108.77413429995067,109.75878769997507,109.77493309997952,,,,,,,,,,,,,,,,,,,,sub-091,1,stroop_test,59.734480202547694,
,,,,20.0,8.0,1.0,,,,,gelb,yellow,g,1.0,g,1.0,0.785624299896881,,,,,,,,,,,,,,1.0,8.0,20.0,10.0,,,,,109.77493309997952,,,,,,,,,,,,,,,,,109.75911809992976,109.87485899985768,110.67683429992758,110.66025149985217,,,,,,,,,,,,,,,,110.66498339991084,110.67683429992758,110.67683429992758,111.47548749996348,g,1.0,0.785624299896881,,111.47577599994838,111.4914750000462,112.47580450004898,112.49197199987248,,,,,,,,,,,,,,,,,,,,sub-091,1,stroop_test,59.734480202547694,
,,,,21.0,9.0,1.0,,,,,blau,blue,b,1.0,r,0.0,0.616995400050655,,,,,,,,,,,,,,1.0,9.0,21.0,5.0,,,,,112.49197199987248,,,,,,,,,,,,,,,,,112.47608389984816,112.82418580004014,113.6243123000022,113.60928409988992,,,,,,,,,,,,,,,,113.61215019994415,113.6243123000022,113.6243123000022,114.24363159993663,r,0.0,0.616995400050655,,114.24865960003808,114.2574513000436,115.24300400004722,115.25771460006943,,,,,,,,,,,,,,,,,,,,sub-091,1,stroop_test,59.734480202547694,
,,,,22.0,10.0,1.0,,,,,blau,yellow,g,0.0,g,1.0,0.7710460000671446,,,,,,,,,,,,,,1.0,10.0,22.0,7.0,,,,,115.25771460006943,,,,,,,,,,,,,,,,,115.24336960003713,116.45845100004226,117.27429219987243,117.25836919993162,,,,,,,,,,,,,,,,117.25899789994584,117.27429219987243,117.27429219987243,118.05909599992448,g,1.0,0.7710460000671446,,118.07024269993416,118.07989659998566,119.07452569995075,,,,,,,,,,,,,,,,,,,,,sub-091,1,stroop_test,59.734480202547694,
,,,,23.0,11.0,1.0,,,,,rot,red,r,1.0,r,1.0,0.6903369000647217,,,,,,,,,,,,,,1.0,11.0,23.0,1.0,,,,,119.09101750003174,,,,,,,,,,,,,,,,,119.07482429989614,119.17427339986898,119.97412470006384,119.95858890004456,,,,,,,,,,,,,,,,119.96280229999684,119.97412470006384,119.97412470006384,120.67519670003094,r,1.0,0.6903369000647217,,120.6755373000633,120.69102509994993,121.67429269989952,121.69040629989468,,,,,,,,,,,,,,,,,,,,sub-091,1,stroop_test,59.734480202547694,
,,,,,,,,,,,,,,,,,,,,,,,,,,,,,,,,,,,,,,,,,,,,,,,,,,,,,,,,,,,,,,,,,,,,,,,,,,,,,,,,,,,,,,,121.67437239992432,121.69040629989468,121.69040629989468,128.00869749998674,space,6.306438700063154,,,,,,,,,,,,,,sub-091,1,stroop_test,59.734480202547694,
,,,,0.0,0.0,0.0,,,,,,,,,,,,,rot,blue,b,0.0,b,1.0,0.9935965999029576,,,,,,,,,,0.0,0.0,0.0,2.0,128.02408239990473,,,,,,,,,,,,,,,,,128.0169537998736,128.10780650004745,128.90791629999876,128.89281089999713,,,,,,,,,,,,,,,,,,,,,,,,,,,,,,,,,,,128.89498670003377,128.90791629999876,128.90791629999876,129.90844050003216,b,1.0,0.9935965999029576,,,,,,sub-091,1,stroop_test,59.734480202547694,
,,,,1.0,1.0,0.0,,,,,,,,,,,,,gelb,red,r,0.0,r,1.0,0.9997328999452292,,,,,,,,,,0.0,1.0,1.0,8.0,129.9237972998526,,,,,,,,,,,,,,,,,129.90868139988743,130.25842089997604,131.05884449998848,131.04327549994923,,,,,,,,,,,,,,,,,,,,,,,,,,,,,,,,,,,131.04685709998012,131.05884449998848,131.05884449998848,132.07579479995184,r,1.0,0.9997328999452292,,,,,,sub-091,1,stroop_test,59.734480202547694,
,,,,2.0,2.0,0.0,,,,,,,,,,,,,blau,red,r,0.0,r,1.0,0.984190700110048,,,,,,,,,,0.0,2.0,2.0,4.0,132.09098850004375,,,,,,,,,,,,,,,,,132.0760468998924,132.19079319993034,132.98963399999775,132.97465840005316,,,,,,,,,,,,,,,,,,,,,,,,,,,,,,,,,,,132.97793509997427,132.98963399999775,132.98963399999775,133.99101589992642,r,1.0,0.984190700110048,,,,,,sub-091,1,stroop_test,59.734480202547694,
,,,,3.0,3.0,0.0,,,,,,,,,,,,,blau,blue,b,1.0,b,1.0,1.0890460999216884,,,,,,,,,,0.0,3.0,3.0,5.0,134.00754310004413,,,,,,,,,,,,,,,,,133.9912459999323,135.19111709995195,135.99086120002903,135.9754902999848,,,,,,,,,,,,,,,,,,,,,,,,,,,,,,,,,,,135.97591859987006,135.99086120002903,135.99086120002903,137.09188469988294,b,1.0,1.0890460999216884,,,,,,sub-091,1,stroop_test,59.734480202547694,
,,,,4.0,4.0,0.0,,,,,,,,,,,,,blau,blue,b,1.0,b,1.0,1.0249717000406235,,,,,,,,,,0.0,4.0,4.0,6.0,137.10696509992704,,,,,,,,,,,,,,,,,137.09221050003543,137.440688499948,138.24074029992337,138.22511649993248,,,,,,,,,,,,,,,,,,,,,,,,,,,,,,,,,,,138.22552209999412,138.24074029992337,138.24074029992337,139.27494939998724,b,1.0,1.0249717000406235,,,,,,sub-091,1,stroop_test,59.734480202547694,
,,,,5.0,5.0,0.0,,,,,,,,,,,,,blau,yellow,g,0.0,g,1.0,0.6344983000308275,,,,,,,,,,0.0,5.0,5.0,7.0,139.29057529987767,,,,,,,,,,,,,,,,,139.2752547999844,140.07383299991488,140.8742867000401,140.85842130007222,,,,,,,,,,,,,,,,,,,,,,,,,,,,,,,,,,,140.85871759988368,140.8742867000401,140.8742867000401,141.52431969996542,g,1.0,0.6344983000308275,,,,,,sub-091,1,stroop_test,59.734480202547694,
,,,,6.0,6.0,0.0,,,,,,,,,,,,,rot,yellow,g,0.0,g,1.0,0.6573522000107914,,,,,,,,,,0.0,6.0,6.0,3.0,141.54086000006646,,,,,,,,,,,,,,,,,141.52453180006705,142.72449900000356,143.52349609998055,143.50842189998366,,,,,,,,,,,,,,,,,,,,,,,,,,,,,,,,,,,143.51116180000827,143.52349609998055,143.52349609998055,144.19215260003693,g,1.0,0.6573522000107914,,,,,,sub-091,1,stroop_test,59.734480202547694,
,,,,7.0,7.0,0.0,,,,,,,,,,,,,gelb,yellow,g,1.0,g,1.0,0.583500700071454,,,,,,,,,,0.0,7.0,7.0,11.0,144.20692169992253,,,,,,,,,,,,,,,,,144.1923882998526,145.4071064000018,146.2182302000001,146.19177809986286,,,,,,,,,,,,,,,,,,,,,,,,,,,,,,,,,,,146.20343669992872,146.2182302000001,146.2182302000001,146.808527499903,g,1.0,0.583500700071454,,,,,,sub-091,1,stroop_test,59.734480202547694,
,,,,8.0,8.0,0.0,,,,,,,,,,,,,rot,red,r,1.0,r,1.0,0.5105465000960976,,,,,,,,,,0.0,8.0,8.0,0.0,146.82280249986798,,,,,,,,,,,,,,,,,146.80884219985455,148.00709909992293,148.8086486000102,148.79202739987522,,,,,,,,,,,,,,,,,,,,,,,,,,,,,,,,,,,148.80292099993676,148.8086486000102,148.8086486000102,149.32462790003046,r,1.0,0.5105465000960976,,,,,,sub-091,1,stroop_test,59.734480202547694,
,,,,9.0,9.0,0.0,,,,,,,,,,,,,gelb,blue,b,0.0,b,1.0,0.7386182998307049,,,,,,,,,,0.0,9.0,9.0,9.0,149.34046279988252,,,,,,,,,,,,,,,,,149.3248574999161,149.68993659992702,150.49132289993577,150.47569480002858,,,,,,,,,,,,,,,,,,,,,,,,,,,,,,,,,,,150.47872849996202,150.49132289993577,150.49132289993577,151.2434338000603,b,1.0,0.7386182998307049,,,,,,sub-091,1,stroop_test,59.734480202547694,
,,,,10.0,10.0,0.0,,,,,,,,,,,,,gelb,yellow,g,1.0,g,1.0,0.535628299927339,,,,,,,,,,0.0,10.0,10.0,10.0,151.25783309992403,,,,,,,,,,,,,,,,,151.2437881999649,151.35729889990762,152.1573854999151,152.14225449995138,,,,,,,,,,,,,,,,,,,,,,,,,,,,,,,,,,,152.1426806000527,152.1573854999151,152.1573854999151,152.7087284999434,g,1.0,0.535628299927339,,,,,,sub-091,1,stroop_test,59.734480202547694,
,,,,11.0,11.0,0.0,,,,,,,,,,,,,rot,red,r,1.0,r,1.0,0.6451996001414955,,,,,,,,,,0.0,11.0,11.0,1.0,152.7235437000636,,,,,,,,,,,,,,,,,152.70902629988268,152.80780289997347,153.62323169992305,153.60859319986776,,,,,,,,,,,,,,,,,,,,,,,,,,,,,,,,,,,153.61185079999268,153.62323169992305,153.62323169992305,154.274522599997,r,1.0,0.6451996001414955,,,,,,sub-091,1,stroop_test,59.734480202547694,
,,,,12.0,0.0,1.0,,,,,,,,,,,,,blau,blue,b,1.0,b,1.0,0.501388399861753,,,,,,,,,,1.0,0.0,12.0,6.0,154.28987029986456,,,,,,,,,,,,,,,,,154.2747835998889,154.6237103000749,155.4230239999015,155.40860769990832,,,,,,,,,,,,,,,,,,,,,,,,,,,,,,,,,,,155.41282019997016,155.4230239999015,155.4230239999015,155.94163609994575,b,1.0,0.501388399861753,,,,,,sub-091,1,stroop_test,59.734480202547694,
,,,,13.0,1.0,1.0,,,,,,,,,,,,,rot,blue,b,0.0,b,1.0,0.5520964998286217,,,,,,,,,,1.0,1.0,13.0,2.0,155.9573641999159,,,,,,,,,,,,,,,,,155.9419011999853,157.15650369995274,157.9573689000681,157.94178869994357,,,,,,,,,,,,,,,,,,,,,,,,,,,,,,,,,,,157.9446984999813,157.9573689000681,157.9573689000681,158.5251579999458,b,1.0,0.5520964998286217,,,,,,sub-091,1,stroop_test,59.734480202547694,
,,,,14.0,2.0,1.0,,,,,,,,,,,,,rot,red,r,1.0,r,1.0,0.4251267998479306,,,,,,,,,,1.0,2.0,14.0,1.0,158.53959659999236,,,,,,,,,,,,,,,,,158.5253789999988,159.3412528000772,160.14038209989667,160.12447050004266,,,,,,,,,,,,,,,,,,,,,,,,,,,,,,,,,,,160.12482160003856,160.14038209989667,160.14038209989667,160.5743096000515,r,1.0,0.4251267998479306,,,,,,sub-091,1,stroop_test,59.734480202547694,
,,,,15.0,3.0,1.0,,,,,,,,,,,,,rot,red,r,1.0,r,1.0,0.5430966999847442,,,,,,,,,,1.0,3.0,15.0,0.0,160.5904053999111,,,,,,,,,,,,,,,,,160.57462750002742,161.77449549990706,162.59049450000748,162.57437229994684,,,,,,,,,,,,,,,,,,,,,,,,,,,,,,,,,,,162.57465479988605,162.59049450000748,162.59049450000748,163.14232230000198,r,1.0,0.5430966999847442,,,,,,sub-091,1,stroop_test,59.734480202547694,
,,,,16.0,4.0,1.0,,,,,,,,,,,,,blau,red,r,0.0,r,1.0,0.4833430999424308,,,,,,,,,,1.0,4.0,16.0,4.0,163.15639070002362,,,,,,,,,,,,,,,,,163.1425327998586,164.35754229989834,165.17327989987098,165.15739790000953,,,,,,,,,,,,,,,,,,,,,,,,,,,,,,,,,,,165.1613087998703,165.17327989987098,165.17327989987098,165.65847899997607,r,1.0,0.4833430999424308,,,,,,sub-091,1,stroop_test,59.734480202547694,
,,,,17.0,5.0,1.0,,,,,,,,,,,,,gelb,blue,b,0.0,b,1.0,0.5664445001166314,,,,,,,,,,1.0,5.0,17.0,9.0,165.67325380002148,,,,,,,,,,,,,,,,,165.65870029991493,165.772822199855,166.57529539987445,166.55850589997135,,,,,,,,,,,,,,,,,,,,,,,,,,,,,,,,,,,166.56300830002874,166.57529539987445,166.57529539987445,167.15721109998412,b,1.0,0.5664445001166314,,,,,,sub-091,1,stroop_test,59.734480202547694,
,,,,18.0,6.0,1.0,,,,,,,,,,,,,gelb,red,r,0.0,r,1.0,0.6418625998776406,,,,,,,,,,1.0,6.0,18.0,8.0,167.17314910003915,,,,,,,,,,,,,,,,,167.15742140007205,167.95661069988273,168.75645269989036,168.74193600006402,,,,,,,,,,,,,,,,,,,,,,,,,,,,,,,,,,,168.7423242998775,168.75645269989036,168.75645269989036,169.40738669992425,r,1.0,0.6418625998776406,,,,,,sub-091,1,stroop_test,59.734480202547694,
,,,,19.0,7.0,1.0,,,,,,,,,,,,,blau,blue,b,1.0,b,1.0,0.5271862999070436,,,,,,,,,,1.0,7.0,19.0,5.0,169.4237998998724,,,,,,,,,,,,,,,,,169.40763809997588,170.60717429989018,171.42070050002076,171.3904744000174,,,,,,,,,,,,,,,,,,,,,,,,,,,,,,,,,,,171.40107350004837,171.42070050002076,171.42070050002076,171.9577961000614,b,1.0,0.5271862999070436,,,,,,sub-091,1,stroop_test,59.734480202547694,
,,,,20.0,8.0,1.0,,,,,,,,,,,,,gelb,yellow,g,1.0,g,1.0,0.8197561998385936,,,,,,,,,,1.0,8.0,20.0,11.0,171.97412799997255,,,,,,,,,,,,,,,,,171.95804989989847,172.05718889995478,172.85697739990428,172.84095639991574,,,,,,,,,,,,,,,,,,,,,,,,,,,,,,,,,,,172.84370759990998,172.85697739990428,172.85697739990428,173.69146130001172,g,1.0,0.8197561998385936,,,,,,sub-091,1,stroop_test,59.734480202547694,
,,,,21.0,9.0,1.0,,,,,,,,,,,,,blau,yellow,g,0.0,g,1.0,0.6269384000916034,,,,,,,,,,1.0,9.0,21.0,7.0,173.7064513999503,,,,,,,,,,,,,,,,,173.69173149997368,173.80691080004908,174.60914819990285,174.59085939987563,,,,,,,,,,,,,,,,,,,,,,,,,,,,,,,,,,,174.6023669000715,174.60914819990285,174.60914819990285,175.2420487999916,g,1.0,0.6269384000916034,,,,,,sub-091,1,stroop_test,59.734480202547694,
,,,,22.0,10.0,1.0,,,,,,,,,,,,,rot,yellow,g,0.0,g,1.0,0.7340259000193328,,,,,,,,,,1.0,10.0,22.0,3.0,175.25660849991257,,,,,,,,,,,,,,,,,175.24230659985915,176.0575085999444,176.87061099987477,176.84139620000497,,,,,,,,,,,,,,,,,,,,,,,,,,,,,,,,,,,176.85014940006658,176.87061099987477,176.87061099987477,177.60821209987623,g,1.0,0.7340259000193328,,,,,,sub-091,1,stroop_test,59.734480202547694,
,,,,23.0,11.0,1.0,,,,,,,,,,,,,gelb,yellow,g,1.0,g,1.0,1.1294774999842048,,,,,,,,,,1.0,11.0,23.0,10.0,177.62233179993927,,,,,,,,,,,,,,,,,177.60843809996732,177.72386749996804,178.5227898999583,178.5080049999524,,,,,,,,,,,,,,,,,,,,,,,,,,,,,,,,,,,178.51020059990697,178.5227898999583,178.5227898999583,179.6583060999401,g,1.0,1.1294774999842048,,,,,,sub-091,1,stroop_test,59.734480202547694,
,,,,24.0,0.0,2.0,,,,,,,,,,,,,rot,red,r,1.0,r,1.0,0.6733102998696268,,,,,,,,,,2.0,0.0,24.0,1.0,179.6739870000165,,,,,,,,,,,,,,,,,179.65853799995966,179.77398379985243,180.5896757000592,180.57301399996504,,,,,,,,,,,,,,,,,,,,,,,,,,,,,,,,,,,180.57705399999395,180.5896757000592,180.5896757000592,181.27469790005125,r,1.0,0.6733102998696268,,,,,,sub-091,1,stroop_test,59.734480202547694,
,,,,25.0,1.0,2.0,,,,,,,,,,,,,blau,blue,b,1.0,b,1.0,0.4766450000461191,,,,,,,,,,2.0,1.0,25.0,6.0,181.2901389000472,,,,,,,,,,,,,,,,,181.27496309997517,182.0886436998844,182.88995600002815,182.87380289984867,,,,,,,,,,,,,,,,,,,,,,,,,,,,,,,,,,,182.87702669994903,182.88995600002815,182.88995600002815,183.3744234000333,b,1.0,0.4766450000461191,,,,,,sub-091,1,stroop_test,59.734480202547694,
,,,,26.0,2.0,2.0,,,,,,,,,,,,,rot,red,r,1.0,r,1.0,0.7169536000583321,,,,,,,,,,2.0,2.0,26.0,0.0,183.38945079990663,,,,,,,,,,,,,,,,,183.3746849999297,183.490505799884,184.2898216000758,184.27407749998383,,,,,,,,,,,,,,,,,,,,,,,,,,,,,,,,,,,184.277386700036,184.2898216000758,184.2898216000758,185.0231808000244,r,1.0,0.7169536000583321,,,,,,sub-091,1,stroop_test,59.734480202547694,
,,,,27.0,3.0,2.0,,,,,,,,,,,,,gelb,red,r,0.0,r,1.0,0.6359612001106143,,,,,,,,,,2.0,3.0,27.0,8.0,185.03855739999565,,,,,,,,,,,,,,,,,185.02340779989024,185.1228205000516,185.92388750007376,185.906568699982,,,,,,,,,,,,,,,,,,,,,,,,,,,,,,,,,,,185.91673210007136,185.92388750007376,185.92388750007376,186.57396269985475,r,1.0,0.6359612001106143,,,,,,sub-091,1,stroop_test,59.734480202547694,
,,,,28.0,4.0,2.0,,,,,,,,,,,,,blau,blue,b,1.0,g,0.0,0.4928059999365359,,,,,,,,,,2.0,4.0,28.0,5.0,186.58932999987155,,,,,,,,,,,,,,,,,186.57419999991544,187.7733732999768,188.57333709998056,188.55714549985717,,,,,,,,,,,,,,,,,,,,,,,,,,,,,,,,,,,188.5591672998853,188.57333709998056,188.57333709998056,189.0745780998841,g,0.0,0.4928059999365359,,,,,,sub-091,1,stroop_test,59.734480202547694,
,,,,29.0,5.0,2.0,,,,,,,,,,,,,rot,blue,b,0.0,b,1.0,0.8252270999364555,,,,,,,,,,2.0,5.0,29.0,2.0,189.09023709991013,,,,,,,,,,,,,,,,,189.0748677998781,190.27307439991276,191.07433199998923,191.05794780002907,,,,,,,,,,,,,,,,,,,,,,,,,,,,,,,,,,,191.06677379994653,191.07433199998923,191.07433199998923,191.907764100004,b,1.0,0.8252270999364555,,,,,,sub-091,1,stroop_test,59.734480202547694,
,,,,30.0,6.0,2.0,,,,,,,,,,,,,rot,yellow,g,0.0,g,1.0,1.234453100012615,,,,,,,,,,2.0,6.0,30.0,3.0,191.92596869985573,,,,,,,,,,,,,,,,,191.9079990000464,192.72365289996375,193.53853220003657,193.5241143000312,,,,,,,,,,,,,,,,,,,,,,,,,,,,,,,,,,,193.52451810007915,193.53853220003657,193.53853220003657,194.77522489987317,g,1.0,1.234453100012615,,,,,,sub-091,1,stroop_test,59.734480202547694,
,,,,31.0,7.0,2.0,,,,,,,,,,,,,blau,red,r,0.0,r,1.0,0.5492410000879318,,,,,,,,,,2.0,7.0,31.0,4.0,194.79062350001183,,,,,,,,,,,,,,,,,194.7754513998516,194.89036489999853,195.6894228998572,195.67392969992943,,,,,,,,,,,,,,,,,,,,,,,,,,,,,,,,,,,195.67602939996868,195.6894228998572,195.6894228998572,196.2411082999315,r,1.0,0.5492410000879318,,,,,,sub-091,1,stroop_test,59.734480202547694,
,,,,32.0,8.0,2.0,,,,,,,,,,,,,gelb,blue,b,0.0,b,1.0,0.5561511002015322,,,,,,,,,,2.0,8.0,32.0,9.0,196.25648039998487,,,,,,,,,,,,,,,,,196.24130830005743,196.6070023998618,197.4067158000544,197.39024779992175,,,,,,,,,,,,,,,,,,,,,,,,,,,,,,,,,,,197.39466039999388,197.4067158000544,197.4067158000544,197.973190800054,b,1.0,0.5561511002015322,,,,,,sub-091,1,stroop_test,59.734480202547694,
,,,,33.0,9.0,2.0,,,,,,,,,,,,,blau,yellow,g,0.0,g,1.0,0.5065746998880059,,,,,,,,,,2.0,9.0,33.0,7.0,197.98932649986816,,,,,,,,,,,,,,,,,197.973461000016,198.32339369994588,199.1229236999061,199.1079776000697,,,,,,,,,,,,,,,,,,,,,,,,,,,,,,,,,,,199.11019090004265,199.1229236999061,199.1229236999061,199.6417805000674,g,1.0,0.5065746998880059,,,,,,sub-091,1,stroop_test,59.734480202547694,
,,,,34.0,10.0,2.0,,,,,,,,,,,,,gelb,yellow,g,1.0,g,1.0,0.6355226999148726,,,,,,,,,,2.0,10.0,34.0,10.0,199.65768079995175,,,,,,,,,,,,,,,,,199.6420698000584,200.85652829986063,201.65516319987364,201.64013279997744,,,,,,,,,,,,,,,,,,,,,,,,,,,,,,,,,,,201.64677680004388,201.65516319987364,201.65516319987364,202.2921690000221,g,1.0,0.6355226999148726,,,,,,sub-091,1,stroop_test,59.734480202547694,
,,,,35.0,11.0,2.0,,,,,,,,,,,,,gelb,yellow,g,1.0,g,1.0,0.6652742000296712,,,,,,,,,,2.0,11.0,35.0,11.0,202.30639140005223,,,,,,,,,,,,,,,,,202.29243490006772,203.5057242999319,204.3055634999182,204.289690699894,,,,,,,,,,,,,,,,,,,,,,,,,,,,,,,,,,,204.28999980003573,204.3055634999182,204.3055634999182,204.97402339987457,g,1.0,0.6652742000296712,,,,,,sub-091,1,stroop_test,59.734480202547694,
,,,,36.0,0.0,3.0,,,,,,,,,,,,,gelb,red,r,0.0,r,1.0,0.4979890000540763,,,,,,,,,,3.0,0.0,36.0,8.0,204.9890956999734,,,,,,,,,,,,,,,,,204.9742298000492,205.32189529994503,206.121884400025,206.1058008999098,,,,,,,,,,,,,,,,,,,,,,,,,,,,,,,,,,,206.1062191999517,206.121884400025,206.121884400025,206.62385419989005,r,1.0,0.4979890000540763,,,,,,sub-091,1,stroop_test,59.734480202547694,
,,,,37.0,1.0,3.0,,,,,,,,,,,,,rot,yellow,g,0.0,g,1.0,0.9082102000247688,,,,,,,,,,3.0,1.0,37.0,3.0,206.6390028998721,,,,,,,,,,,,,,,,,206.62408259999935,207.8233985998668,208.62483519990928,208.6068136999384,,,,,,,,,,,,,,,,,,,,,,,,,,,,,,,,,,,208.61770739988424,208.62483519990928,208.62483519990928,209.54002529988065,g,1.0,0.9082102000247688,,,,,,sub-091,1,stroop_test,59.734480202547694,
,,,,38.0,2.0,3.0,,,,,,,,,,,,,blau,blue,b,1.0,b,1.0,0.6373353998642415,,,,,,,,,,3.0,2.0,38.0,6.0,209.55569679988548,,,,,,,,,,,,,,,,,209.54024789994585,210.3387730999384,211.14000459993255,211.12368489988148,,,,,,,,,,,,,,,,,,,,,,,,,,,,,,,,,,,211.1275364998728,211.14000459993255,211.14000459993255,211.7917714000214,b,1.0,0.6373353998642415,,,,,,sub-091,1,stroop_test,59.734480202547694,
,,,,39.0,3.0,3.0,,,,,,,,,,,,,blau,blue,b,1.0,b,1.0,0.6376279001124203,,,,,,,,,,3.0,3.0,39.0,5.0,211.80552019993772,,,,,,,,,,,,,,,,,211.7919872000348,211.90561109990813,212.70775140007024,212.69046889990568,,,,,,,,,,,,,,,,,,,,,,,,,,,,,,,,,,,212.69087459985167,212.70775140007024,212.70775140007024,213.3575867000036,b,1.0,0.6376279001124203,,,,,,sub-091,1,stroop_test,59.734480202547694,
,,,,40.0,4.0,3.0,,,,,,,,,,,,,blau,red,r,0.0,r,1.0,0.5004386000800878,,,,,,,,,,3.0,4.0,40.0,4.0,213.3719212000724,,,,,,,,,,,,,,,,,213.3578440998681,214.57303339987996,215.390403599944,215.3734523998573,,,,,,,,,,,,,,,,,,,,,,,,,,,,,,,,,,,215.37374279997312,215.390403599944,215.390403599944,215.90695509989743,r,1.0,0.5004386000800878,,,,,,sub-091,1,stroop_test,59.734480202547694,
,,,,41.0,5.0,3.0,,,,,,,,,,,,,gelb,yellow,g,1.0,g,1.0,0.8511377000249922,,,,,,,,,,3.0,5.0,41.0,11.0,215.92250039987263,,,,,,,,,,,,,,,,,215.90718359989117,216.27246559993364,217.07316230004653,217.05726689985025,,,,,,,,,,,,,,,,,,,,,,,,,,,,,,,,,,,217.0596318999305,217.07316230004653,217.07316230004653,217.93995809997432,g,1.0,0.8511377000249922,,,,,,sub-091,1,stroop_test,59.734480202547694,
,,,,42.0,6.0,3.0,,,,,,,,,,,,,gelb,blue,b,0.0,r,0.0,0.6246873999480158,,,,,,,,,,3.0,6.0,42.0,9.0,217.95584809989668,,,,,,,,,,,,,,,,,217.94018290005624,218.0389815999661,218.83911339985207,218.82280749990605,,,,,,,,,,,,,,,,,,,,,,,,,,,,,,,,,,,218.82307639997447,218.83911339985207,218.83911339985207,219.47430210001767,r,0.0,0.6246873999480158,,,,,,sub-091,1,stroop_test,59.734480202547694,
,,,,43.0,7.0,3.0,,,,,,,,,,,,,blau,yellow,g,0.0,g,1.0,0.89972859993577,,,,,,,,,,3.0,7.0,43.0,7.0,219.48979919985868,,,,,,,,,,,,,,,,,219.47453440004028,219.59015850001012,220.3912398000248,220.37399260001257,,,,,,,,,,,,,,,,,,,,,,,,,,,,,,,,,,,220.37631399999373,220.3912398000248,220.3912398000248,221.307874500053,g,1.0,0.89972859993577,,,,,,sub-091,1,stroop_test,59.734480202547694,
,,,,44.0,8.0,3.0,,,,,,,,,,,,,gelb,yellow,g,1.0,g,1.0,0.7683044001460075,,,,,,,,,,3.0,8.0,44.0,10.0,221.3225708999671,,,,,,,,,,,,,,,,,221.308161099907,222.1220406999346,222.9211164999288,222.90548529988155,,,,,,,,,,,,,,,,,,,,,,,,,,,,,,,,,,,222.9077305998653,222.9211164999288,222.9211164999288,223.70689029991627,g,1.0,0.7683044001460075,,,,,,sub-091,1,stroop_test,59.734480202547694,
,,,,45.0,9.0,3.0,,,,,,,,,,,,,rot,red,r,1.0,r,1.0,0.635774000082165,,,,,,,,,,3.0,9.0,45.0,1.0,223.7224061000161,,,,,,,,,,,,,,,,,223.7071042000316,224.07284469995648,224.8722035998944,224.85643030004576,,,,,,,,,,,,,,,,,,,,,,,,,,,,,,,,,,,224.8585770998616,224.8722035998944,224.8722035998944,225.5230137000326,r,1.0,0.635774000082165,,,,,,sub-091,1,stroop_test,59.734480202547694,
,,,,46.0,10.0,3.0,,,,,,,,,,,,,rot,blue,b,0.0,b,1.0,0.5701210000552237,,,,,,,,,,3.0,10.0,46.0,2.0,225.53886389988477,,,,,,,,,,,,,,,,,225.5232772999443,225.87210959987715,226.67362440004945,226.65686149988323,,,,,,,,,,,,,,,,,,,,,,,,,,,,,,,,,,,226.65717509994283,226.67362440004945,226.67362440004945,227.25665159989148,b,1.0,0.5701210000552237,,,,,,sub-091,1,stroop_test,59.734480202547694,
,,,,47.0,11.0,3.0,,,,,,,,,,,,,rot,red,r,1.0,r,1.0,0.595352099975571,,,,,,,,,,3.0,11.0,47.0,0.0,227.2727041998878,,,,,,,,,,,,,,,,,227.25711250002496,228.4561526000034,229.25581660005264,229.2398115999531,,,,,,,,,,,,,,,,,,,,,,,,,,,,,,,,,,,229.2401103000157,229.25581660005264,229.25581660005264,229.85662049986425,r,1.0,0.595352099975571,,,,,,sub-091,1,stroop_test,59.734480202547694,
,,,,48.0,0.0,4.0,,,,,,,,,,,,,rot,red,r,1.0,r,1.0,0.4972397999372333,,,,,,,,,,4.0,0.0,48.0,0.0,229.87207699986172,,,,,,,,,,,,,,,,,229.8569098999724,230.65620089997535,231.4553731000051,231.44000070006587,,,,,,,,,,,,,,,,,,,,,,,,,,,,,,,,,,,231.44034099997955,231.4553731000051,231.4553731000051,231.95875240000896,r,1.0,0.4972397999372333,,,,,,sub-091,1,stroop_test,59.734480202547694,
,,,,49.0,1.0,4.0,,,,,,,,,,,,,blau,blue,b,1.0,b,1.0,0.723592400085181,,,,,,,,,,4.0,1.0,49.0,5.0,231.97285629995167,,,,,,,,,,,,,,,,,231.9589778999798,232.77207190007903,233.5728835000191,233.55569120007567,,,,,,,,,,,,,,,,,,,,,,,,,,,,,,,,,,,233.56078809988685,233.5728835000191,233.5728835000191,234.30685029993765,b,1.0,0.723592400085181,,,,,,sub-091,1,stroop_test,59.734480202547694,
,,,,50.0,2.0,4.0,,,,,,,,,,,,,gelb,yellow,g,1.0,g,1.0,0.6599509997759014,,,,,,,,,,4.0,2.0,50.0,11.0,234.32125389995053,,,,,,,,,,,,,,,,,234.30710149998777,234.4216199000366,235.22217609989457,235.2053686999716,,,,,,,,,,,,,,,,,,,,,,,,,,,,,,,,,,,235.2078523000237,235.22217609989457,235.22217609989457,235.8895985998679,g,1.0,0.6599509997759014,,,,,,sub-091,1,stroop_test,59.734480202547694,
,,,,51.0,3.0,4.0,,,,,,,,,,,,,blau,blue,b,1.0,b,1.0,0.5203504001256078,,,,,,,,,,4.0,3.0,51.0,6.0,235.90708129992709,,,,,,,,,,,,,,,,,235.88982390007004,235.98917219997384,236.79036949994045,236.77298799995333,,,,,,,,,,,,,,,,,,,,,,,,,,,,,,,,,,,236.7842621000018,236.79036949994045,236.79036949994045,237.3231625999324,b,1.0,0.5203504001256078,,,,,,sub-091,1,stroop_test,59.734480202547694,
,,,,52.0,4.0,4.0,,,,,,,,,,,,,blau,yellow,g,0.0,r,0.0,0.7350061999168247,,,,,,,,,,4.0,4.0,52.0,7.0,237.3384690999519,,,,,,,,,,,,,,,,,237.32343499991111,237.42191049992107,238.22138009988703,238.2054832000285,,,,,,,,,,,,,,,,,,,,,,,,,,,,,,,,,,,238.20578249986283,238.22138009988703,238.22138009988703,238.97501679998825,r,0.0,0.7350061999168247,,,,,,sub-091,1,stroop_test,59.734480202547694,
,,,,53.0,5.0,4.0,,,,,,,,,,,,,rot,red,r,1.0,r,1.0,0.6696538999676704,,,,,,,,,,4.0,5.0,53.0,1.0,238.9910931000486,,,,,,,,,,,,,,,,,238.9753042999655,239.78919250005856,240.588923699921,240.57303149998188,,,,,,,,,,,,,,,,,,,,,,,,,,,,,,,,,,,240.57481879997067,240.588923699921,240.588923699921,241.27434960007668,r,1.0,0.6696538999676704,,,,,,sub-091,1,stroop_test,59.734480202547694,
,,,,54.0,6.0,4.0,,,,,,,,,,,,,gelb,blue,b,0.0,b,1.0,0.4831474998500198,,,,,,,,,,4.0,6.0,54.0,9.0,241.28782620001584,,,,,,,,,,,,,,,,,241.2746653999202,242.0888399998657,242.890485299984,242.87288899999112,,,,,,,,,,,,,,,,,,,,,,,,,,,,,,,,,,,242.88373919995504,242.890485299984,242.890485299984,243.38944369996895,b,1.0,0.4831474998500198,,,,,,sub-091,1,stroop_test,59.734480202547694,
,,,,55.0,7.0,4.0,,,,,,,,,,,,,gelb,yellow,g,1.0,g,1.0,0.5427731999661773,,,,,,,,,,4.0,7.0,55.0,10.0,243.40550730004907,,,,,,,,,,,,,,,,,243.38970409985632,244.60560230002736,245.40528579987583,245.38885049987584,,,,,,,,,,,,,,,,,,,,,,,,,,,,,,,,,,,245.38913759985007,245.40528579987583,245.40528579987583,245.95618199999444,g,1.0,0.5427731999661773,,,,,,sub-091,1,stroop_test,59.734480202547694,
,,,,56.0,8.0,4.0,,,,,,,,,,,,,blau,red,r,0.0,r,1.0,0.4463167998474091,,,,,,,,,,4.0,8.0,56.0,4.0,245.9718770999461,,,,,,,,,,,,,,,,,245.95640040002763,246.30507929995656,247.1054173000157,247.0894933999516,,,,,,,,,,,,,,,,,,,,,,,,,,,,,,,,,,,247.09239830006845,247.1054173000157,247.1054173000157,247.55812719999813,r,1.0,0.4463167998474091,,,,,,sub-091,1,stroop_test,59.734480202547694,
,,,,57.0,9.0,4.0,,,,,,,,,,,,,rot,blue,b,0.0,b,1.0,0.3994916998781264,,,,,,,,,,4.0,9.0,57.0,2.0,247.5720740000252,,,,,,,,,,,,,,,,,247.5583363000769,247.92194989998825,248.72365790000185,248.7056098999456,,,,,,,,,,,,,,,,,,,,,,,,,,,,,,,,,,,248.70773610007015,248.72365790000185,248.72365790000185,249.13921789987944,b,1.0,0.3994916998781264,,,,,,sub-091,1,stroop_test,59.734480202547694,
,,,,58.0,10.0,4.0,,,,,,,,,,,,,rot,yellow,g,0.0,g,1.0,0.6781855998560786,,,,,,,,,,4.0,10.0,58.0,3.0,249.15481289988384,,,,,,,,,,,,,,,,,249.1394894998521,249.23908139998093,250.0395744999405,250.0223189999815,,,,,,,,,,,,,,,,,,,,,,,,,,,,,,,,,,,250.0226242998615,250.0395744999405,250.0395744999405,250.72360359993763,g,1.0,0.6781855998560786,,,,,,sub-091,1,stroop_test,59.734480202547694,
,,,,59.0,11.0,4.0,,,,,,,,,,,,,gelb,red,r,0.0,r,1.0,0.4965522000566125,,,,,,,,,,4.0,11.0,59.0,8.0,250.7388748000376,,,,,,,,,,,,,,,,,250.72381019988097,251.538011000026,252.34024000004865,252.3240761000197,,,,,,,,,,,,,,,,,,,,,,,,,,,,,,,,,,,252.3266141000204,252.34024000004865,252.34024000004865,252.84059659997,r,1.0,0.4965522000566125,,,,,,sub-091,1,stroop_test,59.734480202547694,
,,,,60.0,0.0,5.0,,,,,,,,,,,,,gelb,red,r,0.0,r,1.0,0.5685354000888765,,,,,,,,,,5.0,0.0,60.0,8.0,252.8553307000548,,,,,,,,,,,,,,,,,252.84086510003544,253.20432939985767,254.00406209984797,253.9887135999743,,,,,,,,,,,,,,,,,,,,,,,,,,,,,,,,,,,253.98898579995148,254.00406209984797,254.00406209984797,254.58915519993752,r,1.0,0.5685354000888765,,,,,,sub-091,1,stroop_test,59.734480202547694,
,,,,61.0,1.0,5.0,,,,,,,,,,,,,blau,red,r,0.0,r,1.0,0.5799862998537719,,,,,,,,,,5.0,1.0,61.0,4.0,254.6043767000083,,,,,,,,,,,,,,,,,254.5893647999037,254.95504430006255,255.7549465000629,255.73996639996767,,,,,,,,,,,,,,,,,,,,,,,,,,,,,,,,,,,255.7419835000765,255.7549465000629,255.7549465000629,256.3410191000439,r,1.0,0.5799862998537719,,,,,,sub-091,1,stroop_test,59.734480202547694,
,,,,62.0,2.0,5.0,,,,,,,,,,,,,gelb,blue,b,0.0,b,1.0,0.5261556999757886,,,,,,,,,,5.0,2.0,62.0,9.0,256.355424300069,,,,,,,,,,,,,,,,,256.34138310002163,256.70652200002223,257.5250357000623,257.50700769992545,,,,,,,,,,,,,,,,,,,,,,,,,,,,,,,,,,,257.5189346999396,257.5250357000623,257.5250357000623,258.0563574000262,b,1.0,0.5261556999757886,,,,,,sub-091,1,stroop_test,59.734480202547694,
,,,,63.0,3.0,5.0,,,,,,,,,,,,,gelb,yellow,g,1.0,g,1.0,0.5239501998294145,,,,,,,,,,5.0,3.0,63.0,11.0,258.07081969990395,,,,,,,,,,,,,,,,,258.05663969996385,258.4218433999922,259.22174179996364,259.2066531998571,,,,,,,,,,,,,,,,,,,,,,,,,,,,,,,,,,,259.2070245000068,259.22174179996364,259.22174179996364,259.7566700000316,g,1.0,0.5239501998294145,,,,,,sub-091,1,stroop_test,59.734480202547694,
,,,,64.0,4.0,5.0,,,,,,,,,,,,,rot,blue,b,0.0,b,1.0,0.6182664998341352,,,,,,,,,,5.0,4.0,64.0,2.0,259.7727349998895,,,,,,,,,,,,,,,,,259.7568924999796,260.1217467999086,260.9216159998905,260.9058544000145,,,,,,,,,,,,,,,,,,,,,,,,,,,,,,,,,,,260.9137305000331,260.9216159998905,260.9216159998905,261.5561345999595,b,1.0,0.6182664998341352,,,,,,sub-091,1,stroop_test,59.734480202547694,
,,,,65.0,5.0,5.0,,,,,,,,,,,,,rot,red,r,1.0,r,1.0,0.4934965998400002,,,,,,,,,,5.0,5.0,65.0,0.0,261.5709398998879,,,,,,,,,,,,,,,,,261.5563711998984,262.7711440999992,263.5712794000283,263.55686590005644,,,,,,,,,,,,,,,,,,,,,,,,,,,,,,,,,,,263.5572273998987,263.5712794000283,263.5712794000283,264.0729970000684,r,1.0,0.4934965998400002,,,,,,sub-091,1,stroop_test,59.734480202547694,
,,,,66.0,6.0,5.0,,,,,,,,,,,,,rot,red,r,1.0,r,1.0,0.7377623000647873,,,,,,,,,,5.0,6.0,66.0,1.0,264.08981069992296,,,,,,,,,,,,,,,,,264.0732609999832,264.18929359992035,264.98872569995,264.97340749995783,,,,,,,,,,,,,,,,,,,,,,,,,,,,,,,,,,,264.97384859994054,264.98872569995,264.98872569995,265.74043220002204,r,1.0,0.7377623000647873,,,,,,sub-091,1,stroop_test,59.734480202547694,
,,,,67.0,7.0,5.0,,,,,,,,,,,,,blau,blue,b,1.0,b,1.0,0.5076775997877121,,,,,,,,,,5.0,7.0,67.0,5.0,265.7554466999136,,,,,,,,,,,,,,,,,265.74067720002495,266.55453779990785,267.35498689999804,267.3385399999097,,,,,,,,,,,,,,,,,,,,,,,,,,,,,,,,,,,267.34067129995674,267.35498689999804,267.35498689999804,267.87384420004673,b,1.0,0.5076775997877121,,,,,,sub-091,1,stroop_test,59.734480202547694,
,,,,68.0,8.0,5.0,,,,,,,,,,,,,rot,yellow,g,0.0,g,1.0,0.6493614001665264,,,,,,,,,,5.0,8.0,68.0,3.0,267.8888022999745,,,,,,,,,,,,,,,,,267.8740872000344,269.08781290007755,269.8878142000176,269.8721356999595,,,,,,,,,,,,,,,,,,,,,,,,,,,,,,,,,,,269.8742177998647,269.8878142000176,269.8878142000176,270.5397902999539,g,1.0,0.6493614001665264,,,,,,sub-091,1,stroop_test,59.734480202547694,
,,,,69.0,9.0,5.0,,,,,,,,,,,,,blau,blue,b,1.0,b,1.0,0.4532268000766635,,,,,,,,,,5.0,9.0,69.0,6.0,270.5546778000425,,,,,,,,,,,,,,,,,270.5401172998827,271.7549808998592,272.5552234998904,272.5386860000435,,,,,,,,,,,,,,,,,,,,,,,,,,,,,,,,,,,272.54034100007266,272.5552234998904,272.5552234998904,273.02293600002304,b,1.0,0.4532268000766635,,,,,,sub-091,1,stroop_test,59.734480202547694,
,,,,70.0,10.0,5.0,,,,,,,,,,,,,blau,yellow,g,0.0,g,1.0,0.8722087000496686,,,,,,,,,,5.0,10.0,70.0,7.0,273.0380112999119,,,,,,,,,,,,,,,,,273.0231685999315,273.3883336998988,274.18780769989826,274.17139049991965,,,,,,,,,,,,,,,,,,,,,,,,,,,,,,,,,,,274.1717383998912,274.18780769989826,274.18780769989826,275.0717062000185,g,1.0,0.8722087000496686,,,,,,sub-091,1,stroop_test,59.734480202547694,
,,,,71.0,11.0,5.0,,,,,,,,,,,,,gelb,yellow,g,1.0,g,1.0,0.5910014999099076,,,,,,,,,,5.0,11.0,71.0,10.0,275.08743690000847,,,,,,,,,,,,,,,,,275.0719490000047,275.4216141998768,276.2236438000109,276.2057505999692,,,,,,,,,,,,,,,,,,,,,,,,,,,,,,,,,,,276.21642469987273,276.2236438000109,276.2236438000109,276.82270610006526,g,1.0,0.5910014999099076,,,,,,sub-091,1,stroop_test,59.734480202547694,
,,,,72.0,0.0,6.0,,,,,,,,,,,,,gelb,blue,b,0.0,b,1.0,0.4942375998944044,,,,,,,,,,6.0,0.0,72.0,9.0,276.83856709999964,,,,,,,,,,,,,,,,,276.8229370000772,277.62153059989214,278.4211218999699,278.4050219999626,,,,,,,,,,,,,,,,,,,,,,,,,,,,,,,,,,,278.405319100013,278.4211218999699,278.4211218999699,278.923514300026,b,1.0,0.4942375998944044,,,,,,sub-091,1,stroop_test,59.734480202547694,
,,,,73.0,1.0,6.0,,,,,,,,,,,,,blau,red,r,0.0,r,1.0,0.6244661000091583,,,,,,,,,,6.0,1.0,73.0,4.0,278.9385086998809,,,,,,,,,,,,,,,,,278.9237313999329,279.287977,280.0896719000302,280.07253529992886,,,,,,,,,,,,,,,,,,,,,,,,,,,,,,,,,,,280.0765779998619,280.0896719000302,280.0896719000302,280.7229971999768,r,1.0,0.6244661000091583,,,,,,sub-091,1,stroop_test,59.734480202547694,
,,,,74.0,2.0,6.0,,,,,,,,,,,,,rot,yellow,g,0.0,g,1.0,0.5814228001981974,,,,,,,,,,6.0,2.0,74.0,3.0,280.73854140006006,,,,,,,,,,,,,,,,,280.72335259988904,281.9373601998668,282.7380357000511,282.7217265998479,,,,,,,,,,,,,,,,,,,,,,,,,,,,,,,,,,,282.72465139999986,282.7380357000511,282.7380357000511,283.3219488998875,g,1.0,0.5814228001981974,,,,,,sub-091,1,stroop_test,59.734480202547694,
,,,,75.0,3.0,6.0,,,,,,,,,,,,,gelb,yellow,g,1.0,g,1.0,0.5552208002191037,,,,,,,,,,6.0,3.0,75.0,11.0,283.33664779993705,,,,,,,,,,,,,,,,,283.3221744999755,284.5216973999049,285.3210473000072,285.3057323000394,,,,,,,,,,,,,,,,,,,,,,,,,,,,,,,,,,,285.3078065000009,285.3210473000072,285.3210473000072,285.8889460000209,g,1.0,0.5552208002191037,,,,,,sub-091,1,stroop_test,59.734480202547694,
,,,,76.0,4.0,6.0,,,,,,,,,,,,,blau,yellow,g,0.0,g,1.0,0.5309501998126507,,,,,,,,,,6.0,4.0,76.0,7.0,285.9046706999652,,,,,,,,,,,,,,,,,285.88924019993283,286.704291800037,287.5041163000278,287.4890361998696,,,,,,,,,,,,,,,,,,,,,,,,,,,,,,,,,,,287.49104509991594,287.5041163000278,287.5041163000278,288.0409210000653,g,1.0,0.5309501998126507,,,,,,sub-091,1,stroop_test,59.734480202547694,
,,,,77.0,5.0,6.0,,,,,,,,,,,,,blau,blue,b,1.0,b,1.0,0.4023458999581635,,,,,,,,,,6.0,5.0,77.0,6.0,288.05452260002494,,,,,,,,,,,,,,,,,288.04117229999974,288.8548999999184,289.6536288000643,289.6383372999262,,,,,,,,,,,,,,,,,,,,,,,,,,,,,,,,,,,289.63866940001026,289.6536288000643,289.6536288000643,290.0722374999896,b,1.0,0.4023458999581635,,,,,,sub-091,1,stroop_test,59.734480202547694,
,,,,78.0,6.0,6.0,,,,,,,,,,,,,rot,blue,b,0.0,b,1.0,0.425533700035885,,,,,,,,,,6.0,6.0,78.0,2.0,290.0880290998612,,,,,,,,,,,,,,,,,290.0724573000334,291.2871270000469,292.0895183000248,292.0722441000398,,,,,,,,,,,,,,,,,,,,,,,,,,,,,,,,,,,292.074518499896,292.0895183000248,292.0895183000248,292.5235303998925,b,1.0,0.425533700035885,,,,,,sub-091,1,stroop_test,59.734480202547694,
,,,,79.0,7.0,6.0,,,,,,,,,,,,,blau,blue,b,1.0,b,1.0,0.4582126000896096,,,,,,,,,,6.0,7.0,79.0,5.0,292.538266699994,,,,,,,,,,,,,,,,,292.52374519989826,292.8878361999523,293.687721000053,293.6717260000296,,,,,,,,,,,,,,,,,,,,,,,,,,,,,,,,,,,293.67340319999494,293.687721000053,293.687721000053,294.1552802999504,b,1.0,0.4582126000896096,,,,,,sub-091,1,stroop_test,59.734480202547694,
,,,,80.0,8.0,6.0,,,,,,,,,,,,,rot,red,r,1.0,r,1.0,0.6711840000934899,,,,,,,,,,6.0,8.0,80.0,0.0,294.1714728998486,,,,,,,,,,,,,,,,,294.15552049991675,294.2712524998933,295.07154699997045,295.05574009986594,,,,,,,,,,,,,,,,,,,,,,,,,,,,,,,,,,,295.0585761999246,295.07154699997045,295.07154699997045,295.7560800998472,r,1.0,0.6711840000934899,,,,,,sub-091,1,stroop_test,59.734480202547694,
,,,,81.0,9.0,6.0,,,,,,,,,,,,,gelb,yellow,g,1.0,g,1.0,0.4477719999849796,,,,,,,,,,6.0,9.0,81.0,10.0,295.7706921000499,,,,,,,,,,,,,,,,,295.7563032999169,296.12137589999475,296.92453169985674,296.9062240999192,,,,,,,,,,,,,,,,,,,,,,,,,,,,,,,,,,,296.90951319993474,296.92453169985674,296.92453169985674,297.3744479999877,g,1.0,0.4477719999849796,,,,,,sub-091,1,stroop_test,59.734480202547694,
,,,,82.0,10.0,6.0,,,,,,,,,,,,,rot,red,r,1.0,r,1.0,0.5493412001524121,,,,,,,,,,6.0,10.0,82.0,1.0,297.38750620000064,,,,,,,,,,,,,,,,,297.3746843999252,297.4876136998646,298.2866515999194,298.2715125998948,,,,,,,,,,,,,,,,,,,,,,,,,,,,,,,,,,,298.2744503999129,298.2866515999194,298.2866515999194,298.8394307999406,r,1.0,0.5493412001524121,,,,,,sub-091,1,stroop_test,59.734480202547694,
,,,,83.0,11.0,6.0,,,,,,,,,,,,,gelb,red,r,0.0,r,1.0,0.4937376999296248,,,,,,,,,,6.0,11.0,83.0,8.0,298.8543356000446,,,,,,,,,,,,,,,,,298.8396796998568,299.2051820999477,300.004209500039,299.9897960999515,,,,,,,,,,,,,,,,,,,,,,,,,,,,,,,,,,,299.993576799985,300.004209500039,300.004209500039,300.5059414000716,r,1.0,0.4937376999296248,,,,,,sub-091,1,stroop_test,59.734480202547694,
,,,,84.0,0.0,7.0,,,,,,,,,,,,,rot,red,r,1.0,r,1.0,0.6131510001141578,,,,,,,,,,7.0,0.0,84.0,1.0,300.52131760003977,,,,,,,,,,,,,,,,,300.506168599939,300.8721210998483,301.687216399936,301.6714939000085,,,,,,,,,,,,,,,,,,,,,,,,,,,,,,,,,,,301.68037119996734,301.687216399936,301.687216399936,302.30541929998435,r,1.0,0.6131510001141578,,,,,,sub-091,1,stroop_test,59.734480202547694,
,,,,85.0,1.0,7.0,,,,,,,,,,,,,rot,red,r,1.0,r,1.0,0.5931097001302987,,,,,,,,,,7.0,1.0,85.0,0.0,302.3207361998502,,,,,,,,,,,,,,,,,302.30560139985755,302.6713377998676,303.4703998998739,303.4551722998731,,,,,,,,,,,,,,,,,,,,,,,,,,,,,,,,,,,303.4554609998595,303.4703998998739,303.4703998998739,304.0712232999504,r,1.0,0.5931097001302987,,,,,,sub-091,1,stroop_test,59.734480202547694,
,,,,86.0,2.0,7.0,,,,,,,,,,,,,gelb,yellow,g,1.0,g,1.0,0.5715481999795884,,,,,,,,,,7.0,2.0,86.0,10.0,304.08730369992554,,,,,,,,,,,,,,,,,304.07144770002924,304.42159859999083,305.2228222999256,305.2056598998606,,,,,,,,,,,,,,,,,,,,,,,,,,,,,,,,,,,305.207479899982,305.2228222999256,305.2228222999256,305.8055455998983,g,1.0,0.5715481999795884,,,,,,sub-091,1,stroop_test,59.734480202547694,
,,,,87.0,3.0,7.0,,,,,,,,,,,,,blau,red,r,0.0,r,1.0,0.6972778998315334,,,,,,,,,,7.0,3.0,87.0,4.0,305.8200864000246,,,,,,,,,,,,,,,,,305.8057605999056,307.02128920005634,307.8255100999959,307.8053182999138,,,,,,,,,,,,,,,,,,,,,,,,,,,,,,,,,,,307.8143267999403,307.8255100999959,307.8255100999959,308.53921189997345,r,1.0,0.6972778998315334,,,,,,sub-091,1,stroop_test,59.734480202547694,
,,,,88.0,4.0,7.0,,,,,,,,,,,,,blau,blue,b,1.0,b,1.0,0.4165326999500394,,,,,,,,,,7.0,4.0,88.0,5.0,308.5551443998702,,,,,,,,,,,,,,,,,308.5394355999306,309.7544275999535,310.55331899994053,310.5376734000165,,,,,,,,,,,,,,,,,,,,,,,,,,,,,,,,,,,310.53811590000987,310.55331899994053,310.55331899994053,310.973350699991,b,1.0,0.4165326999500394,,,,,,sub-091,1,stroop_test,59.734480202547694,
,,,,89.0,5.0,7.0,,,,,,,,,,,,,rot,yellow,g,0.0,g,1.0,0.5139289000071585,,,,,,,,,,7.0,5.0,89.0,3.0,310.98626099992543,,,,,,,,,,,,,,,,,310.97401929995976,312.1885685999878,312.9913669999223,312.97246359987184,,,,,,,,,,,,,,,,,,,,,,,,,,,,,,,,,,,312.98316069995053,312.9913669999223,312.9913669999223,313.52121769986115,g,1.0,0.5139289000071585,,,,,,sub-091,1,stroop_test,59.734480202547694,
,,,,90.0,6.0,7.0,,,,,,,,,,,,,blau,blue,b,1.0,b,1.0,0.5464847998227924,,,,,,,,,,7.0,6.0,90.0,6.0,313.5380235998892,,,,,,,,,,,,,,,,,313.5214331999887,314.3204969000072,315.1252335000317,315.10438090004027,,,,,,,,,,,,,,,,,,,,,,,,,,,,,,,,,,,315.1143463999033,315.1252335000317,315.1252335000317,315.68869929993525,b,1.0,0.5464847998227924,,,,,,sub-091,1,stroop_test,59.734480202547694,
,,,,91.0,7.0,7.0,,,,,,,,,,,,,blau,yellow,g,0.0,g,1.0,0.7677190001122653,,,,,,,,,,7.0,7.0,91.0,7.0,315.70466659986414,,,,,,,,,,,,,,,,,315.6889915999491,315.7873905999586,316.58758879988454,316.57267430005595,,,,,,,,,,,,,,,,,,,,,,,,,,,,,,,,,,,316.5729714999907,316.58758879988454,316.58758879988454,317.37089899997227,g,1.0,0.7677190001122653,,,,,,sub-091,1,stroop_test,59.734480202547694,
,,,,92.0,8.0,7.0,,,,,,,,,,,,,gelb,red,r,0.0,r,1.0,0.4040087999310344,,,,,,,,,,7.0,8.0,92.0,8.0,317.3861328999046,,,,,,,,,,,,,,,,,317.3711159999948,318.1709163000341,318.9764576999005,318.95559079991654,,,,,,,,,,,,,,,,,,,,,,,,,,,,,,,,,,,318.96656359988265,318.9764576999005,318.9764576999005,319.3891429998912,r,1.0,0.4040087999310344,,,,,,sub-091,1,stroop_test,59.734480202547694,
,,,,93.0,9.0,7.0,,,,,,,,,,,,,rot,blue,b,0.0,b,1.0,0.4829145001713186,,,,,,,,,,7.0,9.0,93.0,2.0,319.40569869987667,,,,,,,,,,,,,,,,,319.3894122999627,320.18860509991646,320.9870159998536,320.97230740007944,,,,,,,,,,,,,,,,,,,,,,,,,,,,,,,,,,,320.9759092000313,320.9870159998536,320.9870159998536,321.4725397999864,b,1.0,0.4829145001713186,,,,,,sub-091,1,stroop_test,59.734480202547694,
,,,,94.0,10.0,7.0,,,,,,,,,,,,,gelb,blue,b,0.0,b,1.0,0.5157121999654919,,,,,,,,,,7.0,10.0,94.0,9.0,321.4879944999702,,,,,,,,,,,,,,,,,321.47281229984947,322.6872183000669,323.48657869989984,323.4709878000431,,,,,,,,,,,,,,,,,,,,,,,,,,,,,,,,,,,323.47308250004426,323.48657869989984,323.48657869989984,324.0057371999137,b,1.0,0.5157121999654919,,,,,,sub-091,1,stroop_test,59.734480202547694,
,,,,95.0,11.0,7.0,,,,,,,,,,,,,gelb,yellow,g,1.0,r,0.0,0.6475025000981987,,,,,,,,,,7.0,11.0,95.0,11.0,324.0203195998911,,,,,,,,,,,,,,,,,324.0060103998985,324.35418220004067,325.1544858000707,325.1375659999904,,,,,,,,,,,,,,,,,,,,,,,,,,,,,,,,,,,325.13788080005907,325.1544858000707,325.1544858000707,325.8048388999887,r,0.0,0.6475025000981987,,,,,,sub-091,1,stroop_test,59.734480202547694,
,,,,96.0,0.0,8.0,,,,,,,,,,,,,rot,yellow,g,0.0,g,1.0,0.6362895001657307,,,,,,,,,,8.0,0.0,96.0,3.0,325.82078039995395,,,,,,,,,,,,,,,,,325.8050643999595,327.0046458998695,327.8034552000463,327.7880210999865,,,,,,,,,,,,,,,,,,,,,,,,,,,,,,,,,,,327.7938105999492,327.8034552000463,327.8034552000463,328.4550500998739,g,1.0,0.6362895001657307,,,,,,sub-091,1,stroop_test,59.734480202547694,
,,,,97.0,1.0,8.0,,,,,,,,,,,,,gelb,yellow,g,1.0,g,1.0,0.5520151001401246,,,,,,,,,,8.0,1.0,97.0,11.0,328.47067760000937,,,,,,,,,,,,,,,,,328.4553086999804,328.5709662998561,329.3698714999482,329.3550706000533,,,,,,,,,,,,,,,,,,,,,,,,,,,,,,,,,,,329.3601454999298,329.3698714999482,329.3698714999482,329.93775080004707,g,1.0,0.5520151001401246,,,,,,sub-091,1,stroop_test,59.734480202547694,
,,,,98.0,2.0,8.0,,,,,,,,,,,,,blau,yellow,g,0.0,g,1.0,1.1623909000772985,,,,,,,,,,8.0,2.0,98.0,7.0,329.95357989985496,,,,,,,,,,,,,,,,,329.9379646999296,330.7364793999586,331.5371167999692,331.5212270000484,,,,,,,,,,,,,,,,,,,,,,,,,,,,,,,,,,,331.52362570003606,331.5371167999692,331.5371167999692,332.70604409999214,g,1.0,1.1623909000772985,,,,,,sub-091,1,stroop_test,59.734480202547694,
,,,,99.0,3.0,8.0,,,,,,,,,,,,,gelb,red,r,0.0,r,1.0,0.9778223000466824,,,,,,,,,,8.0,3.0,99.0,8.0,332.72010460007004,,,,,,,,,,,,,,,,,332.70631109992974,333.0710917999968,333.87007309985347,333.8545860999729,,,,,,,,,,,,,,,,,,,,,,,,,,,,,,,,,,,333.85719019989483,333.87007309985347,333.87007309985347,334.85542410006747,r,1.0,0.9778223000466824,,,,,,sub-091,1,stroop_test,59.734480202547694,
,,,,100.0,4.0,8.0,,,,,,,,,,,,,rot,blue,b,0.0,b,1.0,0.5303885000757873,,,,,,,,,,8.0,4.0,100.0,2.0,334.8704885998741,,,,,,,,,,,,,,,,,334.85563890007325,335.6708398000337,336.47048310004175,336.454481799854,,,,,,,,,,,,,,,,,,,,,,,,,,,,,,,,,,,336.4566369999666,336.47048310004175,336.47048310004175,337.0053687999025,b,1.0,0.5303885000757873,,,,,,sub-091,1,stroop_test,59.734480202547694,
,,,,101.0,5.0,8.0,,,,,,,,,,,,,rot,red,r,1.0,r,1.0,0.7384989999700338,,,,,,,,,,8.0,5.0,101.0,1.0,337.0211163000204,,,,,,,,,,,,,,,,,337.00558779994026,337.8201234000735,338.6206646000501,338.6039499999024,,,,,,,,,,,,,,,,,,,,,,,,,,,,,,,,,,,338.6042702998966,338.6206646000501,338.6206646000501,339.3720436000731,r,1.0,0.7384989999700338,,,,,,sub-091,1,stroop_test,59.734480202547694,
,,,,102.0,6.0,8.0,,,,,,,,,,,,,blau,blue,b,1.0,b,1.0,0.7662625999655575,,,,,,,,,,8.0,6.0,102.0,5.0,339.38704199995846,,,,,,,,,,,,,,,,,339.3722570000682,339.7375058999751,340.5532839000225,340.5378661998548,,,,,,,,,,,,,,,,,,,,,,,,,,,,,,,,,,,340.54027480003424,340.5532839000225,340.5532839000225,341.32315519987606,b,1.0,0.7662625999655575,,,,,,sub-091,1,stroop_test,59.734480202547694,
,,,,103.0,7.0,8.0,,,,,,,,,,,,,gelb,yellow,g,1.0,g,1.0,0.841085399966687,,,,,,,,,,8.0,7.0,103.0,10.0,341.3367226999253,,,,,,,,,,,,,,,,,341.3234126998577,341.4362397000659,342.2359746999573,342.22013949998654,,,,,,,,,,,,,,,,,,,,,,,,,,,,,,,,,,,342.222171299858,342.2359746999573,342.2359746999573,343.08818279998377,g,1.0,0.841085399966687,,,,,,sub-091,1,stroop_test,59.734480202547694,
,,,,104.0,8.0,8.0,,,,,,,,,,,,,blau,red,r,0.0,r,1.0,0.7411658999044448,,,,,,,,,,8.0,8.0,104.0,4.0,343.10269239987247,,,,,,,,,,,,,,,,,343.0884793000296,344.30433600000106,345.1033232000191,345.08782859984785,,,,,,,,,,,,,,,,,,,,,,,,,,,,,,,,,,,345.09189789998345,345.1033232000191,345.1033232000191,345.8537506998982,r,1.0,0.7411658999044448,,,,,,sub-091,1,stroop_test,59.734480202547694,
,,,,105.0,9.0,8.0,,,,,,,,,,,,,blau,blue,b,1.0,b,1.0,1.349966699955985,,,,,,,,,,8.0,9.0,105.0,6.0,345.86995319998823,,,,,,,,,,,,,,,,,345.85398919996805,347.0534232999198,347.8536257999949,347.8371246000752,,,,,,,,,,,,,,,,,,,,,,,,,,,,,,,,,,,347.83739809994586,347.8536257999949,347.8536257999949,349.2057954000775,b,1.0,1.349966699955985,,,,,,sub-091,1,stroop_test,59.734480202547694,
,,,,106.0,10.0,8.0,,,,,,,,,,,,,rot,red,r,1.0,r,1.0,0.6368241000454873,,,,,,,,,,8.0,10.0,106.0,0.0,349.2205262000207,,,,,,,,,,,,,,,,,349.2060578998644,349.5696807999629,350.3689546000678,350.353091099998,,,,,,,,,,,,,,,,,,,,,,,,,,,,,,,,,,,350.3557388999034,350.3689546000678,350.3689546000678,351.0204749000259,r,1.0,0.6368241000454873,,,,,,sub-091,1,stroop_test,59.734480202547694,
,,,,107.0,11.0,8.0,,,,,,,,,,,,,gelb,blue,b,0.0,b,1.0,0.7733096999581903,,,,,,,,,,8.0,11.0,107.0,9.0,351.0372895000037,,,,,,,,,,,,,,,,,351.0207074999344,351.38640840002336,352.1869014999829,352.1716165000107,,,,,,,,,,,,,,,,,,,,,,,,,,,,,,,,,,,352.1740244999528,352.1869014999829,352.1869014999829,352.9713786998764,b,1.0,0.7733096999581903,,,,,,sub-091,1,stroop_test,59.734480202547694,
,,,,108.0,0.0,9.0,,,,,,,,,,,,,blau,red,r,0.0,r,1.0,0.6400288001168519,,,,,,,,,,9.0,0.0,108.0,4.0,352.98639600002207,,,,,,,,,,,,,,,,,352.9716531999875,353.0702104999218,353.8704299000092,353.853744099848,,,,,,,,,,,,,,,,,,,,,,,,,,,,,,,,,,,353.85617879987694,353.8704299000092,353.8704299000092,354.5204105998855,r,1.0,0.6400288001168519,,,,,,sub-091,1,stroop_test,59.734480202547694,
,,,,109.0,1.0,9.0,,,,,,,,,,,,,rot,red,r,1.0,r,1.0,0.6859706998802722,,,,,,,,,,9.0,1.0,109.0,1.0,354.53593149990775,,,,,,,,,,,,,,,,,354.52063509984873,354.63749530003406,355.4418254999909,355.42056389991194,,,,,,,,,,,,,,,,,,,,,,,,,,,,,,,,,,,355.43545669992454,355.4418254999909,355.4418254999909,356.13752590003423,r,1.0,0.6859706998802722,,,,,,sub-091,1,stroop_test,59.734480202547694,
,,,,110.0,2.0,9.0,,,,,,,,,,,,,gelb,blue,b,0.0,b,1.0,0.5876783998683095,,,,,,,,,,9.0,2.0,110.0,9.0,356.153722200077,,,,,,,,,,,,,,,,,356.1377546999138,356.4861403000541,357.286954900017,357.27103529986925,,,,,,,,,,,,,,,,,,,,,,,,,,,,,,,,,,,357.2740141998511,357.286954900017,357.286954900017,357.8868080000393,b,1.0,0.5876783998683095,,,,,,sub-091,1,stroop_test,59.734480202547694,
,,,,111.0,3.0,9.0,,,,,,,,,,,,,gelb,yellow,g,1.0,g,1.0,0.5905917999334633,,,,,,,,,,9.0,3.0,111.0,10.0,357.90284759993665,,,,,,,,,,,,,,,,,357.8870870000683,358.6866699999664,359.4870631999802,359.4711120999418,,,,,,,,,,,,,,,,,,,,,,,,,,,,,,,,,,,359.4714287999086,359.4870631999802,359.4870631999802,360.0882717000786,g,1.0,0.5905917999334633,,,,,,sub-091,1,stroop_test,59.734480202547694,
,,,,112.0,4.0,9.0,,,,,,,,,,,,,rot,blue,b,0.0,b,1.0,1.20709879999049,,,,,,,,,,9.0,4.0,112.0,2.0,360.1032811999321,,,,,,,,,,,,,,,,,360.0884785000235,361.3033263999969,362.1021509000566,362.0866559999995,,,,,,,,,,,,,,,,,,,,,,,,,,,,,,,,,,,362.08851430006325,362.1021509000566,362.1021509000566,363.3202303999569,b,1.0,1.20709879999049,,,,,,sub-091,1,stroop_test,59.734480202547694,
,,,,113.0,5.0,9.0,,,,,,,,,,,,,rot,red,r,1.0,r,1.0,0.5175896999426186,,,,,,,,,,9.0,5.0,113.0,0.0,363.3359219999984,,,,,,,,,,,,,,,,,363.3204421000555,364.52042159996927,365.3196952000726,365.3042861998547,,,,,,,,,,,,,,,,,,,,,,,,,,,,,,,,,,,365.3046875,365.3196952000726,365.3196952000726,365.8395187999122,r,1.0,0.5175896999426186,,,,,,sub-091,1,stroop_test,59.734480202547694,
,,,,114.0,6.0,9.0,,,,,,,,,,,,,gelb,red,r,0.0,r,1.0,0.4710577002260834,,,,,,,,,,9.0,6.0,114.0,8.0,365.8525224998593,,,,,,,,,,,,,,,,,365.8398754000664,365.95304979989305,366.7527111000381,366.7373148999177,,,,,,,,,,,,,,,,,,,,,,,,,,,,,,,,,,,366.7397431000136,366.7527111000381,366.7527111000381,367.2369216000661,r,1.0,0.4710577002260834,,,,,,sub-091,1,stroop_test,59.734480202547694,
,,,,115.0,7.0,9.0,,,,,,,,,,,,,blau,blue,b,1.0,b,1.0,0.5201016999781132,,,,,,,,,,9.0,7.0,115.0,5.0,367.25294799986295,,,,,,,,,,,,,,,,,367.2371640999336,368.0530065000057,368.85349919996224,368.83760529989377,,,,,,,,,,,,,,,,,,,,,,,,,,,,,,,,,,,368.8393740998581,368.85349919996224,368.85349919996224,369.3860641000792,b,1.0,0.5201016999781132,,,,,,sub-091,1,stroop_test,59.734480202547694,
,,,,116.0,8.0,9.0,,,,,,,,,,,,,blau,blue,b,1.0,b,1.0,0.4673021000344306,,,,,,,,,,9.0,8.0,116.0,6.0,369.4015182000585,,,,,,,,,,,,,,,,,369.3862709999085,369.7358868999872,370.5362841000315,370.52235349989496,,,,,,,,,,,,,,,,,,,,,,,,,,,,,,,,,,,370.5226656999439,370.5362841000315,370.5362841000315,371.0059748999775,b,1.0,0.4673021000344306,,,,,,sub-091,1,stroop_test,59.734480202547694,
,,,,117.0,9.0,9.0,,,,,,,,,,,,,gelb,yellow,g,1.0,g,1.0,0.4706802999135107,,,,,,,,,,9.0,9.0,117.0,11.0,371.0198488999158,,,,,,,,,,,,,,,,,371.00620199996047,371.8190121999942,372.6220908998512,372.60344789992087,,,,,,,,,,,,,,,,,,,,,,,,,,,,,,,,,,,372.6055479000788,372.6220908998512,372.6220908998512,373.10463139996864,g,1.0,0.4706802999135107,,,,,,sub-091,1,stroop_test,59.734480202547694,
,,,,118.0,10.0,9.0,,,,,,,,,,,,,rot,yellow,g,0.0,g,1.0,0.505850899964571,,,,,,,,,,9.0,10.0,118.0,3.0,373.12045919988304,,,,,,,,,,,,,,,,,373.1048419000581,373.9196621000301,374.7227493000682,374.7032244000584,,,,,,,,,,,,,,,,,,,,,,,,,,,,,,,,,,,374.70525619992986,374.7227493000682,374.7227493000682,375.237361599924,g,1.0,0.505850899964571,,,,,,sub-091,1,stroop_test,59.734480202547694,
,,,,119.0,11.0,9.0,,,,,,,,,,,,,blau,yellow,g,0.0,g,1.0,0.448373399907723,,,,,,,,,,9.0,11.0,119.0,7.0,375.25336509989575,,,,,,,,,,,,,,,,,375.2375811999664,376.0528754000552,376.8532032000367,376.8372515998781,,,,,,,,,,,,,,,,,,,,,,,,,,,,,,,,,,,376.83990080002695,376.8532032000367,376.8532032000367,377.30478130001575,g,1.0,0.448373399907723,,,,,,sub-091,1,stroop_test,59.734480202547694,
,,,,,,,,,,,,,,,,,,,,,,,,,,,,,,,,,,,,,,,,,,,,,,,,,,,,,,,,,,,,,,,,,,,,,,,,,,,,,,,,,,,,,,,,,,,,,,,,,,,,,,377.3048765999265,377.3190051000565,382.3187657999806,382.3037447999232,sub-091,1,stroop_test,59.734480202547694,
