direction,corrAns,randomInstr,practice_trials.thisRepN,practice_trials.thisTrialN,practice_trials.thisN,practice_trials.thisIndex,instr_trials.thisRepN,instr_trials.thisTrialN,instr_trials.thisN,instr_trials.thisIndex,test_trials.thisRepN,test_trials.thisTrialN,test_trials.thisN,test_trials.thisIndex,thisRow.t,notes,general_instruction.started,textGeneralInstr.started,respGeneralInstr.started,general_instruction.stopped,respGeneralInstr.keys,respGeneralInstr.rt,respGeneralInstr.duration,ITI.started,fixcross.started,fixcross.stopped,ITI.stopped,dots.started,backgroundDots.started,stimulusDots.started,respDots.started,stimulusDots.stopped,dots.stopped,respDots.keys,respDots.corr,respDots.rt,respDots.duration,feedback.started,textFeedback.started,feedback.stopped,textFeedback.stopped,info.started,textInfo.started,keyRespInfo.started,info.stopped,keyRespInfo.keys,keyRespInfo.rt,keyRespInfo.duration,test_instruction.started,textTestInstr.started,respTestInstr.started,test_instruction.stopped,respTestInstr.keys,respTestInstr.rt,respTestInstr.duration,random_instruction.started,textRandomInstr.started,respRandomInstr.started,random_instruction.stopped,respRandomInstr.keys,respRandomInstr.rt,respRandomInstr.duration,goodbye.started,textGoodbye.started,goodbye.stopped,participant,session,expName,frameRate,Unnamed: 73
,,,,,,,,,,,,,,,,,0.0371918999589979,0.0532943999860435,0.0532943999860435,25.64083990000654,space,45.09008300001733,,,,,,,,,,,,,,,,,,,,,,,,,,,,,,,,,,,,,,,,,,,,sub-185,1.0,random_dot,60.20832076399135,
left,left,,0.0,0.0,0.0,0.0,,,,,,,,,25.673302999930456,,,,,,,,,25.6625514999032,26.856542699970305,27.705657799961045,27.64002279995475,27.64004689990543,27.705657799961045,27.705657799961045,27.705657799961045,32.65379159990698,38.900312899961136,left,1.0,30.687350500025783,,38.91284110001288,38.93284459994175,39.41728789999616,,,,,,,,,,,,,,,,,,,,,,,,,,sub-185,1.0,random_dot,60.20832076399135,
right,right,,0.0,1.0,1.0,1.0,,,,,,,,,39.4333957999479,,,,,,,,,39.41781909996644,40.215415099984966,41.01604159991257,40.999850099906325,40.99987619998865,41.01604159991257,41.01604159991257,41.01604159991257,46.01264159998391,47.02978079998866,right,1.0,25.51763260003645,,47.03031059994828,47.04508889990393,47.52980279992335,47.54503299994394,,,,,,,,,,,,,,,,,,,,,,,,,sub-185,1.0,random_dot,60.20832076399135,
right,right,,1.0,0.0,2.0,1.0,,,,,,,,,47.54503299994394,,,,,,,,,47.530195600003935,48.34403839998413,49.14371009997558,49.12736959999893,49.12738759990316,49.14371009997558,49.14371009997558,49.14371009997558,54.14104089990724,54.75861059990712,right,1.0,25.106987399980422,,54.75915789999999,54.77430459996685,55.25817259994801,55.27395619999152,,,,,,,,,,,,,,,,,,,,,,,,,sub-185,1.0,random_dot,60.20832076399135,
left,left,,1.0,1.0,3.0,0.0,,,,,,,,,55.27395619999152,,,,,,,,,55.25853089999873,55.62413099990226,56.42341980000492,56.40793579991441,56.40796059998684,56.42341980000492,56.42341980000492,56.42341980000492,61.42160539992619,61.7722439999925,left,1.0,24.84336020005867,,61.77273630001582,61.78857450000942,62.27191959996708,62.28697389992885,,,,,,,,,,,,,,,,,,,,,,,,,sub-185,1.0,random_dot,60.20832076399135,
right,right,,2.0,0.0,4.0,1.0,,,,,,,,,62.28697389992885,,,,,,,,,62.27235669991933,62.63832909998018,63.43719129997771,63.42223479994573,63.42225840000901,63.43719129997771,63.43719129997771,63.43719129997771,68.4355835999595,68.96753289992921,right,1.0,25.034181100083515,,68.96820859995205,68.98366779997014,69.46811059990432,69.48474949994124,,,,,,,,,,,,,,,,,,,,,,,,,sub-185,1.0,random_dot,60.20832076399135,
left,left,,2.0,1.0,5.0,0.0,,,,,,,,,69.48474949994124,,,,,,,,,69.46859689999837,70.66653859999496,71.46654559997842,71.45126399991568,71.4512869999744,71.46654559997842,71.46654559997842,71.46654559997842,76.46362579998095,76.93137090001255,left,1.0,24.963297600043006,,76.93187149998266,76.94683329993859,77.43043119995855,77.44617709994782,,,,,,,,,,,,,,,,,,,,,,,,,sub-185,1.0,random_dot,60.20832076399135,
left,left,,3.0,0.0,6.0,0.0,,,,,,,,,77.44617709994782,,,,,,,,,77.43083799991291,78.24596540001221,79.04559639992658,79.02978529990651,79.02981129998807,79.04559639992658,79.04559639992658,79.04559639992658,84.04287189990282,84.51167359994724,right,0.0,24.959171600057743,,84.51220729993656,84.52562919992488,85.00975829991512,85.0266236999305,,,,,,,,,,,,,,,,,,,,,,,,,sub-185,1.0,random_dot,60.20832076399135,
right,right,,3.0,1.0,7.0,1.0,,,,,,,,,85.0266236999305,,,,,,,,,85.01019689999521,85.37649850000162,86.17594829993322,86.16039789991919,86.16041769995354,86.17594829993322,86.17594829993322,86.17594829993322,91.17355680000036,91.673650899902,left,0.0,24.990105899982154,,91.6741517999908,91.68906669993883,92.18944929994176,,,,,,,,,,,,,,,,,,,,,,,,,,sub-185,1.0,random_dot,60.20832076399135,
right,right,,4.0,0.0,8.0,1.0,,,,,,,,,92.20590739999898,,,,,,,,,92.19005939993076,93.38888230000155,94.20496719994117,94.18916209996678,94.18919319997076,94.20496719994117,94.20496719994117,94.20496719994117,99.20214169996324,99.60231529991142,right,1.0,24.90110300004017,,99.60291579994372,99.6183519999031,100.10233679995872,100.11815539991947,,,,,,,,,,,,,,,,,,,,,,,,,sub-185,1.0,random_dot,60.20832076399135,
left,left,,4.0,1.0,9.0,0.0,,,,,,,,,100.11815539991947,,,,,,,,,100.10276669997256,100.91801849997135,101.7176904999651,101.70223639998584,101.70226319995707,101.7176904999651,101.7176904999651,101.7176904999651,106.7147404999705,107.31519120000304,right,0.0,25.097266700002365,,107.31603899993934,107.33019679994322,107.81498699996156,107.83079469995572,,,,,,,,,,,,,,,,,,,,,,,,,sub-185,1.0,random_dot,60.20832076399135,
right,right,,5.0,0.0,10.0,1.0,,,,,,,,,107.83079469995572,,,,,,,,,107.81541299994568,109.03079170000274,109.8457594999345,109.83030199992936,109.83032219996676,109.8457594999345,109.8457594999345,109.8457594999345,114.84457079996356,115.37801899993792,right,1.0,25.03833280003164,,115.37853390001692,115.39342559990472,115.8772927999962,115.892601099913,,,,,,,,,,,,,,,,,,,,,,,,,sub-185,1.0,random_dot,60.20832076399135,
left,left,,5.0,1.0,11.0,0.0,,,,,,,,,115.892601099913,,,,,,,,,115.87770189996807,117.09296949999408,117.89263979997486,117.87639119999947,117.87640989990904,117.89263979997486,117.89263979997486,117.89263979997486,122.8902171999216,123.72440529998858,left,1.0,25.323678700020537,,123.72492019995116,123.73894810001366,124.2402485999046,,,,,,,,,,,,,,,,,,,,,,,,,,sub-185,1.0,random_dot,60.20832076399135,
right,right,,6.0,0.0,12.0,1.0,,,,,,,,,124.25592809997032,,,,,,,,,124.24069269991014,124.33909639995544,125.1379605999682,125.12217409990262,125.12219889997505,125.1379605999682,125.1379605999682,125.1379605999682,130.13570159999654,130.62072849995457,right,1.0,24.98210070002824,,130.6212605999317,130.63501779991202,131.11883719998875,131.13574779999908,,,,,,,,,,,,,,,,,,,,,,,,,sub-185,1.0,random_dot,60.20832076399135,
left,left,,6.0,1.0,13.0,0.0,,,,,,,,,131.13574779999908,,,,,,,,,131.1192388999043,131.23578899994027,132.03526899998542,132.01968329993542,132.01970579999033,132.03526899998542,132.03526899998542,132.03526899998542,137.03173259994946,138.19828539993614,right,0.0,25.659880900057036,,138.19885449996218,138.21438799996395,138.69792870001402,138.71412389993202,,,,,,,,,,,,,,,,,,,,,,,,,sub-185,1.0,random_dot,60.20832076399135,
left,left,,7.0,0.0,14.0,0.0,,,,,,,,,138.71412389993202,,,,,,,,,138.69835269998293,138.81404630001634,139.6139898999827,139.5975387999788,139.59755890001543,139.6139898999827,139.6139898999827,139.6139898999827,144.61142859992106,145.2619129999075,left,1.0,25.142924300045703,,145.2626493999269,145.27718709991314,145.76156239991542,145.77708589995746,,,,,,,,,,,,,,,,,,,,,,,,,sub-185,1.0,random_dot,60.20832076399135,
right,right,,7.0,1.0,15.0,1.0,,,,,,,,,145.77708589995746,,,,,,,,,145.7619709999999,146.97716649994254,147.77603569999337,147.7607603999786,147.76079339999706,147.77603569999337,147.77603569999337,147.77603569999337,152.77492549992166,153.00845959992148,right,1.0,24.73808900010772,,153.00895429996308,153.0235925000161,153.50863820000086,153.52410649997182,,,,,,,,,,,,,,,,,,,,,,,,,sub-185,1.0,random_dot,60.20832076399135,
left,left,,8.0,0.0,16.0,0.0,,,,,,,,,153.52410649997182,,,,,,,,,153.50907799997367,153.62333769991528,154.42351769993547,154.40729829994962,154.40732509992085,154.42351769993547,154.42351769993547,154.42351769993547,159.4217507999856,159.82032850000542,left,1.0,24.895773700089197,,159.82078810001258,159.83650189999025,160.32103130000178,160.3395735999802,,,,,,,,,,,,,,,,,,,,,,,,,sub-185,1.0,random_dot,60.20832076399135,
right,right,,8.0,1.0,17.0,1.0,,,,,,,,,160.3395735999802,,,,,,,,,160.321415699902,160.67028009996284,161.4858583000023,161.47044039994944,161.4704683999298,161.4858583000023,161.4858583000023,161.4858583000023,166.48445939994417,166.7519331999356,right,1.0,24.772258599987254,,166.75272439990658,166.7664414999308,167.25033109996002,167.26675599999726,,,,,,,,,,,,,,,,,,,,,,,,,sub-185,1.0,random_dot,60.20832076399135,
left,left,,9.0,0.0,18.0,0.0,,,,,,,,,167.26675599999726,,,,,,,,,167.2507479999913,167.36654670001008,168.16576100001112,168.15100309997797,168.15102589991875,168.16576100001112,168.16576100001112,168.16576100001112,173.16335859999526,173.54794959991705,right,0.0,24.888558099977672,,173.5486169999931,173.5625837999396,174.04624569998123,174.0624550000066,,,,,,,,,,,,,,,,,,,,,,,,,sub-185,1.0,random_dot,60.20832076399135,
right,right,,9.0,1.0,19.0,1.0,,,,,,,,,174.0624550000066,,,,,,,,,174.0467687000055,175.26197120000143,176.06136309995782,176.04524959996343,176.045274999924,176.06136309995782,176.06136309995782,176.06136309995782,181.05875909992028,181.89290470001288,left,0.0,25.3361960001057,,181.89342999993823,181.9082639999688,182.3919912999263,182.40800449997187,,,,,,,,,,,,,,,,,,,,,,,,,sub-185,1.0,random_dot,60.20832076399135,
,,,,,,,,,,,,,,,,,,,,,,,,,,,,,,,,,,,,,,,,,,182.39207709999755,182.40800449997187,182.40800449997187,189.3395644999109,space,26.433613300090656,,,,,,,,,,,,,,,,,,,sub-185,1.0,random_dot,60.20832076399135,
,,,,,,,,,,,,,,,,,,,,,,,,,,,,,,,,,,,,,,,,,,,,,,,,,189.3396048999857,189.3543864999665,189.3543864999665,200.357014899957,space,30.492794100078758,,,,,,,,,,,,sub-185,1.0,random_dot,60.20832076399135,
left,left,accuracy,,,,,0.0,0.0,0.0,0.0,0.0,0.0,0.0,0.0,206.1801223999355,,,,,,,,,206.1701933000004,206.97926970000844,207.7777242999291,207.76249869994356,207.76252049999312,207.7777242999291,207.7777242999291,207.7777242999291,212.77612479997333,213.14269879995845,left,1.0,24.859516600030474,,,,,,,,,,,,,,,,,,,,200.3610523999669,200.38183029997165,200.38183029997165,206.1637985999696,space,25.279853100073524,,,,,sub-185,1.0,random_dot,60.20832076399135,
right,right,accuracy,,,,,0.0,0.0,0.0,0.0,0.0,1.0,1.0,1.0,213.15925389993936,,,,,,,,,213.14395419997163,214.35925320000388,215.15913489996456,215.14278090000155,215.1428005999187,215.15913489996456,215.15913489996456,215.15913489996456,220.15510219999123,220.49039569997692,right,1.0,24.83739500003867,,,,,,,,,,,,,,,,,,,,,,,,,,,,,,sub-185,1.0,random_dot,60.20832076399135,
right,right,accuracy,,,,,0.0,0.0,0.0,0.0,1.0,0.0,2.0,1.0,220.5049972999841,,,,,,,,,220.491527199978,220.60508769995067,221.4217601999408,221.40431040001567,221.40433789999224,221.4217601999408,221.4217601999408,221.4217601999408,226.4191119999159,226.80336209991947,left,0.0,24.87411170010455,,,,,,,,,,,,,,,,,,,,,,,,,,,,,,sub-185,1.0,random_dot,60.20832076399135,
left,left,accuracy,,,,,0.0,0.0,0.0,0.0,1.0,1.0,3.0,0.0,226.8179091999773,,,,,,,,,226.8043236999074,227.61816269997507,228.4178761999356,228.4017786999466,228.4017986999825,228.4178761999356,228.4178761999356,228.4178761999356,233.4159605000168,233.83347019995563,left,1.0,24.918743400019597,,,,,,,,,,,,,,,,,,,,,,,,,,,,,,sub-185,1.0,random_dot,60.20832076399135,
right,right,accuracy,,,,,0.0,0.0,0.0,0.0,2.0,0.0,4.0,1.0,233.8486945999321,,,,,,,,,233.83474149997343,234.1983613999328,234.9983066999121,234.98175079992507,234.98178209993057,234.9983066999121,234.9983066999121,234.9983066999121,239.99576809990683,240.3635007999837,right,1.0,24.86051660007797,,,,,,,,,,,,,,,,,,,,,,,,,,,,,,sub-185,1.0,random_dot,60.20832076399135,
left,left,accuracy,,,,,0.0,0.0,0.0,0.0,2.0,1.0,5.0,0.0,240.378810999915,,,,,,,,,240.36468979995695,240.728528299951,241.52861349994785,241.5123679999961,241.5124048999278,241.52861349994785,241.52861349994785,241.52861349994785,246.52566689997911,246.8932530999882,left,1.0,24.862038500024937,,,,,,,,,,,,,,,,,,,,,,,,,,,,,,sub-185,1.0,random_dot,60.20832076399135,
right,right,accuracy,,,,,0.0,0.0,0.0,0.0,3.0,0.0,6.0,1.0,246.90871739992872,,,,,,,,,246.8941702999873,247.00902210001368,247.80973129998893,247.7921958999941,247.7922262999928,247.80973129998893,247.80973129998893,247.80973129998893,252.80628289992453,253.2898484999314,right,1.0,24.980482200160623,,,,,,,,,,,,,,,,,,,,,,,,,,,,,,sub-185,1.0,random_dot,60.20832076399135,
left,left,accuracy,,,,,0.0,0.0,0.0,0.0,3.0,1.0,7.0,0.0,253.3050567000173,,,,,,,,,253.2907682999503,253.4053650000133,254.20572239998728,254.1887067999924,254.1887293999316,254.20572239998728,254.20572239998728,254.20572239998728,259.2027507999446,259.5040508999955,left,1.0,24.803528600023128,,,,,,,,,,,,,,,,,,,,,,,,,,,,,,sub-185,1.0,random_dot,60.20832076399135,
left,left,accuracy,,,,,0.0,0.0,0.0,0.0,4.0,0.0,8.0,0.0,259.51882839994505,,,,,,,,,259.50500160001684,260.31837809993885,261.1183054000139,261.1023233999731,261.10235279996414,261.1183054000139,261.1183054000139,261.1183054000139,266.11588129994925,266.6166069000028,left,1.0,24.991834199987352,,,,,,,,,,,,,,,,,,,,,,,,,,,,,,sub-185,1.0,random_dot,60.20832076399135,
right,right,accuracy,,,,,0.0,0.0,0.0,0.0,4.0,1.0,9.0,1.0,266.631423200015,,,,,,,,,266.617564199958,267.4312573999632,268.231831699959,268.21521829999983,268.2152372999117,268.231831699959,268.231831699959,268.231831699959,273.2286844999762,273.5967592999805,right,1.0,24.867129800026305,,,,,,,,,,,,,,,,,,,,,,,,,,,,,,sub-185,1.0,random_dot,60.20832076399135,
left,left,accuracy,,,,,0.0,0.0,0.0,0.0,5.0,0.0,10.0,0.0,273.6114088000031,,,,,,,,,273.59770529996604,273.7114438000135,274.5118809000124,274.4949482999509,274.4949684999883,274.5118809000124,274.5118809000124,274.5118809000124,279.5087694999529,279.8270015999442,left,1.0,24.817745300126266,,,,,,,,,,,,,,,,,,,,,,,,,,,,,,sub-185,1.0,random_dot,60.20832076399135,
right,right,accuracy,,,,,0.0,0.0,0.0,0.0,5.0,1.0,11.0,1.0,279.8412804999389,,,,,,,,,279.8280278999591,279.9418636999326,280.7417230999563,280.7252894999692,280.7253095000051,280.7417230999563,280.7417230999563,280.7417230999563,285.7389955999097,286.0729711999884,right,1.0,24.82810879999306,,,,,,,,,,,,,,,,,,,,,,,,,,,,,,sub-185,1.0,random_dot,60.20832076399135,
left,left,accuracy,,,,,0.0,0.0,0.0,0.0,6.0,0.0,12.0,0.0,286.0878958000103,,,,,,,,,286.0738975999411,286.18814459990244,286.9883601999609,286.97138779994566,286.97141090000514,286.9883601999609,286.9883601999609,286.9883601999609,,291.27019629999995,left,1.0,23.777382100117396,,,,,,,,,,,,,,,,,,,,,,,,,,,,,,sub-185,1.0,random_dot,60.20832076399135,
right,right,accuracy,,,,,0.0,0.0,0.0,0.0,6.0,1.0,13.0,1.0,291.2852953999536,,,,,,,,,291.2712638999801,292.4853141999338,293.28472449991386,293.26837169996,293.26840619998984,293.28472449991386,293.28472449991386,293.28472449991386,,295.8522232999094,right,1.0,22.073883300065063,,,,,,,,,,,,,,,,,,,,,,,,,,,,,,sub-185,1.0,random_dot,60.20832076399135,
right,right,accuracy,,,,,0.0,0.0,0.0,0.0,7.0,0.0,14.0,1.0,295.8667722999817,,,,,,,,,295.8531879999209,297.0660442999797,297.86576590000186,297.8496584999375,297.84968679992016,297.86576590000186,297.86576590000186,297.86576590000186,302.86306999996305,303.1141201999272,right,1.0,24.749289700062945,,,,,,,,,,,,,,,,,,,,,,,,,,,,,,sub-185,1.0,random_dot,60.20832076399135,
left,left,accuracy,,,,,0.0,0.0,0.0,0.0,7.0,1.0,15.0,0.0,303.1298867999576,,,,,,,,,303.1150563999545,304.3288177999202,305.1287522999337,305.11288369994145,305.11290339997504,305.1287522999337,305.1287522999337,305.1287522999337,,307.2623635999625,left,1.0,21.6282504000701,,,,,,,,,,,,,,,,,,,,,,,,,,,,,,sub-185,1.0,random_dot,60.20832076399135,
right,right,accuracy,,,,,0.0,0.0,0.0,0.0,8.0,0.0,16.0,1.0,307.27697149990126,,,,,,,,,307.2634042999707,308.07719139999244,308.8766801999882,308.8608140000142,308.8608339999337,308.8766801999882,308.8766801999882,308.8766801999882,313.8745776999276,313.87563999998383,right,1.0,24.49590360012371,,,,,,,,,,,,,,,,,,,,,,,,,,,,,,sub-185,1.0,random_dot,60.20832076399135,
left,left,accuracy,,,,,0.0,0.0,0.0,0.0,8.0,1.0,17.0,0.0,313.89020549994893,,,,,,,,,313.8765770000173,313.9904666999355,314.79220849997364,314.7735037999228,314.7735304000089,314.79220849997364,314.79220849997364,314.79220849997364,,316.0574561000103,left,1.0,20.75777000002563,,,,,,,,,,,,,,,,,,,,,,,,,,,,,,sub-185,1.0,random_dot,60.20832076399135,
right,right,accuracy,,,,,0.0,0.0,0.0,0.0,9.0,0.0,18.0,1.0,316.07227090001106,,,,,,,,,316.0584946000017,316.42214289994445,317.2223558999831,317.2062485999195,317.2062680999516,317.2223558999831,317.2223558999831,317.2223558999831,,318.20727819995955,right,1.0,20.476320500019938,,,,,,,,,,,,,,,,,,,,,,,,,,,,,,sub-185,1.0,random_dot,60.20832076399135,
left,left,accuracy,,,,,0.0,0.0,0.0,0.0,9.0,1.0,19.0,0.0,318.22155129991006,,,,,,,,,318.208237899933,319.42055229994,320.2206251999596,320.2041507000104,320.20416979992297,320.2206251999596,320.2206251999596,320.2206251999596,,321.5212529000128,left,1.0,20.79194760008249,,,,,,,,,,,,,,,,,,,,,,,,,,,,,,sub-185,1.0,random_dot,60.20832076399135,
left,left,accuracy,,,,,0.0,0.0,0.0,0.0,10.0,0.0,20.0,0.0,321.5369534000056,,,,,,,,,321.52216099994257,321.6366099999286,322.43700699997135,322.419852299965,322.4198730000062,322.43700699997135,322.43700699997135,322.43700699997135,,323.73705989995506,left,1.0,20.79457510006614,,,,,,,,,,,,,,,,,,,,,,,,,,,,,,sub-185,1.0,random_dot,60.20832076399135,
right,right,accuracy,,,,,0.0,0.0,0.0,0.0,10.0,1.0,21.0,1.0,323.75190819997806,,,,,,,,,323.7380121999886,324.9513410999207,325.75132119993214,325.73487569997087,325.73490339994896,325.75132119993214,325.75132119993214,325.75132119993214,,327.8177607000107,right,1.0,21.564926500082947,,,,,,,,,,,,,,,,,,,,,,,,,,,,,,sub-185,1.0,random_dot,60.20832076399135,
left,left,accuracy,,,,,0.0,0.0,0.0,0.0,11.0,0.0,22.0,0.0,327.83314519992564,,,,,,,,,327.8187542000087,328.633559799986,329.4490968999453,329.4328912999481,329.43291259999387,329.4490968999453,329.4490968999453,329.4490968999453,,331.33306239999365,left,1.0,21.37710530008189,,,,,,,,,,,,,,,,,,,,,,,,,,,,,,sub-185,1.0,random_dot,60.20832076399135,
right,right,accuracy,,,,,0.0,0.0,0.0,0.0,11.0,1.0,23.0,1.0,331.3483812999912,,,,,,,,,331.33401909994427,331.4477798999287,332.2479505999945,332.2323596999049,332.23237879993394,332.2479505999945,332.2479505999945,332.2479505999945,,333.5314132999629,right,1.0,20.78210300009232,,,,,,,,,,,,,,,,,,,,,,,,,,,,,,sub-185,1.0,random_dot,60.20832076399135,
left,left,accuracy,,,,,0.0,0.0,0.0,0.0,12.0,0.0,24.0,0.0,333.5464384999359,,,,,,,,,333.5323541999096,333.8963441000087,334.6965659999987,334.68036369991023,334.68038699997123,334.6965659999987,334.6965659999987,334.6965659999987,,335.5804496000055,left,1.0,20.38261270010844,,,,,,,,,,,,,,,,,,,,,,,,,,,,,,sub-185,1.0,random_dot,60.20832076399135,
right,right,accuracy,,,,,0.0,0.0,0.0,0.0,12.0,1.0,25.0,1.0,335.5955778999487,,,,,,,,,335.58143729995936,335.94557849993,336.74602969991975,336.7293475999031,336.7293680999428,336.74602969991975,336.74602969991975,336.74602969991975,,338.6126501999097,right,1.0,21.37258540012408,,,,,,,,,,,,,,,,,,,,,,,,,,,,,,sub-185,1.0,random_dot,60.20832076399135,
left,left,accuracy,,,,,0.0,0.0,0.0,0.0,13.0,0.0,26.0,0.0,338.6273034999613,,,,,,,,,338.6135916999774,339.4272318999283,340.2276283999672,340.21126859996,340.2112879999913,340.2276283999672,340.2276283999672,340.2276283999672,,341.9788958999561,left,1.0,21.25764240010176,,,,,,,,,,,,,,,,,,,,,,,,,,,,,,sub-185,1.0,random_dot,60.20832076399135,
right,right,accuracy,,,,,0.0,0.0,0.0,0.0,13.0,1.0,27.0,1.0,341.9925167999463,,,,,,,,,341.9799649999477,343.1916574999923,343.992308099987,343.9758335999213,343.9758535999572,343.992308099987,343.992308099987,343.992308099987,,346.3917001999216,right,1.0,21.89867790008429,,,,,,,,,,,,,,,,,,,,,,,,,,,,,,sub-185,1.0,random_dot,60.20832076399135,
left,left,accuracy,,,,,0.0,0.0,0.0,0.0,14.0,0.0,28.0,0.0,346.4068426999729,,,,,,,,,346.3925976000028,347.60680129996035,348.40644599997904,348.3902865999844,348.3903215000173,348.40644599997904,348.40644599997904,348.40644599997904,,349.4076939999359,left,1.0,20.50634360010736,,,,,,,,,,,,,,,,,,,,,,,,,,,,,,sub-185,1.0,random_dot,60.20832076399135,
right,right,accuracy,,,,,0.0,0.0,0.0,0.0,14.0,1.0,29.0,1.0,349.42225359997246,,,,,,,,,349.40882109990343,350.6214405999053,351.4214369999245,351.4044246999547,351.4044691999443,351.4214369999245,351.4214369999245,351.4214369999245,,353.55434559995774,right,1.0,21.626609100028872,,,,,,,,,,,,,,,,,,,,,,,,,,,,,,sub-185,1.0,random_dot,60.20832076399135,
right,right,accuracy,,,,,0.0,0.0,0.0,0.0,15.0,0.0,30.0,1.0,353.5699395999545,,,,,,,,,353.55527339992113,354.36941759998444,355.1693492999766,355.1531661999179,355.15318579995073,355.1693492999766,355.1693492999766,355.1693492999766,,356.3528982999269,right,1.0,20.679740900057368,,,,,,,,,,,,,,,,,,,,,,,,,,,,,,sub-185,1.0,random_dot,60.20832076399135,
left,left,accuracy,,,,,0.0,0.0,0.0,0.0,15.0,1.0,31.0,0.0,356.3682472999208,,,,,,,,,356.35383499995805,357.16791999991983,357.96808129991405,357.9522697000066,357.95229769998696,357.96808129991405,357.96808129991405,357.96808129991405,,360.9339810999809,left,1.0,22.468688099994324,,,,,,,,,,,,,,,,,,,,,,,,,,,,,,sub-185,1.0,random_dot,60.20832076399135,
right,right,accuracy,,,,,0.0,0.0,0.0,0.0,16.0,0.0,32.0,1.0,360.9492302999133,,,,,,,,,360.9349011000013,361.04881989990827,361.8491430999711,361.8328678999096,361.8328864999348,361.8491430999711,361.8491430999711,361.8491430999711,,364.0831028999528,right,1.0,21.740416800021197,,,,,,,,,,,,,,,,,,,,,,,,,,,,,,sub-185,1.0,random_dot,60.20832076399135,
left,left,accuracy,,,,,0.0,0.0,0.0,0.0,16.0,1.0,33.0,0.0,364.0975365999621,,,,,,,,,364.0840823999606,364.1974155999487,364.9976105999667,364.98338939994574,364.9834138000151,364.9976105999667,364.9976105999667,364.9976105999667,,366.66475549992174,left,1.0,21.1671045999974,,,,,,,,,,,,,,,,,,,,,,,,,,,,,,sub-185,1.0,random_dot,60.20832076399135,
left,left,accuracy,,,,,0.0,0.0,0.0,0.0,17.0,0.0,34.0,0.0,366.679398200009,,,,,,,,,366.66571169998497,367.8788478999632,368.67903120000847,368.6627260999521,368.6627492000116,368.67903120000847,368.67903120000847,368.67903120000847,,371.5959568999242,right,0.0,22.420311199966815,,,,,,,,,,,,,,,,,,,,,,,,,,,,,,sub-185,1.0,random_dot,60.20832076399135,
right,right,accuracy,,,,,0.0,0.0,0.0,0.0,17.0,1.0,35.0,1.0,371.6100711999461,,,,,,,,,371.5970597999403,371.96035519998986,372.76010549999774,372.74404679995496,372.74407059990335,372.76010549999774,372.76010549999774,372.76010549999774,,374.31082379992586,right,1.0,21.056238000048324,,,,,,,,,,,,,,,,,,,,,,,,,,,,,,sub-185,1.0,random_dot,60.20832076399135,
left,left,accuracy,,,,,0.0,0.0,0.0,0.0,18.0,0.0,36.0,0.0,374.3253305999097,,,,,,,,,374.311791599961,374.6757804999361,375.47563659993466,375.4590798999416,375.4590997999767,375.47563659993466,375.47563659993466,375.47563659993466,,376.6092222000007,left,1.0,20.63103550008964,,,,,,,,,,,,,,,,,,,,,,,,,,,,,,sub-185,1.0,random_dot,60.20832076399135,
right,right,accuracy,,,,,0.0,0.0,0.0,0.0,18.0,1.0,37.0,1.0,376.6244028999936,,,,,,,,,376.6101986999856,376.9747409999836,377.77399099990726,377.7580341999419,377.7580626999261,377.77399099990726,377.77399099990726,377.77399099990726,,379.1079157999484,right,1.0,20.829942500102334,,,,,,,,,,,,,,,,,,,,,,,,,,,,,,sub-185,1.0,random_dot,60.20832076399135,
right,right,accuracy,,,,,0.0,0.0,0.0,0.0,19.0,0.0,38.0,1.0,379.1233524999116,,,,,,,,,379.1088557000039,379.4729375999887,380.2727732999483,380.2562885999214,380.2563081999542,380.2727732999483,380.2727732999483,380.2727732999483,,382.2909064999549,left,0.0,21.51746500004083,,,,,,,,,,,,,,,,,,,,,,,,,,,,,,sub-185,1.0,random_dot,60.20832076399135,
left,left,accuracy,,,,,0.0,0.0,0.0,0.0,19.0,1.0,39.0,0.0,382.3046163999242,,,,,,,,,382.2918295999989,382.6545122999232,383.4547421999741,383.4385074999882,383.4385334999533,383.4547421999741,383.4547421999741,383.4547421999741,,384.33909379993565,left,1.0,20.387518100091256,,,,,,,,,,,,,,,,,,,,,,,,,,,,,,sub-185,1.0,random_dot,60.20832076399135,
left,left,accuracy,,,,,0.0,0.0,0.0,0.0,20.0,0.0,40.0,0.0,384.3540643999586,,,,,,,,,384.34006149997,385.15318729996216,385.9532009999966,385.936781299999,385.9368076999672,385.9532009999966,385.9532009999966,385.9532009999966,,387.8045101999305,left,1.0,21.34839810000267,,,,,,,,,,,,,,,,,,,,,,,,,,,,,,sub-185,1.0,random_dot,60.20832076399135,
right,right,accuracy,,,,,0.0,0.0,0.0,0.0,20.0,1.0,41.0,1.0,387.818468799931,,,,,,,,,387.805434799986,388.61814409994986,389.4186556999339,389.40190399996936,389.4019238000037,389.4186556999339,389.4186556999339,389.4186556999339,,390.5685082999989,right,1.0,20.65493379998952,,,,,,,,,,,,,,,,,,,,,,,,,,,,,,sub-185,1.0,random_dot,60.20832076399135,
right,right,accuracy,,,,,0.0,0.0,0.0,0.0,21.0,0.0,42.0,1.0,390.5836661999346,,,,,,,,,390.5694701999892,391.7827469999902,392.5833270999137,392.5666522999527,392.5666719999863,392.5833270999137,392.5833270999137,392.5833270999137,,395.6996945999563,left,0.0,22.6219931000378,,,,,,,,,,,,,,,,,,,,,,,,,,,,,,sub-185,1.0,random_dot,60.20832076399135,
left,left,accuracy,,,,,0.0,0.0,0.0,0.0,21.0,1.0,43.0,0.0,395.7144695000025,,,,,,,,,395.70062709995545,396.5139144000132,397.3143967000069,397.2977495999076,397.2977748999838,397.3143967000069,397.3143967000069,397.3143967000069,,398.330961199943,left,1.0,20.5148442001082,,,,,,,,,,,,,,,,,,,,,,,,,,,,,,sub-185,1.0,random_dot,60.20832076399135,
right,right,accuracy,,,,,0.0,0.0,0.0,0.0,22.0,0.0,44.0,1.0,398.3463090999285,,,,,,,,,398.3321350999177,398.6964139000047,399.4962273999117,399.4797926999163,399.4798129999545,399.4962273999117,399.4962273999117,399.4962273999117,,401.0961679999018,right,1.0,21.10396220011171,,,,,,,,,,,,,,,,,,,,,,,,,,,,,,sub-185,1.0,random_dot,60.20832076399135,
left,left,accuracy,,,,,0.0,0.0,0.0,0.0,22.0,1.0,45.0,0.0,401.1113558999496,,,,,,,,,401.0971426999895,401.9116914999904,402.7111927999649,402.6948645999655,402.69489009992685,402.7111927999649,402.7111927999649,402.7111927999649,,404.4449354999233,right,0.0,21.23918080003932,,,,,,,,,,,,,,,,,,,,,,,,,,,,,,sub-185,1.0,random_dot,60.20832076399135,
right,right,accuracy,,,,,0.0,0.0,0.0,0.0,23.0,0.0,46.0,1.0,404.4599600000074,,,,,,,,,404.4458764999872,405.6592392999446,406.45925429998897,406.4431638999376,406.44318409997504,406.45925429998897,406.45925429998897,406.45925429998897,,407.3100722999079,right,1.0,20.346751300035976,,,,,,,,,,,,,,,,,,,,,,,,,,,,,,sub-185,1.0,random_dot,60.20832076399135,
left,left,accuracy,,,,,0.0,0.0,0.0,0.0,23.0,1.0,47.0,0.0,407.32478829997126,,,,,,,,,407.3110449999804,408.1245446999092,408.9244681999553,408.9083860999672,408.9084126999369,408.9244681999553,408.9244681999553,408.9244681999553,,411.05938589992,right,0.0,21.64106860011816,,,,,,,,,,,,,,,,,,,,,,,,,,,,,,sub-185,1.0,random_dot,60.20832076399135,
left,left,accuracy,,,,,0.0,0.0,0.0,0.0,24.0,0.0,48.0,0.0,411.0728147999616,,,,,,,,,411.06036689993925,412.2727101999335,413.0726675000042,413.05602389993146,413.05604359996505,413.0726675000042,413.0726675000042,413.0726675000042,,413.84064069995657,right,0.0,20.261725699994717,,,,,,,,,,,,,,,,,,,,,,,,,,,,,,sub-185,1.0,random_dot,60.20832076399135,
right,right,accuracy,,,,,0.0,0.0,0.0,0.0,24.0,1.0,49.0,1.0,413.8550598999718,,,,,,,,,413.8415598999709,414.65489879995584,415.4546674999874,415.4381408999907,415.4381728000008,415.4546674999874,415.4546674999874,415.4546674999874,,417.38760679995175,right,1.0,21.425395000027493,,,,,,,,,,,,,,,,,,,,,,,,,,,,,,sub-185,1.0,random_dot,60.20832076399135,
left,left,accuracy,,,,,0.0,0.0,0.0,0.0,25.0,0.0,50.0,0.0,417.4031843999401,,,,,,,,,417.3884819999803,417.75291279994417,418.5532565999311,418.5368920000037,418.5369236000115,418.5532565999311,418.5532565999311,418.5532565999311,,422.8862918999512,right,0.0,23.833271399955265,,,,,,,,,,,,,,,,,,,,,,,,,,,,,,sub-185,1.0,random_dot,60.20832076399135,
right,right,accuracy,,,,,0.0,0.0,0.0,0.0,25.0,1.0,51.0,1.0,422.9005863999482,,,,,,,,,422.8872735999757,424.100206199917,424.916630199994,424.9004673999734,424.9004979999736,424.916630199994,424.916630199994,424.916630199994,,426.7665386999725,left,0.0,21.34087830001954,,,,,,,,,,,,,,,,,,,,,,,,,,,,,,sub-185,1.0,random_dot,60.20832076399135,
right,right,accuracy,,,,,0.0,0.0,0.0,0.0,26.0,0.0,52.0,1.0,426.7817531999899,,,,,,,,,426.7674402999692,426.8816182999872,427.6820335999364,427.6651229999261,427.66514359996654,427.6820335999364,427.6820335999364,427.6820335999364,,428.715097200009,right,1.0,20.5386016999837,,,,,,,,,,,,,,,,,,,,,,,,,,,,,,sub-185,1.0,random_dot,60.20832076399135,
left,left,accuracy,,,,,0.0,0.0,0.0,0.0,26.0,1.0,53.0,0.0,428.7306735999882,,,,,,,,,428.7160271999892,428.8308399999514,429.630852399976,429.6142601999454,429.6142796999775,429.630852399976,429.630852399976,429.630852399976,,432.6465118000051,right,0.0,22.510874500032514,,,,,,,,,,,,,,,,,,,,,,,,,,,,,,sub-185,1.0,random_dot,60.20832076399135,
right,right,accuracy,,,,,0.0,0.0,0.0,0.0,27.0,0.0,54.0,1.0,432.66166009998415,,,,,,,,,432.6476164999185,433.861390999984,434.6610766999656,434.6446789999027,434.6447032999713,434.6610766999656,434.6610766999656,434.6610766999656,,436.3943885999033,right,1.0,21.226812900044024,,,,,,,,,,,,,,,,,,,,,,,,,,,,,,sub-185,1.0,random_dot,60.20832076399135,
left,left,accuracy,,,,,0.0,0.0,0.0,0.0,27.0,1.0,55.0,0.0,436.4095280999318,,,,,,,,,436.3953376999125,436.76000919996295,437.55983839998953,437.5433637999231,437.5433835999575,437.55983839998953,437.55983839998953,437.55983839998953,,438.69450869993307,right,0.0,20.627623999956995,,,,,,,,,,,,,,,,,,,,,,,,,,,,,,sub-185,1.0,random_dot,60.20832076399135,
right,right,accuracy,,,,,0.0,0.0,0.0,0.0,28.0,0.0,56.0,1.0,438.70871619996615,,,,,,,,,438.69547249993775,439.5090069000144,440.32533449993934,440.3083501999499,440.3083695999812,440.32533449993934,440.32533449993934,440.32533449993934,,442.19181819993537,right,1.0,21.372254400048405,,,,,,,,,,,,,,,,,,,,,,,,,,,,,,sub-185,1.0,random_dot,60.20832076399135,
left,left,accuracy,,,,,0.0,0.0,0.0,0.0,28.0,1.0,57.0,0.0,442.2071818999248,,,,,,,,,442.1927462000167,442.5569115999388,443.35744890000205,443.3408566999715,443.34087670000736,443.35744890000205,443.35744890000205,443.35744890000205,,444.8236821999308,right,0.0,20.962346500135027,,,,,,,,,,,,,,,,,,,,,,,,,,,,,,sub-185,1.0,random_dot,60.20832076399135,
left,left,accuracy,,,,,0.0,0.0,0.0,0.0,29.0,0.0,58.0,0.0,444.8391862999415,,,,,,,,,444.8247067999328,444.9388116999762,445.73926529998425,445.7228559999494,445.7228957999032,445.73926529998425,445.73926529998425,445.73926529998425,,448.954474399914,right,0.0,22.71473570005037,,,,,,,,,,,,,,,,,,,,,,,,,,,,,,sub-185,1.0,random_dot,60.20832076399135,
right,right,accuracy,,,,,0.0,0.0,0.0,0.0,29.0,1.0,59.0,1.0,448.9696416999213,,,,,,,,,448.9553878000006,449.0702134999447,449.87064619991,449.8536296999082,449.85364949994255,449.87064619991,449.87064619991,449.87064619991,,453.9186909999698,right,1.0,23.550552100059576,,,,,,,,,,,,,,,,,,,,,,,,,,,,,,sub-185,1.0,random_dot,60.20832076399135,
,,accuracy,,,,,0.0,0.0,0.0,0.0,,,,,,,,,,,,,,,,,,,,,,,,,,,,,,,,,,,,,,,,,,,,,,,,,,,,,,,,sub-185,1.0,random_dot,60.20832076399135,
left,left,speed,,,,,0.0,1.0,1.0,1.0,0.0,0.0,0.0,0.0,457.91513859992847,,,,,,,,,457.906478799996,458.2654953999445,459.0653461999027,459.0492221999448,459.0492439999944,459.0653461999027,459.0653461999027,459.0653461999027,,459.8824481999036,left,1.0,20.31316729995888,,,,,,,,,,,,,,,,,,,,453.9195736999391,453.9341447999468,453.9341447999468,457.89999459998216,space,23.467323099961504,,,,,sub-185,1.0,random_dot,60.20832076399135,
right,right,speed,,,,,0.0,1.0,1.0,1.0,0.0,1.0,1.0,1.0,459.8976058999542,,,,,,,,,459.8837771000108,461.09685560001526,461.89731859997846,461.88066489994526,461.8806846999796,461.89731859997846,461.89731859997846,461.89731859997846,,462.4148030999349,right,1.0,20.022944599972107,,,,,,,,,,,,,,,,,,,,,,,,,,,,,,sub-185,1.0,random_dot,60.20832076399135,
right,right,speed,,,,,0.0,1.0,1.0,1.0,1.0,0.0,2.0,1.0,462.4295122999465,,,,,,,,,462.4157342999242,463.6291468999116,464.4292344999267,464.4128090000013,464.4128321999451,464.4292344999267,464.4292344999267,464.4292344999267,,465.4465184999863,left,0.0,20.52177530003246,,,,,,,,,,,,,,,,,,,,,,,,,,,,,,sub-185,1.0,random_dot,60.20832076399135,
left,left,speed,,,,,0.0,1.0,1.0,1.0,1.0,1.0,3.0,0.0,465.461678899941,,,,,,,,,465.4475059999386,466.6608529000077,467.4608947999077,467.4450772999553,467.445112299989,467.4608947999077,467.4608947999077,467.4608947999077,,468.3277502999408,left,1.0,20.36254100012593,,,,,,,,,,,,,,,,,,,,,,,,,,,,,,sub-185,1.0,random_dot,60.20832076399135,
right,right,speed,,,,,0.0,1.0,1.0,1.0,2.0,0.0,4.0,1.0,468.3430739999749,,,,,,,,,468.3287178999744,469.5425896999659,470.3429045999656,470.3262794999173,470.3262996999547,470.3429045999656,470.3429045999656,470.3429045999656,,470.9930602000095,right,1.0,20.1476241000928,,,,,,,,,,,,,,,,,,,,,,,,,,,,,,sub-185,1.0,random_dot,60.20832076399135,
left,left,speed,,,,,0.0,1.0,1.0,1.0,2.0,1.0,5.0,0.0,471.00831009994727,,,,,,,,,470.9942713999189,471.10905610001646,471.9084410999203,471.8926665999461,471.8926930999151,471.9084410999203,471.9084410999203,471.9084410999203,,472.67572810000274,left,1.0,20.270871000131592,,,,,,,,,,,,,,,,,,,,,,,,,,,,,,sub-185,1.0,random_dot,60.20832076399135,
right,right,speed,,,,,0.0,1.0,1.0,1.0,3.0,0.0,6.0,1.0,472.6909474999411,,,,,,,,,472.67731509997975,473.8902800999349,474.690509499982,474.6740033999085,474.6740224999376,474.690509499982,474.690509499982,474.690509499982,,475.1088068999816,right,1.0,19.91997250006534,,,,,,,,,,,,,,,,,,,,,,,,,,,,,,sub-185,1.0,random_dot,60.20832076399135,
left,left,speed,,,,,0.0,1.0,1.0,1.0,3.0,1.0,7.0,0.0,475.123044500011,,,,,,,,,475.1097357999533,476.32279849995393,477.1226815999253,477.1059306999669,477.1059512000065,477.1226815999253,477.1226815999253,477.1226815999253,,477.5064266999252,left,1.0,19.884702200070024,,,,,,,,,,,,,,,,,,,,,,,,,,,,,,sub-185,1.0,random_dot,60.20832076399135,
right,right,speed,,,,,0.0,1.0,1.0,1.0,4.0,0.0,8.0,1.0,477.5214464999736,,,,,,,,,477.5073898999253,477.87188659992535,478.6716134999879,478.6553212999133,478.6553448999766,478.6716134999879,478.6716134999879,478.6716134999879,,479.1725763999857,right,1.0,19.99720690003596,,,,,,,,,,,,,,,,,,,,,,,,,,,,,,sub-185,1.0,random_dot,60.20832076399135,
left,left,speed,,,,,0.0,1.0,1.0,1.0,4.0,1.0,9.0,0.0,479.1873060999205,,,,,,,,,479.17354589991737,479.2874468999216,480.0877997999778,480.071347399964,480.0713775999611,480.0877997999778,480.0877997999778,480.0877997999778,,480.5887193999952,left,1.0,20.00276050006505,,,,,,,,,,,,,,,,,,,,,,,,,,,,,,sub-185,1.0,random_dot,60.20832076399135,
left,left,speed,,,,,0.0,1.0,1.0,1.0,5.0,0.0,10.0,0.0,480.6037834999152,,,,,,,,,480.5896426999243,480.9532974999165,481.753429699922,481.73676289990544,481.73678259993903,481.753429699922,481.753429699922,481.753429699922,,482.2041236999212,right,0.0,19.94904490013141,,,,,,,,,,,,,,,,,,,,,,,,,,,,,,sub-185,1.0,random_dot,60.20832076399135,
right,right,speed,,,,,0.0,1.0,1.0,1.0,5.0,1.0,11.0,1.0,482.2190487999469,,,,,,,,,482.20506890001707,483.01900639990345,483.8190209999448,483.8028737999266,483.8028980999952,483.8190209999448,483.8190209999448,483.8190209999448,,484.2537458000006,right,1.0,19.94102330005262,,,,,,,,,,,,,,,,,,,,,,,,,,,,,,sub-185,1.0,random_dot,60.20832076399135,
right,right,speed,,,,,0.0,1.0,1.0,1.0,6.0,0.0,12.0,1.0,484.2686262999196,,,,,,,,,484.2547066999832,485.0683119999012,485.86778729991056,485.851945500006,485.8519652999239,485.86778729991056,485.86778729991056,485.86778729991056,,486.68600989994593,left,0.0,20.31559320015367,,,,,,,,,,,,,,,,,,,,,,,,,,,,,,sub-185,1.0,random_dot,60.20832076399135,
left,left,speed,,,,,0.0,1.0,1.0,1.0,6.0,1.0,13.0,0.0,486.7004901999608,,,,,,,,,486.6869305999717,487.0499043000164,487.85000579990447,487.8339838999091,487.83400359994266,487.85000579990447,487.85000579990447,487.85000579990447,,488.2838465999812,right,0.0,19.93455690005794,,,,,,,,,,,,,,,,,,,,,,,,,,,,,,sub-185,1.0,random_dot,60.20832076399135,
left,left,speed,,,,,0.0,1.0,1.0,1.0,7.0,0.0,14.0,0.0,488.3000250000041,,,,,,,,,488.2848693999695,488.6495150999399,489.4498176999623,489.4330653999932,489.4330849999096,489.4498176999623,489.4498176999623,489.4498176999623,,490.483387599932,left,1.0,20.531532400054857,,,,,,,,,,,,,,,,,,,,,,,,,,,,,,sub-185,1.0,random_dot,60.20832076399135,
right,right,speed,,,,,0.0,1.0,1.0,1.0,7.0,1.0,15.0,1.0,490.4983513999032,,,,,,,,,490.4843164999038,490.8488026999403,491.64812559995335,491.6319947999437,491.6320187000092,491.64812559995335,491.64812559995335,491.64812559995335,,493.8352479999885,left,0.0,21.68544410006143,,,,,,,,,,,,,,,,,,,,,,,,,,,,,,sub-185,1.0,random_dot,60.20832076399135,
right,right,speed,,,,,0.0,1.0,1.0,1.0,8.0,0.0,16.0,1.0,493.8466054999735,,,,,,,,,493.8362407999812,494.19689519994427,494.9966568999225,494.9798537999159,494.9798742999556,494.9966568999225,494.9966568999225,494.9966568999225,,495.54730179999024,right,1.0,20.05452610005159,,,,,,,,,,,,,,,,,,,,,,,,,,,,,,sub-185,1.0,random_dot,60.20832076399135,
left,left,speed,,,,,0.0,1.0,1.0,1.0,8.0,1.0,17.0,0.0,495.5626910999417,,,,,,,,,495.5482226000168,496.362182199955,497.16236770001706,497.14541329990607,497.1454333999427,497.16236770001706,497.16236770001706,497.16236770001706,,497.697511699982,left,1.0,20.041607600054704,,,,,,,,,,,,,,,,,,,,,,,,,,,,,,sub-185,1.0,random_dot,60.20832076399135,
right,right,speed,,,,,0.0,1.0,1.0,1.0,9.0,0.0,18.0,1.0,497.71135619992856,,,,,,,,,497.6984539999394,498.0611522999825,498.8610015999293,498.8451708999928,498.84519089991227,498.8610015999293,498.8610015999293,498.8610015999293,,499.4796384999063,left,0.0,20.12496240006294,,,,,,,,,,,,,,,,,,,,,,,,,,,,,,sub-185,1.0,random_dot,60.20832076399135,
left,left,speed,,,,,0.0,1.0,1.0,1.0,9.0,1.0,19.0,0.0,499.4934932999313,,,,,,,,,499.4805839000037,500.2930034999736,501.0932531999424,501.076280899928,501.0763006999623,501.0932531999424,501.0932531999424,501.0932531999424,,501.6438391999109,right,0.0,20.04296960006468,,,,,,,,,,,,,,,,,,,,,,,,,,,,,,sub-185,1.0,random_dot,60.20832076399135,
right,right,speed,,,,,0.0,1.0,1.0,1.0,10.0,0.0,20.0,1.0,501.6596976999426,,,,,,,,,501.6447705000173,502.8587186000077,503.6587389999768,503.64240379992407,503.6424233999569,503.6587389999768,503.6587389999768,503.6587389999768,,504.2926847999916,left,0.0,20.13898880011402,,,,,,,,,,,,,,,,,,,,,,,,,,,,,,sub-185,1.0,random_dot,60.20832076399135,
left,left,speed,,,,,0.0,1.0,1.0,1.0,10.0,1.0,21.0,0.0,504.3074814999709,,,,,,,,,504.2936567999423,504.4080196999712,505.2077977999579,505.19148999999743,505.1915093999123,505.2077977999579,505.2077977999579,505.2077977999579,,506.5577900999924,left,1.0,20.84966190007981,,,,,,,,,,,,,,,,,,,,,,,,,,,,,,sub-185,1.0,random_dot,60.20832076399135,
left,left,speed,,,,,0.0,1.0,1.0,1.0,11.0,0.0,22.0,0.0,506.573119699955,,,,,,,,,506.5587116999086,507.7728936999338,508.5726998999016,508.55688729998656,508.556907299906,508.5726998999016,508.5726998999016,508.5726998999016,,509.2743911999278,left,1.0,20.202809400041588,,,,,,,,,,,,,,,,,,,,,,,,,,,,,,sub-185,1.0,random_dot,60.20832076399135,
right,right,speed,,,,,0.0,1.0,1.0,1.0,11.0,1.0,23.0,1.0,509.28865329991095,,,,,,,,,509.2752942999359,510.4876900999807,511.2883625999093,511.2716867999407,511.27170729998033,511.2883625999093,511.2883625999093,511.2883625999093,,511.9719580999808,right,1.0,20.188823099946603,,,,,,,,,,,,,,,,,,,,,,,,,,,,,,sub-185,1.0,random_dot,60.20832076399135,
left,left,speed,,,,,0.0,1.0,1.0,1.0,12.0,0.0,24.0,0.0,511.9873951999471,,,,,,,,,511.972900099936,513.1863827999914,513.9873648999492,513.9707071000012,513.9707271999214,513.9873648999492,513.9873648999492,513.9873648999492,,514.9537947999779,left,1.0,20.460095700109378,,,,,,,,,,,,,,,,,,,,,,,,,,,,,,sub-185,1.0,random_dot,60.20832076399135,
right,right,speed,,,,,0.0,1.0,1.0,1.0,12.0,1.0,25.0,1.0,514.968770599924,,,,,,,,,514.9547904999927,515.0521056000143,515.8522424999392,515.8358054999262,515.8358291999903,515.8522424999392,515.8522424999392,515.8522424999392,,517.3022222999716,right,1.0,20.942178199999034,,,,,,,,,,,,,,,,,,,,,,,,,,,,,,sub-185,1.0,random_dot,60.20832076399135,
right,right,speed,,,,,0.0,1.0,1.0,1.0,13.0,0.0,26.0,1.0,517.3174589999253,,,,,,,,,517.3036140999757,518.5171809999738,519.31726479996,519.3010482999962,519.3010727999499,519.31726479996,519.31726479996,519.31726479996,,519.967256099917,left,0.0,20.152924500056542,,,,,,,,,,,,,,,,,,,,,,,,,,,,,,sub-185,1.0,random_dot,60.20832076399135,
left,left,speed,,,,,0.0,1.0,1.0,1.0,13.0,1.0,27.0,0.0,519.9828605999937,,,,,,,,,519.9682511999272,520.0831236999948,520.8829611999681,520.8666172999656,520.8666370999999,520.8829611999681,520.8829611999681,520.8829611999681,,521.5336856999202,right,0.0,20.144435800029896,,,,,,,,,,,,,,,,,,,,,,,,,,,,,,sub-185,1.0,random_dot,60.20832076399135,
right,right,speed,,,,,0.0,1.0,1.0,1.0,14.0,0.0,28.0,1.0,521.5491219999967,,,,,,,,,521.534634099924,522.348717099987,523.1651969999075,523.1495368999895,523.1495599999325,523.1651969999075,523.1651969999075,523.1651969999075,,524.7820198999252,right,1.0,21.112565000075847,,,,,,,,,,,,,,,,,,,,,,,,,,,,,,sub-185,1.0,random_dot,60.20832076399135,
left,left,speed,,,,,0.0,1.0,1.0,1.0,14.0,1.0,29.0,0.0,524.7970903000096,,,,,,,,,524.7830380999949,525.5966676999815,526.3968630000018,526.3801057999954,526.3801254999125,526.3968630000018,526.3968630000018,526.3968630000018,,527.0812660999363,left,1.0,20.175771600101143,,,,,,,,,,,,,,,,,,,,,,,,,,,,,,sub-185,1.0,random_dot,60.20832076399135,
right,right,speed,,,,,0.0,1.0,1.0,1.0,15.0,0.0,30.0,1.0,527.0961584999459,,,,,,,,,527.0822858000174,527.445772600011,528.2457887999481,528.2295721999835,528.2295927999076,528.2457887999481,528.2457887999481,528.2457887999481,,530.9457483999431,right,1.0,22.196410500095222,,,,,,,,,,,,,,,,,,,,,,,,,,,,,,sub-185,1.0,random_dot,60.20832076399135,
left,left,speed,,,,,0.0,1.0,1.0,1.0,15.0,1.0,31.0,0.0,530.9603800999466,,,,,,,,,530.9468065999681,531.0610694999341,531.8605011999607,531.8444416999118,531.8444614999462,531.8605011999607,531.8605011999607,531.8605011999607,,533.1942420999985,left,1.0,20.833145900047384,,,,,,,,,,,,,,,,,,,,,,,,,,,,,,sub-185,1.0,random_dot,60.20832076399135,
left,left,speed,,,,,0.0,1.0,1.0,1.0,16.0,0.0,32.0,0.0,533.2093923999928,,,,,,,,,533.1951924999012,534.0094597999705,534.8098807999631,534.7926680999808,534.7926878000144,534.8098807999631,534.8098807999631,534.8098807999631,,536.393063699943,left,1.0,21.075695500010625,,,,,,,,,,,,,,,,,,,,,,,,,,,,,,sub-185,1.0,random_dot,60.20832076399135,
right,right,speed,,,,,0.0,1.0,1.0,1.0,16.0,1.0,33.0,1.0,536.4078734999057,,,,,,,,,536.393996699946,537.2081118999049,538.0071877000155,537.9913422999671,537.9913639000151,538.0071877000155,538.0071877000155,538.0071877000155,,539.3909306999994,right,1.0,20.886356000090014,,,,,,,,,,,,,,,,,,,,,,,,,,,,,,sub-185,1.0,random_dot,60.20832076399135,
right,right,speed,,,,,0.0,1.0,1.0,1.0,17.0,0.0,34.0,1.0,539.4064859999344,,,,,,,,,539.3918342000106,539.5062766999472,540.3063339999644,540.2897540999111,540.2897734999424,540.3063339999644,540.3063339999644,540.3063339999644,,542.607246599975,right,1.0,21.79315260006115,,,,,,,,,,,,,,,,,,,,,,,,,,,,,,sub-185,1.0,random_dot,60.20832076399135,
left,left,speed,,,,,0.0,1.0,1.0,1.0,17.0,1.0,35.0,0.0,542.6212823999813,,,,,,,,,542.6081620999612,542.7212206999538,543.5212135999463,543.5052213999443,543.5052453000098,543.5212135999463,543.5212135999463,543.5212135999463,,544.1718515999382,left,1.0,20.141874099965207,,,,,,,,,,,,,,,,,,,,,,,,,,,,,,sub-185,1.0,random_dot,60.20832076399135,
left,left,speed,,,,,0.0,1.0,1.0,1.0,18.0,0.0,36.0,0.0,544.1873370999238,,,,,,,,,544.1727984999306,544.9868618999608,545.7871585999383,545.7702361999545,545.7702560999896,545.7871585999383,545.7871585999383,545.7871585999383,,546.3372555999085,left,1.0,20.048209100030363,,,,,,,,,,,,,,,,,,,,,,,,,,,,,,sub-185,1.0,random_dot,60.20832076399135,
right,right,speed,,,,,0.0,1.0,1.0,1.0,18.0,1.0,37.0,1.0,546.3524728999473,,,,,,,,,546.3381893999176,547.5529822999379,548.3690428999253,548.3521643999266,548.3521843999624,548.3690428999253,548.3690428999253,548.3690428999253,,549.235846699914,right,1.0,20.36648550000973,,,,,,,,,,,,,,,,,,,,,,,,,,,,,,sub-185,1.0,random_dot,60.20832076399135,
right,right,speed,,,,,0.0,1.0,1.0,1.0,19.0,0.0,38.0,1.0,549.2507573999465,,,,,,,,,549.2367895999923,549.3508289000019,550.1508141999366,550.1345344999572,550.13455409999,550.1508141999366,550.1508141999366,550.1508141999366,,550.8686392999953,left,0.0,20.216853900114074,,,,,,,,,,,,,,,,,,,,,,,,,,,,,,sub-185,1.0,random_dot,60.20832076399135,
left,left,speed,,,,,0.0,1.0,1.0,1.0,19.0,1.0,39.0,0.0,550.8835271999706,,,,,,,,,550.8695750999032,550.9834887000034,551.7835107999854,551.7668910999782,551.7669114000164,551.7835107999854,551.7835107999854,551.7835107999854,,552.3341947000008,left,1.0,20.04924950003624,,,,,,,,,,,,,,,,,,,,,,,,,,,,,,sub-185,1.0,random_dot,60.20832076399135,
left,left,speed,,,,,0.0,1.0,1.0,1.0,20.0,0.0,40.0,0.0,552.3495233999565,,,,,,,,,552.3353153999196,552.6992181999376,553.5002215999411,553.4830891999882,553.4831077000126,553.5002215999411,553.5002215999411,553.5002215999411,,554.0165639999323,left,1.0,20.01915620011277,,,,,,,,,,,,,,,,,,,,,,,,,,,,,,sub-185,1.0,random_dot,60.20832076399135,
right,right,speed,,,,,0.0,1.0,1.0,1.0,20.0,1.0,41.0,1.0,554.0320200999267,,,,,,,,,554.0175331999781,554.1319610999199,554.9321277999552,554.9152451999253,554.9152646999573,554.9321277999552,554.9321277999552,554.9321277999552,,555.6155115999281,right,1.0,20.178669100045227,,,,,,,,,,,,,,,,,,,,,,,,,,,,,,sub-185,1.0,random_dot,60.20832076399135,
left,left,speed,,,,,0.0,1.0,1.0,1.0,21.0,0.0,42.0,0.0,555.6314223000081,,,,,,,,,555.616597599932,556.4143581999233,557.2144084000029,557.1977376999566,557.197757499991,557.2144084000029,557.2144084000029,557.2144084000029,,557.7032987999264,left,1.0,19.98256000003312,,,,,,,,,,,,,,,,,,,,,,,,,,,,,,sub-185,1.0,random_dot,60.20832076399135,
right,right,speed,,,,,0.0,1.0,1.0,1.0,21.0,1.0,43.0,1.0,557.7133498999756,,,,,,,,,557.7044022999471,558.0637418999104,558.8801740999334,558.863579900004,558.8636084999889,558.8801740999334,558.8801740999334,558.8801740999334,,559.447270500008,right,1.0,20.07241470005829,,,,,,,,,,,,,,,,,,,,,,,,,,,,,,sub-185,1.0,random_dot,60.20832076399135,
left,left,speed,,,,,0.0,1.0,1.0,1.0,22.0,0.0,44.0,0.0,559.4621407999657,,,,,,,,,559.4485370999901,560.2622437999817,561.0619296999648,561.04615379998,561.0461999999825,561.0619296999648,561.0619296999648,561.0619296999648,,561.6794252999825,left,1.0,20.1123998000985,,,,,,,,,,,,,,,,,,,,,,,,,,,,,,sub-185,1.0,random_dot,60.20832076399135,
right,right,speed,,,,,0.0,1.0,1.0,1.0,22.0,1.0,45.0,1.0,561.6945844999282,,,,,,,,,561.6803319999017,562.0449087999295,562.8612224999815,562.8447107999818,562.8447375999531,562.8612224999815,562.8612224999815,562.8612224999815,,563.5624868000159,right,1.0,20.207475200062618,,,,,,,,,,,,,,,,,,,,,,,,,,,,,,sub-185,1.0,random_dot,60.20832076399135,
right,right,speed,,,,,0.0,1.0,1.0,1.0,23.0,0.0,46.0,1.0,563.5768502999563,,,,,,,,,563.5634005999891,564.7760295999469,565.5765189999947,565.5598176999483,565.5598371999804,565.5765189999947,565.5765189999947,565.5765189999947,,566.177824699902,right,1.0,20.093897000071596,,,,,,,,,,,,,,,,,,,,,,,,,,,,,,sub-185,1.0,random_dot,60.20832076399135,
left,left,speed,,,,,0.0,1.0,1.0,1.0,23.0,1.0,47.0,0.0,566.1921923999907,,,,,,,,,566.1787595999194,566.5421688999049,567.3421305000084,567.325304399943,567.3253336999333,567.3421305000084,567.3421305000084,567.3421305000084,,567.9265863999026,left,1.0,20.088030300103128,,,,,,,,,,,,,,,,,,,,,,,,,,,,,,sub-185,1.0,random_dot,60.20832076399135,
left,left,speed,,,,,0.0,1.0,1.0,1.0,24.0,0.0,48.0,0.0,567.941654699971,,,,,,,,,567.9275216999231,568.2913561000023,569.0910811999347,569.076387399924,569.076429800014,569.0910811999347,569.0910811999347,569.0910811999347,,569.5596976999659,right,0.0,19.96518040006049,,,,,,,,,,,,,,,,,,,,,,,,,,,,,,sub-185,1.0,random_dot,60.20832076399135,
right,right,speed,,,,,0.0,1.0,1.0,1.0,24.0,1.0,49.0,1.0,569.5736681999406,,,,,,,,,569.5606217000168,569.6738919999916,570.4736577000003,570.4573228999507,570.4573464000132,570.4736577000003,570.4736577000003,570.4736577000003,,571.0578294999432,right,1.0,20.089553000056185,,,,,,,,,,,,,,,,,,,,,,,,,,,,,,sub-185,1.0,random_dot,60.20832076399135,
right,right,speed,,,,,0.0,1.0,1.0,1.0,25.0,0.0,50.0,1.0,571.0727188999299,,,,,,,,,571.0587521999842,571.4234292999608,572.2236035999376,572.2065623999806,572.2065854999237,572.2236035999376,572.2236035999376,572.2236035999376,,572.6910740999738,right,1.0,19.9592307000421,,,,,,,,,,,,,,,,,,,,,,,,,,,,,,sub-185,1.0,random_dot,60.20832076399135,
left,left,speed,,,,,0.0,1.0,1.0,1.0,25.0,1.0,51.0,0.0,572.7058425999712,,,,,,,,,572.6921304999851,573.0554208999965,573.8550078999251,573.838836299954,573.8388569999952,573.8550078999251,573.8550078999251,573.8550078999251,,574.2893639999675,left,1.0,19.929831700050272,,,,,,,,,,,,,,,,,,,,,,,,,,,,,,sub-185,1.0,random_dot,60.20832076399135,
left,left,speed,,,,,0.0,1.0,1.0,1.0,26.0,0.0,52.0,0.0,574.3048105000053,,,,,,,,,574.2902722000144,575.5043509999523,576.3039783999557,576.2891919999383,576.2892109999666,576.3039783999557,576.3039783999557,576.3039783999557,,576.9547927000094,right,0.0,20.150781600154005,,,,,,,,,,,,,,,,,,,,,,,,,,,,,,sub-185,1.0,random_dot,60.20832076399135,
right,right,speed,,,,,0.0,1.0,1.0,1.0,26.0,1.0,53.0,1.0,576.9695608000038,,,,,,,,,576.9558541999431,577.7697709999047,578.569756599958,578.5534924999811,578.5535122000147,578.569756599958,578.569756599958,578.569756599958,,579.1373501999769,right,1.0,20.06879720010329,,,,,,,,,,,,,,,,,,,,,,,,,,,,,,sub-185,1.0,random_dot,60.20832076399135,
right,right,speed,,,,,0.0,1.0,1.0,1.0,27.0,0.0,54.0,1.0,579.152404799941,,,,,,,,,579.1382638999494,580.3521749000065,581.1683611999033,581.1522783999098,581.152307500015,581.1683611999033,581.1683611999033,581.1683611999033,,581.9185336999362,right,1.0,20.24360990000423,,,,,,,,,,,,,,,,,,,,,,,,,,,,,,sub-185,1.0,random_dot,60.20832076399135,
left,left,speed,,,,,0.0,1.0,1.0,1.0,27.0,1.0,55.0,0.0,581.9343220000155,,,,,,,,,581.9194403999718,582.284146699938,583.0839073999086,583.0681281000143,583.0681519999634,583.0839073999086,583.0839073999086,583.0839073999086,,583.7350279999664,right,0.0,20.14488420006819,,,,,,,,,,,,,,,,,,,,,,,,,,,,,,sub-185,1.0,random_dot,60.20832076399135,
left,left,speed,,,,,0.0,1.0,1.0,1.0,28.0,0.0,56.0,0.0,583.7494639999932,,,,,,,,,583.7360658999532,583.8498811000027,584.6503025999991,584.6336150999414,584.633632699959,584.6503025999991,584.6503025999991,584.6503025999991,,585.2176662000129,right,0.0,20.062525699962865,,,,,,,,,,,,,,,,,,,,,,,,,,,,,,sub-185,1.0,random_dot,60.20832076399135,
right,right,speed,,,,,0.0,1.0,1.0,1.0,28.0,1.0,57.0,1.0,585.2322075999109,,,,,,,,,585.21856259997,585.3323871999746,586.1322414999595,586.1158775999211,586.1158970999531,586.1322414999595,586.1322414999595,586.1322414999595,,586.7667298999149,right,1.0,20.14037940010894,,,,,,,,,,,,,,,,,,,,,,,,,,,,,,sub-185,1.0,random_dot,60.20832076399135,
left,left,speed,,,,,0.0,1.0,1.0,1.0,29.0,0.0,58.0,0.0,586.7813916999148,,,,,,,,,586.7676701999735,586.8816296999576,587.6816487999167,587.6661357999546,587.6661590000149,587.6816487999167,587.6816487999167,587.6816487999167,,588.1323158999439,left,1.0,19.94153910013847,,,,,,,,,,,,,,,,,,,,,,,,,,,,,,sub-185,1.0,random_dot,60.20832076399135,
right,right,speed,,,,,0.0,1.0,1.0,1.0,29.0,1.0,59.0,1.0,588.1476295999018,,,,,,,,,588.1333845999325,589.3475850999821,590.1644362999359,590.1471244000131,590.1471438999288,590.1644362999359,590.1644362999359,590.1644362999359,,591.1642216999317,right,1.0,20.50490440009162,,,,,,,,,,,,,,,,,,,,,,,,,,,,,,sub-185,1.0,random_dot,60.20832076399135,
,,speed,,,,,0.0,1.0,1.0,1.0,,,,,,,,,,,,,,,,,,,,,,,,,,,,,,,,,,,,,,,,,,,,,,,,,,,,,,,,sub-185,1.0,random_dot,60.20832076399135,
,,,,,,,,,,,,,,,,,,,,,,,,,,,,,,,,,,,,,,,,,,,,,,,,,,,,,,,,,,,,,,,591.1649098999333,591.1790528999409,596.1768594000023,sub-185,,,,
