wordCTK,colorCTK,corrAnsCTK,congruentCTK,thisN,thisTrialN,thisRepN,keyResp_CTK.keys,keyResp_CTK.corr,keyResp_CTK.rt,keyResp_CTK.duration,wordPractice,colorPractice,corrAnsPractice,congruentPractice,respPractice.keys,respPractice.corr,respPractice.rt,respPractice.duration,word,color,corrAns,congruent,keyResp_test_run.keys,keyResp_test_run.corr,keyResp_test_run.rt,keyResp_test_run.duration,trials_CTK.thisRepN,trials_CTK.thisTrialN,trials_CTK.thisN,trials_CTK.thisIndex,trials_practice.thisRepN,trials_practice.thisTrialN,trials_practice.thisN,trials_practice.thisIndex,trials_test.thisRepN,trials_test.thisTrialN,trials_test.thisN,trials_test.thisIndex,thisRow.t,notes,instruction.started,instr_text.started,instr_image.started,instr_resp.started,instruction.stopped,instr_resp.keys,instr_resp.rt,instr_resp.duration,instr_color_to_key.started,instr_ctk.started,resp_ctk.started,instr_color_to_key.stopped,resp_ctk.keys,resp_ctk.rt,resp_ctk.duration,ITI.started,fixcross.started,fixcross.stopped,ITI.stopped,color_to_key_run.started,stimulus_CTK.started,keyResp_CTK.started,color_to_key_run.stopped,trials_CTK.keyResp_CTK.keys,trials_CTK.keyResp_CTK.corr,trials_CTK.keyResp_CTK.rt,trials_CTK.keyResp_CTK.duration,instr_practice.started,instr_practice_text.started,instr_practice_resp.started,instr_practice.stopped,instr_practice_resp.keys,instr_practice_resp.rt,instr_practice_resp.duration,practice_run.started,stimulus_practice.started,respPractice.started,practice_run.stopped,trials_practice.respPractice.keys,trials_practice.respPractice.corr,trials_practice.respPractice.rt,trials_practice.respPractice.duration,feedback.started,textFeedback.started,feedback.stopped,textFeedback.stopped,instr_test.started,instr_test_text.started,instr_test_resp.started,instr_test.stopped,instr_test_resp.keys,instr_test_resp.rt,instr_test_resp.duration,test_run.started,stimulus_test_run.started,keyResp_test_run.started,test_run.stopped,trials_test.keyResp_test_run.keys,trials_test.keyResp_test_run.corr,trials_test.keyResp_test_run.rt,trials_test.keyResp_test_run.duration,goodbye.started,textGoodbye.started,textGoodbye.stopped,goodbye.stopped,participant,session,expName,frameRate,Unnamed: 113
,,,,,,,,,,,,,,,,,,,,,,,,,,,,,,,,,,,,,,,,,0.0020887000719085,0.0721261000726372,0.0721261000726372,0.0721261000726372,61.24761950003449,space,61.08272499998566,,,,,,,,,,,,,,,,,,,,,,,,,,,,,,,,,,,,,,,,,,,,,,,,,,,,,,,,,,,sub-122,1,stroop_test,60.00920542631901,
,,,,,,,,,,,,,,,,,,,,,,,,,,,,,,,,,,,,,,,,,,,,,,,,,61.24767650000285,61.25303840008564,61.25303840008564,67.09321310010273,space,5.83345619996544,,,,,,,,,,,,,,,,,,,,,,,,,,,,,,,,,,,,,,,,,,,,,,,,,,,,sub-122,1,stroop_test,60.00920542631901,
test,red,r,1.0,0.0,0.0,0.0,r,1.0,1.9419591999612749,,,,,,,,,,,,,,,,,,0.0,0.0,0.0,0.0,,,,,,,,,67.16332960000727,,,,,,,,,,,,,,,,,67.1598409001017,68.29247910005506,69.09585969999898,69.07644299999811,69.0907247000141,69.09585969999898,69.09585969999898,71.04376030003186,r,1.0,1.9419591999612749,,,,,,,,,,,,,,,,,,,,,,,,,,,,,,,,,,,,,,,,sub-122,1,stroop_test,60.00920542631901,
test,blue,b,1.0,1.0,1.0,0.0,b,1.0,1.0779395999852568,,,,,,,,,,,,,,,,,,0.0,1.0,1.0,2.0,,,,,,,,,71.05925260006916,,,,,,,,,,,,,,,,,71.04435530002229,71.85918400005903,72.65943020000122,72.64327010000125,72.64391179999802,72.65943020000122,72.65943020000122,73.74285360006616,b,1.0,1.0779395999852568,,,,,,,,,,,,,,,,,,,,,,,,,,,,,,,,,,,,,,,,sub-122,1,stroop_test,60.00920542631901,
test,yellow,g,1.0,2.0,2.0,0.0,g,1.0,0.7594767999835312,,,,,,,,,,,,,,,,,,0.0,2.0,2.0,1.0,,,,,,,,,73.75912290008273,,,,,,,,,,,,,,,,,73.7435016001109,74.94259580003563,75.74280050001107,75.72662400000263,75.72734290000517,75.74280050001107,75.74280050001107,76.5099672001088,g,1.0,0.7594767999835312,,,,,,,,,,,,,,,,,,,,,,,,,,,,,,,,,,,,,,,,sub-122,1,stroop_test,60.00920542631901,
test,yellow,g,1.0,3.0,0.0,1.0,g,1.0,1.633683199994266,,,,,,,,,,,,,,,,,,1.0,0.0,3.0,1.0,,,,,,,,,76.52589550008997,,,,,,,,,,,,,,,,,76.51051940000616,76.60901000001468,77.40912440000102,77.39274950011168,77.39330980007071,77.40912440000102,77.40912440000102,79.06010640005115,g,1.0,1.633683199994266,,,,,,,,,,,,,,,,,,,,,,,,,,,,,,,,,,,,,,,,sub-122,1,stroop_test,60.00920542631901,
test,blue,b,1.0,4.0,1.0,1.0,b,1.0,0.5984214000636712,,,,,,,,,,,,,,,,,,1.0,1.0,4.0,2.0,,,,,,,,,79.07592240010854,,,,,,,,,,,,,,,,,79.06069170008413,79.85929809999652,80.65930340008345,80.64342980005313,80.64424390008207,80.65930340008345,80.65930340008345,81.26031090004835,b,1.0,0.5984214000636712,,,,,,,,,,,,,,,,,,,,,,,,,,,,,,,,,,,,,,,,sub-122,1,stroop_test,60.00920542631901,
test,red,r,1.0,5.0,2.0,1.0,r,1.0,0.9948793998919429,,,,,,,,,,,,,,,,,,1.0,2.0,5.0,0.0,,,,,,,,,81.27595930011012,,,,,,,,,,,,,,,,,81.26080310007092,82.076069700066,82.87623690010514,82.86013950000051,82.86131090007257,82.87623690010514,82.87623690010514,83.8765247000847,r,1.0,0.9948793998919429,,,,,,,,,,,,,,,,,,,,,,,,,,,,,,,,,,,,,,,,sub-122,1,stroop_test,60.00920542631901,
test,yellow,g,1.0,6.0,0.0,2.0,g,1.0,1.1425471000839025,,,,,,,,,,,,,,,,,,2.0,0.0,6.0,1.0,,,,,,,,,83.89307170000393,,,,,,,,,,,,,,,,,83.87703610002063,84.2258898,85.02611230011098,85.01000190002378,85.01065420010127,85.02611230011098,85.02611230011098,86.17663460003678,g,1.0,1.1425471000839025,,,,,,,,,,,,,,,,,,,,,,,,,,,,,,,,,,,,,,,,sub-122,1,stroop_test,60.00920542631901,
test,red,r,1.0,7.0,1.0,2.0,r,1.0,1.1675854999339208,,,,,,,,,,,,,,,,,,2.0,1.0,7.0,0.0,,,,,,,,,86.19271910004318,,,,,,,,,,,,,,,,,86.17729700007476,86.27613660006318,87.07602720009163,87.05990760005079,87.06051520002075,87.07602720009163,87.07602720009163,88.26002020004671,r,1.0,1.1675854999339208,,,,,,,,,,,,,,,,,,,,,,,,,,,,,,,,,,,,,,,,sub-122,1,stroop_test,60.00920542631901,
test,blue,b,1.0,8.0,2.0,2.0,b,1.0,0.8297634000191465,,,,,,,,,,,,,,,,,,2.0,2.0,8.0,2.0,,,,,,,,,88.27575670008082,,,,,,,,,,,,,,,,,88.26050680002663,88.35942810005508,89.15949200000614,89.1432648000773,89.14412500010803,89.15949200000614,89.15949200000614,89.99343920010142,b,1.0,0.8297634000191465,,,,,,,,,,,,,,,,,,,,,,,,,,,,,,,,,,,,,,,,sub-122,1,stroop_test,60.00920542631901,
test,yellow,g,1.0,9.0,0.0,3.0,g,1.0,2.035720300045796,,,,,,,,,,,,,,,,,,3.0,0.0,9.0,1.0,,,,,,,,,90.00931310001761,,,,,,,,,,,,,,,,,89.99390480003785,90.79283849999774,91.59295240009668,91.5768837000942,91.57762590004133,91.59295240009668,91.59295240009668,93.64355390006676,g,1.0,2.035720300045796,,,,,,,,,,,,,,,,,,,,,,,,,,,,,,,,,,,,,,,,sub-122,1,stroop_test,60.00920542631901,
test,blue,b,1.0,10.0,1.0,3.0,b,1.0,0.7130675999214873,,,,,,,,,,,,,,,,,,3.0,1.0,10.0,2.0,,,,,,,,,93.65954590006731,,,,,,,,,,,,,,,,,93.64410080004018,94.45915940008126,95.2595284000272,95.24340270005632,95.24409809999634,95.2595284000272,95.2595284000272,95.97655130003112,b,1.0,0.7130675999214873,,,,,,,,,,,,,,,,,,,,,,,,,,,,,,,,,,,,,,,,sub-122,1,stroop_test,60.00920542631901,
test,red,r,1.0,11.0,2.0,3.0,r,1.0,0.3718268999364227,,,,,,,,,,,,,,,,,,3.0,2.0,11.0,0.0,,,,,,,,,95.99266830005216,,,,,,,,,,,,,,,,,95.97712950001004,96.7762631000951,97.57591770007276,97.56027640006504,97.56099250004628,97.57591770007276,97.57591770007276,97.96026360010728,r,1.0,0.3718268999364227,,,,,,,,,,,,,,,,,,,,,,,,,,,,,,,,,,,,,,,,sub-122,1,stroop_test,60.00920542631901,
,,,,,,,,,,,,,,,,,,,,,,,,,,,,,,,,,,,,,,,,,,,,,,,,,,,,,,,,,,,,,,,,,,,,97.96050170005763,97.9763351000147,97.9763351000147,140.26092620007694,space,42.27124639996328,,,,,,,,,,,,,,,,,,,,,,,,,,,,,,,,,sub-122,1,stroop_test,60.00920542631901,
,,,,0.0,0.0,0.0,,,,,gelb,yellow,g,1.0,g,1.0,1.939745599986054,,,,,,,,,,,,,,0.0,0.0,0.0,10.0,,,,,140.31509130005725,,,,,,,,,,,,,,,,,140.31139100005385,141.0602540000109,141.86252439999953,141.84417710010894,,,,,,,,,,,,,,,,141.8570804001065,141.86252439999953,141.86252439999953,143.81090380006935,g,1.0,1.939745599986054,,143.82510220003314,143.831579000107,144.82732880010735,,,,,,,,,,,,,,,,,,,,,sub-122,1,stroop_test,60.00920542631901,
,,,,1.0,1.0,0.0,,,,,rot,blue,b,0.0,b,1.0,0.4655939999502152,,,,,,,,,,,,,,0.0,1.0,1.0,2.0,,,,,144.84353240008932,,,,,,,,,,,,,,,,,144.82780890003778,145.6103095000144,146.41033020010218,146.3943763000425,,,,,,,,,,,,,,,,146.40263210004196,146.41033020010218,146.41033020010218,146.87785100005567,b,1.0,0.4655939999502152,,146.87863600009587,146.89359350001905,147.8776046000421,147.89360050007235,,,,,,,,,,,,,,,,,,,,sub-122,1,stroop_test,60.00920542631901,
,,,,2.0,2.0,0.0,,,,,rot,yellow,g,0.0,g,1.0,0.5844032999593765,,,,,,,,,,,,,,0.0,2.0,2.0,3.0,,,,,147.89360050007235,,,,,,,,,,,,,,,,,147.87802150007337,148.67714780010283,149.4766647000797,149.46100690006278,,,,,,,,,,,,,,,,149.46170110011008,149.4766647000797,149.4766647000797,150.07779210002627,g,1.0,0.5844032999593765,,150.0784466000041,150.0936142000137,151.07767670007888,151.09334840008523,,,,,,,,,,,,,,,,,,,,sub-122,1,stroop_test,60.00920542631901,
,,,,3.0,3.0,0.0,,,,,blau,red,r,0.0,r,1.0,0.7622438999824226,,,,,,,,,,,,,,0.0,3.0,3.0,4.0,,,,,151.09334840008523,,,,,,,,,,,,,,,,,151.07812330010347,151.4271370000206,152.2269030000316,152.2109437000472,,,,,,,,,,,,,,,,152.22106390004046,152.2269030000316,152.2269030000316,152.99478190008085,r,1.0,0.7622438999824226,,152.99551650008652,153.01038380002137,153.994098000112,154.01036910002586,,,,,,,,,,,,,,,,,,,,sub-122,1,stroop_test,60.00920542631901,
,,,,4.0,4.0,0.0,,,,,gelb,blue,b,0.0,b,1.0,0.793027300038375,,,,,,,,,,,,,,0.0,4.0,4.0,9.0,,,,,154.01036910002586,,,,,,,,,,,,,,,,,153.9950203000335,154.1103680001106,154.91034140007105,154.89444800000638,,,,,,,,,,,,,,,,154.89998000010382,154.91034140007105,154.91034140007105,155.710987700033,b,1.0,0.793027300038375,,155.71169370005373,155.7271388000809,156.7107771000592,156.7271848000819,,,,,,,,,,,,,,,,,,,,sub-122,1,stroop_test,60.00920542631901,
,,,,5.0,5.0,0.0,,,,,gelb,yellow,g,1.0,g,1.0,0.6787605000426993,,,,,,,,,,,,,,0.0,5.0,5.0,11.0,,,,,156.7271848000819,,,,,,,,,,,,,,,,,156.71122580009978,156.81039540003985,157.6105952000944,157.594458400039,,,,,,,,,,,,,,,,157.59514580003452,157.6105952000944,157.6105952000944,158.29442990000825,g,1.0,0.6787605000426993,,158.29522910004016,158.31048760004342,159.29440800007433,159.31049010006245,,,,,,,,,,,,,,,,,,,,sub-122,1,stroop_test,60.00920542631901,
,,,,6.0,6.0,0.0,,,,,gelb,red,r,0.0,r,1.0,0.7194137999322265,,,,,,,,,,,,,,0.0,6.0,6.0,8.0,,,,,159.31049010006245,,,,,,,,,,,,,,,,,159.29489840008318,160.09391600009985,160.89396020001732,160.87782670010347,,,,,,,,,,,,,,,,160.87851940002292,160.89396020001732,160.89396020001732,161.62776600010693,r,1.0,0.7194137999322265,,161.62859340000432,161.6440676000202,162.62770050007384,162.6437815000536,,,,,,,,,,,,,,,,,,,,sub-122,1,stroop_test,60.00920542631901,
,,,,7.0,7.0,0.0,,,,,blau,blue,b,1.0,b,1.0,0.7851454999763519,,,,,,,,,,,,,,0.0,7.0,7.0,5.0,,,,,162.6437815000536,,,,,,,,,,,,,,,,,162.6281826000195,163.42731040006038,164.2273351000622,164.21128530008718,,,,,,,,,,,,,,,,164.21710910007823,164.2273351000622,164.2273351000622,165.0278113000095,b,1.0,0.7851454999763519,,165.02846490009688,165.04389750002883,166.02780290006194,166.04416830011178,,,,,,,,,,,,,,,,,,,,sub-122,1,stroop_test,60.00920542631901,
,,,,8.0,8.0,0.0,,,,,rot,red,r,1.0,r,1.0,0.7727842999156564,,,,,,,,,,,,,,0.0,8.0,8.0,1.0,,,,,166.04416830011178,,,,,,,,,,,,,,,,,166.02837330009788,166.82746440009214,167.62713410006836,167.611132799997,,,,,,,,,,,,,,,,167.6166561000282,167.62713410006836,167.62713410006836,168.41179680009373,r,1.0,0.7727842999156564,,168.41295610007364,168.4272089001024,169.41119460004847,169.4274878000142,,,,,,,,,,,,,,,,,,,,sub-122,1,stroop_test,60.00920542631901,
,,,,9.0,9.0,0.0,,,,,blau,yellow,g,0.0,g,1.0,0.514122899970971,,,,,,,,,,,,,,0.0,9.0,9.0,7.0,,,,,169.4274878000142,,,,,,,,,,,,,,,,,169.41183350002393,170.6274028000189,171.4274720000103,171.41153830010444,,,,,,,,,,,,,,,,171.4178795000771,171.4274720000103,171.4274720000103,171.94436780002434,g,1.0,0.514122899970971,,171.9450719000306,171.96064120007213,172.94459650001954,172.96063090011012,,,,,,,,,,,,,,,,,,,,sub-122,1,stroop_test,60.00920542631901,
,,,,10.0,10.0,0.0,,,,,rot,red,r,1.0,r,1.0,0.6888371000532061,,,,,,,,,,,,,,0.0,10.0,10.0,0.0,,,,,172.96063090011012,,,,,,,,,,,,,,,,,172.94508540001698,173.29393370007165,174.09406810009386,174.0779553001048,,,,,,,,,,,,,,,,174.08306220010854,174.09406810009386,174.09406810009386,174.79462990001775,r,1.0,0.6888371000532061,,174.79534280009102,174.81069920002483,175.794538200018,175.81063400011044,,,,,,,,,,,,,,,,,,,,sub-122,1,stroop_test,60.00920542631901,
,,,,11.0,11.0,0.0,,,,,blau,blue,b,1.0,b,1.0,0.4157359000528231,,,,,,,,,,,,,,0.0,11.0,11.0,6.0,,,,,175.81063400011044,,,,,,,,,,,,,,,,,175.79498040000908,176.9941286999965,177.79409660003148,177.7779751000926,,,,,,,,,,,,,,,,177.78439390007406,177.79409660003148,177.79409660003148,178.2116878000088,b,1.0,0.4157359000528231,,178.21240509999916,178.22704820008948,179.2113300000783,179.22742790007032,,,,,,,,,,,,,,,,,,,,sub-122,1,stroop_test,60.00920542631901,
,,,,12.0,0.0,1.0,,,,,gelb,red,r,0.0,r,1.0,0.8627838999964297,,,,,,,,,,,,,,1.0,0.0,12.0,8.0,,,,,179.22742790007032,,,,,,,,,,,,,,,,,179.2117719000671,179.32715900009498,180.1274926000042,180.11147890007123,,,,,,,,,,,,,,,,180.11689090006985,180.1274926000042,180.1274926000042,180.99518760002684,r,1.0,0.8627838999964297,,180.99590110010467,181.0107710000593,181.99469240009785,182.01077270007227,,,,,,,,,,,,,,,,,,,,sub-122,1,stroop_test,60.00920542631901,
,,,,13.0,1.0,1.0,,,,,blau,yellow,g,0.0,g,1.0,2.258879500092007,,,,,,,,,,,,,,1.0,1.0,13.0,7.0,,,,,182.01077270007227,,,,,,,,,,,,,,,,,181.9952786000213,183.21064120007213,184.0109286000952,183.9947972000809,,,,,,,,,,,,,,,,184.00130150001496,184.0109286000952,184.0109286000952,186.27766570006497,g,1.0,2.258879500092007,,186.27837990003167,186.29395650001243,187.2779539000476,,,,,,,,,,,,,,,,,,,,,sub-122,1,stroop_test,60.00920542631901,
,,,,14.0,2.0,1.0,,,,,blau,red,r,0.0,r,1.0,0.8692619000794366,,,,,,,,,,,,,,1.0,2.0,14.0,4.0,,,,,187.29414980008733,,,,,,,,,,,,,,,,,187.27846630010757,188.07758620008823,188.877976900083,188.86163440009116,,,,,,,,,,,,,,,,188.8623131000204,188.877976900083,188.877976900083,189.7616593000712,r,1.0,0.8692619000794366,,189.76243730005808,189.77754080004524,190.76139310002327,190.77755040000196,,,,,,,,,,,,,,,,,,,,sub-122,1,stroop_test,60.00920542631901,
,,,,15.0,3.0,1.0,,,,,gelb,blue,b,0.0,b,1.0,0.7603199000004679,,,,,,,,,,,,,,1.0,3.0,15.0,9.0,,,,,190.77755040000196,,,,,,,,,,,,,,,,,190.76180560002103,191.9610019000247,192.76105740002825,192.74510870000813,,,,,,,,,,,,,,,,192.7505788000999,192.76105740002825,192.76105740002825,193.5283709000796,b,1.0,0.7603199000004679,,193.5291546001099,193.54425900010392,194.5281774000032,194.54421770002227,,,,,,,,,,,,,,,,,,,,sub-122,1,stroop_test,60.00920542631901,
,,,,16.0,4.0,1.0,,,,,blau,blue,b,1.0,b,1.0,0.6003854000009596,,,,,,,,,,,,,,1.0,4.0,16.0,6.0,,,,,194.54421770002227,,,,,,,,,,,,,,,,,194.52865900006145,195.3276334000984,196.1275072999997,196.11150670005009,,,,,,,,,,,,,,,,196.1172421000665,196.1275072999997,196.1275072999997,196.7448470001109,b,1.0,0.6003854000009596,,196.74594770011024,196.760972200078,197.74483060010243,197.76105780003127,,,,,,,,,,,,,,,,,,,,sub-122,1,stroop_test,60.00920542631901,
,,,,17.0,5.0,1.0,,,,,gelb,yellow,g,1.0,g,1.0,0.7625375000061467,,,,,,,,,,,,,,1.0,5.0,17.0,10.0,,,,,197.76105780003127,,,,,,,,,,,,,,,,,197.7452498000348,197.84420990000945,198.64454490004573,198.6282638000557,,,,,,,,,,,,,,,,198.633535400033,198.64454490004573,198.64454490004573,199.4117909000488,g,1.0,0.7625375000061467,,199.41252970008645,199.4276754000457,200.4114743000828,200.4277751001064,,,,,,,,,,,,,,,,,,,,sub-122,1,stroop_test,60.00920542631901,
,,,,18.0,6.0,1.0,,,,,rot,blue,b,0.0,b,1.0,1.1262636000756174,,,,,,,,,,,,,,1.0,6.0,18.0,2.0,,,,,200.4277751001064,,,,,,,,,,,,,,,,,200.4119040000951,201.21111120004207,202.0113113000989,201.99527910002507,,,,,,,,,,,,,,,,202.001491800067,202.0113113000989,202.0113113000989,203.1449365000008,b,1.0,1.1262636000756174,,203.14570270001423,203.1609962000512,204.14498550002463,204.1611192000564,,,,,,,,,,,,,,,,,,,,sub-122,1,stroop_test,60.00920542631901,
,,,,19.0,7.0,1.0,,,,,blau,blue,b,1.0,b,1.0,0.6890805000439286,,,,,,,,,,,,,,1.0,7.0,19.0,5.0,,,,,204.1611192000564,,,,,,,,,,,,,,,,,204.1454619000433,204.9444383000955,205.74472780001813,205.728430600022,,,,,,,,,,,,,,,,205.73572720005177,205.74472780001813,205.74472780001813,206.4451927000191,b,1.0,0.6890805000439286,,206.4467322001001,206.46109170001,207.44504850008525,207.4612004000228,,,,,,,,,,,,,,,,,,,,sub-122,1,stroop_test,60.00920542631901,
,,,,20.0,8.0,1.0,,,,,rot,yellow,g,0.0,g,1.0,0.5655542999738827,,,,,,,,,,,,,,1.0,8.0,20.0,3.0,,,,,207.4612004000228,,,,,,,,,,,,,,,,,207.4455283000134,207.8112919999985,208.6112906000344,208.59530200005972,,,,,,,,,,,,,,,,208.6009227000177,208.6112906000344,208.6112906000344,209.17853430006653,g,1.0,0.5655542999738827,,209.179243599996,209.19457090005744,210.17845040000972,210.19449480006008,,,,,,,,,,,,,,,,,,,,sub-122,1,stroop_test,60.00920542631901,
,,,,21.0,9.0,1.0,,,,,gelb,yellow,g,1.0,g,1.0,0.5451395999407396,,,,,,,,,,,,,,1.0,9.0,21.0,11.0,,,,,210.19449480006008,,,,,,,,,,,,,,,,,210.1788997000549,210.5280098000076,211.3280138000846,211.31200670008548,,,,,,,,,,,,,,,,211.31738250004128,211.3280138000846,211.3280138000846,211.8786800000817,g,1.0,0.5451395999407396,,211.87937930005137,211.89451050001665,212.8783600000897,212.8945243000053,,,,,,,,,,,,,,,,,,,,sub-122,1,stroop_test,60.00920542631901,
,,,,22.0,10.0,1.0,,,,,rot,red,r,1.0,r,1.0,0.7076629999792203,,,,,,,,,,,,,,1.0,10.0,22.0,0.0,,,,,212.8945243000053,,,,,,,,,,,,,,,,,212.8788310000673,212.99446900002656,213.79465160006657,213.7784762000665,,,,,,,,,,,,,,,,213.78465889999643,213.79465160006657,213.79465160006657,214.51191270002164,r,1.0,0.7076629999792203,,214.51271780009847,214.52791699999943,215.51191420003303,215.5279994000448,,,,,,,,,,,,,,,,,,,,sub-122,1,stroop_test,60.00920542631901,
,,,,23.0,11.0,1.0,,,,,rot,red,r,1.0,r,1.0,1.4387089000083506,,,,,,,,,,,,,,1.0,11.0,23.0,1.0,,,,,215.5279994000448,,,,,,,,,,,,,,,,,215.51238670002203,215.61117820010983,216.4113645000616,216.39492030011024,,,,,,,,,,,,,,,,216.39558070001655,216.4113645000616,216.4113645000616,217.8624233000446,r,1.0,1.4387089000083506,,217.86312570003795,217.8778892999981,218.86176300002265,218.8780993000837,,,,,,,,,,,,,,,,,,,,sub-122,1,stroop_test,60.00920542631901,
,,,,,,,,,,,,,,,,,,,,,,,,,,,,,,,,,,,,,,,,,,,,,,,,,,,,,,,,,,,,,,,,,,,,,,,,,,,,,,,,,,,,,,,218.86193520005327,218.8780993000837,218.8780993000837,225.97849510004744,space,7.099754499970004,,,,,,,,,,,,,,sub-122,1,stroop_test,60.00920542631901,
,,,,0.0,0.0,0.0,,,,,,,,,,,,,rot,red,r,1.0,r,1.0,0.7206663000397384,,,,,,,,,,0.0,0.0,0.0,0.0,226.0434756000759,,,,,,,,,,,,,,,,,226.040055999998,226.7780894000316,227.5782205000287,227.56208930001597,,,,,,,,,,,,,,,,,,,,,,,,,,,,,,,,,,,227.56803690001837,227.5782205000287,227.5782205000287,228.31211700011045,r,1.0,0.7206663000397384,,,,,,sub-122,1,stroop_test,60.00920542631901,
,,,,1.0,1.0,0.0,,,,,,,,,,,,,blau,blue,b,1.0,b,1.0,1.3593628000235185,,,,,,,,,,0.0,1.0,1.0,5.0,228.3280795000028,,,,,,,,,,,,,,,,,228.3126604000572,228.41144180006813,229.21130100009032,229.1953878001077,,,,,,,,,,,,,,,,,,,,,,,,,,,,,,,,,,,229.2014182000421,229.21130100009032,229.21130100009032,230.57851890008897,b,1.0,1.3593628000235185,,,,,,sub-122,1,stroop_test,60.00920542631901,
,,,,2.0,2.0,0.0,,,,,,,,,,,,,blau,yellow,g,0.0,g,1.0,0.8172385999932885,,,,,,,,,,0.0,2.0,2.0,7.0,230.5947827000637,,,,,,,,,,,,,,,,,230.57901700004004,231.3782176000532,232.17820790002588,232.1620176000288,,,,,,,,,,,,,,,,,,,,,,,,,,,,,,,,,,,232.16274600010365,232.17820790002588,232.17820790002588,233.01225320005324,g,1.0,0.8172385999932885,,,,,,sub-122,1,stroop_test,60.00920542631901,
,,,,3.0,3.0,0.0,,,,,,,,,,,,,gelb,red,r,0.0,r,1.0,2.305647999979556,,,,,,,,,,0.0,3.0,3.0,8.0,233.02810980007047,,,,,,,,,,,,,,,,,233.012788400054,233.36156400002076,234.16150260006543,234.14549040002748,,,,,,,,,,,,,,,,,,,,,,,,,,,,,,,,,,,234.15119950007647,234.16150260006543,234.16150260006543,236.47884460003115,r,1.0,2.305647999979556,,,,,,sub-122,1,stroop_test,60.00920542631901,
,,,,4.0,4.0,0.0,,,,,,,,,,,,,rot,yellow,g,0.0,g,1.0,0.849457300035283,,,,,,,,,,0.0,4.0,4.0,3.0,236.4947572000092,,,,,,,,,,,,,,,,,236.47943870001475,237.6783225000836,238.47792590002064,238.46185850002803,,,,,,,,,,,,,,,,,,,,,,,,,,,,,,,,,,,238.46722370001956,238.47792590002064,238.47792590002064,239.3292916000355,g,1.0,0.849457300035283,,,,,,sub-122,1,stroop_test,60.00920542631901,
,,,,5.0,5.0,0.0,,,,,,,,,,,,,gelb,blue,b,0.0,b,1.0,1.0278809000737965,,,,,,,,,,0.0,5.0,5.0,9.0,239.34490620007276,,,,,,,,,,,,,,,,,239.3298192000948,239.6949868000811,240.49460590002127,240.47890560003,,,,,,,,,,,,,,,,,,,,,,,,,,,,,,,,,,,240.4842993000057,240.49460590002127,240.49460590002127,241.5289512000745,b,1.0,1.0278809000737965,,,,,,sub-122,1,stroop_test,60.00920542631901,
,,,,6.0,6.0,0.0,,,,,,,,,,,,,rot,red,r,1.0,r,1.0,0.6163011000026017,,,,,,,,,,0.0,6.0,6.0,1.0,241.5449174999958,,,,,,,,,,,,,,,,,241.529569300008,241.8782970000757,242.678234500112,242.6621265000431,,,,,,,,,,,,,,,,,,,,,,,,,,,,,,,,,,,242.66776610002853,242.678234500112,242.678234500112,243.296416600002,r,1.0,0.6163011000026017,,,,,,sub-122,1,stroop_test,60.00920542631901,
,,,,7.0,7.0,0.0,,,,,,,,,,,,,rot,blue,b,0.0,b,1.0,0.6060173000441864,,,,,,,,,,0.0,7.0,7.0,2.0,243.3114310000092,,,,,,,,,,,,,,,,,243.29693550011143,243.4116654000245,244.2116658000741,244.19558719999625,,,,,,,,,,,,,,,,,,,,,,,,,,,,,,,,,,,244.19624750001825,244.2116658000741,244.2116658000741,244.82899350009396,b,1.0,0.6060173000441864,,,,,,sub-122,1,stroop_test,60.00920542631901,
,,,,8.0,8.0,0.0,,,,,,,,,,,,,blau,red,r,0.0,r,1.0,4.117836499935947,,,,,,,,,,0.0,8.0,8.0,4.0,244.84494460001588,,,,,,,,,,,,,,,,,244.82958280004092,245.62841980007943,246.4281952000456,246.41213840001728,,,,,,,,,,,,,,,,,,,,,,,,,,,,,,,,,,,246.41805560002103,246.4281952000456,246.4281952000456,250.5622074001003,r,1.0,4.117836499935947,,,,,,sub-122,1,stroop_test,60.00920542631901,
,,,,9.0,9.0,0.0,,,,,,,,,,,,,gelb,yellow,g,1.0,g,1.0,0.6000762999756262,,,,,,,,,,0.0,9.0,9.0,10.0,250.5783757000463,,,,,,,,,,,,,,,,,250.56271880003624,251.361493500066,252.1613666000776,252.14583510009103,,,,,,,,,,,,,,,,,,,,,,,,,,,,,,,,,,,252.1527153000934,252.1613666000776,252.1613666000776,252.7623231000034,g,1.0,0.6000762999756262,,,,,,sub-122,1,stroop_test,60.00920542631901,
,,,,10.0,10.0,0.0,,,,,,,,,,,,,gelb,yellow,g,1.0,g,1.0,3.9801356999669215,,,,,,,,,,0.0,10.0,10.0,11.0,252.7780061000958,,,,,,,,,,,,,,,,,252.762848900049,252.86171720002312,253.66172040009403,253.64560440008063,,,,,,,,,,,,,,,,,,,,,,,,,,,,,,,,,,,253.6463475000346,253.66172040009403,253.66172040009403,257.6457272000844,g,1.0,3.9801356999669215,,,,,,sub-122,1,stroop_test,60.00920542631901,
,,,,11.0,11.0,0.0,,,,,,,,,,,,,blau,blue,b,1.0,b,1.0,0.5948470999719575,,,,,,,,,,0.0,11.0,11.0,6.0,257.6618755001109,,,,,,,,,,,,,,,,,257.64646900002845,258.84523060009815,259.64533520000987,259.62909500009846,,,,,,,,,,,,,,,,,,,,,,,,,,,,,,,,,,,259.63440300000366,259.64533520000987,259.64533520000987,260.245970100048,b,1.0,0.5948470999719575,,,,,,sub-122,1,stroop_test,60.00920542631901,
,,,,12.0,0.0,1.0,,,,,,,,,,,,,blau,blue,b,1.0,b,1.0,1.64124239992816,,,,,,,,,,1.0,0.0,12.0,5.0,260.2619269000133,,,,,,,,,,,,,,,,,260.2465799000347,260.5950181001099,261.39523000002373,261.37910930009093,,,,,,,,,,,,,,,,,,,,,,,,,,,,,,,,,,,261.3797577000223,261.39523000002373,261.39523000002373,263.0459651000565,b,1.0,1.64124239992816,,,,,,sub-122,1,stroop_test,60.00920542631901,
,,,,13.0,1.0,1.0,,,,,,,,,,,,,gelb,yellow,g,1.0,g,1.0,0.8911914000054821,,,,,,,,,,1.0,1.0,13.0,10.0,263.06187610002235,,,,,,,,,,,,,,,,,263.04648940009065,263.8453008000506,264.6454632000532,264.62942820007447,,,,,,,,,,,,,,,,,,,,,,,,,,,,,,,,,,,264.636472400045,264.6454632000532,264.6454632000532,265.54598100006115,g,1.0,0.8911914000054821,,,,,,sub-122,1,stroop_test,60.00920542631901,
,,,,14.0,2.0,1.0,,,,,,,,,,,,,rot,yellow,g,0.0,r,0.0,0.6690615999978036,,,,,,,,,,1.0,2.0,14.0,3.0,265.56194470007904,,,,,,,,,,,,,,,,,265.54651210003067,265.8953475001035,266.69547670008615,266.6792330000317,,,,,,,,,,,,,,,,,,,,,,,,,,,,,,,,,,,266.68654100003187,266.69547670008615,266.69547670008615,267.3786377001088,r,0.0,0.6690615999978036,,,,,,sub-122,1,stroop_test,60.00920542631901,
,,,,15.0,3.0,1.0,,,,,,,,,,,,,gelb,yellow,g,1.0,g,1.0,5.026191899902187,,,,,,,,,,1.0,3.0,15.0,11.0,267.39526720007416,,,,,,,,,,,,,,,,,267.37915400008205,268.1784228000324,268.97844590002205,268.96229030005634,,,,,,,,,,,,,,,,,,,,,,,,,,,,,,,,,,,268.9670738000423,268.97844590002205,268.97844590002205,274.0130191000644,g,1.0,5.026191899902187,,,,,,sub-122,1,stroop_test,60.00920542631901,
,,,,16.0,4.0,1.0,,,,,,,,,,,,,rot,red,r,1.0,r,1.0,0.7059005000628531,,,,,,,,,,1.0,4.0,16.0,1.0,274.0285484000342,,,,,,,,,,,,,,,,,274.01367490005214,274.82877480005845,275.6287760999985,275.6126303001074,,,,,,,,,,,,,,,,,,,,,,,,,,,,,,,,,,,275.6178646000335,275.6287760999985,275.6287760999985,276.34616509999614,r,1.0,0.7059005000628531,,,,,,sub-122,1,stroop_test,60.00920542631901,
,,,,17.0,5.0,1.0,,,,,,,,,,,,,blau,blue,b,1.0,b,1.0,1.2995844000251964,,,,,,,,,,1.0,5.0,17.0,6.0,276.3620611000806,,,,,,,,,,,,,,,,,276.3467412000755,277.5454475000733,278.3456186000258,278.3294934000587,,,,,,,,,,,,,,,,,,,,,,,,,,,,,,,,,,,278.33552650001366,278.3456186000258,278.3456186000258,279.6460770000704,b,1.0,1.2995844000251964,,,,,,sub-122,1,stroop_test,60.00920542631901,
,,,,18.0,6.0,1.0,,,,,,,,,,,,,blau,red,r,0.0,r,1.0,1.9966601999476552,,,,,,,,,,1.0,6.0,18.0,4.0,279.66215660003945,,,,,,,,,,,,,,,,,279.6466239000438,280.845549800084,281.6456185000716,281.6295999001013,,,,,,,,,,,,,,,,,,,,,,,,,,,,,,,,,,,281.6303543000249,281.6456185000716,281.6456185000716,283.6463369000703,r,1.0,1.9966601999476552,,,,,,sub-122,1,stroop_test,60.00920542631901,
,,,,19.0,7.0,1.0,,,,,,,,,,,,,rot,red,r,1.0,r,1.0,0.9924353000242264,,,,,,,,,,1.0,7.0,19.0,0.0,283.662154700025,,,,,,,,,,,,,,,,,283.64693520008586,284.44566990004387,285.2455311000813,285.2319842000725,,,,,,,,,,,,,,,,,,,,,,,,,,,,,,,,,,,285.2380747999996,285.2455311000813,285.2455311000813,286.2462076001102,r,1.0,0.9924353000242264,,,,,,sub-122,1,stroop_test,60.00920542631901,
,,,,20.0,8.0,1.0,,,,,,,,,,,,,gelb,red,r,0.0,r,1.0,1.4189823999768123,,,,,,,,,,1.0,8.0,20.0,8.0,286.2622685000533,,,,,,,,,,,,,,,,,286.2468255000422,287.44561360008083,288.24567630002275,288.2296838000184,,,,,,,,,,,,,,,,,,,,,,,,,,,,,,,,,,,288.2351199000841,288.24567630002275,288.24567630002275,289.67943100002594,r,1.0,1.4189823999768123,,,,,,sub-122,1,stroop_test,60.00920542631901,
,,,,21.0,9.0,1.0,,,,,,,,,,,,,rot,blue,b,0.0,b,1.0,1.315466500003822,,,,,,,,,,1.0,9.0,21.0,2.0,289.6954851000337,,,,,,,,,,,,,,,,,289.67996010009665,290.47902860003524,291.2791337000672,291.2630270000081,,,,,,,,,,,,,,,,,,,,,,,,,,,,,,,,,,,291.2687342000427,291.2791337000672,291.2791337000672,292.59613710001577,b,1.0,1.315466500003822,,,,,,sub-122,1,stroop_test,60.00920542631901,
,,,,22.0,10.0,1.0,,,,,,,,,,,,,gelb,blue,b,0.0,b,1.0,1.4799781000474468,,,,,,,,,,1.0,10.0,22.0,9.0,292.61235020007007,,,,,,,,,,,,,,,,,292.5966840001056,293.79566480009817,294.59569090011064,294.5797553000739,,,,,,,,,,,,,,,,,,,,,,,,,,,,,,,,,,,294.5852855000412,294.59569090011064,294.59569090011064,296.079608,b,1.0,1.4799781000474468,,,,,,sub-122,1,stroop_test,60.00920542631901,
,,,,23.0,11.0,1.0,,,,,,,,,,,,,blau,yellow,g,0.0,g,1.0,0.8844477999955416,,,,,,,,,,1.0,11.0,23.0,7.0,296.095759900054,,,,,,,,,,,,,,,,,296.0801389000844,296.1789952000836,296.97901640005875,296.96304729999974,,,,,,,,,,,,,,,,,,,,,,,,,,,,,,,,,,,296.9693409000756,296.97901640005875,296.97901640005875,297.8798384000547,g,1.0,0.8844477999955416,,,,,,sub-122,1,stroop_test,60.00920542631901,
,,,,24.0,0.0,2.0,,,,,,,,,,,,,gelb,yellow,g,1.0,g,1.0,0.7246385000180453,,,,,,,,,,2.0,0.0,24.0,11.0,297.8957390000578,,,,,,,,,,,,,,,,,297.8803647001041,298.228739000042,299.02891180000734,299.01276340009645,,,,,,,,,,,,,,,,,,,,,,,,,,,,,,,,,,,299.0193465000484,299.02891180000734,299.02891180000734,299.7631992000388,g,1.0,0.7246385000180453,,,,,,sub-122,1,stroop_test,60.00920542631901,
,,,,25.0,1.0,2.0,,,,,,,,,,,,,gelb,blue,b,0.0,b,1.0,0.4879430000437423,,,,,,,,,,2.0,1.0,25.0,9.0,299.779098900035,,,,,,,,,,,,,,,,,299.76377890002914,300.11246900004335,300.9126137000276,300.89646560000256,,,,,,,,,,,,,,,,,,,,,,,,,,,,,,,,,,,300.89725220005494,300.9126137000276,300.9126137000276,301.41368930006865,b,1.0,0.4879430000437423,,,,,,sub-122,1,stroop_test,60.00920542631901,
,,,,26.0,2.0,2.0,,,,,,,,,,,,,rot,red,r,1.0,r,1.0,0.4343386000255123,,,,,,,,,,2.0,2.0,26.0,0.0,301.4290761000011,,,,,,,,,,,,,,,,,301.4142434000969,302.2291720000794,303.0291326000588,303.01311060006265,,,,,,,,,,,,,,,,,,,,,,,,,,,,,,,,,,,303.0185512000462,303.0291326000588,303.0291326000588,303.47972709999885,r,1.0,0.4343386000255123,,,,,,sub-122,1,stroop_test,60.00920542631901,
,,,,27.0,3.0,2.0,,,,,,,,,,,,,blau,red,r,0.0,r,1.0,0.4455895000137388,,,,,,,,,,2.0,3.0,27.0,4.0,303.4958232000936,,,,,,,,,,,,,,,,,303.48026060010307,304.6791796000907,305.4793605000013,305.46318260009866,,,,,,,,,,,,,,,,,,,,,,,,,,,,,,,,,,,305.4696600000607,305.4793605000013,305.4793605000013,305.9298630000558,r,1.0,0.4455895000137388,,,,,,sub-122,1,stroop_test,60.00920542631901,
,,,,28.0,4.0,2.0,,,,,,,,,,,,,blau,blue,b,1.0,b,1.0,0.6530191000783816,,,,,,,,,,2.0,4.0,28.0,6.0,305.9458487000084,,,,,,,,,,,,,,,,,305.93038850009907,307.1291670000646,307.9293113000458,307.91315170004964,,,,,,,,,,,,,,,,,,,,,,,,,,,,,,,,,,,307.91392890003044,307.9293113000458,307.9293113000458,308.5966677000979,b,1.0,0.6530191000783816,,,,,,sub-122,1,stroop_test,60.00920542631901,
,,,,29.0,5.0,2.0,,,,,,,,,,,,,gelb,red,r,0.0,r,1.0,1.4174651999492198,,,,,,,,,,2.0,5.0,29.0,8.0,308.6125113000162,,,,,,,,,,,,,,,,,308.5972165000858,309.8125510000391,310.6126060000388,310.59650560002774,,,,,,,,,,,,,,,,,,,,,,,,,,,,,,,,,,,310.6019111000933,310.6126060000388,310.6126060000388,312.04641750000883,r,1.0,1.4174651999492198,,,,,,sub-122,1,stroop_test,60.00920542631901,
,,,,30.0,6.0,2.0,,,,,,,,,,,,,rot,blue,b,0.0,b,1.0,0.8999785999767482,,,,,,,,,,2.0,6.0,30.0,2.0,312.062634000089,,,,,,,,,,,,,,,,,312.047009000089,312.14570860005915,312.9457400999963,312.92957220005337,,,,,,,,,,,,,,,,,,,,,,,,,,,,,,,,,,,312.93521010002587,312.9457400999963,312.9457400999963,313.8463591000764,b,1.0,0.8999785999767482,,,,,,sub-122,1,stroop_test,60.00920542631901,
,,,,31.0,7.0,2.0,,,,,,,,,,,,,gelb,yellow,g,1.0,g,1.0,0.6783828000770882,,,,,,,,,,2.0,7.0,31.0,10.0,313.8626306001097,,,,,,,,,,,,,,,,,313.84686700010207,313.94598580000456,314.7459284000797,314.7298652000027,,,,,,,,,,,,,,,,,,,,,,,,,,,,,,,,,,,314.7354619000107,314.7459284000797,314.7459284000797,315.4299907000968,g,1.0,0.6783828000770882,,,,,,sub-122,1,stroop_test,60.00920542631901,
,,,,32.0,8.0,2.0,,,,,,,,,,,,,rot,red,r,1.0,r,1.0,0.7928183000767604,,,,,,,,,,2.0,8.0,32.0,1.0,315.44533880008385,,,,,,,,,,,,,,,,,315.4305071000708,315.7792440000921,316.5793760000961,316.5629748000065,,,,,,,,,,,,,,,,,,,,,,,,,,,,,,,,,,,316.5678940000944,316.5793760000961,316.5793760000961,317.38006520003546,r,1.0,0.7928183000767604,,,,,,sub-122,1,stroop_test,60.00920542631901,
,,,,33.0,9.0,2.0,,,,,,,,,,,,,rot,yellow,g,0.0,g,1.0,0.9789705999428406,,,,,,,,,,2.0,9.0,33.0,3.0,317.3960622000741,,,,,,,,,,,,,,,,,317.3805817000102,317.72933460003696,318.5291060000891,318.5130538000958,,,,,,,,,,,,,,,,,,,,,,,,,,,,,,,,,,,318.5137418000959,318.5291060000891,318.5291060000891,319.51335400005337,g,1.0,0.9789705999428406,,,,,,sub-122,1,stroop_test,60.00920542631901,
,,,,34.0,10.0,2.0,,,,,,,,,,,,,blau,blue,b,1.0,b,1.0,1.0363862999947742,,,,,,,,,,2.0,10.0,34.0,5.0,319.52931100002024,,,,,,,,,,,,,,,,,319.51389740000013,319.86277400003746,320.6628046000842,320.6466138000833,,,,,,,,,,,,,,,,,,,,,,,,,,,,,,,,,,,320.65286780009046,320.6628046000842,320.6628046000842,321.713206000044,b,1.0,1.0363862999947742,,,,,,sub-122,1,stroop_test,60.00920542631901,
,,,,35.0,11.0,2.0,,,,,,,,,,,,,blau,yellow,g,0.0,g,1.0,1.7849635999882594,,,,,,,,,,2.0,11.0,35.0,7.0,321.72942550003063,,,,,,,,,,,,,,,,,321.7138127000071,322.06282380002085,322.8628691000631,322.8466191000771,,,,,,,,,,,,,,,,,,,,,,,,,,,,,,,,,,,322.8474339001113,322.8628691000631,322.8628691000631,324.6631433001021,g,1.0,1.7849635999882594,,,,,,sub-122,1,stroop_test,60.00920542631901,
,,,,36.0,0.0,3.0,,,,,,,,,,,,,rot,yellow,g,0.0,g,1.0,2.398546200012788,,,,,,,,,,3.0,0.0,36.0,3.0,324.6794202000601,,,,,,,,,,,,,,,,,324.6636874000542,325.462768800091,326.2629976000171,326.2468329000985,,,,,,,,,,,,,,,,,,,,,,,,,,,,,,,,,,,326.2533047000179,326.2629976000171,326.2629976000171,328.6634423000505,g,1.0,2.398546200012788,,,,,,sub-122,1,stroop_test,60.00920542631901,
,,,,37.0,1.0,3.0,,,,,,,,,,,,,blau,blue,b,1.0,b,1.0,0.6964170000283048,,,,,,,,,,3.0,1.0,37.0,5.0,328.6794760000193,,,,,,,,,,,,,,,,,328.6639847001061,329.46264010004234,330.2628743000096,330.2469064000761,,,,,,,,,,,,,,,,,,,,,,,,,,,,,,,,,,,330.2530215000734,330.2628743000096,330.2628743000096,330.96349990007,b,1.0,0.6964170000283048,,,,,,sub-122,1,stroop_test,60.00920542631901,
,,,,38.0,2.0,3.0,,,,,,,,,,,,,rot,blue,b,0.0,b,1.0,1.8825058999937028,,,,,,,,,,3.0,2.0,38.0,2.0,330.97950960008893,,,,,,,,,,,,,,,,,330.9640549001051,331.7628799000522,332.56311310001183,332.5468911000062,,,,,,,,,,,,,,,,,,,,,,,,,,,,,,,,,,,332.5521018001018,332.56311310001183,332.56311310001183,334.4468417000025,b,1.0,1.8825058999937028,,,,,,sub-122,1,stroop_test,60.00920542631901,
,,,,39.0,3.0,3.0,,,,,,,,,,,,,blau,blue,b,1.0,b,1.0,0.5437551999930292,,,,,,,,,,3.0,3.0,39.0,6.0,334.4627783000469,,,,,,,,,,,,,,,,,334.4473081000615,335.64638410008047,336.4464061000617,336.4303367000539,,,,,,,,,,,,,,,,,,,,,,,,,,,,,,,,,,,336.43618580000475,336.4464061000617,336.4464061000617,336.99695500009693,b,1.0,0.5437551999930292,,,,,,sub-122,1,stroop_test,60.00920542631901,
,,,,40.0,4.0,3.0,,,,,,,,,,,,,gelb,yellow,g,1.0,g,1.0,0.5654203000012785,,,,,,,,,,3.0,4.0,40.0,11.0,337.01291859999765,,,,,,,,,,,,,,,,,336.99747160007246,338.2129907000344,339.01336620002985,338.997036100016,,,,,,,,,,,,,,,,,,,,,,,,,,,,,,,,,,,339.00313560001086,339.01336620002985,339.01336620002985,339.58062180003617,g,1.0,0.5654203000012785,,,,,,sub-122,1,stroop_test,60.00920542631901,
,,,,41.0,5.0,3.0,,,,,,,,,,,,,rot,red,r,1.0,r,1.0,0.5423135999590158,,,,,,,,,,3.0,5.0,41.0,1.0,339.5962946000509,,,,,,,,,,,,,,,,,339.5811423000414,340.79631710005924,341.59641530003864,341.5803255001083,,,,,,,,,,,,,,,,,,,,,,,,,,,,,,,,,,,341.5858606999973,341.59641530003864,341.59641530003864,342.147009300068,r,1.0,0.5423135999590158,,,,,,sub-122,1,stroop_test,60.00920542631901,
,,,,42.0,6.0,3.0,,,,,,,,,,,,,blau,yellow,g,0.0,g,1.0,0.7054622999858111,,,,,,,,,,3.0,6.0,42.0,7.0,342.1638403000543,,,,,,,,,,,,,,,,,342.1476034000516,342.2463732000906,343.04660630004946,343.03052130003925,,,,,,,,,,,,,,,,,,,,,,,,,,,,,,,,,,,343.0369396000169,343.04660630004946,343.04660630004946,343.76427050004713,g,1.0,0.7054622999858111,,,,,,sub-122,1,stroop_test,60.00920542631901,
,,,,43.0,7.0,3.0,,,,,,,,,,,,,gelb,red,r,0.0,r,1.0,0.8574885000707582,,,,,,,,,,3.0,7.0,43.0,8.0,343.779807300074,,,,,,,,,,,,,,,,,343.7649423000403,344.5797829000512,345.37970640009735,345.3636606000364,,,,,,,,,,,,,,,,,,,,,,,,,,,,,,,,,,,345.36898760008626,345.37970640009735,345.37970640009735,346.247448900016,r,1.0,0.8574885000707582,,,,,,sub-122,1,stroop_test,60.00920542631901,
,,,,44.0,8.0,3.0,,,,,,,,,,,,,rot,red,r,1.0,r,1.0,0.7199575999984518,,,,,,,,,,3.0,8.0,44.0,0.0,346.2628714001039,,,,,,,,,,,,,,,,,346.2480293000117,347.06312110007275,347.86310570000205,347.84711690002587,,,,,,,,,,,,,,,,,,,,,,,,,,,,,,,,,,,347.8527283000294,347.86310570000205,347.86310570000205,348.5971355000511,r,1.0,0.7199575999984518,,,,,,sub-122,1,stroop_test,60.00920542631901,
,,,,45.0,9.0,3.0,,,,,,,,,,,,,blau,red,r,0.0,r,1.0,1.1446206000400707,,,,,,,,,,3.0,9.0,45.0,4.0,348.6131579000503,,,,,,,,,,,,,,,,,348.5982578000985,348.9464339000406,349.74647400004324,349.73046990006696,,,,,,,,,,,,,,,,,,,,,,,,,,,,,,,,,,,349.7371128000086,349.74647400004324,349.74647400004324,350.8971899000462,r,1.0,1.1446206000400707,,,,,,sub-122,1,stroop_test,60.00920542631901,
,,,,46.0,10.0,3.0,,,,,,,,,,,,,gelb,blue,b,0.0,b,1.0,0.6580786000704393,,,,,,,,,,3.0,10.0,46.0,9.0,350.9132240000181,,,,,,,,,,,,,,,,,350.8977268000599,351.69660840008873,352.4967582001118,352.48045440006536,,,,,,,,,,,,,,,,,,,,,,,,,,,,,,,,,,,352.4867126001045,352.4967582001118,352.4967582001118,353.164013300091,b,1.0,0.6580786000704393,,,,,,sub-122,1,stroop_test,60.00920542631901,
,,,,47.0,11.0,3.0,,,,,,,,,,,,,gelb,yellow,g,1.0,g,1.0,1.2809757000068205,,,,,,,,,,3.0,11.0,47.0,10.0,353.1798056000844,,,,,,,,,,,,,,,,,353.164594400092,353.5134158000583,354.3131825000746,354.29708060005214,,,,,,,,,,,,,,,,,,,,,,,,,,,,,,,,,,,354.2978215001058,354.3131825000746,354.3131825000746,355.59691429999657,g,1.0,1.2809757000068205,,,,,,sub-122,1,stroop_test,60.00920542631901,
,,,,48.0,0.0,4.0,,,,,,,,,,,,,gelb,blue,b,0.0,b,1.0,1.3735913999844342,,,,,,,,,,4.0,0.0,48.0,9.0,355.6132093000924,,,,,,,,,,,,,,,,,355.5974330001045,356.79624260007404,357.59660370007623,357.580447900109,,,,,,,,,,,,,,,,,,,,,,,,,,,,,,,,,,,357.58105570008047,357.59660370007623,357.59660370007623,358.9811220000265,b,1.0,1.3735913999844342,,,,,,sub-122,1,stroop_test,60.00920542631901,
,,,,49.0,1.0,4.0,,,,,,,,,,,,,blau,blue,b,1.0,b,1.0,0.6248957000207156,,,,,,,,,,4.0,1.0,49.0,5.0,358.9966876000399,,,,,,,,,,,,,,,,,358.9816592000425,359.0965970000252,359.8965987000847,359.88055920007173,,,,,,,,,,,,,,,,,,,,,,,,,,,,,,,,,,,359.88696180004627,359.8965987000847,359.8965987000847,360.5306398000103,b,1.0,0.6248957000207156,,,,,,sub-122,1,stroop_test,60.00920542631901,
,,,,50.0,2.0,4.0,,,,,,,,,,,,,gelb,yellow,g,1.0,g,1.0,0.78475910006091,,,,,,,,,,4.0,2.0,50.0,10.0,360.5466321000131,,,,,,,,,,,,,,,,,360.5311537000816,361.7299946000567,362.5300101001049,362.5139161000261,,,,,,,,,,,,,,,,,,,,,,,,,,,,,,,,,,,362.5193915000418,362.5300101001049,362.5300101001049,363.3307070001029,g,1.0,0.78475910006091,,,,,,sub-122,1,stroop_test,60.00920542631901,
,,,,51.0,3.0,4.0,,,,,,,,,,,,,blau,red,r,0.0,r,1.0,0.6728746000444517,,,,,,,,,,4.0,3.0,51.0,4.0,363.3466458000476,,,,,,,,,,,,,,,,,363.3312417000998,363.680048600072,364.480047200108,364.46385450009257,,,,,,,,,,,,,,,,,,,,,,,,,,,,,,,,,,,364.4707587000448,364.480047200108,364.480047200108,365.1635024000425,r,1.0,0.6728746000444517,,,,,,sub-122,1,stroop_test,60.00920542631901,
,,,,52.0,4.0,4.0,,,,,,,,,,,,,rot,blue,b,0.0,b,1.0,1.2539706999668851,,,,,,,,,,4.0,4.0,52.0,2.0,365.17961420002393,,,,,,,,,,,,,,,,,365.16429470002186,366.363333000103,367.1635495000519,367.1476034000516,,,,,,,,,,,,,,,,,,,,,,,,,,,,,,,,,,,367.15319560002536,367.1635495000519,367.1635495000519,368.43071950005833,b,1.0,1.2539706999668851,,,,,,sub-122,1,stroop_test,60.00920542631901,
,,,,53.0,5.0,4.0,,,,,,,,,,,,,rot,red,r,1.0,r,1.0,0.6115950000239536,,,,,,,,,,4.0,5.0,53.0,1.0,368.4466839000816,,,,,,,,,,,,,,,,,368.431187500013,368.78060440008994,369.5800739000552,369.56398060009815,,,,,,,,,,,,,,,,,,,,,,,,,,,,,,,,,,,369.5646951000672,369.5800739000552,369.5800739000552,370.1974729000358,r,1.0,0.6115950000239536,,,,,,sub-122,1,stroop_test,60.00920542631901,
,,,,54.0,6.0,4.0,,,,,,,,,,,,,blau,yellow,g,0.0,g,1.0,0.6492273999610916,,,,,,,,,,4.0,6.0,54.0,7.0,370.2134643000318,,,,,,,,,,,,,,,,,370.1980693000369,370.3134704000549,371.1133887000615,371.0973141000141,,,,,,,,,,,,,,,,,,,,,,,,,,,,,,,,,,,371.1034010000294,371.1133887000615,371.1133887000615,371.7644147000974,g,1.0,0.6492273999610916,,,,,,sub-122,1,stroop_test,60.00920542631901,
,,,,55.0,7.0,4.0,,,,,,,,,,,,,gelb,red,r,0.0,r,1.0,1.492219000007026,,,,,,,,,,4.0,7.0,55.0,8.0,371.7801039000042,,,,,,,,,,,,,,,,,371.76495400001295,372.580105900066,373.3801647000946,373.36407100001816,,,,,,,,,,,,,,,,,,,,,,,,,,,,,,,,,,,373.3695463000331,373.3801647000946,373.3801647000946,374.88099200010765,r,1.0,1.492219000007026,,,,,,sub-122,1,stroop_test,60.00920542631901,
,,,,56.0,8.0,4.0,,,,,,,,,,,,,gelb,yellow,g,1.0,g,1.0,0.7227339999517426,,,,,,,,,,4.0,8.0,56.0,11.0,374.8969023000682,,,,,,,,,,,,,,,,,374.8815458000172,375.6802620000672,376.480376600055,376.4642479000613,,,,,,,,,,,,,,,,,,,,,,,,,,,,,,,,,,,376.4649788000388,376.480376600055,376.480376600055,377.2144137000432,g,1.0,0.7227339999517426,,,,,,sub-122,1,stroop_test,60.00920542631901,
,,,,57.0,9.0,4.0,,,,,,,,,,,,,blau,blue,b,1.0,b,1.0,0.5711741999257356,,,,,,,,,,4.0,9.0,57.0,6.0,377.2301758000394,,,,,,,,,,,,,,,,,377.2151477000443,378.0302110000048,378.830383600085,378.8142226000782,,,,,,,,,,,,,,,,,,,,,,,,,,,,,,,,,,,378.82122310006525,378.830383600085,378.830383600085,379.4142504000338,b,1.0,0.5711741999257356,,,,,,sub-122,1,stroop_test,60.00920542631901,
,,,,58.0,10.0,4.0,,,,,,,,,,,,,rot,yellow,g,0.0,g,1.0,1.4080684001091868,,,,,,,,,,4.0,10.0,58.0,3.0,379.43022630002815,,,,,,,,,,,,,,,,,379.4147598000709,379.5135673000477,380.3134833000368,380.2978747000452,,,,,,,,,,,,,,,,,,,,,,,,,,,,,,,,,,,380.3036558000604,380.3134833000368,380.3134833000368,381.730901400093,g,1.0,1.4080684001091868,,,,,,sub-122,1,stroop_test,60.00920542631901,
,,,,59.0,11.0,4.0,,,,,,,,,,,,,rot,red,r,1.0,r,1.0,0.6115079000592232,,,,,,,,,,4.0,11.0,59.0,0.0,381.7468660000013,,,,,,,,,,,,,,,,,381.7314423000207,382.93025610002223,383.7303053000942,383.714322200045,,,,,,,,,,,,,,,,,,,,,,,,,,,,,,,,,,,383.7150088000344,383.7303053000942,383.7303053000942,384.3476706000511,r,1.0,0.6115079000592232,,,,,,sub-122,1,stroop_test,60.00920542631901,
,,,,60.0,0.0,5.0,,,,,,,,,,,,,rot,red,r,1.0,r,1.0,0.651752799982205,,,,,,,,,,5.0,0.0,60.0,0.0,384.3633943001041,,,,,,,,,,,,,,,,,384.34823360003065,385.5469138000626,386.3472020000918,386.3309194000904,,,,,,,,,,,,,,,,,,,,,,,,,,,,,,,,,,,386.33161350002047,386.3472020000918,386.3472020000918,387.0140034001088,r,1.0,0.651752799982205,,,,,,sub-122,1,stroop_test,60.00920542631901,
,,,,61.0,1.0,5.0,,,,,,,,,,,,,gelb,red,r,0.0,r,1.0,0.7383758999640122,,,,,,,,,,5.0,1.0,61.0,8.0,387.0303516000277,,,,,,,,,,,,,,,,,387.01446970005054,388.2137597000692,389.01382340001874,388.9976898001041,,,,,,,,,,,,,,,,,,,,,,,,,,,,,,,,,,,389.0030028000474,389.01382340001874,389.01382340001874,389.7644173000008,r,1.0,0.7383758999640122,,,,,,sub-122,1,stroop_test,60.00920542631901,
,,,,62.0,2.0,5.0,,,,,,,,,,,,,rot,red,r,1.0,r,1.0,0.5946670999983326,,,,,,,,,,5.0,2.0,62.0,1.0,389.7803587000817,,,,,,,,,,,,,,,,,389.7649261000333,390.1136870000046,390.9137597000226,390.8976626000367,,,,,,,,,,,,,,,,,,,,,,,,,,,,,,,,,,,390.9035790000344,390.9137597000226,390.9137597000226,391.51433120004367,r,1.0,0.5946670999983326,,,,,,sub-122,1,stroop_test,60.00920542631901,
,,,,63.0,3.0,5.0,,,,,,,,,,,,,rot,yellow,g,0.0,g,1.0,0.6543674999848008,,,,,,,,,,5.0,3.0,63.0,3.0,391.53046230005566,,,,,,,,,,,,,,,,,391.514881500043,391.6137197000208,392.4137087001,392.3973056999967,,,,,,,,,,,,,,,,,,,,,,,,,,,,,,,,,,,392.39817220007535,392.4137087001,392.4137087001,393.0811228000093,g,1.0,0.6543674999848008,,,,,,sub-122,1,stroop_test,60.00920542631901,
,,,,64.0,4.0,5.0,,,,,,,,,,,,,blau,yellow,g,0.0,g,1.0,1.0520123000023889,,,,,,,,,,5.0,4.0,64.0,7.0,393.09710250003263,,,,,,,,,,,,,,,,,393.081630700035,393.4303633000236,394.2304022000171,394.21438650006894,,,,,,,,,,,,,,,,,,,,,,,,,,,,,,,,,,,394.222467900021,394.2304022000171,394.2304022000171,395.2979507000418,g,1.0,1.0520123000023889,,,,,,sub-122,1,stroop_test,60.00920542631901,
,,,,65.0,5.0,5.0,,,,,,,,,,,,,blau,blue,b,1.0,b,1.0,0.5710961999138817,,,,,,,,,,5.0,5.0,65.0,6.0,395.31392179999966,,,,,,,,,,,,,,,,,395.2985132000176,395.6633764000144,396.4636073000729,396.4474269000348,,,,,,,,,,,,,,,,,,,,,,,,,,,,,,,,,,,396.4480150000891,396.4636073000729,396.4636073000729,397.0477860000683,b,1.0,0.5710961999138817,,,,,,sub-122,1,stroop_test,60.00920542631901,
,,,,66.0,6.0,5.0,,,,,,,,,,,,,blau,red,r,0.0,r,1.0,0.5767203000141308,,,,,,,,,,5.0,6.0,66.0,4.0,397.06375630002,,,,,,,,,,,,,,,,,397.0482810999965,398.2471272000112,399.0470644000452,399.0310893000569,,,,,,,,,,,,,,,,,,,,,,,,,,,,,,,,,,,399.031796800089,399.0470644000452,399.0470644000452,399.63122350000776,r,1.0,0.5767203000141308,,,,,,sub-122,1,stroop_test,60.00920542631901,
,,,,67.0,7.0,5.0,,,,,,,,,,,,,rot,blue,b,0.0,b,1.0,0.8269589000847191,,,,,,,,,,5.0,7.0,67.0,2.0,399.6471386000048,,,,,,,,,,,,,,,,,399.6317380000837,399.7309793001041,400.53044650005177,400.5143081001006,,,,,,,,,,,,,,,,,,,,,,,,,,,,,,,,,,,400.51929910003673,400.53044650005177,400.53044650005177,401.3645203000633,b,1.0,0.8269589000847191,,,,,,sub-122,1,stroop_test,60.00920542631901,
,,,,68.0,8.0,5.0,,,,,,,,,,,,,gelb,yellow,g,1.0,g,1.0,0.465469199931249,,,,,,,,,,5.0,8.0,68.0,11.0,401.3805008000927,,,,,,,,,,,,,,,,,401.3651086000027,402.563939500018,403.36424720007926,403.34789730003104,,,,,,,,,,,,,,,,,,,,,,,,,,,,,,,,,,,403.35325550008565,403.36424720007926,403.36424720007926,403.8320105000166,g,1.0,0.465469199931249,,,,,,sub-122,1,stroop_test,60.00920542631901,
,,,,69.0,9.0,5.0,,,,,,,,,,,,,gelb,blue,b,0.0,b,1.0,0.5556704000337049,,,,,,,,,,5.0,9.0,69.0,9.0,403.8472894000588,,,,,,,,,,,,,,,,,403.8325788000366,404.19722230010666,404.997276600101,404.9850594000891,,,,,,,,,,,,,,,,,,,,,,,,,,,,,,,,,,,404.9858257001033,404.997276600101,404.997276600101,405.5651502000401,b,1.0,0.5556704000337049,,,,,,sub-122,1,stroop_test,60.00920542631901,
,,,,70.0,10.0,5.0,,,,,,,,,,,,,blau,blue,b,1.0,b,1.0,0.5353002999909222,,,,,,,,,,5.0,10.0,70.0,5.0,405.5805547001073,,,,,,,,,,,,,,,,,405.5657480000518,405.68060610000975,406.4806341000367,406.46841280011,,,,,,,,,,,,,,,,,,,,,,,,,,,,,,,,,,,406.4748009000905,406.4806341000367,406.4806341000367,407.0313007000368,b,1.0,0.5353002999909222,,,,,,sub-122,1,stroop_test,60.00920542631901,
,,,,71.0,11.0,5.0,,,,,,,,,,,,,gelb,yellow,g,1.0,g,1.0,0.5273494999855757,,,,,,,,,,5.0,11.0,71.0,10.0,407.0473747000797,,,,,,,,,,,,,,,,,407.0320224000607,407.8473271999974,408.7375850001117,408.631375500001,,,,,,,,,,,,,,,,,,,,,,,,,,,,,,,,,,,408.73345310008153,408.7375850001117,408.7375850001117,409.28128090000246,g,1.0,0.5273494999855757,,,,,,sub-122,1,stroop_test,60.00920542631901,
,,,,72.0,0.0,6.0,,,,,,,,,,,,,rot,red,r,1.0,r,1.0,0.5168522000312805,,,,,,,,,,6.0,0.0,72.0,1.0,409.2969795000972,,,,,,,,,,,,,,,,,409.2818018000107,410.080716400058,410.880686800112,410.8646249000449,,,,,,,,,,,,,,,,,,,,,,,,,,,,,,,,,,,410.87058420002,410.880686800112,410.880686800112,411.41444940003566,r,1.0,0.5168522000312805,,,,,,sub-122,1,stroop_test,60.00920542631901,
,,,,73.0,1.0,6.0,,,,,,,,,,,,,blau,yellow,g,0.0,g,1.0,0.8398129999404773,,,,,,,,,,6.0,1.0,73.0,7.0,411.4304700000212,,,,,,,,,,,,,,,,,411.4150460000383,412.614155700081,413.4140855000587,413.3977120000636,,,,,,,,,,,,,,,,,,,,,,,,,,,,,,,,,,,413.4037126000039,413.4140855000587,413.4140855000587,414.2648447999964,g,1.0,0.8398129999404773,,,,,,sub-122,1,stroop_test,60.00920542631901,
,,,,74.0,2.0,6.0,,,,,,,,,,,,,rot,red,r,1.0,r,1.0,0.6722687999717891,,,,,,,,,,6.0,2.0,74.0,0.0,414.28067010000814,,,,,,,,,,,,,,,,,414.2654844000936,414.6138594000368,415.4140263000736,415.3979762000963,,,,,,,,,,,,,,,,,,,,,,,,,,,,,,,,,,,415.4038444000762,415.4140263000736,415.4140263000736,416.0982392000733,r,1.0,0.6722687999717891,,,,,,sub-122,1,stroop_test,60.00920542631901,
,,,,75.0,3.0,6.0,,,,,,,,,,,,,gelb,yellow,g,1.0,g,1.0,0.6850799999665469,,,,,,,,,,6.0,3.0,75.0,10.0,416.1140166000696,,,,,,,,,,,,,,,,,416.0987880000612,416.1974481000798,416.997459400096,416.9813818000257,,,,,,,,,,,,,,,,,,,,,,,,,,,,,,,,,,,416.98731120000593,416.997459400096,416.997459400096,417.6980399000458,g,1.0,0.6850799999665469,,,,,,sub-122,1,stroop_test,60.00920542631901,
,,,,76.0,4.0,6.0,,,,,,,,,,,,,gelb,yellow,g,1.0,g,1.0,0.6506007999414578,,,,,,,,,,6.0,4.0,76.0,11.0,417.71412800007965,,,,,,,,,,,,,,,,,417.698624700075,417.7977042000275,418.59840460005216,418.5814297000179,,,,,,,,,,,,,,,,,,,,,,,,,,,,,,,,,,,418.58209270006046,418.59840460005216,418.59840460005216,419.26449420000426,g,1.0,0.6506007999414578,,,,,,sub-122,1,stroop_test,60.00920542631901,
,,,,77.0,5.0,6.0,,,,,,,,,,,,,gelb,red,r,0.0,r,1.0,0.6134473000420257,,,,,,,,,,6.0,5.0,77.0,8.0,419.2806847000029,,,,,,,,,,,,,,,,,419.26508880010806,419.364071500022,420.1641488000751,420.1480906000361,,,,,,,,,,,,,,,,,,,,,,,,,,,,,,,,,,,420.1488290000707,420.1641488000751,420.1641488000751,420.7814404000528,r,1.0,0.6134473000420257,,,,,,sub-122,1,stroop_test,60.00920542631901,
,,,,78.0,6.0,6.0,,,,,,,,,,,,,blau,red,r,0.0,r,1.0,1.034879899933003,,,,,,,,,,6.0,6.0,78.0,4.0,420.7975207000272,,,,,,,,,,,,,,,,,420.78193010005634,420.88078470004257,421.6805218000664,421.6646077000769,,,,,,,,,,,,,,,,,,,,,,,,,,,,,,,,,,,421.6724162000464,421.6805218000664,421.6805218000664,422.7310671000741,r,1.0,1.034879899933003,,,,,,sub-122,1,stroop_test,60.00920542631901,
,,,,79.0,7.0,6.0,,,,,,,,,,,,,rot,blue,b,0.0,b,1.0,0.4258243000367656,,,,,,,,,,6.0,7.0,79.0,2.0,422.7472470001085,,,,,,,,,,,,,,,,,422.7316369001055,423.0806295000948,423.8806869999971,423.8645912000211,,,,,,,,,,,,,,,,,,,,,,,,,,,,,,,,,,,423.87016740010586,423.8806869999971,423.8806869999971,424.31515500007663,b,1.0,0.4258243000367656,,,,,,sub-122,1,stroop_test,60.00920542631901,
,,,,80.0,8.0,6.0,,,,,,,,,,,,,blau,blue,b,1.0,b,1.0,0.461840600008145,,,,,,,,,,6.0,8.0,80.0,5.0,424.33085680007935,,,,,,,,,,,,,,,,,424.3157127000159,425.5308849000139,426.33104610000737,426.31497100007255,,,,,,,,,,,,,,,,,,,,,,,,,,,,,,,,,,,426.32202900003176,426.33104610000737,426.33104610000737,426.798200200079,b,1.0,0.461840600008145,,,,,,sub-122,1,stroop_test,60.00920542631901,
,,,,81.0,9.0,6.0,,,,,,,,,,,,,blau,blue,b,1.0,b,1.0,0.9827994999941438,,,,,,,,,,6.0,9.0,81.0,6.0,426.8141992000165,,,,,,,,,,,,,,,,,426.7987419000128,427.9976133001037,428.7975264000706,428.78154039999936,,,,,,,,,,,,,,,,,,,,,,,,,,,,,,,,,,,428.782408200088,428.7975264000706,428.7975264000706,429.78137229999993,b,1.0,0.9827994999941438,,,,,,sub-122,1,stroop_test,60.00920542631901,
,,,,82.0,10.0,6.0,,,,,,,,,,,,,rot,yellow,g,0.0,g,1.0,1.1124649998964742,,,,,,,,,,6.0,10.0,82.0,3.0,429.7976799000753,,,,,,,,,,,,,,,,,429.78246690006927,430.9809740000637,431.7807248000754,431.764942000038,,,,,,,,,,,,,,,,,,,,,,,,,,,,,,,,,,,431.7714285000693,431.7807248000754,431.7807248000754,432.8982660000911,g,1.0,1.1124649998964742,,,,,,sub-122,1,stroop_test,60.00920542631901,
,,,,83.0,11.0,6.0,,,,,,,,,,,,,gelb,blue,b,0.0,b,1.0,0.75644679996185,,,,,,,,,,6.0,11.0,83.0,9.0,432.9143164000707,,,,,,,,,,,,,,,,,432.89877450000495,433.6976296000648,434.4978110000957,434.4816789000761,,,,,,,,,,,,,,,,,,,,,,,,,,,,,,,,,,,434.4869248000905,434.4978110000957,434.4978110000957,435.26509810006246,b,1.0,0.75644679996185,,,,,,sub-122,1,stroop_test,60.00920542631901,
,,,,84.0,0.0,7.0,,,,,,,,,,,,,rot,red,r,1.0,r,1.0,0.6526473000412807,,,,,,,,,,7.0,0.0,84.0,1.0,435.2809938000282,,,,,,,,,,,,,,,,,435.2656108000083,435.3643180000363,436.164337299997,436.148281400092,,,,,,,,,,,,,,,,,,,,,,,,,,,,,,,,,,,436.15372240007855,436.164337299997,436.164337299997,436.83184300002176,r,1.0,0.6526473000412807,,,,,,sub-122,1,stroop_test,60.00920542631901,
,,,,85.0,1.0,7.0,,,,,,,,,,,,,gelb,blue,b,0.0,b,1.0,1.176164599950425,,,,,,,,,,7.0,1.0,85.0,9.0,436.8476857000496,,,,,,,,,,,,,,,,,436.832475900068,437.6311254000757,438.4310159001034,438.4149309000932,,,,,,,,,,,,,,,,,,,,,,,,,,,,,,,,,,,438.42079650005326,438.4310159001034,438.4310159001034,439.615119800088,b,1.0,1.176164599950425,,,,,,sub-122,1,stroop_test,60.00920542631901,
,,,,86.0,2.0,7.0,,,,,,,,,,,,,rot,red,r,1.0,r,1.0,1.4498657000949606,,,,,,,,,,7.0,2.0,86.0,0.0,439.6310494000791,,,,,,,,,,,,,,,,,439.61567020008806,439.9644153000554,440.764473700081,440.7483897000784,,,,,,,,,,,,,,,,,,,,,,,,,,,,,,,,,,,440.7540513999993,440.764473700081,440.764473700081,442.21508870006073,r,1.0,1.4498657000949606,,,,,,sub-122,1,stroop_test,60.00920542631901,
,,,,87.0,3.0,7.0,,,,,,,,,,,,,gelb,red,r,0.0,r,1.0,3.0765424000564963,,,,,,,,,,7.0,3.0,87.0,8.0,442.2310540000908,,,,,,,,,,,,,,,,,442.2156433000928,442.3310518000508,443.1311025000177,443.1150686000474,,,,,,,,,,,,,,,,,,,,,,,,,,,,,,,,,,,443.1210567000089,443.1311025000177,443.1311025000177,446.2155494000762,r,1.0,3.0765424000564963,,,,,,sub-122,1,stroop_test,60.00920542631901,
,,,,88.0,4.0,7.0,,,,,,,,,,,,,rot,blue,b,0.0,b,1.0,1.125236399937421,,,,,,,,,,7.0,4.0,88.0,2.0,446.231080000056,,,,,,,,,,,,,,,,,446.2160914000124,446.5811686000088,447.3809016000014,447.3646515000146,,,,,,,,,,,,,,,,,,,,,,,,,,,,,,,,,,,447.37002300005406,447.3809016000014,447.3809016000014,448.5145311000524,b,1.0,1.125236399937421,,,,,,sub-122,1,stroop_test,60.00920542631901,
,,,,89.0,5.0,7.0,,,,,,,,,,,,,gelb,yellow,g,1.0,g,1.0,0.8929385000374168,,,,,,,,,,7.0,5.0,89.0,11.0,448.53118030005135,,,,,,,,,,,,,,,,,448.5148460000055,448.6143710000906,449.4145246000262,449.3984199000988,,,,,,,,,,,,,,,,,,,,,,,,,,,,,,,,,,,449.4055822000373,449.4145246000262,449.4145246000262,450.3155893000076,g,1.0,0.8929385000374168,,,,,,sub-122,1,stroop_test,60.00920542631901,
,,,,90.0,6.0,7.0,,,,,,,,,,,,,blau,red,r,0.0,r,1.0,1.54844179993961,,,,,,,,,,7.0,6.0,90.0,4.0,450.33104280009866,,,,,,,,,,,,,,,,,450.3161117000273,450.6648202000652,451.4646188000916,451.4484476000071,,,,,,,,,,,,,,,,,,,,,,,,,,,,,,,,,,,451.45540580002125,451.4646188000916,451.4646188000916,453.01517440006137,r,1.0,1.54844179993961,,,,,,sub-122,1,stroop_test,60.00920542631901,
,,,,91.0,7.0,7.0,,,,,,,,,,,,,blau,blue,b,1.0,b,1.0,1.2225276000099257,,,,,,,,,,7.0,7.0,91.0,6.0,453.03120100009255,,,,,,,,,,,,,,,,,453.0157023000065,453.1144886000548,453.9145817001117,453.8985832000617,,,,,,,,,,,,,,,,,,,,,,,,,,,,,,,,,,,453.8992962000193,453.9145817001117,453.9145817001117,455.1486279000528,b,1.0,1.2225276000099257,,,,,,sub-122,1,stroop_test,60.00920542631901,
,,,,92.0,8.0,7.0,,,,,,,,,,,,,rot,yellow,g,0.0,g,1.0,0.8593179000308737,,,,,,,,,,7.0,8.0,92.0,3.0,455.1643787000794,,,,,,,,,,,,,,,,,455.1491487000603,456.34796480007935,457.147939800052,457.1317303000251,,,,,,,,,,,,,,,,,,,,,,,,,,,,,,,,,,,457.1370377000421,457.147939800052,457.147939800052,458.01539070007857,g,1.0,0.8593179000308737,,,,,,sub-122,1,stroop_test,60.00920542631901,
,,,,93.0,9.0,7.0,,,,,,,,,,,,,gelb,yellow,g,1.0,g,1.0,1.3164906000019982,,,,,,,,,,7.0,9.0,93.0,10.0,458.0312983000185,,,,,,,,,,,,,,,,,458.01599740004167,458.8314515000675,459.6314138000598,459.615248200018,,,,,,,,,,,,,,,,,,,,,,,,,,,,,,,,,,,459.6206899000099,459.6314138000598,459.6314138000598,460.9527184000472,g,1.0,1.3164906000019982,,,,,,sub-122,1,stroop_test,60.00920542631901,
,,,,94.0,10.0,7.0,,,,,,,,,,,,,blau,yellow,g,0.0,g,1.0,1.1356185000622645,,,,,,,,,,7.0,10.0,94.0,7.0,460.9647261000937,,,,,,,,,,,,,,,,,460.95333990000654,461.0647459001048,461.8645403000992,461.8484350000508,,,,,,,,,,,,,,,,,,,,,,,,,,,,,,,,,,,461.85418480006047,461.8645403000992,461.8645403000992,463.01537310006097,g,1.0,1.1356185000622645,,,,,,sub-122,1,stroop_test,60.00920542631901,
,,,,95.0,11.0,7.0,,,,,,,,,,,,,blau,blue,b,1.0,b,1.0,0.5407997999573126,,,,,,,,,,7.0,11.0,95.0,5.0,463.0314091000473,,,,,,,,,,,,,,,,,463.01594050007407,463.36471550003625,464.16481610003393,464.1486836000113,,,,,,,,,,,,,,,,,,,,,,,,,,,,,,,,,,,464.1496246000752,464.16481610003393,464.16481610003393,464.7153516000835,b,1.0,0.5407997999573126,,,,,,sub-122,1,stroop_test,60.00920542631901,
,,,,96.0,0.0,8.0,,,,,,,,,,,,,gelb,red,r,0.0,r,1.0,0.920071900007315,,,,,,,,,,8.0,0.0,96.0,8.0,464.7313856000546,,,,,,,,,,,,,,,,,464.7158150000032,464.8147502000211,465.6145394000923,465.59871670010034,,,,,,,,,,,,,,,,,,,,,,,,,,,,,,,,,,,465.60499110003,465.6145394000923,465.6145394000923,466.5487428000197,r,1.0,0.920071900007315,,,,,,sub-122,1,stroop_test,60.00920542631901,
,,,,97.0,1.0,8.0,,,,,,,,,,,,,blau,blue,b,1.0,b,1.0,0.6043946000281721,,,,,,,,,,8.0,1.0,97.0,6.0,466.5647308001062,,,,,,,,,,,,,,,,,466.54925860010553,466.6484664001037,467.4480791001115,467.4320346000604,,,,,,,,,,,,,,,,,,,,,,,,,,,,,,,,,,,467.4373555000639,467.4480791001115,467.4480791001115,468.06552900001407,b,1.0,0.6043946000281721,,,,,,sub-122,1,stroop_test,60.00920542631901,
,,,,98.0,2.0,8.0,,,,,,,,,,,,,blau,red,r,0.0,r,1.0,0.8543477000202984,,,,,,,,,,8.0,2.0,98.0,4.0,468.0813565000426,,,,,,,,,,,,,,,,,468.0660562000703,468.41477760009,469.21458850009367,469.1985495000845,,,,,,,,,,,,,,,,,,,,,,,,,,,,,,,,,,,469.1992018000456,469.21458850009367,469.21458850009367,470.0822379000019,r,1.0,0.8543477000202984,,,,,,sub-122,1,stroop_test,60.00920542631901,
,,,,99.0,3.0,8.0,,,,,,,,,,,,,gelb,blue,b,0.0,b,1.0,0.9727467000484468,,,,,,,,,,8.0,3.0,99.0,9.0,470.0980304999976,,,,,,,,,,,,,,,,,470.0827981000766,470.88149780000094,471.68126020010095,471.6655681000557,,,,,,,,,,,,,,,,,,,,,,,,,,,,,,,,,,,471.671232300112,471.68126020010095,471.68126020010095,472.66560310008936,b,1.0,0.9727467000484468,,,,,,sub-122,1,stroop_test,60.00920542631901,
,,,,100.0,4.0,8.0,,,,,,,,,,,,,gelb,yellow,g,1.0,g,1.0,0.4250880000181496,,,,,,,,,,8.0,4.0,100.0,11.0,472.68149360001553,,,,,,,,,,,,,,,,,472.6661263999995,473.4650639001047,474.2650201000506,474.248755000066,,,,,,,,,,,,,,,,,,,,,,,,,,,,,,,,,,,474.2493830000749,474.2650201000506,474.2650201000506,474.6989679000108,g,1.0,0.4250880000181496,,,,,,sub-122,1,stroop_test,60.00920542631901,
,,,,101.0,5.0,8.0,,,,,,,,,,,,,rot,red,r,1.0,r,1.0,0.8016572999767959,,,,,,,,,,8.0,5.0,101.0,1.0,474.714920300059,,,,,,,,,,,,,,,,,474.69945850002114,475.4983530000318,476.2983807000565,476.28239010006655,,,,,,,,,,,,,,,,,,,,,,,,,,,,,,,,,,,476.28797520010266,476.2983807000565,476.2983807000565,477.1156741000013,r,1.0,0.8016572999767959,,,,,,sub-122,1,stroop_test,60.00920542631901,
,,,,102.0,6.0,8.0,,,,,,,,,,,,,blau,yellow,g,0.0,g,1.0,2.844086299999617,,,,,,,,,,8.0,6.0,102.0,7.0,477.1315755000105,,,,,,,,,,,,,,,,,477.11624880007,477.231705000042,478.0315738000209,478.0154757000273,,,,,,,,,,,,,,,,,,,,,,,,,,,,,,,,,,,478.0225892000599,478.0315738000209,478.0315738000209,480.8823046000907,g,1.0,2.844086299999617,,,,,,sub-122,1,stroop_test,60.00920542631901,
,,,,103.0,7.0,8.0,,,,,,,,,,,,,rot,red,r,1.0,r,1.0,0.7583683000411838,,,,,,,,,,8.0,7.0,103.0,0.0,480.8983687000582,,,,,,,,,,,,,,,,,480.8834031000733,481.6817148000701,482.4819946000353,482.4654308001045,,,,,,,,,,,,,,,,,,,,,,,,,,,,,,,,,,,482.4704025000101,482.4819946000353,482.4819946000353,483.2490658001043,r,1.0,0.7583683000411838,,,,,,sub-122,1,stroop_test,60.00920542631901,
,,,,104.0,8.0,8.0,,,,,,,,,,,,,rot,blue,b,0.0,b,1.0,0.9134681000141428,,,,,,,,,,8.0,8.0,104.0,2.0,483.2649980999995,,,,,,,,,,,,,,,,,483.2495827000821,484.0484190999996,484.8484999000793,484.8323332000291,,,,,,,,,,,,,,,,,,,,,,,,,,,,,,,,,,,484.8330075000413,484.8484999000793,484.8484999000793,485.7656095999992,b,1.0,0.9134681000141428,,,,,,sub-122,1,stroop_test,60.00920542631901,
,,,,105.0,9.0,8.0,,,,,,,,,,,,,blau,blue,b,1.0,b,1.0,0.6057078000158072,,,,,,,,,,8.0,9.0,105.0,5.0,485.78141730010975,,,,,,,,,,,,,,,,,485.7661428001011,486.11516680009663,486.91504170000553,486.8990602000849,,,,,,,,,,,,,,,,,,,,,,,,,,,,,,,,,,,486.9049840000225,486.91504170000553,486.91504170000553,487.5326648000628,b,1.0,0.6057078000158072,,,,,,sub-122,1,stroop_test,60.00920542631901,
,,,,106.0,10.0,8.0,,,,,,,,,,,,,rot,yellow,g,0.0,g,1.0,0.9851227999897674,,,,,,,,,,8.0,10.0,106.0,3.0,487.5485278000124,,,,,,,,,,,,,,,,,487.5331875000848,487.8984424000373,488.6984614999965,488.6824424000224,,,,,,,,,,,,,,,,,,,,,,,,,,,,,,,,,,,488.6882764000911,488.6984614999965,488.6984614999965,489.6992962000659,g,1.0,0.9851227999897674,,,,,,sub-122,1,stroop_test,60.00920542631901,
,,,,107.0,11.0,8.0,,,,,,,,,,,,,gelb,yellow,g,1.0,g,1.0,0.8630230999551713,,,,,,,,,,8.0,11.0,107.0,10.0,489.7153000000399,,,,,,,,,,,,,,,,,489.7000777000794,489.7985102001112,490.5981132000452,490.5823662000476,,,,,,,,,,,,,,,,,,,,,,,,,,,,,,,,,,,490.5890364000807,490.5981132000452,490.5981132000452,491.46570080006495,g,1.0,0.8630230999551713,,,,,,sub-122,1,stroop_test,60.00920542631901,
,,,,108.0,0.0,9.0,,,,,,,,,,,,,rot,blue,b,0.0,b,1.0,1.0095056999707597,,,,,,,,,,9.0,0.0,108.0,2.0,491.481746400008,,,,,,,,,,,,,,,,,491.46622030006256,492.6651346000144,493.4658587001031,493.4492240000982,,,,,,,,,,,,,,,,,,,,,,,,,,,,,,,,,,,493.4552705000388,493.4658587001031,493.4658587001031,494.4825631000567,b,1.0,1.0095056999707597,,,,,,sub-122,1,stroop_test,60.00920542631901,
,,,,109.0,1.0,9.0,,,,,,,,,,,,,gelb,blue,b,0.0,b,1.0,1.102260799962096,,,,,,,,,,9.0,1.0,109.0,9.0,494.4984821000835,,,,,,,,,,,,,,,,,494.4831755000632,495.6819024001016,496.4816142000491,496.46588630008046,,,,,,,,,,,,,,,,,,,,,,,,,,,,,,,,,,,496.4711735000601,496.4816142000491,496.4816142000491,497.59933630004525,b,1.0,1.102260799962096,,,,,,sub-122,1,stroop_test,60.00920542631901,
,,,,110.0,2.0,9.0,,,,,,,,,,,,,gelb,yellow,g,1.0,g,1.0,2.2947199000045657,,,,,,,,,,9.0,2.0,110.0,11.0,497.6152541000629,,,,,,,,,,,,,,,,,497.5998427000595,497.9486294001108,498.7486019000644,498.7324664000189,,,,,,,,,,,,,,,,,,,,,,,,,,,,,,,,,,,498.7331513999961,498.7486019000644,498.7486019000644,501.04927720001433,g,1.0,2.2947199000045657,,,,,,sub-122,1,stroop_test,60.00920542631901,
,,,,111.0,3.0,9.0,,,,,,,,,,,,,rot,yellow,g,0.0,g,1.0,1.0094061000272632,,,,,,,,,,9.0,3.0,111.0,3.0,501.0652925000759,,,,,,,,,,,,,,,,,501.0498587000184,501.1485930000199,501.9486187000293,501.9324252000079,,,,,,,,,,,,,,,,,,,,,,,,,,,,,,,,,,,501.9373180000112,501.9486187000293,501.9486187000293,502.9659214999992,g,1.0,1.0094061000272632,,,,,,sub-122,1,stroop_test,60.00920542631901,
,,,,112.0,4.0,9.0,,,,,,,,,,,,,gelb,yellow,g,1.0,g,1.0,0.5444123999914154,,,,,,,,,,9.0,4.0,112.0,10.0,502.9820151000749,,,,,,,,,,,,,,,,,502.96645649999846,503.76526550005656,504.5654855000321,504.54928410006687,,,,,,,,,,,,,,,,,,,,,,,,,,,,,,,,,,,504.5547242000466,504.5654855000321,504.5654855000321,505.1161076000426,g,1.0,0.5444123999914154,,,,,,sub-122,1,stroop_test,60.00920542631901,
,,,,113.0,5.0,9.0,,,,,,,,,,,,,rot,red,r,1.0,r,1.0,0.3889230999629944,,,,,,,,,,9.0,5.0,113.0,1.0,505.1316204000032,,,,,,,,,,,,,,,,,505.1167448000051,505.91531850001775,506.7148711000336,506.69910940004047,,,,,,,,,,,,,,,,,,,,,,,,,,,,,,,,,,,506.7053150000284,506.7148711000336,506.7148711000336,507.1162087999983,r,1.0,0.3889230999629944,,,,,,sub-122,1,stroop_test,60.00920542631901,
,,,,114.0,6.0,9.0,,,,,,,,,,,,,blau,yellow,g,0.0,g,1.0,0.7508465000428259,,,,,,,,,,9.0,6.0,114.0,7.0,507.13173190003727,,,,,,,,,,,,,,,,,507.1167643000372,508.3154705000343,509.1163260000758,509.099440400023,,,,,,,,,,,,,,,,,,,,,,,,,,,,,,,,,,,509.1054496000288,509.1163260000758,509.1163260000758,509.8826797000365,g,1.0,0.7508465000428259,,,,,,sub-122,1,stroop_test,60.00920542631901,
,,,,115.0,7.0,9.0,,,,,,,,,,,,,blau,red,r,0.0,r,1.0,1.03513709991239,,,,,,,,,,9.0,7.0,115.0,4.0,509.8986514999997,,,,,,,,,,,,,,,,,509.8831598000834,510.232161300024,511.0321559000295,511.0157238000538,,,,,,,,,,,,,,,,,,,,,,,,,,,,,,,,,,,511.0166749000782,511.0321559000295,511.0321559000295,512.0827668000711,r,1.0,1.03513709991239,,,,,,sub-122,1,stroop_test,60.00920542631901,
,,,,116.0,8.0,9.0,,,,,,,,,,,,,blau,blue,b,1.0,b,1.0,0.6206948000472039,,,,,,,,,,9.0,8.0,116.0,5.0,512.0987691000337,,,,,,,,,,,,,,,,,512.0833244000096,512.1820657000644,512.9821728999959,512.9664814000716,,,,,,,,,,,,,,,,,,,,,,,,,,,,,,,,,,,512.9675636000466,512.9821728999959,512.9821728999959,513.6161509000231,b,1.0,0.6206948000472039,,,,,,sub-122,1,stroop_test,60.00920542631901,
,,,,117.0,9.0,9.0,,,,,,,,,,,,,gelb,red,r,0.0,r,1.0,0.965783099993132,,,,,,,,,,9.0,9.0,117.0,8.0,513.6320887000766,,,,,,,,,,,,,,,,,513.6166865000268,513.7154467001092,514.5153929000953,514.4992935000919,,,,,,,,,,,,,,,,,,,,,,,,,,,,,,,,,,,514.5048966000322,514.5153929000953,514.5153929000953,515.4829897000454,r,1.0,0.965783099993132,,,,,,sub-122,1,stroop_test,60.00920542631901,
,,,,118.0,10.0,9.0,,,,,,,,,,,,,blau,blue,b,1.0,b,1.0,1.4090293999761343,,,,,,,,,,9.0,10.0,118.0,6.0,515.4986590000335,,,,,,,,,,,,,,,,,515.4835074000293,515.8322225000011,516.6338488000911,516.61606140004,,,,,,,,,,,,,,,,,,,,,,,,,,,,,,,,,,,516.6219554001,516.6338488000911,516.6338488000911,518.0497243000427,b,1.0,1.4090293999761343,,,,,,sub-122,1,stroop_test,60.00920542631901,
,,,,119.0,11.0,9.0,,,,,,,,,,,,,rot,red,r,1.0,r,1.0,0.6369979999726638,,,,,,,,,,9.0,11.0,119.0,0.0,518.0654573000502,,,,,,,,,,,,,,,,,518.0502587000374,519.2488159000641,520.0489664000925,520.032893900061,,,,,,,,,,,,,,,,,,,,,,,,,,,,,,,,,,,520.0390242000576,520.0489664000925,520.0489664000925,520.6996354000876,r,1.0,0.6369979999726638,,,,,,sub-122,1,stroop_test,60.00920542631901,
,,,,,,,,,,,,,,,,,,,,,,,,,,,,,,,,,,,,,,,,,,,,,,,,,,,,,,,,,,,,,,,,,,,,,,,,,,,,,,,,,,,,,,,,,,,,,,,,,,,,,,520.6999047000427,520.7156267000828,525.7158023000229,525.6997054000385,sub-122,1,stroop_test,60.00920542631901,
