direction,corrAns,thisN,thisTrialN,thisRepN,respDots.keys,respDots.corr,respDots.rt,respDots.duration,randomInstr,respRandomInstr.keys,respRandomInstr.rt,respRandomInstr.duration,practice_trials.thisRepN,practice_trials.thisTrialN,practice_trials.thisN,practice_trials.thisIndex,instr_trials.thisRepN,instr_trials.thisTrialN,instr_trials.thisN,instr_trials.thisIndex,test_trials.thisRepN,test_trials.thisTrialN,test_trials.thisN,test_trials.thisIndex,thisRow.t,notes,general_instruction.started,textGeneralInstr.started,respGeneralInstr.started,general_instruction.stopped,respGeneralInstr.keys,respGeneralInstr.rt,respGeneralInstr.duration,ITI.started,fixcross.started,fixcross.stopped,ITI.stopped,dots.started,backgroundDots.started,stimulusDots.started,respDots.started,stimulusDots.stopped,dots.stopped,practice_trials.respDots.keys,practice_trials.respDots.corr,practice_trials.respDots.rt,practice_trials.respDots.duration,feedback.started,textFeedback.started,feedback.stopped,textFeedback.stopped,info.started,textInfo.started,keyRespInfo.started,info.stopped,keyRespInfo.keys,keyRespInfo.rt,keyRespInfo.duration,test_instruction.started,textTestInstr.started,respTestInstr.started,test_instruction.stopped,respTestInstr.keys,respTestInstr.rt,respTestInstr.duration,random_instruction.started,textRandomInstr.started,respRandomInstr.started,random_instruction.stopped,instr_trials.respRandomInstr.keys,instr_trials.respRandomInstr.rt,instr_trials.respRandomInstr.duration,test_trials.respDots.keys,test_trials.respDots.corr,test_trials.respDots.rt,test_trials.respDots.duration,goodbye.started,textGoodbye.started,textGoodbye.stopped,goodbye.stopped,participant,session,expName,frameRate,Unnamed: 88
,,,,,,,,,,,,,,,,,,,,,,,,,,,0.0062178749940358,0.0150838330009719,0.0150838330009719,1.902433416005806,space,1.7482582920056302,,,,,,,,,,,,,,,,,,,,,,,,,,,,,,,,,,,,,,,,,,,,,,,,,sub-052,1,random_dot,,
right,right,0.0,0.0,0.0,left,0.0,5.360858583997469,,,,,,0.0,0.0,0.0,1.0,,,,,,,,,1.9463346660049865,,,,,,,,,1.9187673330015969,3.1039427910000086,3.9069655000057537,3.890143790995353,3.890916332995402,3.9069655000057537,3.9069655000057537,3.9069655000057537,8.878146457995172,9.274748540992732,left,0.0,5.360858583997469,,9.284515749997809,9.384079291005037,9.779422040999634,,,,,,,,,,,,,,,,,,,,,,,,,,,,,,,sub-052,1,random_dot,,
left,left,1.0,1.0,0.0,left,1.0,3.6597254580119625,,,,,,0.0,1.0,1.0,0.0,,,,,,,,,9.789912124993862,,,,,,,,,9.780034875002457,9.87303108299966,10.66474254100467,10.656614833002097,10.657261832995571,10.66474254100467,10.66474254100467,10.66474254100467,,14.331647540995618,left,1.0,3.6597254580119625,,14.33764670799428,14.359215832999324,14.840124291004033,,,,,,,,,,,,,,,,,,,,,,,,,,,,,,,sub-052,1,random_dot,,
right,right,2.0,0.0,1.0,right,1.0,3.8614125000021886,,,,,,1.0,0.0,2.0,1.0,,,,,,,,,14.845476375005092,,,,,,,,,14.840695249993589,15.180482790994574,15.98168524999346,15.973578000004636,15.9741777080053,15.98168524999346,15.98168524999346,15.98168524999346,,19.846863208003924,right,1.0,3.8614125000021886,,19.847009290999267,19.855647000003955,20.34037470800104,20.34568225000112,,,,,,,,,,,,,,,,,,,,,,,,,,,,,,sub-052,1,random_dot,,
left,left,3.0,1.0,1.0,left,1.0,2.900928250004654,,,,,,1.0,1.0,3.0,0.0,,,,,,,,,20.34568225000112,,,,,,,,,20.340881875003102,21.546385624998948,22.33956937500625,22.330294999992475,22.330823083000723,22.33956937500625,22.33956937500625,22.33956937500625,,25.247729374998016,left,1.0,2.900928250004654,,25.24791108300269,25.256442083002185,25.740528249996714,25.74591333299759,,,,,,,,,,,,,,,,,,,,,,,,,,,,,,sub-052,1,random_dot,,
right,right,4.0,0.0,2.0,right,1.0,3.502883042005124,,,,,,2.0,0.0,4.0,1.0,,,,,,,,,25.74591333299759,,,,,,,,,25.741035832994385,26.09769370799768,26.89884508299292,26.89047387499886,26.891053915998786,26.89884508299292,26.89884508299292,26.89884508299292,,30.40803720800613,right,1.0,3.502883042005124,,30.408226915998966,30.41712966600608,30.90734537500248,30.91293679100636,,,,,,,,,,,,,,,,,,,,,,,,,,,,,,sub-052,1,random_dot,,
left,left,5.0,1.0,2.0,left,1.0,5.499562790995697,,,,,,2.0,1.0,5.0,0.0,,,,,,,,,30.91293679100636,,,,,,,,,30.90792216600676,31.24767712499306,32.04848816599406,32.04054575000191,32.04114425000444,32.04848816599406,32.04848816599406,32.04848816599406,37.02887033300067,37.558803249994526,left,1.0,5.499562790995697,,37.559011791003286,37.568198708002456,38.05732620799972,38.062679708004,,,,,,,,,,,,,,,,,,,,,,,,,,,,,,sub-052,1,random_dot,,
left,left,6.0,0.0,3.0,right,0.0,5.346510792005574,,,,,,3.0,0.0,6.0,0.0,,,,,,,,,38.062679708004,,,,,,,,,38.05780224999762,38.40680129099928,39.198992207995616,39.19078316600644,39.19139016600093,39.198992207995616,39.198992207995616,39.198992207995616,44.17902008300007,44.54838187499263,right,0.0,5.346510792005574,,44.55290700000478,44.56054824999592,45.04650695799501,45.05722741599311,,,,,,,,,,,,,,,,,,,,,,,,,,,,,,sub-052,1,random_dot,,
right,right,7.0,1.0,3.0,right,1.0,5.044832041996415,,,,,,3.0,1.0,7.0,1.0,,,,,,,,,45.05722741599311,,,,,,,,,45.046989208000014,46.24765654100338,47.04972437499964,47.040792832995066,47.041471250006,47.04972437499964,47.04972437499964,47.04972437499964,52.02944491599919,52.09819733300537,right,1.0,5.044832041996415,,52.10247708299721,52.11065050000616,52.5967036249931,52.60749895799381,,,,,,,,,,,,,,,,,,,,,,,,,,,,,,sub-052,1,random_dot,,
left,left,8.0,0.0,4.0,right,0.0,3.507912707995274,,,,,,4.0,0.0,8.0,0.0,,,,,,,,,52.60749895799381,,,,,,,,,52.5972117909987,53.79796083300607,54.59974183299346,54.591103041006136,54.591769249993376,54.59974183299346,54.59974183299346,54.59974183299346,,58.11502475000452,right,0.0,3.507912707995274,,58.11880808300339,58.1280352909962,58.61336058299639,58.624187708002864,,,,,,,,,,,,,,,,,,,,,,,,,,,,,,sub-052,1,random_dot,,
right,right,9.0,1.0,4.0,right,1.0,4.574175165995257,,,,,,4.0,1.0,9.0,1.0,,,,,,,,,58.624187708002864,,,,,,,,,58.61388116600574,58.71372033300577,59.507217916005175,59.496526125003584,59.49705274999724,59.507217916005175,59.507217916005175,59.507217916005175,,64.09204662499542,right,1.0,4.574175165995257,,64.09732400000212,64.10501450000447,64.59136212499288,64.5969224159926,,,,,,,,,,,,,,,,,,,,,,,,,,,,,,sub-052,1,random_dot,,
left,left,10.0,0.0,5.0,right,0.0,3.318162499999744,,,,,,5.0,0.0,10.0,0.0,,,,,,,,,64.5969224159926,,,,,,,,,64.59192929099663,65.38164041600248,66.18248791599763,66.17456216599385,66.17514937500528,66.18248791599763,66.18248791599763,66.18248791599763,,69.5084673329984,right,0.0,3.318162499999744,,69.5122104579932,69.5199874999962,70.00820533299702,70.01374908299476,,,,,,,,,,,,,,,,,,,,,,,,,,,,,,sub-052,1,random_dot,,
right,right,11.0,1.0,5.0,right,1.0,4.103866707999259,,,,,,5.0,1.0,11.0,1.0,,,,,,,,,70.01374908299476,,,,,,,,,70.00875833300233,71.19863495799655,71.99965908299782,71.99148262500239,71.99208129099861,71.99965908299782,71.99965908299782,71.99965908299782,,76.10874570799933,right,1.0,4.103866707999259,,76.11282733299595,76.12071829100023,76.60823124999297,76.61360212499858,,,,,,,,,,,,,,,,,,,,,,,,,,,,,,sub-052,1,random_dot,,
left,left,12.0,0.0,6.0,right,0.0,3.685048999992432,,,,,,6.0,0.0,12.0,0.0,,,,,,,,,76.61360212499858,,,,,,,,,76.60873287499999,76.69843362500251,77.49968770799751,77.4916043330013,77.49217862500518,77.49968770799751,77.49968770799751,77.49968770799751,,81.192232625006,right,0.0,3.685048999992432,,81.19573687500088,81.20347708299232,81.69181145800394,81.69713775000127,,,,,,,,,,,,,,,,,,,,,,,,,,,,,,sub-052,1,random_dot,,
right,right,13.0,1.0,6.0,left,0.0,4.790302082998096,,,,,,6.0,1.0,13.0,1.0,,,,,,,,,81.69713775000127,,,,,,,,,81.69231199999922,81.78213283300283,82.58393295800488,82.57504441599303,82.57576645800145,82.58393295800488,82.58393295800488,82.58393295800488,,87.37562516599428,left,0.0,4.790302082998096,,87.37576475000242,87.38092070800485,87.8640684580023,87.87474299999303,,,,,,,,,,,,,,,,,,,,,,,,,,,,,,sub-052,1,random_dot,,
right,right,14.0,0.0,7.0,right,1.0,4.3554414579994045,,,,,,7.0,0.0,14.0,1.0,,,,,,,,,87.87474299999303,,,,,,,,,87.8646024579939,88.21503695800493,89.00758529099403,88.99778841600346,88.99838750000345,89.00758529099403,89.00758529099403,89.00758529099403,,93.36545395800204,right,1.0,4.3554414579994045,,93.36848725000164,93.37683912500506,93.86451645799389,93.874914,,,,,,,,,,,,,,,,,,,,,,,,,,,,,,sub-052,1,random_dot,,
left,left,15.0,1.0,7.0,right,0.0,5.598802499996964,,,,,,7.0,1.0,15.0,0.0,,,,,,,,,93.874914,,,,,,,,,93.86501062499885,95.06566608299909,95.86767099999996,95.85882737500653,95.85957845799568,95.86767099999996,95.86767099999996,95.86767099999996,100.84675895799592,101.47641795799429,right,0.0,5.598802499996964,,101.4810194580059,101.48929945800046,101.97532991599292,101.98067262499536,,,,,,,,,,,,,,,,,,,,,,,,,,,,,,sub-052,1,random_dot,,
right,right,16.0,0.0,8.0,left,0.0,4.171182917008991,,,,,,8.0,0.0,16.0,1.0,,,,,,,,,101.98067262499536,,,,,,,,,101.97582912500366,103.17518150000252,103.96676083300554,103.95883929099364,103.95944645800046,103.96676083300554,103.96676083300554,103.96676083300554,,108.14290141599486,left,0.0,4.171182917008991,,108.14306379099436,108.15147816599348,108.64198062500508,108.64738174999366,,,,,,,,,,,,,,,,,,,,,,,,,,,,,,sub-052,1,random_dot,,
left,left,17.0,1.0,8.0,right,0.0,5.587042333005229,,,,,,8.0,1.0,17.0,0.0,,,,,,,,,108.64738174999366,,,,,,,,,108.64246954099508,108.9826727079926,109.78367900000012,109.77557612500097,109.7761587080022,109.78367900000012,109.78367900000012,109.78367900000012,114.76346529100556,115.37676970800383,right,0.0,5.587042333005229,,115.37697708299676,115.38672491599571,115.87565508300032,115.88132245799352,,,,,,,,,,,,,,,,,,,,,,,,,,,,,,sub-052,1,random_dot,,
right,right,18.0,0.0,9.0,left,0.0,5.598076708003646,,,,,,9.0,0.0,18.0,1.0,,,,,,,,,115.88132245799352,,,,,,,,,115.87623083300424,116.22524241599604,117.01722654099284,117.00905395799782,117.00960658300028,117.01722654099284,117.01722654099284,117.01722654099284,121.99703783300356,122.61681841600512,left,0.0,5.598076708003646,,122.61700804099382,122.6250825409952,123.10914270799547,123.11442562499724,,,,,,,,,,,,,,,,,,,,,,,,,,,,,,sub-052,1,random_dot,,
left,left,19.0,1.0,9.0,right,0.0,5.542602249988704,,,,,,9.0,1.0,19.0,0.0,,,,,,,,,123.11442562499724,,,,,,,,,123.1096290830028,124.31640116599738,125.11795275000622,125.1093788750004,125.11005916599242,125.11795275000622,125.11795275000622,125.11795275000622,130.09804145799717,130.666936833004,right,0.0,5.542602249988704,,130.66709025000455,130.67567212499853,131.15940291600418,131.16861283300386,,,,,,,,,,,,,,,,,,,,,,,,,,,,,,sub-052,1,random_dot,,
,,,,,,,,,,,,,,,,,,,,,,,,,,,,,,,,,,,,,,,,,,,,,,,,,,,,131.15965016599512,131.16861283300386,131.16861283300386,133.343949083006,space,2.1630618749913992,,,,,,,,,,,,,,,,,,,,,,,,sub-052,1,random_dot,,
,,,,,,,,,,,,,,,,,,,,,,,,,,,,,,,,,,,,,,,,,,,,,,,,,,,,,,,,,,,133.34408162499312,133.3557293329941,133.3557293329941,141.54443845800415,space,8.179072540995548,,,,,,,,,,,,,,,,,sub-052,1,random_dot,,
right,right,0.0,0.0,0.0,right,1.0,3.065521707991138,,speed,space,2.493904290997307,,,,,,0.0,0.0,0.0,1.0,0.0,0.0,0.0,1.0,144.095600457993,,,,,,,,,144.08748083299724,144.41665462500532,145.21795995799766,145.20972050000273,145.21034158300608,145.21795995799766,145.21795995799766,145.21795995799766,,148.29365999999573,,,,,,,,,,,,,,,,,,,,,,,141.56903191600577,141.5780008330039,141.5780008330039,144.07705420799903,space,2.493904290997307,,right,1.0,3.065521707991138,,,,,,sub-052,1,random_dot,,
left,left,1.0,1.0,0.0,right,0.0,3.087546124996152,,speed,space,2.493904290997307,,,,,,0.0,0.0,0.0,1.0,0.0,1.0,1.0,0.0,148.30145420800545,,,,,,,,,148.29416054100147,149.08315470800153,149.88504187499348,149.87648170799366,149.8772056250018,149.88504187499348,149.88504187499348,149.88504187499348,,152.97715858300216,,,,,,,,,,,,,,,,,,,,,,,,,,,,,,right,0.0,3.087546124996152,,,,,,sub-052,1,random_dot,,
right,right,2.0,0.0,1.0,left,0.0,2.064319124998292,,speed,space,2.493904290997307,,,,,,0.0,0.0,0.0,1.0,1.0,0.0,2.0,1.0,152.98211475000426,,,,,,,,,152.9776872079965,153.0659547499963,153.86829008300265,153.85979062499246,153.86036654100462,153.86829008300265,153.86829008300265,153.86829008300265,,155.93422341599944,,,,,,,,,,,,,,,,,,,,,,,,,,,,,,left,0.0,2.064319124998292,,,,,,sub-052,1,random_dot,,
left,left,3.0,1.0,1.0,left,1.0,2.3877062919927994,,speed,space,2.493904290997307,,,,,,0.0,0.0,0.0,1.0,1.0,1.0,3.0,0.0,155.94255012499343,,,,,,,,,155.9346971250052,156.73271583300084,157.52580654100166,157.51558187500632,157.5161984580045,157.52580654100166,157.52580654100166,157.52580654100166,,159.91737020800065,,,,,,,,,,,,,,,,,,,,,,,,,,,,,,left,1.0,2.3877062919927994,,,,,,sub-052,1,random_dot,,
right,right,4.0,0.0,2.0,right,1.0,4.887824040997657,,speed,space,2.493904290997307,,,,,,0.0,0.0,0.0,1.0,2.0,0.0,4.0,1.0,159.92570204100048,,,,,,,,,159.91791541599378,160.01692350000667,160.81802366599732,160.81001579099393,160.810583915998,160.81802366599732,160.81802366599732,160.81802366599732,,165.710801291003,,,,,,,,,,,,,,,,,,,,,,,,,,,,,,right,1.0,4.887824040997657,,,,,,sub-052,1,random_dot,,
left,left,5.0,1.0,2.0,right,0.0,3.989098541002022,,speed,space,2.493904290997307,,,,,,0.0,0.0,0.0,1.0,2.0,1.0,5.0,0.0,165.71885683300206,,,,,,,,,165.71150691600633,165.79921008300153,166.5926602499967,166.58262554100656,166.58321204100503,166.5926602499967,166.5926602499967,166.5926602499967,,170.58384729099637,,,,,,,,,,,,,,,,,,,,,,,,,,,,,,right,0.0,3.989098541002022,,,,,,sub-052,1,random_dot,,
right,right,6.0,0.0,3.0,left,0.0,4.912296082999092,,speed,space,2.493904290997307,,,,,,0.0,0.0,0.0,1.0,3.0,0.0,6.0,1.0,170.59291624999605,,,,,,,,,170.5843746659957,171.38294437500008,172.17612945800647,172.16579766600626,172.16641512500064,172.17612945800647,172.17612945800647,172.17612945800647,,177.09449133300222,,,,,,,,,,,,,,,,,,,,,,,,,,,,,,left,0.0,4.912296082999092,,,,,,sub-052,1,random_dot,,
left,left,7.0,1.0,3.0,right,0.0,3.779214750000392,,speed,space,2.493904290997307,,,,,,0.0,0.0,0.0,1.0,3.0,1.0,7.0,0.0,177.1031310830003,,,,,,,,,177.0950659999944,178.29342620799434,179.08496004100016,179.07705641600478,179.07762212499802,179.08496004100016,179.08496004100016,179.08496004100016,,182.8676359999954,,,,,,,,,,,,,,,,,,,,,,,,,,,,,,right,0.0,3.779214750000392,,,,,,sub-052,1,random_dot,,
right,right,8.0,0.0,4.0,right,1.0,2.7843813340005,,speed,space,2.493904290997307,,,,,,0.0,0.0,0.0,1.0,4.0,0.0,8.0,1.0,182.8766405409988,,,,,,,,,182.86812879100037,182.97013825000613,183.7687856249977,183.76052070800503,183.76109487499343,183.7687856249977,183.7687856249977,183.7687856249977,,186.56117370800348,,,,,,,,,,,,,,,,,,,,,,,,,,,,,,right,1.0,2.7843813340005,,,,,,sub-052,1,random_dot,,
left,left,9.0,1.0,4.0,right,0.0,2.254098374993191,,speed,space,2.493904290997307,,,,,,0.0,0.0,0.0,1.0,4.0,1.0,9.0,0.0,186.5691115410009,,,,,,,,,186.561718500001,186.64975337499345,187.4431192500051,187.4329354999936,187.4335814160004,187.4431192500051,187.4431192500051,187.4431192500051,,189.7019809159974,,,,,,,,,,,,,,,,,,,,,,,,,,,,,,right,0.0,2.254098374993191,,,,,,sub-052,1,random_dot,,
right,right,10.0,0.0,5.0,left,0.0,4.044142958009616,,speed,space,2.493904290997307,,,,,,0.0,0.0,0.0,1.0,5.0,0.0,10.0,1.0,189.7099409999937,,,,,,,,,189.70248249999716,189.7998620409926,190.5931407080061,190.5832656249986,190.58388354099588,190.5931407080061,190.5931407080061,190.5931407080061,,194.64466874999923,,,,,,,,,,,,,,,,,,,,,,,,,,,,,,left,0.0,4.044142958009616,,,,,,sub-052,1,random_dot,,
left,left,11.0,1.0,5.0,left,1.0,2.62775062500441,,speed,space,2.493904290997307,,,,,,0.0,0.0,0.0,1.0,5.0,1.0,11.0,0.0,194.6526819580031,,,,,,,,,194.64517004099616,194.73673079100263,195.53549066599223,195.527298874993,195.52789199999825,195.53549066599223,195.53549066599223,195.53549066599223,,198.16842291600187,,,,,,,,,,,,,,,,,,,,,,,,,,,,,,left,1.0,2.62775062500441,,,,,,sub-052,1,random_dot,,
left,left,12.0,0.0,6.0,right,0.0,0.9585406250116648,,speed,space,2.493904290997307,,,,,,0.0,0.0,0.0,1.0,6.0,0.0,12.0,0.0,198.1764314579923,,,,,,,,,198.1689262500004,198.2677869579929,199.06975087500177,199.06083016599587,199.06155679099905,199.06975087500177,199.06975087500177,199.06975087500177,,200.0348388330021,,,,,,,,,,,,,,,,,,,,,,,,,,,,,,right,0.0,0.9585406250116648,,,,,,sub-052,1,random_dot,,
right,right,13.0,1.0,6.0,right,1.0,1.857731875003083,,speed,space,2.493904290997307,,,,,,0.0,0.0,0.0,1.0,6.0,1.0,13.0,1.0,200.0424049160065,,,,,,,,,200.03532166600053,200.38444658300432,201.18551120799384,201.1775072080054,201.17808629099451,201.18551120799384,201.18551120799384,201.18551120799384,,203.04494679099295,,,,,,,,,,,,,,,,,,,,,,,,,,,,,,right,1.0,1.857731875003083,,,,,,sub-052,1,random_dot,,
right,right,14.0,0.0,7.0,left,0.0,4.91452633299923,,speed,space,2.493904290997307,,,,,,0.0,0.0,0.0,1.0,7.0,0.0,14.0,1.0,203.05035208299523,,,,,,,,,203.0454844579945,203.38362933299504,204.1767232499988,204.16682850000507,204.1674072080059,204.1767232499988,204.1767232499988,204.1767232499988,,209.09476616600296,,,,,,,,,,,,,,,,,,,,,,,,,,,,,,left,0.0,4.91452633299923,,,,,,sub-052,1,random_dot,,
left,left,15.0,1.0,7.0,right,0.0,2.583261499996297,,speed,space,2.493904290997307,,,,,,0.0,0.0,0.0,1.0,7.0,1.0,15.0,0.0,209.1021288750053,,,,,,,,,209.0952612910041,209.4349311249971,210.2359850829962,210.22754483300375,210.2282417499955,210.2359850829962,210.2359850829962,210.2359850829962,,212.8282298749982,,,,,,,,,,,,,,,,,,,,,,,,,,,,,,right,0.0,2.583261499996297,,,,,,sub-052,1,random_dot,,
right,right,16.0,0.0,8.0,left,0.0,5.4390643749939045,,speed,space,2.493904290997307,,,,,,0.0,0.0,0.0,1.0,8.0,0.0,16.0,1.0,212.83597179100616,,,,,,,,,212.8287174159923,212.91698833300325,213.71044879099645,213.7000582909968,213.70064724999247,213.71044879099645,213.71044879099645,213.71044879099645,218.6939888329944,219.15209341599257,,,,,,,,,,,,,,,,,,,,,,,,,,,,,,left,0.0,5.4390643749939045,,,,,,sub-052,1,random_dot,,
left,left,17.0,1.0,8.0,left,1.0,3.810793291995651,,speed,space,2.493904290997307,,,,,,0.0,0.0,0.0,1.0,8.0,1.0,17.0,0.0,219.17731133299824,,,,,,,,,219.15269529100624,220.3516550409986,221.15251108299708,221.14456274999247,221.14512479100085,221.15251108299708,221.15251108299708,221.15251108299708,,224.9691918750032,,,,,,,,,,,,,,,,,,,,,,,,,,,,,,left,1.0,3.810793291995651,,,,,,sub-052,1,random_dot,,
left,left,18.0,0.0,9.0,right,0.0,3.794735999996192,,speed,space,2.493904290997307,,,,,,0.0,0.0,0.0,1.0,9.0,0.0,18.0,0.0,224.97670275000564,,,,,,,,,224.96969208300288,225.31849795799644,226.1192936659936,226.11124450000352,226.11188429099275,226.1192936659936,226.1192936659936,226.1192936659936,,229.9191941659956,,,,,,,,,,,,,,,,,,,,,,,,,,,,,,right,0.0,3.794735999996192,,,,,,sub-052,1,random_dot,,
right,right,19.0,1.0,9.0,right,1.0,4.476508082996588,,speed,space,2.493904290997307,,,,,,0.0,0.0,0.0,1.0,9.0,1.0,19.0,1.0,229.92668091600356,,,,,,,,,229.91969970799985,231.11764616599248,231.91066612499708,231.90060116599489,231.9012131250056,231.91066612499708,231.91066612499708,231.91066612499708,,236.39530620799636,,,,,,,,,,,,,,,,,,,,,,,,,,,,,,right,1.0,4.476508082996588,,,,,,sub-052,1,random_dot,,
right,right,20.0,0.0,10.0,left,0.0,4.607262167002773,,speed,space,2.493904290997307,,,,,,0.0,0.0,0.0,1.0,10.0,0.0,20.0,1.0,236.4026667500002,,,,,,,,,236.3957988750044,236.7354433330038,237.5364319999935,237.52826129099407,237.5288518330053,237.5364319999935,237.5364319999935,237.5364319999935,,242.14551941599348,,,,,,,,,,,,,,,,,,,,,,,,,,,,,,left,0.0,4.607262167002773,,,,,,sub-052,1,random_dot,,
left,left,21.0,1.0,10.0,left,1.0,4.966672166003264,,speed,space,2.493904290997307,,,,,,0.0,0.0,0.0,1.0,10.0,1.0,21.0,0.0,242.1505192909972,,,,,,,,,242.1460117079987,242.93521604100533,243.7369769999932,243.7284560830012,243.72915891600127,243.7369769999932,243.7369769999932,243.7369769999932,248.7204502079985,248.7125082910061,,,,,,,,,,,,,,,,,,,,,,,,,,,,,,left,1.0,4.966672166003264,,,,,,sub-052,1,random_dot,,
right,right,22.0,0.0,11.0,right,1.0,3.464793249993818,,speed,space,2.493904290997307,,,,,,0.0,0.0,0.0,1.0,11.0,0.0,22.0,1.0,248.7204502079985,,,,,,,,,248.7131471659959,249.9022954579996,250.70375495799817,250.6954164159979,250.6959919159999,250.70375495799817,250.70375495799817,250.70375495799817,,254.179323999997,,,,,,,,,,,,,,,,,,,,,,,,,,,,,,right,1.0,3.464793249993818,,,,,,sub-052,1,random_dot,,
left,left,23.0,1.0,11.0,right,0.0,2.7315058749954915,,speed,space,2.493904290997307,,,,,,0.0,0.0,0.0,1.0,11.0,1.0,23.0,0.0,254.18690662499284,,,,,,,,,254.17983291599376,254.2689612910035,255.06996649999928,255.0620066660049,255.06261170799556,255.06996649999928,255.06996649999928,255.06996649999928,,257.81308829100453,,,,,,,,,,,,,,,,,,,,,,,,,,,,,,right,0.0,2.7315058749954915,,,,,,sub-052,1,random_dot,,
right,right,24.0,0.0,12.0,right,1.0,5.618186667008558,,speed,space,2.493904290997307,,,,,,0.0,0.0,0.0,1.0,12.0,0.0,24.0,1.0,257.8214283749985,,,,,,,,,257.8137120409956,258.1615618329961,258.9544793749956,258.9456563749991,258.9463414159982,258.9544793749956,258.9544793749956,258.9544793749956,263.9341004580056,264.5801088330045,,,,,,,,,,,,,,,,,,,,,,,,,,,,,,right,1.0,5.618186667008558,,,,,,sub-052,1,random_dot,,
left,left,25.0,1.0,12.0,left,1.0,4.84015033300966,,speed,space,2.493904290997307,,,,,,0.0,0.0,0.0,1.0,12.0,1.0,25.0,0.0,264.5892533330043,,,,,,,,,264.5808470829943,265.3787020830059,266.1708002079977,266.1623192499974,266.1629959580023,266.1708002079977,266.1708002079977,266.1708002079977,,271.012963125002,,,,,,,,,,,,,,,,,,,,,,,,,,,,,,left,1.0,4.84015033300966,,,,,,sub-052,1,random_dot,,
right,right,26.0,0.0,13.0,left,0.0,4.3804781249928055,,speed,space,2.493904290997307,,,,,,0.0,0.0,0.0,1.0,13.0,0.0,26.0,1.0,271.018028874998,,,,,,,,,271.0134584579937,271.3526613330032,272.153464832998,272.14572412500274,272.1462199160014,272.153464832998,272.153464832998,272.153464832998,,276.5363062079996,,,,,,,,,,,,,,,,,,,,,,,,,,,,,,left,0.0,4.3804781249928055,,,,,,sub-052,1,random_dot,,
left,left,27.0,1.0,13.0,left,1.0,5.47796804200334,,speed,space,2.493904290997307,,,,,,0.0,0.0,0.0,1.0,13.0,1.0,27.0,0.0,276.5452623750025,,,,,,,,,276.53678629100614,277.73616124999535,278.5374452910037,278.5292424579966,278.52985716599505,278.5374452910037,278.5374452910037,278.5374452910037,283.5178090410045,284.0204800829961,,,,,,,,,,,,,,,,,,,,,,,,,,,,,,left,1.0,5.47796804200334,,,,,,sub-052,1,random_dot,,
left,left,28.0,0.0,14.0,right,0.0,4.37130425000214,,speed,space,2.493904290997307,,,,,,0.0,0.0,0.0,1.0,14.0,0.0,28.0,0.0,284.0452850409929,,,,,,,,,284.021122457998,284.3697140409932,285.1712476660032,285.16281662500114,285.1634692910011,285.1712476660032,285.1712476660032,285.1712476660032,,289.5466522909992,,,,,,,,,,,,,,,,,,,,,,,,,,,,,,right,0.0,4.37130425000214,,,,,,sub-052,1,random_dot,,
right,right,29.0,1.0,14.0,left,0.0,4.101255917004892,,speed,space,2.493904290997307,,,,,,0.0,0.0,0.0,1.0,14.0,1.0,29.0,1.0,289.5546343330061,,,,,,,,,289.5471910000051,290.3354136249982,291.1369627910026,291.12943516600353,291.1299604999949,291.1369627910026,291.1369627910026,291.1369627910026,,295.24690054099483,,,,,,,,,,,,,,,,,,,,,,,,,,,,,,left,0.0,4.101255917004892,,,,,,sub-052,1,random_dot,,
right,right,30.0,0.0,15.0,right,1.0,3.795685874996707,,speed,space,2.493904290997307,,,,,,0.0,0.0,0.0,1.0,15.0,0.0,30.0,1.0,295.2546068329975,,,,,,,,,295.2474024160037,296.0365184580005,296.8378021249955,296.8294593330065,296.83005179099564,296.8378021249955,296.8378021249955,296.8378021249955,,300.6366648749972,,,,,,,,,,,,,,,,,,,,,,,,,,,,,,right,1.0,3.795685874996707,,,,,,sub-052,1,random_dot,,
left,left,31.0,1.0,15.0,left,1.0,5.343474209003034,,speed,space,2.493904290997307,,,,,,0.0,0.0,0.0,1.0,15.0,1.0,31.0,0.0,300.64577324999846,,,,,,,,,300.63715875000344,301.8366407499998,302.6384365410049,302.6297271660005,302.6303373330011,302.6384365410049,302.6384365410049,302.6384365410049,307.6184997499949,307.9874179579929,,,,,,,,,,,,,,,,,,,,,,,,,,,,,,left,1.0,5.343474209003034,,,,,,sub-052,1,random_dot,,
right,right,32.0,0.0,16.0,left,0.0,5.465182207990438,,speed,space,2.493904290997307,,,,,,0.0,0.0,0.0,1.0,16.0,0.0,32.0,1.0,307.99620412499644,,,,,,,,,307.98804891599866,308.33673233300215,309.13772245800646,309.1297389160027,309.1303093330061,309.13772245800646,309.13772245800646,309.13772245800646,314.1187607500033,314.6146845829935,,,,,,,,,,,,,,,,,,,,,,,,,,,,,,left,0.0,5.465182207990438,,,,,,sub-052,1,random_dot,,
left,left,33.0,1.0,16.0,right,0.0,1.8353323329938576,,speed,space,2.493904290997307,,,,,,0.0,0.0,0.0,1.0,16.0,1.0,33.0,0.0,314.62436524999794,,,,,,,,,314.615430165999,314.963230666006,315.75470241600124,315.74671799999487,315.747301291005,315.75470241600124,315.75470241600124,315.75470241600124,,317.5970616660052,,,,,,,,,,,,,,,,,,,,,,,,,,,,,,right,0.0,1.8353323329938576,,,,,,sub-052,1,random_dot,,
left,left,34.0,0.0,17.0,right,0.0,2.2454005000035977,,speed,space,2.493904290997307,,,,,,0.0,0.0,0.0,1.0,17.0,0.0,34.0,0.0,317.6044950409996,,,,,,,,,317.59756354099954,318.78711841600307,319.58828833300504,319.5799984579935,319.5806023750047,319.58828833300504,319.58828833300504,319.58828833300504,,321.8379577500018,,,,,,,,,,,,,,,,,,,,,,,,,,,,,,right,0.0,2.2454005000035977,,,,,,sub-052,1,random_dot,,
right,right,35.0,1.0,17.0,right,1.0,5.297872082999675,,speed,space,2.493904290997307,,,,,,0.0,0.0,0.0,1.0,17.0,1.0,35.0,1.0,321.84538233300555,,,,,,,,,321.8384436250053,323.0360272079997,323.829377749993,323.8194873330067,323.8200967080047,323.829377749993,323.829377749993,323.829377749993,328.8133874159976,329.13151679099246,,,,,,,,,,,,,,,,,,,,,,,,,,,,,,right,1.0,5.297872082999675,,,,,,sub-052,1,random_dot,,
left,left,36.0,0.0,18.0,right,0.0,5.494518499996048,,speed,space,2.493904290997307,,,,,,0.0,0.0,0.0,1.0,18.0,0.0,36.0,0.0,329.1407158749935,,,,,,,,,329.13226304099953,329.9299643330014,330.7214720000047,330.7134540410043,330.71399608299544,330.7214720000047,330.7214720000047,330.7214720000047,335.7024962909927,336.22085879099905,,,,,,,,,,,,,,,,,,,,,,,,,,,,,,right,0.0,5.494518499996048,,,,,,sub-052,1,random_dot,,
right,right,37.0,1.0,18.0,left,0.0,2.8330500410083914,,speed,space,2.493904290997307,,,,,,0.0,0.0,0.0,1.0,18.0,1.0,37.0,1.0,336.2296834159933,,,,,,,,,336.22141766600544,336.57090308300394,337.3720232909982,337.3639924159943,337.36455712499446,337.3720232909982,337.3720232909982,337.3720232909982,,340.2142327909969,,,,,,,,,,,,,,,,,,,,,,,,,,,,,,left,0.0,2.8330500410083914,,,,,,sub-052,1,random_dot,,
right,right,38.0,0.0,19.0,left,0.0,4.209286917001009,,speed,space,2.493904290997307,,,,,,0.0,0.0,0.0,1.0,19.0,0.0,38.0,1.0,340.2214337079931,,,,,,,,,340.2146224580065,340.30315316599444,341.0964157080016,341.0860601250024,341.08668475000013,341.0964157080016,341.0964157080016,341.0964157080016,,345.3143932910025,,,,,,,,,,,,,,,,,,,,,,,,,,,,,,left,0.0,4.209286917001009,,,,,,sub-052,1,random_dot,,
left,left,39.0,1.0,19.0,left,1.0,3.986258832999738,,speed,space,2.493904290997307,,,,,,0.0,0.0,0.0,1.0,19.0,1.0,39.0,0.0,345.3217023329926,,,,,,,,,345.31489791600325,346.50417699999525,347.306042915996,347.2973548750015,347.2980649579986,347.306042915996,347.306042915996,347.306042915996,,351.298491708003,,,,,,,,,,,,,,,,,,,,,,,,,,,,,,left,1.0,3.986258832999738,,,,,,sub-052,1,random_dot,,
left,left,40.0,0.0,20.0,left,1.0,3.130308749998221,,speed,space,2.493904290997307,,,,,,0.0,0.0,0.0,1.0,20.0,0.0,40.0,0.0,351.3062217499973,,,,,,,,,351.29915049999545,352.49721016599506,353.28900350000185,353.28078629099764,353.28141020800103,353.28900350000185,353.28900350000185,353.28900350000185,,356.42192962499394,,,,,,,,,,,,,,,,,,,,,,,,,,,,,,left,1.0,3.130308749998221,,,,,,sub-052,1,random_dot,,
right,right,41.0,1.0,20.0,right,1.0,2.842458707993501,,speed,space,2.493904290997307,,,,,,0.0,0.0,0.0,1.0,20.0,1.0,41.0,1.0,356.43019412500144,,,,,,,,,356.4224213749985,357.2209291250037,358.02243504099897,358.0142486660043,358.01484841600177,358.02243504099897,358.02243504099897,358.02243504099897,,360.8715588750056,,,,,,,,,,,,,,,,,,,,,,,,,,,,,,right,1.0,2.842458707993501,,,,,,sub-052,1,random_dot,,
left,left,42.0,0.0,21.0,right,0.0,5.03685845900327,,speed,space,2.493904290997307,,,,,,0.0,0.0,0.0,1.0,21.0,0.0,42.0,0.0,360.8792412079929,,,,,,,,,360.872046125005,362.07136279100087,362.8730391249992,362.8643730829936,362.865040040997,362.8730391249992,362.8730391249992,362.8730391249992,367.8521904999943,367.9157360829995,,,,,,,,,,,,,,,,,,,,,,,,,,,,,,right,0.0,5.03685845900327,,,,,,sub-052,1,random_dot,,
right,right,43.0,1.0,21.0,right,1.0,3.017199708992848,,speed,space,2.493904290997307,,,,,,0.0,0.0,0.0,1.0,21.0,1.0,43.0,1.0,367.92513649999455,,,,,,,,,367.91647883299447,369.1143299999967,369.906470957998,369.89782016600657,369.8985005830036,369.906470957998,369.906470957998,369.906470957998,,372.9322249160032,,,,,,,,,,,,,,,,,,,,,,,,,,,,,,right,1.0,3.017199708992848,,,,,,sub-052,1,random_dot,,
right,right,44.0,0.0,22.0,left,0.0,5.248945208993973,,speed,space,2.493904290997307,,,,,,0.0,0.0,0.0,1.0,22.0,0.0,44.0,1.0,372.9408432909986,,,,,,,,,372.932947082998,374.13094025000464,374.92299799999455,374.9145414160012,374.9151144159987,374.92299799999455,374.92299799999455,374.92299799999455,379.9032130830019,380.1826917500002,,,,,,,,,,,,,,,,,,,,,,,,,,,,,,left,0.0,5.248945208993973,,,,,,sub-052,1,random_dot,,
left,left,45.0,1.0,22.0,right,0.0,2.185827666995465,,speed,space,2.493904290997307,,,,,,0.0,0.0,0.0,1.0,22.0,1.0,45.0,0.0,380.19188441599545,,,,,,,,,380.1834311660059,381.3807803329983,382.172950082997,382.16472849999263,382.16526608300046,382.172950082997,382.172950082997,382.172950082997,,384.3654719159968,,,,,,,,,,,,,,,,,,,,,,,,,,,,,,right,0.0,2.185827666995465,,,,,,sub-052,1,random_dot,,
right,right,46.0,0.0,23.0,right,1.0,4.443346082989592,,speed,space,2.493904290997307,,,,,,0.0,0.0,0.0,1.0,23.0,0.0,46.0,1.0,384.3738563749939,,,,,,,,,384.3660217080033,385.1551452910062,385.956905375002,385.9483291249926,385.9489952080039,385.956905375002,385.956905375002,385.956905375002,,390.4060842079925,,,,,,,,,,,,,,,,,,,,,,,,,,,,,,right,1.0,4.443346082989592,,,,,,sub-052,1,random_dot,,
left,left,47.0,1.0,23.0,left,1.0,3.2020323339966126,,speed,space,2.493904290997307,,,,,,0.0,0.0,0.0,1.0,23.0,1.0,47.0,0.0,390.4139887909987,,,,,,,,,390.4065735829936,391.20425033300126,391.9975019580015,391.9874456249963,391.9880525409972,391.9975019580015,391.9975019580015,391.9975019580015,,395.2055535410036,,,,,,,,,,,,,,,,,,,,,,,,,,,,,,left,1.0,3.2020323339966126,,,,,,sub-052,1,random_dot,,
left,left,48.0,0.0,24.0,right,0.0,2.0414117090112995,,speed,space,2.493904290997307,,,,,,0.0,0.0,0.0,1.0,24.0,0.0,48.0,0.0,395.21316529100295,,,,,,,,,395.2060365409998,395.3067725000001,396.10640558300656,396.09848287499335,396.099067749994,396.10640558300656,396.10640558300656,396.10640558300656,,398.1553458330018,,,,,,,,,,,,,,,,,,,,,,,,,,,,,,right,0.0,2.0414117090112995,,,,,,sub-052,1,random_dot,,
right,right,49.0,1.0,24.0,right,1.0,2.925151959003415,,speed,space,2.493904290997307,,,,,,0.0,0.0,0.0,1.0,24.0,1.0,49.0,1.0,398.1637234160007,,,,,,,,,398.1558253330004,399.3556578330026,400.15649574999406,400.1484912500018,400.1490658749972,400.15649574999406,400.15649574999406,400.15649574999406,,403.08980200000224,,,,,,,,,,,,,,,,,,,,,,,,,,,,,,right,1.0,2.925151959003415,,,,,,sub-052,1,random_dot,,
right,right,50.0,0.0,25.0,right,1.0,4.640805290997378,,speed,space,2.493904290997307,,,,,,0.0,0.0,0.0,1.0,25.0,0.0,50.0,1.0,403.0974447500048,,,,,,,,,403.090295832997,403.88769483299984,404.68113675000495,404.6708190829959,404.67140945799474,404.68113675000495,404.68113675000495,404.68113675000495,,409.3325547910063,,,,,,,,,,,,,,,,,,,,,,,,,,,,,,right,1.0,4.640805290997378,,,,,,sub-052,1,random_dot,,
left,left,51.0,1.0,25.0,right,0.0,4.845812916013529,,speed,space,2.493904290997307,,,,,,0.0,0.0,0.0,1.0,25.0,1.0,51.0,0.0,409.3403397499933,,,,,,,,,409.33309829099744,410.5223999159935,411.32382545800647,411.3154927080032,411.3160628750047,411.32382545800647,411.32382545800647,411.32382545800647,,416.1726206250023,,,,,,,,,,,,,,,,,,,,,,,,,,,,,,right,0.0,4.845812916013529,,,,,,sub-052,1,random_dot,,
right,right,52.0,0.0,26.0,left,0.0,2.708158875000663,,speed,space,2.493904290997307,,,,,,0.0,0.0,0.0,1.0,26.0,0.0,52.0,1.0,416.1805807079945,,,,,,,,,416.1731279999949,416.97270729100273,417.7734575000068,417.7655417909991,417.7661246250064,417.7734575000068,417.7734575000068,417.7734575000068,,420.4895129159995,,,,,,,,,,,,,,,,,,,,,,,,,,,,,,left,0.0,2.708158875000663,,,,,,sub-052,1,random_dot,,
left,left,53.0,1.0,26.0,left,1.0,2.7363255829986883,,speed,space,2.493904290997307,,,,,,0.0,0.0,0.0,1.0,26.0,1.0,53.0,0.0,420.4980904999975,,,,,,,,,420.4899222499953,420.58963558300456,421.3904099579959,421.3822927909932,421.38287108299846,421.3904099579959,421.3904099579959,421.3904099579959,,424.1329814159981,,,,,,,,,,,,,,,,,,,,,,,,,,,,,,left,1.0,2.7363255829986883,,,,,,sub-052,1,random_dot,,
left,left,54.0,0.0,27.0,left,1.0,3.5958071670029312,,speed,space,2.493904290997307,,,,,,0.0,0.0,0.0,1.0,27.0,0.0,54.0,0.0,424.1406031249935,,,,,,,,,424.1334597499954,424.9226135000063,425.72351387499657,425.71556962499744,425.7161483749951,425.72351387499657,425.72351387499657,425.72351387499657,,429.3236546660046,,,,,,,,,,,,,,,,,,,,,,,,,,,,,,left,1.0,3.5958071670029312,,,,,,sub-052,1,random_dot,,
right,right,55.0,1.0,27.0,right,1.0,2.951937542005908,,speed,space,2.493904290997307,,,,,,0.0,0.0,0.0,1.0,27.0,1.0,55.0,1.0,429.3317063330032,,,,,,,,,429.3241335829953,430.52296387500246,431.3244444159936,431.3159646660061,431.31663104100153,431.3244444159936,431.3244444159936,431.3244444159936,,434.2834741249972,,,,,,,,,,,,,,,,,,,,,,,,,,,,,,right,1.0,2.951937542005908,,,,,,sub-052,1,random_dot,,
left,left,56.0,0.0,28.0,right,0.0,4.4266914170002565,,speed,space,2.493904290997307,,,,,,0.0,0.0,0.0,1.0,28.0,0.0,56.0,0.0,434.29190395800106,,,,,,,,,434.2840142500063,435.0820752909931,435.8748895000026,435.86609558299824,435.86677391600097,435.8748895000026,435.8748895000026,435.8748895000026,,440.3070298329985,,,,,,,,,,,,,,,,,,,,,,,,,,,,,,right,0.0,4.4266914170002565,,,,,,sub-052,1,random_dot,,
right,right,57.0,1.0,28.0,right,1.0,4.680131083005108,,speed,space,2.493904290997307,,,,,,0.0,0.0,0.0,1.0,28.0,1.0,57.0,1.0,440.3144428329979,,,,,,,,,440.3075042080018,441.5054738750041,442.29877737500647,442.2882137499983,442.2887352079997,442.29877737500647,442.29877737500647,442.29877737500647,,446.9831642079953,,,,,,,,,,,,,,,,,,,,,,,,,,,,,,right,1.0,4.680131083005108,,,,,,sub-052,1,random_dot,,
left,left,58.0,0.0,29.0,left,1.0,4.325500999999349,,speed,space,2.493904290997307,,,,,,0.0,0.0,0.0,1.0,29.0,0.0,58.0,0.0,446.9882017909986,,,,,,,,,446.98365229100455,447.071945165997,447.8648486659949,447.8550609579979,447.85566450000624,447.8648486659949,447.8648486659949,447.8648486659949,,452.2002787499951,,,,,,,,,,,,,,,,,,,,,,,,,,,,,,left,1.0,4.325500999999349,,,,,,sub-052,1,random_dot,,
right,right,59.0,1.0,29.0,left,0.0,4.223987624995061,,speed,space,2.493904290997307,,,,,,0.0,0.0,0.0,1.0,29.0,1.0,59.0,1.0,452.2075807910005,,,,,,,,,452.200744791,453.3991706249944,454.1937555829936,454.1831254580029,454.1838130410033,454.1937555829936,454.1937555829936,454.1937555829936,,458.4243872079969,,,,,,,,,,,,,,,,,,,,,,,,,,,,,,left,0.0,4.223987624995061,,,,,,sub-052,1,random_dot,,
,,0.0,0.0,0.0,,,,,speed,space,2.493904290997307,,,,,,0.0,0.0,0.0,1.0,,,,,,,,,,,,,,,,,,,,,,,,,,,,,,,,,,,,,,,,,,,,,,,,,,,,,,,,,,,,,sub-052,1,random_dot,,
left,left,0.0,0.0,0.0,left,1.0,6.072347000008449,,accuracy,space,3.898536999986391,,,,,,0.0,1.0,1.0,0.0,0.0,0.0,0.0,0.0,462.3694033329957,,,,,,,,,462.3605313750013,462.6994764999981,463.4909995829949,463.4830025410047,463.4836132079945,463.4909995829949,463.4909995829949,463.4909995829949,468.4711502910068,469.56785687500087,,,,,,,,,,,,,,,,,,,,,,,458.44244508299744,458.4504317910032,458.4504317910032,462.3509111250023,space,3.898536999986391,,left,1.0,6.072347000008449,,,,,,sub-052,1,random_dot,,
right,right,1.0,1.0,0.0,right,1.0,5.708916624993435,,accuracy,space,3.898536999986391,,,,,,0.0,1.0,1.0,0.0,0.0,1.0,1.0,1.0,469.57740408300015,,,,,,,,,469.56859420800174,469.6665825829986,470.4579990829952,470.4500457079994,470.4506479999982,470.4579990829952,470.4579990829952,470.4579990829952,475.4386140410061,476.1745812080044,,,,,,,,,,,,,,,,,,,,,,,,,,,,,,right,1.0,5.708916624993435,,,,,,sub-052,1,random_dot,,
right,right,2.0,0.0,1.0,right,1.0,5.303040541999508,,accuracy,space,3.898536999986391,,,,,,0.0,1.0,1.0,0.0,1.0,0.0,2.0,1.0,476.1995540409989,,,,,,,,,476.17520495799545,476.9739150829992,477.7753007499996,477.766904832999,477.7675756249955,477.7753007499996,477.7753007499996,477.7753007499996,482.7553728750063,483.0846468749951,,,,,,,,,,,,,,,,,,,,,,,,,,,,,,right,1.0,5.303040541999508,,,,,,sub-052,1,random_dot,,
left,left,3.0,1.0,1.0,left,1.0,5.168337209004676,,accuracy,space,3.898536999986391,,,,,,0.0,1.0,1.0,0.0,1.0,1.0,3.0,0.0,483.0938440829923,,,,,,,,,483.0852531249984,483.4330789160013,484.22568150000006,484.217118665998,484.2177864580008,484.22568150000006,484.22568150000006,484.22568150000006,489.2055817079963,489.4020888329978,,,,,,,,,,,,,,,,,,,,,,,,,,,,,,left,1.0,5.168337209004676,,,,,,sub-052,1,random_dot,,
right,right,4.0,0.0,2.0,right,1.0,5.369244875008008,,accuracy,space,3.898536999986391,,,,,,0.0,1.0,1.0,0.0,2.0,0.0,4.0,1.0,489.4118838330032,,,,,,,,,489.4029667499999,489.7502331659925,490.5417305830051,490.5337889999937,490.5343425000028,490.5417305830051,490.5417305830051,490.5417305830051,495.52280462499766,495.9185986249941,,,,,,,,,,,,,,,,,,,,,,,,,,,,,,right,1.0,5.369244875008008,,,,,,sub-052,1,random_dot,,
left,left,5.0,1.0,2.0,left,1.0,4.731391499997699,,accuracy,space,3.898536999986391,,,,,,0.0,1.0,1.0,0.0,2.0,1.0,5.0,0.0,495.9276987079938,,,,,,,,,495.919278040994,496.7167250409984,497.5096908330015,497.5007323750033,497.5013009579998,497.5096908330015,497.5096908330015,497.5096908330015,,502.25154520799697,,,,,,,,,,,,,,,,,,,,,,,,,,,,,,left,1.0,4.731391499997699,,,,,,sub-052,1,random_dot,,
right,right,6.0,0.0,3.0,right,1.0,4.509699332993478,,accuracy,space,3.898536999986391,,,,,,0.0,1.0,1.0,0.0,3.0,0.0,6.0,1.0,502.2596566660068,,,,,,,,,502.252104625004,503.4411844580027,504.2427081250062,504.2341343750013,504.2348110000021,504.2427081250062,504.2427081250062,504.2427081250062,,508.7584423329972,,,,,,,,,,,,,,,,,,,,,,,,,,,,,,right,1.0,4.509699332993478,,,,,,sub-052,1,random_dot,,
left,left,7.0,1.0,3.0,right,0.0,5.780212333003874,,accuracy,space,3.898536999986391,,,,,,0.0,1.0,1.0,0.0,3.0,1.0,7.0,0.0,508.7661472909968,,,,,,,,,508.7589249580051,509.5577737910062,510.3595407499961,510.3510654999991,510.35181441600434,510.3595407499961,510.3595407499961,510.3595407499961,515.3395881250035,516.1418666660029,,,,,,,,,,,,,,,,,,,,,,,,,,,,,,right,0.0,5.780212333003874,,,,,,sub-052,1,random_dot,,
left,left,8.0,0.0,4.0,right,0.0,5.361104707990307,,accuracy,space,3.898536999986391,,,,,,0.0,1.0,1.0,0.0,4.0,0.0,8.0,0.0,516.1501933330001,,,,,,,,,516.1424297079939,517.3413708330045,518.1437765409937,518.1342999579938,518.1349355830025,518.1437765409937,518.1437765409937,518.1437765409937,523.1224974999932,523.5085930000059,,,,,,,,,,,,,,,,,,,,,,,,,,,,,,right,0.0,5.361104707990307,,,,,,sub-052,1,random_dot,,
right,right,9.0,1.0,4.0,left,0.0,5.366987500005052,,accuracy,space,3.898536999986391,,,,,,0.0,1.0,1.0,0.0,4.0,1.0,9.0,1.0,523.5174438329996,,,,,,,,,523.509184124996,523.607001041004,524.4003410000005,524.3904620829999,524.391109958,524.4003410000005,524.4003410000005,524.4003410000005,529.3839449579973,529.7691547499999,,,,,,,,,,,,,,,,,,,,,,,,,,,,,,left,0.0,5.366987500005052,,,,,,sub-052,1,random_dot,,
left,left,10.0,0.0,5.0,left,1.0,5.659822292000172,,accuracy,space,3.898536999986391,,,,,,0.0,1.0,1.0,0.0,5.0,0.0,10.0,0.0,529.7751807500026,,,,,,,,,529.7699027500057,529.8676846250019,530.6592744999944,530.6512457079953,530.6518365829979,530.6592744999944,530.6592744999944,530.6592744999944,535.6395055409957,536.3258428330009,,,,,,,,,,,,,,,,,,,,,,,,,,,,,,left,1.0,5.659822292000172,,,,,,sub-052,1,random_dot,,
right,right,11.0,1.0,5.0,left,0.0,4.977654707996408,,accuracy,space,3.898536999986391,,,,,,0.0,1.0,1.0,0.0,5.0,1.0,11.0,1.0,536.350765915995,,,,,,,,,536.3264716660051,536.4251084999996,537.2268171250034,537.2180701250036,537.2187845409935,537.2268171250034,537.2268171250034,537.2268171250034,542.2062959579926,542.2075600410026,,,,,,,,,,,,,,,,,,,,,,,,,,,,,,left,0.0,4.977654707996408,,,,,,sub-052,1,random_dot,,
right,right,12.0,0.0,6.0,left,0.0,6.529783792007947,,accuracy,space,3.898536999986391,,,,,,0.0,1.0,1.0,0.0,6.0,0.0,12.0,1.0,542.2174174999964,,,,,,,,,542.2080493329995,542.5511880830018,543.3429821659956,543.3350896250049,543.3356685409963,543.3429821659956,543.3429821659956,543.3429821659956,548.3230010410043,549.8757665830053,,,,,,,,,,,,,,,,,,,,,,,,,,,,,,left,0.0,6.529783792007947,,,,,,sub-052,1,random_dot,,
left,left,13.0,1.0,6.0,left,1.0,4.257302166995942,,accuracy,space,3.898536999986391,,,,,,0.0,1.0,1.0,0.0,6.0,1.0,13.0,0.0,549.8844927080063,,,,,,,,,549.8763383329933,550.6753687500022,551.4764580000046,551.4684849579935,551.4690677500039,551.4764580000046,551.4764580000046,551.4764580000046,,555.7357498750061,,,,,,,,,,,,,,,,,,,,,,,,,,,,,,left,1.0,4.257302166995942,,,,,,sub-052,1,random_dot,,
right,right,14.0,0.0,7.0,right,1.0,2.5176420000061626,,accuracy,space,3.898536999986391,,,,,,0.0,1.0,1.0,0.0,7.0,0.0,14.0,1.0,555.7408271250024,,,,,,,,,555.736245291002,556.925639041001,557.7265032080031,557.7185088749975,557.719113375002,557.7265032080031,557.7265032080031,557.7265032080031,,560.2525613329926,,,,,,,,,,,,,,,,,,,,,,,,,,,,,,right,1.0,2.5176420000061626,,,,,,sub-052,1,random_dot,,
left,left,15.0,1.0,7.0,right,0.0,3.974865207987023,,accuracy,space,3.898536999986391,,,,,,0.0,1.0,1.0,0.0,7.0,1.0,15.0,0.0,560.2612159580021,,,,,,,,,560.2531077500025,561.0423396249971,561.8432397500001,561.8352212909958,561.8358188330021,561.8432397500001,561.8432397500001,561.8432397500001,,565.8256646660011,,,,,,,,,,,,,,,,,,,,,,,,,,,,,,right,0.0,3.974865207987023,,,,,,sub-052,1,random_dot,,
right,right,16.0,0.0,8.0,right,1.0,5.033517916992423,,accuracy,space,3.898536999986391,,,,,,0.0,1.0,1.0,0.0,8.0,0.0,16.0,1.0,565.8340112080041,,,,,,,,,565.8261576660007,565.9244987080019,566.7179020409967,566.7075954159955,566.708186541,566.7179020409967,566.7179020409967,566.7179020409967,571.7016704580019,571.753044750003,,,,,,,,,,,,,,,,,,,,,,,,,,,,,,right,1.0,5.033517916992423,,,,,,sub-052,1,random_dot,,
left,left,17.0,1.0,8.0,left,1.0,4.363881708995905,,accuracy,space,3.898536999986391,,,,,,0.0,1.0,1.0,0.0,8.0,1.0,17.0,0.0,571.7592137080064,,,,,,,,,571.7537828329951,571.8426352910028,572.643681290996,572.6355252499925,572.6361204580026,572.643681290996,572.643681290996,572.643681290996,,577.0095027909992,,,,,,,,,,,,,,,,,,,,,,,,,,,,,,left,1.0,4.363881708995905,,,,,,sub-052,1,random_dot,,
left,left,18.0,0.0,9.0,left,1.0,5.7245262500073295,,accuracy,space,3.898536999986391,,,,,,0.0,1.0,1.0,0.0,9.0,0.0,18.0,0.0,577.018269207998,,,,,,,,,577.010004583004,577.3594376660039,578.1609579159995,578.1522827909939,578.1528844580025,578.1609579159995,578.1609579159995,578.1609579159995,583.1404553750035,583.893388291006,,,,,,,,,,,,,,,,,,,,,,,,,,,,,,left,1.0,5.7245262500073295,,,,,,sub-052,1,random_dot,,
right,right,19.0,1.0,9.0,right,1.0,5.025111291994108,,accuracy,space,3.898536999986391,,,,,,0.0,1.0,1.0,0.0,9.0,1.0,19.0,1.0,583.9185993330029,,,,,,,,,583.8939862910047,583.9929459999985,584.793948874998,584.7857369580015,584.7863345410005,584.793948874998,584.793948874998,584.793948874998,589.7746608750022,589.8268159580039,,,,,,,,,,,,,,,,,,,,,,,,,,,,,,right,1.0,5.025111291994108,,,,,,sub-052,1,random_dot,,
right,right,20.0,0.0,10.0,right,1.0,4.2302382919879165,,accuracy,space,3.898536999986391,,,,,,0.0,1.0,1.0,0.0,10.0,0.0,20.0,1.0,589.8520556659932,,,,,,,,,589.827438666005,590.6261893750052,591.4275842500065,591.4192479159974,591.419816958005,591.4275842500065,591.4275842500065,591.4275842500065,,595.6602045000036,,,,,,,,,,,,,,,,,,,,,,,,,,,,,,right,1.0,4.2302382919879165,,,,,,sub-052,1,random_dot,,
left,left,21.0,1.0,10.0,right,0.0,5.286000583000714,,accuracy,space,3.898536999986391,,,,,,0.0,1.0,1.0,0.0,10.0,1.0,21.0,0.0,595.6681887080049,,,,,,,,,595.6607010830048,596.4599339999986,597.2614616250066,597.252838165994,597.253545582993,597.2614616250066,597.2614616250066,597.2614616250066,602.2406691659999,602.5539410829952,,,,,,,,,,,,,,,,,,,,,,,,,,,,,,right,0.0,5.286000583000714,,,,,,sub-052,1,random_dot,,
right,right,22.0,0.0,11.0,right,1.0,5.5712408749968745,,accuracy,space,3.898536999986391,,,,,,0.0,1.0,1.0,0.0,11.0,0.0,22.0,1.0,602.5631135000003,,,,,,,,,602.5545701249939,603.3524036250019,604.1449726660067,604.1363403330033,604.1370593750034,604.1449726660067,604.1449726660067,604.1449726660067,609.1240873750066,609.7207587080047,,,,,,,,,,,,,,,,,,,,,,,,,,,,,,right,1.0,5.5712408749968745,,,,,,sub-052,1,random_dot,,
left,left,23.0,1.0,11.0,left,1.0,5.747274125009426,,accuracy,space,3.898536999986391,,,,,,0.0,1.0,1.0,0.0,11.0,1.0,23.0,0.0,609.7301159579947,,,,,,,,,609.7214880829997,610.9191965000064,611.7116631249955,611.7031016249966,611.7038026660011,611.7116631249955,611.7116631249955,611.7116631249955,616.6917727079999,617.4610097910045,,,,,,,,,,,,,,,,,,,,,,,,,,,,,,left,1.0,5.747274125009426,,,,,,sub-052,1,random_dot,,
left,left,24.0,0.0,12.0,left,1.0,4.45489270798862,,accuracy,space,3.898536999986391,,,,,,0.0,1.0,1.0,0.0,12.0,0.0,24.0,0.0,617.4691129580024,,,,,,,,,617.4616667079972,618.6591718749987,619.4523583749979,619.4425607500016,619.4431542910024,619.4523583749979,619.4523583749979,619.4523583749979,,623.9103666250012,,,,,,,,,,,,,,,,,,,,,,,,,,,,,,left,1.0,4.45489270798862,,,,,,sub-052,1,random_dot,,
right,right,25.0,1.0,12.0,left,0.0,3.8717354999971576,,accuracy,space,3.898536999986391,,,,,,0.0,1.0,1.0,0.0,12.0,1.0,25.0,1.0,623.9193694999994,,,,,,,,,623.9108440410055,624.7103749579983,625.5121587909962,625.5036220409966,625.5043334999937,625.5121587909962,625.5121587909962,625.5121587909962,,629.3870754999953,,,,,,,,,,,,,,,,,,,,,,,,,,,,,,left,0.0,3.8717354999971576,,,,,,sub-052,1,random_dot,,
right,right,26.0,0.0,13.0,right,1.0,4.387911792000523,,accuracy,space,3.898536999986391,,,,,,0.0,1.0,1.0,0.0,13.0,0.0,26.0,1.0,629.3944002500066,,,,,,,,,629.3875533329992,629.476001832998,630.2692372500023,630.2594834579941,630.2601034580002,630.2692372500023,630.2692372500023,630.2692372500023,,634.6613130000042,,,,,,,,,,,,,,,,,,,,,,,,,,,,,,right,1.0,4.387911792000523,,,,,,sub-052,1,random_dot,,
left,left,27.0,1.0,13.0,right,0.0,4.947900625003967,,accuracy,space,3.898536999986391,,,,,,0.0,1.0,1.0,0.0,13.0,1.0,27.0,0.0,634.6689320000005,,,,,,,,,634.6618107910035,635.8603544999933,636.6624177079939,636.6535943329945,636.6543098749971,636.6624177079939,636.6624177079939,636.6624177079939,,641.6208895830059,,,,,,,,,,,,,,,,,,,,,,,,,,,,,,right,0.0,4.947900625003967,,,,,,sub-052,1,random_dot,,
right,right,28.0,0.0,14.0,right,1.0,5.496318584002438,,accuracy,space,3.898536999986391,,,,,,0.0,1.0,1.0,0.0,14.0,0.0,28.0,1.0,641.6286822910042,,,,,,,,,641.6213845409948,641.7096635829948,642.5028595409967,642.4926933749957,642.4933799999999,642.5028595409967,642.5028595409967,642.5028595409967,647.4866352079989,648.0050263750018,,,,,,,,,,,,,,,,,,,,,,,,,,,,,,right,1.0,5.496318584002438,,,,,,sub-052,1,random_dot,,
left,left,29.0,1.0,14.0,left,1.0,4.399541666993173,,accuracy,space,3.898536999986391,,,,,,0.0,1.0,1.0,0.0,14.0,1.0,29.0,0.0,648.0141373749939,,,,,,,,,648.0056382079929,649.2032386250066,649.9950302499929,649.9870457499928,649.9876073750056,649.9950302499929,649.9950302499929,649.9950302499929,,654.4043629160005,,,,,,,,,,,,,,,,,,,,,,,,,,,,,,left,1.0,4.399541666993173,,,,,,sub-052,1,random_dot,,
right,right,30.0,0.0,15.0,right,1.0,5.82240470898978,,accuracy,space,3.898536999986391,,,,,,0.0,1.0,1.0,0.0,15.0,0.0,30.0,1.0,654.4121846659982,,,,,,,,,654.4048571250023,655.1926290830015,655.9865324999992,655.9765992080065,655.9772098749963,655.9865324999992,655.9865324999992,655.9865324999992,660.9702132079983,661.8117727909994,,,,,,,,,,,,,,,,,,,,,,,,,,,,,,right,1.0,5.82240470898978,,,,,,sub-052,1,random_dot,,
left,left,31.0,1.0,15.0,left,1.0,5.658232667003176,,accuracy,space,3.898536999986391,,,,,,0.0,1.0,1.0,0.0,15.0,1.0,31.0,0.0,661.836786083004,,,,,,,,,661.8123459579947,662.6099755829928,663.4033177910023,663.3934364580055,663.3940771250054,663.4033177910023,663.4033177910023,663.4033177910023,668.3873636659991,669.0720569160039,,,,,,,,,,,,,,,,,,,,,,,,,,,,,,left,1.0,5.658232667003176,,,,,,sub-052,1,random_dot,,
right,right,32.0,0.0,16.0,right,1.0,5.75804524999694,,accuracy,space,3.898536999986391,,,,,,0.0,1.0,1.0,0.0,16.0,0.0,32.0,1.0,669.0813906249969,,,,,,,,,669.0726685410045,669.8703139160061,670.6624614159955,670.6542789999949,670.6548486660031,670.6624614159955,670.6624614159955,670.6624614159955,675.6427568749932,676.4283392499929,,,,,,,,,,,,,,,,,,,,,,,,,,,,,,right,1.0,5.75804524999694,,,,,,sub-052,1,random_dot,,
left,left,33.0,1.0,16.0,right,0.0,2.501363792005577,,accuracy,space,3.898536999986391,,,,,,0.0,1.0,1.0,0.0,16.0,1.0,33.0,0.0,676.436498665993,,,,,,,,,676.4289564999926,676.7779319580004,677.5791583329992,677.5709876250039,677.5715869999985,677.5791583329992,677.5791583329992,677.5791583329992,,680.0884351660061,,,,,,,,,,,,,,,,,,,,,,,,,,,,,,right,0.0,2.501363792005577,,,,,,sub-052,1,random_dot,,
left,left,34.0,0.0,17.0,left,1.0,4.178856707992964,,accuracy,space,3.898536999986391,,,,,,0.0,1.0,1.0,0.0,17.0,0.0,34.0,0.0,680.095909124997,,,,,,,,,680.088926041004,680.8781200410012,681.6792297909997,681.6711941660033,681.6718131249945,681.6792297909997,681.6792297909997,681.6792297909997,,685.8619147080026,,,,,,,,,,,,,,,,,,,,,,,,,,,,,,left,1.0,4.178856707992964,,,,,,sub-052,1,random_dot,,
right,right,35.0,1.0,17.0,left,0.0,5.526224500004901,,accuracy,space,3.898536999986391,,,,,,0.0,1.0,1.0,0.0,17.0,1.0,35.0,1.0,685.8701853329985,,,,,,,,,685.8624139159947,686.6616931250028,687.4624704159942,687.4545443329989,687.4551374159928,687.4624704159942,687.4624704159942,687.4624704159942,692.4432846660056,692.9957055830018,,,,,,,,,,,,,,,,,,,,,,,,,,,,,,left,0.0,5.526224500004901,,,,,,sub-052,1,random_dot,,
left,left,36.0,0.0,18.0,right,0.0,4.529415708006127,,accuracy,space,3.898536999986391,,,,,,0.0,1.0,1.0,0.0,18.0,0.0,36.0,0.0,693.0208008329937,,,,,,,,,692.9963357079978,694.1949747909966,694.9963988749951,694.9882630000066,694.9888585830049,694.9963988749951,694.9963988749951,694.9963988749951,,699.5285820830031,,,,,,,,,,,,,,,,,,,,,,,,,,,,,,right,0.0,4.529415708006127,,,,,,sub-052,1,random_dot,,
right,right,37.0,1.0,18.0,right,1.0,5.815877332992386,,accuracy,space,3.898536999986391,,,,,,0.0,1.0,1.0,0.0,18.0,1.0,37.0,1.0,699.5376655,,,,,,,,,699.5289632500062,699.8786700829951,700.6802438750019,700.6715231249982,700.672103207995,700.6802438750019,700.6802438750019,700.6802438750019,705.660335624998,706.506274875006,,,,,,,,,,,,,,,,,,,,,,,,,,,,,,right,1.0,5.815877332992386,,,,,,sub-052,1,random_dot,,
left,left,38.0,0.0,19.0,left,1.0,3.280749999990803,,accuracy,space,3.898536999986391,,,,,,0.0,1.0,1.0,0.0,19.0,0.0,38.0,0.0,706.5159226660035,,,,,,,,,706.5070085829939,707.3053397909971,708.0972159999947,708.0886005409993,708.0892870410025,708.0972159999947,708.0972159999947,708.0972159999947,,711.389229249995,,,,,,,,,,,,,,,,,,,,,,,,,,,,,,left,1.0,3.280749999990803,,,,,,sub-052,1,random_dot,,
right,right,39.0,1.0,19.0,right,1.0,5.486902875010856,,accuracy,space,3.898536999986391,,,,,,0.0,1.0,1.0,0.0,19.0,1.0,39.0,1.0,711.3968856249994,,,,,,,,,711.389723040993,712.1778907080006,712.9709715829958,712.9609555829957,712.961601707997,712.9709715829958,712.9709715829958,712.9709715829958,717.9545297500008,718.4625874579942,,,,,,,,,,,,,,,,,,,,,,,,,,,,,,right,1.0,5.486902875010856,,,,,,sub-052,1,random_dot,,
left,left,40.0,0.0,20.0,left,1.0,2.986713666003197,,accuracy,space,3.898536999986391,,,,,,0.0,1.0,1.0,0.0,20.0,0.0,40.0,0.0,718.4712035410048,,,,,,,,,718.4632114580018,719.6624050829996,720.4630450410041,720.4552284579986,720.4558122909948,720.4630450410041,720.4630450410041,720.4630450410041,,723.4559733750066,,,,,,,,,,,,,,,,,,,,,,,,,,,,,,left,1.0,2.986713666003197,,,,,,sub-052,1,random_dot,,
right,right,41.0,1.0,20.0,left,0.0,4.792627958988305,,accuracy,space,3.898536999986391,,,,,,0.0,1.0,1.0,0.0,20.0,1.0,41.0,1.0,723.4639210830064,,,,,,,,,723.4566028749978,724.2448865000042,725.0379546250042,725.0277793330024,725.0283828329993,725.0379546250042,725.0379546250042,725.0379546250042,,729.8396857079933,,,,,,,,,,,,,,,,,,,,,,,,,,,,,,left,0.0,4.792627958988305,,,,,,sub-052,1,random_dot,,
right,right,42.0,0.0,21.0,right,1.0,4.145623125004931,,accuracy,space,3.898536999986391,,,,,,0.0,1.0,1.0,0.0,21.0,0.0,42.0,1.0,729.8482276249997,,,,,,,,,729.8402449580026,730.1794309999968,730.981260665998,730.9724330830068,730.973321832993,730.981260665998,730.981260665998,730.981260665998,,735.1296332909988,,,,,,,,,,,,,,,,,,,,,,,,,,,,,,right,1.0,4.145623125004931,,,,,,sub-052,1,random_dot,,
left,left,43.0,1.0,21.0,left,1.0,4.516981708002277,,accuracy,space,3.898536999986391,,,,,,0.0,1.0,1.0,0.0,21.0,1.0,43.0,0.0,735.1383772910049,,,,,,,,,735.1301154999965,736.3295357500028,737.1304550409986,737.1222371250042,737.1228407500021,737.1304550409986,737.1304550409986,737.1304550409986,,741.6562134160049,,,,,,,,,,,,,,,,,,,,,,,,,,,,,,left,1.0,4.516981708002277,,,,,,sub-052,1,random_dot,,
left,left,44.0,0.0,22.0,right,0.0,5.431474458004232,,accuracy,space,3.898536999986391,,,,,,0.0,1.0,1.0,0.0,22.0,0.0,44.0,0.0,741.6639797499956,,,,,,,,,741.6566897909943,741.9952549159934,742.7883214159956,742.7780504999973,742.7786071250011,742.7883214159956,742.7883214159956,742.7883214159956,747.7720116249984,748.224305124997,,,,,,,,,,,,,,,,,,,,,,,,,,,,,,right,0.0,5.431474458004232,,,,,,sub-052,1,random_dot,,
right,right,45.0,1.0,22.0,left,0.0,3.9011042909987736,,accuracy,space,3.898536999986391,,,,,,0.0,1.0,1.0,0.0,22.0,1.0,45.0,1.0,748.2333849580027,,,,,,,,,748.224950082993,749.0222798750037,749.8147160410008,749.8060699159978,749.8067355410021,749.8147160410008,749.8147160410008,749.8147160410008,,753.723365124999,,,,,,,,,,,,,,,,,,,,,,,,,,,,,,left,0.0,3.9011042909987736,,,,,,sub-052,1,random_dot,,
right,right,46.0,0.0,23.0,left,0.0,5.401795541998581,,accuracy,space,3.898536999986391,,,,,,0.0,1.0,1.0,0.0,23.0,0.0,46.0,1.0,753.7311656249949,,,,,,,,,753.7238546659937,754.9132135830005,755.7147105829936,755.7061268329999,755.7068049160007,755.7147105829936,755.7147105829936,755.7147105829936,760.6945849579934,761.1240132499952,,,,,,,,,,,,,,,,,,,,,,,,,,,,,,left,0.0,5.401795541998581,,,,,,sub-052,1,random_dot,,
left,left,47.0,1.0,23.0,right,0.0,5.324515458007227,,accuracy,space,3.898536999986391,,,,,,0.0,1.0,1.0,0.0,23.0,1.0,47.0,0.0,761.1334015829925,,,,,,,,,761.1246462910058,761.9224016249937,762.7149257499987,762.7063531250024,762.7070490409969,762.7149257499987,762.7149257499987,762.7149257499987,767.6941362499929,768.0474971660005,,,,,,,,,,,,,,,,,,,,,,,,,,,,,,right,0.0,5.324515458007227,,,,,,sub-052,1,random_dot,,
right,right,48.0,0.0,24.0,left,0.0,3.910187540997868,,accuracy,space,3.898536999986391,,,,,,0.0,1.0,1.0,0.0,24.0,0.0,48.0,1.0,768.0551546250063,,,,,,,,,768.048009332997,768.1464688749984,768.9479452499945,768.9397550410067,768.9404099999956,768.9479452499945,768.9479452499945,768.9479452499945,,772.8639194999996,,,,,,,,,,,,,,,,,,,,,,,,,,,,,,left,0.0,3.910187540997868,,,,,,sub-052,1,random_dot,,
left,left,49.0,1.0,24.0,left,1.0,5.403730666002957,,accuracy,space,3.898536999986391,,,,,,0.0,1.0,1.0,0.0,24.0,1.0,49.0,0.0,772.8719421249989,,,,,,,,,772.8644151659973,773.6634598749952,774.4647420830006,774.4565299160022,774.457118958002,774.4647420830006,774.4647420830006,774.4647420830006,779.4449560409994,779.8745915829932,,,,,,,,,,,,,,,,,,,,,,,,,,,,,,left,1.0,5.403730666002957,,,,,,sub-052,1,random_dot,,
right,right,50.0,0.0,25.0,right,1.0,5.395842792000622,,accuracy,space,3.898536999986391,,,,,,0.0,1.0,1.0,0.0,25.0,0.0,50.0,1.0,779.8834053750033,,,,,,,,,779.8751902499935,780.2227594580036,781.0147440830042,781.006708957997,781.0072561249981,781.0147440830042,781.0147440830042,781.0147440830042,785.995534332993,786.4132556660043,,,,,,,,,,,,,,,,,,,,,,,,,,,,,,right,1.0,5.395842792000622,,,,,,sub-052,1,random_dot,,
left,left,51.0,1.0,25.0,right,0.0,4.907272166994517,,accuracy,space,3.898536999986391,,,,,,0.0,1.0,1.0,0.0,25.0,1.0,51.0,0.0,786.4217776659934,,,,,,,,,786.4137846660014,787.6139014579967,788.415420958001,788.4068200409965,788.4075585410028,788.415420958001,788.415420958001,788.415420958001,,793.3306434580008,,,,,,,,,,,,,,,,,,,,,,,,,,,,,,right,0.0,4.907272166994517,,,,,,sub-052,1,random_dot,,
right,right,52.0,0.0,26.0,left,0.0,4.931244500010507,,accuracy,space,3.898536999986391,,,,,,0.0,1.0,1.0,0.0,26.0,0.0,52.0,1.0,793.339330207993,,,,,,,,,793.3311357500061,793.4293576659984,794.2227310409944,794.2129167910025,794.2135367080045,794.2227310409944,794.2227310409944,794.2227310409944,,799.1574995410047,,,,,,,,,,,,,,,,,,,,,,,,,,,,,,left,0.0,4.931244500010507,,,,,,sub-052,1,random_dot,,
left,left,53.0,1.0,26.0,right,0.0,5.6086806660023285,,accuracy,space,3.898536999986391,,,,,,0.0,1.0,1.0,0.0,26.0,1.0,53.0,0.0,799.1656384999951,,,,,,,,,799.1580862499977,799.4974007080018,800.2982537909993,800.2903230829979,800.2908952909929,800.2982537909993,800.2982537909993,800.2982537909993,805.2782268330047,805.9148213750013,,,,,,,,,,,,,,,,,,,,,,,,,,,,,,right,0.0,5.6086806660023285,,,,,,sub-052,1,random_dot,,
right,right,54.0,0.0,27.0,left,0.0,3.390596708006342,,accuracy,space,3.898536999986391,,,,,,0.0,1.0,1.0,0.0,27.0,0.0,54.0,1.0,805.9398176660034,,,,,,,,,805.9154333329934,806.0164321250049,806.8159594159952,806.8073200409999,806.8080018750043,806.8159594159952,806.8159594159952,806.8159594159952,,810.2081504579983,,,,,,,,,,,,,,,,,,,,,,,,,,,,,,left,0.0,3.390596708006342,,,,,,sub-052,1,random_dot,,
left,left,55.0,1.0,27.0,left,1.0,4.251785791988368,,accuracy,space,3.898536999986391,,,,,,0.0,1.0,1.0,0.0,27.0,1.0,55.0,0.0,810.2137403749948,,,,,,,,,810.2086977500003,810.5572169160005,811.3497416250029,811.340622290998,811.3411994159978,811.3497416250029,811.3497416250029,811.3497416250029,,815.6080365410016,,,,,,,,,,,,,,,,,,,,,,,,,,,,,,left,1.0,4.251785791988368,,,,,,sub-052,1,random_dot,,
right,right,56.0,0.0,28.0,right,1.0,5.275284290997661,,accuracy,space,3.898536999986391,,,,,,0.0,1.0,1.0,0.0,28.0,0.0,56.0,1.0,815.6164479580038,,,,,,,,,815.6085727909958,816.4072091660055,817.1990329160035,817.1907147909951,817.1913820829941,817.1990329160035,817.1990329160035,817.1990329160035,822.1799442909978,822.4814562079991,,,,,,,,,,,,,,,,,,,,,,,,,,,,,,right,1.0,5.275284290997661,,,,,,sub-052,1,random_dot,,
left,left,57.0,1.0,28.0,left,1.0,4.269905082997866,,accuracy,space,3.898536999986391,,,,,,0.0,1.0,1.0,0.0,28.0,1.0,57.0,0.0,822.4894162080018,,,,,,,,,822.4819455410034,823.6804355829954,824.482960082998,824.4742788330041,824.4749116250023,824.482960082998,824.482960082998,824.482960082998,,828.7580132080038,,,,,,,,,,,,,,,,,,,,,,,,,,,,,,left,1.0,4.269905082997866,,,,,,sub-052,1,random_dot,,
right,right,58.0,0.0,29.0,right,1.0,5.841399708995596,,accuracy,space,3.898536999986391,,,,,,0.0,1.0,1.0,0.0,29.0,0.0,58.0,1.0,828.7629847909993,,,,,,,,,828.7584883749951,829.5478762910061,830.350179874993,830.3410792079958,830.3417566249991,830.350179874993,830.350179874993,830.350179874993,835.3298219999997,836.198726165996,,,,,,,,,,,,,,,,,,,,,,,,,,,,,,right,1.0,5.841399708995596,,,,,,sub-052,1,random_dot,,
left,left,59.0,1.0,29.0,left,1.0,4.578944875000161,,accuracy,space,3.898536999986391,,,,,,0.0,1.0,1.0,0.0,29.0,1.0,59.0,0.0,836.223826165995,,,,,,,,,836.1993699580053,836.9981399160024,837.7991935409955,837.7910325410048,837.7915934579942,837.7991935409955,837.7991935409955,837.7991935409955,,842.3816977910028,,,,,,,,,,,,,,,,,,,,,,,,,,,,,,left,1.0,4.578944875000161,,,,,,sub-052,1,random_dot,,
,,1.0,1.0,0.0,,,,,accuracy,space,3.898536999986391,,,,,,0.0,1.0,1.0,0.0,,,,,,,,,,,,,,,,,,,,,,,,,,,,,,,,,,,,,,,,,,,,,,,,,,,,,,,,,,,,,sub-052,1,random_dot,,
,,,,,,,,,,,,,,,,,,,,,,,,,,,,,,,,,,,,,,,,,,,,,,,,,,,,,,,,,,,,,,,,,,,,,,,,,,,,,842.3885644160036,842.3972521660035,847.3909844580048,847.3801902499981,sub-052,1,random_dot,,
