wordCTK,colorCTK,corrAnsCTK,congruentCTK,thisN,thisTrialN,thisRepN,keyResp_CTK.keys,keyResp_CTK.corr,keyResp_CTK.rt,keyResp_CTK.duration,wordPractice,colorPractice,corrAnsPractice,congruentPractice,respPractice.keys,respPractice.corr,respPractice.rt,respPractice.duration,word,color,corrAns,congruent,keyResp_test_run.keys,keyResp_test_run.corr,keyResp_test_run.rt,keyResp_test_run.duration,trials_CTK.thisRepN,trials_CTK.thisTrialN,trials_CTK.thisN,trials_CTK.thisIndex,trials_practice.thisRepN,trials_practice.thisTrialN,trials_practice.thisN,trials_practice.thisIndex,trials_test.thisRepN,trials_test.thisTrialN,trials_test.thisN,trials_test.thisIndex,thisRow.t,notes,instruction.started,instr_text.started,instr_image.started,instr_resp.started,instruction.stopped,instr_resp.keys,instr_resp.rt,instr_resp.duration,instr_color_to_key.started,instr_ctk.started,resp_ctk.started,instr_color_to_key.stopped,resp_ctk.keys,resp_ctk.rt,resp_ctk.duration,ITI.started,fixcross.started,fixcross.stopped,ITI.stopped,color_to_key_run.started,stimulus_CTK.started,keyResp_CTK.started,color_to_key_run.stopped,trials_CTK.keyResp_CTK.keys,trials_CTK.keyResp_CTK.corr,trials_CTK.keyResp_CTK.rt,trials_CTK.keyResp_CTK.duration,instr_practice.started,instr_practice_text.started,instr_practice_resp.started,instr_practice.stopped,instr_practice_resp.keys,instr_practice_resp.rt,instr_practice_resp.duration,practice_run.started,stimulus_practice.started,respPractice.started,practice_run.stopped,trials_practice.respPractice.keys,trials_practice.respPractice.corr,trials_practice.respPractice.rt,trials_practice.respPractice.duration,feedback.started,textFeedback.started,feedback.stopped,textFeedback.stopped,instr_test.started,instr_test_text.started,instr_test_resp.started,instr_test.stopped,instr_test_resp.keys,instr_test_resp.rt,instr_test_resp.duration,test_run.started,stimulus_test_run.started,keyResp_test_run.started,test_run.stopped,trials_test.keyResp_test_run.keys,trials_test.keyResp_test_run.corr,trials_test.keyResp_test_run.rt,trials_test.keyResp_test_run.duration,goodbye.started,textGoodbye.started,goodbye.stopped,participant,session,expName,frameRate,Unnamed: 112
,,,,,,,,,,,,,,,,,,,,,,,,,,,,,,,,,,,,,,,,,0.0028154000174254,0.0326144000282511,0.0326144000282511,0.0326144000282511,2.5089826000621542,space,2.4592541999882087,,,,,,,,,,,,,,,,,,,,,,,,,,,,,,,,,,,,,,,,,,,,,,,,,,,,,,,,,,sub-162,1,stroop_test,60.05082701552112,
,,,,,,,,,,,,,,,,,,,,,,,,,,,,,,,,,,,,,,,,,,,,,,,,,2.509028600063175,2.5246427999809384,2.5246427999809384,7.673807600047439,space,5.147090700105764,,,,,,,,,,,,,,,,,,,,,,,,,,,,,,,,,,,,,,,,,,,,,,,,,,,sub-162,1,stroop_test,60.05082701552112,
test,blue,b,1.0,0.0,0.0,0.0,b,1.0,2.8460390999680385,,,,,,,,,,,,,,,,,,0.0,0.0,0.0,2.0,,,,,,,,,7.722506199963391,,,,,,,,,,,,,,,,,7.718662000028416,8.48768340004608,9.290050200070256,9.27205969998613,9.28473670000676,9.290050200070256,9.290050200070256,12.139132300042547,b,1.0,2.8460390999680385,,,,,,,,,,,,,,,,,,,,,,,,,,,,,,,,,,,,,,,sub-162,1,stroop_test,60.05082701552112,
test,red,r,1.0,1.0,1.0,0.0,r,1.0,2.1822596999118105,,,,,,,,,,,,,,,,,,0.0,1.0,1.0,0.0,,,,,,,,,12.151932600070722,,,,,,,,,,,,,,,,,12.139926600037144,12.251993000041692,13.051562900072897,13.036009400035256,13.0372865999816,13.051562900072897,13.051562900072897,15.236030700034462,r,1.0,2.1822596999118105,,,,,,,,,,,,,,,,,,,,,,,,,,,,,,,,,,,,,,,sub-162,1,stroop_test,60.05082701552112,
test,yellow,g,1.0,2.0,2.0,0.0,g,1.0,0.962444599950686,,,,,,,,,,,,,,,,,,0.0,2.0,2.0,1.0,,,,,,,,,15.25008460006211,,,,,,,,,,,,,,,,,15.236588699975982,15.35014770005364,16.14940320001915,16.133488600025885,16.134074000059627,16.14940320001915,16.14940320001915,17.118123000022024,g,1.0,0.962444599950686,,,,,,,,,,,,,,,,,,,,,,,,,,,,,,,,,,,,,,,sub-162,1,stroop_test,60.05082701552112,
test,blue,b,1.0,3.0,0.0,1.0,b,1.0,0.6929906000150368,,,,,,,,,,,,,,,,,,1.0,0.0,3.0,2.0,,,,,,,,,17.132346900063567,,,,,,,,,,,,,,,,,17.118808300001547,17.931869799969718,18.731424400000837,18.716221900074743,18.71743640000932,18.731424400000837,18.731424400000837,19.433690499980003,b,1.0,0.6929906000150368,,,,,,,,,,,,,,,,,,,,,,,,,,,,,,,,,,,,,,,sub-162,1,stroop_test,60.05082701552112,
test,red,r,1.0,4.0,1.0,1.0,r,1.0,0.7610118000302464,,,,,,,,,,,,,,,,,,1.0,1.0,4.0,0.0,,,,,,,,,19.447391900001094,,,,,,,,,,,,,,,,,19.434534200001508,19.547571500064805,20.34688520000782,20.3311930000782,20.3320186000783,20.34688520000782,20.34688520000782,21.11383559997193,r,1.0,0.7610118000302464,,,,,,,,,,,,,,,,,,,,,,,,,,,,,,,,,,,,,,,sub-162,1,stroop_test,60.05082701552112,
test,yellow,g,1.0,5.0,2.0,1.0,g,1.0,0.6501793999923393,,,,,,,,,,,,,,,,,,1.0,2.0,5.0,1.0,,,,,,,,,21.12963610002771,,,,,,,,,,,,,,,,,21.11409360007383,21.929147699964236,22.72884830005933,22.71304259996396,22.713797600008547,22.72884830005933,22.72884830005933,23.38215199997649,g,1.0,0.6501793999923393,,,,,,,,,,,,,,,,,,,,,,,,,,,,,,,,,,,,,,,sub-162,1,stroop_test,60.05082701552112,
test,yellow,g,1.0,6.0,0.0,2.0,g,1.0,0.6299606000538915,,,,,,,,,,,,,,,,,,2.0,0.0,6.0,1.0,,,,,,,,,23.395209099981003,,,,,,,,,,,,,,,,,23.38292240002193,23.495131400064565,24.294130000052974,24.27790230000392,24.278204799978997,24.294130000052974,24.294130000052974,24.930180000024848,g,1.0,0.6299606000538915,,,,,,,,,,,,,,,,,,,,,,,,,,,,,,,,,,,,,,,sub-162,1,stroop_test,60.05082701552112,
test,blue,b,1.0,7.0,1.0,2.0,b,1.0,0.7297589000081643,,,,,,,,,,,,,,,,,,2.0,1.0,7.0,2.0,,,,,,,,,24.94408010004554,,,,,,,,,,,,,,,,,24.930965700070374,25.74376059998758,26.54303970001638,26.527309900033288,26.52795130002778,26.54303970001638,26.54303970001638,27.27850340004079,b,1.0,0.7297589000081643,,,,,,,,,,,,,,,,,,,,,,,,,,,,,,,,,,,,,,,sub-162,1,stroop_test,60.05082701552112,
test,red,r,1.0,8.0,2.0,2.0,r,1.0,0.6428942000493407,,,,,,,,,,,,,,,,,,2.0,2.0,8.0,0.0,,,,,,,,,27.29273400001693,,,,,,,,,,,,,,,,,27.2791758000385,27.642292500007898,28.442108700051904,28.427123700035736,28.42836909997277,28.442108700051904,28.442108700051904,29.094436199986376,r,1.0,0.6428942000493407,,,,,,,,,,,,,,,,,,,,,,,,,,,,,,,,,,,,,,,sub-162,1,stroop_test,60.05082701552112,
test,yellow,g,1.0,9.0,0.0,3.0,g,1.0,1.200399599969387,,,,,,,,,,,,,,,,,,3.0,0.0,9.0,1.0,,,,,,,,,29.108342900057323,,,,,,,,,,,,,,,,,29.09526219998952,29.45795409998391,30.257635100046173,30.242485300055705,30.2437109000748,30.257635100046173,30.257635100046173,31.47509830002673,g,1.0,1.200399599969387,,,,,,,,,,,,,,,,,,,,,,,,,,,,,,,,,,,,,,,sub-162,1,stroop_test,60.05082701552112,
test,blue,b,1.0,10.0,1.0,3.0,b,1.0,0.56770510005299,,,,,,,,,,,,,,,,,,3.0,1.0,10.0,2.0,,,,,,,,,31.48993490007706,,,,,,,,,,,,,,,,,31.47560300002806,31.58990470005665,32.38944709999487,32.37374680000357,32.37452090007719,32.38944709999487,32.38944709999487,32.97318139998242,b,1.0,0.56770510005299,,,,,,,,,,,,,,,,,,,,,,,,,,,,,,,,,,,,,,,sub-162,1,stroop_test,60.05082701552112,
test,red,r,1.0,11.0,2.0,3.0,r,1.0,0.592918699956499,,,,,,,,,,,,,,,,,,3.0,2.0,11.0,0.0,,,,,,,,,32.9889898999827,,,,,,,,,,,,,,,,,32.97343999997247,33.788611600059085,34.58826880005654,34.57288290001452,34.57403110002633,34.58826880005654,34.58826880005654,35.18813050002791,r,1.0,0.592918699956499,,,,,,,,,,,,,,,,,,,,,,,,,,,,,,,,,,,,,,,sub-162,1,stroop_test,60.05082701552112,
,,,,,,,,,,,,,,,,,,,,,,,,,,,,,,,,,,,,,,,,,,,,,,,,,,,,,,,,,,,,,,,,,,,,35.18821120006032,35.20458869996946,35.20458869996946,36.77307770005427,space,1.5595987999113277,,,,,,,,,,,,,,,,,,,,,,,,,,,,,,,,sub-162,1,stroop_test,60.05082701552112,
,,,,0.0,0.0,0.0,,,,,rot,red,r,1.0,r,1.0,0.5430563000263646,,,,,,,,,,,,,,0.0,0.0,0.0,0.0,,,,,36.82591740007047,,,,,,,,,,,,,,,,,36.822306300047785,36.88656500005163,37.694388700067066,37.6712599999737,,,,,,,,,,,,,,,,37.68585260002874,37.694388700067066,37.694388700067066,38.25533279997762,r,1.0,0.5430563000263646,,38.27621200005524,38.28197989996988,39.26914049999323,,,,,,,,,,,,,,,,,,,,sub-162,1,stroop_test,60.05082701552112,
,,,,1.0,1.0,0.0,,,,,blau,blue,b,1.0,b,1.0,0.5031967000104487,,,,,,,,,,,,,,0.0,1.0,1.0,5.0,,,,,39.28548449999653,,,,,,,,,,,,,,,,,39.26991310005542,40.06814780004788,40.87360639998224,40.85248050000519,,,,,,,,,,,,,,,,40.866598000051454,40.87360639998224,40.87360639998224,41.386744200019166,b,1.0,0.5031967000104487,,41.38793349999469,41.40063669998199,42.38541340001393,42.40018100000452,,,,,,,,,,,,,,,,,,,sub-162,1,stroop_test,60.05082701552112,
,,,,2.0,2.0,0.0,,,,,gelb,yellow,g,1.0,g,1.0,0.6090323000680655,,,,,,,,,,,,,,0.0,2.0,2.0,11.0,,,,,42.40018100000452,,,,,,,,,,,,,,,,,42.38619540003128,43.59964230004698,44.40122900006827,44.38383790000808,,,,,,,,,,,,,,,,44.39256169996224,44.40122900006827,44.40122900006827,45.01834629999939,g,1.0,0.6090323000680655,,45.01969049999025,45.03192460001446,46.014861100004055,46.03108069999144,,,,,,,,,,,,,,,,,,,sub-162,1,stroop_test,60.05082701552112,
,,,,3.0,3.0,0.0,,,,,gelb,red,r,0.0,r,1.0,0.6368182000005618,,,,,,,,,,,,,,0.0,3.0,3.0,8.0,,,,,46.03108069999144,,,,,,,,,,,,,,,,,46.01514490006957,46.13092979998328,46.93051400000695,46.9147973000072,,,,,,,,,,,,,,,,46.9155881999759,46.93051400000695,46.93051400000695,47.582391800009646,r,1.0,0.6368182000005618,,47.58345050003845,47.596825500018895,48.58017890003976,48.5961307999678,,,,,,,,,,,,,,,,,,,sub-162,1,stroop_test,60.05082701552112,
,,,,4.0,4.0,0.0,,,,,gelb,yellow,g,1.0,g,1.0,0.4693032000213861,,,,,,,,,,,,,,0.0,4.0,4.0,10.0,,,,,48.5961307999678,,,,,,,,,,,,,,,,,48.58055249997415,49.3960148000624,50.19525450002402,50.18120950006414,,,,,,,,,,,,,,,,50.1820973000722,50.19525450002402,50.19525450002402,50.68106660002377,g,1.0,0.4693032000213861,,50.68239309999626,50.69522069999948,51.67938710004091,51.6943560000509,,,,,,,,,,,,,,,,,,,sub-162,1,stroop_test,60.05082701552112,
,,,,5.0,5.0,0.0,,,,,rot,yellow,g,0.0,g,1.0,0.6480541999917477,,,,,,,,,,,,,,0.0,5.0,5.0,3.0,,,,,51.6943560000509,,,,,,,,,,,,,,,,,51.68014710000716,52.49379920004867,53.29336989996955,53.278402099967934,,,,,,,,,,,,,,,,53.28579390002415,53.29336989996955,53.29336989996955,53.946626399992965,g,1.0,0.6480541999917477,,53.94800229999237,53.959779100026935,54.94665739999618,54.95889450004324,,,,,,,,,,,,,,,,,,,sub-162,1,stroop_test,60.05082701552112,
,,,,6.0,6.0,0.0,,,,,gelb,blue,b,0.0,b,1.0,0.5261793000390753,,,,,,,,,,,,,,0.0,6.0,6.0,9.0,,,,,54.95889450004324,,,,,,,,,,,,,,,,,54.94717619998846,55.30889039998874,56.10921999998391,56.09296170005109,,,,,,,,,,,,,,,,56.10163839999586,56.10921999998391,56.10921999998391,56.64413560007233,b,1.0,0.5261793000390753,,56.64559950004332,56.65809739998076,57.64238299999852,57.65744049998466,,,,,,,,,,,,,,,,,,,sub-162,1,stroop_test,60.05082701552112,
,,,,7.0,7.0,0.0,,,,,rot,red,r,1.0,r,1.0,0.5163415999850258,,,,,,,,,,,,,,0.0,7.0,7.0,1.0,,,,,57.65744049998466,,,,,,,,,,,,,,,,,57.64325700001791,58.00724090007134,58.8066171000246,58.79151300003287,,,,,,,,,,,,,,,,58.79757789999712,58.8066171000246,58.8066171000246,59.32551120000426,r,1.0,0.5163415999850258,,59.32629770005588,59.339587999973446,60.3240938000381,60.33884109999053,,,,,,,,,,,,,,,,,,,sub-162,1,stroop_test,60.05082701552112,
,,,,8.0,8.0,0.0,,,,,blau,yellow,g,0.0,g,1.0,0.6445718000177294,,,,,,,,,,,,,,0.0,8.0,8.0,7.0,,,,,60.33884109999053,,,,,,,,,,,,,,,,,60.32485710002948,61.13831970002502,61.93802010000218,61.92271610000171,,,,,,,,,,,,,,,,61.92920660006348,61.93802010000218,61.93802010000218,62.59068260004278,g,1.0,0.6445718000177294,,62.59202270000242,62.604242800036445,63.5879592000274,63.60373460000847,,,,,,,,,,,,,,,,,,,sub-162,1,stroop_test,60.05082701552112,
,,,,9.0,9.0,0.0,,,,,blau,red,r,0.0,b,0.0,0.5326326000504196,,,,,,,,,,,,,,0.0,9.0,9.0,4.0,,,,,63.60373460000847,,,,,,,,,,,,,,,,,63.58846120000817,64.40302209998481,65.20285320002586,65.18775400007144,,,,,,,,,,,,,,,,65.18896820000373,65.20285320002586,65.20285320002586,65.73873700003605,b,0.0,0.5326326000504196,,65.75196280004457,65.76130450004712,66.75217250001151,,,,,,,,,,,,,,,,,,,,sub-162,1,stroop_test,60.05082701552112,
,,,,10.0,10.0,0.0,,,,,blau,blue,b,1.0,b,1.0,0.577932299929671,,,,,,,,,,,,,,0.0,10.0,10.0,6.0,,,,,66.76848379999865,,,,,,,,,,,,,,,,,66.75298770004883,67.10162820003461,67.90098759997636,67.8849928000709,,,,,,,,,,,,,,,,67.88560759997927,67.90098759997636,67.90098759997636,68.48723440000322,b,1.0,0.577932299929671,,68.49464559997432,68.50156230002176,69.50019639998209,,,,,,,,,,,,,,,,,,,,sub-162,1,stroop_test,60.05082701552112,
,,,,11.0,11.0,0.0,,,,,rot,blue,b,0.0,b,1.0,0.8320840999949723,,,,,,,,,,,,,,0.0,11.0,11.0,2.0,,,,,69.51655339996796,,,,,,,,,,,,,,,,,69.50069660006557,70.6994278000202,71.49905350001063,71.48352760006674,,,,,,,,,,,,,,,,71.49036799999885,71.49905350001063,71.49905350001063,72.33507949998602,b,1.0,0.8320840999949723,,72.33621490001678,72.34819659998175,73.33273340004962,73.34790419996716,,,,,,,,,,,,,,,,,,,sub-162,1,stroop_test,60.05082701552112,
,,,,12.0,0.0,1.0,,,,,rot,red,r,1.0,r,1.0,0.5661205999786034,,,,,,,,,,,,,,1.0,0.0,12.0,0.0,,,,,73.34790419996716,,,,,,,,,,,,,,,,,73.333535999991,74.14687140006572,74.94682990002912,74.93175730004441,,,,,,,,,,,,,,,,74.93299190001562,74.94682990002912,74.94682990002912,75.51502100005746,r,1.0,0.5661205999786034,,75.51587580004707,75.52978189999703,76.51361390005331,76.52898309996817,,,,,,,,,,,,,,,,,,,sub-162,1,stroop_test,60.05082701552112,
,,,,13.0,1.0,1.0,,,,,blau,yellow,g,0.0,g,1.0,0.5356436000438407,,,,,,,,,,,,,,1.0,1.0,13.0,7.0,,,,,76.52898309996817,,,,,,,,,,,,,,,,,76.5141125000082,76.87895569996908,77.68078290007543,77.66326549998485,,,,,,,,,,,,,,,,77.67242600000463,77.68078290007543,77.68078290007543,78.23083300003782,g,1.0,0.5356436000438407,,78.23215940000955,78.24483209999744,79.22906819998752,79.2441863999702,,,,,,,,,,,,,,,,,,,sub-162,1,stroop_test,60.05082701552112,
,,,,14.0,2.0,1.0,,,,,rot,yellow,g,0.0,g,1.0,0.4624389999080449,,,,,,,,,,,,,,1.0,2.0,14.0,3.0,,,,,79.2441863999702,,,,,,,,,,,,,,,,,79.22984150005504,80.44324290007353,81.24292290001176,81.22817430004943,,,,,,,,,,,,,,,,81.23574709997047,81.24292290001176,81.24292290001176,81.7093584999675,g,1.0,0.4624389999080449,,81.70963539998047,81.72553070005961,82.71067070006393,82.72514400002547,,,,,,,,,,,,,,,,,,,sub-162,1,stroop_test,60.05082701552112,
,,,,15.0,3.0,1.0,,,,,blau,blue,b,1.0,b,1.0,0.6187655999092385,,,,,,,,,,,,,,1.0,3.0,15.0,6.0,,,,,82.72514400002547,,,,,,,,,,,,,,,,,82.71160360006616,83.0750697000185,83.87456180003937,83.85824219998904,,,,,,,,,,,,,,,,83.86045370006468,83.87456180003937,83.87456180003937,84.51052600005642,b,1.0,0.6187655999092385,,84.51190180005506,84.52432109997608,85.50873130001128,85.52360680000857,,,,,,,,,,,,,,,,,,,sub-162,1,stroop_test,60.05082701552112,
,,,,16.0,4.0,1.0,,,,,gelb,blue,b,0.0,b,1.0,0.4083883999846875,,,,,,,,,,,,,,1.0,4.0,16.0,9.0,,,,,85.52360680000857,,,,,,,,,,,,,,,,,85.50948890007567,86.32292160007637,87.12242550007068,87.10649170004763,,,,,,,,,,,,,,,,87.11035940004513,87.12242550007068,87.12242550007068,87.5417018000735,b,1.0,0.4083883999846875,,87.54289410007186,87.55551129998639,88.5396819000598,88.5549266000744,,,,,,,,,,,,,,,,,,,sub-162,1,stroop_test,60.05082701552112,
,,,,17.0,5.0,1.0,,,,,gelb,yellow,g,1.0,g,1.0,0.5411671000765637,,,,,,,,,,,,,,1.0,5.0,17.0,11.0,,,,,88.5549266000744,,,,,,,,,,,,,,,,,88.54031429998577,89.75423349998891,90.553720899974,90.5377889999654,,,,,,,,,,,,,,,,90.53839180001523,90.553720899974,90.553720899974,91.10547900001984,g,1.0,0.5411671000765637,,91.1063905999763,91.1201996000018,92.10374689998572,92.11940640001558,,,,,,,,,,,,,,,,,,,sub-162,1,stroop_test,60.05082701552112,
,,,,18.0,6.0,1.0,,,,,blau,red,r,0.0,r,1.0,0.611209399998188,,,,,,,,,,,,,,1.0,6.0,18.0,4.0,,,,,92.11940640001558,,,,,,,,,,,,,,,,,92.10419780004304,93.31900110002609,94.11817100003827,94.10290130006616,,,,,,,,,,,,,,,,94.10888319998048,94.11817100003827,94.11817100003827,94.73630790004972,r,1.0,0.611209399998188,,94.7371897000121,94.75130150001496,95.73570660001133,95.75094260007609,,,,,,,,,,,,,,,,,,,sub-162,1,stroop_test,60.05082701552112,
,,,,19.0,7.0,1.0,,,,,gelb,yellow,g,1.0,g,1.0,0.5945771000115201,,,,,,,,,,,,,,1.0,7.0,19.0,10.0,,,,,95.75094260007609,,,,,,,,,,,,,,,,,95.73644370003603,96.10069170000496,96.89986999996472,96.88396969996391,,,,,,,,,,,,,,,,96.8889424999943,96.89986999996472,96.89986999996472,97.50192299997434,g,1.0,0.5945771000115201,,97.5031037000008,97.51637369999662,98.50042840000242,98.51565010007472,,,,,,,,,,,,,,,,,,,sub-162,1,stroop_test,60.05082701552112,
,,,,20.0,8.0,1.0,,,,,rot,blue,b,0.0,b,1.0,0.9279371000593528,,,,,,,,,,,,,,1.0,8.0,20.0,2.0,,,,,98.51565010007472,,,,,,,,,,,,,,,,,98.5011735999724,99.71511109999848,100.5157279999694,100.49928730004468,,,,,,,,,,,,,,,,100.50767740001902,100.5157279999694,100.5157279999694,101.45003060007002,b,1.0,0.9279371000593528,,101.45116499997675,101.46365120005794,102.44816530006938,102.46324730000924,,,,,,,,,,,,,,,,,,,sub-162,1,stroop_test,60.05082701552112,
,,,,21.0,9.0,1.0,,,,,rot,red,r,1.0,r,1.0,0.5123867000220343,,,,,,,,,,,,,,1.0,9.0,21.0,1.0,,,,,102.46324730000924,,,,,,,,,,,,,,,,,102.4489254000364,102.8131489000516,103.61230749997776,103.59742770006416,,,,,,,,,,,,,,,,103.59864620002918,103.61230749997776,103.61230749997776,104.1312986999983,r,1.0,0.5123867000220343,,104.13244499999564,104.1455769999884,105.12961299996824,105.14502779999748,,,,,,,,,,,,,,,,,,,sub-162,1,stroop_test,60.05082701552112,
,,,,22.0,10.0,1.0,,,,,gelb,red,r,0.0,r,1.0,0.8942257999442518,,,,,,,,,,,,,,1.0,10.0,22.0,8.0,,,,,105.14502779999748,,,,,,,,,,,,,,,,,105.13031609996688,106.34396229998674,107.1457001999952,107.128380500013,,,,,,,,,,,,,,,,107.13642039999831,107.1457001999952,107.1457001999952,108.0461943000555,r,1.0,0.8942257999442518,,108.04754759999923,108.05979900003877,109.04429570003413,109.05914300004952,,,,,,,,,,,,,,,,,,,sub-162,1,stroop_test,60.05082701552112,
,,,,23.0,11.0,1.0,,,,,blau,blue,b,1.0,b,1.0,0.5094217000296339,,,,,,,,,,,,,,1.0,11.0,23.0,5.0,,,,,109.05914300004952,,,,,,,,,,,,,,,,,109.04506170004606,110.25842169998214,111.05780189996584,111.0419698000187,,,,,,,,,,,,,,,,111.04618659999689,111.05780189996584,111.05780189996584,111.57724939996842,b,1.0,0.5094217000296339,,111.57859729998744,111.59085360006428,112.57543930003884,112.59050539997406,,,,,,,,,,,,,,,,,,,sub-162,1,stroop_test,60.05082701552112,
,,,,,,,,,,,,,,,,,,,,,,,,,,,,,,,,,,,,,,,,,,,,,,,,,,,,,,,,,,,,,,,,,,,,,,,,,,,,,,,,,,,,,,,112.57576969999354,112.59050539997406,112.59050539997406,116.00807890004944,space,3.4126955999527127,,,,,,,,,,,,,sub-162,1,stroop_test,60.05082701552112,
,,,,0.0,0.0,0.0,,,,,,,,,,,,,rot,red,r,1.0,r,1.0,0.5869110999628901,,,,,,,,,,0.0,0.0,0.0,0.0,116.02154580003116,,,,,,,,,,,,,,,,,116.01834429998416,117.22076669998933,118.02028449997306,118.00507900002412,,,,,,,,,,,,,,,,,,,,,,,,,,,,,,,,,,,118.01054040004963,118.02028449997306,118.02028449997306,118.62225010001566,r,1.0,0.5869110999628901,,,,,sub-162,1,stroop_test,60.05082701552112,
,,,,1.0,1.0,0.0,,,,,,,,,,,,,gelb,blue,b,0.0,b,1.0,0.8415804000105709,,,,,,,,,,0.0,1.0,1.0,9.0,118.63659390003886,,,,,,,,,,,,,,,,,118.62303700007033,118.98639320000076,119.78573380003218,119.76993479998782,,,,,,,,,,,,,,,,,,,,,,,,,,,,,,,,,,,119.77552919997834,119.78573380003218,119.78573380003218,120.6356753000291,b,1.0,0.8415804000105709,,,,,sub-162,1,stroop_test,60.05082701552112,
,,,,2.0,2.0,0.0,,,,,,,,,,,,,blau,blue,b,1.0,b,1.0,0.4674262000480667,,,,,,,,,,0.0,2.0,2.0,5.0,120.651540699997,,,,,,,,,,,,,,,,,120.6359185000183,120.73508630006108,121.5363530999748,121.51995900005568,,,,,,,,,,,,,,,,,,,,,,,,,,,,,,,,,,,121.52773229999002,121.5363530999748,121.5363530999748,122.0194811000256,b,1.0,0.4674262000480667,,,,,sub-162,1,stroop_test,60.05082701552112,
,,,,3.0,3.0,0.0,,,,,,,,,,,,,rot,yellow,g,0.0,g,1.0,0.47563729993999,,,,,,,,,,0.0,3.0,3.0,3.0,122.03425180003978,,,,,,,,,,,,,,,,,122.0200627000304,122.13435489998665,122.93374110001604,122.9180006000679,,,,,,,,,,,,,,,,,,,,,,,,,,,,,,,,,,,122.921800000011,122.93374110001604,122.93374110001604,123.41976710001472,g,1.0,0.47563729993999,,,,,sub-162,1,stroop_test,60.05082701552112,
,,,,4.0,4.0,0.0,,,,,,,,,,,,,rot,red,r,1.0,r,1.0,0.5439230999909341,,,,,,,,,,0.0,4.0,4.0,1.0,123.4333790000528,,,,,,,,,,,,,,,,,123.42068600002676,123.78348580002783,124.5830662000226,124.56776390003506,,,,,,,,,,,,,,,,,,,,,,,,,,,,,,,,,,,124.5689829000039,124.5830662000226,124.5830662000226,125.13394379999954,r,1.0,0.5439230999909341,,,,,sub-162,1,stroop_test,60.05082701552112,
,,,,5.0,5.0,0.0,,,,,,,,,,,,,gelb,red,r,0.0,r,1.0,0.5141589000122622,,,,,,,,,,0.0,5.0,5.0,8.0,125.14905310003088,,,,,,,,,,,,,,,,,125.13436200004072,125.94857650005724,126.74818049999884,126.73249059997032,,,,,,,,,,,,,,,,,,,,,,,,,,,,,,,,,,,126.73830580001233,126.74818049999884,126.74818049999884,127.26536349998788,r,1.0,0.5141589000122622,,,,,sub-162,1,stroop_test,60.05082701552112,
,,,,6.0,6.0,0.0,,,,,,,,,,,,,gelb,yellow,g,1.0,g,1.0,0.4767725999699905,,,,,,,,,,0.0,6.0,6.0,11.0,127.28096989996266,,,,,,,,,,,,,,,,,127.26568209996913,128.08085759996902,128.8802417999832,128.8645816000644,,,,,,,,,,,,,,,,,,,,,,,,,,,,,,,,,,,128.86560290004127,128.8802417999832,128.8802417999832,129.36405930004548,g,1.0,0.4767725999699905,,,,,sub-162,1,stroop_test,60.05082701552112,
,,,,7.0,7.0,0.0,,,,,,,,,,,,,gelb,yellow,g,1.0,g,1.0,0.4331105999881401,,,,,,,,,,0.0,7.0,7.0,10.0,129.37962310004514,,,,,,,,,,,,,,,,,129.36436310003046,130.57944210001733,131.37881140003446,131.3633501000004,,,,,,,,,,,,,,,,,,,,,,,,,,,,,,,,,,,131.3645559999859,131.37881140003446,131.37881140003446,131.8152376000071,g,1.0,0.4331105999881401,,,,,sub-162,1,stroop_test,60.05082701552112,
,,,,8.0,8.0,0.0,,,,,,,,,,,,,blau,blue,b,1.0,b,1.0,0.4616947999456897,,,,,,,,,,0.0,8.0,8.0,6.0,131.82880070002284,,,,,,,,,,,,,,,,,131.8161297000479,133.0276857999852,133.82698810007423,133.8108827000251,,,,,,,,,,,,,,,,,,,,,,,,,,,,,,,,,,,133.81350689998362,133.82698810007423,133.82698810007423,134.29613110003993,b,1.0,0.4616947999456897,,,,,sub-162,1,stroop_test,60.05082701552112,
,,,,9.0,9.0,0.0,,,,,,,,,,,,,blau,yellow,g,0.0,b,0.0,0.7570735999615863,,,,,,,,,,0.0,9.0,9.0,7.0,134.31035699998029,,,,,,,,,,,,,,,,,134.29691679996904,134.65997530007735,135.45954010006972,135.4439128000522,,,,,,,,,,,,,,,,,,,,,,,,,,,,,,,,,,,135.44481430004817,135.45954010006972,135.45954010006972,136.2273444000166,b,0.0,0.7570735999615863,,,,,sub-162,1,stroop_test,60.05082701552112,
,,,,10.0,10.0,0.0,,,,,,,,,,,,,blau,red,r,0.0,r,1.0,0.9061611000215636,,,,,,,,,,0.0,10.0,10.0,4.0,136.2421805000631,,,,,,,,,,,,,,,,,136.22792920004576,136.34245130000636,137.14171150000766,137.125591399963,,,,,,,,,,,,,,,,,,,,,,,,,,,,,,,,,,,137.12611650000326,137.14171150000766,137.14171150000766,138.0583564999979,r,1.0,0.9061611000215636,,,,,sub-162,1,stroop_test,60.05082701552112,
,,,,11.0,11.0,0.0,,,,,,,,,,,,,rot,blue,b,0.0,b,1.0,0.7941610999405384,,,,,,,,,,0.0,11.0,11.0,2.0,138.07426710007712,,,,,,,,,,,,,,,,,138.05858940002508,139.27372170006856,140.0751838000724,140.05821789999027,,,,,,,,,,,,,,,,,,,,,,,,,,,,,,,,,,,140.06692310003564,140.0751838000724,140.0751838000724,140.87617090006825,b,1.0,0.7941610999405384,,,,,sub-162,1,stroop_test,60.05082701552112,
,,,,12.0,0.0,1.0,,,,,,,,,,,,,gelb,yellow,g,1.0,g,1.0,0.6072102999314666,,,,,,,,,,1.0,0.0,12.0,10.0,140.8895059999777,,,,,,,,,,,,,,,,,140.87718760001007,141.23933330003638,142.0387235999806,142.02325219998602,,,,,,,,,,,,,,,,,,,,,,,,,,,,,,,,,,,142.02943029999733,142.0387235999806,142.0387235999806,142.6579726000782,g,1.0,0.6072102999314666,,,,,sub-162,1,stroop_test,60.05082701552112,
,,,,13.0,1.0,1.0,,,,,,,,,,,,,blau,red,r,0.0,r,1.0,0.7943765999516472,,,,,,,,,,1.0,1.0,13.0,4.0,142.6718688000692,,,,,,,,,,,,,,,,,142.65890470007434,142.7718826000346,143.57109650003258,143.5548280000221,,,,,,,,,,,,,,,,,,,,,,,,,,,,,,,,,,,143.55683640006464,143.57109650003258,143.57109650003258,144.37383120006416,r,1.0,0.7943765999516472,,,,,sub-162,1,stroop_test,60.05082701552112,
,,,,14.0,2.0,1.0,,,,,,,,,,,,,rot,red,r,1.0,r,1.0,0.4892939999699592,,,,,,,,,,1.0,2.0,14.0,0.0,144.38757030002307,,,,,,,,,,,,,,,,,144.37471070000902,145.5871560999658,146.38595000002533,146.37063899997156,,,,,,,,,,,,,,,,,,,,,,,,,,,,,,,,,,,146.37464379996527,146.38595000002533,146.38595000002533,146.88662010000553,r,1.0,0.4892939999699592,,,,,sub-162,1,stroop_test,60.05082701552112,
,,,,15.0,3.0,1.0,,,,,,,,,,,,,blau,blue,b,1.0,b,1.0,0.4867526999441907,,,,,,,,,,1.0,3.0,15.0,6.0,146.90227319998667,,,,,,,,,,,,,,,,,146.88695000007283,147.70204520004336,148.5048035000218,148.48686020006426,,,,,,,,,,,,,,,,,,,,,,,,,,,,,,,,,,,148.49565429997165,148.5048035000218,148.5048035000218,149.00178819999564,b,1.0,0.4867526999441907,,,,,sub-162,1,stroop_test,60.05082701552112,
,,,,16.0,4.0,1.0,,,,,,,,,,,,,gelb,blue,b,0.0,b,1.0,0.6098033000016585,,,,,,,,,,1.0,4.0,16.0,9.0,149.01756559999194,,,,,,,,,,,,,,,,,149.00203059997875,149.81727460003458,150.6200710000703,150.6018551000161,,,,,,,,,,,,,,,,,,,,,,,,,,,,,,,,,,,150.61171720002312,150.6200710000703,150.6200710000703,151.2339912999887,b,1.0,0.6098033000016585,,,,,sub-162,1,stroop_test,60.05082701552112,
,,,,17.0,5.0,1.0,,,,,,,,,,,,,rot,yellow,g,0.0,g,1.0,0.8840806999942288,,,,,,,,,,1.0,5.0,17.0,3.0,151.24957189999986,,,,,,,,,,,,,,,,,151.23432360007428,151.59957229997963,152.40055809996556,152.38423580001108,,,,,,,,,,,,,,,,,,,,,,,,,,,,,,,,,,,152.3917242999887,152.40055809996556,152.40055809996556,153.29908490006346,g,1.0,0.8840806999942288,,,,,sub-162,1,stroop_test,60.05082701552112,
,,,,18.0,6.0,1.0,,,,,,,,,,,,,rot,red,r,1.0,r,1.0,0.4944377000210807,,,,,,,,,,1.0,6.0,18.0,1.0,153.31508710002527,,,,,,,,,,,,,,,,,153.2993183999788,154.11463770002592,154.91413759998977,154.89838899997994,,,,,,,,,,,,,,,,,,,,,,,,,,,,,,,,,,,154.89918880001642,154.91413759998977,154.91413759998977,155.41512889997102,r,1.0,0.4944377000210807,,,,,sub-162,1,stroop_test,60.05082701552112,
,,,,19.0,7.0,1.0,,,,,,,,,,,,,gelb,red,r,0.0,r,1.0,0.3764208999928087,,,,,,,,,,1.0,7.0,19.0,8.0,155.43024849996436,,,,,,,,,,,,,,,,,155.4156094000209,155.78038400004152,156.57968500000425,156.56357640004717,,,,,,,,,,,,,,,,,,,,,,,,,,,,,,,,,,,156.56653090007603,156.57968500000425,156.57968500000425,156.96589560003486,r,1.0,0.3764208999928087,,,,,sub-162,1,stroop_test,60.05082701552112,
,,,,20.0,8.0,1.0,,,,,,,,,,,,,rot,blue,b,0.0,b,1.0,0.4962488999590277,,,,,,,,,,1.0,8.0,20.0,2.0,156.97968280001078,,,,,,,,,,,,,,,,,156.9667708000634,157.779156900011,158.57856880000327,158.56382969999686,,,,,,,,,,,,,,,,,,,,,,,,,,,,,,,,,,,158.57117260002997,158.57856880000327,158.57856880000327,159.08119439997245,b,1.0,0.4962488999590277,,,,,sub-162,1,stroop_test,60.05082701552112,
,,,,21.0,9.0,1.0,,,,,,,,,,,,,blau,blue,b,1.0,b,1.0,0.4250947000691667,,,,,,,,,,1.0,9.0,21.0,5.0,159.09505330002867,,,,,,,,,,,,,,,,,159.08207350003067,159.1950698000146,159.9945771000348,159.97954550001305,,,,,,,,,,,,,,,,,,,,,,,,,,,,,,,,,,,159.98719140002504,159.9945771000348,159.9945771000348,160.42964880005457,b,1.0,0.4250947000691667,,,,,sub-162,1,stroop_test,60.05082701552112,
,,,,22.0,10.0,1.0,,,,,,,,,,,,,blau,yellow,g,0.0,g,1.0,0.6122472999850288,,,,,,,,,,1.0,10.0,22.0,7.0,160.44399569998495,,,,,,,,,,,,,,,,,160.43030130001716,160.7939799000742,161.5933891000459,161.5778603999643,,,,,,,,,,,,,,,,,,,,,,,,,,,,,,,,,,,161.5788137000054,161.5933891000459,161.5933891000459,162.2129962000763,g,1.0,0.6122472999850288,,,,,sub-162,1,stroop_test,60.05082701552112,
,,,,23.0,11.0,1.0,,,,,,,,,,,,,gelb,yellow,g,1.0,g,1.0,0.4322793999454006,,,,,,,,,,1.0,11.0,23.0,11.0,162.22619790001772,,,,,,,,,,,,,,,,,162.21393289999105,163.02571319998242,163.82774740003515,163.81025910004973,,,,,,,,,,,,,,,,,,,,,,,,,,,,,,,,,,,163.81907229998615,163.82774740003515,163.82774740003515,164.27636200003326,g,1.0,0.4322793999454006,,,,,sub-162,1,stroop_test,60.05082701552112,
,,,,24.0,0.0,2.0,,,,,,,,,,,,,rot,red,r,1.0,r,1.0,0.5782630000030622,,,,,,,,,,2.0,0.0,24.0,1.0,164.29164940002374,,,,,,,,,,,,,,,,,164.27680550003424,164.39176120003685,165.19095850002486,165.17620600003283,,,,,,,,,,,,,,,,,,,,,,,,,,,,,,,,,,,165.18364299996756,165.19095850002486,165.19095850002486,165.7762367000105,r,1.0,0.5782630000030622,,,,,sub-162,1,stroop_test,60.05082701552112,
,,,,25.0,1.0,2.0,,,,,,,,,,,,,rot,red,r,1.0,r,1.0,0.380426499992609,,,,,,,,,,2.0,1.0,25.0,0.0,165.79076240002178,,,,,,,,,,,,,,,,,165.77690090006217,166.1405773999868,166.94006509997416,166.92522400000598,,,,,,,,,,,,,,,,,,,,,,,,,,,,,,,,,,,166.9267439000541,166.94006509997416,166.94006509997416,167.32604129996616,r,1.0,0.380426499992609,,,,,sub-162,1,stroop_test,60.05082701552112,
,,,,26.0,2.0,2.0,,,,,,,,,,,,,rot,blue,b,0.0,b,1.0,0.5095814999658614,,,,,,,,,,2.0,2.0,26.0,2.0,167.34000660001766,,,,,,,,,,,,,,,,,167.326834000065,167.43965670000762,168.23940900003072,168.2243460000027,,,,,,,,,,,,,,,,,,,,,,,,,,,,,,,,,,,168.2255320000695,168.23940900003072,168.23940900003072,168.7594628999941,b,1.0,0.5095814999658614,,,,,sub-162,1,stroop_test,60.05082701552112,
,,,,27.0,3.0,2.0,,,,,,,,,,,,,blau,yellow,g,0.0,g,1.0,0.6661900000181049,,,,,,,,,,2.0,3.0,27.0,7.0,168.77223970007617,,,,,,,,,,,,,,,,,168.7605216000229,169.1224129999755,169.92945280007552,169.90646129997913,,,,,,,,,,,,,,,,,,,,,,,,,,,,,,,,,,,169.92143860005308,169.92945280007552,169.92945280007552,170.60757720004767,g,1.0,0.6661900000181049,,,,,sub-162,1,stroop_test,60.05082701552112,
,,,,28.0,4.0,2.0,,,,,,,,,,,,,blau,blue,b,1.0,b,1.0,0.5430441999342293,,,,,,,,,,2.0,4.0,28.0,6.0,170.62103150004987,,,,,,,,,,,,,,,,,170.60847790003754,171.8203366000671,172.61988350003958,172.60540990007576,,,,,,,,,,,,,,,,,,,,,,,,,,,,,,,,,,,172.6069298000075,172.61988350003958,172.61988350003958,173.17255740007386,b,1.0,0.5430441999342293,,,,,sub-162,1,stroop_test,60.05082701552112,
,,,,29.0,5.0,2.0,,,,,,,,,,,,,gelb,yellow,g,1.0,g,1.0,0.52057340007741,,,,,,,,,,2.0,5.0,29.0,10.0,173.18617420003284,,,,,,,,,,,,,,,,,173.1734561000485,173.5361335000489,174.33559300005436,174.31985650002025,,,,,,,,,,,,,,,,,,,,,,,,,,,,,,,,,,,174.32796979998238,174.33559300005436,174.33559300005436,174.87104340002406,g,1.0,0.52057340007741,,,,,sub-162,1,stroop_test,60.05082701552112,
,,,,30.0,6.0,2.0,,,,,,,,,,,,,gelb,red,r,0.0,r,1.0,0.6519262000219896,,,,,,,,,,2.0,6.0,30.0,8.0,174.88527109997813,,,,,,,,,,,,,,,,,174.87183249997906,174.98487120005302,175.7846673000604,175.7701164999744,,,,,,,,,,,,,,,,,,,,,,,,,,,,,,,,,,,175.77160009997897,175.7846673000604,175.7846673000604,176.45353090006392,r,1.0,0.6519262000219896,,,,,sub-162,1,stroop_test,60.05082701552112,
,,,,31.0,7.0,2.0,,,,,,,,,,,,,gelb,yellow,g,1.0,b,0.0,0.6014027000637725,,,,,,,,,,2.0,7.0,31.0,11.0,176.46759640006348,,,,,,,,,,,,,,,,,176.45434319996275,176.5676432000473,177.36696780007333,177.35206820000894,,,,,,,,,,,,,,,,,,,,,,,,,,,,,,,,,,,177.35332250001375,177.36696780007333,177.36696780007333,177.9862893000245,b,0.0,0.6014027000637725,,,,,sub-162,1,stroop_test,60.05082701552112,
,,,,32.0,8.0,2.0,,,,,,,,,,,,,blau,blue,b,1.0,b,1.0,0.5429553999565542,,,,,,,,,,2.0,8.0,32.0,5.0,178.00015259999782,,,,,,,,,,,,,,,,,177.98721240006853,178.7996980000753,179.5989025000017,179.58340370003134,,,,,,,,,,,,,,,,,,,,,,,,,,,,,,,,,,,179.5882844000589,179.5989025000017,179.5989025000017,180.15195870003663,b,1.0,0.5429553999565542,,,,,sub-162,1,stroop_test,60.05082701552112,
,,,,33.0,9.0,2.0,,,,,,,,,,,,,rot,yellow,g,0.0,g,1.0,0.8521257999818772,,,,,,,,,,2.0,9.0,33.0,3.0,180.1655686000595,,,,,,,,,,,,,,,,,180.15298170002643,180.514923300012,181.31466280005407,181.29924379999284,,,,,,,,,,,,,,,,,,,,,,,,,,,,,,,,,,,181.3057999999728,181.31466280005407,181.31466280005407,182.1839108000277,g,1.0,0.8521257999818772,,,,,sub-162,1,stroop_test,60.05082701552112,
,,,,34.0,10.0,2.0,,,,,,,,,,,,,blau,red,r,0.0,r,1.0,0.6736516999080777,,,,,,,,,,2.0,10.0,34.0,4.0,182.1974669999909,,,,,,,,,,,,,,,,,182.18479329999536,182.54731539997735,183.3545583999949,183.33140340005048,,,,,,,,,,,,,,,,,,,,,,,,,,,,,,,,,,,183.34657210006844,183.3545583999949,183.3545583999949,184.03236700000707,r,1.0,0.6736516999080777,,,,,sub-162,1,stroop_test,60.05082701552112,
,,,,35.0,11.0,2.0,,,,,,,,,,,,,gelb,blue,b,0.0,b,1.0,0.7325756000354886,,,,,,,,,,2.0,11.0,35.0,9.0,184.0461798000615,,,,,,,,,,,,,,,,,184.03316089999865,184.396332000033,185.20280970004387,185.18051400000692,,,,,,,,,,,,,,,,,,,,,,,,,,,,,,,,,,,185.1968033000594,185.20280970004387,185.20280970004387,185.9458530000411,b,1.0,0.7325756000354886,,,,,sub-162,1,stroop_test,60.05082701552112,
,,,,36.0,0.0,3.0,,,,,,,,,,,,,blau,blue,b,1.0,b,1.0,0.6050113000674173,,,,,,,,,,3.0,0.0,36.0,5.0,185.96151619998275,,,,,,,,,,,,,,,,,185.9461469000671,186.04498860007152,186.84450690005903,186.8294631000608,,,,,,,,,,,,,,,,,,,,,,,,,,,,,,,,,,,186.8349339000415,186.84450690005903,186.84450690005903,187.4632376000518,b,1.0,0.6050113000674173,,,,,sub-162,1,stroop_test,60.05082701552112,
,,,,37.0,1.0,3.0,,,,,,,,,,,,,rot,red,r,1.0,r,1.0,0.6097842999733984,,,,,,,,,,3.0,1.0,37.0,0.0,187.47764980001372,,,,,,,,,,,,,,,,,187.4640087999869,188.27711739996448,189.0761632999638,189.06500080006663,,,,,,,,,,,,,,,,,,,,,,,,,,,,,,,,,,,189.0691371000139,189.0761632999638,189.0761632999638,189.69553919998,r,1.0,0.6097842999733984,,,,,sub-162,1,stroop_test,60.05082701552112,
,,,,38.0,2.0,3.0,,,,,,,,,,,,,blau,yellow,g,0.0,g,1.0,0.625585199915804,,,,,,,,,,3.0,2.0,38.0,7.0,189.70959089999087,,,,,,,,,,,,,,,,,189.6963140000589,189.80948549997996,190.67337550001685,190.5935285000596,,,,,,,,,,,,,,,,,,,,,,,,,,,,,,,,,,,190.6683026000392,190.67337550001685,190.67337550001685,191.30924870003943,g,1.0,0.625585199915804,,,,,sub-162,1,stroop_test,60.05082701552112,
,,,,39.0,3.0,3.0,,,,,,,,,,,,,gelb,yellow,g,1.0,g,1.0,0.4294401999795809,,,,,,,,,,3.0,3.0,39.0,10.0,191.32508330000564,,,,,,,,,,,,,,,,,191.3095239000395,191.6749897999689,192.47437379998155,192.45834190002645,,,,,,,,,,,,,,,,,,,,,,,,,,,,,,,,,,,192.4623586999951,192.47437379998155,192.47437379998155,192.90931400004771,g,1.0,0.4294401999795809,,,,,sub-162,1,stroop_test,60.05082701552112,
,,,,40.0,4.0,3.0,,,,,,,,,,,,,gelb,yellow,g,1.0,g,1.0,0.5010130000300705,,,,,,,,,,3.0,4.0,40.0,11.0,192.924170400016,,,,,,,,,,,,,,,,,192.90991940000092,194.12376079999376,194.92288730002477,194.90725509996992,,,,,,,,,,,,,,,,,,,,,,,,,,,,,,,,,,,194.9081162000075,194.92288730002477,194.92288730002477,195.44184650003444,g,1.0,0.5010130000300705,,,,,sub-162,1,stroop_test,60.05082701552112,
,,,,41.0,5.0,3.0,,,,,,,,,,,,,rot,blue,b,0.0,b,1.0,1.17977940000128,,,,,,,,,,3.0,5.0,41.0,2.0,195.45596559997648,,,,,,,,,,,,,,,,,195.44260810001288,195.5559747000225,196.35578480002005,196.3404984000372,,,,,,,,,,,,,,,,,,,,,,,,,,,,,,,,,,,196.34777960006613,196.35578480002005,196.35578480002005,197.54120700003116,b,1.0,1.17977940000128,,,,,sub-162,1,stroop_test,60.05082701552112,
,,,,42.0,6.0,3.0,,,,,,,,,,,,,gelb,blue,b,0.0,b,1.0,0.4940024999668821,,,,,,,,,,3.0,6.0,42.0,9.0,197.554862900055,,,,,,,,,,,,,,,,,197.5420803000452,198.35701739997603,199.1705924000125,199.15509570005813,,,,,,,,,,,,,,,,,,,,,,,,,,,,,,,,,,,199.16277519997675,199.1705924000125,199.1705924000125,199.67312659998424,b,1.0,0.4940024999668821,,,,,sub-162,1,stroop_test,60.05082701552112,
,,,,43.0,7.0,3.0,,,,,,,,,,,,,rot,yellow,g,0.0,g,1.0,0.7549581000348553,,,,,,,,,,3.0,7.0,43.0,3.0,199.686720800004,,,,,,,,,,,,,,,,,199.6740095000714,200.0361099999864,200.8364383999724,200.8208651000168,,,,,,,,,,,,,,,,,,,,,,,,,,,,,,,,,,,200.8284823000431,200.8364383999724,200.8364383999724,201.60463079996407,g,1.0,0.7549581000348553,,,,,sub-162,1,stroop_test,60.05082701552112,
,,,,44.0,8.0,3.0,,,,,,,,,,,,,gelb,red,r,0.0,r,1.0,0.5873228999553248,,,,,,,,,,3.0,8.0,44.0,8.0,201.61890090000816,,,,,,,,,,,,,,,,,201.60539849998892,201.96875030000228,202.7677598000737,202.75164260005116,,,,,,,,,,,,,,,,,,,,,,,,,,,,,,,,,,,202.7540814999957,202.7677598000737,202.7677598000737,203.37023680005225,r,1.0,0.5873228999553248,,,,,sub-162,1,stroop_test,60.05082701552112,
,,,,45.0,9.0,3.0,,,,,,,,,,,,,rot,red,r,1.0,r,1.0,0.4238087000558153,,,,,,,,,,3.0,9.0,45.0,1.0,203.38446249999103,,,,,,,,,,,,,,,,,203.37103200005367,203.73422820004637,204.5337780000409,204.5184782000724,,,,,,,,,,,,,,,,,,,,,,,,,,,,,,,,,,,204.5259694000706,204.5337780000409,204.5337780000409,204.96924999996557,r,1.0,0.4238087000558153,,,,,sub-162,1,stroop_test,60.05082701552112,
,,,,46.0,10.0,3.0,,,,,,,,,,,,,blau,blue,b,1.0,b,1.0,0.5879525999771431,,,,,,,,,,3.0,10.0,46.0,6.0,204.98338580003477,,,,,,,,,,,,,,,,,204.9700584000675,205.78303250006863,206.5823134999955,206.5660330000101,,,,,,,,,,,,,,,,,,,,,,,,,,,,,,,,,,,206.56809760001488,206.5823134999955,206.5823134999955,207.18335760000627,b,1.0,0.5879525999771431,,,,,sub-162,1,stroop_test,60.05082701552112,
,,,,47.0,11.0,3.0,,,,,,,,,,,,,blau,red,r,0.0,r,1.0,0.8409697000170127,,,,,,,,,,3.0,11.0,47.0,4.0,207.19858450000172,,,,,,,,,,,,,,,,,207.1837991999928,207.9981607999653,208.7979126999853,208.7825369000202,,,,,,,,,,,,,,,,,,,,,,,,,,,,,,,,,,,208.78378050005995,208.7979126999853,208.7979126999853,209.6489134000149,r,1.0,0.8409697000170127,,,,,sub-162,1,stroop_test,60.05082701552112,
,,,,48.0,0.0,4.0,,,,,,,,,,,,,gelb,yellow,g,1.0,g,1.0,0.5968169000698254,,,,,,,,,,4.0,0.0,48.0,11.0,209.66372870001945,,,,,,,,,,,,,,,,,209.6495154000586,209.76374860003125,210.5631675000768,210.5480313000735,,,,,,,,,,,,,,,,,,,,,,,,,,,,,,,,,,,210.5541701000184,210.5631675000768,210.5631675000768,211.1657340000384,g,1.0,0.5968169000698254,,,,,sub-162,1,stroop_test,60.05082701552112,
,,,,49.0,1.0,4.0,,,,,,,,,,,,,rot,red,r,1.0,r,1.0,0.5904340000124648,,,,,,,,,,4.0,1.0,49.0,0.0,211.17942920001224,,,,,,,,,,,,,,,,,211.16674440004863,212.3790294000646,213.17823169997428,213.1624091999838,,,,,,,,,,,,,,,,,,,,,,,,,,,,,,,,,,,213.16640069999264,213.17823169997428,213.17823169997428,213.7798860999756,r,1.0,0.5904340000124648,,,,,sub-162,1,stroop_test,60.05082701552112,
,,,,50.0,2.0,4.0,,,,,,,,,,,,,gelb,red,r,0.0,r,1.0,0.7772356000496075,,,,,,,,,,4.0,2.0,50.0,8.0,213.7947395000374,,,,,,,,,,,,,,,,,213.7805491000181,214.59433130000247,215.3939016000368,215.3776399000781,,,,,,,,,,,,,,,,,,,,,,,,,,,,,,,,,,,215.38143569999372,215.3939016000368,215.3939016000368,216.1794884999981,r,1.0,0.7772356000496075,,,,,sub-162,1,stroop_test,60.05082701552112,
,,,,51.0,3.0,4.0,,,,,,,,,,,,,rot,blue,b,0.0,b,1.0,0.9090414999518543,,,,,,,,,,4.0,3.0,51.0,2.0,216.19333370006643,,,,,,,,,,,,,,,,,216.1804017999675,216.99267419998068,217.792191100074,217.7773999000201,,,,,,,,,,,,,,,,,,,,,,,,,,,,,,,,,,,217.78418000007517,217.792191100074,217.792191100074,218.71150350000244,b,1.0,0.9090414999518543,,,,,sub-162,1,stroop_test,60.05082701552112,
,,,,52.0,4.0,4.0,,,,,,,,,,,,,rot,yellow,g,0.0,g,1.0,1.0805966999614611,,,,,,,,,,4.0,4.0,52.0,3.0,218.7248112000525,,,,,,,,,,,,,,,,,218.71241350006312,218.8251413999824,219.6242538000224,219.60785040003248,,,,,,,,,,,,,,,,,,,,,,,,,,,,,,,,,,,219.6081635999726,219.6242538000224,219.6242538000224,220.70771680003963,g,1.0,1.0805966999614611,,,,,sub-162,1,stroop_test,60.05082701552112,
,,,,53.0,5.0,4.0,,,,,,,,,,,,,blau,yellow,g,0.0,g,1.0,0.5911944999825209,,,,,,,,,,4.0,5.0,53.0,7.0,220.72338360000867,,,,,,,,,,,,,,,,,220.7079669999657,221.92285319999792,222.72253170004117,222.70712480007205,,,,,,,,,,,,,,,,,,,,,,,,,,,,,,,,,,,222.71378590003587,222.72253170004117,222.72253170004117,223.32507789996453,g,1.0,0.5911944999825209,,,,,sub-162,1,stroop_test,60.05082701552112,
,,,,54.0,6.0,4.0,,,,,,,,,,,,,blau,blue,b,1.0,b,1.0,0.6406933999387547,,,,,,,,,,4.0,6.0,54.0,6.0,223.3388968000654,,,,,,,,,,,,,,,,,223.32595550001133,223.6886648000218,224.48834939999503,224.47297620004971,,,,,,,,,,,,,,,,,,,,,,,,,,,,,,,,,,,224.47420429997143,224.48834939999503,224.48834939999503,225.13860110007224,b,1.0,0.6406933999387547,,,,,sub-162,1,stroop_test,60.05082701552112,
,,,,55.0,7.0,4.0,,,,,,,,,,,,,blau,red,r,0.0,r,1.0,0.7738403000403196,,,,,,,,,,4.0,7.0,55.0,4.0,225.1540774999885,,,,,,,,,,,,,,,,,225.1389589000028,226.3535076000262,227.15324630006216,227.1381431000773,,,,,,,,,,,,,,,,,,,,,,,,,,,,,,,,,,,227.13942120003048,227.15324630006216,227.15324630006216,227.93837129999883,r,1.0,0.7738403000403196,,,,,sub-162,1,stroop_test,60.05082701552112,
,,,,56.0,8.0,4.0,,,,,,,,,,,,,gelb,yellow,g,1.0,g,1.0,0.7135729999281466,,,,,,,,,,4.0,8.0,56.0,10.0,227.952563000028,,,,,,,,,,,,,,,,,227.93913910002448,229.15181469998788,229.9537811999908,229.93625490006525,,,,,,,,,,,,,,,,,,,,,,,,,,,,,,,,,,,229.9449253999628,229.9537811999908,229.9537811999908,230.6704953999724,g,1.0,0.7135729999281466,,,,,sub-162,1,stroop_test,60.05082701552112,
,,,,57.0,9.0,4.0,,,,,,,,,,,,,blau,blue,b,1.0,b,1.0,0.598899699980393,,,,,,,,,,4.0,9.0,57.0,5.0,230.68435220001265,,,,,,,,,,,,,,,,,230.67137820005885,231.03414840006732,231.83359980001117,231.81770110002253,,,,,,,,,,,,,,,,,,,,,,,,,,,,,,,,,,,231.8230601999676,231.83359980001117,231.83359980001117,232.4361247000052,b,1.0,0.598899699980393,,,,,sub-162,1,stroop_test,60.05082701552112,
,,,,58.0,10.0,4.0,,,,,,,,,,,,,rot,red,r,1.0,r,1.0,0.5852582000661641,,,,,,,,,,4.0,10.0,58.0,1.0,232.44993430003524,,,,,,,,,,,,,,,,,232.43700180004817,232.79947850003373,233.59919009997972,233.5839355000062,,,,,,,,,,,,,,,,,,,,,,,,,,,,,,,,,,,233.5905628000619,233.59919009997972,233.59919009997972,234.2004198000068,r,1.0,0.5852582000661641,,,,,sub-162,1,stroop_test,60.05082701552112,
,,,,59.0,11.0,4.0,,,,,,,,,,,,,gelb,blue,b,0.0,b,1.0,0.7204882999649271,,,,,,,,,,4.0,11.0,59.0,9.0,234.21541800000705,,,,,,,,,,,,,,,,,234.2009897000389,235.41454640007575,236.22236430004705,236.1993587000761,,,,,,,,,,,,,,,,,,,,,,,,,,,,,,,,,,,236.21565600007307,236.22236430004705,236.22236430004705,236.94732070004105,b,1.0,0.7204882999649271,,,,,sub-162,1,stroop_test,60.05082701552112,
,,,,60.0,0.0,5.0,,,,,,,,,,,,,gelb,red,r,0.0,r,1.0,1.1187834000447765,,,,,,,,,,5.0,0.0,60.0,8.0,236.96342370007187,,,,,,,,,,,,,,,,,236.9475092999637,237.74681719997895,238.5462261000648,238.5307676000521,,,,,,,,,,,,,,,,,,,,,,,,,,,,,,,,,,,238.53182759997435,238.5462261000648,238.5462261000648,239.68125989998225,r,1.0,1.1187834000447765,,,,,sub-162,1,stroop_test,60.05082701552112,
,,,,61.0,1.0,5.0,,,,,,,,,,,,,rot,yellow,g,0.0,g,1.0,0.6846151000354439,,,,,,,,,,5.0,1.0,61.0,3.0,239.69553100003395,,,,,,,,,,,,,,,,,239.6820510000689,240.04503510007635,240.8449052000651,240.8290302000241,,,,,,,,,,,,,,,,,,,,,,,,,,,,,,,,,,,240.83550020004623,240.8449052000651,240.8449052000651,241.54729160002896,g,1.0,0.6846151000354439,,,,,sub-162,1,stroop_test,60.05082701552112,
,,,,62.0,2.0,5.0,,,,,,,,,,,,,blau,yellow,g,0.0,g,1.0,0.5113806000445038,,,,,,,,,,5.0,2.0,62.0,7.0,241.56079090002456,,,,,,,,,,,,,,,,,241.54818120005075,241.6610478999792,242.46026409999467,242.44404640002176,,,,,,,,,,,,,,,,,,,,,,,,,,,,,,,,,,,242.44601459999103,242.46026409999467,242.46026409999467,242.979812100064,g,1.0,0.5113806000445038,,,,,sub-162,1,stroop_test,60.05082701552112,
,,,,63.0,3.0,5.0,,,,,,,,,,,,,blau,blue,b,1.0,b,1.0,0.4900885999668389,,,,,,,,,,5.0,3.0,63.0,5.0,242.993391099968,,,,,,,,,,,,,,,,,242.9807330999756,243.79294279997703,244.5922661999939,244.57611260004344,,,,,,,,,,,,,,,,,,,,,,,,,,,,,,,,,,,244.5764080999652,244.5922661999939,244.5922661999939,245.09439049998764,b,1.0,0.4900885999668389,,,,,sub-162,1,stroop_test,60.05082701552112,
,,,,64.0,4.0,5.0,,,,,,,,,,,,,rot,red,r,1.0,r,1.0,0.5055856999242678,,,,,,,,,,5.0,4.0,64.0,0.0,245.1090355999768,,,,,,,,,,,,,,,,,245.0951795000583,245.4583988999948,246.2613436999964,246.24348349997308,,,,,,,,,,,,,,,,,,,,,,,,,,,,,,,,,,,246.25217420002448,246.2613436999964,246.2613436999964,246.77509810007177,r,1.0,0.5055856999242678,,,,,sub-162,1,stroop_test,60.05082701552112,
,,,,65.0,5.0,5.0,,,,,,,,,,,,,gelb,yellow,g,1.0,g,1.0,0.4954822000581771,,,,,,,,,,5.0,5.0,65.0,10.0,246.79085900005884,,,,,,,,,,,,,,,,,246.7753420000663,247.9904691000702,248.79002539999783,248.7747214999981,,,,,,,,,,,,,,,,,,,,,,,,,,,,,,,,,,,248.78313190001063,248.79002539999783,248.79002539999783,249.2922443000134,g,1.0,0.4954822000581771,,,,,sub-162,1,stroop_test,60.05082701552112,
,,,,66.0,6.0,5.0,,,,,,,,,,,,,gelb,blue,b,0.0,b,1.0,0.4627204000717029,,,,,,,,,,5.0,6.0,66.0,9.0,249.3060040000128,,,,,,,,,,,,,,,,,249.2931285999948,250.10554030002092,250.90531070006543,250.8901819000021,,,,,,,,,,,,,,,,,,,,,,,,,,,,,,,,,,,250.89142230001744,250.90531070006543,250.90531070006543,251.37330370000564,b,1.0,0.4627204000717029,,,,,sub-162,1,stroop_test,60.05082701552112,
,,,,67.0,7.0,5.0,,,,,,,,,,,,,blau,red,r,0.0,r,1.0,0.553894400014542,,,,,,,,,,5.0,7.0,67.0,4.0,251.38814659998752,,,,,,,,,,,,,,,,,251.37391209998168,251.73815750004724,252.53766809997612,252.52242839999963,,,,,,,,,,,,,,,,,,,,,,,,,,,,,,,,,,,252.52996790001637,252.53766809997612,252.53766809997612,253.1051709000021,r,1.0,0.553894400014542,,,,,sub-162,1,stroop_test,60.05082701552112,
,,,,68.0,8.0,5.0,,,,,,,,,,,,,rot,red,r,1.0,r,1.0,0.4327638000249862,,,,,,,,,,5.0,8.0,68.0,1.0,253.1204175000312,,,,,,,,,,,,,,,,,253.10561580001377,254.31930390000343,255.12028949998785,255.1040844999952,,,,,,,,,,,,,,,,,,,,,,,,,,,,,,,,,,,255.1119315000251,255.12028949998785,255.12028949998785,255.556076399982,r,1.0,0.4327638000249862,,,,,sub-162,1,stroop_test,60.05082701552112,
,,,,69.0,9.0,5.0,,,,,,,,,,,,,gelb,yellow,g,1.0,g,1.0,0.5145841999910772,,,,,,,,,,5.0,9.0,69.0,11.0,255.56900809996296,,,,,,,,,,,,,,,,,255.55695960007145,255.91892510000616,256.72313389997,256.7031983999768,,,,,,,,,,,,,,,,,,,,,,,,,,,,,,,,,,,256.71325400006026,256.72313389997,256.72313389997,257.2530334000476,g,1.0,0.5145841999910772,,,,,sub-162,1,stroop_test,60.05082701552112,
,,,,70.0,10.0,5.0,,,,,,,,,,,,,rot,blue,b,0.0,b,1.0,0.4820103000383824,,,,,,,,,,5.0,10.0,70.0,2.0,257.2677370000165,,,,,,,,,,,,,,,,,257.25361790007446,258.46733150002547,259.26654520002194,259.2522973000305,,,,,,,,,,,,,,,,,,,,,,,,,,,,,,,,,,,259.25824029999785,259.26654520002194,259.26654520002194,259.75008839997463,b,1.0,0.4820103000383824,,,,,sub-162,1,stroop_test,60.05082701552112,
,,,,71.0,11.0,5.0,,,,,,,,,,,,,blau,blue,b,1.0,b,1.0,0.3859775000018999,,,,,,,,,,5.0,11.0,71.0,6.0,259.7660342999734,,,,,,,,,,,,,,,,,259.75028530007694,260.09947320003994,260.8988174999831,260.8827380000148,,,,,,,,,,,,,,,,,,,,,,,,,,,,,,,,,,,260.8851005000761,260.8988174999831,260.8988174999831,261.3006813999964,b,1.0,0.3859775000018999,,,,,sub-162,1,stroop_test,60.05082701552112,
,,,,72.0,0.0,6.0,,,,,,,,,,,,,blau,red,r,0.0,r,1.0,0.525361799984239,,,,,,,,,,6.0,0.0,72.0,4.0,261.31553290004376,,,,,,,,,,,,,,,,,261.30130940000527,262.1147576000076,262.91452240000945,262.8991472000489,,,,,,,,,,,,,,,,,,,,,,,,,,,,,,,,,,,262.90025339997374,262.91452240000945,262.91452240000945,263.4492105999961,r,1.0,0.525361799984239,,,,,sub-162,1,stroop_test,60.05082701552112,
,,,,73.0,1.0,6.0,,,,,,,,,,,,,gelb,red,r,0.0,r,1.0,0.3976016999222338,,,,,,,,,,6.0,1.0,73.0,8.0,263.46409460005816,,,,,,,,,,,,,,,,,263.44980030006263,263.81369420001283,264.6133108000504,264.59755419997964,,,,,,,,,,,,,,,,,,,,,,,,,,,,,,,,,,,264.60321249999106,264.6133108000504,264.6133108000504,265.0148907999974,r,1.0,0.3976016999222338,,,,,sub-162,1,stroop_test,60.05082701552112,
,,,,74.0,2.0,6.0,,,,,,,,,,,,,gelb,yellow,g,1.0,g,1.0,0.4080546000041067,,,,,,,,,,6.0,2.0,74.0,11.0,265.02967469999567,,,,,,,,,,,,,,,,,265.01545980002265,265.8293822000269,266.62909239996225,266.61442110000644,,,,,,,,,,,,,,,,,,,,,,,,,,,,,,,,,,,266.61583010002505,266.62909239996225,266.62909239996225,267.0477015000069,g,1.0,0.4080546000041067,,,,,sub-162,1,stroop_test,60.05082701552112,
,,,,75.0,3.0,6.0,,,,,,,,,,,,,gelb,yellow,g,1.0,g,1.0,0.3694480000995099,,,,,,,,,,6.0,3.0,75.0,10.0,267.06190299999435,,,,,,,,,,,,,,,,,267.04848029999994,267.4114884000737,268.2111819999991,268.1952793999808,,,,,,,,,,,,,,,,,,,,,,,,,,,,,,,,,,,268.19594520004466,268.2111819999991,268.2111819999991,268.5971750000026,g,1.0,0.3694480000995099,,,,,sub-162,1,stroop_test,60.05082701552112,
,,,,76.0,4.0,6.0,,,,,,,,,,,,,blau,yellow,g,0.0,g,1.0,0.4637899999506771,,,,,,,,,,6.0,4.0,76.0,7.0,268.61105940002017,,,,,,,,,,,,,,,,,268.59807790000923,268.9628360000206,269.77681920002215,269.7611453999998,,,,,,,,,,,,,,,,,,,,,,,,,,,,,,,,,,,269.76615989999846,269.77681920002215,269.77681920002215,270.2458426000085,g,1.0,0.4637899999506771,,,,,sub-162,1,stroop_test,60.05082701552112,
,,,,77.0,5.0,6.0,,,,,,,,,,,,,rot,red,r,1.0,r,1.0,0.4724543000338599,,,,,,,,,,6.0,5.0,77.0,1.0,270.2599747000495,,,,,,,,,,,,,,,,,270.2466534000123,271.05960989999585,271.85884990007617,271.8432352000382,,,,,,,,,,,,,,,,,,,,,,,,,,,,,,,,,,,271.85050210007466,271.85884990007617,271.85884990007617,272.3438908000244,r,1.0,0.4724543000338599,,,,,sub-162,1,stroop_test,60.05082701552112,
,,,,78.0,6.0,6.0,,,,,,,,,,,,,rot,red,r,1.0,r,1.0,0.4408920999849215,,,,,,,,,,6.0,6.0,78.0,0.0,272.3587261000648,,,,,,,,,,,,,,,,,272.3445471000159,273.5578447000589,274.3571953000501,274.3414113000036,,,,,,,,,,,,,,,,,,,,,,,,,,,,,,,,,,,274.34206499997526,274.3571953000501,274.3571953000501,274.81056100002024,r,1.0,0.4408920999849215,,,,,sub-162,1,stroop_test,60.05082701552112,
,,,,79.0,7.0,6.0,,,,,,,,,,,,,blau,blue,b,1.0,b,1.0,0.5778894999530166,,,,,,,,,,6.0,7.0,79.0,6.0,274.82395990006626,,,,,,,,,,,,,,,,,274.8115661999909,275.173562400043,275.97271300002467,275.9570020000683,,,,,,,,,,,,,,,,,,,,,,,,,,,,,,,,,,,275.9610264999792,275.97271300002467,275.97271300002467,276.5587397000054,b,1.0,0.5778894999530166,,,,,sub-162,1,stroop_test,60.05082701552112,
,,,,80.0,8.0,6.0,,,,,,,,,,,,,gelb,blue,b,0.0,b,1.0,0.5784567000810057,,,,,,,,,,6.0,8.0,80.0,9.0,276.5728159999708,,,,,,,,,,,,,,,,,276.5595328999916,276.9225774999941,277.7219654000364,277.70630720001645,,,,,,,,,,,,,,,,,,,,,,,,,,,,,,,,,,,277.71237229998223,277.7219654000364,277.7219654000364,278.3058763999725,b,1.0,0.5784567000810057,,,,,sub-162,1,stroop_test,60.05082701552112,
,,,,81.0,9.0,6.0,,,,,,,,,,,,,blau,blue,b,1.0,b,1.0,0.4216768000042066,,,,,,,,,,6.0,9.0,81.0,5.0,278.3215808999957,,,,,,,,,,,,,,,,,278.3062318000011,278.40501950006,279.2069704000605,279.18938960006926,,,,,,,,,,,,,,,,,,,,,,,,,,,,,,,,,,,279.19735170004424,279.2069704000605,279.2069704000605,279.64038530003745,b,1.0,0.4216768000042066,,,,,sub-162,1,stroop_test,60.05082701552112,
,,,,82.0,10.0,6.0,,,,,,,,,,,,,rot,yellow,g,0.0,g,1.0,0.5801521999528632,,,,,,,,,,6.0,10.0,82.0,3.0,279.654240700067,,,,,,,,,,,,,,,,,279.6413542999653,280.45361830003094,281.2531796999974,281.23733520007227,,,,,,,,,,,,,,,,,,,,,,,,,,,,,,,,,,,281.2426968000364,281.2531796999974,281.2531796999974,281.8390568000032,g,1.0,0.5801521999528632,,,,,sub-162,1,stroop_test,60.05082701552112,
,,,,83.0,11.0,6.0,,,,,,,,,,,,,rot,blue,b,0.0,r,0.0,0.5706884999526665,,,,,,,,,,6.0,11.0,83.0,2.0,281.8528973000357,,,,,,,,,,,,,,,,,281.8400618999731,282.2027278000023,283.00195689999964,282.9873864999972,,,,,,,,,,,,,,,,,,,,,,,,,,,,,,,,,,,282.98856470000464,283.00195689999964,283.00195689999964,283.5853285000194,r,0.0,0.5706884999526665,,,,,sub-162,1,stroop_test,60.05082701552112,
,,,,84.0,0.0,7.0,,,,,,,,,,,,,blau,yellow,g,0.0,g,1.0,1.3415534999221563,,,,,,,,,,7.0,0.0,84.0,7.0,283.6014588000253,,,,,,,,,,,,,,,,,283.5855305000441,283.68490380002186,284.4844213000033,284.46897960000206,,,,,,,,,,,,,,,,,,,,,,,,,,,,,,,,,,,284.4731288000476,284.4844213000033,284.4844213000033,285.83458090003114,g,1.0,1.3415534999221563,,,,,sub-162,1,stroop_test,60.05082701552112,
,,,,85.0,1.0,7.0,,,,,,,,,,,,,gelb,red,r,0.0,r,1.0,0.8282032000133768,,,,,,,,,,7.0,1.0,85.0,8.0,285.8501731000142,,,,,,,,,,,,,,,,,285.8348296000622,286.2002883000532,286.99945530004334,286.9833879000508,,,,,,,,,,,,,,,,,,,,,,,,,,,,,,,,,,,286.9866025999654,286.99945530004334,286.99945530004334,287.8355610000435,r,1.0,0.8282032000133768,,,,,sub-162,1,stroop_test,60.05082701552112,
,,,,86.0,2.0,7.0,,,,,,,,,,,,,blau,red,r,0.0,r,1.0,0.4186753999674693,,,,,,,,,,7.0,2.0,86.0,4.0,287.84954009996727,,,,,,,,,,,,,,,,,287.83643340005074,288.6485496000387,289.44801190006547,289.43212100001983,,,,,,,,,,,,,,,,,,,,,,,,,,,,,,,,,,,289.43552369996905,289.44801190006547,289.44801190006547,289.88446930004284,r,1.0,0.4186753999674693,,,,,sub-162,1,stroop_test,60.05082701552112,
,,,,87.0,3.0,7.0,,,,,,,,,,,,,rot,red,r,1.0,r,1.0,0.5097272999119014,,,,,,,,,,7.0,3.0,87.0,1.0,289.8977659000084,,,,,,,,,,,,,,,,,289.88550930004567,290.24753960000817,291.0474194000708,291.0318531000521,,,,,,,,,,,,,,,,,,,,,,,,,,,,,,,,,,,291.0395521000028,291.0474194000708,291.0474194000708,291.5650964999804,r,1.0,0.5097272999119014,,,,,sub-162,1,stroop_test,60.05082701552112,
,,,,88.0,4.0,7.0,,,,,,,,,,,,,gelb,yellow,g,1.0,g,1.0,0.5338364000199363,,,,,,,,,,7.0,4.0,88.0,10.0,291.5800791999791,,,,,,,,,,,,,,,,,291.56568380002864,292.7796177000273,293.5788957000477,293.5634565000655,,,,,,,,,,,,,,,,,,,,,,,,,,,,,,,,,,,293.5705321000423,293.5788957000477,293.5788957000477,294.1299948999658,g,1.0,0.5338364000199363,,,,,sub-162,1,stroop_test,60.05082701552112,
,,,,89.0,5.0,7.0,,,,,,,,,,,,,blau,blue,b,1.0,b,1.0,0.5191752000246197,,,,,,,,,,7.0,5.0,89.0,5.0,294.1451201000018,,,,,,,,,,,,,,,,,294.1305288000731,294.2451235000044,295.04594500001986,295.0296564999735,,,,,,,,,,,,,,,,,,,,,,,,,,,,,,,,,,,295.0371936999727,295.04594500001986,295.04594500001986,295.5804827000248,b,1.0,0.5191752000246197,,,,,sub-162,1,stroop_test,60.05082701552112,
,,,,90.0,6.0,7.0,,,,,,,,,,,,,blau,blue,b,1.0,b,1.0,0.4946656000101939,,,,,,,,,,7.0,6.0,90.0,6.0,295.59446030005347,,,,,,,,,,,,,,,,,295.58140090003144,295.6941079000244,296.49366929999087,296.4775736000156,,,,,,,,,,,,,,,,,,,,,,,,,,,,,,,,,,,296.4780100999633,296.49366929999087,296.49366929999087,296.9951987999957,b,1.0,0.4946656000101939,,,,,sub-162,1,stroop_test,60.05082701552112,
,,,,91.0,7.0,7.0,,,,,,,,,,,,,rot,yellow,g,0.0,g,1.0,0.8900736999930814,,,,,,,,,,7.0,7.0,91.0,3.0,297.0100096999668,,,,,,,,,,,,,,,,,296.99578130000737,298.2095078000566,299.00881979998667,298.9929888000479,,,,,,,,,,,,,,,,,,,,,,,,,,,,,,,,,,,298.9974956000224,299.00881979998667,299.00881979998667,299.90952920005657,g,1.0,0.8900736999930814,,,,,sub-162,1,stroop_test,60.05082701552112,
,,,,92.0,8.0,7.0,,,,,,,,,,,,,gelb,yellow,g,1.0,g,1.0,0.5064981000032276,,,,,,,,,,7.0,8.0,92.0,11.0,299.92464890005067,,,,,,,,,,,,,,,,,299.9102026000619,300.2748675000621,301.07421400002204,301.05800169997383,,,,,,,,,,,,,,,,,,,,,,,,,,,,,,,,,,,301.0605450000148,301.07421400002204,301.07421400002204,301.5937363000121,g,1.0,0.5064981000032276,,,,,sub-162,1,stroop_test,60.05082701552112,
,,,,93.0,9.0,7.0,,,,,,,,,,,,,rot,blue,b,0.0,b,1.0,0.7548734999727458,,,,,,,,,,7.0,9.0,93.0,2.0,301.6072346000001,,,,,,,,,,,,,,,,,301.59463419998065,302.4069711000193,303.2061805999838,303.1916283000028,,,,,,,,,,,,,,,,,,,,,,,,,,,,,,,,,,,303.1991841000272,303.2061805999838,303.2061805999838,303.9753628000617,b,1.0,0.7548734999727458,,,,,sub-162,1,stroop_test,60.05082701552112,
,,,,94.0,10.0,7.0,,,,,,,,,,,,,rot,red,r,1.0,r,1.0,0.568149600061588,,,,,,,,,,7.0,10.0,94.0,0.0,303.98925290000625,,,,,,,,,,,,,,,,,303.97622289997526,304.78875499998685,305.5882903999882,305.57282620004844,,,,,,,,,,,,,,,,,,,,,,,,,,,,,,,,,,,305.57375400001183,305.5882903999882,305.5882903999882,306.17304739996325,r,1.0,0.568149600061588,,,,,sub-162,1,stroop_test,60.05082701552112,
,,,,95.0,11.0,7.0,,,,,,,,,,,,,gelb,blue,b,0.0,b,1.0,0.5986569999950007,,,,,,,,,,7.0,11.0,95.0,9.0,306.1877158000134,,,,,,,,,,,,,,,,,306.17364870000165,307.3872996000573,308.1869233000325,308.171558800037,,,,,,,,,,,,,,,,,,,,,,,,,,,,,,,,,,,308.1800340000773,308.1869233000325,308.1869233000325,308.7874625000404,b,1.0,0.5986569999950007,,,,,sub-162,1,stroop_test,60.05082701552112,
,,,,96.0,0.0,8.0,,,,,,,,,,,,,rot,red,r,1.0,r,1.0,0.8299847999587655,,,,,,,,,,8.0,0.0,96.0,0.0,308.80273560003843,,,,,,,,,,,,,,,,,308.7878248000052,308.90327560005244,309.7187440000707,309.7023902999936,,,,,,,,,,,,,,,,,,,,,,,,,,,,,,,,,,,309.70420250005554,309.7187440000707,309.7187440000707,310.55256109999027,r,1.0,0.8299847999587655,,,,,sub-162,1,stroop_test,60.05082701552112,
,,,,97.0,1.0,8.0,,,,,,,,,,,,,blau,red,r,0.0,r,1.0,0.4751720000058412,,,,,,,,,,8.0,1.0,97.0,4.0,310.5683457000414,,,,,,,,,,,,,,,,,310.55284780007787,310.65175840002485,311.45210710004903,311.4363440000452,,,,,,,,,,,,,,,,,,,,,,,,,,,,,,,,,,,311.4439515999984,311.45210710004903,311.45210710004903,311.9363114000298,r,1.0,0.4751720000058412,,,,,sub-162,1,stroop_test,60.05082701552112,
,,,,98.0,2.0,8.0,,,,,,,,,,,,,rot,yellow,g,0.0,g,1.0,0.614424099912867,,,,,,,,,,8.0,2.0,98.0,3.0,311.9508780000033,,,,,,,,,,,,,,,,,311.9370134000201,313.15033460001,313.9496760000475,313.93443530006334,,,,,,,,,,,,,,,,,,,,,,,,,,,,,,,,,,,313.94118309998885,313.9496760000475,313.9496760000475,314.56896439997945,g,1.0,0.614424099912867,,,,,sub-162,1,stroop_test,60.05082701552112,
,,,,99.0,3.0,8.0,,,,,,,,,,,,,gelb,blue,b,0.0,b,1.0,0.7457041000016034,,,,,,,,,,8.0,3.0,99.0,9.0,314.58251129998825,,,,,,,,,,,,,,,,,314.5698274000315,315.7820673000533,316.58305780007504,316.5667722000508,,,,,,,,,,,,,,,,,,,,,,,,,,,,,,,,,,,316.57541290007066,316.58305780007504,316.58305780007504,317.3316321000457,b,1.0,0.7457041000016034,,,,,sub-162,1,stroop_test,60.05082701552112,
,,,,100.0,4.0,8.0,,,,,,,,,,,,,gelb,yellow,g,1.0,g,1.0,0.8139222000027075,,,,,,,,,,8.0,4.0,100.0,10.0,317.3474394000368,,,,,,,,,,,,,,,,,317.3318689999869,317.43080870003905,318.2305267000338,318.2150760999648,,,,,,,,,,,,,,,,,,,,,,,,,,,,,,,,,,,318.2161708000349,318.2305267000338,318.2305267000338,319.049376500072,g,1.0,0.8139222000027075,,,,,sub-162,1,stroop_test,60.05082701552112,
,,,,101.0,5.0,8.0,,,,,,,,,,,,,blau,blue,b,1.0,b,1.0,0.5182396000018343,,,,,,,,,,8.0,5.0,101.0,5.0,319.0633711999981,,,,,,,,,,,,,,,,,319.0502688999986,319.4130382000003,320.2147669000551,320.1967420000583,,,,,,,,,,,,,,,,,,,,,,,,,,,,,,,,,,,320.2015911999624,320.2147669000551,320.2147669000551,320.7476744999876,b,1.0,0.5182396000018343,,,,,sub-162,1,stroop_test,60.05082701552112,
,,,,102.0,6.0,8.0,,,,,,,,,,,,,rot,blue,b,0.0,b,1.0,0.4478751000715419,,,,,,,,,,8.0,6.0,102.0,2.0,320.7622337000212,,,,,,,,,,,,,,,,,320.7483743999619,321.9616514999652,322.7605672000209,322.74510840000585,,,,,,,,,,,,,,,,,,,,,,,,,,,,,,,,,,,322.7488496999722,322.7605672000209,322.7605672000209,323.2138253999874,b,1.0,0.4478751000715419,,,,,sub-162,1,stroop_test,60.05082701552112,
,,,,103.0,7.0,8.0,,,,,,,,,,,,,gelb,red,r,0.0,r,1.0,0.6352419999893755,,,,,,,,,,8.0,7.0,103.0,8.0,323.2273503000615,,,,,,,,,,,,,,,,,323.2147554999683,323.32738340005744,324.13185820006765,324.1117053000489,,,,,,,,,,,,,,,,,,,,,,,,,,,,,,,,,,,324.12717790005263,324.13185820006765,324.13185820006765,324.7780641000718,r,1.0,0.6352419999893755,,,,,sub-162,1,stroop_test,60.05082701552112,
,,,,104.0,8.0,8.0,,,,,,,,,,,,,blau,blue,b,1.0,b,1.0,0.4557803000789135,,,,,,,,,,8.0,8.0,104.0,6.0,324.79310840007383,,,,,,,,,,,,,,,,,324.77867120003793,325.5925859999843,326.3939204000635,326.3768875000533,,,,,,,,,,,,,,,,,,,,,,,,,,,,,,,,,,,326.3854714999907,326.3939204000635,326.3939204000635,326.86023700004444,b,1.0,0.4557803000789135,,,,,sub-162,1,stroop_test,60.05082701552112,
,,,,105.0,9.0,8.0,,,,,,,,,,,,,rot,red,r,1.0,r,1.0,0.4400880000321194,,,,,,,,,,8.0,9.0,105.0,1.0,326.8749217999866,,,,,,,,,,,,,,,,,326.8608016000362,327.22472130006645,328.0243067999836,328.00864450004883,,,,,,,,,,,,,,,,,,,,,,,,,,,,,,,,,,,328.0133397000609,328.0243067999836,328.0243067999836,328.4770839000121,r,1.0,0.4400880000321194,,,,,sub-162,1,stroop_test,60.05082701552112,
,,,,106.0,10.0,8.0,,,,,,,,,,,,,blau,yellow,g,0.0,g,1.0,0.4102249999996274,,,,,,,,,,8.0,10.0,106.0,7.0,328.49062860000413,,,,,,,,,,,,,,,,,328.47797939996235,329.69025950005744,330.48942060000263,330.4733845000155,,,,,,,,,,,,,,,,,,,,,,,,,,,,,,,,,,,330.47648579999804,330.48942060000263,330.48942060000263,330.908955699997,g,1.0,0.4102249999996274,,,,,sub-162,1,stroop_test,60.05082701552112,
,,,,107.0,11.0,8.0,,,,,,,,,,,,,gelb,yellow,g,1.0,g,1.0,0.3833706999430433,,,,,,,,,,8.0,11.0,107.0,11.0,330.9227419999661,,,,,,,,,,,,,,,,,330.90987099998165,331.27257939998526,332.07822400005534,332.0569627999794,,,,,,,,,,,,,,,,,,,,,,,,,,,,,,,,,,,332.07279969996307,332.07822400005534,332.07822400005534,332.47327289998066,g,1.0,0.3833706999430433,,,,,sub-162,1,stroop_test,60.05082701552112,
,,,,108.0,0.0,9.0,,,,,,,,,,,,,gelb,yellow,g,1.0,g,1.0,0.3844593000831082,,,,,,,,,,9.0,0.0,108.0,11.0,332.4881234000204,,,,,,,,,,,,,,,,,332.4738891000161,332.5880862000631,333.38788080005907,333.3724642000161,,,,,,,,,,,,,,,,,,,,,,,,,,,,,,,,,,,333.3735601999797,333.38788080005907,333.38788080005907,333.78875469998457,g,1.0,0.3844593000831082,,,,,sub-162,1,stroop_test,60.05082701552112,
,,,,109.0,1.0,9.0,,,,,,,,,,,,,gelb,yellow,g,1.0,g,1.0,0.3975752000696957,,,,,,,,,,9.0,1.0,109.0,10.0,333.80397590005305,,,,,,,,,,,,,,,,,333.78909600002225,334.1541885000188,334.9533837999916,334.93761530006304,,,,,,,,,,,,,,,,,,,,,,,,,,,,,,,,,,,334.93839410005603,334.9533837999916,334.9533837999916,335.3562501000706,g,1.0,0.3975752000696957,,,,,sub-162,1,stroop_test,60.05082701552112,
,,,,110.0,2.0,9.0,,,,,,,,,,,,,blau,blue,b,1.0,b,1.0,0.4695033000316471,,,,,,,,,,9.0,2.0,110.0,5.0,335.37000720005017,,,,,,,,,,,,,,,,,335.3571416999912,335.4698235000251,336.26892060006503,336.25252560002264,,,,,,,,,,,,,,,,,,,,,,,,,,,,,,,,,,,336.25404480006546,336.26892060006503,336.26892060006503,336.75486129999626,b,1.0,0.4695033000316471,,,,,sub-162,1,stroop_test,60.05082701552112,
,,,,111.0,3.0,9.0,,,,,,,,,,,,,gelb,red,r,0.0,r,1.0,0.6192632999736816,,,,,,,,,,9.0,3.0,111.0,8.0,336.7690516000148,,,,,,,,,,,,,,,,,336.7556209000759,337.1186165000545,337.9184875000501,337.9028121000156,,,,,,,,,,,,,,,,,,,,,,,,,,,,,,,,,,,337.9093512999825,337.9184875000501,337.9184875000501,338.5547571000643,r,1.0,0.6192632999736816,,,,,sub-162,1,stroop_test,60.05082701552112,
,,,,112.0,4.0,9.0,,,,,,,,,,,,,rot,red,r,1.0,r,1.0,0.5316711999475956,,,,,,,,,,9.0,4.0,112.0,0.0,338.56819000002,,,,,,,,,,,,,,,,,338.5557989999652,339.7673814999871,340.56664390000515,340.5509647000581,,,,,,,,,,,,,,,,,,,,,,,,,,,,,,,,,,,340.556066500023,340.56664390000515,340.56664390000515,341.1018742000452,r,1.0,0.5316711999475956,,,,,sub-162,1,stroop_test,60.05082701552112,
,,,,113.0,5.0,9.0,,,,,,,,,,,,,rot,blue,b,0.0,b,1.0,0.6910239999415353,,,,,,,,,,9.0,5.0,113.0,2.0,341.1161797000095,,,,,,,,,,,,,,,,,341.1024505000096,341.91575679997914,342.71519240003545,342.6995588999707,,,,,,,,,,,,,,,,,,,,,,,,,,,,,,,,,,,342.70034250000026,342.71519240003545,342.71519240003545,343.41791039996315,b,1.0,0.6910239999415353,,,,,sub-162,1,stroop_test,60.05082701552112,
,,,,114.0,6.0,9.0,,,,,,,,,,,,,blau,yellow,g,0.0,r,0.0,0.8587111999513581,,,,,,,,,,9.0,6.0,114.0,7.0,343.4315935000777,,,,,,,,,,,,,,,,,343.4188154999865,343.7813155000331,344.5804991000332,344.5646196000744,,,,,,,,,,,,,,,,,,,,,,,,,,,,,,,,,,,344.5663524999982,344.5804991000332,344.5804991000332,345.44882170006167,r,0.0,0.8587111999513581,,,,,sub-162,1,stroop_test,60.05082701552112,
,,,,115.0,7.0,9.0,,,,,,,,,,,,,blau,blue,b,1.0,b,1.0,0.6021659000543877,,,,,,,,,,9.0,7.0,115.0,6.0,345.4634960000403,,,,,,,,,,,,,,,,,345.44938470004126,346.6629972000373,347.4625415999908,347.4473003000021,,,,,,,,,,,,,,,,,,,,,,,,,,,,,,,,,,,347.44851310004015,347.4625415999908,347.4625415999908,348.08175460004713,b,1.0,0.6021659000543877,,,,,sub-162,1,stroop_test,60.05082701552112,
,,,,116.0,8.0,9.0,,,,,,,,,,,,,rot,yellow,g,0.0,g,1.0,0.8295854000607505,,,,,,,,,,9.0,8.0,116.0,3.0,348.0955588000361,,,,,,,,,,,,,,,,,348.0826856000349,348.19534079998266,348.99464419996366,348.9785842000274,,,,,,,,,,,,,,,,,,,,,,,,,,,,,,,,,,,348.9879973999923,348.99464419996366,348.99464419996366,349.83058720000554,g,1.0,0.8295854000607505,,,,,sub-162,1,stroop_test,60.05082701552112,
,,,,117.0,9.0,9.0,,,,,,,,,,,,,blau,red,r,0.0,r,1.0,0.8146885000169277,,,,,,,,,,9.0,9.0,117.0,4.0,349.84440060006455,,,,,,,,,,,,,,,,,349.83146630006377,349.94433440000284,350.746698700008,350.7287342000054,,,,,,,,,,,,,,,,,,,,,,,,,,,,,,,,,,,350.7398403000552,350.746698700008,350.746698700008,351.5793142999755,r,1.0,0.8146885000169277,,,,,sub-162,1,stroop_test,60.05082701552112,
,,,,118.0,10.0,9.0,,,,,,,,,,,,,gelb,blue,b,0.0,b,1.0,0.83108789997641,,,,,,,,,,9.0,10.0,118.0,9.0,351.5933619000716,,,,,,,,,,,,,,,,,351.5802020999836,351.9430451999651,352.743734800024,352.7274965000106,,,,,,,,,,,,,,,,,,,,,,,,,,,,,,,,,,,352.7370312999701,352.743734800024,352.743734800024,353.5771248000674,b,1.0,0.83108789997641,,,,,sub-162,1,stroop_test,60.05082701552112,
,,,,119.0,11.0,9.0,,,,,,,,,,,,,rot,red,r,1.0,r,1.0,0.6092742000473663,,,,,,,,,,9.0,11.0,119.0,1.0,353.591948700021,,,,,,,,,,,,,,,,,353.5776596000651,353.9419201000128,354.74126909999177,354.72630360000767,,,,,,,,,,,,,,,,,,,,,,,,,,,,,,,,,,,354.7324866000563,354.74126909999177,354.74126909999177,355.35999010002706,r,1.0,0.6092742000473663,,,,,sub-162,1,stroop_test,60.05082701552112,
,,,,,,,,,,,,,,,,,,,,,,,,,,,,,,,,,,,,,,,,,,,,,,,,,,,,,,,,,,,,,,,,,,,,,,,,,,,,,,,,,,,,,,,,,,,,,,,,,,,,,,355.3604169000173,355.37465450004674,360.3717497000471,sub-162,1,stroop_test,60.05082701552112,
