direction,corrAns,thisN,thisTrialN,thisRepN,respDots.keys,respDots.corr,respDots.rt,respDots.duration,randomInstr,respRandomInstr.keys,respRandomInstr.rt,respRandomInstr.duration,practice_trials.thisRepN,practice_trials.thisTrialN,practice_trials.thisN,practice_trials.thisIndex,instr_trials.thisRepN,instr_trials.thisTrialN,instr_trials.thisN,instr_trials.thisIndex,test_trials.thisRepN,test_trials.thisTrialN,test_trials.thisN,test_trials.thisIndex,thisRow.t,notes,general_instruction.started,textGeneralInstr.started,respGeneralInstr.started,general_instruction.stopped,respGeneralInstr.keys,respGeneralInstr.rt,respGeneralInstr.duration,ITI.started,fixcross.started,fixcross.stopped,ITI.stopped,dots.started,backgroundDots.started,stimulusDots.started,respDots.started,stimulusDots.stopped,dots.stopped,practice_trials.respDots.keys,practice_trials.respDots.corr,practice_trials.respDots.rt,practice_trials.respDots.duration,feedback.started,textFeedback.started,textFeedback.stopped,feedback.stopped,info.started,textInfo.started,keyRespInfo.started,info.stopped,keyRespInfo.keys,keyRespInfo.rt,keyRespInfo.duration,test_instruction.started,textTestInstr.started,respTestInstr.started,test_instruction.stopped,respTestInstr.keys,respTestInstr.rt,respTestInstr.duration,random_instruction.started,textRandomInstr.started,respRandomInstr.started,random_instruction.stopped,instr_trials.respRandomInstr.keys,instr_trials.respRandomInstr.rt,instr_trials.respRandomInstr.duration,test_trials.respDots.keys,test_trials.respDots.corr,test_trials.respDots.rt,test_trials.respDots.duration,goodbye.started,textGoodbye.started,textGoodbye.stopped,goodbye.stopped,participant,session,expName,frameRate,Unnamed: 88
,,,,,,,,,,,,,,,,,,,,,,,,,,,0.0077897500013932,0.022030124993762,0.022030124993762,36.75661245899392,space,36.69223499999498,,,,,,,,,,,,,,,,,,,,,,,,,,,,,,,,,,,,,,,,,,,,,,,,,sub-203,1,random_dot,,
right,right,0.0,0.0,0.0,right,1.0,19.773494875000324,,,,,,0.0,0.0,0.0,1.0,,,,,,,,,36.80665083399799,,,,,,,,,36.78409083400038,37.57009979199211,38.40182362499763,38.357936749991495,38.35847162498976,38.40182362499763,38.40182362499763,38.40182362499763,43.35135554199224,58.18855887500104,right,1.0,19.773494875000324,,58.19595633399149,58.20121970899345,58.690699833998224,58.68554474999837,,,,,,,,,,,,,,,,,,,,,,,,,,,,,,sub-203,1,random_dot,,
left,left,1.0,1.0,0.0,right,0.0,6.309259667003062,,,,,,0.0,1.0,1.0,0.0,,,,,,,,,58.690699833998224,,,,,,,,,58.68603708400042,59.0350225000002,59.82633191699279,59.81901662499877,59.81958420899173,59.82633191699279,59.82633191699279,59.82633191699279,64.80622595899331,66.16085687499435,right,0.0,6.309259667003062,,66.16505995899206,66.17000274999009,66.66801637499884,66.65727454199805,,,,,,,,,,,,,,,,,,,,,,,,,,,,,,sub-203,1,random_dot,,
left,left,2.0,0.0,1.0,left,1.0,5.510936292004772,,,,,,1.0,0.0,2.0,0.0,,,,,,,,,66.66801637499884,,,,,,,,,66.65765320899663,67.85708391699882,68.65124345899676,68.64027366699884,68.64069762500003,68.65124345899676,68.65124345899676,68.65124345899676,73.63347204199817,74.17078124999534,left,1.0,5.510936292004772,,74.17572116699012,74.18479249998927,74.67373979199328,74.66885820899915,,,,,,,,,,,,,,,,,,,,,,,,,,,,,,sub-203,1,random_dot,,
right,right,3.0,1.0,1.0,right,1.0,6.351943875008146,,,,,,1.0,1.0,3.0,1.0,,,,,,,,,74.67373979199328,,,,,,,,,74.6693618339923,74.767896749996,75.55928737499926,75.5519964589912,75.55246641699341,75.55928737499926,75.55928737499926,75.55928737499926,80.53886979199888,81.9201994999894,right,1.0,6.351943875008146,,81.92038049999974,81.92996770898753,82.42313591699349,82.41863737499807,,,,,,,,,,,,,,,,,,,,,,,,,,,,,,sub-203,1,random_dot,,
right,right,4.0,0.0,2.0,left,0.0,5.323408917000052,,,,,,2.0,0.0,4.0,1.0,,,,,,,,,82.42313591699349,,,,,,,,,82.419054375001,83.21798754199699,84.00902454199968,84.00183233399002,84.00229499999841,84.00902454199968,84.00902454199968,84.00902454199968,88.9886738339992,89.33646108399262,left,0.0,5.323408917000052,,89.34141074999934,89.34905416698894,89.84028337500058,89.83555154199712,,,,,,,,,,,,,,,,,,,,,,,,,,,,,,sub-203,1,random_dot,,
left,left,5.0,1.0,2.0,right,0.0,4.919954959012102,,,,,,2.0,1.0,5.0,0.0,,,,,,,,,89.84028337500058,,,,,,,,,89.83592520900129,90.18476929199824,90.9761209589924,90.96865570898808,90.9692149170005,90.9761209589924,90.9761209589924,90.9761209589924,,95.90269229198748,right,0.0,4.919954959012102,,95.90281599998708,95.90964137499395,96.40770283399615,96.40270683399284,,,,,,,,,,,,,,,,,,,,,,,,,,,,,,sub-203,1,random_dot,,
left,left,6.0,0.0,3.0,left,1.0,2.085922208992997,,,,,,3.0,0.0,6.0,0.0,,,,,,,,,96.40770283399615,,,,,,,,,96.4034802089882,96.50128358398796,97.29263662498852,97.28523724999104,97.28577062499244,97.29263662498852,97.29263662498852,97.29263662498852,,99.38627466699108,left,1.0,2.085922208992997,,99.389679874992,99.3965905840014,99.89026045899664,99.88552345900098,,,,,,,,,,,,,,,,,,,,,,,,,,,,,,sub-203,1,random_dot,,
right,right,7.0,1.0,3.0,left,0.0,3.2324479169910774,,,,,,3.0,1.0,7.0,1.0,,,,,,,,,99.89026045899664,,,,,,,,,99.88589837499605,100.23454358399611,101.0261994169996,101.01865629199892,101.0192577919952,101.0261994169996,101.0261994169996,101.0261994169996,,104.26892949998728,left,0.0,3.2324479169910774,,104.27148599999782,104.27844454199658,104.77432770899031,104.76901270898816,,,,,,,,,,,,,,,,,,,,,,,,,,,,,,sub-203,1,random_dot,,
left,left,8.0,0.0,4.0,right,0.0,4.026743166992674,,,,,,4.0,0.0,8.0,0.0,,,,,,,,,104.77432770899031,,,,,,,,,104.76947437498892,105.11789545899956,105.90929716698884,105.90195633399708,105.90254054199612,105.90929716698884,105.90929716698884,105.90929716698884,,109.94075079199683,right,0.0,4.026743166992674,,109.9408464589942,109.95088924998709,110.44045620899124,110.43532720899384,,,,,,,,,,,,,,,,,,,,,,,,,,,,,,sub-203,1,random_dot,,
right,right,9.0,1.0,4.0,right,1.0,3.814948791987263,,,,,,4.0,1.0,9.0,1.0,,,,,,,,,110.44045620899124,,,,,,,,,110.43582600000082,110.54016320899244,111.3343122919905,111.32380841700068,111.32423312499304,111.3343122919905,111.3343122919905,111.3343122919905,,115.15283374999126,right,1.0,3.814948791987263,,115.15603908398772,115.16277124999031,115.65697708399966,115.65187708399026,,,,,,,,,,,,,,,,,,,,,,,,,,,,,,sub-203,1,random_dot,,
right,right,10.0,0.0,5.0,left,0.0,5.452805082997656,,,,,,5.0,0.0,10.0,1.0,,,,,,,,,115.65697708399966,,,,,,,,,115.6523834589898,116.45132662499964,117.24237741698744,117.23516595899127,117.23572791699551,117.24237741698744,117.24237741698744,117.24237741698744,122.22314254198864,122.70318949999636,left,0.0,5.452805082997656,,122.7076101249986,122.71670533399448,123.2070088749897,123.2018712919962,,,,,,,,,,,,,,,,,,,,,,,,,,,,,,sub-203,1,random_dot,,
left,left,11.0,1.0,5.0,right,0.0,5.540203582990216,,,,,,5.0,1.0,11.0,0.0,,,,,,,,,123.2070088749897,,,,,,,,,123.20235737499024,123.30093291698722,124.09230308399128,124.08508120899204,124.0856545419956,124.09230308399128,124.09230308399128,124.09230308399128,129.07309708399407,129.63617549999617,right,0.0,5.540203582990216,,129.6363565419888,129.64569199999096,130.14019791698956,130.13502479199087,,,,,,,,,,,,,,,,,,,,,,,,,,,,,,sub-203,1,random_dot,,
left,left,12.0,0.0,6.0,left,1.0,2.0923939579952275,,,,,,6.0,0.0,12.0,0.0,,,,,,,,,130.14019791698956,,,,,,,,,130.13550920899434,130.23429045898956,131.0259407919948,131.01844983399496,131.01902183399943,131.0259407919948,131.0259407919948,131.0259407919948,,133.12857129199256,left,1.0,2.0923939579952275,,133.13124754199816,133.13656754199474,133.63421233400004,133.62379004199465,,,,,,,,,,,,,,,,,,,,,,,,,,,,,,sub-203,1,random_dot,,
right,right,13.0,1.0,6.0,left,0.0,3.3901210420008283,,,,,,6.0,1.0,13.0,1.0,,,,,,,,,133.63421233400004,,,,,,,,,133.62414983399503,134.82303558399144,135.61759379199066,135.60695541699533,135.60738220899657,135.61759379199066,135.61759379199066,135.61759379199066,,139.01770737499464,left,0.0,3.3901210420008283,,139.0202094999986,139.02464812499238,,139.51813829199818,,,,,,,,,,,,,,,,,,,,,,,,,,,,,,sub-203,1,random_dot,,
left,left,14.0,0.0,7.0,right,0.0,2.3635004999960074,,,,,,7.0,0.0,14.0,0.0,,,,,,,,,139.52338954199513,,,,,,,,,139.51863133399456,139.85656404199835,140.6566323339939,140.65081649999777,140.65135804199963,140.6566323339939,140.6566323339939,140.6566323339939,,143.0249560839875,right,0.0,2.3635004999960074,,143.02505845899577,143.03293541699531,143.5238514169905,143.51879029200063,,,,,,,,,,,,,,,,,,,,,,,,,,,,,,sub-203,1,random_dot,,
right,right,15.0,1.0,7.0,right,1.0,0.8955622089997632,,,,,,7.0,1.0,15.0,1.0,,,,,,,,,143.5238514169905,,,,,,,,,143.51926204199845,144.32435579199228,145.1166339170013,145.1075139589957,145.10798312499537,145.1166339170013,145.1166339170013,145.1166339170013,,146.0188035839965,right,1.0,0.8955622089997632,,146.0219792919961,146.02859433399863,146.5232421249966,146.51842499998747,,,,,,,,,,,,,,,,,,,,,,,,,,,,,,sub-203,1,random_dot,,
left,left,16.0,0.0,8.0,right,0.0,2.9184058750106487,,,,,,8.0,0.0,16.0,0.0,,,,,,,,,146.5232421249966,,,,,,,,,146.51891025000077,147.70698949998769,148.50069820899807,148.49068570899544,148.4911054999975,148.50069820899807,148.50069820899807,148.50069820899807,,151.42869658400014,right,0.0,2.9184058750106487,,151.43171237499337,151.43645779199142,151.93418395899062,151.92328091699164,,,,,,,,,,,,,,,,,,,,,,,,,,,,,,sub-203,1,random_dot,,
right,right,17.0,1.0,8.0,left,0.0,0.985669957997743,,,,,,8.0,1.0,17.0,1.0,,,,,,,,,151.93418395899062,,,,,,,,,151.9236677089939,152.7229846669943,153.5173524999991,153.50695695899776,153.50739095899917,153.5173524999991,153.5173524999991,153.5173524999991,,154.50897324999096,left,0.0,0.985669957997743,,154.50907929199457,154.51624824998726,155.00606299999345,155.0015340839891,,,,,,,,,,,,,,,,,,,,,,,,,,,,,,sub-203,1,random_dot,,
right,right,18.0,0.0,9.0,left,0.0,2.6044524159951834,,,,,,9.0,0.0,18.0,1.0,,,,,,,,,155.00606299999345,,,,,,,,,155.00192716698805,156.20554037499824,157.0007296249969,156.99004837499524,156.99046429200098,157.0007296249969,157.0007296249969,157.0007296249969,,159.60912395898777,left,0.0,2.6044524159951834,,159.60922174999723,159.6161976250005,160.1072297089995,160.10192674999416,,,,,,,,,,,,,,,,,,,,,,,,,,,,,,sub-203,1,random_dot,,
left,left,19.0,1.0,9.0,right,0.0,2.3126855000009527,,,,,,9.0,1.0,19.0,0.0,,,,,,,,,160.1072297089995,,,,,,,,,160.1023813339998,160.90680050000083,161.70065408399387,161.6900564169919,161.69047491699166,161.70065408399387,161.70065408399387,161.70065408399387,,164.01909624999098,right,0.0,2.3126855000009527,,164.0191991669999,164.02590158399835,164.52502458399977,164.5180998339929,,,,,,,,,,,,,,,,,,,,,,,,,,,,,,sub-203,1,random_dot,,
,,,,,,,,,,,,,,,,,,,,,,,,,,,,,,,,,,,,,,,,,,,,,,,,,,,,164.51827608399617,164.52502458399977,164.52502458399977,168.13086237499374,space,3.5933084999996936,,,,,,,,,,,,,,,,,,,,,,,,sub-203,1,random_dot,,
,,,,,,,,,,,,,,,,,,,,,,,,,,,,,,,,,,,,,,,,,,,,,,,,,,,,,,,,,,,168.1309514589957,168.1360847499891,168.1360847499891,174.9528363749996,space,6.8055430829990655,,,,,,,,,,,,,,,,,sub-203,1,random_dot,,
right,right,0.0,0.0,0.0,right,1.0,4.032813166006235,,accuracy,space,2.779995667006005,,,,,,0.0,0.0,0.0,0.0,0.0,0.0,0.0,1.0,177.78737104199536,,,,,,,,,177.78005045899772,177.86734795899247,178.65939508398878,178.65163012499397,178.65219645899197,178.65939508398878,178.65939508398878,178.65939508398878,,182.70222295899293,,,,,,,,,,,,,,,,,,,,,,,174.97594741699868,174.98087316699093,174.98087316699093,177.76953658398998,space,2.779995667006005,,right,1.0,4.032813166006235,,,,,,sub-203,1,random_dot,,
left,left,1.0,1.0,0.0,left,1.0,2.898318916995777,,accuracy,space,2.779995667006005,,,,,,0.0,0.0,0.0,0.0,0.0,1.0,1.0,0.0,182.7084644169954,,,,,,,,,182.70255733399244,183.90062620899695,184.691675708993,184.6846024589904,184.6850650839915,184.691675708993,184.691675708993,184.691675708993,,187.600212749996,,,,,,,,,,,,,,,,,,,,,,,,,,,,,,left,1.0,2.898318916995777,,,,,,sub-203,1,random_dot,,
right,right,2.0,0.0,1.0,left,0.0,2.240242207990377,,accuracy,space,2.779995667006005,,,,,,0.0,0.0,0.0,0.0,1.0,0.0,2.0,1.0,187.60339858398947,,,,,,,,,187.6005425420008,187.94043379199863,188.7420309589943,188.73476416699123,188.73532033398808,188.7420309589943,188.7420309589943,188.7420309589943,,190.9858344169916,,,,,,,,,,,,,,,,,,,,,,,,,,,,,,left,0.0,2.240242207990377,,,,,,sub-203,1,random_dot,,
left,left,3.0,1.0,1.0,right,0.0,3.665297082989128,,accuracy,space,2.779995667006005,,,,,,0.0,0.0,0.0,0.0,1.0,1.0,3.0,0.0,190.9924279169936,,,,,,,,,190.98626887499995,192.1840858749929,192.97635991699644,192.96815166699523,192.96877824999683,192.97635991699644,192.97635991699644,192.97635991699644,,196.6506299999892,,,,,,,,,,,,,,,,,,,,,,,,,,,,,,right,0.0,3.665297082989128,,,,,,sub-203,1,random_dot,,
left,left,4.0,0.0,2.0,left,1.0,2.88424404199759,,accuracy,space,2.779995667006005,,,,,,0.0,0.0,0.0,0.0,2.0,0.0,4.0,0.0,196.6544382089924,,,,,,,,,196.65100729199185,196.9895737499901,197.7837392919901,197.7732733749872,197.77369316699333,197.7837392919901,197.7837392919901,197.7837392919901,,200.6701617919898,,,,,,,,,,,,,,,,,,,,,,,,,,,,,,left,1.0,2.88424404199759,,,,,,sub-203,1,random_dot,,
right,right,5.0,1.0,2.0,right,1.0,0.7780264999892097,,accuracy,space,2.779995667006005,,,,,,0.0,0.0,0.0,0.0,2.0,1.0,5.0,1.0,200.6766880840005,,,,,,,,,200.6705425419932,201.4672462499875,202.25951350000105,202.25179233399103,202.25251629199192,202.25951350000105,202.25951350000105,202.25951350000105,,203.04170154199528,,,,,,,,,,,,,,,,,,,,,,,,,,,,,,right,1.0,0.7780264999892097,,,,,,sub-203,1,random_dot,,
right,right,6.0,0.0,3.0,left,0.0,3.01023383300344,,accuracy,space,2.779995667006005,,,,,,0.0,0.0,0.0,0.0,3.0,0.0,6.0,1.0,203.04933479199823,,,,,,,,,203.0420437499997,203.3895939169888,204.18376345899011,204.17326516698813,204.1736753339937,204.18376345899011,204.18376345899011,204.18376345899011,,207.20218404199116,,,,,,,,,,,,,,,,,,,,,,,,,,,,,,left,0.0,3.01023383300344,,,,,,sub-203,1,random_dot,,
left,left,7.0,1.0,3.0,right,0.0,3.1483855000115,,accuracy,space,2.779995667006005,,,,,,0.0,0.0,0.0,0.0,3.0,1.0,7.0,0.0,207.20868570898887,,,,,,,,,207.2026236669917,207.30030354199695,208.0921942089917,208.0847140419937,208.08530158399665,208.0921942089917,208.0921942089917,208.0921942089917,,211.25223620899487,,,,,,,,,,,,,,,,,,,,,,,,,,,,,,right,0.0,3.1483855000115,,,,,,sub-203,1,random_dot,,
right,right,8.0,0.0,4.0,right,1.0,2.4345765839971136,,accuracy,space,2.779995667006005,,,,,,0.0,0.0,0.0,0.0,4.0,0.0,8.0,1.0,211.2587331669929,,,,,,,,,211.2526729169913,212.05058433399245,212.8419189999986,212.8347735839925,212.83525012499013,212.8419189999986,212.8419189999986,212.8419189999986,,215.2857316669979,,,,,,,,,,,,,,,,,,,,,,,,,,,,,,right,1.0,2.4345765839971136,,,,,,sub-203,1,random_dot,,
left,left,9.0,1.0,4.0,left,1.0,2.954254583004513,,accuracy,space,2.779995667006005,,,,,,0.0,0.0,0.0,0.0,4.0,1.0,9.0,0.0,215.292830624996,,,,,,,,,215.28618837500107,216.0837768749916,216.87488795899844,216.86812583399296,216.8686035839928,216.87488795899844,216.87488795899844,216.87488795899844,,219.83569133399575,,,,,,,,,,,,,,,,,,,,,,,,,,,,,,left,1.0,2.954254583004513,,,,,,sub-203,1,random_dot,,
right,right,10.0,0.0,5.0,left,0.0,2.1507822919957107,,accuracy,space,2.779995667006005,,,,,,0.0,0.0,0.0,0.0,5.0,0.0,10.0,1.0,219.84210183400137,,,,,,,,,219.83608495899531,219.9338039169961,220.7246935419971,220.71768562500077,220.71818987499864,220.7246935419971,220.7246935419971,220.7246935419971,,222.8852615419892,,,,,,,,,,,,,,,,,,,,,,,,,,,,,,left,0.0,2.1507822919957107,,,,,,sub-203,1,random_dot,,
left,left,11.0,1.0,5.0,left,1.0,2.5203698749974137,,accuracy,space,2.779995667006005,,,,,,0.0,0.0,0.0,0.0,5.0,1.0,11.0,0.0,222.89179779199185,,,,,,,,,222.8856932499912,223.23380604200065,224.02538270899092,224.01817524999203,224.01875429198844,224.02538270899092,224.02538270899092,224.02538270899092,,226.5520994169929,,,,,,,,,,,,,,,,,,,,,,,,,,,,,,left,1.0,2.5203698749974137,,,,,,sub-203,1,random_dot,,
left,left,12.0,0.0,6.0,left,1.0,2.5782540420041187,,accuracy,space,2.779995667006005,,,,,,0.0,0.0,0.0,0.0,6.0,0.0,12.0,0.0,226.55877487499677,,,,,,,,,226.55254499999864,226.65078899999207,227.4418731249898,227.4346277500008,227.43520620898929,227.4418731249898,227.4418731249898,227.4418731249898,,230.02486941700045,,,,,,,,,,,,,,,,,,,,,,,,,,,,,,left,1.0,2.5782540420041187,,,,,,sub-203,1,random_dot,,
right,right,13.0,1.0,6.0,right,1.0,1.3520099580055105,,accuracy,space,2.779995667006005,,,,,,0.0,0.0,0.0,0.0,6.0,1.0,13.0,1.0,230.0324138339929,,,,,,,,,230.0251996250008,230.1228234169976,230.925776374992,230.91817179200007,230.91890366699957,230.925776374992,230.925776374992,230.925776374992,,232.28558754199184,,,,,,,,,,,,,,,,,,,,,,,,,,,,,,right,1.0,1.3520099580055105,,,,,,sub-203,1,random_dot,,
right,right,14.0,0.0,7.0,left,0.0,3.093060624989448,,accuracy,space,2.779995667006005,,,,,,0.0,0.0,0.0,0.0,7.0,0.0,14.0,1.0,232.29215979199216,,,,,,,,,232.28601070899455,233.4837549590011,234.27451462499448,234.26773804199183,234.2681933749991,234.27451462499448,234.27451462499448,234.27451462499448,,237.36945891699,,,,,,,,,,,,,,,,,,,,,,,,,,,,,,left,0.0,3.093060624989448,,,,,,sub-203,1,random_dot,,
left,left,15.0,1.0,7.0,right,0.0,3.026251499992213,,accuracy,space,2.779995667006005,,,,,,0.0,0.0,0.0,0.0,7.0,1.0,15.0,0.0,237.37638304199209,,,,,,,,,237.37005291698733,238.5671445420012,239.35848774999613,239.35120245898725,239.3517762919946,239.35848774999613,239.35848774999613,239.35848774999613,,242.3932653749944,,,,,,,,,,,,,,,,,,,,,,,,,,,,,,right,0.0,3.026251499992213,,,,,,sub-203,1,random_dot,,
left,left,16.0,0.0,8.0,left,1.0,2.667947458001436,,accuracy,space,2.779995667006005,,,,,,0.0,0.0,0.0,0.0,8.0,0.0,16.0,0.0,242.3995984999929,,,,,,,,,242.3935962919932,243.19066749999183,243.99202637499548,243.9845392499992,243.9849850419996,243.99202637499548,243.99202637499548,243.99202637499548,,246.6687714169966,,,,,,,,,,,,,,,,,,,,,,,,,,,,,,left,1.0,2.667947458001436,,,,,,sub-203,1,random_dot,,
right,right,17.0,1.0,8.0,left,0.0,0.4846914170047967,,accuracy,space,2.779995667006005,,,,,,0.0,0.0,0.0,0.0,8.0,1.0,17.0,1.0,246.6759219999949,,,,,,,,,246.6692237919924,246.7673267499922,247.55848395900105,247.5514587499929,247.5519993339985,247.55848395900105,247.55848395900105,247.55848395900105,,248.0522669169877,,,,,,,,,,,,,,,,,,,,,,,,,,,,,,left,0.0,0.4846914170047967,,,,,,sub-203,1,random_dot,,
left,left,18.0,0.0,9.0,left,1.0,0.440006082993932,,accuracy,space,2.779995667006005,,,,,,0.0,0.0,0.0,0.0,9.0,0.0,18.0,0.0,248.0588076669956,,,,,,,,,248.05274808399557,248.85060241699105,249.6412633339933,249.63446745899276,249.6348918750009,249.6412633339933,249.6412633339933,249.6412633339933,,250.08537741699547,,,,,,,,,,,,,,,,,,,,,,,,,,,,,,left,1.0,0.440006082993932,,,,,,sub-203,1,random_dot,,
right,right,19.0,1.0,9.0,right,1.0,0.6295104159944458,,accuracy,space,2.779995667006005,,,,,,0.0,0.0,0.0,0.0,9.0,1.0,19.0,1.0,250.09157470898936,,,,,,,,,250.0858112089918,250.8839089589892,251.6754006249976,251.66793991699524,251.6684736669995,251.6754006249976,251.6754006249976,251.6754006249976,,252.30778504199407,,,,,,,,,,,,,,,,,,,,,,,,,,,,,,right,1.0,0.6295104159944458,,,,,,sub-203,1,random_dot,,
right,right,20.0,0.0,10.0,right,1.0,0.6842107080010464,,accuracy,space,2.779995667006005,,,,,,0.0,0.0,0.0,0.0,10.0,0.0,20.0,1.0,252.31631366699003,,,,,,,,,252.30811729199195,253.10576399999263,253.90051520899576,253.88981470899307,253.8902130839997,253.90051520899576,253.90051520899576,253.90051520899576,,254.5928740419913,,,,,,,,,,,,,,,,,,,,,,,,,,,,,,right,1.0,0.6842107080010464,,,,,,sub-203,1,random_dot,,
left,left,21.0,1.0,10.0,left,1.0,1.4708842079999158,,accuracy,space,2.779995667006005,,,,,,0.0,0.0,0.0,0.0,10.0,1.0,21.0,0.0,254.60010366699132,,,,,,,,,254.59319829200103,255.7903789999982,256.5914961669914,256.5846507919923,256.585071249996,256.5914961669914,256.5914961669914,256.5914961669914,,258.06840283398924,,,,,,,,,,,,,,,,,,,,,,,,,,,,,,left,1.0,1.4708842079999158,,,,,,sub-203,1,random_dot,,
left,left,22.0,0.0,11.0,right,0.0,4.148014457998215,,accuracy,space,2.779995667006005,,,,,,0.0,0.0,0.0,0.0,11.0,0.0,22.0,0.0,258.07443966699066,,,,,,,,,258.0687139169895,258.41681866699946,259.20798954198835,259.2011829169933,259.2016460419982,259.20798954198835,259.20798954198835,259.20798954198835,,263.3682827500015,,,,,,,,,,,,,,,,,,,,,,,,,,,,,,right,0.0,4.148014457998215,,,,,,sub-203,1,random_dot,,
right,right,23.0,1.0,11.0,right,1.0,3.721159082997474,,accuracy,space,2.779995667006005,,,,,,0.0,0.0,0.0,0.0,11.0,1.0,23.0,1.0,263.3723560840008,,,,,,,,,263.3686149169953,263.71707970899297,264.5085991249944,264.5013792089885,264.5018941669987,264.5085991249944,264.5085991249944,264.5085991249944,,268.2349294589949,,,,,,,,,,,,,,,,,,,,,,,,,,,,,,right,1.0,3.721159082997474,,,,,,sub-203,1,random_dot,,
right,right,24.0,0.0,12.0,left,0.0,4.242981125004008,,accuracy,space,2.779995667006005,,,,,,0.0,0.0,0.0,0.0,12.0,0.0,24.0,1.0,268.2415616249928,,,,,,,,,268.23528595898824,268.3337248339958,269.12528641699464,269.117884124993,269.11842216699733,269.12528641699464,269.12528641699464,269.12528641699464,,273.3731562499888,,,,,,,,,,,,,,,,,,,,,,,,,,,,,,left,0.0,4.242981125004008,,,,,,sub-203,1,random_dot,,
left,left,25.0,1.0,12.0,left,1.0,7.65727679200063,,accuracy,space,2.779995667006005,,,,,,0.0,0.0,0.0,0.0,12.0,1.0,25.0,0.0,273.3834414999874,,,,,,,,,273.3734745839902,273.716987458989,274.50792245900084,274.501133999991,274.5015794589999,274.50792245900084,274.50792245900084,274.50792245900084,279.5003655420005,282.1695189999882,,,,,,,,,,,,,,,,,,,,,,,,,,,,,,left,1.0,7.65727679200063,,,,,,sub-203,1,random_dot,,
right,right,26.0,0.0,13.0,left,0.0,1.5519361250044312,,accuracy,space,2.779995667006005,,,,,,0.0,0.0,0.0,0.0,13.0,0.0,26.0,1.0,282.17870729199785,,,,,,,,,282.1702386249963,282.2666739999986,283.05872083400027,283.05124212498777,283.0517958339915,283.05872083400027,283.05872083400027,283.05872083400027,,284.6183865839994,,,,,,,,,,,,,,,,,,,,,,,,,,,,,,left,0.0,1.5519361250044312,,,,,,sub-203,1,random_dot,,
left,left,27.0,1.0,13.0,right,0.0,2.032226334005827,,accuracy,space,2.779995667006005,,,,,,0.0,0.0,0.0,0.0,13.0,1.0,27.0,0.0,284.62514974999067,,,,,,,,,284.6188062500005,285.8171035419946,286.6079418750014,286.60066729199025,286.60124958399683,286.6079418750014,286.6079418750014,286.6079418750014,,288.643764249995,,,,,,,,,,,,,,,,,,,,,,,,,,,,,,right,0.0,2.032226334005827,,,,,,sub-203,1,random_dot,,
left,left,28.0,0.0,14.0,left,1.0,2.892874708995805,,accuracy,space,2.779995667006005,,,,,,0.0,0.0,0.0,0.0,14.0,0.0,28.0,0.0,288.6547084589984,,,,,,,,,288.6448739589978,289.8404992089927,290.6417903339898,290.63428737499635,290.6349814999994,290.6417903339898,290.6417903339898,290.6417903339898,,293.5432271669997,,,,,,,,,,,,,,,,,,,,,,,,,,,,,,left,1.0,2.892874708995805,,,,,,sub-203,1,random_dot,,
right,right,29.0,1.0,14.0,left,0.0,1.1064714579988504,,accuracy,space,2.779995667006005,,,,,,0.0,0.0,0.0,0.0,14.0,1.0,29.0,1.0,293.54878904198995,,,,,,,,,293.5435593750008,293.88979987498897,294.69141720898915,294.684339333995,294.6848899589968,294.69141720898915,294.69141720898915,294.69141720898915,,295.8016541249963,,,,,,,,,,,,,,,,,,,,,,,,,,,,,,left,0.0,1.1064714579988504,,,,,,sub-203,1,random_dot,,
right,right,30.0,0.0,15.0,left,0.0,1.5094329999992624,,accuracy,space,2.779995667006005,,,,,,0.0,0.0,0.0,0.0,15.0,0.0,30.0,1.0,295.8083638339885,,,,,,,,,295.8020941249997,295.9004824589938,296.6915672920004,296.68427570899075,296.6848494169972,296.6915672920004,296.6915672920004,296.6915672920004,,298.20970183399913,,,,,,,,,,,,,,,,,,,,,,,,,,,,,,left,0.0,1.5094329999992624,,,,,,sub-203,1,random_dot,,
left,left,31.0,1.0,15.0,right,0.0,1.834999500002596,,accuracy,space,2.779995667006005,,,,,,0.0,0.0,0.0,0.0,15.0,1.0,31.0,0.0,298.21608479198767,,,,,,,,,298.2100276249985,298.30580916699546,299.09987787499267,299.08971504199144,299.0901459999877,299.09987787499267,299.09987787499267,299.09987787499267,,300.9439814169891,,,,,,,,,,,,,,,,,,,,,,,,,,,,,,right,0.0,1.834999500002596,,,,,,sub-203,1,random_dot,,
left,left,32.0,0.0,16.0,right,0.0,3.4350813330092933,,accuracy,space,2.779995667006005,,,,,,0.0,0.0,0.0,0.0,16.0,0.0,32.0,0.0,300.9487088749884,,,,,,,,,300.9443044169893,301.2895166669914,302.08330829199986,302.0727036669996,302.0731142089935,302.08330829199986,302.08330829199986,302.08330829199986,,305.5243123749969,,,,,,,,,,,,,,,,,,,,,,,,,,,,,,right,0.0,3.4350813330092933,,,,,,sub-203,1,random_dot,,
right,right,33.0,1.0,16.0,right,1.0,4.635946416994557,,accuracy,space,2.779995667006005,,,,,,0.0,0.0,0.0,0.0,16.0,1.0,33.0,1.0,305.5320725419879,,,,,,,,,305.5247914999927,306.32229745898803,307.11650041698886,307.1061875419982,307.10660683400056,307.11650041698886,307.11650041698886,307.11650041698886,,311.7554888339946,,,,,,,,,,,,,,,,,,,,,,,,,,,,,,right,1.0,4.635946416994557,,,,,,sub-203,1,random_dot,,
left,left,34.0,0.0,17.0,left,1.0,3.5788975000032224,,accuracy,space,2.779995667006005,,,,,,0.0,0.0,0.0,0.0,17.0,0.0,34.0,0.0,311.7667237089918,,,,,,,,,311.7558063339966,311.8544584170013,312.64990024999133,312.6392414169968,312.6396629589872,312.64990024999133,312.64990024999133,312.64990024999133,,316.2347745839943,,,,,,,,,,,,,,,,,,,,,,,,,,,,,,left,1.0,3.5788975000032224,,,,,,sub-203,1,random_dot,,
right,right,35.0,1.0,17.0,left,0.0,2.197985124992556,,accuracy,space,2.779995667006005,,,,,,0.0,0.0,0.0,0.0,17.0,1.0,35.0,1.0,316.2414141670015,,,,,,,,,316.2352149169892,316.5834507089894,317.3750167499966,317.3675636669941,317.3682844169962,317.3750167499966,317.3750167499966,317.3750167499966,,319.5746227089985,,,,,,,,,,,,,,,,,,,,,,,,,,,,,,left,0.0,2.197985124992556,,,,,,sub-203,1,random_dot,,
right,right,36.0,0.0,18.0,right,1.0,1.0174372080073226,,accuracy,space,2.779995667006005,,,,,,0.0,0.0,0.0,0.0,18.0,0.0,36.0,1.0,319.582012999992,,,,,,,,,319.5749730839889,320.37227087499923,321.1664122090005,321.15584704199864,321.15625233399624,321.1664122090005,321.1664122090005,321.1664122090005,,322.1926239999884,,,,,,,,,,,,,,,,,,,,,,,,,,,,,,right,1.0,1.0174372080073226,,,,,,sub-203,1,random_dot,,
left,left,37.0,1.0,18.0,left,1.0,0.2632725839939667,,accuracy,space,2.779995667006005,,,,,,0.0,0.0,0.0,0.0,18.0,1.0,37.0,0.0,322.19916179199936,,,,,,,,,322.1929858749936,322.99003000000084,323.79142558400054,323.7842639169976,323.7848252499971,323.79142558400054,323.79142558400054,323.79142558400054,,324.0572704590013,,,,,,,,,,,,,,,,,,,,,,,,,,,,,,left,1.0,0.2632725839939667,,,,,,sub-203,1,random_dot,,
left,left,38.0,0.0,19.0,right,0.0,0.8580564590083668,,accuracy,space,2.779995667006005,,,,,,0.0,0.0,0.0,0.0,19.0,0.0,38.0,0.0,324.0656477089942,,,,,,,,,324.0576152499998,324.4054658749956,325.1988797499944,325.18975733399566,325.19028245899244,325.1988797499944,325.1988797499944,325.1988797499944,,326.0682674169948,,,,,,,,,,,,,,,,,,,,,,,,,,,,,,right,0.0,0.8580564590083668,,,,,,sub-203,1,random_dot,,
right,right,39.0,1.0,19.0,left,0.0,2.098214084006031,,accuracy,space,2.779995667006005,,,,,,0.0,0.0,0.0,0.0,19.0,1.0,39.0,1.0,326.07464458399045,,,,,,,,,326.0686694169999,327.26656304199423,328.0585509999946,328.0512574999884,328.0517883749999,328.0585509999946,328.0585509999946,328.0585509999946,,330.1685064589983,,,,,,,,,,,,,,,,,,,,,,,,,,,,,,left,0.0,2.098214084006031,,,,,,sub-203,1,random_dot,,
left,left,40.0,0.0,20.0,right,0.0,1.2378212909970898,,accuracy,space,2.779995667006005,,,,,,0.0,0.0,0.0,0.0,20.0,0.0,40.0,0.0,330.1751894589979,,,,,,,,,330.1690668749943,330.516411042001,331.3071177089878,331.3004072920012,331.30086887499783,331.3071177089878,331.3071177089878,331.3071177089878,,332.55131608399097,,,,,,,,,,,,,,,,,,,,,,,,,,,,,,right,0.0,1.2378212909970898,,,,,,sub-203,1,random_dot,,
right,right,41.0,1.0,20.0,left,0.0,3.082116250006948,,accuracy,space,2.779995667006005,,,,,,0.0,0.0,0.0,0.0,20.0,1.0,41.0,1.0,332.5579074999987,,,,,,,,,332.55172350000066,333.34981349999725,334.141298292001,334.134335041992,334.13477616698947,334.141298292001,334.141298292001,334.141298292001,,337.23459391699,,,,,,,,,,,,,,,,,,,,,,,,,,,,,,left,0.0,3.082116250006948,,,,,,sub-203,1,random_dot,,
left,left,42.0,0.0,21.0,right,0.0,2.4159492079925258,,accuracy,space,2.779995667006005,,,,,,0.0,0.0,0.0,0.0,21.0,0.0,42.0,0.0,337.2409978749929,,,,,,,,,337.234921958996,337.33308062500146,338.1246362089878,338.1174040839978,338.117959708994,338.1246362089878,338.1246362089878,338.1246362089878,,340.5498079589888,,,,,,,,,,,,,,,,,,,,,,,,,,,,,,right,0.0,2.4159492079925258,,,,,,sub-203,1,random_dot,,
right,right,43.0,1.0,21.0,right,1.0,3.450442916000611,,accuracy,space,2.779995667006005,,,,,,0.0,0.0,0.0,0.0,21.0,1.0,43.0,1.0,340.5539404999872,,,,,,,,,340.5501307499944,341.33815616699576,342.13300974998856,342.12258499999007,342.12300349998986,342.13300974998856,342.13300974998856,342.13300974998856,,345.5924427919963,,,,,,,,,,,,,,,,,,,,,,,,,,,,,,right,1.0,3.450442916000611,,,,,,sub-203,1,random_dot,,
left,left,44.0,0.0,22.0,left,1.0,3.16175512499467,,accuracy,space,2.779995667006005,,,,,,0.0,0.0,0.0,0.0,22.0,0.0,44.0,0.0,345.5997444169916,,,,,,,,,345.5927722919878,346.78919270899496,347.58281441699364,347.5725963339937,347.5730187089939,347.58281441699364,347.58281441699364,347.58281441699364,,350.7516842920013,,,,,,,,,,,,,,,,,,,,,,,,,,,,,,left,1.0,3.16175512499467,,,,,,sub-203,1,random_dot,,
right,right,45.0,1.0,22.0,left,0.0,5.728990625008009,,accuracy,space,2.779995667006005,,,,,,0.0,0.0,0.0,0.0,22.0,1.0,45.0,1.0,350.7586910419923,,,,,,,,,350.7522152499878,350.8496435839916,351.64083091699285,351.63411412500136,351.63454224998713,351.64083091699285,351.64083091699285,351.64083091699285,356.6222131669929,357.37434733400005,,,,,,,,,,,,,,,,,,,,,,,,,,,,,,left,0.0,5.728990625008009,,,,,,sub-203,1,random_dot,,
left,left,46.0,0.0,23.0,right,0.0,1.553928833003738,,accuracy,space,2.779995667006005,,,,,,0.0,0.0,0.0,0.0,23.0,0.0,46.0,0.0,357.3997446669964,,,,,,,,,357.37488974999,358.1715489999915,358.96633458399447,358.9559267500008,358.9563390419935,358.96633458399447,358.96633458399447,358.96633458399447,,360.524352249995,,,,,,,,,,,,,,,,,,,,,,,,,,,,,,right,0.0,1.553928833003738,,,,,,sub-203,1,random_dot,,
right,right,47.0,1.0,23.0,right,1.0,2.781679207997513,,accuracy,space,2.779995667006005,,,,,,0.0,0.0,0.0,0.0,23.0,1.0,47.0,1.0,360.531743583997,,,,,,,,,360.5247892089974,361.7227949169901,362.52457845899335,362.5171354170016,362.5176887919952,362.52457845899335,362.52457845899335,362.52457845899335,,365.3078893749917,,,,,,,,,,,,,,,,,,,,,,,,,,,,,,right,1.0,2.781679207997513,,,,,,sub-203,1,random_dot,,
left,left,48.0,0.0,24.0,right,0.0,2.1341175829875283,,accuracy,space,2.779995667006005,,,,,,0.0,0.0,0.0,0.0,24.0,0.0,48.0,0.0,365.3150839589944,,,,,,,,,365.308216874997,365.4046066250012,366.1996010419971,366.18880358399474,366.18922091698914,366.1996010419971,366.1996010419971,366.1996010419971,,368.3420271669893,,,,,,,,,,,,,,,,,,,,,,,,,,,,,,right,0.0,2.1341175829875283,,,,,,sub-203,1,random_dot,,
right,right,49.0,1.0,24.0,right,1.0,3.171276332999696,,accuracy,space,2.779995667006005,,,,,,0.0,0.0,0.0,0.0,24.0,1.0,49.0,1.0,368.34945616699406,,,,,,,,,368.34234495899,368.4378890839871,369.2322036669939,369.2230000839918,369.22343666698725,369.2322036669939,369.2322036669939,369.2322036669939,,372.406003208991,,,,,,,,,,,,,,,,,,,,,,,,,,,,,,right,1.0,3.171276332999696,,,,,,sub-203,1,random_dot,,
left,left,50.0,0.0,25.0,left,1.0,4.457650790995103,,accuracy,space,2.779995667006005,,,,,,0.0,0.0,0.0,0.0,25.0,0.0,50.0,0.0,372.4164383749885,,,,,,,,,372.4063233339984,373.20540549998987,373.9984626249934,373.9893033749977,373.9897394169966,373.9984626249934,373.9984626249934,373.9984626249934,,378.4577120839968,,,,,,,,,,,,,,,,,,,,,,,,,,,,,,left,1.0,4.457650790995103,,,,,,sub-203,1,random_dot,,
right,right,51.0,1.0,25.0,left,0.0,5.500994041998638,,accuracy,space,2.779995667006005,,,,,,0.0,0.0,0.0,0.0,25.0,1.0,51.0,1.0,378.4650602089969,,,,,,,,,378.45813404199725,379.65532641699247,380.4494106669881,380.439233541998,380.4396737089992,380.4494106669881,380.4494106669881,380.4494106669881,385.4331722499919,385.9626814999938,,,,,,,,,,,,,,,,,,,,,,,,,,,,,,left,0.0,5.500994041998638,,,,,,sub-203,1,random_dot,,
left,left,52.0,0.0,26.0,right,0.0,4.9267477090033935,,accuracy,space,2.779995667006005,,,,,,0.0,0.0,0.0,0.0,26.0,0.0,52.0,0.0,385.9680074999924,,,,,,,,,385.9631043339905,386.7561671250005,387.5576963339991,387.5504253749969,387.5509987499972,387.5576963339991,387.5576963339991,387.5576963339991,,392.4899714169878,,,,,,,,,,,,,,,,,,,,,,,,,,,,,,right,0.0,4.9267477090033935,,,,,,sub-203,1,random_dot,,
right,right,53.0,1.0,26.0,left,0.0,3.5627099160046782,,accuracy,space,2.779995667006005,,,,,,0.0,0.0,0.0,0.0,26.0,1.0,53.0,1.0,392.4983357919991,,,,,,,,,392.4904053749924,393.28858266699535,394.0827370420011,394.07212487499055,394.0725341249927,394.0827370420011,394.0827370420011,394.0827370420011,,397.65123299999686,,,,,,,,,,,,,,,,,,,,,,,,,,,,,,left,0.0,3.5627099160046782,,,,,,sub-203,1,random_dot,,
right,right,54.0,0.0,27.0,right,1.0,6.160763792009675,,accuracy,space,2.779995667006005,,,,,,0.0,0.0,0.0,0.0,27.0,0.0,54.0,1.0,397.65811266699166,,,,,,,,,397.6517217090004,397.7498417919997,398.54045933399175,398.5336110419885,398.5340811249917,398.54045933399175,398.54045933399175,398.54045933399175,403.52020545899,404.71234474999073,,,,,,,,,,,,,,,,,,,,,,,,,,,,,,right,1.0,6.160763792009675,,,,,,sub-203,1,random_dot,,
left,left,55.0,1.0,27.0,right,0.0,1.3294342500012135,,accuracy,space,2.779995667006005,,,,,,0.0,0.0,0.0,0.0,27.0,1.0,55.0,0.0,404.7181964999909,,,,,,,,,404.7128759170009,405.5065707920003,406.30830291699385,406.3003852089896,406.3010282920004,406.30830291699385,406.30830291699385,406.30830291699385,,407.6502109589928,,,,,,,,,,,,,,,,,,,,,,,,,,,,,,right,0.0,1.3294342500012135,,,,,,sub-203,1,random_dot,,
left,left,56.0,0.0,28.0,right,0.0,1.108414416987216,,accuracy,space,2.779995667006005,,,,,,0.0,0.0,0.0,0.0,28.0,0.0,56.0,0.0,407.65591116699215,,,,,,,,,407.6505908749969,408.83959504199447,409.6415807919984,409.6339545419905,409.6345532089909,409.6415807919984,409.6415807919984,409.6415807919984,,410.75207437499193,,,,,,,,,,,,,,,,,,,,,,,,,,,,,,right,0.0,1.108414416987216,,,,,,sub-203,1,random_dot,,
right,right,57.0,1.0,28.0,right,1.0,3.386419082991779,,accuracy,space,2.779995667006005,,,,,,0.0,0.0,0.0,0.0,28.0,1.0,57.0,1.0,410.758705166998,,,,,,,,,410.7524774170015,411.5494802089961,412.3407694999914,412.3335364589875,412.33414483399247,412.3407694999914,412.3407694999914,412.3407694999914,,415.7341648339934,,,,,,,,,,,,,,,,,,,,,,,,,,,,,,right,1.0,3.386419082991779,,,,,,sub-203,1,random_dot,,
right,right,58.0,0.0,29.0,right,1.0,2.9676414580026176,,accuracy,space,2.779995667006005,,,,,,0.0,0.0,0.0,0.0,29.0,0.0,58.0,1.0,415.7408021250012,,,,,,,,,415.7345833750005,415.8326805839897,416.6243012919877,416.6167001249996,416.6171724589949,416.6243012919877,416.6243012919877,416.6243012919877,,419.6015575839992,,,,,,,,,,,,,,,,,,,,,,,,,,,,,,right,1.0,2.9676414580026176,,,,,,sub-203,1,random_dot,,
left,left,59.0,1.0,29.0,left,1.0,1.8989750420005291,,accuracy,space,2.779995667006005,,,,,,0.0,0.0,0.0,0.0,29.0,1.0,59.0,0.0,419.6081788339943,,,,,,,,,419.602051666996,419.9494004169974,420.7405351669877,420.733438958996,420.73401933399145,420.7405351669877,420.7405351669877,420.7405351669877,,422.651025166997,,,,,,,,,,,,,,,,,,,,,,,,,,,,,,left,1.0,1.8989750420005291,,,,,,sub-203,1,random_dot,,
,,0.0,0.0,0.0,,,,,accuracy,space,2.779995667006005,,,,,,0.0,0.0,0.0,0.0,,,,,,,,,,,,,,,,,,,,,,,,,,,,,,,,,,,,,,,,,,,,,,,,,,,,,,,,,,,,,sub-203,1,random_dot,,
right,right,0.0,0.0,0.0,left,0.0,0.4919436250056606,,speed,space,3.721666874989751,,,,,,0.0,1.0,1.0,1.0,0.0,0.0,0.0,1.0,426.422020375001,,,,,,,,,426.414384083997,426.49979720899137,427.2914057919989,427.2838532089954,427.28430516699154,427.2914057919989,427.2914057919989,427.2914057919989,,427.7910292499873,,,,,,,,,,,,,,,,,,,,,,,422.6682656669873,422.6745737919992,422.6745737919992,426.4011504169903,space,3.721666874989751,,left,0.0,0.4919436250056606,,,,,,sub-203,1,random_dot,,
left,left,1.0,1.0,0.0,right,0.0,0.481470166996587,,speed,space,3.721666874989751,,,,,,0.0,1.0,1.0,1.0,0.0,1.0,1.0,0.0,427.799468333993,,,,,,,,,427.7913475419919,428.58813720899343,429.3824319589912,429.3720985419932,429.3725104999903,429.3824319589912,429.3824319589912,429.3824319589912,,429.8675342499919,,,,,,,,,,,,,,,,,,,,,,,,,,,,,,right,0.0,0.481470166996587,,,,,,sub-203,1,random_dot,,
left,left,2.0,0.0,1.0,left,1.0,0.2696356669912347,,speed,space,3.721666874989751,,,,,,0.0,1.0,1.0,1.0,1.0,0.0,2.0,0.0,429.8735976249882,,,,,,,,,429.86784424999496,430.6665749169915,431.45796999998856,431.4502389169938,431.4508367499948,431.45796999998856,431.45796999998856,431.45796999998856,,431.7345752089896,,,,,,,,,,,,,,,,,,,,,,,,,,,,,,left,1.0,0.2696356669912347,,,,,,sub-203,1,random_dot,,
right,right,3.0,1.0,1.0,left,0.0,0.6336339589906856,,speed,space,3.721666874989751,,,,,,0.0,1.0,1.0,1.0,1.0,1.0,3.0,1.0,431.74182533400017,,,,,,,,,431.7350492919941,432.0826799169881,432.87382691699895,432.8668741669972,432.8673204999941,432.87382691699895,432.87382691699895,432.87382691699895,,433.5170324169885,,,,,,,,,,,,,,,,,,,,,,,,,,,,,,left,0.0,0.6336339589906856,,,,,,sub-203,1,random_dot,,
right,right,4.0,0.0,2.0,left,0.0,0.8651891250046901,,speed,space,3.721666874989751,,,,,,0.0,1.0,1.0,1.0,2.0,0.0,4.0,1.0,433.52316266699927,,,,,,,,,433.5173587499885,433.6162394589919,434.4071077919944,434.40007158399385,434.4006630840013,434.4071077919944,434.4071077919944,434.4071077919944,,435.28395245899446,,,,,,,,,,,,,,,,,,,,,,,,,,,,,,left,0.0,0.8651891250046901,,,,,,sub-203,1,random_dot,,
left,left,5.0,1.0,2.0,right,0.0,1.3317197500000475,,speed,space,3.721666874989751,,,,,,0.0,1.0,1.0,1.0,2.0,1.0,5.0,0.0,435.2880997499888,,,,,,,,,435.2842802499945,435.3824478339957,436.1740676249901,436.16679591700085,436.1673566669924,436.1740676249901,436.1740676249901,436.1740676249901,,437.517486124998,,,,,,,,,,,,,,,,,,,,,,,,,,,,,,right,0.0,1.3317197500000475,,,,,,sub-203,1,random_dot,,
left,left,6.0,0.0,3.0,right,0.0,2.0039734590100124,,speed,space,3.721666874989751,,,,,,0.0,1.0,1.0,1.0,3.0,0.0,6.0,0.0,437.5240722919989,,,,,,,,,437.5178190419974,437.6158980420005,438.4077737920016,438.40044233399385,438.4009899169905,438.4077737920016,438.4077737920016,438.4077737920016,,440.417378291997,,,,,,,,,,,,,,,,,,,,,,,,,,,,,,right,0.0,2.0039734590100124,,,,,,sub-203,1,random_dot,,
right,right,7.0,1.0,3.0,left,0.0,0.5774348749982892,,speed,space,3.721666874989751,,,,,,0.0,1.0,1.0,1.0,3.0,1.0,7.0,1.0,440.4239906250005,,,,,,,,,440.4178060839913,440.5159159169998,441.3067822500016,441.2999527499924,441.3004228749924,441.3067822500016,441.3067822500016,441.3067822500016,,441.889849166997,,,,,,,,,,,,,,,,,,,,,,,,,,,,,,left,0.0,0.5774348749982892,,,,,,sub-203,1,random_dot,,
right,right,8.0,0.0,4.0,left,0.0,0.59002345900808,,speed,space,3.721666874989751,,,,,,0.0,1.0,1.0,1.0,4.0,0.0,8.0,1.0,441.898276833992,,,,,,,,,441.89018316699367,441.9879871250014,442.7825379999995,442.772054999994,442.77246249999735,442.7825379999995,442.7825379999995,442.7825379999995,,443.3838608340011,,,,,,,,,,,,,,,,,,,,,,,,,,,,,,left,0.0,0.59002345900808,,,,,,sub-203,1,random_dot,,
left,left,9.0,1.0,4.0,right,0.0,0.9020158750063274,,speed,space,3.721666874989751,,,,,,0.0,1.0,1.0,1.0,4.0,1.0,9.0,0.0,443.3901594169874,,,,,,,,,443.3842929169914,443.48309587499534,444.27455595899664,444.2670679169969,444.267652124996,444.27455595899664,444.27455595899664,444.27455595899664,,445.18390045900014,,,,,,,,,,,,,,,,,,,,,,,,,,,,,,right,0.0,0.9020158750063274,,,,,,sub-203,1,random_dot,,
right,right,10.0,0.0,5.0,right,1.0,1.503390458994545,,speed,space,3.721666874989751,,,,,,0.0,1.0,1.0,1.0,5.0,0.0,10.0,1.0,445.19043608399807,,,,,,,,,445.1843309999968,445.2824639169994,446.074099541991,446.0668041669997,446.0673807089916,446.074099541991,446.074099541991,446.074099541991,,447.58401837499696,,,,,,,,,,,,,,,,,,,,,,,,,,,,,,right,1.0,1.503390458994545,,,,,,sub-203,1,random_dot,,
left,left,11.0,1.0,5.0,right,0.0,1.176800707995426,,speed,space,3.721666874989751,,,,,,0.0,1.0,1.0,1.0,5.0,1.0,11.0,0.0,447.5906618339941,,,,,,,,,447.5844353339926,448.3825281669997,449.1740619170014,449.166778999992,449.1673533339927,449.1740619170014,449.1740619170014,449.1740619170014,,450.3556271249981,,,,,,,,,,,,,,,,,,,,,,,,,,,,,,right,0.0,1.176800707995426,,,,,,sub-203,1,random_dot,,
right,right,12.0,0.0,6.0,left,0.0,0.7240667910082266,,speed,space,3.721666874989751,,,,,,0.0,1.0,1.0,1.0,6.0,0.0,12.0,1.0,450.3660683749913,,,,,,,,,450.3559594169929,450.45441587499226,451.2489963339904,451.23753212500014,451.2379548339959,451.2489963339904,451.2489963339904,451.2489963339904,,451.9824892499892,,,,,,,,,,,,,,,,,,,,,,,,,,,,,,left,0.0,0.7240667910082266,,,,,,sub-203,1,random_dot,,
left,left,13.0,1.0,6.0,right,0.0,0.7846059999865247,,speed,space,3.721666874989751,,,,,,0.0,1.0,1.0,1.0,6.0,1.0,13.0,0.0,451.9861832499882,,,,,,,,,451.98283341700153,452.0712086249987,452.8657496669912,452.8548101669876,452.855225249994,452.8657496669912,452.8657496669912,452.8657496669912,,453.658692291996,,,,,,,,,,,,,,,,,,,,,,,,,,,,,,right,0.0,0.7846059999865247,,,,,,sub-203,1,random_dot,,
left,left,14.0,0.0,7.0,right,0.0,1.5460232909972549,,speed,space,3.721666874989751,,,,,,0.0,1.0,1.0,1.0,7.0,0.0,14.0,0.0,453.6650948749884,,,,,,,,,453.6590092499973,453.75416291700094,454.5490710839949,454.5376262499922,454.5380471669923,454.5490710839949,454.5490710839949,454.5490710839949,,456.10097570899234,,,,,,,,,,,,,,,,,,,,,,,,,,,,,,right,0.0,1.5460232909972549,,,,,,sub-203,1,random_dot,,
right,right,15.0,1.0,7.0,left,0.0,0.2977217080042464,,speed,space,3.721666874989751,,,,,,0.0,1.0,1.0,1.0,7.0,1.0,15.0,1.0,456.10761329199886,,,,,,,,,456.1014120839973,457.2990133749991,458.09085020898783,458.08349249999446,458.0840535419993,458.09085020898783,458.09085020898783,458.09085020898783,,458.3986136669992,,,,,,,,,,,,,,,,,,,,,,,,,,,,,,left,0.0,0.2977217080042464,,,,,,sub-203,1,random_dot,,
right,right,16.0,0.0,8.0,right,1.0,0.3043510420102393,,speed,space,3.721666874989751,,,,,,0.0,1.0,1.0,1.0,8.0,0.0,16.0,1.0,458.4018782089988,,,,,,,,,458.3989598749904,459.5883210419997,460.3823813339986,460.37154675000056,460.3719760419917,460.3823813339986,460.3823813339986,460.3823813339986,,460.6905488339981,,,,,,,,,,,,,,,,,,,,,,,,,,,,,,right,1.0,0.3043510420102393,,,,,,sub-203,1,random_dot,,
left,left,17.0,1.0,8.0,right,0.0,0.734416917010094,,speed,space,3.721666874989751,,,,,,0.0,1.0,1.0,1.0,8.0,1.0,17.0,0.0,460.6979005839967,,,,,,,,,460.6909722919954,460.78536966699176,461.5823100839916,461.57182225,461.5722598339926,461.5823100839916,461.5823100839916,461.5823100839916,,462.3261498339998,,,,,,,,,,,,,,,,,,,,,,,,,,,,,,right,0.0,0.734416917010094,,,,,,sub-203,1,random_dot,,
right,right,18.0,0.0,9.0,left,0.0,0.5967016250069719,,speed,space,3.721666874989751,,,,,,0.0,1.0,1.0,1.0,9.0,0.0,18.0,1.0,462.33116408399655,,,,,,,,,462.326508083992,462.6716798749985,463.46583254198777,463.4551915839984,463.4555978339922,463.46583254198777,463.46583254198777,463.46583254198777,,464.0674752499908,,,,,,,,,,,,,,,,,,,,,,,,,,,,,,left,0.0,0.5967016250069719,,,,,,sub-203,1,random_dot,,
left,left,19.0,1.0,9.0,right,0.0,0.4975095840054564,,speed,space,3.721666874989751,,,,,,0.0,1.0,1.0,1.0,9.0,1.0,19.0,0.0,464.07404004198906,,,,,,,,,464.067880083996,464.4158136249898,465.206716834,465.1997178339952,465.2002129169996,465.206716834,465.206716834,465.206716834,,465.70588883399614,,,,,,,,,,,,,,,,,,,,,,,,,,,,,,right,0.0,0.4975095840054564,,,,,,sub-203,1,random_dot,,
left,left,20.0,0.0,10.0,right,0.0,0.734643416988547,,speed,space,3.721666874989751,,,,,,0.0,1.0,1.0,1.0,10.0,0.0,20.0,0.0,465.71585483399394,,,,,,,,,465.70627729198895,466.05473008399713,466.8489991249953,466.8384240419982,466.8388561249885,466.8489991249953,466.8489991249953,466.8489991249953,,467.591367999994,,,,,,,,,,,,,,,,,,,,,,,,,,,,,,right,0.0,0.734643416988547,,,,,,sub-203,1,random_dot,,
right,right,21.0,1.0,10.0,right,1.0,0.2928888750029728,,speed,space,3.721666874989751,,,,,,0.0,1.0,1.0,1.0,10.0,1.0,21.0,1.0,467.5988610839995,,,,,,,,,467.5916878339922,468.7878910419968,469.5817467089946,469.5720035419945,469.5725553749944,469.5817467089946,469.5817467089946,469.5817467089946,,469.88364012500097,,,,,,,,,,,,,,,,,,,,,,,,,,,,,,right,1.0,0.2928888750029728,,,,,,sub-203,1,random_dot,,
left,left,22.0,0.0,11.0,left,1.0,0.8899830410082359,,speed,space,3.721666874989751,,,,,,0.0,1.0,1.0,1.0,11.0,0.0,22.0,0.0,469.8898807499936,,,,,,,,,469.8839605839894,469.9824947089946,470.7731934589974,470.7663502919895,470.7668167499942,470.7731934589974,470.7731934589974,470.7731934589974,,471.6670044999919,,,,,,,,,,,,,,,,,,,,,,,,,,,,,,left,1.0,0.8899830410082359,,,,,,sub-203,1,random_dot,,
right,right,23.0,1.0,11.0,right,1.0,0.292845459000091,,speed,space,3.721666874989751,,,,,,0.0,1.0,1.0,1.0,11.0,1.0,23.0,1.0,471.6734742089902,,,,,,,,,471.6673998749902,472.8656826249935,473.6574277920008,473.6500402919919,473.6506082089909,473.6574277920008,473.6574277920008,473.6574277920008,,473.9586344589916,,,,,,,,,,,,,,,,,,,,,,,,,,,,,,right,1.0,0.292845459000091,,,,,,sub-203,1,random_dot,,
left,left,24.0,0.0,12.0,left,1.0,0.6921508330124198,,speed,space,3.721666874989751,,,,,,0.0,1.0,1.0,1.0,12.0,0.0,24.0,0.0,473.9649507919967,,,,,,,,,473.958952749992,475.1557004999922,475.957581374998,475.9502551249898,475.9508169999899,475.957581374998,475.957581374998,475.957581374998,,476.651647458988,,,,,,,,,,,,,,,,,,,,,,,,,,,,,,left,1.0,0.6921508330124198,,,,,,sub-203,1,random_dot,,
right,right,25.0,1.0,12.0,left,0.0,0.5384641669952543,,speed,space,3.721666874989751,,,,,,0.0,1.0,1.0,1.0,12.0,1.0,25.0,1.0,476.6579060840013,,,,,,,,,476.65202124998905,476.749326249992,477.5402788749925,477.5332937089988,477.53384454199113,477.5402788749925,477.5402788749925,477.5402788749925,,478.0837492919964,,,,,,,,,,,,,,,,,,,,,,,,,,,,,,left,0.0,0.5384641669952543,,,,,,sub-203,1,random_dot,,
right,right,26.0,0.0,13.0,left,0.0,0.3020275830058381,,speed,space,3.721666874989751,,,,,,0.0,1.0,1.0,1.0,13.0,0.0,26.0,1.0,478.09019999999146,,,,,,,,,478.0841379999911,478.4322663749917,479.2236961249873,479.216537291999,479.21711108399904,479.2236961249873,479.2236961249873,479.2236961249873,,479.5340532919945,,,,,,,,,,,,,,,,,,,,,,,,,,,,,,left,0.0,0.3020275830058381,,,,,,sub-203,1,random_dot,,
left,left,27.0,1.0,13.0,left,1.0,0.3252702089957893,,speed,space,3.721666874989751,,,,,,0.0,1.0,1.0,1.0,13.0,1.0,27.0,0.0,479.54036287499184,,,,,,,,,479.53444666699215,479.8825493749901,480.6736288339889,480.66656154199154,480.6671477919881,480.6736288339889,480.6736288339889,480.6736288339889,,481.0008067919989,,,,,,,,,,,,,,,,,,,,,,,,,,,,,,left,1.0,0.3252702089957893,,,,,,sub-203,1,random_dot,,
left,left,28.0,0.0,14.0,left,1.0,0.6199782920011785,,speed,space,3.721666874989751,,,,,,0.0,1.0,1.0,1.0,14.0,0.0,28.0,0.0,481.00714908399095,,,,,,,,,481.0012427499896,481.0993219589873,481.8904082090012,481.8831954999914,481.8837677499978,481.8904082090012,481.8904082090012,481.8904082090012,,482.51704824999615,,,,,,,,,,,,,,,,,,,,,,,,,,,,,,left,1.0,0.6199782920011785,,,,,,sub-203,1,random_dot,,
right,right,29.0,1.0,14.0,right,1.0,0.5824426250037504,,speed,space,3.721666874989751,,,,,,0.0,1.0,1.0,1.0,14.0,1.0,29.0,1.0,482.5236020000011,,,,,,,,,482.517454374989,482.865819499988,483.6562142920011,483.6494802919915,483.64992099998926,483.6562142920011,483.6562142920011,483.6562142920011,,484.249986625,,,,,,,,,,,,,,,,,,,,,,,,,,,,,,right,1.0,0.5824426250037504,,,,,,sub-203,1,random_dot,,
right,right,30.0,0.0,15.0,left,0.0,0.3341507080040173,,speed,space,3.721666874989751,,,,,,0.0,1.0,1.0,1.0,15.0,0.0,30.0,1.0,484.25389520899625,,,,,,,,,484.2502915840014,484.3374860839977,485.1322530420002,485.12148733399226,485.121908666988,485.1322530420002,485.1322530420002,485.1322530420002,,485.4757882089907,,,,,,,,,,,,,,,,,,,,,,,,,,,,,,left,0.0,0.3341507080040173,,,,,,sub-203,1,random_dot,,
left,left,31.0,1.0,15.0,left,1.0,0.7429803330014693,,speed,space,3.721666874989751,,,,,,0.0,1.0,1.0,1.0,15.0,1.0,31.0,0.0,485.4812925839942,,,,,,,,,485.476120249994,486.6724014169886,487.47369604199775,487.4665397499921,487.4671143749874,487.47369604199775,487.47369604199775,487.47369604199775,,488.2214474999928,,,,,,,,,,,,,,,,,,,,,,,,,,,,,,left,1.0,0.7429803330014693,,,,,,sub-203,1,random_dot,,
left,left,32.0,0.0,16.0,left,1.0,1.4569274999957995,,speed,space,3.721666874989751,,,,,,0.0,1.0,1.0,1.0,16.0,0.0,32.0,0.0,488.2324505839933,,,,,,,,,488.22175520900055,489.02187383399,489.8155341669917,489.8051044999884,489.80551429199113,489.8155341669917,489.8155341669917,489.8155341669917,,491.2824790000013,,,,,,,,,,,,,,,,,,,,,,,,,,,,,,left,1.0,1.4569274999957995,,,,,,sub-203,1,random_dot,,
right,right,33.0,1.0,16.0,right,1.0,0.6735114579932997,,speed,space,3.721666874989751,,,,,,0.0,1.0,1.0,1.0,16.0,1.0,33.0,1.0,491.2859373339888,,,,,,,,,491.28281499999866,492.0709107919975,492.86546304199146,492.854951041998,492.8553604999906,492.86546304199146,492.86546304199146,492.86546304199146,,493.5405222919944,,,,,,,,,,,,,,,,,,,,,,,,,,,,,,right,1.0,0.6735114579932997,,,,,,sub-203,1,random_dot,,
right,right,34.0,0.0,17.0,left,0.0,0.8059222089941613,,speed,space,3.721666874989751,,,,,,0.0,1.0,1.0,1.0,17.0,0.0,34.0,1.0,493.5476642089925,,,,,,,,,493.5408330419887,494.33781387499766,495.1321795839904,495.1216811249906,495.1220908749965,495.1321795839904,495.1321795839904,495.1321795839904,,495.9400413749973,,,,,,,,,,,,,,,,,,,,,,,,,,,,,,left,0.0,0.8059222089941613,,,,,,sub-203,1,random_dot,,
left,left,35.0,1.0,17.0,left,1.0,1.2315904170100112,,speed,space,3.721666874989751,,,,,,0.0,1.0,1.0,1.0,17.0,1.0,35.0,0.0,495.9476577919995,,,,,,,,,495.9404020840011,496.2886514999991,497.0903164999909,497.0827179589978,497.0834094999882,497.0903164999909,497.0903164999909,497.0903164999909,,498.3240764590009,,,,,,,,,,,,,,,,,,,,,,,,,,,,,,left,1.0,1.2315904170100112,,,,,,sub-203,1,random_dot,,
left,left,36.0,0.0,18.0,left,1.0,0.4390891660004854,,speed,space,3.721666874989751,,,,,,0.0,1.0,1.0,1.0,18.0,0.0,36.0,0.0,498.3317500839912,,,,,,,,,498.32465595898975,498.4208764590003,499.2154421250016,499.20409058399673,499.204533333992,499.2154421250016,499.2154421250016,499.2154421250016,,499.6670498339954,,,,,,,,,,,,,,,,,,,,,,,,,,,,,,left,1.0,0.4390891660004854,,,,,,sub-203,1,random_dot,,
right,right,37.0,1.0,18.0,right,1.0,1.1846062499971597,,speed,space,3.721666874989751,,,,,,0.0,1.0,1.0,1.0,18.0,1.0,37.0,1.0,499.67354779200105,,,,,,,,,499.6674644589948,500.8654957499966,501.6579525419948,501.65046120899206,501.65117904199,501.6579525419948,501.6579525419948,501.6579525419948,,502.8503840419871,,,,,,,,,,,,,,,,,,,,,,,,,,,,,,right,1.0,1.1846062499971597,,,,,,sub-203,1,random_dot,,
left,left,38.0,0.0,19.0,left,1.0,1.459397375001572,,speed,space,3.721666874989751,,,,,,0.0,1.0,1.0,1.0,19.0,0.0,38.0,0.0,502.856877083992,,,,,,,,,502.85078837499896,504.0491419589962,504.8402777500014,504.8330789169995,504.8336606669909,504.8402777500014,504.8402777500014,504.8402777500014,,506.3080846669909,,,,,,,,,,,,,,,,,,,,,,,,,,,,,,left,1.0,1.459397375001572,,,,,,sub-203,1,random_dot,,
right,right,39.0,1.0,19.0,right,1.0,2.333538624996436,,speed,space,3.721666874989751,,,,,,0.0,1.0,1.0,1.0,19.0,1.0,39.0,1.0,506.3155393749912,,,,,,,,,506.3083974170004,507.1045807919873,507.8987345419882,507.8875885000016,507.8880230419891,507.8987345419882,507.8987345419882,507.8987345419882,,510.2341931249976,,,,,,,,,,,,,,,,,,,,,,,,,,,,,,right,1.0,2.333538624996436,,,,,,sub-203,1,random_dot,,
left,left,40.0,0.0,20.0,right,0.0,0.7432094999967376,,speed,space,3.721666874989751,,,,,,0.0,1.0,1.0,1.0,20.0,0.0,40.0,0.0,510.2405863749882,,,,,,,,,510.2346202919871,510.332151124996,511.1238325000013,511.1163945000008,511.1169423339889,511.1238325000013,511.1238325000013,511.1238325000013,,511.87569541699486,,,,,,,,,,,,,,,,,,,,,,,,,,,,,,right,0.0,0.7432094999967376,,,,,,sub-203,1,random_dot,,
right,right,41.0,1.0,20.0,right,1.0,0.5179082499962533,,speed,space,3.721666874989751,,,,,,0.0,1.0,1.0,1.0,20.0,1.0,41.0,1.0,511.8809015000006,,,,,,,,,511.8760156669887,511.9706345000013,512.7654593749903,512.7547058749915,512.7551592919917,512.7654593749903,512.7654593749903,512.7654593749903,,513.2887372089899,,,,,,,,,,,,,,,,,,,,,,,,,,,,,,right,1.0,0.5179082499962533,,,,,,sub-203,1,random_dot,,
right,right,42.0,0.0,21.0,right,1.0,0.2579648750106571,,speed,space,3.721666874989751,,,,,,0.0,1.0,1.0,1.0,21.0,0.0,42.0,1.0,513.2988013339927,,,,,,,,,513.2890507089905,514.0878228749934,514.8821306669997,514.8712540839915,514.8716629589908,514.8821306669997,514.8821306669997,514.8821306669997,,515.1502731669898,,,,,,,,,,,,,,,,,,,,,,,,,,,,,,right,1.0,0.2579648750106571,,,,,,sub-203,1,random_dot,,
left,left,43.0,1.0,21.0,left,1.0,0.3432132500020088,,speed,space,3.721666874989751,,,,,,0.0,1.0,1.0,1.0,21.0,1.0,43.0,0.0,515.1564135839872,,,,,,,,,515.1506742499914,515.24873737499,516.0401262919913,516.0328960839979,516.0335092919995,516.0401262919913,516.0401262919913,516.0401262919913,,516.3917689589871,,,,,,,,,,,,,,,,,,,,,,,,,,,,,,left,1.0,0.3432132500020088,,,,,,sub-203,1,random_dot,,
right,right,44.0,0.0,22.0,left,0.0,0.2514149579947116,,speed,space,3.721666874989751,,,,,,0.0,1.0,1.0,1.0,22.0,0.0,44.0,1.0,516.3978782919876,,,,,,,,,516.3920826669928,516.4874023339944,517.2820983749989,517.2714434999943,517.2718560419889,517.2820983749989,517.2820983749989,517.2820983749989,,517.541643916993,,,,,,,,,,,,,,,,,,,,,,,,,,,,,,left,0.0,0.2514149579947116,,,,,,sub-203,1,random_dot,,
left,left,45.0,1.0,22.0,left,1.0,0.2626617920032004,,speed,space,3.721666874989751,,,,,,0.0,1.0,1.0,1.0,22.0,1.0,45.0,0.0,517.5479516669875,,,,,,,,,517.5419706249959,517.8873195839988,518.6821169589966,518.6716337919934,518.6720460419892,518.6821169589966,518.6821169589966,518.6821169589966,,518.9499513749906,,,,,,,,,,,,,,,,,,,,,,,,,,,,,,left,1.0,0.2626617920032004,,,,,,sub-203,1,random_dot,,
right,right,46.0,0.0,23.0,left,0.0,0.2761209580057766,,speed,space,3.721666874989751,,,,,,0.0,1.0,1.0,1.0,23.0,0.0,46.0,1.0,518.9559463339974,,,,,,,,,518.9502468749997,519.7488136249885,520.5403232919925,520.5330344999966,520.5335969169973,520.5403232919925,520.5403232919925,520.5403232919925,,520.8239952500007,,,,,,,,,,,,,,,,,,,,,,,,,,,,,,left,0.0,0.2761209580057766,,,,,,sub-203,1,random_dot,,
left,left,47.0,1.0,23.0,left,1.0,0.3552817500021774,,speed,space,3.721666874989751,,,,,,0.0,1.0,1.0,1.0,23.0,1.0,47.0,0.0,520.8322555839986,,,,,,,,,520.8243030839949,520.9203655839956,521.715460499996,521.7044767089974,521.7048963339912,521.715460499996,521.715460499996,521.715460499996,,522.0729130419932,,,,,,,,,,,,,,,,,,,,,,,,,,,,,,left,1.0,0.3552817500021774,,,,,,sub-203,1,random_dot,,
left,left,48.0,0.0,24.0,left,1.0,2.5248865830071736,,speed,space,3.721666874989751,,,,,,0.0,1.0,1.0,1.0,24.0,0.0,48.0,0.0,522.0815273339977,,,,,,,,,522.0732228749985,522.1703279169888,522.9649780420004,522.9552217919991,522.9556501670013,522.9649780420004,522.9649780420004,522.9649780420004,,525.4998126669961,,,,,,,,,,,,,,,,,,,,,,,,,,,,,,left,1.0,2.5248865830071736,,,,,,sub-203,1,random_dot,,
right,right,49.0,1.0,24.0,right,1.0,2.1457312499987893,,speed,space,3.721666874989751,,,,,,0.0,1.0,1.0,1.0,24.0,1.0,49.0,1.0,525.5059134170006,,,,,,,,,525.5001312919921,525.8488371669955,526.6401419589965,526.6329098749993,526.6334997089871,526.6401419589965,526.6401419589965,526.6401419589965,,528.7899920419877,,,,,,,,,,,,,,,,,,,,,,,,,,,,,,right,1.0,2.1457312499987893,,,,,,sub-203,1,random_dot,,
left,left,50.0,0.0,25.0,left,1.0,2.1990715420106426,,speed,space,3.721666874989751,,,,,,0.0,1.0,1.0,1.0,25.0,0.0,50.0,0.0,528.79745274999,,,,,,,,,528.7903188749915,529.5878083339921,530.3909178339964,530.3832557089918,530.3839765000012,530.3909178339964,530.3909178339964,530.3909178339964,,532.599981374995,,,,,,,,,,,,,,,,,,,,,,,,,,,,,,left,1.0,2.1990715420106426,,,,,,sub-203,1,random_dot,,
right,right,51.0,1.0,25.0,left,0.0,1.7783099169901109,,speed,space,3.721666874989751,,,,,,0.0,1.0,1.0,1.0,25.0,1.0,51.0,1.0,532.6062545419991,,,,,,,,,532.6003076669876,532.6986797499994,533.4902419589926,533.4829845839995,533.4835489589896,533.4902419589926,533.4902419589926,533.4902419589926,,535.2734594590002,,,,,,,,,,,,,,,,,,,,,,,,,,,,,,left,0.0,1.7783099169901109,,,,,,sub-203,1,random_dot,,
right,right,52.0,0.0,26.0,right,1.0,2.2307699590019183,,speed,space,3.721666874989751,,,,,,0.0,1.0,1.0,1.0,26.0,0.0,52.0,1.0,535.2807952500007,,,,,,,,,535.2737967089924,535.620454459,536.4141395420011,536.4052387499978,536.4056854169903,536.4141395420011,536.4141395420011,536.4141395420011,,538.6499422089983,,,,,,,,,,,,,,,,,,,,,,,,,,,,,,right,1.0,2.2307699590019183,,,,,,sub-203,1,random_dot,,
left,left,53.0,1.0,26.0,right,0.0,1.535683207999682,,speed,space,3.721666874989751,,,,,,0.0,1.0,1.0,1.0,26.0,1.0,53.0,0.0,538.656515249997,,,,,,,,,538.6502450419939,538.7486331249966,539.5397672499967,539.5326158339885,539.5330977089907,539.5397672499967,539.5397672499967,539.5397672499967,,541.0838851669978,,,,,,,,,,,,,,,,,,,,,,,,,,,,,,right,0.0,1.535683207999682,,,,,,sub-203,1,random_dot,,
left,left,54.0,0.0,27.0,left,1.0,1.3118925420130836,,speed,space,3.721666874989751,,,,,,0.0,1.0,1.0,1.0,27.0,0.0,54.0,0.0,541.0904592089937,,,,,,,,,541.0843590000004,541.1819532090012,541.9732584169979,541.9661943749961,541.9667400839971,541.9732584169979,541.9732584169979,541.9732584169979,,543.2891781669896,,,,,,,,,,,,,,,,,,,,,,,,,,,,,,left,1.0,1.3118925420130836,,,,,,sub-203,1,random_dot,,
right,right,55.0,1.0,27.0,right,1.0,2.111839750010404,,speed,space,3.721666874989751,,,,,,0.0,1.0,1.0,1.0,27.0,1.0,55.0,1.0,543.2983763339871,,,,,,,,,543.289492291995,543.6397977089946,544.4392306249938,544.4324988750013,544.4329585839878,544.4392306249938,544.4392306249938,544.4392306249938,,546.556509749993,,,,,,,,,,,,,,,,,,,,,,,,,,,,,,right,1.0,2.111839750010404,,,,,,sub-203,1,random_dot,,
right,right,56.0,0.0,28.0,right,1.0,4.87472983400221,,speed,space,3.721666874989751,,,,,,0.0,1.0,1.0,1.0,28.0,0.0,56.0,1.0,546.5640196669992,,,,,,,,,546.5568344169878,546.9049754589942,547.6984938339883,547.6879867919924,547.6884169169934,547.6984938339883,547.6984938339883,547.6984938339883,,552.5829450419988,,,,,,,,,,,,,,,,,,,,,,,,,,,,,,right,1.0,4.87472983400221,,,,,,sub-203,1,random_dot,,
left,left,57.0,1.0,28.0,left,1.0,2.176094042006298,,speed,space,3.721666874989751,,,,,,0.0,1.0,1.0,1.0,28.0,1.0,57.0,0.0,552.5892856249993,,,,,,,,,552.583285708999,553.3819167089969,554.1729968339932,554.1661454999994,554.1666829589958,554.1729968339932,554.1729968339932,554.1729968339932,,556.3591123749939,,,,,,,,,,,,,,,,,,,,,,,,,,,,,,left,1.0,2.176094042006298,,,,,,sub-203,1,random_dot,,
right,right,58.0,0.0,29.0,left,0.0,1.218033791999915,,speed,space,3.721666874989751,,,,,,0.0,1.0,1.0,1.0,29.0,0.0,58.0,1.0,556.3639817499934,,,,,,,,,556.359441499997,556.7046867089957,557.4985107089888,557.4880910840002,557.4884988339909,557.4985107089888,557.4985107089888,557.4985107089888,,558.7242005839944,,,,,,,,,,,,,,,,,,,,,,,,,,,,,,left,0.0,1.218033791999915,,,,,,sub-203,1,random_dot,,
left,left,59.0,1.0,29.0,left,1.0,0.458176291998825,,speed,space,3.721666874989751,,,,,,0.0,1.0,1.0,1.0,29.0,1.0,59.0,0.0,558.731969333996,,,,,,,,,558.7245218339958,559.5206468339893,560.3152350839955,560.3040755419934,560.3044964589935,560.3152350839955,560.3152350839955,560.3152350839955,,560.7834676669881,,,,,,,,,,,,,,,,,,,,,,,,,,,,,,left,1.0,0.458176291998825,,,,,,sub-203,1,random_dot,,
,,1.0,1.0,0.0,,,,,speed,space,3.721666874989751,,,,,,0.0,1.0,1.0,1.0,,,,,,,,,,,,,,,,,,,,,,,,,,,,,,,,,,,,,,,,,,,,,,,,,,,,,,,,,,,,,sub-203,1,random_dot,,
,,,,,,,,,,,,,,,,,,,,,,,,,,,,,,,,,,,,,,,,,,,,,,,,,,,,,,,,,,,,,,,,,,,,,,,,,,,,,560.7896694169904,560.7975836249971,565.7855825419974,565.782494041996,sub-203,1,random_dot,,
