direction,corrAns,randomInstr,practice_trials.thisRepN,practice_trials.thisTrialN,practice_trials.thisN,practice_trials.thisIndex,instr_trials.thisRepN,instr_trials.thisTrialN,instr_trials.thisN,instr_trials.thisIndex,test_trials.thisRepN,test_trials.thisTrialN,test_trials.thisN,test_trials.thisIndex,thisRow.t,notes,general_instruction.started,textGeneralInstr.started,respGeneralInstr.started,general_instruction.stopped,respGeneralInstr.keys,respGeneralInstr.rt,respGeneralInstr.duration,ITI.started,fixcross.started,fixcross.stopped,ITI.stopped,dots.started,backgroundDots.started,stimulusDots.started,respDots.started,stimulusDots.stopped,dots.stopped,respDots.keys,respDots.corr,respDots.rt,respDots.duration,feedback.started,textFeedback.started,feedback.stopped,textFeedback.stopped,info.started,textInfo.started,keyRespInfo.started,info.stopped,keyRespInfo.keys,keyRespInfo.rt,keyRespInfo.duration,test_instruction.started,textTestInstr.started,respTestInstr.started,test_instruction.stopped,respTestInstr.keys,respTestInstr.rt,respTestInstr.duration,random_instruction.started,textRandomInstr.started,respRandomInstr.started,random_instruction.stopped,respRandomInstr.keys,respRandomInstr.rt,respRandomInstr.duration,goodbye.started,textGoodbye.started,textGoodbye.stopped,goodbye.stopped,participant,session,expName,frameRate,Unnamed: 74
,,,,,,,,,,,,,,,,,0.0117285000160336,0.0192722999490797,0.0192722999490797,47.8638009999413,space,63.40436140005477,,,,,,,,,,,,,,,,,,,,,,,,,,,,,,,,,,,,,,,,,,,,,sub-005,1.0,random_dot,60.07027021968558,
left,left,,0.0,0.0,0.0,0.0,,,,,,,,,47.88564120000228,,,,,,,,,47.88011289993301,48.67633209994528,49.47763480001595,49.46036369993817,49.46040719992016,49.47763480001595,49.47763480001595,49.47763480001595,54.46100489993114,63.32993589993566,right,0.0,29.40951360017061,,63.33097749995068,63.35005709994584,63.8427512999624,,,,,,,,,,,,,,,,,,,,,,,,,,,sub-005,1.0,random_dot,60.07027021968558,
right,right,,0.0,1.0,1.0,1.0,,,,,,,,,63.8592261999147,,,,,,,,,63.84356269997079,64.64257469994482,65.44396950001828,65.42762480000965,65.42768530000467,65.44396950001828,65.44396950001828,65.44396950001828,70.42794399999548,73.84628009994049,left,0.0,23.958119100076143,,73.84701689996291,73.85952359996736,74.3445214999374,74.35920299997088,,,,,,,,,,,,,,,,,,,,,,,,,,sub-005,1.0,random_dot,60.07027021968558,
left,left,,1.0,0.0,2.0,0.0,,,,,,,,,74.35920299997088,,,,,,,,,74.34527189994697,75.5591724999249,76.36096249998081,76.34313729999121,76.34316729998682,76.36096249998081,76.36096249998081,76.36096249998081,81.344150000019,91.56413710000923,left,1.0,30.761138800065964,,91.56545069999991,91.58183089992964,92.07596369995736,,,,,,,,,,,,,,,,,,,,,,,,,,,sub-005,1.0,random_dot,60.07027021968558,
right,right,,1.0,1.0,3.0,1.0,,,,,,,,,92.09244009992108,,,,,,,,,92.0766248999862,93.2757051999215,94.07739290001336,94.06035639997572,94.06040730001403,94.07739290001336,94.07739290001336,94.07739290001336,99.06090269994456,104.82998129993211,left,0.0,26.30830600007903,,104.83088709996082,104.84200860001148,105.32717449998016,105.3420383000048,,,,,,,,,,,,,,,,,,,,,,,,,,sub-005,1.0,random_dot,60.07027021968558,
right,right,,2.0,0.0,4.0,1.0,,,,,,,,,105.3420383000048,,,,,,,,,105.32793279993348,105.442471700022,106.24388259998524,106.22649069991894,106.22653599991465,106.24388259998524,106.24388259998524,106.24388259998524,111.22720600001048,113.46227159991396,right,1.0,22.76669440011028,,113.46300300001168,113.47548969998024,113.96076659997924,113.9755751999328,,,,,,,,,,,,,,,,,,,,,,,,,,sub-005,1.0,random_dot,60.07027021968558,
left,left,,2.0,1.0,5.0,0.0,,,,,,,,,113.9755751999328,,,,,,,,,113.96160569996572,114.3254851999227,115.12689209997188,115.10932619997766,115.10935759998392,115.12689209997188,115.12689209997188,115.12689209997188,120.11037559993564,123.64683109999169,left,1.0,24.078352000098675,,123.64769040001556,123.6588581999531,124.14373200002592,124.15869429998564,,,,,,,,,,,,,,,,,,,,,,,,,,sub-005,1.0,random_dot,60.07027021968558,
left,left,,3.0,0.0,6.0,0.0,,,,,,,,,124.15869429998564,,,,,,,,,124.1444887999678,124.95889779995196,125.76054519996978,125.74301109998488,125.74304969992954,125.76054519996978,125.76054519996978,125.76054519996978,130.7432497999398,132.54583509999793,left,1.0,22.34296130004805,,132.54655039997306,132.55870489997324,133.04348290001508,133.0587644999614,,,,,,,,,,,,,,,,,,,,,,,,,,sub-005,1.0,random_dot,60.07027021968558,
right,right,,3.0,1.0,7.0,1.0,,,,,,,,,133.0587644999614,,,,,,,,,133.0443024999695,133.85864210000727,134.660733699915,134.6438908999553,134.64394679991528,134.660733699915,134.660733699915,134.660733699915,139.6435921000084,140.66204139997717,right,1.0,21.55102440016344,,140.66269779996946,140.6752039999701,141.16028439998627,141.17520810000133,,,,,,,,,,,,,,,,,,,,,,,,,,sub-005,1.0,random_dot,60.07027021968558,
left,left,,4.0,0.0,8.0,0.0,,,,,,,,,141.17520810000133,,,,,,,,,141.16108729992993,141.52534669998568,142.3269117999589,142.31037780002225,142.310435899999,142.3269117999589,142.3269117999589,142.3269117999589,,145.89481819991488,right,0.0,19.11640870000701,,145.89548479998484,145.90851290000137,146.39294039993547,146.40884069993626,,,,,,,,,,,,,,,,,,,,,,,,,,sub-005,1.0,random_dot,60.07027021968558,
right,right,,4.0,1.0,9.0,1.0,,,,,,,,,146.40884069993626,,,,,,,,,146.3934570000274,146.50836039998103,147.31034149997868,147.2927531999303,147.29279859992675,147.31034149997868,147.31034149997868,147.31034149997868,,151.52798939996865,right,1.0,19.76921320008114,,151.5286448999541,151.54204179998487,152.02671609993558,152.04189260001294,,,,,,,,,,,,,,,,,,,,,,,,,,sub-005,1.0,random_dot,60.07027021968558,
right,right,,5.0,0.0,10.0,1.0,,,,,,,,,152.04189260001294,,,,,,,,,152.027467399952,152.14177949994337,152.94358650001232,152.92671589995734,152.92676729999948,152.94358650001232,152.94358650001232,152.94358650001232,157.92687039996963,160.42781010002363,right,1.0,23.040074500022456,,160.4284856999293,160.44165819999762,160.92547199991532,160.9417707999237,,,,,,,,,,,,,,,,,,,,,,,,,,sub-005,1.0,random_dot,60.07027021968558,
left,left,,5.0,1.0,11.0,0.0,,,,,,,,,160.9417707999237,,,,,,,,,160.92575599998236,161.04147209995426,161.84314539993647,161.82596129993908,161.8259945999598,161.84314539993647,161.84314539993647,161.84314539993647,,165.54665909998585,left,1.0,19.26487640012056,,165.54743919998873,165.5582467999775,166.04334430000745,166.05827959999442,,,,,,,,,,,,,,,,,,,,,,,,,,sub-005,1.0,random_dot,60.07027021968558,
right,right,,6.0,0.0,12.0,1.0,,,,,,,,,166.05827959999442,,,,,,,,,166.04422569996677,166.15854079998098,166.96011609991547,166.94300999992993,166.94304739998188,166.96011609991547,166.96011609991547,166.96011609991547,,170.2971282999497,right,1.0,18.89892669999972,,170.29788809991442,170.3081173999235,170.79342779994477,170.8083326999331,,,,,,,,,,,,,,,,,,,,,,,,,,sub-005,1.0,random_dot,60.07027021968558,
left,left,,6.0,1.0,13.0,0.0,,,,,,,,,170.8083326999331,,,,,,,,,170.79415570001584,170.90850060002413,171.70988969993778,171.6925333000254,171.69257329998072,171.70988969993778,171.70988969993778,171.70988969993778,,174.16231899999548,left,1.0,18.00656380003784,,174.16311500000302,174.17482590000145,174.65944069996476,174.67474499996752,,,,,,,,,,,,,,,,,,,,,,,,,,sub-005,1.0,random_dot,60.07027021968558,
left,left,,7.0,0.0,14.0,0.0,,,,,,,,,174.67474499996752,,,,,,,,,174.6601856999332,174.7749208000023,175.57668409997132,175.55903270002457,175.55906549992503,175.57668409997132,175.57668409997132,175.57668409997132,,178.86266169999726,right,0.0,18.837403100100342,,178.86350819992367,178.87472949991934,179.36012500000652,179.37506200000644,,,,,,,,,,,,,,,,,,,,,,,,,,sub-005,1.0,random_dot,60.07027021968558,
right,right,,7.0,1.0,15.0,1.0,,,,,,,,,179.37506200000644,,,,,,,,,179.36094929999672,179.4746949999826,180.27651929995045,180.26009629992768,180.2601350999903,180.27651929995045,180.27651929995045,180.27651929995045,,184.26246330002323,left,0.0,19.546366800088435,,184.2633229999337,184.2750707999803,184.7606420000084,184.77526809996925,,,,,,,,,,,,,,,,,,,,,,,,,,sub-005,1.0,random_dot,60.07027021968558,
right,right,,8.0,0.0,16.0,1.0,,,,,,,,,184.77526809996925,,,,,,,,,184.7614552999148,185.9750711999368,186.77689630002715,186.7592737999512,186.75930749997497,186.77689630002715,186.77689630002715,186.77689630002715,,189.9947938999394,right,1.0,18.76811699999962,,189.9954089999665,190.00810779992025,190.4930218999507,190.5081705999328,,,,,,,,,,,,,,,,,,,,,,,,,,sub-005,1.0,random_dot,60.07027021968558,
left,left,,8.0,1.0,17.0,0.0,,,,,,,,,190.5081705999328,,,,,,,,,190.49387969996317,190.60820669995155,191.40990979992785,191.3923642999725,191.39240279991645,191.40990979992785,191.40990979992785,191.40990979992785,196.3932658999693,198.61240679991897,right,0.0,22.75522050005384,,198.6133480999852,198.62483039998915,199.10968919994772,199.1249721000204,,,,,,,,,,,,,,,,,,,,,,,,,,sub-005,1.0,random_dot,60.07027021968558,
right,right,,9.0,0.0,18.0,1.0,,,,,,,,,199.1249721000204,,,,,,,,,199.11050780001096,200.32500569999684,201.1265204999363,201.10968889994547,201.1097384999739,201.1265204999363,201.1265204999363,201.1265204999363,206.109824199928,210.0460344000021,right,1.0,24.479698000010103,,210.0468470000196,210.0579802999273,210.543140499969,210.5580619999673,,,,,,,,,,,,,,,,,,,,,,,,,,sub-005,1.0,random_dot,60.07027021968558,
left,left,,9.0,1.0,19.0,0.0,,,,,,,,,210.5580619999673,,,,,,,,,210.54403250000905,211.75830889993813,212.55978589993904,212.5429888999788,212.5430464999517,212.55978589993904,212.55978589993904,212.55978589993904,217.54326700000087,219.3964786999859,left,1.0,22.39798170013819,,219.3976829999592,219.4079448999837,219.8933429999743,219.90839110000525,,,,,,,,,,,,,,,,,,,,,,,,,,sub-005,1.0,random_dot,60.07027021968558,
,,,,,,,,,,,,,,,,,,,,,,,,,,,,,,,,,,,,,,,,,,219.89349179994315,219.90839110000525,219.90839110000525,226.64394520001952,space,22.293136700056493,,,,,,,,,,,,,,,,,,,,sub-005,1.0,random_dot,60.07027021968558,
,,,,,,,,,,,,,,,,,,,,,,,,,,,,,,,,,,,,,,,,,,,,,,,,,226.64401519997045,226.65804799995385,226.65804799995385,254.42623909993563,space,43.31842690007761,,,,,,,,,,,,,sub-005,1.0,random_dot,60.07027021968558,
left,left,speed,,,,,0.0,0.0,0.0,1.0,0.0,0.0,0.0,0.0,263.1416861999314,,,,,,,,,263.1365149000194,263.94133369997144,264.74309759994503,264.725954100024,264.72609409992583,264.74309759994503,264.74309759994503,264.74309759994503,,268.2437539999373,right,0.0,19.062308500055224,,,,,,,,,,,,,,,,,,,,254.4308012999827,254.45188469998536,254.45188469998536,263.1270372999133,space,24.23396089999005,,,,,,sub-005,1.0,random_dot,60.07027021968558,
right,right,speed,,,,,0.0,0.0,0.0,1.0,0.0,1.0,1.0,1.0,268.25738239998464,,,,,,,,,268.2452509999275,268.3572532000253,269.1590667000273,269.1414079000242,269.1414727999363,269.1590667000273,269.1590667000273,269.1590667000273,,274.0943317000056,left,0.0,20.48549360013567,,,,,,,,,,,,,,,,,,,,,,,,,,,,,,,sub-005,1.0,random_dot,60.07027021968558,
right,right,speed,,,,,0.0,0.0,0.0,1.0,1.0,0.0,2.0,1.0,274.10778319998644,,,,,,,,,274.095513899927,274.45740600000136,275.2593409999972,275.2420211000135,275.24205180001445,275.2593409999972,275.2593409999972,275.2593409999972,280.2426093999529,281.6434163999511,right,1.0,21.93793460004963,,,,,,,,,,,,,,,,,,,,,,,,,,,,,,,sub-005,1.0,random_dot,60.07027021968558,
left,left,speed,,,,,0.0,0.0,0.0,1.0,1.0,1.0,3.0,0.0,281.6573797999881,,,,,,,,,281.64415700000245,282.8572947999928,283.65888939995784,283.6418463999871,283.6418962000171,283.65888939995784,283.65888939995784,283.65888939995784,288.64228869997896,289.8954044999555,left,1.0,21.79656440007966,,,,,,,,,,,,,,,,,,,,,,,,,,,,,,,sub-005,1.0,random_dot,60.07027021968558,
right,right,speed,,,,,0.0,0.0,0.0,1.0,2.0,0.0,4.0,1.0,289.90731889999006,,,,,,,,,289.8969168999465,290.7075101999799,291.50919499993324,291.4924190000165,291.4924855999416,291.50919499993324,291.50919499993324,291.50919499993324,296.4921644999413,297.29420429992024,right,1.0,21.340077899978496,,,,,,,,,,,,,,,,,,,,,,,,,,,,,,,sub-005,1.0,random_dot,60.07027021968558,
left,left,speed,,,,,0.0,0.0,0.0,1.0,2.0,1.0,5.0,0.0,297.3070984999649,,,,,,,,,297.29577430000063,298.50753449997865,299.30880709993653,299.2919538000133,299.2920096999733,299.30880709993653,299.30880709993653,299.30880709993653,304.2919273999287,305.24427969998214,left,1.0,21.49532710004132,,,,,,,,,,,,,,,,,,,,,,,,,,,,,,,sub-005,1.0,random_dot,60.07027021968558,
right,right,speed,,,,,0.0,0.0,0.0,1.0,3.0,0.0,6.0,1.0,305.2568869999377,,,,,,,,,305.24574949999806,306.45716440002434,307.2588356999913,307.24101689993404,307.2410484999418,307.2588356999913,307.2588356999913,307.2588356999913,312.2418699000264,313.6273970999755,right,1.0,21.91573020012584,,,,,,,,,,,,,,,,,,,,,,,,,,,,,,,sub-005,1.0,random_dot,60.07027021968558,
left,left,speed,,,,,0.0,0.0,0.0,1.0,3.0,1.0,7.0,0.0,313.64074589998927,,,,,,,,,313.62869399995543,314.8408067999408,315.6422398999566,315.6253542000195,315.625412399997,315.6422398999566,315.6422398999566,315.6422398999566,,319.478059999994,left,1.0,19.38906480011065,,,,,,,,,,,,,,,,,,,,,,,,,,,,,,,sub-005,1.0,random_dot,60.07027021968558,
left,left,speed,,,,,0.0,0.0,0.0,1.0,4.0,0.0,8.0,0.0,319.4903963999823,,,,,,,,,319.47948209999595,319.5904708999442,320.3922843999462,320.37537709996104,320.37542649998795,320.3922843999462,320.3922843999462,320.3922843999462,,323.7111915999558,left,1.0,18.87316300009843,,,,,,,,,,,,,,,,,,,,,,,,,,,,,,,sub-005,1.0,random_dot,60.07027021968558,
right,right,speed,,,,,0.0,0.0,0.0,1.0,4.0,1.0,9.0,1.0,323.72356680000667,,,,,,,,,323.7125834999606,324.0740770000266,324.87545309995767,324.8578989999369,324.8579306999454,324.87545309995767,324.87545309995767,324.87545309995767,,327.71253090002574,right,1.0,18.398325399961323,,,,,,,,,,,,,,,,,,,,,,,,,,,,,,,sub-005,1.0,random_dot,60.07027021968558,
left,left,speed,,,,,0.0,0.0,0.0,1.0,5.0,0.0,10.0,0.0,327.7236489999341,,,,,,,,,327.7140677999705,328.5237238999689,329.3254792999942,329.30877989996225,329.30887039995287,329.3254792999942,329.3254792999942,329.3254792999942,,332.2448293999769,left,1.0,18.47180850012228,,,,,,,,,,,,,,,,,,,,,,,,,,,,,,,sub-005,1.0,random_dot,60.07027021968558,
right,right,speed,,,,,0.0,0.0,0.0,1.0,5.0,1.0,11.0,1.0,332.2572025000118,,,,,,,,,332.2462776999455,332.3569516999414,333.1588302999735,333.14204449998215,333.1420933000045,333.1588302999735,333.1588302999735,333.1588302999735,,336.66053210000973,right,1.0,19.05023680010345,,,,,,,,,,,,,,,,,,,,,,,,,,,,,,,sub-005,1.0,random_dot,60.07027021968558,
right,right,speed,,,,,0.0,0.0,0.0,1.0,6.0,0.0,12.0,1.0,336.67369730002247,,,,,,,,,336.6618379999418,337.0237154000206,337.8251943999203,337.80870850000065,337.8087483999552,337.8251943999203,337.8251943999203,337.8251943999203,,342.593681099941,left,0.0,20.316533200093545,,,,,,,,,,,,,,,,,,,,,,,,,,,,,,,sub-005,1.0,random_dot,60.07027021968558,
left,left,speed,,,,,0.0,0.0,0.0,1.0,6.0,1.0,13.0,0.0,342.6068993000081,,,,,,,,,342.594905499951,343.806884599966,344.60858989995904,344.5915035000071,344.5915546999313,344.60858989995904,344.60858989995904,344.60858989995904,349.5920809999807,350.0094487000024,left,1.0,20.963324200129136,,,,,,,,,,,,,,,,,,,,,,,,,,,,,,,sub-005,1.0,random_dot,60.07027021968558,
left,left,speed,,,,,0.0,0.0,0.0,1.0,7.0,0.0,14.0,0.0,350.02351959992666,,,,,,,,,350.01008219993673,350.3739133999916,351.1752637999598,351.15720639994834,351.1572340999264,351.1752637999598,351.1752637999598,351.1752637999598,,355.72673180000857,right,0.0,20.10067569999956,,,,,,,,,,,,,,,,,,,,,,,,,,,,,,,sub-005,1.0,random_dot,60.07027021968558,
right,right,speed,,,,,0.0,0.0,0.0,1.0,7.0,1.0,15.0,1.0,355.7401734999148,,,,,,,,,355.72810649999883,356.9400197999785,357.741700100014,357.7242170999525,357.72425450000446,357.741700100014,357.741700100014,357.741700100014,,362.0108348999638,left,0.0,19.822546600014903,,,,,,,,,,,,,,,,,,,,,,,,,,,,,,,sub-005,1.0,random_dot,60.07027021968558,
left,left,speed,,,,,0.0,0.0,0.0,1.0,8.0,0.0,16.0,0.0,362.0231060999213,,,,,,,,,362.01250750001054,362.8231898000231,363.6249652999686,363.6081533000106,363.6082041999325,363.6249652999686,363.6249652999686,363.6249652999686,,366.5109308999963,right,0.0,18.435687500052158,,,,,,,,,,,,,,,,,,,,,,,,,,,,,,,sub-005,1.0,random_dot,60.07027021968558,
right,right,speed,,,,,0.0,0.0,0.0,1.0,8.0,1.0,17.0,1.0,366.5233661999228,,,,,,,,,366.5124943000265,367.3235177999595,368.1249471999472,368.1085448999656,368.1085987000261,368.1249471999472,368.1249471999472,368.1249471999472,373.10820899996907,373.4951746999286,left,0.0,20.93108700006269,,,,,,,,,,,,,,,,,,,,,,,,,,,,,,,sub-005,1.0,random_dot,60.07027021968558,
left,left,speed,,,,,0.0,0.0,0.0,1.0,9.0,0.0,18.0,0.0,373.5064937999705,,,,,,,,,373.4967472999124,374.70727219991386,375.50806979998015,375.4910275000148,375.4910821999656,375.50806979998015,375.50806979998015,375.50806979998015,380.49184739997145,381.2103483999381,left,1.0,21.26151290012058,,,,,,,,,,,,,,,,,,,,,,,,,,,,,,,sub-005,1.0,random_dot,60.07027021968558,
right,right,speed,,,,,0.0,0.0,0.0,1.0,9.0,1.0,19.0,1.0,381.2231561000226,,,,,,,,,381.2117449999787,382.0231288999785,382.8246268000221,382.8075312000001,382.80754920002073,382.8246268000221,382.8246268000221,382.8246268000221,,384.9440249999752,right,1.0,17.676350300083868,,,,,,,,,,,,,,,,,,,,,,,,,,,,,,,sub-005,1.0,random_dot,60.07027021968558,
left,left,speed,,,,,0.0,0.0,0.0,1.0,10.0,0.0,20.0,0.0,384.9564772999147,,,,,,,,,384.94523529999424,385.7567048999481,386.55826969991904,386.5410807000008,386.5411296000239,386.55826969991904,386.55826969991904,386.55826969991904,391.5413232999854,392.00996339996345,left,1.0,20.99948820017744,,,,,,,,,,,,,,,,,,,,,,,,,,,,,,,sub-005,1.0,random_dot,60.07027021968558,
right,right,speed,,,,,0.0,0.0,0.0,1.0,10.0,1.0,21.0,1.0,392.023022999987,,,,,,,,,392.01124379993416,392.8230572999455,393.6247953999555,393.60818749992177,393.60823619994335,393.6247953999555,393.6247953999555,393.6247953999555,,397.4609077000059,right,1.0,19.393878300092183,,,,,,,,,,,,,,,,,,,,,,,,,,,,,,,sub-005,1.0,random_dot,60.07027021968558,
left,left,speed,,,,,0.0,0.0,0.0,1.0,11.0,0.0,22.0,0.0,397.4728368999204,,,,,,,,,397.4624231000198,397.573052899912,398.3747748999158,398.3572790999897,398.35731230000965,398.3747748999158,398.3747748999158,398.3747748999158,403.3579785999609,403.64389199996367,left,1.0,20.822608800022863,,,,,,,,,,,,,,,,,,,,,,,,,,,,,,,sub-005,1.0,random_dot,60.07027021968558,
right,right,speed,,,,,0.0,0.0,0.0,1.0,11.0,1.0,23.0,1.0,403.6560416999273,,,,,,,,,403.6453199000098,404.85632969997823,405.6581491000252,405.64133639994543,405.6413905000081,405.6581491000252,405.6581491000252,405.6581491000252,,408.4763104999438,right,1.0,18.37684480007738,,,,,,,,,,,,,,,,,,,,,,,,,,,,,,,sub-005,1.0,random_dot,60.07027021968558,
left,left,speed,,,,,0.0,0.0,0.0,1.0,12.0,0.0,24.0,0.0,408.489546299912,,,,,,,,,408.4773555999855,409.6897771999938,410.4912862000056,410.4733061000006,410.4733320999658,410.4912862000056,410.4912862000056,410.4912862000056,415.4745125999907,418.4095009999583,left,1.0,23.468154600122944,,,,,,,,,,,,,,,,,,,,,,,,,,,,,,,sub-005,1.0,random_dot,60.07027021968558,
right,right,speed,,,,,0.0,0.0,0.0,1.0,12.0,1.0,25.0,1.0,418.4227046999149,,,,,,,,,418.41068989993073,418.5229900999693,419.32455030002166,419.3075813999167,419.3076298999367,419.32455030002166,419.32455030002166,419.32455030002166,424.30817600002047,424.9439439999405,right,1.0,21.17620440002065,,,,,,,,,,,,,,,,,,,,,,,,,,,,,,,sub-005,1.0,random_dot,60.07027021968558,
right,right,speed,,,,,0.0,0.0,0.0,1.0,13.0,0.0,26.0,1.0,424.9558939000126,,,,,,,,,424.9455087999813,425.75613989995327,426.5577960999217,426.5411855999846,426.5412351000123,426.5577960999217,426.5577960999217,426.5577960999217,,427.9263610999333,right,1.0,16.91865550004877,,,,,,,,,,,,,,,,,,,,,,,,,,,,,,,sub-005,1.0,random_dot,60.07027021968558,
left,left,speed,,,,,0.0,0.0,0.0,1.0,13.0,1.0,27.0,0.0,427.9397693999345,,,,,,,,,427.9276445999276,428.0394813999301,428.8413092999253,428.8238413999789,428.8238869999768,428.8413092999253,428.8413092999253,428.8413092999253,,430.825236100005,right,0.0,17.531655100057833,,,,,,,,,,,,,,,,,,,,,,,,,,,,,,,sub-005,1.0,random_dot,60.07027021968558,
left,left,speed,,,,,0.0,0.0,0.0,1.0,14.0,0.0,28.0,0.0,430.8393080999376,,,,,,,,,430.8259794999613,431.6392295999685,432.4416785999201,432.4247534999158,432.4247941999929,432.4416785999201,432.4416785999201,432.4416785999201,,434.34446910000406,left,1.0,17.46437360008713,,,,,,,,,,,,,,,,,,,,,,,,,,,,,,,sub-005,1.0,random_dot,60.07027021968558,
right,right,speed,,,,,0.0,0.0,0.0,1.0,14.0,1.0,29.0,1.0,434.35625459998846,,,,,,,,,434.3459059000015,434.70602129993495,435.507808299968,435.4911874999525,435.4912443999201,435.507808299968,435.507808299968,435.507808299968,,439.943291899981,right,1.0,19.98288340016734,,,,,,,,,,,,,,,,,,,,,,,,,,,,,,,sub-005,1.0,random_dot,60.07027021968558,
left,left,speed,,,,,0.0,0.0,0.0,1.0,15.0,0.0,30.0,0.0,439.9562356999377,,,,,,,,,439.9443981000222,440.30634809995536,441.1082257999806,441.0904545999365,441.0904905999778,441.1082257999806,441.1082257999806,441.1082257999806,,443.0953656999627,left,1.0,17.548227700055577,,,,,,,,,,,,,,,,,,,,,,,,,,,,,,,sub-005,1.0,random_dot,60.07027021968558,
right,right,speed,,,,,0.0,0.0,0.0,1.0,15.0,1.0,31.0,1.0,443.1066384000005,,,,,,,,,443.0967350999126,443.2064137000125,444.0078464000253,443.9910411000019,443.9910907999147,444.0078464000253,444.0078464000253,444.0078464000253,,446.8939164999174,right,1.0,18.446202000021003,,,,,,,,,,,,,,,,,,,,,,,,,,,,,,,sub-005,1.0,random_dot,60.07027021968558,
left,left,speed,,,,,0.0,0.0,0.0,1.0,16.0,0.0,32.0,0.0,446.9058533000061,,,,,,,,,446.8954546999885,447.2562005999498,448.05789379996713,448.0409782999195,448.0410288999556,448.05789379996713,448.05789379996713,448.05789379996713,,452.1427612999687,right,0.0,19.63588390010409,,,,,,,,,,,,,,,,,,,,,,,,,,,,,,,sub-005,1.0,random_dot,60.07027021968558,
right,right,speed,,,,,0.0,0.0,0.0,1.0,16.0,1.0,33.0,1.0,452.1563366999617,,,,,,,,,452.1441583000124,452.5060169999488,453.3078506999882,453.2913619999308,453.29142449994106,453.3078506999882,453.3078506999882,453.3078506999882,,457.5758871999569,right,1.0,19.81584400008433,,,,,,,,,,,,,,,,,,,,,,,,,,,,,,,sub-005,1.0,random_dot,60.07027021968558,
right,right,speed,,,,,0.0,0.0,0.0,1.0,17.0,0.0,34.0,1.0,457.5891662000213,,,,,,,,,457.57700459996704,457.9396180999465,458.7412386999931,458.7241169000045,458.7241741999751,458.7412386999931,458.7412386999931,458.7412386999931,,460.3930884000147,left,0.0,17.20436770003289,,,,,,,,,,,,,,,,,,,,,,,,,,,,,,,sub-005,1.0,random_dot,60.07027021968558,
left,left,speed,,,,,0.0,0.0,0.0,1.0,17.0,1.0,35.0,0.0,460.4058631999651,,,,,,,,,460.3946178000188,460.5059153999901,461.3071041000076,461.2891159999417,461.289131199941,461.3071041000076,461.3071041000076,461.3071041000076,,463.4944069000194,left,1.0,17.747173900017515,,,,,,,,,,,,,,,,,,,,,,,,,,,,,,,sub-005,1.0,random_dot,60.07027021968558,
right,right,speed,,,,,0.0,0.0,0.0,1.0,18.0,0.0,36.0,1.0,463.5061656999169,,,,,,,,,463.49597299995366,463.8556353999302,464.65756730001885,464.6404287000187,464.64048589998856,464.65756730001885,464.65756730001885,464.65756730001885,,466.0093384999782,right,1.0,16.898875400074758,,,,,,,,,,,,,,,,,,,,,,,,,,,,,,,sub-005,1.0,random_dot,60.07027021968558,
left,left,speed,,,,,0.0,0.0,0.0,1.0,18.0,1.0,37.0,0.0,466.0225247999188,,,,,,,,,466.0104462999152,466.1223012999399,466.924142899923,466.90730289998464,466.9073618999682,466.924142899923,466.924142899923,466.924142899923,,469.5596429000143,left,1.0,18.191817400045693,,,,,,,,,,,,,,,,,,,,,,,,,,,,,,,sub-005,1.0,random_dot,60.07027021968558,
right,right,speed,,,,,0.0,0.0,0.0,1.0,19.0,0.0,38.0,1.0,469.57232809998095,,,,,,,,,469.5609741000226,469.6723383999197,470.4741241999436,470.4576042999979,470.45765290001873,470.4741241999436,470.4741241999436,470.4741241999436,,472.9442772999173,left,0.0,18.03102500003297,,,,,,,,,,,,,,,,,,,,,,,,,,,,,,,sub-005,1.0,random_dot,60.07027021968558,
left,left,speed,,,,,0.0,0.0,0.0,1.0,19.0,1.0,39.0,0.0,472.9555390999885,,,,,,,,,472.9457114000106,474.1559665999375,474.9572454999434,474.9408187000081,474.94086919992696,474.9572454999434,474.9572454999434,474.9572454999434,,477.6260740999133,left,1.0,18.219296600087542,,,,,,,,,,,,,,,,,,,,,,,,,,,,,,,sub-005,1.0,random_dot,60.07027021968558,
right,right,speed,,,,,0.0,0.0,0.0,1.0,20.0,0.0,40.0,1.0,477.6392079999205,,,,,,,,,477.6273058999796,477.9891364999348,478.7907701999648,478.77406610001344,478.7741209999658,478.7907701999648,478.7907701999648,478.7907701999648,,482.5925539999735,right,1.0,19.360384300001897,,,,,,,,,,,,,,,,,,,,,,,,,,,,,,,sub-005,1.0,random_dot,60.07027021968558,
left,left,speed,,,,,0.0,0.0,0.0,1.0,20.0,1.0,41.0,0.0,482.6055885999231,,,,,,,,,482.5940214999719,483.80597989994567,484.6073351999512,484.5899559999816,484.5899937999202,484.6073351999512,484.6073351999512,484.6073351999512,,485.7754831999773,right,0.0,16.72620769997593,,,,,,,,,,,,,,,,,,,,,,,,,,,,,,,sub-005,1.0,random_dot,60.07027021968558,
right,right,speed,,,,,0.0,0.0,0.0,1.0,21.0,0.0,42.0,1.0,485.7890542999376,,,,,,,,,485.7768690999365,486.98879490001127,487.7905672999332,487.7735170000233,487.77357289998326,487.7905672999332,487.7905672999332,487.7905672999332,,489.6092647999758,left,0.0,17.3805770999752,,,,,,,,,,,,,,,,,,,,,,,,,,,,,,,sub-005,1.0,random_dot,60.07027021968558,
left,left,speed,,,,,0.0,0.0,0.0,1.0,21.0,1.0,43.0,0.0,489.6220863999333,,,,,,,,,489.6103793999646,490.42261869995855,491.2241534999339,491.2075878999895,491.20764459995553,491.2241534999339,491.2241534999339,491.2241534999339,,493.8923041999806,right,0.0,18.225521399988796,,,,,,,,,,,,,,,,,,,,,,,,,,,,,,,sub-005,1.0,random_dot,60.07027021968558,
left,left,speed,,,,,0.0,0.0,0.0,1.0,22.0,0.0,44.0,0.0,493.9055248999503,,,,,,,,,493.8936269999249,495.1057162999641,495.9073972000042,495.8900481999153,495.8900843999581,495.9073972000042,495.9073972000042,495.9073972000042,,497.76044719992206,left,1.0,17.41287950007245,,,,,,,,,,,,,,,,,,,,,,,,,,,,,,,sub-005,1.0,random_dot,60.07027021968558,
right,right,speed,,,,,0.0,0.0,0.0,1.0,22.0,1.0,45.0,1.0,497.7719796999591,,,,,,,,,497.7619680999778,497.8720991999144,498.6739043999696,498.65654270001687,498.6565774999326,498.6739043999696,498.6739043999696,498.6739043999696,,500.525923899957,right,1.0,17.401598200085573,,,,,,,,,,,,,,,,,,,,,,,,,,,,,,,sub-005,1.0,random_dot,60.07027021968558,
right,right,speed,,,,,0.0,0.0,0.0,1.0,23.0,0.0,46.0,1.0,500.5390502000228,,,,,,,,,500.5270265999716,500.88902589993086,501.6906263999408,501.6739622999448,501.6740168000106,501.6906263999408,501.6906263999408,501.6906263999408,,506.3088136999868,right,1.0,20.16964760015253,,,,,,,,,,,,,,,,,,,,,,,,,,,,,,,sub-005,1.0,random_dot,60.07027021968558,
left,left,speed,,,,,0.0,0.0,0.0,1.0,23.0,1.0,47.0,0.0,506.3218614999205,,,,,,,,,506.3099535999354,506.42213229998015,507.2237033999991,507.20671629998833,507.2067989999196,507.2237033999991,507.2237033999991,507.2237033999991,,509.96022509993054,right,0.0,18.287577700102705,,,,,,,,,,,,,,,,,,,,,,,,,,,,,,,sub-005,1.0,random_dot,60.07027021968558,
left,left,speed,,,,,0.0,0.0,0.0,1.0,24.0,0.0,48.0,0.0,509.97211979993153,,,,,,,,,509.9618820999749,510.7720568999648,511.573848699918,511.5558445999632,511.5558692999184,511.573848699918,511.573848699918,511.573848699918,,513.3940484999912,left,1.0,17.381427600164898,,,,,,,,,,,,,,,,,,,,,,,,,,,,,,,sub-005,1.0,random_dot,60.07027021968558,
right,right,speed,,,,,0.0,0.0,0.0,1.0,24.0,1.0,49.0,1.0,513.4052266000072,,,,,,,,,513.395413500024,513.5059037000174,514.3068853999721,514.2905324000167,514.2905870999675,514.3068853999721,514.3068853999721,514.3068853999721,,516.126651700004,right,1.0,17.37868350010831,,,,,,,,,,,,,,,,,,,,,,,,,,,,,,,sub-005,1.0,random_dot,60.07027021968558,
left,left,speed,,,,,0.0,0.0,0.0,1.0,25.0,0.0,50.0,0.0,516.1387457000092,,,,,,,,,516.1281808000058,517.338449099916,518.1404389999807,518.1236954999622,518.1237506999169,518.1404389999807,518.1404389999807,518.1404389999807,,520.3923133999342,left,1.0,17.809578500106,,,,,,,,,,,,,,,,,,,,,,,,,,,,,,,sub-005,1.0,random_dot,60.07027021968558,
right,right,speed,,,,,0.0,0.0,0.0,1.0,25.0,1.0,51.0,1.0,520.4052354999585,,,,,,,,,520.3935586999869,520.5054053999484,521.3072076999815,521.2893434999278,521.289374099928,521.3072076999815,521.3072076999815,521.3072076999815,,524.7252607999835,right,1.0,18.97527180006728,,,,,,,,,,,,,,,,,,,,,,,,,,,,,,,sub-005,1.0,random_dot,60.07027021968558,
right,right,speed,,,,,0.0,0.0,0.0,1.0,26.0,0.0,52.0,1.0,524.7387909999816,,,,,,,,,524.7264234999893,524.8386042999336,525.640233199927,525.6235154999886,525.623564700014,525.640233199927,525.640233199927,525.640233199927,,529.6920775999315,left,0.0,19.6021585999988,,,,,,,,,,,,,,,,,,,,,,,,,,,,,,,sub-005,1.0,random_dot,60.07027021968558,
left,left,speed,,,,,0.0,0.0,0.0,1.0,26.0,1.0,53.0,0.0,529.7053013999248,,,,,,,,,529.6931975999614,530.9053889999632,531.7071682999376,531.6897899999749,531.6898247000063,531.7071682999376,531.7071682999376,531.7071682999376,,532.8250593999401,left,1.0,16.68016010010615,,,,,,,,,,,,,,,,,,,,,,,,,,,,,,,sub-005,1.0,random_dot,60.07027021968558,
left,left,speed,,,,,0.0,0.0,0.0,1.0,27.0,0.0,54.0,0.0,532.8385069000069,,,,,,,,,532.8262141000014,533.6383403999498,534.4400444999337,534.4231927000219,534.4232494999887,534.4400444999337,534.4400444999337,534.4400444999337,,535.4261830999749,left,1.0,16.53808030008804,,,,,,,,,,,,,,,,,,,,,,,,,,,,,,,sub-005,1.0,random_dot,60.07027021968558,
right,right,speed,,,,,0.0,0.0,0.0,1.0,27.0,1.0,55.0,1.0,535.4383763999213,,,,,,,,,535.4277570999693,536.6383507999126,537.4403034999268,537.4224614999257,537.4225020000013,537.4403034999268,537.4403034999268,537.4403034999268,,538.9278331999667,left,0.0,17.048882400034927,,,,,,,,,,,,,,,,,,,,,,,,,,,,,,,sub-005,1.0,random_dot,60.07027021968558,
right,right,speed,,,,,0.0,0.0,0.0,1.0,28.0,0.0,56.0,1.0,538.9384628999978,,,,,,,,,538.9291775999591,540.1386078000069,540.940296899993,540.9230526000028,540.9230922999559,540.940296899993,540.940296899993,540.940296899993,,542.1587478999281,right,1.0,16.77179080003407,,,,,,,,,,,,,,,,,,,,,,,,,,,,,,,sub-005,1.0,random_dot,60.07027021968558,
left,left,speed,,,,,0.0,0.0,0.0,1.0,28.0,1.0,57.0,0.0,542.1716570999706,,,,,,,,,542.160361599992,542.2718023000052,543.0734650000231,543.056455599959,543.056503699976,543.0734650000231,543.0734650000231,543.0734650000231,,544.7592611999717,left,1.0,17.242082600132562,,,,,,,,,,,,,,,,,,,,,,,,,,,,,,,sub-005,1.0,random_dot,60.07027021968558,
left,left,speed,,,,,0.0,0.0,0.0,1.0,29.0,0.0,58.0,0.0,544.7716120999539,,,,,,,,,544.7606960999547,544.8719864999875,545.6732719999272,545.6565228999825,545.6565722000087,545.6732719999272,545.6732719999272,545.6732719999272,,546.9582536999369,left,1.0,16.834288100129925,,,,,,,,,,,,,,,,,,,,,,,,,,,,,,,sub-005,1.0,random_dot,60.07027021968558,
right,right,speed,,,,,0.0,0.0,0.0,1.0,29.0,1.0,59.0,1.0,546.9715931999963,,,,,,,,,546.9593804000178,547.3216607000213,548.1231687000254,548.1056063999422,548.1056351999287,548.1231687000254,548.1231687000254,548.1231687000254,,548.9590507999528,right,1.0,16.387128500151448,,,,,,,,,,,,,,,,,,,,,,,,,,,,,,,sub-005,1.0,random_dot,60.07027021968558,
,,speed,,,,,0.0,0.0,0.0,1.0,,,,,,,,,,,,,,,,,,,,,,,,,,,,,,,,,,,,,,,,,,,,,,,,,,,,,,,,,sub-005,1.0,random_dot,60.07027021968558,
right,right,accuracy,,,,,0.0,1.0,1.0,0.0,0.0,0.0,0.0,1.0,558.7716547999298,,,,,,,,,558.7665514999535,559.1219782999251,559.9238532999298,559.9063050999539,559.906349799945,559.9238532999298,559.9238532999298,559.9238532999298,,561.3260844999459,right,1.0,16.956411800114438,,,,,,,,,,,,,,,,,,,,548.9604446999729,548.9815743999789,548.9815743999789,558.7569305999205,space,25.322786699980497,,,,,,sub-005,1.0,random_dot,60.07027021968558,
left,left,accuracy,,,,,0.0,1.0,1.0,0.0,0.0,1.0,1.0,0.0,561.3385435999371,,,,,,,,,561.3278912999667,561.4385975999758,562.2401092000073,562.2230270999717,562.2230711999582,562.2401092000073,562.2401092000073,562.2401092000073,,565.0250734000001,left,1.0,18.338520100107417,,,,,,,,,,,,,,,,,,,,,,,,,,,,,,,sub-005,1.0,random_dot,60.07027021968558,
left,left,accuracy,,,,,0.0,1.0,1.0,0.0,1.0,0.0,2.0,0.0,565.0384260999272,,,,,,,,,565.0261971999425,565.1387012000196,565.9400525999954,565.923003599979,565.9230540000135,565.9400525999954,565.9400525999954,565.9400525999954,,568.843730899971,left,1.0,18.465170000097714,,,,,,,,,,,,,,,,,,,,,,,,,,,,,,,sub-005,1.0,random_dot,60.07027021968558,
right,right,accuracy,,,,,0.0,1.0,1.0,0.0,1.0,1.0,3.0,1.0,568.8548696999205,,,,,,,,,568.8454298999859,568.9550184999825,569.7567957999418,569.7398517000256,569.7399079999886,569.7567957999418,569.7567957999418,569.7567957999418,,572.2935499999439,right,1.0,18.09806099999696,,,,,,,,,,,,,,,,,,,,,,,,,,,,,,,sub-005,1.0,random_dot,60.07027021968558,
left,left,accuracy,,,,,0.0,1.0,1.0,0.0,2.0,0.0,4.0,0.0,572.3048299999209,,,,,,,,,572.2951925999951,573.5051271999255,574.3067156999605,574.2898310999153,574.2898874999955,574.3067156999605,574.3067156999605,574.3067156999605,,578.2089836000232,right,0.0,19.454152300022542,,,,,,,,,,,,,,,,,,,,,,,,,,,,,,,sub-005,1.0,random_dot,60.07027021968558,
right,right,accuracy,,,,,0.0,1.0,1.0,0.0,2.0,1.0,5.0,1.0,578.221476299921,,,,,,,,,578.2106249999488,579.0216204000171,579.8233592999168,579.8062861999497,579.8063262000214,579.8233592999168,579.8233592999168,579.8233592999168,,583.559011699981,left,0.0,19.294376800069585,,,,,,,,,,,,,,,,,,,,,,,,,,,,,,,sub-005,1.0,random_dot,60.07027021968558,
left,left,accuracy,,,,,0.0,1.0,1.0,0.0,3.0,0.0,6.0,0.0,583.5711573999142,,,,,,,,,583.5605726999929,583.67139579996,584.4730564999627,584.4563221000135,584.4563749999506,584.4730564999627,584.4730564999627,584.4730564999627,,587.7253536999924,left,1.0,18.811496200039983,,,,,,,,,,,,,,,,,,,,,,,,,,,,,,,sub-005,1.0,random_dot,60.07027021968558,
right,right,accuracy,,,,,0.0,1.0,1.0,0.0,3.0,1.0,7.0,1.0,587.7378030000255,,,,,,,,,587.7267614000011,588.0880559999496,588.8898077999474,588.8722782999976,588.8723213999765,588.8898077999474,588.8898077999474,588.8898077999474,593.8730184999295,594.4090638000052,right,1.0,21.077974800020456,,,,,,,,,,,,,,,,,,,,,,,,,,,,,,,sub-005,1.0,random_dot,60.07027021968558,
right,right,accuracy,,,,,0.0,1.0,1.0,0.0,4.0,0.0,8.0,1.0,594.4210916999727,,,,,,,,,594.4107876999769,595.2215717999497,596.0228680999717,596.0058107000077,596.0058461999288,596.0228680999717,596.0228680999717,596.0228680999717,601.0062999000074,603.6252963999286,left,0.0,23.153022299986333,,,,,,,,,,,,,,,,,,,,,,,,,,,,,,,sub-005,1.0,random_dot,60.07027021968558,
left,left,accuracy,,,,,0.0,1.0,1.0,0.0,4.0,1.0,9.0,0.0,603.6380135000218,,,,,,,,,603.6267954999348,604.4378577999305,605.2400095999474,605.2218755999347,605.2218952999683,605.2400095999474,605.2400095999474,605.2400095999474,610.2226973000215,610.7244427999249,left,1.0,21.036760600167327,,,,,,,,,,,,,,,,,,,,,,,,,,,,,,,sub-005,1.0,random_dot,60.07027021968558,
left,left,accuracy,,,,,0.0,1.0,1.0,0.0,5.0,0.0,10.0,0.0,610.737615399994,,,,,,,,,610.7257405000273,611.0878669000231,611.8900956999278,611.8724714999553,611.8725113000255,611.8900956999278,611.8900956999278,611.8900956999278,616.872663600021,618.4254849000135,right,0.0,22.097231000079773,,,,,,,,,,,,,,,,,,,,,,,,,,,,,,,sub-005,1.0,random_dot,60.07027021968558,
right,right,accuracy,,,,,0.0,1.0,1.0,0.0,5.0,1.0,11.0,1.0,618.437623100006,,,,,,,,,618.4271238999208,618.5383635999169,619.3395171000157,619.3224850000115,619.3225396999624,619.3395171000157,619.3395171000157,619.3395171000157,,622.9269399999175,left,0.0,19.148744100122716,,,,,,,,,,,,,,,,,,,,,,,,,,,,,,,sub-005,1.0,random_dot,60.07027021968558,
left,left,accuracy,,,,,0.0,1.0,1.0,0.0,6.0,0.0,12.0,0.0,622.9378738999367,,,,,,,,,622.9289849000052,623.2878625999438,624.0897189999232,624.0726871999213,624.0727556999773,624.0897189999232,624.0897189999232,624.0897189999232,,627.525786299957,right,0.0,18.99350920005236,,,,,,,,,,,,,,,,,,,,,,,,,,,,,,,sub-005,1.0,random_dot,60.07027021968558,
right,right,accuracy,,,,,0.0,1.0,1.0,0.0,6.0,1.0,13.0,1.0,627.5376354999607,,,,,,,,,627.5276259999955,628.7378122999799,629.5391704000067,629.5221152999438,629.5221469999524,629.5391704000067,629.5391704000067,629.5391704000067,,630.9920754999621,right,1.0,17.010380900115706,,,,,,,,,,,,,,,,,,,,,,,,,,,,,,,sub-005,1.0,random_dot,60.07027021968558,
right,right,accuracy,,,,,0.0,1.0,1.0,0.0,7.0,0.0,14.0,1.0,631.0043232999742,,,,,,,,,630.9936781999422,631.8044468999142,632.6062461999245,632.5884645999176,632.5885006999597,632.6062461999245,632.6062461999245,632.6062461999245,,634.9419984000269,left,0.0,17.89031090005301,,,,,,,,,,,,,,,,,,,,,,,,,,,,,,,sub-005,1.0,random_dot,60.07027021968558,
left,left,accuracy,,,,,0.0,1.0,1.0,0.0,7.0,1.0,15.0,0.0,634.9543885999592,,,,,,,,,634.9433479999425,635.7546543999342,636.5559208999621,636.5390276999678,636.5390782000031,636.5559208999621,636.5559208999621,636.5559208999621,,638.0417194999754,left,1.0,17.032962800120004,,,,,,,,,,,,,,,,,,,,,,,,,,,,,,,sub-005,1.0,random_dot,60.07027021968558,
left,left,accuracy,,,,,0.0,1.0,1.0,0.0,8.0,0.0,16.0,0.0,638.054333099979,,,,,,,,,638.0434026999865,639.2544024999952,640.0562425999669,640.0396957999328,640.0399450999685,640.0562425999669,640.0562425999669,640.0562425999669,,641.0069246999919,left,1.0,16.504220300004818,,,,,,,,,,,,,,,,,,,,,,,,,,,,,,,sub-005,1.0,random_dot,60.07027021968558,
right,right,accuracy,,,,,0.0,1.0,1.0,0.0,8.0,1.0,17.0,1.0,641.0212049999973,,,,,,,,,641.0075957999798,641.1211019000039,641.9225228999276,641.9052075999789,641.9052439000225,641.9225228999276,641.9225228999276,641.9225228999276,,646.0415677999845,right,1.0,19.673041800037023,,,,,,,,,,,,,,,,,,,,,,,,,,,,,,,sub-005,1.0,random_dot,60.07027021968558,
left,left,accuracy,,,,,0.0,1.0,1.0,0.0,9.0,0.0,18.0,0.0,646.0541655999841,,,,,,,,,646.0430537000066,646.4042653000215,647.2061129999347,647.1883799999487,647.1884119999595,647.2061129999347,647.2061129999347,647.2061129999347,,649.2583928999957,right,0.0,17.61293350008782,,,,,,,,,,,,,,,,,,,,,,,,,,,,,,,sub-005,1.0,random_dot,60.07027021968558,
right,right,accuracy,,,,,0.0,1.0,1.0,0.0,9.0,1.0,19.0,1.0,649.2711701999651,,,,,,,,,649.2595729000168,649.620905400021,650.4225360000273,650.4054721000139,650.4055136999814,650.4225360000273,650.4225360000273,650.4225360000273,,654.8247541999444,left,0.0,19.95620980008971,,,,,,,,,,,,,,,,,,,,,,,,,,,,,,,sub-005,1.0,random_dot,60.07027021968558,
right,right,accuracy,,,,,0.0,1.0,1.0,0.0,10.0,0.0,20.0,1.0,654.8375754000153,,,,,,,,,654.8263786999742,655.1878664999967,655.9889158000005,655.9711362000089,655.9711629999802,655.9889158000005,655.9889158000005,655.9889158000005,,660.5575946000172,right,1.0,20.116238300106488,,,,,,,,,,,,,,,,,,,,,,,,,,,,,,,sub-005,1.0,random_dot,60.07027021968558,
left,left,accuracy,,,,,0.0,1.0,1.0,0.0,10.0,1.0,21.0,0.0,660.5708749999758,,,,,,,,,660.5588091999525,661.7708804999711,662.5722900999244,662.5551653999137,662.5552004999481,662.5722900999244,662.5722900999244,662.5722900999244,,663.642024199944,left,1.0,16.616939300089143,,,,,,,,,,,,,,,,,,,,,,,,,,,,,,,sub-005,1.0,random_dot,60.07027021968558,
right,right,accuracy,,,,,0.0,1.0,1.0,0.0,11.0,0.0,22.0,1.0,663.6541150999255,,,,,,,,,663.6437145000091,664.8542346999748,665.655739699956,665.6389884999953,665.6390368000139,665.655739699956,665.655739699956,665.655739699956,,668.891140999971,right,1.0,18.78741490014363,,,,,,,,,,,,,,,,,,,,,,,,,,,,,,,sub-005,1.0,random_dot,60.07027021968558,
left,left,accuracy,,,,,0.0,1.0,1.0,0.0,11.0,1.0,23.0,0.0,668.9042943000095,,,,,,,,,668.8926473999163,669.7041265999433,670.5058783999411,670.4889265999664,670.4889775000047,670.5058783999411,670.5058783999411,670.5058783999411,,673.0078214999521,left,1.0,18.0545742000686,,,,,,,,,,,,,,,,,,,,,,,,,,,,,,,sub-005,1.0,random_dot,60.07027021968558,
left,left,accuracy,,,,,0.0,1.0,1.0,0.0,12.0,0.0,24.0,0.0,673.0208552000113,,,,,,,,,673.0093104999978,673.8208187000128,674.6226531999419,674.6057935999706,674.6058465000242,674.6226531999419,674.6226531999419,674.6226531999419,,676.62510569999,left,1.0,17.549246900016442,,,,,,,,,,,,,,,,,,,,,,,,,,,,,,,sub-005,1.0,random_dot,60.07027021968558,
right,right,accuracy,,,,,0.0,1.0,1.0,0.0,12.0,1.0,25.0,1.0,676.637372899917,,,,,,,,,676.6266123999376,676.7372943999944,677.539002400008,677.5226285000099,677.5226814999478,677.539002400008,677.539002400008,677.539002400008,,679.7081208999734,right,1.0,17.726535000023432,,,,,,,,,,,,,,,,,,,,,,,,,,,,,,,sub-005,1.0,random_dot,60.07027021968558,
left,left,accuracy,,,,,0.0,1.0,1.0,0.0,13.0,0.0,26.0,0.0,679.7206123999786,,,,,,,,,679.7095154999988,680.070534999948,680.8725828999886,680.8559593999526,680.8560103999916,680.8725828999886,680.8725828999886,680.8725828999886,,682.041281200014,left,1.0,16.72444650006946,,,,,,,,,,,,,,,,,,,,,,,,,,,,,,,sub-005,1.0,random_dot,60.07027021968558,
right,right,accuracy,,,,,0.0,1.0,1.0,0.0,13.0,1.0,27.0,1.0,682.0540110999718,,,,,,,,,682.0424135000212,682.8544514999958,683.6558575999225,683.6390559999272,683.6391056999564,683.6558575999225,683.6558575999225,683.6558575999225,,685.9083135999972,left,0.0,17.801773200160824,,,,,,,,,,,,,,,,,,,,,,,,,,,,,,,sub-005,1.0,random_dot,60.07027021968558,
right,right,accuracy,,,,,0.0,1.0,1.0,0.0,14.0,0.0,28.0,1.0,685.9208535000216,,,,,,,,,685.9100707999896,687.1207591999555,687.9221675000153,687.9057071999414,687.9057649999158,687.9221675000153,687.9221675000153,687.9221675000153,,689.4413844000082,left,0.0,17.06807330006268,,,,,,,,,,,,,,,,,,,,,,,,,,,,,,,sub-005,1.0,random_dot,60.07027021968558,
left,left,accuracy,,,,,0.0,1.0,1.0,0.0,14.0,1.0,29.0,0.0,689.4544272000203,,,,,,,,,689.4429449000163,690.6541804999579,691.4556775999954,691.4390071999514,691.4390556999715,691.4556775999954,691.4556775999954,691.4556775999954,,693.3249927000143,left,1.0,17.416382100083865,,,,,,,,,,,,,,,,,,,,,,,,,,,,,,,sub-005,1.0,random_dot,60.07027021968558,
left,left,accuracy,,,,,0.0,1.0,1.0,0.0,15.0,0.0,30.0,0.0,693.3372738999315,,,,,,,,,693.3265619999729,693.4374820999801,694.239048199961,694.2222519000061,694.2223012999166,694.239048199961,694.239048199961,694.239048199961,,696.4597201999277,left,1.0,17.781799199990928,,,,,,,,,,,,,,,,,,,,,,,,,,,,,,,sub-005,1.0,random_dot,60.07027021968558,
right,right,accuracy,,,,,0.0,1.0,1.0,0.0,15.0,1.0,31.0,1.0,696.4706751999911,,,,,,,,,696.461131399963,697.2706442999188,698.0723232999444,698.054929099977,698.0549745999742,698.0723232999444,698.0723232999444,698.0723232999444,,700.5910102999769,right,1.0,18.07352090009954,,,,,,,,,,,,,,,,,,,,,,,,,,,,,,,sub-005,1.0,random_dot,60.07027021968558,
right,right,accuracy,,,,,0.0,1.0,1.0,0.0,16.0,0.0,32.0,1.0,700.6038262000075,,,,,,,,,700.5922833000077,700.7040134000126,701.5056022999343,701.4878338999115,701.4878576999763,701.5056022999343,701.5056022999343,701.5056022999343,706.4890623999527,707.0907467999496,left,0.0,21.14270940003917,,,,,,,,,,,,,,,,,,,,,,,,,,,,,,,sub-005,1.0,random_dot,60.07027021968558,
left,left,accuracy,,,,,0.0,1.0,1.0,0.0,16.0,1.0,33.0,0.0,707.1037688999204,,,,,,,,,707.092033999972,707.2038725999882,708.0056466999231,707.9883152999682,707.9883635999868,708.0056466999231,708.0056466999231,708.0056466999231,712.9893140000058,713.5904768999899,right,0.0,21.140605400083587,,,,,,,,,,,,,,,,,,,,,,,,,,,,,,,sub-005,1.0,random_dot,60.07027021968558,
left,left,accuracy,,,,,0.0,1.0,1.0,0.0,17.0,0.0,34.0,0.0,713.6036830999656,,,,,,,,,713.5917260999558,713.7036552999634,714.5055360000115,714.4874541999307,714.4874758999795,714.5055360000115,714.5055360000115,714.5055360000115,,715.6079014999559,left,1.0,16.65771759999916,,,,,,,,,,,,,,,,,,,,,,,,,,,,,,,sub-005,1.0,random_dot,60.07027021968558,
right,right,accuracy,,,,,0.0,1.0,1.0,0.0,17.0,1.0,35.0,1.0,715.6201115999138,,,,,,,,,715.6093116999837,715.7202630999964,716.5218836999265,716.5047688999912,716.5048184000188,716.5218836999265,716.5218836999265,716.5218836999265,,717.6248992999317,right,1.0,16.66168630006723,,,,,,,,,,,,,,,,,,,,,,,,,,,,,,,sub-005,1.0,random_dot,60.07027021968558,
left,left,accuracy,,,,,0.0,1.0,1.0,0.0,18.0,0.0,36.0,0.0,717.6373611999443,,,,,,,,,717.6265606000088,718.8371590999886,719.6386166999582,719.6223331999499,719.6223945999518,719.6386166999582,719.6386166999582,719.6386166999582,,720.4412301999982,left,1.0,16.354605100117624,,,,,,,,,,,,,,,,,,,,,,,,,,,,,,,sub-005,1.0,random_dot,60.07027021968558,
right,right,accuracy,,,,,0.0,1.0,1.0,0.0,18.0,1.0,37.0,1.0,720.4535523999948,,,,,,,,,720.4429952999344,721.6537042999407,722.4551440000068,722.4387505999766,722.4388013000134,722.4551440000068,722.4551440000068,722.4551440000068,,725.2588552000234,left,0.0,18.36357340007089,,,,,,,,,,,,,,,,,,,,,,,,,,,,,,,sub-005,1.0,random_dot,60.07027021968558,
left,left,accuracy,,,,,0.0,1.0,1.0,0.0,19.0,0.0,38.0,0.0,725.2702786999289,,,,,,,,,725.2602463000221,725.6202989999438,726.4218414999777,726.4049560999265,726.4049990000203,726.4218414999777,726.4218414999777,726.4218414999777,,729.5734220999293,right,0.0,18.710809600073844,,,,,,,,,,,,,,,,,,,,,,,,,,,,,,,sub-005,1.0,random_dot,60.07027021968558,
right,right,accuracy,,,,,0.0,1.0,1.0,0.0,19.0,1.0,39.0,1.0,729.587034599972,,,,,,,,,729.574528099969,730.7868133999873,731.5882517999271,731.571313799941,731.5713868999155,731.5882517999271,731.5882517999271,731.5882517999271,,734.3072961999569,left,0.0,18.274437500163916,,,,,,,,,,,,,,,,,,,,,,,,,,,,,,,sub-005,1.0,random_dot,60.07027021968558,
right,right,accuracy,,,,,0.0,1.0,1.0,0.0,20.0,0.0,40.0,1.0,734.3200482999673,,,,,,,,,734.3087565000169,735.1202884999802,735.9217879999196,735.9048529999563,735.9049021999817,735.9217879999196,735.9217879999196,735.9217879999196,,737.3414662999567,left,0.0,16.973131900071166,,,,,,,,,,,,,,,,,,,,,,,,,,,,,,,sub-005,1.0,random_dot,60.07027021968558,
left,left,accuracy,,,,,0.0,1.0,1.0,0.0,20.0,1.0,41.0,0.0,737.3533389000222,,,,,,,,,737.3430807000259,738.1534284999361,738.9551534999628,738.9384277999634,738.93848110002,738.9551534999628,738.9551534999628,738.9551534999628,,740.0237131000031,left,1.0,16.62510090006981,,,,,,,,,,,,,,,,,,,,,,,,,,,,,,,sub-005,1.0,random_dot,60.07027021968558,
left,left,accuracy,,,,,0.0,1.0,1.0,0.0,21.0,0.0,42.0,0.0,740.0368818999268,,,,,,,,,740.0251002999721,740.386548899929,741.188546899939,741.1709562999895,741.1709907000186,741.188546899939,741.188546899939,741.188546899939,,742.8406192000257,right,0.0,17.213193300063722,,,,,,,,,,,,,,,,,,,,,,,,,,,,,,,sub-005,1.0,random_dot,60.07027021968558,
right,right,accuracy,,,,,0.0,1.0,1.0,0.0,21.0,1.0,43.0,1.0,742.8535623999778,,,,,,,,,742.8420502999797,743.2034550999524,744.0052873999812,743.9882120999973,743.9882690999657,744.0052873999812,744.0052873999812,744.0052873999812,,744.6234752999153,left,0.0,16.17135160008911,,,,,,,,,,,,,,,,,,,,,,,,,,,,,,,sub-005,1.0,random_dot,60.07027021968558,
left,left,accuracy,,,,,0.0,1.0,1.0,0.0,22.0,0.0,44.0,0.0,744.636602899991,,,,,,,,,744.6247194999596,744.9868031999795,745.7884754999541,745.7705378999235,745.7705688999267,745.7884754999541,745.7884754999541,745.7884754999541,,746.1575656000059,right,0.0,15.92346700001508,,,,,,,,,,,,,,,,,,,,,,,,,,,,,,,sub-005,1.0,random_dot,60.07027021968558,
right,right,accuracy,,,,,0.0,1.0,1.0,0.0,22.0,1.0,45.0,1.0,746.1699398999335,,,,,,,,,746.1593711000169,746.9701091999887,747.7719479999505,747.755404699943,747.7554585000034,747.7719479999505,747.7719479999505,747.7719479999505,,748.124241799931,left,0.0,15.904872200102544,,,,,,,,,,,,,,,,,,,,,,,,,,,,,,,sub-005,1.0,random_dot,60.07027021968558,
right,right,accuracy,,,,,0.0,1.0,1.0,0.0,23.0,0.0,46.0,1.0,748.1374341999181,,,,,,,,,748.125826500007,749.3366983999731,750.1383512999164,750.1213589999825,750.1214076000033,750.1383512999164,750.1383512999164,750.1383512999164,,750.4240128999809,right,1.0,15.83789810014423,,,,,,,,,,,,,,,,,,,,,,,,,,,,,,,sub-005,1.0,random_dot,60.07027021968558,
left,left,accuracy,,,,,0.0,1.0,1.0,0.0,23.0,1.0,47.0,0.0,750.4366150000133,,,,,,,,,750.4254014999606,750.7873449999606,751.5882416999666,751.5708333000075,751.5708732999628,751.5882416999666,751.5882416999666,751.5882416999666,,752.274122599978,left,1.0,16.232860899996012,,,,,,,,,,,,,,,,,,,,,,,,,,,,,,,sub-005,1.0,random_dot,60.07027021968558,
right,right,accuracy,,,,,0.0,1.0,1.0,0.0,24.0,0.0,48.0,1.0,752.2867663999787,,,,,,,,,752.27563249995,752.6367368999636,753.4387392000062,753.4208625999745,753.4208991000196,753.4387392000062,753.4387392000062,753.4387392000062,,754.291012099944,right,1.0,16.404840400093235,,,,,,,,,,,,,,,,,,,,,,,,,,,,,,,sub-005,1.0,random_dot,60.07027021968558,
left,left,accuracy,,,,,0.0,1.0,1.0,0.0,24.0,1.0,49.0,0.0,754.3032868999289,,,,,,,,,754.2926027999492,755.5035631000064,756.3051472000079,756.2879366999259,756.2879936000099,756.3051472000079,756.3051472000079,756.3051472000079,,756.9086694999132,left,1.0,16.160079100052826,,,,,,,,,,,,,,,,,,,,,,,,,,,,,,,sub-005,1.0,random_dot,60.07027021968558,
left,left,accuracy,,,,,0.0,1.0,1.0,0.0,25.0,0.0,50.0,0.0,756.9200356999645,,,,,,,,,756.9104544000002,757.2702071999665,758.0717727999436,758.054768199916,758.0548196999589,758.0717727999436,758.0717727999436,758.0717727999436,,759.8426278999541,right,0.0,17.329374100081623,,,,,,,,,,,,,,,,,,,,,,,,,,,,,,,sub-005,1.0,random_dot,60.07027021968558,
right,right,accuracy,,,,,0.0,1.0,1.0,0.0,25.0,1.0,51.0,1.0,759.8537064000266,,,,,,,,,759.8441209999146,761.0540163000114,761.8551352999639,761.8383205999853,761.8383621999528,761.8551352999639,761.8551352999639,761.8551352999639,,762.4747228999622,left,0.0,16.17519590014126,,,,,,,,,,,,,,,,,,,,,,,,,,,,,,,sub-005,1.0,random_dot,60.07027021968558,
right,right,accuracy,,,,,0.0,1.0,1.0,0.0,26.0,0.0,52.0,1.0,762.4869497999316,,,,,,,,,762.4762959999498,762.5871892999858,763.3887762000086,763.3708870999981,763.3709307999816,763.3887762000086,763.3887762000086,763.3887762000086,,764.4409269000171,right,1.0,16.610607900074683,,,,,,,,,,,,,,,,,,,,,,,,,,,,,,,sub-005,1.0,random_dot,60.07027021968558,
left,left,accuracy,,,,,0.0,1.0,1.0,0.0,26.0,1.0,53.0,0.0,764.4531871000072,,,,,,,,,764.4424153999425,765.2533710999414,766.0553017000202,766.0381141999969,766.0381512999302,766.0553017000202,766.0553017000202,766.0553017000202,,766.6574050999479,left,1.0,16.149419000023045,,,,,,,,,,,,,,,,,,,,,,,,,,,,,,,sub-005,1.0,random_dot,60.07027021968558,
right,right,accuracy,,,,,0.0,1.0,1.0,0.0,27.0,0.0,54.0,1.0,766.6697213000152,,,,,,,,,766.6590062999167,767.8697614999255,768.6714940000093,768.6545178999659,768.6545700000133,768.6714940000093,768.6714940000093,768.6714940000093,,769.2743289999198,right,1.0,16.154862700030208,,,,,,,,,,,,,,,,,,,,,,,,,,,,,,,sub-005,1.0,random_dot,60.07027021968558,
left,left,accuracy,,,,,0.0,1.0,1.0,0.0,27.0,1.0,55.0,0.0,769.2864376999205,,,,,,,,,769.2758565000258,770.0870774999494,770.8881762999808,770.8712331999559,770.8712882000254,770.8881762999808,770.8881762999808,770.8881762999808,,771.1077695999993,left,1.0,15.768390699988233,,,,,,,,,,,,,,,,,,,,,,,,,,,,,,,sub-005,1.0,random_dot,60.07027021968558,
right,right,accuracy,,,,,0.0,1.0,1.0,0.0,28.0,0.0,56.0,1.0,771.1198728999589,,,,,,,,,771.1091401999583,771.9199609999778,772.7215483000036,772.7043112999527,772.7043564999476,772.7215483000036,772.7215483000036,772.7215483000036,,773.2740911999717,right,1.0,16.103608500096016,,,,,,,,,,,,,,,,,,,,,,,,,,,,,,,sub-005,1.0,random_dot,60.07027021968558,
left,left,accuracy,,,,,0.0,1.0,1.0,0.0,28.0,1.0,57.0,0.0,773.2864200000186,,,,,,,,,773.2756474999478,774.0870320999529,774.8885012000101,774.8716885999311,774.8717426999938,774.8885012000101,774.8885012000101,774.8885012000101,,775.3574974000221,left,1.0,16.02693930012174,,,,,,,,,,,,,,,,,,,,,,,,,,,,,,,sub-005,1.0,random_dot,60.07027021968558,
left,left,accuracy,,,,,0.0,1.0,1.0,0.0,29.0,0.0,58.0,0.0,775.369782099966,,,,,,,,,775.3590677999891,776.1697691999143,776.9713307999773,776.9544057999738,776.9544618999353,776.9713307999773,776.9713307999773,776.9713307999773,,777.7742100999458,right,0.0,16.36163750011474,,,,,,,,,,,,,,,,,,,,,,,,,,,,,,,sub-005,1.0,random_dot,60.07027021968558,
right,right,accuracy,,,,,0.0,1.0,1.0,0.0,29.0,1.0,59.0,1.0,777.7865035999566,,,,,,,,,777.7758664999856,778.1368200000143,778.9380017999792,778.9209884000011,778.9210431999527,778.9380017999792,778.9380017999792,778.9380017999792,,779.8573787999339,right,1.0,16.471738600055687,,,,,,,,,,,,,,,,,,,,,,,,,,,,,,,sub-005,1.0,random_dot,60.07027021968558,
,,accuracy,,,,,0.0,1.0,1.0,0.0,,,,,,,,,,,,,,,,,,,,,,,,,,,,,,,,,,,,,,,,,,,,,,,,,,,,,,,,,sub-005,1.0,random_dot,60.07027021968558,
,,,,,,,,,,,,,,,,,,,,,,,,,,,,,,,,,,,,,,,,,,,,,,,,,,,,,,,,,,,,,,,779.8586441000225,779.8698278999655,784.8697594000259,784.854382099933,sub-005,,,,
