direction,corrAns,randomInstr,practice_trials.thisRepN,practice_trials.thisTrialN,practice_trials.thisN,practice_trials.thisIndex,instr_trials.thisRepN,instr_trials.thisTrialN,instr_trials.thisN,instr_trials.thisIndex,test_trials.thisRepN,test_trials.thisTrialN,test_trials.thisN,test_trials.thisIndex,thisRow.t,notes,general_instruction.started,textGeneralInstr.started,respGeneralInstr.started,general_instruction.stopped,respGeneralInstr.keys,respGeneralInstr.rt,respGeneralInstr.duration,ITI.started,fixcross.started,fixcross.stopped,ITI.stopped,dots.started,backgroundDots.started,stimulusDots.started,respDots.started,stimulusDots.stopped,dots.stopped,respDots.keys,respDots.corr,respDots.rt,respDots.duration,feedback.started,textFeedback.started,textFeedback.stopped,feedback.stopped,info.started,textInfo.started,keyRespInfo.started,info.stopped,keyRespInfo.keys,keyRespInfo.rt,keyRespInfo.duration,test_instruction.started,textTestInstr.started,respTestInstr.started,test_instruction.stopped,respTestInstr.keys,respTestInstr.rt,respTestInstr.duration,random_instruction.started,textRandomInstr.started,respRandomInstr.started,random_instruction.stopped,respRandomInstr.keys,respRandomInstr.rt,respRandomInstr.duration,goodbye.started,textGoodbye.started,goodbye.stopped,participant,session,expName,frameRate,Unnamed: 73
,,,,,,,,,,,,,,,,,0.0049557000165805,0.0117333999369293,0.0117333999369293,39.78631240001414,space,55.63372680009343,,,,,,,,,,,,,,,,,,,,,,,,,,,,,,,,,,,,,,,,,,,,sub-231,1.0,random_dot,60.08142236205671,
right,right,,0.0,0.0,0.0,1.0,,,,,,,,,39.81502749992069,,,,,,,,,39.81071829993744,40.99931510002352,41.79978809994645,41.78295249992516,41.78297930001281,41.79978809994645,41.79978809994645,41.79978809994645,46.79677180002909,63.0047312999377,right,1.0,37.072746400139295,,63.00643309997395,63.01982719998341,63.51891939993948,63.50313089997508,,,,,,,,,,,,,,,,,,,,,,,,,sub-231,1.0,random_dot,60.08142236205671,
left,left,,0.0,1.0,1.0,0.0,,,,,,,,,63.51891939993948,,,,,,,,,63.5038558000233,64.31867069995496,65.1189739999827,65.10272089997306,65.10276829998475,65.1189739999827,65.1189739999827,65.1189739999827,70.1158803999424,71.96767869999167,right,0.0,22.71670000010636,,71.96946279995609,71.98820369993336,,72.48021970002446,,,,,,,,,,,,,,,,,,,,,,,,,sub-231,1.0,random_dot,60.08142236205671,
left,left,,1.0,0.0,2.0,0.0,,,,,,,,,72.49672559997998,,,,,,,,,72.48077639995608,72.58005360001698,73.38045279996004,73.36414109996986,73.36418849998154,73.38045279996004,73.38045279996004,73.38045279996004,78.37740629992913,79.39570879994426,left,1.0,21.8850223000627,,79.39704049995635,79.40923330001533,79.90899819997139,79.89322239998728,,,,,,,,,,,,,,,,,,,,,,,,,sub-231,1.0,random_dot,60.08142236205671,
right,right,,1.0,1.0,3.0,1.0,,,,,,,,,79.90899819997139,,,,,,,,,79.89400869992096,81.10836019995622,81.90837139997166,81.89168959995732,81.89172369998414,81.90837139997166,81.90837139997166,81.90837139997166,86.90537519997451,88.50545249995776,right,1.0,22.46747800009325,,88.50604919996113,88.52017159992829,89.0198954999214,89.00433179992251,,,,,,,,,,,,,,,,,,,,,,,,,sub-231,1.0,random_dot,60.08142236205671,
left,left,,2.0,0.0,4.0,0.0,,,,,,,,,89.0198954999214,,,,,,,,,89.00509949994739,89.11994849995244,89.92022229998838,89.90433859999757,89.90439809998497,89.92022229998838,89.92022229998838,89.92022229998838,94.91712739993818,96.08551879995504,right,0.0,22.02761470002588,,96.087008100003,96.09891289996447,96.59876730001996,96.5834783000173,,,,,,,,,,,,,,,,,,,,,,,,,sub-231,1.0,random_dot,60.08142236205671,
right,right,,2.0,1.0,5.0,1.0,,,,,,,,,96.59876730001996,,,,,,,,,96.58450449991506,97.39810180000497,98.1985259000212,98.18215969996528,98.18219620001037,98.1985259000212,98.1985259000212,98.1985259000212,103.19520499999636,103.34663409995846,right,1.0,21.0122114000842,,103.347408899921,103.36109519994352,103.86074069992172,103.84508539992385,,,,,,,,,,,,,,,,,,,,,,,,,sub-231,1.0,random_dot,60.08142236205671,
left,left,,3.0,0.0,6.0,0.0,,,,,,,,,103.86074069992172,,,,,,,,,103.84586260002106,103.96096199995372,104.76113330002408,104.74457630002873,104.74461569997948,104.76113330002408,104.76113330002408,104.76113330002408,,107.47857399994972,left,1.0,18.583021000144072,,107.47998159995768,107.49204339995048,107.99170969997068,107.9763699999312,,,,,,,,,,,,,,,,,,,,,,,,,sub-231,1.0,random_dot,60.08142236205671,
right,right,,3.0,1.0,7.0,1.0,,,,,,,,,107.99170969997068,,,,,,,,,107.97739309992176,108.0917916999897,108.89188259991352,108.87550720002037,108.87554749997798,108.89188259991352,108.89188259991352,108.89188259991352,,110.57502589991782,left,0.0,17.552014000015333,,110.57552159996705,110.58999989996664,111.08971139998177,111.07446199993136,,,,,,,,,,,,,,,,,,,,,,,,,sub-231,1.0,random_dot,60.08142236205671,
left,left,,4.0,0.0,8.0,0.0,,,,,,,,,111.08971139998177,,,,,,,,,111.07538709999062,112.28906310000455,113.08929099992385,113.0723245999543,113.0723522999324,113.08929099992385,113.08929099992385,113.08929099992385,,118.05462199996693,left,1.0,20.834523000055924,,118.05573939997704,118.06869039998855,118.56833299994469,118.55235090001952,,,,,,,,,,,,,,,,,,,,,,,,,sub-231,1.0,random_dot,60.08142236205671,
right,right,,4.0,1.0,9.0,1.0,,,,,,,,,118.56833299994469,,,,,,,,,118.55277379998006,119.76769210002384,120.56801909999922,120.55109989992344,120.551121699973,120.56801909999922,120.56801909999922,120.56801909999922,,124.05218969995622,right,1.0,19.351513200090267,,124.05387930001598,124.06535759998953,124.56496089999564,124.54981410002802,,,,,,,,,,,,,,,,,,,,,,,,,sub-231,1.0,random_dot,60.08142236205671,
left,left,,5.0,0.0,10.0,0.0,,,,,,,,,124.56496089999564,,,,,,,,,124.55097250000108,125.36419879994357,126.16471119993366,126.14817139995284,126.14820769999642,126.16471119993366,126.16471119993366,126.16471119993366,,129.71394609997515,left,1.0,19.42325069999788,,129.7147081999574,129.72822639998049,130.2278741999762,130.21213909995276,,,,,,,,,,,,,,,,,,,,,,,,,sub-231,1.0,random_dot,60.08142236205671,
right,right,,5.0,1.0,11.0,1.0,,,,,,,,,130.2278741999762,,,,,,,,,130.21270419994835,130.577687199926,131.37823089992162,131.361441200017,131.36147509992588,131.37823089992162,131.37823089992162,131.37823089992162,136.3750607999973,136.59233180002775,right,1.0,21.088288200087845,,136.5928249999415,136.60727679997217,137.10709219996352,137.09130420000292,,,,,,,,,,,,,,,,,,,,,,,,,sub-231,1.0,random_dot,60.08142236205671,
left,left,,6.0,0.0,12.0,0.0,,,,,,,,,137.10709219996352,,,,,,,,,137.092021199991,137.20693869993556,138.00742299994454,137.9905908999499,137.9906229999615,138.00742299994454,138.00742299994454,138.00742299994454,,140.35781499999575,left,1.0,18.21647380013019,,140.35904809995554,140.37172569998074,140.87106599996332,140.85542789998,,,,,,,,,,,,,,,,,,,,,,,,,sub-231,1.0,random_dot,60.08142236205671,
right,right,,6.0,1.0,13.0,1.0,,,,,,,,,140.87106599996332,,,,,,,,,140.85608459997457,141.67117240000516,142.47147140000015,142.455578199937,142.45564970001578,142.47147140000015,142.47147140000015,142.47147140000015,,147.17164529999718,right,1.0,20.57317560014781,,147.17318539996631,147.18408769997768,147.68361870001536,147.6676993999863,,,,,,,,,,,,,,,,,,,,,,,,,sub-231,1.0,random_dot,60.08142236205671,
left,left,,7.0,0.0,14.0,0.0,,,,,,,,,147.68361870001536,,,,,,,,,147.66825579991564,148.48427229991648,149.30040129995905,149.2844942000229,149.28455320000648,149.30040129995905,149.30040129995905,149.30040129995905,,152.56687939993571,left,1.0,19.139041600050405,,152.56790519994684,152.58077190001495,153.0807463999372,153.06555439997464,,,,,,,,,,,,,,,,,,,,,,,,,sub-231,1.0,random_dot,60.08142236205671,
right,right,,7.0,1.0,15.0,1.0,,,,,,,,,153.0807463999372,,,,,,,,,153.06683539994992,153.88029779994395,154.68066039995756,154.6645413999213,154.66460209991783,154.68066039995756,154.68066039995756,154.68066039995756,159.67775449994951,160.361578800017,right,1.0,21.543853400158696,,160.3623960999539,160.3760887000244,160.87588599999435,160.86042729998007,,,,,,,,,,,,,,,,,,,,,,,,,sub-231,1.0,random_dot,60.08142236205671,
right,right,,8.0,0.0,16.0,1.0,,,,,,,,,160.87588599999435,,,,,,,,,160.861347500002,161.6752242000075,162.4756726999767,162.45884410000872,162.45887349999975,162.4756726999767,162.4756726999767,162.4756726999767,,166.02516119997017,right,1.0,19.421535000088625,,166.02609189995565,166.0393554000184,166.53896789997816,166.5233788000187,,,,,,,,,,,,,,,,,,,,,,,,,sub-231,1.0,random_dot,60.08142236205671,
left,left,,8.0,1.0,17.0,0.0,,,,,,,,,166.53896789997816,,,,,,,,,166.52422669995576,167.33853619999718,168.13885029999074,168.1220063000219,168.12203610001598,168.13885029999074,168.13885029999074,168.13885029999074,,171.4884845999768,left,1.0,19.214628700050525,,171.4895970999496,171.50259389996063,172.00201920000836,171.98616139998194,,,,,,,,,,,,,,,,,,,,,,,,,sub-231,1.0,random_dot,60.08142236205671,
left,left,,9.0,0.0,18.0,0.0,,,,,,,,,172.00201920000836,,,,,,,,,171.986699400004,172.35228979995009,173.15234289993532,173.13522629998624,173.13524199998938,173.15234289993532,173.15234289993532,173.15234289993532,,175.63563549995888,left,1.0,18.35660010005813,,175.6364141999511,175.6499683000147,176.149665899924,176.13381249993108,,,,,,,,,,,,,,,,,,,,,,,,,sub-231,1.0,random_dot,60.08142236205671,
right,right,,9.0,1.0,19.0,1.0,,,,,,,,,176.149665899924,,,,,,,,,176.1343999999808,177.34899740002584,178.1496715999674,178.133480999968,178.1335407999577,178.1496715999674,178.1496715999674,178.1496715999674,,182.36492149997505,right,1.0,20.081221000058576,,182.3657469999744,182.3792326999828,182.8791558999801,182.863491899916,,,,,,,,,,,,,,,,,,,,,,,,,sub-231,1.0,random_dot,60.08142236205671,
,,,,,,,,,,,,,,,,,,,,,,,,,,,,,,,,,,,,,,,,,,182.8636283000233,182.8791558999801,182.8791558999801,293.5783298999304,space,126.56498840008862,,,,,,,,,,,,,,,,,,,sub-231,1.0,random_dot,60.08142236205671,
,,,,,,,,,,,,,,,,,,,,,,,,,,,,,,,,,,,,,,,,,,,,,,,,,293.5783548000036,293.59452809998766,293.59452809998766,307.9365489999764,space,30.216405700077303,,,,,,,,,,,,sub-231,1.0,random_dot,60.08142236205671,
right,right,speed,,,,,0.0,0.0,0.0,1.0,0.0,0.0,0.0,1.0,312.1826514999848,,,,,,,,,312.1779638999142,312.2825456999708,313.08292139996774,313.0661548000062,313.0661816999782,313.08292139996774,313.08292139996774,313.08292139996774,,314.9993008999154,right,1.0,17.787486700108275,,,,,,,,,,,,,,,,,,,,307.9405831999611,307.95893329998944,307.95893329998944,312.1675555999391,space,20.07677100005094,,,,,sub-231,1.0,random_dot,60.08142236205671,
left,left,speed,,,,,0.0,0.0,0.0,1.0,0.0,1.0,1.0,0.0,315.0142969000153,,,,,,,,,315.0003148999531,315.81372749991715,316.614132000017,316.59703179995995,316.597051299992,316.614132000017,316.614132000017,316.614132000017,,318.5642232999671,left,1.0,17.825498800142668,,,,,,,,,,,,,,,,,,,,,,,,,,,,,,sub-231,1.0,random_dot,60.08142236205671,
right,right,speed,,,,,0.0,0.0,0.0,1.0,1.0,0.0,2.0,1.0,318.5786750999978,,,,,,,,,318.5649989999365,318.92853369994555,319.72896689991467,319.7122678000014,319.71230369992554,319.72896689991467,319.72896689991467,319.72896689991467,,321.145563099999,right,1.0,17.287376600084826,,,,,,,,,,,,,,,,,,,,,,,,,,,,,,sub-231,1.0,random_dot,60.08142236205671,
left,left,speed,,,,,0.0,0.0,0.0,1.0,1.0,1.0,3.0,0.0,321.1604185999604,,,,,,,,,321.1465952999424,322.3598687999184,323.16014449996874,323.1431118999608,323.14313400001265,323.16014449996874,323.16014449996874,323.16014449996874,,326.0925470999209,right,0.0,18.80646710004657,,,,,,,,,,,,,,,,,,,,,,,,,,,,,,sub-231,1.0,random_dot,60.08142236205671,
right,right,speed,,,,,0.0,0.0,0.0,1.0,2.0,0.0,4.0,1.0,326.1072877999395,,,,,,,,,326.0935699000256,326.2074540000176,327.0076678999467,326.9909058000194,326.9909307999769,327.0076678999467,327.0076678999467,327.0076678999467,,330.1740195999155,right,1.0,19.034507400006987,,,,,,,,,,,,,,,,,,,,,,,,,,,,,,sub-231,1.0,random_dot,60.08142236205671,
left,left,speed,,,,,0.0,0.0,0.0,1.0,2.0,1.0,5.0,0.0,330.1882603999693,,,,,,,,,330.1755997999571,330.98764459998347,331.78821899998,331.7712986000115,331.77132379997056,331.78821899998,331.78821899998,331.78821899998,,333.62132149992976,left,1.0,17.69961910007987,,,,,,,,,,,,,,,,,,,,,,,,,,,,,,sub-231,1.0,random_dot,60.08142236205671,
left,left,speed,,,,,0.0,0.0,0.0,1.0,3.0,0.0,6.0,0.0,333.63604589994065,,,,,,,,,333.6223411000101,334.83535730000585,335.63579500000924,335.6187821999192,335.618796799914,335.63579500000924,335.63579500000924,335.63579500000924,,336.8527128000278,left,1.0,17.087501500034705,,,,,,,,,,,,,,,,,,,,,,,,,,,,,,sub-231,1.0,random_dot,60.08142236205671,
right,right,speed,,,,,0.0,0.0,0.0,1.0,3.0,1.0,7.0,1.0,336.87045719998423,,,,,,,,,336.8538651999552,338.0666472999146,338.86717500002123,338.8503590999171,338.8503839999903,338.86717500002123,338.86717500002123,338.86717500002123,,340.1173553999979,left,0.0,17.115435800049454,,,,,,,,,,,,,,,,,,,,,,,,,,,,,,sub-231,1.0,random_dot,60.08142236205671,
left,left,speed,,,,,0.0,0.0,0.0,1.0,4.0,0.0,8.0,0.0,340.1320741999661,,,,,,,,,340.1185113999527,341.33137519995216,342.1318210000172,342.11493699997663,342.1149621999357,342.1318210000172,342.1318210000172,342.1318210000172,,343.7483140999684,left,1.0,17.490861600032076,,,,,,,,,,,,,,,,,,,,,,,,,,,,,,sub-231,1.0,random_dot,60.08142236205671,
right,right,speed,,,,,0.0,0.0,0.0,1.0,4.0,1.0,9.0,1.0,343.763262399938,,,,,,,,,343.74893669993617,344.56282460002694,345.3630216999445,345.3459315999644,345.3459454999538,345.3630216999445,345.3630216999445,345.3630216999445,,346.9631510999752,left,0.0,17.464386300067417,,,,,,,,,,,,,,,,,,,,,,,,,,,,,,sub-231,1.0,random_dot,60.08142236205671,
right,right,speed,,,,,0.0,0.0,0.0,1.0,5.0,0.0,10.0,1.0,346.9779321999522,,,,,,,,,346.96425740001723,348.1772318999283,348.9775054999627,348.9606119999662,348.960637299926,348.9775054999627,348.9775054999627,348.9775054999627,,351.16060579998884,left,0.0,18.051465300144628,,,,,,,,,,,,,,,,,,,,,,,,,,,,,,sub-231,1.0,random_dot,60.08142236205671,
left,left,speed,,,,,0.0,0.0,0.0,1.0,5.0,1.0,11.0,0.0,351.1752789999591,,,,,,,,,351.1617592999246,351.2752963999519,352.0756658000173,352.05886939994525,352.0588947000215,352.0756658000173,352.0756658000173,352.0756658000173,,354.50869559997227,left,1.0,18.29340800002683,,,,,,,,,,,,,,,,,,,,,,,,,,,,,,sub-231,1.0,random_dot,60.08142236205671,
right,right,speed,,,,,0.0,0.0,0.0,1.0,6.0,0.0,12.0,1.0,354.52321100002155,,,,,,,,,354.5100311000133,354.8730280000018,355.6734969000099,355.6566851999378,355.65671070001554,355.6734969000099,355.6734969000099,355.6734969000099,,357.4230589999352,right,1.0,17.60982450004667,,,,,,,,,,,,,,,,,,,,,,,,,,,,,,sub-231,1.0,random_dot,60.08142236205671,
left,left,speed,,,,,0.0,0.0,0.0,1.0,6.0,1.0,13.0,0.0,357.43820259999484,,,,,,,,,357.4237691999879,358.63746170001104,359.4378657999914,359.420929600019,359.42095539998263,359.4378657999914,359.4378657999914,359.4378657999914,,361.25439329992514,left,1.0,17.689078800030984,,,,,,,,,,,,,,,,,,,,,,,,,,,,,,sub-231,1.0,random_dot,60.08142236205671,
left,left,speed,,,,,0.0,0.0,0.0,1.0,7.0,0.0,14.0,0.0,361.2691281000152,,,,,,,,,361.2555465999758,361.6189784000162,362.41918359999545,362.4025385000277,362.4025637999876,362.41918359999545,362.41918359999545,362.41918359999545,,364.5520663999487,left,1.0,17.993012300110422,,,,,,,,,,,,,,,,,,,,,,,,,,,,,,sub-231,1.0,random_dot,60.08142236205671,
right,right,speed,,,,,0.0,0.0,0.0,1.0,7.0,1.0,15.0,1.0,364.5669714999385,,,,,,,,,364.5529362999369,364.6672141000163,365.4674012999749,365.4504074000288,365.45042939996347,365.4674012999749,365.4674012999749,365.4674012999749,,367.2172173999716,right,1.0,17.614422900020145,,,,,,,,,,,,,,,,,,,,,,,,,,,,,,sub-231,1.0,random_dot,60.08142236205671,
right,right,speed,,,,,0.0,0.0,0.0,1.0,8.0,0.0,16.0,1.0,367.232135899947,,,,,,,,,367.21782749996055,367.3320914999349,368.1324566999683,368.11555460002273,368.1155799999833,368.1324566999683,368.1324566999683,368.1324566999683,,370.9504362000153,right,1.0,18.684638400096446,,,,,,,,,,,,,,,,,,,,,,,,,,,,,,sub-231,1.0,random_dot,60.08142236205671,
left,left,speed,,,,,0.0,0.0,0.0,1.0,8.0,1.0,17.0,0.0,370.963169900002,,,,,,,,,370.95123479992617,371.7627434999449,372.56329830002505,372.54647409997415,372.5465106000193,372.56329830002505,372.56329830002505,372.56329830002505,,374.69605699996464,left,1.0,18.00328860001173,,,,,,,,,,,,,,,,,,,,,,,,,,,,,,sub-231,1.0,random_dot,60.08142236205671,
left,left,speed,,,,,0.0,0.0,0.0,1.0,9.0,0.0,18.0,0.0,374.7108550999546,,,,,,,,,374.6970878000138,374.8108383999206,375.6112627999392,375.5941965000238,375.5942184999585,375.6112627999392,375.6112627999392,375.6112627999392,,377.91094700002577,left,1.0,18.1722723999992,,,,,,,,,,,,,,,,,,,,,,,,,,,,,,sub-231,1.0,random_dot,60.08142236205671,
right,right,speed,,,,,0.0,0.0,0.0,1.0,9.0,1.0,19.0,1.0,377.9254722999176,,,,,,,,,377.9123134999536,378.275303900009,379.0757037999574,379.05896699998993,379.0589920999482,379.0757037999574,379.0757037999574,379.0757037999574,,381.0252351999516,right,1.0,17.822064100182615,,,,,,,,,,,,,,,,,,,,,,,,,,,,,,sub-231,1.0,random_dot,60.08142236205671,
right,right,speed,,,,,0.0,0.0,0.0,1.0,10.0,0.0,20.0,1.0,381.0402932999423,,,,,,,,,381.0258984999964,381.8398162999656,382.64019199996255,382.6233384999214,382.62336809991393,382.64019199996255,382.64019199996255,382.64019199996255,,385.3728604000062,left,0.0,18.600385300116614,,,,,,,,,,,,,,,,,,,,,,,,,,,,,,sub-231,1.0,random_dot,60.08142236205671,
left,left,speed,,,,,0.0,0.0,0.0,1.0,10.0,1.0,21.0,0.0,385.3875869999174,,,,,,,,,385.37389789999,386.5869653000264,387.3873551000143,387.37008609995246,387.37009849993046,387.3873551000143,387.3873551000143,387.3873551000143,,389.5200860999757,left,1.0,17.994583600084297,,,,,,,,,,,,,,,,,,,,,,,,,,,,,,sub-231,1.0,random_dot,60.08142236205671,
right,right,speed,,,,,0.0,0.0,0.0,1.0,11.0,0.0,22.0,1.0,389.5349083999172,,,,,,,,,389.52073699992616,389.8846332000103,390.6850296999328,390.6680460999487,390.6680581999244,390.6850296999328,390.6850296999328,390.6850296999328,,393.0521547999233,right,1.0,18.24037510005292,,,,,,,,,,,,,,,,,,,,,,,,,,,,,,sub-231,1.0,random_dot,60.08142236205671,
left,left,speed,,,,,0.0,0.0,0.0,1.0,11.0,1.0,23.0,0.0,393.0662514999276,,,,,,,,,393.0540835999418,394.2654503999511,395.0659950999543,395.0492312000133,395.0492604000028,395.0659950999543,395.0659950999543,395.0659950999543,,399.8141196999932,left,1.0,20.61174230009783,,,,,,,,,,,,,,,,,,,,,,,,,,,,,,sub-231,1.0,random_dot,60.08142236205671,
left,left,speed,,,,,0.0,0.0,0.0,1.0,12.0,0.0,24.0,0.0,399.8287355999928,,,,,,,,,399.8154724999331,399.92865319992416,400.7290992999915,400.7121929000132,400.712218199973,400.7290992999915,400.7290992999915,400.7290992999915,,404.5943235999439,left,1.0,19.726013100123964,,,,,,,,,,,,,,,,,,,,,,,,,,,,,,sub-231,1.0,random_dot,60.08142236205671,
right,right,speed,,,,,0.0,0.0,0.0,1.0,12.0,1.0,25.0,1.0,404.6090705000097,,,,,,,,,404.5952461999841,404.9590546999825,405.759358100011,405.74237879994325,405.7424041000195,405.759358100011,405.759358100011,405.759358100011,,410.008155999938,right,1.0,20.12242150004022,,,,,,,,,,,,,,,,,,,,,,,,,,,,,,sub-231,1.0,random_dot,60.08142236205671,
right,right,speed,,,,,0.0,0.0,0.0,1.0,13.0,0.0,26.0,1.0,410.02250490000006,,,,,,,,,410.0097717000172,410.12245809996966,410.922814099933,410.9059283999959,410.9059534999542,410.922814099933,410.922814099933,410.922814099933,,412.7886716999346,left,0.0,17.72766380000394,,,,,,,,,,,,,,,,,,,,,,,,,,,,,,sub-231,1.0,random_dot,60.08142236205671,
left,left,speed,,,,,0.0,0.0,0.0,1.0,13.0,1.0,27.0,0.0,412.80411059991457,,,,,,,,,412.78928899997845,412.90417849994265,413.7044417000143,413.6875278999796,413.6875496000284,413.7044417000143,413.7044417000143,413.7044417000143,,417.4362528999336,right,0.0,19.599825800047256,,,,,,,,,,,,,,,,,,,,,,,,,,,,,,sub-231,1.0,random_dot,60.08142236205671,
right,right,speed,,,,,0.0,0.0,0.0,1.0,14.0,0.0,28.0,1.0,417.4511869000271,,,,,,,,,417.43688459997065,418.2508244999917,419.0510832000291,419.034042699961,419.0340548999375,419.0510832000291,419.0510832000291,419.0510832000291,,421.9503681999631,right,1.0,18.772493100026622,,,,,,,,,,,,,,,,,,,,,,,,,,,,,,sub-231,1.0,random_dot,60.08142236205671,
left,left,speed,,,,,0.0,0.0,0.0,1.0,14.0,1.0,29.0,0.0,421.9650953999953,,,,,,,,,421.95140479994006,422.7644609999843,423.5650279999245,423.54828160000034,423.5483118999982,423.5650279999245,423.5650279999245,423.5650279999245,,425.4979040999897,left,1.0,17.80818720010575,,,,,,,,,,,,,,,,,,,,,,,,,,,,,,sub-231,1.0,random_dot,60.08142236205671,
right,right,speed,,,,,0.0,0.0,0.0,1.0,15.0,0.0,30.0,1.0,425.5130199999549,,,,,,,,,425.4985277999658,426.3125137999887,427.1128654999193,427.09594069991726,427.09596589999273,427.1128654999193,427.1128654999193,427.1128654999193,,429.44568779994734,right,1.0,18.207798600080423,,,,,,,,,,,,,,,,,,,,,,,,,,,,,,sub-231,1.0,random_dot,60.08142236205671,
left,left,speed,,,,,0.0,0.0,0.0,1.0,15.0,1.0,31.0,0.0,429.460496100015,,,,,,,,,429.4467073000269,430.6598474999191,431.46026929991785,431.4428935999749,431.4429060999537,431.46026929991785,431.46026929991785,431.46026929991785,,433.92656759999227,left,1.0,18.33569630002603,,,,,,,,,,,,,,,,,,,,,,,,,,,,,,sub-231,1.0,random_dot,60.08142236205671,
left,left,speed,,,,,0.0,0.0,0.0,1.0,16.0,0.0,32.0,0.0,433.9410853999434,,,,,,,,,433.9279215999413,435.140362599981,435.9408186000073,435.9238780000014,435.9239031999605,435.9408186000073,435.9408186000073,435.9408186000073,,439.9395855999319,left,1.0,19.862332300050184,,,,,,,,,,,,,,,,,,,,,,,,,,,,,,sub-231,1.0,random_dot,60.08142236205671,
right,right,speed,,,,,0.0,0.0,0.0,1.0,16.0,1.0,33.0,1.0,439.9540515999543,,,,,,,,,439.9410882999655,440.0539965999778,440.85441839997657,440.8383376999991,440.8384579999838,440.85441839997657,440.85441839997657,440.85441839997657,,442.72100519994274,right,1.0,17.741621900117025,,,,,,,,,,,,,,,,,,,,,,,,,,,,,,sub-231,1.0,random_dot,60.08142236205671,
left,left,speed,,,,,0.0,0.0,0.0,1.0,17.0,0.0,34.0,0.0,442.73557899997104,,,,,,,,,442.72215549997054,443.0856148999883,443.88586009992287,443.8691483000293,443.8691739999922,443.88586009992287,443.88586009992287,443.88586009992287,,444.8196522999788,left,1.0,16.794944600085728,,,,,,,,,,,,,,,,,,,,,,,,,,,,,,sub-231,1.0,random_dot,60.08142236205671,
right,right,speed,,,,,0.0,0.0,0.0,1.0,17.0,1.0,35.0,1.0,444.8343394999392,,,,,,,,,444.8206728999503,444.93415579991415,445.73467679996975,445.71775770001113,445.7177771999268,445.73467679996975,445.73467679996975,445.73467679996975,,446.7850858999882,right,1.0,16.91919779998716,,,,,,,,,,,,,,,,,,,,,,,,,,,,,,sub-231,1.0,random_dot,60.08142236205671,
left,left,speed,,,,,0.0,0.0,0.0,1.0,18.0,0.0,36.0,0.0,446.7999477999984,,,,,,,,,446.7862308999757,447.9990855000215,448.799663499929,448.7826635999372,448.7826884000097,448.799663499929,448.799663499929,448.799663499929,,450.03334500000346,left,1.0,17.10696000000462,,,,,,,,,,,,,,,,,,,,,,,,,,,,,,sub-231,1.0,random_dot,60.08142236205671,
right,right,speed,,,,,0.0,0.0,0.0,1.0,18.0,1.0,37.0,1.0,450.04773380002007,,,,,,,,,450.03467179997824,450.14782109996304,450.9481989999768,450.9313911999343,450.9314166000113,450.9481989999768,450.9481989999768,450.9481989999768,,452.5807215999812,right,1.0,17.499557600123808,,,,,,,,,,,,,,,,,,,,,,,,,,,,,,sub-231,1.0,random_dot,60.08142236205671,
left,left,speed,,,,,0.0,0.0,0.0,1.0,19.0,0.0,38.0,0.0,452.5959420999279,,,,,,,,,452.5813572999323,452.9461357999826,453.7464803999756,453.7295690999599,453.72959459992126,453.7464803999756,453.7464803999756,453.7464803999756,,454.7971226000227,left,1.0,16.918217500089668,,,,,,,,,,,,,,,,,,,,,,,,,,,,,,sub-231,1.0,random_dot,60.08142236205671,
right,right,speed,,,,,0.0,0.0,0.0,1.0,19.0,1.0,39.0,1.0,454.8115716999164,,,,,,,,,454.7985984999687,455.16137340001296,455.9618905999232,455.94486349995714,455.9448862000136,455.9618905999232,455.9618905999232,455.9618905999232,,457.6287240999518,left,0.0,17.5313098001061,,,,,,,,,,,,,,,,,,,,,,,,,,,,,,sub-231,1.0,random_dot,60.08142236205671,
right,right,speed,,,,,0.0,0.0,0.0,1.0,20.0,0.0,40.0,1.0,457.643092299928,,,,,,,,,457.630050299922,457.74314909998793,458.5434518000111,458.5267131000292,458.5267382999882,458.5434518000111,458.5434518000111,458.5434518000111,,460.4102935999399,left,0.0,17.73235710011795,,,,,,,,,,,,,,,,,,,,,,,,,,,,,,sub-231,1.0,random_dot,60.08142236205671,
left,left,speed,,,,,0.0,0.0,0.0,1.0,20.0,1.0,41.0,0.0,460.42475859995466,,,,,,,,,460.41162109992,460.52477959997486,461.3250968999928,461.308131699916,461.3081476999214,461.3250968999928,461.3250968999928,461.3250968999928,,463.5249680000125,right,0.0,18.06556870008353,,,,,,,,,,,,,,,,,,,,,,,,,,,,,,sub-231,1.0,random_dot,60.08142236205671,
left,left,speed,,,,,0.0,0.0,0.0,1.0,21.0,0.0,42.0,0.0,463.5395134999417,,,,,,,,,463.5261996999616,463.6396283999784,464.43998409993947,464.4231259999797,464.42315579997376,464.43998409993947,464.43998409993947,464.43998409993947,,466.839862999972,left,1.0,18.275159900076687,,,,,,,,,,,,,,,,,,,,,,,,,,,,,,sub-231,1.0,random_dot,60.08142236205671,
right,right,speed,,,,,0.0,0.0,0.0,1.0,21.0,1.0,43.0,1.0,466.85412039991934,,,,,,,,,466.8406951000216,468.0535571000073,468.853788599954,468.8368963999674,468.8369179000146,468.853788599954,468.853788599954,468.853788599954,,472.1530373999849,right,1.0,19.168705300078727,,,,,,,,,,,,,,,,,,,,,,,,,,,,,,sub-231,1.0,random_dot,60.08142236205671,
right,right,speed,,,,,0.0,0.0,0.0,1.0,22.0,0.0,44.0,1.0,472.1675075999228,,,,,,,,,472.15420769993216,473.3670283999527,474.1673154999735,474.1505385999335,474.1505683999276,474.1673154999735,474.1673154999735,474.1673154999735,,478.5498166999314,left,0.0,20.256571700097997,,,,,,,,,,,,,,,,,,,,,,,,,,,,,,sub-231,1.0,random_dot,60.08142236205671,
left,left,speed,,,,,0.0,0.0,0.0,1.0,22.0,1.0,45.0,0.0,478.5637427999173,,,,,,,,,478.5517678000033,479.3632214999525,480.16366630000994,480.1461304000113,480.14614169998094,480.16366630000994,480.16366630000994,480.16366630000994,,483.0960439000046,left,1.0,18.792836100095883,,,,,,,,,,,,,,,,,,,,,,,,,,,,,,sub-231,1.0,random_dot,60.08142236205671,
left,left,speed,,,,,0.0,0.0,0.0,1.0,23.0,0.0,46.0,0.0,483.1108317999169,,,,,,,,,483.097088099923,483.4607655999717,484.26113130000886,484.2443973999471,484.24442659993656,484.26113130000886,484.26113130000886,484.26113130000886,,486.7603272999404,left,1.0,18.364961000042967,,,,,,,,,,,,,,,,,,,,,,,,,,,,,,sub-231,1.0,random_dot,60.08142236205671,
right,right,speed,,,,,0.0,0.0,0.0,1.0,23.0,1.0,47.0,1.0,486.7751920999726,,,,,,,,,486.76136000000406,487.5747917999979,488.3751883999212,488.358302299981,488.3583278999431,488.3751883999212,488.3751883999212,488.3751883999212,,490.2250716999406,right,1.0,17.716487600002438,,,,,,,,,,,,,,,,,,,,,,,,,,,,,,sub-231,1.0,random_dot,60.08142236205671,
right,right,speed,,,,,0.0,0.0,0.0,1.0,24.0,0.0,48.0,1.0,490.2397825999651,,,,,,,,,490.2262428000104,490.3397633000277,491.140116799972,491.12329219991807,491.12331789999735,491.140116799972,491.140116799972,491.140116799972,,493.1402577999979,right,1.0,17.873539100051858,,,,,,,,,,,,,,,,,,,,,,,,,,,,,,sub-231,1.0,random_dot,60.08142236205671,
left,left,speed,,,,,0.0,0.0,0.0,1.0,24.0,1.0,49.0,0.0,493.15457409992814,,,,,,,,,493.1415822999552,493.2545727000106,494.054974699975,494.0381548999576,494.038180799922,494.054974699975,494.054974699975,494.054974699975,499.0518889999949,499.26940899994224,left,1.0,21.08260490011889,,,,,,,,,,,,,,,,,,,,,,,,,,,,,,sub-231,1.0,random_dot,60.08142236205671,
right,right,speed,,,,,0.0,0.0,0.0,1.0,25.0,0.0,50.0,1.0,499.2842420999659,,,,,,,,,499.27057139994577,500.0838575999951,500.8841716999887,500.8671039999463,500.8671155999182,500.8841716999887,500.8841716999887,500.8841716999887,,503.93269429996144,right,1.0,18.914223800064065,,,,,,,,,,,,,,,,,,,,,,,,,,,,,,sub-231,1.0,random_dot,60.08142236205671,
left,left,speed,,,,,0.0,0.0,0.0,1.0,25.0,1.0,51.0,0.0,503.9481499999529,,,,,,,,,503.9333277000114,504.0481111999834,504.84841520001646,504.8313566999277,504.8313711999217,504.84841520001646,504.84841520001646,504.84841520001646,,506.86507820000406,left,1.0,17.891556399990804,,,,,,,,,,,,,,,,,,,,,,,,,,,,,,sub-231,1.0,random_dot,60.08142236205671,
left,left,speed,,,,,0.0,0.0,0.0,1.0,26.0,0.0,52.0,0.0,506.87945200002287,,,,,,,,,506.8662438999163,508.0786219999427,508.8792730999412,508.8621782999253,508.8621928999201,508.8792730999412,508.8792730999412,508.8792730999412,,512.4446762999287,left,1.0,19.430132800131105,,,,,,,,,,,,,,,,,,,,,,,,,,,,,,sub-231,1.0,random_dot,60.08142236205671,
right,right,speed,,,,,0.0,0.0,0.0,1.0,26.0,1.0,53.0,1.0,512.4594380999915,,,,,,,,,512.4458722999552,513.658832599991,514.4591614999808,514.4423288999824,514.442358899978,514.4591614999808,514.4591614999808,514.4591614999808,,517.1250474000117,right,1.0,18.52854970016051,,,,,,,,,,,,,,,,,,,,,,,,,,,,,,sub-231,1.0,random_dot,60.08142236205671,
right,right,speed,,,,,0.0,0.0,0.0,1.0,27.0,0.0,54.0,1.0,517.1399385000113,,,,,,,,,517.1260873000138,517.2399581000209,518.0402559000067,518.0231237999396,518.0231395999435,518.0402559000067,518.0402559000067,518.0402559000067,,522.7384589000139,right,1.0,20.565957200014964,,,,,,,,,,,,,,,,,,,,,,,,,,,,,,sub-231,1.0,random_dot,60.08142236205671,
left,left,speed,,,,,0.0,0.0,0.0,1.0,27.0,1.0,55.0,0.0,522.7531849999214,,,,,,,,,522.7396464999765,523.1028989999322,523.9033324000193,523.8863816999365,523.8864040999906,523.9033324000193,523.9033324000193,523.9033324000193,,527.235534699983,left,1.0,19.19359100004658,,,,,,,,,,,,,,,,,,,,,,,,,,,,,,sub-231,1.0,random_dot,60.08142236205671,
left,left,speed,,,,,0.0,0.0,0.0,1.0,28.0,0.0,56.0,0.0,527.2503387000179,,,,,,,,,527.2365640000207,527.3503360999748,528.150676399935,528.1338321999647,528.133854100015,528.150676399935,528.150676399935,528.150676399935,,531.5497214000206,left,1.0,19.266628900077198,,,,,,,,,,,,,,,,,,,,,,,,,,,,,,sub-231,1.0,random_dot,60.08142236205671,
right,right,speed,,,,,0.0,0.0,0.0,1.0,28.0,1.0,57.0,1.0,531.5643753999611,,,,,,,,,531.5509905000217,532.3639602999901,533.1672636999283,533.1473185999785,533.1473403000273,533.1672636999283,533.1672636999283,533.1672636999283,,535.7804414000129,right,1.0,18.48644960008096,,,,,,,,,,,,,,,,,,,,,,,,,,,,,,sub-231,1.0,random_dot,60.08142236205671,
left,left,speed,,,,,0.0,0.0,0.0,1.0,29.0,0.0,58.0,0.0,535.7951348000206,,,,,,,,,535.7814719999442,535.8983544999501,536.7121208999306,536.695134999929,536.6951546999626,536.7121208999306,536.7121208999306,536.7121208999306,,539.727895500022,right,0.0,18.877949400106445,,,,,,,,,,,,,,,,,,,,,,,,,,,,,,sub-231,1.0,random_dot,60.08142236205671,
right,right,speed,,,,,0.0,0.0,0.0,1.0,29.0,1.0,59.0,1.0,539.7426618000027,,,,,,,,,539.7289275999647,540.5422538999701,541.3458107999759,541.32568359992,541.3257030999521,541.3458107999759,541.3458107999759,541.3458107999759,,544.1415924999164,right,1.0,18.655411900021136,,,,,,,,,,,,,,,,,,,,,,,,,,,,,,sub-231,1.0,random_dot,60.08142236205671,
,,speed,,,,,0.0,0.0,0.0,1.0,,,,,,,,,,,,,,,,,,,,,,,,,,,,,,,,,,,,,,,,,,,,,,,,,,,,,,,,sub-231,1.0,random_dot,60.08142236205671,
right,right,accuracy,,,,,0.0,1.0,1.0,0.0,0.0,0.0,0.0,1.0,558.1646183999255,,,,,,,,,558.1600226999726,559.3641472000163,560.1643013999565,560.1474701999687,560.1474976999452,560.1643013999565,560.1643013999565,560.1643013999565,565.1612682000268,567.1273554000072,right,1.0,22.831270400085486,,,,,,,,,,,,,,,,,,,,544.1424635000294,544.1566777999979,544.1566777999979,558.1491486999439,space,29.856867299997248,,,,,sub-231,1.0,random_dot,60.08142236205671,
left,left,accuracy,,,,,0.0,1.0,1.0,0.0,0.0,1.0,1.0,0.0,567.142473999993,,,,,,,,,567.1281521000201,567.4925039999653,568.2926810999634,568.2759272999829,568.2759519999381,568.2926810999634,568.2926810999634,568.2926810999634,,570.2253957999637,left,1.0,17.803815900115296,,,,,,,,,,,,,,,,,,,,,,,,,,,,,,sub-231,1.0,random_dot,60.08142236205671,
left,left,accuracy,,,,,0.0,1.0,1.0,0.0,1.0,0.0,2.0,0.0,570.2405566999223,,,,,,,,,570.2260199999437,571.0401815000223,571.8405155999353,571.823676400003,571.8237020999659,571.8405155999353,571.8405155999353,571.8405155999353,,574.8728369999444,left,1.0,18.90001880016644,,,,,,,,,,,,,,,,,,,,,,,,,,,,,,sub-231,1.0,random_dot,60.08142236205671,
right,right,accuracy,,,,,0.0,1.0,1.0,0.0,1.0,1.0,3.0,1.0,574.8876718999818,,,,,,,,,574.8738717000233,574.9877147999359,575.7880331999622,575.7712338999845,575.7712604999542,575.7880331999622,575.7880331999622,575.7880331999622,,579.3368791999528,right,1.0,19.41241310001351,,,,,,,,,,,,,,,,,,,,,,,,,,,,,,sub-231,1.0,random_dot,60.08142236205671,
right,right,accuracy,,,,,0.0,1.0,1.0,0.0,2.0,0.0,4.0,1.0,579.3516297999304,,,,,,,,,579.3380442999769,579.451565299998,580.2519771999214,580.2352323000086,580.2352571999654,580.2519771999214,580.2519771999214,580.2519771999214,585.2488713000203,585.2664601999568,right,1.0,20.876221100101247,,,,,,,,,,,,,,,,,,,,,,,,,,,,,,sub-231,1.0,random_dot,60.08142236205671,
left,left,accuracy,,,,,0.0,1.0,1.0,0.0,2.0,1.0,5.0,0.0,585.2813010999234,,,,,,,,,585.2674772000173,585.6311942000175,586.431559599936,586.4146932999138,586.414718999993,586.431559599936,586.431559599936,586.431559599936,,589.0476412000135,left,1.0,18.48029169999063,,,,,,,,,,,,,,,,,,,,,,,,,,,,,,sub-231,1.0,random_dot,60.08142236205671,
left,left,accuracy,,,,,0.0,1.0,1.0,0.0,3.0,0.0,6.0,0.0,589.0650275999215,,,,,,,,,589.0488433999708,590.2617397999857,591.0620806999505,591.04500189994,591.045021399972,591.0620806999505,591.0620806999505,591.0620806999505,,595.3606376999523,left,1.0,20.158427700051107,,,,,,,,,,,,,,,,,,,,,,,,,,,,,,sub-231,1.0,random_dot,60.08142236205671,
right,right,accuracy,,,,,0.0,1.0,1.0,0.0,3.0,1.0,7.0,1.0,595.3751317999559,,,,,,,,,595.3621193999425,595.4751312999288,596.2754552999977,596.2584672999801,596.2584893999156,596.2754552999977,596.2754552999977,596.2754552999977,,598.5417211999884,right,1.0,18.14010150008835,,,,,,,,,,,,,,,,,,,,,,,,,,,,,,sub-231,1.0,random_dot,60.08142236205671,
right,right,accuracy,,,,,0.0,1.0,1.0,0.0,4.0,0.0,8.0,1.0,598.556421999936,,,,,,,,,598.542932500015,599.3560750000179,600.1564319999889,600.1395641999552,600.1395899999188,600.1564319999889,600.1564319999889,600.1564319999889,,605.0046984999208,right,1.0,20.70964120014105,,,,,,,,,,,,,,,,,,,,,,,,,,,,,,sub-231,1.0,random_dot,60.08142236205671,
left,left,accuracy,,,,,0.0,1.0,1.0,0.0,4.0,1.0,9.0,0.0,605.019179499941,,,,,,,,,605.006197599927,606.2186193999369,607.0189414999913,607.0023258000147,607.0023620999418,607.0189414999913,607.0189414999913,607.0189414999913,,609.3184387999354,left,1.0,18.17280050006229,,,,,,,,,,,,,,,,,,,,,,,,,,,,,,sub-231,1.0,random_dot,60.08142236205671,
right,right,accuracy,,,,,0.0,1.0,1.0,0.0,5.0,0.0,10.0,1.0,609.3331698999973,,,,,,,,,609.3194372999715,609.4331899000099,610.2335628999863,610.2165457999799,610.2165597999701,610.2335628999863,610.2335628999863,610.2335628999863,,613.2164904000238,right,1.0,18.852500800043344,,,,,,,,,,,,,,,,,,,,,,,,,,,,,,sub-231,1.0,random_dot,60.08142236205671,
left,left,accuracy,,,,,0.0,1.0,1.0,0.0,5.0,1.0,11.0,0.0,613.2308643999277,,,,,,,,,613.2179670999758,614.0305163000012,614.8307685999898,614.8137382999994,614.8137600999326,614.8307685999898,614.8307685999898,614.8307685999898,,619.2957909000106,left,1.0,20.33841700013727,,,,,,,,,,,,,,,,,,,,,,,,,,,,,,sub-231,1.0,random_dot,60.08142236205671,
left,left,accuracy,,,,,0.0,1.0,1.0,0.0,6.0,0.0,12.0,0.0,619.3104451999534,,,,,,,,,619.296957799932,620.5096494000172,621.3101856999565,621.293171599973,621.2932024999755,621.3101856999565,621.3101856999565,621.3101856999565,,625.8252567999298,left,1.0,20.38062010006979,,,,,,,,,,,,,,,,,,,,,,,,,,,,,,sub-231,1.0,random_dot,60.08142236205671,
right,right,accuracy,,,,,0.0,1.0,1.0,0.0,6.0,1.0,13.0,1.0,625.8397126999917,,,,,,,,,625.8265228000237,626.1896055999678,626.9899145999225,626.9731362999883,626.9731617999496,626.9899145999225,626.9899145999225,626.9899145999225,,630.6721025999868,right,1.0,19.54822370002512,,,,,,,,,,,,,,,,,,,,,,,,,,,,,,sub-231,1.0,random_dot,60.08142236205671,
right,right,accuracy,,,,,0.0,1.0,1.0,0.0,7.0,0.0,14.0,1.0,630.6866729999892,,,,,,,,,630.6732816000003,631.0365023999475,631.8368333999533,631.8198052999796,631.8198200999759,631.8368333999533,631.8368333999533,631.8368333999533,636.8338855999755,638.3176998000126,right,1.0,22.351375399972312,,,,,,,,,,,,,,,,,,,,,,,,,,,,,,sub-231,1.0,random_dot,60.08142236205671,
left,left,accuracy,,,,,0.0,1.0,1.0,0.0,7.0,1.0,15.0,0.0,638.3320408000145,,,,,,,,,638.319175499957,638.4319937999826,639.2324412999442,639.215766999987,639.2158011000138,639.2324412999442,639.2324412999442,639.2324412999442,,641.7653930999804,left,1.0,18.399376400047917,,,,,,,,,,,,,,,,,,,,,,,,,,,,,,sub-231,1.0,random_dot,60.08142236205671,
left,left,accuracy,,,,,0.0,1.0,1.0,0.0,8.0,0.0,16.0,0.0,641.7800036999397,,,,,,,,,641.7667244999902,642.1298601999879,642.9302119999193,642.9132776999613,642.913300300017,642.9302119999193,642.9302119999193,642.9302119999193,,645.2798979999498,left,1.0,18.21966530010104,,,,,,,,,,,,,,,,,,,,,,,,,,,,,,sub-231,1.0,random_dot,60.08142236205671,
right,right,accuracy,,,,,0.0,1.0,1.0,0.0,8.0,1.0,17.0,1.0,645.2943716999143,,,,,,,,,645.281004199991,646.4937714999542,647.2941772999475,647.2772532999516,647.2772828999441,647.2941772999475,647.2941772999475,647.2941772999475,,650.7594474999933,right,1.0,19.336628200137056,,,,,,,,,,,,,,,,,,,,,,,,,,,,,,sub-231,1.0,random_dot,60.08142236205671,
left,left,accuracy,,,,,0.0,1.0,1.0,0.0,9.0,0.0,18.0,0.0,650.7744018000085,,,,,,,,,650.760216100025,651.1244185999967,651.9246313999174,651.9079083999386,651.9079381999327,651.9246313999174,651.9246313999174,651.9246313999174,,654.7741449999157,left,1.0,18.71949610009324,,,,,,,,,,,,,,,,,,,,,,,,,,,,,,sub-231,1.0,random_dot,60.08142236205671,
right,right,accuracy,,,,,0.0,1.0,1.0,0.0,9.0,1.0,19.0,1.0,654.7885525999591,,,,,,,,,654.7754730000161,655.1384798999643,655.9387924999464,655.9216980999336,655.9217152999481,655.9387924999464,655.9387924999464,655.9387924999464,,659.1884445999749,right,1.0,19.124696300015785,,,,,,,,,,,,,,,,,,,,,,,,,,,,,,sub-231,1.0,random_dot,60.08142236205671,
right,right,accuracy,,,,,0.0,1.0,1.0,0.0,10.0,0.0,20.0,1.0,659.2025574999861,,,,,,,,,659.1897035000147,660.4019831999904,661.202208600007,661.1852912999457,661.1853105999762,661.202208600007,661.202208600007,661.202208600007,,663.5848239000188,right,1.0,18.244319900055416,,,,,,,,,,,,,,,,,,,,,,,,,,,,,,sub-231,1.0,random_dot,60.08142236205671,
left,left,accuracy,,,,,0.0,1.0,1.0,0.0,10.0,1.0,21.0,0.0,663.5997082999675,,,,,,,,,663.5855546999956,663.6996940999525,664.5001245000167,664.4830622000154,664.4830760000041,664.5001245000167,664.5001245000167,664.5001245000167,,667.6158882000018,left,1.0,18.98817919997964,,,,,,,,,,,,,,,,,,,,,,,,,,,,,,sub-231,1.0,random_dot,60.08142236205671,
left,left,accuracy,,,,,0.0,1.0,1.0,0.0,11.0,0.0,22.0,0.0,667.6306414999999,,,,,,,,,667.6167275999906,667.9804585999809,668.7808784999652,668.763885900029,668.7639005000237,668.7808784999652,668.7808784999652,668.7808784999652,,670.314376299968,left,1.0,17.407882200088352,,,,,,,,,,,,,,,,,,,,,,,,,,,,,,sub-231,1.0,random_dot,60.08142236205671,
right,right,accuracy,,,,,0.0,1.0,1.0,0.0,11.0,1.0,23.0,1.0,670.3291073999135,,,,,,,,,670.3153969999403,671.5283475000178,672.3287130999379,672.3117394000292,672.3117616999662,672.3287130999379,672.3287130999379,672.3287130999379,,674.4949705000035,right,1.0,18.036916200071573,,,,,,,,,,,,,,,,,,,,,,,,,,,,,,sub-231,1.0,random_dot,60.08142236205671,
right,right,accuracy,,,,,0.0,1.0,1.0,0.0,12.0,0.0,24.0,1.0,674.5097441999242,,,,,,,,,674.4959584999597,674.6098127999576,675.4101641000016,675.3933021000121,675.3933276999742,675.4101641000016,675.4101641000016,675.4101641000016,,677.6264073000057,right,1.0,18.08102060004603,,,,,,,,,,,,,,,,,,,,,,,,,,,,,,sub-231,1.0,random_dot,60.08142236205671,
left,left,accuracy,,,,,0.0,1.0,1.0,0.0,12.0,1.0,25.0,0.0,677.6412196999881,,,,,,,,,677.6275704000145,678.4407475999324,679.2412817999721,679.224037899985,679.2240500999615,679.2412817999721,679.2412817999721,679.2412817999721,,681.3407765999436,left,1.0,17.974001200171188,,,,,,,,,,,,,,,,,,,,,,,,,,,,,,sub-231,1.0,random_dot,60.08142236205671,
left,left,accuracy,,,,,0.0,1.0,1.0,0.0,13.0,0.0,26.0,0.0,681.3555080000078,,,,,,,,,681.3417961000232,681.7054223999148,682.5057591999648,682.4888715000125,682.4888966999715,682.5057591999648,682.5057591999648,682.5057591999648,,684.4392832999583,right,0.0,17.80418180010747,,,,,,,,,,,,,,,,,,,,,,,,,,,,,,sub-231,1.0,random_dot,60.08142236205671,
right,right,accuracy,,,,,0.0,1.0,1.0,0.0,13.0,1.0,27.0,1.0,684.4537689000135,,,,,,,,,684.4407860999927,685.2533324999968,686.0535784999374,686.0368330000201,686.0368589999853,686.0535784999374,686.0535784999374,686.0535784999374,,687.703834899934,right,1.0,17.518688500043936,,,,,,,,,,,,,,,,,,,,,,,,,,,,,,sub-231,1.0,random_dot,60.08142236205671,
right,right,accuracy,,,,,0.0,1.0,1.0,0.0,14.0,0.0,28.0,1.0,687.7182964999229,,,,,,,,,687.7051655999385,688.0682664000196,688.8685046000173,688.8516029999591,688.851625100011,688.8685046000173,688.8685046000173,688.8685046000173,,690.7184744999977,left,0.0,17.721521900151856,,,,,,,,,,,,,,,,,,,,,,,,,,,,,,sub-231,1.0,random_dot,60.08142236205671,
left,left,accuracy,,,,,0.0,1.0,1.0,0.0,14.0,1.0,29.0,0.0,690.7330942000262,,,,,,,,,690.7201191999484,691.532682399964,692.3330890999641,692.3159535999876,692.3159682999831,692.3330890999641,692.3330890999641,692.3330890999641,,693.3993399000028,left,1.0,16.940984600107186,,,,,,,,,,,,,,,,,,,,,,,,,,,,,,sub-231,1.0,random_dot,60.08142236205671,
right,right,accuracy,,,,,0.0,1.0,1.0,0.0,15.0,0.0,30.0,1.0,693.4145015999675,,,,,,,,,693.3999855000293,693.7646991999354,694.5650188999716,694.5479755999986,694.5479947000276,694.5650188999716,694.5650188999716,694.5650188999716,,695.4990153999534,right,1.0,16.809496800065972,,,,,,,,,,,,,,,,,,,,,,,,,,,,,,sub-231,1.0,random_dot,60.08142236205671,
left,left,accuracy,,,,,0.0,1.0,1.0,0.0,15.0,1.0,31.0,0.0,695.5135513999267,,,,,,,,,695.4996446999721,695.613573599956,696.4138551999349,696.3967901999131,696.3968076999299,696.4138551999349,696.4138551999349,696.4138551999349,,697.5301314999815,right,0.0,16.984960800153203,,,,,,,,,,,,,,,,,,,,,,,,,,,,,,sub-231,1.0,random_dot,60.08142236205671,
left,left,accuracy,,,,,0.0,1.0,1.0,0.0,16.0,0.0,32.0,0.0,697.5458520000102,,,,,,,,,697.5307612000033,697.8955940000014,698.6958049000241,698.6789557000156,698.6789828999899,698.6958049000241,698.6958049000241,698.6958049000241,,700.2290970999748,right,0.0,17.404983600135893,,,,,,,,,,,,,,,,,,,,,,,,,,,,,,sub-231,1.0,random_dot,60.08142236205671,
right,right,accuracy,,,,,0.0,1.0,1.0,0.0,16.0,1.0,33.0,1.0,700.2438829999883,,,,,,,,,700.2301399999997,700.3439464999828,701.1443591000279,701.127730499953,701.1277599999448,701.1443591000279,701.1443591000279,701.1443591000279,,703.9270685999654,right,1.0,18.656872300081886,,,,,,,,,,,,,,,,,,,,,,,,,,,,,,sub-231,1.0,random_dot,60.08142236205671,
left,left,accuracy,,,,,0.0,1.0,1.0,0.0,17.0,0.0,34.0,0.0,703.9416460000211,,,,,,,,,703.9282227000222,705.1411335999146,705.9413711000234,705.9244070999557,705.9244288000045,705.9413711000234,705.9413711000234,705.9413711000234,,707.5079417999368,left,1.0,17.43257990013808,,,,,,,,,,,,,,,,,,,,,,,,,,,,,,sub-231,1.0,random_dot,60.08142236205671,
right,right,accuracy,,,,,0.0,1.0,1.0,0.0,17.0,1.0,35.0,1.0,707.5227787999902,,,,,,,,,707.5090045999968,708.7219156000065,709.5225117999362,709.5096987999277,709.509717799956,709.5225117999362,709.5225117999362,709.5225117999362,,713.354938399978,left,0.0,19.702084200107493,,,,,,,,,,,,,,,,,,,,,,,,,,,,,,sub-231,1.0,random_dot,60.08142236205671,
left,left,accuracy,,,,,0.0,1.0,1.0,0.0,18.0,0.0,36.0,0.0,713.3692064000061,,,,,,,,,713.356538199936,714.168808999937,714.9691966000246,714.9523175000213,714.952343699988,714.9691966000246,714.9691966000246,714.9691966000246,,716.8858009999385,left,1.0,17.79012210003566,,,,,,,,,,,,,,,,,,,,,,,,,,,,,,sub-231,1.0,random_dot,60.08142236205671,
right,right,accuracy,,,,,0.0,1.0,1.0,0.0,18.0,1.0,37.0,1.0,716.9003664000193,,,,,,,,,716.887148299953,717.7000072000083,718.5003064000048,718.4837054000236,718.4837348000146,718.5003064000048,718.5003064000048,718.5003064000048,,723.0159853999503,right,1.0,20.376112800091505,,,,,,,,,,,,,,,,,,,,,,,,,,,,,,sub-231,1.0,random_dot,60.08142236205671,
right,right,accuracy,,,,,0.0,1.0,1.0,0.0,19.0,0.0,38.0,1.0,723.0301128999563,,,,,,,,,723.0179166999878,724.2294309999561,725.0296528999461,725.0128033999354,725.0128305000253,725.0296528999461,725.0296528999461,725.0296528999461,,726.5468292000005,right,1.0,17.376791200018488,,,,,,,,,,,,,,,,,,,,,,,,,,,,,,sub-231,1.0,random_dot,60.08142236205671,
left,left,accuracy,,,,,0.0,1.0,1.0,0.0,19.0,1.0,39.0,0.0,726.5611399000045,,,,,,,,,726.548441199935,727.3607856999151,728.1609970999416,728.1441318999277,728.1441491999431,728.1609970999416,728.1609970999416,728.1609970999416,,731.3441124999663,right,0.0,19.04448010015767,,,,,,,,,,,,,,,,,,,,,,,,,,,,,,sub-231,1.0,random_dot,60.08142236205671,
right,right,accuracy,,,,,0.0,1.0,1.0,0.0,20.0,0.0,40.0,1.0,731.3583348999964,,,,,,,,,731.346109499922,731.7080496000126,732.5085084999446,732.4917050999356,732.4917380999541,732.5085084999446,732.5085084999446,732.5085084999446,,737.2393681999529,right,1.0,20.601878500077877,,,,,,,,,,,,,,,,,,,,,,,,,,,,,,sub-231,1.0,random_dot,60.08142236205671,
left,left,accuracy,,,,,0.0,1.0,1.0,0.0,20.0,1.0,41.0,0.0,737.254523599986,,,,,,,,,737.2400770999957,737.3546343999915,738.1550645999378,738.1389019999187,738.1389535999624,738.1550645999378,738.1550645999378,738.1550645999378,,739.971675699926,left,1.0,17.679502100101672,,,,,,,,,,,,,,,,,,,,,,,,,,,,,,sub-231,1.0,random_dot,60.08142236205671,
left,left,accuracy,,,,,0.0,1.0,1.0,0.0,21.0,0.0,42.0,0.0,739.9861460999819,,,,,,,,,739.9730047999183,740.0862482999219,740.8867149999132,740.8701887999196,740.8702349999221,740.8867149999132,740.8867149999132,740.8867149999132,,744.8521359999431,left,1.0,19.825753599987365,,,,,,,,,,,,,,,,,,,,,,,,,,,,,,sub-231,1.0,random_dot,60.08142236205671,
right,right,accuracy,,,,,0.0,1.0,1.0,0.0,21.0,1.0,43.0,1.0,744.8665844999487,,,,,,,,,744.853713599965,744.9664786999347,745.7669049999677,745.7499013999477,745.7499266000232,745.7669049999677,745.7669049999677,745.7669049999677,,748.4662557999836,right,1.0,18.571816500159912,,,,,,,,,,,,,,,,,,,,,,,,,,,,,,sub-231,1.0,random_dot,60.08142236205671,
left,left,accuracy,,,,,0.0,1.0,1.0,0.0,22.0,0.0,44.0,0.0,748.4810235999757,,,,,,,,,748.466862799949,748.8308610999957,749.6312429999234,749.6149558000034,749.6150016000029,749.6312429999234,749.6312429999234,749.6312429999234,,751.8477277000202,left,1.0,18.0857634000713,,,,,,,,,,,,,,,,,,,,,,,,,,,,,,sub-231,1.0,random_dot,60.08142236205671,
right,right,accuracy,,,,,0.0,1.0,1.0,0.0,22.0,1.0,45.0,1.0,751.8623256999999,,,,,,,,,751.8496095999144,752.6617260000203,753.4622291999403,753.4456494000042,753.4456846999237,753.4622291999403,753.4622291999403,753.4622291999403,,756.744078299962,right,1.0,19.15457800007425,,,,,,,,,,,,,,,,,,,,,,,,,,,,,,sub-231,1.0,random_dot,60.08142236205671,
left,left,accuracy,,,,,0.0,1.0,1.0,0.0,23.0,0.0,46.0,0.0,756.759057499934,,,,,,,,,756.7447360999649,757.9585077000083,758.7590057000052,758.7422761999769,758.7423093999969,758.7590057000052,758.7590057000052,758.7590057000052,,761.8251596000046,left,1.0,18.935552500071932,,,,,,,,,,,,,,,,,,,,,,,,,,,,,,sub-231,1.0,random_dot,60.08142236205671,
right,right,accuracy,,,,,0.0,1.0,1.0,0.0,23.0,1.0,47.0,1.0,761.839480399969,,,,,,,,,761.8267422999488,761.9392425999977,762.7398655000143,762.7232185999164,762.7232539999532,762.7398655000143,762.7398655000143,762.7398655000143,,765.5390581999673,right,1.0,18.661644100095145,,,,,,,,,,,,,,,,,,,,,,,,,,,,,,sub-231,1.0,random_dot,60.08142236205671,
left,left,accuracy,,,,,0.0,1.0,1.0,0.0,24.0,0.0,48.0,0.0,765.553865200025,,,,,,,,,765.5402189999586,765.9035790999187,766.7041295999661,766.6874380999943,766.6874736999162,766.7041295999661,766.7041295999661,766.7041295999661,,770.2691281000152,left,1.0,19.43524280015845,,,,,,,,,,,,,,,,,,,,,,,,,,,,,,sub-231,1.0,random_dot,60.08142236205671,
right,right,accuracy,,,,,0.0,1.0,1.0,0.0,24.0,1.0,49.0,1.0,770.2840915999841,,,,,,,,,770.2699064000044,770.3841445000144,771.1846365999663,771.1678038999671,771.1678335999604,771.1846365999663,771.1846365999663,771.1846365999663,,773.8842829000205,right,1.0,18.563043200061657,,,,,,,,,,,,,,,,,,,,,,,,,,,,,,sub-231,1.0,random_dot,60.08142236205671,
right,right,accuracy,,,,,0.0,1.0,1.0,0.0,25.0,0.0,50.0,1.0,773.8987311000237,,,,,,,,,773.8858856000006,774.6982994999271,775.4987714999588,775.4814683999866,775.4814805999631,775.4987714999588,775.4987714999588,775.4987714999588,,778.8143043000018,right,1.0,19.19052289996762,,,,,,,,,,,,,,,,,,,,,,,,,,,,,,sub-231,1.0,random_dot,60.08142236205671,
left,left,accuracy,,,,,0.0,1.0,1.0,0.0,25.0,1.0,51.0,0.0,778.8289089999162,,,,,,,,,778.8153297000099,779.1788364999229,779.9792139999336,779.9625481999246,779.9625842999667,779.9792139999336,779.9792139999336,779.9792139999336,,783.7284281000029,left,1.0,19.608680100063797,,,,,,,,,,,,,,,,,,,,,,,,,,,,,,sub-231,1.0,random_dot,60.08142236205671,
right,right,accuracy,,,,,0.0,1.0,1.0,0.0,26.0,0.0,52.0,1.0,783.7427415000275,,,,,,,,,783.7302279999712,784.5422174999258,785.3426384999184,785.3259278999176,785.3259609999368,785.3426384999184,785.3426384999184,785.3426384999184,,787.858833199949,right,1.0,18.38240340014454,,,,,,,,,,,,,,,,,,,,,,,,,,,,,,sub-231,1.0,random_dot,60.08142236205671,
left,left,accuracy,,,,,0.0,1.0,1.0,0.0,26.0,1.0,53.0,0.0,787.8733795000007,,,,,,,,,787.8601568000158,788.6729536999483,789.4733507999917,789.4566939999349,789.4567271999549,789.4733507999917,789.4733507999917,789.4733507999917,,791.9902410999639,left,1.0,18.376289900159463,,,,,,,,,,,,,,,,,,,,,,,,,,,,,,sub-231,1.0,random_dot,60.08142236205671,
left,left,accuracy,,,,,0.0,1.0,1.0,0.0,27.0,0.0,54.0,0.0,792.0044262999436,,,,,,,,,791.9922179999994,792.8038410999579,793.6041530999355,793.5869903999846,793.5870061999885,793.6041530999355,793.6041530999355,793.6041530999355,,796.7531162999803,left,1.0,19.02242110017687,,,,,,,,,,,,,,,,,,,,,,,,,,,,,,sub-231,1.0,random_dot,60.08142236205671,
right,right,accuracy,,,,,0.0,1.0,1.0,0.0,27.0,1.0,55.0,1.0,796.7679381999187,,,,,,,,,796.7539489999181,797.9673819999443,798.7676045999397,798.7506996999728,798.7507221000269,798.7676045999397,798.7676045999397,798.7676045999397,,799.9348623999394,right,1.0,17.02799420012161,,,,,,,,,,,,,,,,,,,,,,,,,,,,,,sub-231,1.0,random_dot,60.08142236205671,
right,right,accuracy,,,,,0.0,1.0,1.0,0.0,28.0,0.0,56.0,1.0,799.9493988999166,,,,,,,,,799.9363601999357,800.04924079997,800.8496062000049,800.8325972999446,800.8326165999752,800.8496062000049,800.8496062000049,800.8496062000049,,803.4824559999397,right,1.0,18.50690280005801,,,,,,,,,,,,,,,,,,,,,,,,,,,,,,sub-231,1.0,random_dot,60.08142236205671,
left,left,accuracy,,,,,0.0,1.0,1.0,0.0,28.0,1.0,57.0,0.0,803.4969555999851,,,,,,,,,803.4836129000178,803.8471468000207,804.6473243000219,804.6301745999372,804.630186400027,804.6473243000219,804.6473243000219,804.6473243000219,,806.6635051999474,left,1.0,17.88864880008623,,,,,,,,,,,,,,,,,,,,,,,,,,,,,,sub-231,1.0,random_dot,60.08142236205671,
left,left,accuracy,,,,,0.0,1.0,1.0,0.0,29.0,0.0,58.0,0.0,806.67849630001,,,,,,,,,806.6641257000156,807.0283701999579,807.8287544000195,807.8117421999341,807.8117641999852,807.8287544000195,807.8287544000195,807.8287544000195,,810.0783342999639,left,1.0,18.115212900098413,,,,,,,,,,,,,,,,,,,,,,,,,,,,,,sub-231,1.0,random_dot,60.08142236205671,
right,right,accuracy,,,,,0.0,1.0,1.0,0.0,29.0,1.0,59.0,1.0,810.0930435999762,,,,,,,,,810.0795065999264,810.8926582999993,811.693053899915,811.6764542999445,811.6764875999652,811.693053899915,811.693053899915,811.693053899915,,813.5761998000089,right,1.0,17.74346820008941,,,,,,,,,,,,,,,,,,,,,,,,,,,,,,sub-231,1.0,random_dot,60.08142236205671,
,,accuracy,,,,,0.0,1.0,1.0,0.0,,,,,,,,,,,,,,,,,,,,,,,,,,,,,,,,,,,,,,,,,,,,,,,,,,,,,,,,sub-231,1.0,random_dot,60.08142236205671,
,,,,,,,,,,,,,,,,,,,,,,,,,,,,,,,,,,,,,,,,,,,,,,,,,,,,,,,,,,,,,,,813.577052699984,813.5910351999337,818.5881984999869,sub-231,,,,
