wordCTK,colorCTK,corrAnsCTK,congruentCTK,thisN,thisTrialN,thisRepN,keyResp_CTK.keys,keyResp_CTK.corr,keyResp_CTK.rt,keyResp_CTK.duration,wordPractice,colorPractice,corrAnsPractice,congruentPractice,respPractice.keys,respPractice.corr,respPractice.rt,respPractice.duration,word,color,corrAns,congruent,keyResp_test_run.keys,keyResp_test_run.corr,keyResp_test_run.rt,keyResp_test_run.duration,trials_CTK.thisRepN,trials_CTK.thisTrialN,trials_CTK.thisN,trials_CTK.thisIndex,trials_practice.thisRepN,trials_practice.thisTrialN,trials_practice.thisN,trials_practice.thisIndex,trials_test.thisRepN,trials_test.thisTrialN,trials_test.thisN,trials_test.thisIndex,thisRow.t,notes,instruction.started,instr_text.started,instr_image.started,instr_resp.started,instruction.stopped,instr_resp.keys,instr_resp.rt,instr_resp.duration,instr_color_to_key.started,instr_ctk.started,resp_ctk.started,instr_color_to_key.stopped,resp_ctk.keys,resp_ctk.rt,resp_ctk.duration,ITI.started,fixcross.started,fixcross.stopped,ITI.stopped,color_to_key_run.started,stimulus_CTK.started,keyResp_CTK.started,color_to_key_run.stopped,trials_CTK.keyResp_CTK.keys,trials_CTK.keyResp_CTK.corr,trials_CTK.keyResp_CTK.rt,trials_CTK.keyResp_CTK.duration,instr_practice.started,instr_practice_text.started,instr_practice_resp.started,instr_practice.stopped,instr_practice_resp.keys,instr_practice_resp.rt,instr_practice_resp.duration,practice_run.started,stimulus_practice.started,respPractice.started,practice_run.stopped,trials_practice.respPractice.keys,trials_practice.respPractice.corr,trials_practice.respPractice.rt,trials_practice.respPractice.duration,feedback.started,textFeedback.started,textFeedback.stopped,feedback.stopped,instr_test.started,instr_test_text.started,instr_test_resp.started,instr_test.stopped,instr_test_resp.keys,instr_test_resp.rt,instr_test_resp.duration,test_run.started,stimulus_test_run.started,keyResp_test_run.started,test_run.stopped,trials_test.keyResp_test_run.keys,trials_test.keyResp_test_run.corr,trials_test.keyResp_test_run.rt,trials_test.keyResp_test_run.duration,goodbye.started,textGoodbye.started,goodbye.stopped,participant,session,expName,frameRate,Unnamed: 112
,,,,,,,,,,,,,,,,,,,,,,,,,,,,,,,,,,,,,,,,,0.055525600007968,0.21234130000812,0.21234130000812,0.21234130000812,19.196346199983964,space,18.909680000011576,,,,,,,,,,,,,,,,,,,,,,,,,,,,,,,,,,,,,,,,,,,,,,,,,,,,,,,,,,sub-130,1,stroop_test,59.9677493361942,
,,,,,,,,,,,,,,,,,,,,,,,,,,,,,,,,,,,,,,,,,,,,,,,,,19.19639160000952,19.20166779999272,19.20166779999272,22.003094899991996,space,2.793339299998479,,,,,,,,,,,,,,,,,,,,,,,,,,,,,,,,,,,,,,,,,,,,,,,,,,,sub-130,1,stroop_test,59.9677493361942,
test,red,r,1.0,0.0,0.0,0.0,r,1.0,0.3620156999968458,,,,,,,,,,,,,,,,,,0.0,0.0,0.0,0.0,,,,,,,,,22.02184609998949,,,,,,,,,,,,,,,,,22.018094300001398,23.202584999991814,24.003158699983032,23.98723749999772,23.99294299999019,24.003158699983032,24.003158699983032,24.371805999981007,r,1.0,0.3620156999968458,,,,,,,,,,,,,,,,,,,,,,,,,,,,,,,,,,,,,,,sub-130,1,stroop_test,59.9677493361942,
test,yellow,g,1.0,1.0,1.0,0.0,g,1.0,0.4805102000245824,,,,,,,,,,,,,,,,,,0.0,1.0,1.0,1.0,,,,,,,,,24.38677529999404,,,,,,,,,,,,,,,,,24.372244500002125,25.571578700008104,26.37178689998109,26.35596039998927,26.356511299993144,26.37178689998109,26.37178689998109,26.85699589998694,g,1.0,0.4805102000245824,,,,,,,,,,,,,,,,,,,,,,,,,,,,,,,,,,,,,,,sub-130,1,stroop_test,59.9677493361942,
test,blue,b,1.0,2.0,2.0,0.0,b,1.0,0.45666529997834,,,,,,,,,,,,,,,,,,0.0,2.0,2.0,2.0,,,,,,,,,26.87213089998113,,,,,,,,,,,,,,,,,26.857340599992312,27.222758999996586,28.023343100008788,28.00753390000318,28.00801259998116,28.023343100008788,28.023343100008788,28.491958300000988,b,1.0,0.45666529997834,,,,,,,,,,,,,,,,,,,,,,,,,,,,,,,,,,,,,,,sub-130,1,stroop_test,59.9677493361942,
test,red,r,1.0,3.0,0.0,1.0,r,1.0,0.3506482999946456,,,,,,,,,,,,,,,,,,1.0,0.0,3.0,0.0,,,,,,,,,28.506931099982467,,,,,,,,,,,,,,,,,28.4922496000072,29.30757609999273,30.108476900000824,30.092339599999832,30.09286430000793,30.108476900000824,30.108476900000824,30.46074909999152,r,1.0,0.3506482999946456,,,,,,,,,,,,,,,,,,,,,,,,,,,,,,,,,,,,,,,sub-130,1,stroop_test,59.9677493361942,
test,blue,b,1.0,4.0,1.0,1.0,b,1.0,0.3537932999897748,,,,,,,,,,,,,,,,,,1.0,1.0,4.0,2.0,,,,,,,,,30.475248999980977,,,,,,,,,,,,,,,,,30.461073099984787,30.825569799984805,31.626126999995904,31.610590099997356,31.6112323999987,31.626126999995904,31.626126999995904,31.994928700005403,b,1.0,0.3537932999897748,,,,,,,,,,,,,,,,,,,,,,,,,,,,,,,,,,,,,,,sub-130,1,stroop_test,59.9677493361942,
test,yellow,g,1.0,5.0,2.0,1.0,g,1.0,0.3474301999958697,,,,,,,,,,,,,,,,,,1.0,2.0,5.0,1.0,,,,,,,,,32.00982129998738,,,,,,,,,,,,,,,,,31.99531800000113,33.19429329998093,33.9948793000076,33.9790454999893,33.9795499999891,33.9948793000076,33.9948793000076,34.34666379998089,g,1.0,0.3474301999958697,,,,,,,,,,,,,,,,,,,,,,,,,,,,,,,,,,,,,,,sub-130,1,stroop_test,59.9677493361942,
test,blue,b,1.0,6.0,0.0,2.0,b,1.0,0.5064744999981485,,,,,,,,,,,,,,,,,,2.0,0.0,6.0,2.0,,,,,,,,,34.361572299996624,,,,,,,,,,,,,,,,,34.346995500003686,34.461888099991484,35.262745099986205,35.24685799999861,35.24733779998496,35.262745099986205,35.262745099986205,35.781327100005,b,1.0,0.5064744999981485,,,,,,,,,,,,,,,,,,,,,,,,,,,,,,,,,,,,,,,sub-130,1,stroop_test,59.9677493361942,
test,yellow,g,1.0,7.0,1.0,2.0,g,1.0,0.6314585999934934,,,,,,,,,,,,,,,,,,2.0,1.0,7.0,1.0,,,,,,,,,35.79636939999182,,,,,,,,,,,,,,,,,35.78167629998643,36.14635049999925,36.9476663999958,36.93169239998679,36.932227399986,36.9476663999958,36.9476663999958,37.58289839999634,g,1.0,0.6314585999934934,,,,,,,,,,,,,,,,,,,,,,,,,,,,,,,,,,,,,,,sub-130,1,stroop_test,59.9677493361942,
test,red,r,1.0,8.0,2.0,2.0,r,1.0,0.3347198000119533,,,,,,,,,,,,,,,,,,2.0,2.0,8.0,0.0,,,,,,,,,37.598104100005,,,,,,,,,,,,,,,,,37.583286699984455,38.39844359998824,39.19940099999076,39.18371209999896,39.184416800009785,39.19940099999076,39.19940099999076,39.55124790000264,r,1.0,0.3347198000119533,,,,,,,,,,,,,,,,,,,,,,,,,,,,,,,,,,,,,,,sub-130,1,stroop_test,59.9677493361942,
test,blue,b,1.0,9.0,0.0,3.0,b,1.0,0.4178938999830279,,,,,,,,,,,,,,,,,,3.0,0.0,9.0,2.0,,,,,,,,,39.5661201000039,,,,,,,,,,,,,,,,,39.55157690000488,39.6663498999842,40.46688880000147,40.45097420000821,40.451466400001664,40.46688880000147,40.46688880000147,40.901852099981625,b,1.0,0.4178938999830279,,,,,,,,,,,,,,,,,,,,,,,,,,,,,,,,,,,,,,,sub-130,1,stroop_test,59.9677493361942,
test,red,r,1.0,10.0,1.0,3.0,r,1.0,0.396286000002874,,,,,,,,,,,,,,,,,,3.0,1.0,10.0,0.0,,,,,,,,,40.917345099995146,,,,,,,,,,,,,,,,,40.90214230000856,42.10164639999857,42.90237019999768,42.88636949998909,42.88689930000692,42.90237019999768,42.90237019999768,43.304626400000416,r,1.0,0.396286000002874,,,,,,,,,,,,,,,,,,,,,,,,,,,,,,,,,,,,,,,sub-130,1,stroop_test,59.9677493361942,
test,yellow,g,1.0,11.0,2.0,3.0,g,1.0,0.4354559000057634,,,,,,,,,,,,,,,,,,3.0,2.0,11.0,1.0,,,,,,,,,43.31924730000901,,,,,,,,,,,,,,,,,43.30499259999488,43.66968649998307,44.47028049998335,44.45439410000108,44.45490129999234,44.47028049998335,44.47028049998335,44.92218839999987,g,1.0,0.4354559000057634,,,,,,,,,,,,,,,,,,,,,,,,,,,,,,,,,,,,,,,sub-130,1,stroop_test,59.9677493361942,
,,,,,,,,,,,,,,,,,,,,,,,,,,,,,,,,,,,,,,,,,,,,,,,,,,,,,,,,,,,,,,,,,,,,44.92232589999912,44.93735709998873,44.93735709998873,51.42786649998743,space,6.486677599983523,,,,,,,,,,,,,,,,,,,,,,,,,,,,,,,,sub-130,1,stroop_test,59.9677493361942,
,,,,0.0,0.0,0.0,,,,,gelb,yellow,g,1.0,g,1.0,0.4747530000167899,,,,,,,,,,,,,,0.0,0.0,0.0,11.0,,,,,51.44251769999392,,,,,,,,,,,,,,,,,51.437104699987685,52.243388600007165,53.043886800005566,53.02834129999974,,,,,,,,,,,,,,,,53.03582230000757,53.043886800005566,53.043886800005566,53.52970610000193,g,1.0,0.4747530000167899,,53.53772999998182,53.54415259999223,54.5451153999893,54.52953110000817,,,,,,,,,,,,,,,,,,,sub-130,1,stroop_test,59.9677493361942,
,,,,1.0,1.0,0.0,,,,,rot,yellow,g,0.0,g,1.0,0.3737555999832693,,,,,,,,,,,,,,0.0,1.0,1.0,3.0,,,,,54.5451153999893,,,,,,,,,,,,,,,,,54.52989139998681,54.87882700000773,55.67941340000834,55.66363659998751,,,,,,,,,,,,,,,,55.66970769999898,55.67941340000834,55.67941340000834,56.0649917999981,g,1.0,0.3737555999832693,,56.06539070000872,56.07989679998718,57.08062600000994,57.06506239998271,,,,,,,,,,,,,,,,,,,sub-130,1,stroop_test,59.9677493361942,
,,,,2.0,2.0,0.0,,,,,rot,red,r,1.0,r,1.0,0.3477449999772943,,,,,,,,,,,,,,0.0,2.0,2.0,1.0,,,,,57.08062600000994,,,,,,,,,,,,,,,,,57.065397800004575,57.16409780000686,57.96488320000935,57.94906379998429,,,,,,,,,,,,,,,,57.949574099999154,57.96488320000935,57.96488320000935,58.315930899989326,r,1.0,0.3477449999772943,,58.31622959999368,58.33161709998967,,59.31619379998301,,,,,,,,,,,,,,,,,,,sub-130,1,stroop_test,59.9677493361942,
,,,,3.0,3.0,0.0,,,,,rot,red,r,1.0,r,1.0,0.4817727000045124,,,,,,,,,,,,,,0.0,3.0,3.0,0.0,,,,,59.332532600004924,,,,,,,,,,,,,,,,,59.31661519999034,59.66628770000534,60.46688049999648,60.451190099993255,,,,,,,,,,,,,,,,60.45179900000221,60.46688049999648,60.46688049999648,60.9526593000046,r,1.0,0.4817727000045124,,60.95336719998159,60.96727930000634,61.967714800004615,61.95165969998925,,,,,,,,,,,,,,,,,,,sub-130,1,stroop_test,59.9677493361942,
,,,,4.0,4.0,0.0,,,,,blau,red,r,0.0,r,1.0,0.3655595000018365,,,,,,,,,,,,,,0.0,4.0,4.0,4.0,,,,,61.967714800004615,,,,,,,,,,,,,,,,,61.95190250000451,62.067843900003936,62.86860129999695,62.85321919998387,,,,,,,,,,,,,,,,62.86003419998451,62.86860129999695,62.86860129999695,63.23749790000147,r,1.0,0.3655595000018365,,63.23812769999495,63.252630900009535,64.25318709999556,64.23776309998357,,,,,,,,,,,,,,,,,,,sub-130,1,stroop_test,59.9677493361942,
,,,,5.0,5.0,0.0,,,,,blau,blue,b,1.0,b,1.0,0.3911723999772221,,,,,,,,,,,,,,0.0,5.0,5.0,5.0,,,,,64.25318709999556,,,,,,,,,,,,,,,,,64.23820689998684,65.43765889998758,66.23825209998176,66.22218630000134,,,,,,,,,,,,,,,,66.22272079999675,66.23825209998176,66.23825209998176,66.63991070000338,b,1.0,0.3911723999772221,,66.64025880000554,66.65526639999007,67.65613469999516,67.64068069998757,,,,,,,,,,,,,,,,,,,sub-130,1,stroop_test,59.9677493361942,
,,,,6.0,6.0,0.0,,,,,rot,blue,b,0.0,b,1.0,0.3765255000034813,,,,,,,,,,,,,,0.0,6.0,6.0,2.0,,,,,67.65613469999516,,,,,,,,,,,,,,,,,67.64111120000598,67.9898092999938,68.79061440000078,68.77454620000208,,,,,,,,,,,,,,,,68.77808260000893,68.79061440000078,68.79061440000078,69.17544980000821,b,1.0,0.3765255000034813,,69.17596359999152,69.19076050000149,70.19137379998574,70.17569479998201,,,,,,,,,,,,,,,,,,,sub-130,1,stroop_test,59.9677493361942,
,,,,7.0,7.0,0.0,,,,,blau,blue,b,1.0,b,1.0,0.353634700004477,,,,,,,,,,,,,,0.0,7.0,7.0,6.0,,,,,70.19137379998574,,,,,,,,,,,,,,,,,70.1760391999851,71.37576870000339,72.17666810000082,72.16061920000357,,,,,,,,,,,,,,,,72.16351429998758,72.17666810000082,72.17666810000082,72.54495779998251,b,1.0,0.353634700004477,,72.54542760000913,72.56011249998119,73.56084419999388,73.54526769998483,,,,,,,,,,,,,,,,,,,sub-130,1,stroop_test,59.9677493361942,
,,,,8.0,8.0,0.0,,,,,gelb,red,r,0.0,r,1.0,0.3829518999846186,,,,,,,,,,,,,,0.0,8.0,8.0,8.0,,,,,73.56084419999388,,,,,,,,,,,,,,,,,73.54549869999755,74.74537799999234,75.54597269999795,75.53039840000565,,,,,,,,,,,,,,,,75.53401709999889,75.54597269999795,75.54597269999795,75.93152340000961,r,1.0,0.3829518999846186,,75.93203229998471,75.94612509998842,76.94703939999454,76.93168509998941,,,,,,,,,,,,,,,,,,,sub-130,1,stroop_test,59.9677493361942,
,,,,9.0,9.0,0.0,,,,,gelb,yellow,g,1.0,g,1.0,0.3319086999981664,,,,,,,,,,,,,,0.0,9.0,9.0,10.0,,,,,76.94703939999454,,,,,,,,,,,,,,,,,76.93214170000283,77.73131499998271,78.53172259998973,78.51614150000387,,,,,,,,,,,,,,,,78.51668699999573,78.53172259998973,78.53172259998973,78.86665849998826,g,1.0,0.3319086999981664,,78.86710790000507,78.88190069998382,79.88266299999668,79.86675719998311,,,,,,,,,,,,,,,,,,,sub-130,1,stroop_test,59.9677493361942,
,,,,10.0,10.0,0.0,,,,,gelb,blue,b,0.0,b,1.0,0.5608904999971855,,,,,,,,,,,,,,0.0,10.0,10.0,9.0,,,,,79.88266299999668,,,,,,,,,,,,,,,,,79.86695870000403,80.66696679999586,81.4674393000023,81.45176930000889,,,,,,,,,,,,,,,,81.45228540000971,81.4674393000023,81.4674393000023,82.03664710000157,b,1.0,0.5608904999971855,,82.0373041999992,82.05143540000427,83.05204959999537,83.0367675999878,,,,,,,,,,,,,,,,,,,sub-130,1,stroop_test,59.9677493361942,
,,,,11.0,11.0,0.0,,,,,blau,yellow,g,0.0,g,1.0,0.4453894000034779,,,,,,,,,,,,,,0.0,11.0,11.0,7.0,,,,,83.05204959999537,,,,,,,,,,,,,,,,,83.03723529999843,83.15246710000793,83.95306759999949,83.93706530000782,,,,,,,,,,,,,,,,83.94013299999642,83.95306759999949,83.95306759999949,84.4047700999945,g,1.0,0.4453894000034779,,84.40519970000605,84.42000330000883,85.42068889999064,85.40542100000312,,,,,,,,,,,,,,,,,,,sub-130,1,stroop_test,59.9677493361942,
,,,,12.0,0.0,1.0,,,,,gelb,blue,b,0.0,b,1.0,0.456077999988338,,,,,,,,,,,,,,1.0,0.0,12.0,9.0,,,,,85.42068889999064,,,,,,,,,,,,,,,,,85.40594199998304,86.6051940000034,87.40581959998235,87.39009289999376,,,,,,,,,,,,,,,,87.39375240000663,87.40581959998235,87.40581959998235,87.87474070000462,b,1.0,0.456077999988338,,87.8754576999927,87.88964859998669,88.89017179998336,88.87461460000486,,,,,,,,,,,,,,,,,,,sub-130,1,stroop_test,59.9677493361942,
,,,,13.0,1.0,1.0,,,,,gelb,yellow,g,1.0,g,1.0,0.4309747999941464,,,,,,,,,,,,,,1.0,1.0,13.0,11.0,,,,,88.89017179998336,,,,,,,,,,,,,,,,,88.87482759999693,90.0748010999814,90.8749472000054,90.85877699998672,,,,,,,,,,,,,,,,90.8591058999882,90.8749472000054,90.8749472000054,91.30961430000023,g,1.0,0.4309747999941464,,91.30995649998658,91.32544549999876,,92.30999129998963,,,,,,,,,,,,,,,,,,,sub-130,1,stroop_test,59.9677493361942,
,,,,14.0,2.0,1.0,,,,,rot,red,r,1.0,r,1.0,0.3075049000035506,,,,,,,,,,,,,,1.0,2.0,14.0,0.0,,,,,92.32662279999931,,,,,,,,,,,,,,,,,92.31032289998257,93.1104994000052,93.91130819998216,93.89572909998242,,,,,,,,,,,,,,,,93.8996979999938,93.91130819998216,93.91130819998216,94.22971970000071,r,1.0,0.3075049000035506,,94.230207399989,94.24496169999476,95.24559740000404,95.230158499995,,,,,,,,,,,,,,,,,,,sub-130,1,stroop_test,59.9677493361942,
,,,,15.0,3.0,1.0,,,,,gelb,red,r,0.0,r,1.0,0.3793997000029776,,,,,,,,,,,,,,1.0,3.0,15.0,8.0,,,,,95.24559740000404,,,,,,,,,,,,,,,,,95.23057719998178,95.57929839999996,96.38008589998935,96.36435270000948,,,,,,,,,,,,,,,,96.36760880000656,96.38008589998935,96.38008589998935,96.76506489998428,r,1.0,0.3793997000029776,,96.76554960000794,96.78023869998287,97.78105769999092,97.76527460000943,,,,,,,,,,,,,,,,,,,sub-130,1,stroop_test,59.9677493361942,
,,,,16.0,4.0,1.0,,,,,rot,red,r,1.0,r,1.0,0.3679326999990735,,,,,,,,,,,,,,1.0,4.0,16.0,1.0,,,,,97.78105769999092,,,,,,,,,,,,,,,,,97.76563399998122,97.86443909999798,98.66517160000512,98.649368399987,,,,,,,,,,,,,,,,98.65274119999958,98.66517160000512,98.66517160000512,99.0500078999903,r,1.0,0.3679326999990735,,99.0505307999847,99.06539400000474,100.06631900000502,100.05049039999722,,,,,,,,,,,,,,,,,,,sub-130,1,stroop_test,59.9677493361942,
,,,,17.0,5.0,1.0,,,,,blau,yellow,g,0.0,g,1.0,0.3209033000166528,,,,,,,,,,,,,,1.0,5.0,17.0,7.0,,,,,100.06631900000502,,,,,,,,,,,,,,,,,100.0508351000026,100.14995540000382,100.95040289999451,100.93471959998716,,,,,,,,,,,,,,,,100.93891959998292,100.95040289999451,100.95040289999451,101.28575169999384,g,1.0,0.3209033000166528,,101.28624670000865,101.30074459998286,102.30126370000652,102.28589349999676,,,,,,,,,,,,,,,,,,,sub-130,1,stroop_test,59.9677493361942,
,,,,18.0,6.0,1.0,,,,,gelb,yellow,g,1.0,g,1.0,0.3589310000243131,,,,,,,,,,,,,,1.0,6.0,18.0,10.0,,,,,102.30126370000652,,,,,,,,,,,,,,,,,102.28628030000256,103.0856106999854,103.88597350000056,103.87025800000993,,,,,,,,,,,,,,,,103.87344599998325,103.88597350000056,103.88597350000056,104.25458629999775,g,1.0,0.3589310000243131,,104.25505919998976,104.27007810000214,105.27059269999154,105.25477319999482,,,,,,,,,,,,,,,,,,,sub-130,1,stroop_test,59.9677493361942,
,,,,19.0,7.0,1.0,,,,,rot,blue,b,0.0,b,1.0,0.348988299985649,,,,,,,,,,,,,,1.0,7.0,19.0,2.0,,,,,105.27059269999154,,,,,,,,,,,,,,,,,105.25509620000958,106.4548450000002,107.25533799998811,107.23978529998568,,,,,,,,,,,,,,,,107.2428637999983,107.25533799998811,107.25533799998811,107.60697599998092,b,1.0,0.348988299985649,,107.60728150000796,107.622541299992,108.62349919998088,108.60734990000492,,,,,,,,,,,,,,,,,,,sub-130,1,stroop_test,59.9677493361942,
,,,,20.0,8.0,1.0,,,,,rot,yellow,g,0.0,g,1.0,0.4334995000099297,,,,,,,,,,,,,,1.0,8.0,20.0,3.0,,,,,108.62349919998088,,,,,,,,,,,,,,,,,108.607629599981,108.70670290000272,109.50758790000692,109.491753099981,,,,,,,,,,,,,,,,109.492339599994,109.50758790000692,109.50758790000692,109.94311210000888,g,1.0,0.4334995000099297,,109.94354429998202,109.9577212999866,110.95867110000108,110.94320690000312,,,,,,,,,,,,,,,,,,,sub-130,1,stroop_test,59.9677493361942,
,,,,21.0,9.0,1.0,,,,,blau,red,r,0.0,r,1.0,0.3529390000039711,,,,,,,,,,,,,,1.0,9.0,21.0,4.0,,,,,110.95867110000108,,,,,,,,,,,,,,,,,110.94359680000343,111.05878880000093,111.8595120999962,111.84381689998554,,,,,,,,,,,,,,,,111.84718519999296,111.8595120999962,111.8595120999962,112.2283797999844,r,1.0,0.3529390000039711,,112.22891529998742,112.2429134999984,113.2438326999836,113.2281071000034,,,,,,,,,,,,,,,,,,,sub-130,1,stroop_test,59.9677493361942,
,,,,22.0,10.0,1.0,,,,,blau,blue,b,1.0,b,1.0,0.4586306999844964,,,,,,,,,,,,,,1.0,10.0,22.0,6.0,,,,,113.2438326999836,,,,,,,,,,,,,,,,,113.22840469999936,113.59424239999498,114.39501959999323,114.37916039998528,,,,,,,,,,,,,,,,114.3796567999816,114.39501959999323,114.39501959999323,114.86319929998716,b,1.0,0.4586306999844964,,114.86363300000085,114.87858429999324,115.87958589999472,115.86404240000412,,,,,,,,,,,,,,,,,,,sub-130,1,stroop_test,59.9677493361942,
,,,,23.0,11.0,1.0,,,,,blau,blue,b,1.0,b,1.0,0.3450711999903433,,,,,,,,,,,,,,1.0,11.0,23.0,5.0,,,,,115.87958589999472,,,,,,,,,,,,,,,,,115.8644815000007,115.96291159998508,116.76341919999686,116.74773489998188,,,,,,,,,,,,,,,,116.74834150000244,116.76341919999686,116.76341919999686,117.11564430000726,b,1.0,0.3450711999903433,,117.11651799999528,117.13067539999612,118.13136629998915,118.1156939000066,,,,,,,,,,,,,,,,,,,sub-130,1,stroop_test,59.9677493361942,
,,,,,,,,,,,,,,,,,,,,,,,,,,,,,,,,,,,,,,,,,,,,,,,,,,,,,,,,,,,,,,,,,,,,,,,,,,,,,,,,,,,,,,,118.11581170000136,118.13136629998915,118.13136629998915,141.6525936999824,space,23.510943299974315,,,,,,,,,,,,,sub-130,1,stroop_test,59.9677493361942,
,,,,0.0,0.0,0.0,,,,,,,,,,,,,blau,red,r,0.0,r,1.0,0.3439109999744687,,,,,,,,,,0.0,0.0,0.0,4.0,141.6677389999968,,,,,,,,,,,,,,,,,141.66107959998772,141.76763509999728,142.56801620000624,142.5527812000073,,,,,,,,,,,,,,,,,,,,,,,,,,,,,,,,,,,142.55624459998216,142.56801620000624,142.56801620000624,142.9201567999844,r,1.0,0.3439109999744687,,,,,sub-130,1,stroop_test,59.9677493361942,
,,,,1.0,1.0,0.0,,,,,,,,,,,,,rot,red,r,1.0,r,1.0,0.3411510000005364,,,,,,,,,,0.0,1.0,1.0,0.0,142.93528770000557,,,,,,,,,,,,,,,,,142.92047720000846,143.7193585000059,144.51974889999838,144.50417880000896,,,,,,,,,,,,,,,,,,,,,,,,,,,,,,,,,,,144.50767059999637,144.51974889999838,144.51974889999838,144.87150680000195,r,1.0,0.3411510000005364,,,,,sub-130,1,stroop_test,59.9677493361942,
,,,,2.0,2.0,0.0,,,,,,,,,,,,,gelb,yellow,g,1.0,b,0.0,0.3812031000270508,,,,,,,,,,0.0,2.0,2.0,11.0,144.88678050000453,,,,,,,,,,,,,,,,,144.871871499985,145.23720509998384,146.03788930000155,146.02199499998824,,,,,,,,,,,,,,,,,,,,,,,,,,,,,,,,,,,146.02626240000245,146.03788930000155,146.03788930000155,146.4230084999872,b,0.0,0.3812031000270508,,,,,sub-130,1,stroop_test,59.9677493361942,
,,,,3.0,3.0,0.0,,,,,,,,,,,,,gelb,red,r,0.0,r,1.0,0.4937732000253163,,,,,,,,,,0.0,3.0,3.0,8.0,146.4382972999883,,,,,,,,,,,,,,,,,146.42333039999355,147.6224385999958,148.42300760000944,148.40731859998778,,,,,,,,,,,,,,,,,,,,,,,,,,,,,,,,,,,148.407841200009,148.42300760000944,148.42300760000944,148.92563589999918,r,1.0,0.4937732000253163,,,,,sub-130,1,stroop_test,59.9677493361942,
,,,,4.0,4.0,0.0,,,,,,,,,,,,,blau,blue,b,1.0,b,1.0,0.5207370999851264,,,,,,,,,,0.0,4.0,4.0,6.0,148.94019870000193,,,,,,,,,,,,,,,,,148.92611619998934,149.74097449998953,150.5416944999888,150.52597779998905,,,,,,,,,,,,,,,,,,,,,,,,,,,,,,,,,,,150.52977349999128,150.5416944999888,150.5416944999888,151.0769125999941,b,1.0,0.5207370999851264,,,,,sub-130,1,stroop_test,59.9677493361942,
,,,,5.0,5.0,0.0,,,,,,,,,,,,,blau,blue,b,1.0,b,1.0,0.3910669999895617,,,,,,,,,,0.0,5.0,5.0,5.0,151.0919986999943,,,,,,,,,,,,,,,,,151.07725529998424,151.19214040000224,151.99267449998297,151.9769091999915,,,,,,,,,,,,,,,,,,,,,,,,,,,,,,,,,,,151.9776325999992,151.99267449998297,151.99267449998297,152.39445200000773,b,1.0,0.3910669999895617,,,,,sub-130,1,stroop_test,59.9677493361942,
,,,,6.0,6.0,0.0,,,,,,,,,,,,,gelb,yellow,g,1.0,g,1.0,0.5294602999929339,,,,,,,,,,0.0,6.0,6.0,10.0,152.409765599994,,,,,,,,,,,,,,,,,152.3947591999895,152.76013179999427,153.5606611999974,153.54544039999018,,,,,,,,,,,,,,,,,,,,,,,,,,,,,,,,,,,153.54925099998945,153.5606611999974,153.5606611999974,154.0965004999889,g,1.0,0.5294602999929339,,,,,sub-130,1,stroop_test,59.9677493361942,
,,,,7.0,7.0,0.0,,,,,,,,,,,,,blau,yellow,g,0.0,g,1.0,0.4349306999938562,,,,,,,,,,0.0,7.0,7.0,7.0,154.1109976999869,,,,,,,,,,,,,,,,,154.09701649998897,155.31218499998795,156.1128849000088,156.09738140000263,,,,,,,,,,,,,,,,,,,,,,,,,,,,,,,,,,,156.1018466000096,156.1128849000088,156.1128849000088,156.56465190000017,g,1.0,0.4349306999938562,,,,,sub-130,1,stroop_test,59.9677493361942,
,,,,8.0,8.0,0.0,,,,,,,,,,,,,rot,red,r,1.0,r,1.0,0.3543619999836664,,,,,,,,,,0.0,8.0,8.0,1.0,156.57976900000358,,,,,,,,,,,,,,,,,156.5649754999904,156.93024680000963,157.7308146999858,157.715363299998,,,,,,,,,,,,,,,,,,,,,,,,,,,,,,,,,,,157.71925950000875,157.7308146999858,157.7308146999858,158.09940259999712,r,1.0,0.3543619999836664,,,,,sub-130,1,stroop_test,59.9677493361942,
,,,,9.0,9.0,0.0,,,,,,,,,,,,,gelb,blue,b,0.0,b,1.0,0.4330278999987058,,,,,,,,,,0.0,9.0,9.0,9.0,158.1143691999896,,,,,,,,,,,,,,,,,158.09980170000927,158.91511259999243,159.71564879998914,159.6997190999973,,,,,,,,,,,,,,,,,,,,,,,,,,,,,,,,,,,159.7033664000046,159.71564879998914,159.71564879998914,160.15146550000645,b,1.0,0.4330278999987058,,,,,sub-130,1,stroop_test,59.9677493361942,
,,,,10.0,10.0,0.0,,,,,,,,,,,,,rot,blue,b,0.0,b,1.0,0.3864083999942522,,,,,,,,,,0.0,10.0,10.0,2.0,160.16618850000668,,,,,,,,,,,,,,,,,160.1519660000049,160.96688629998243,161.7674321999948,161.75211750000017,,,,,,,,,,,,,,,,,,,,,,,,,,,,,,,,,,,161.75615060000564,161.7674321999948,161.7674321999948,162.16969360000803,b,1.0,0.3864083999942522,,,,,sub-130,1,stroop_test,59.9677493361942,
,,,,11.0,11.0,0.0,,,,,,,,,,,,,rot,yellow,g,0.0,g,1.0,0.3646474999841302,,,,,,,,,,0.0,11.0,11.0,3.0,162.18452199999592,,,,,,,,,,,,,,,,,162.17021149999346,163.38539350000792,164.1860192999884,164.17037780000828,,,,,,,,,,,,,,,,,,,,,,,,,,,,,,,,,,,164.1708809999982,164.1860192999884,164.1860192999884,164.55476209998596,g,1.0,0.3646474999841302,,,,,sub-130,1,stroop_test,59.9677493361942,
,,,,12.0,0.0,1.0,,,,,,,,,,,,,rot,red,r,1.0,r,1.0,0.3101782000157982,,,,,,,,,,1.0,0.0,12.0,0.0,164.5697852000012,,,,,,,,,,,,,,,,,164.55523399999947,165.7542317000043,166.55487210000865,166.5391951999918,,,,,,,,,,,,,,,,,,,,,,,,,,,,,,,,,,,166.53971029998502,166.55487210000865,166.55487210000865,166.87383309999132,r,1.0,0.3101782000157982,,,,,sub-130,1,stroop_test,59.9677493361942,
,,,,13.0,1.0,1.0,,,,,,,,,,,,,gelb,red,r,0.0,r,1.0,0.4051737999834586,,,,,,,,,,1.0,1.0,13.0,8.0,166.88841250000405,,,,,,,,,,,,,,,,,166.87431119999383,168.0893500999955,168.8899453000049,168.87447559999418,,,,,,,,,,,,,,,,,,,,,,,,,,,,,,,,,,,168.8778897000011,168.8899453000049,168.8899453000049,169.30856959999073,r,1.0,0.4051737999834586,,,,,sub-130,1,stroop_test,59.9677493361942,
,,,,14.0,2.0,1.0,,,,,,,,,,,,,gelb,yellow,g,1.0,g,1.0,0.3630587999941781,,,,,,,,,,1.0,2.0,14.0,10.0,169.32383770000888,,,,,,,,,,,,,,,,,169.3089199999813,170.5079133999825,171.30865369999083,171.29215520000434,,,,,,,,,,,,,,,,,,,,,,,,,,,,,,,,,,,171.29247310000935,171.30865369999083,171.30865369999083,171.67702669999562,g,1.0,0.3630587999941781,,,,,sub-130,1,stroop_test,59.9677493361942,
,,,,15.0,3.0,1.0,,,,,,,,,,,,,blau,blue,b,1.0,b,1.0,0.4494559000013396,,,,,,,,,,1.0,3.0,15.0,6.0,171.69219129998237,,,,,,,,,,,,,,,,,171.67732329998398,172.87627899998915,173.67733609999414,173.6611017999821,,,,,,,,,,,,,,,,,,,,,,,,,,,,,,,,,,,173.66364369998337,173.67733609999414,173.67733609999414,174.12956359999953,b,1.0,0.4494559000013396,,,,,sub-130,1,stroop_test,59.9677493361942,
,,,,16.0,4.0,1.0,,,,,,,,,,,,,blau,red,r,0.0,r,1.0,0.5928208000259474,,,,,,,,,,1.0,4.0,16.0,4.0,174.1443869000068,,,,,,,,,,,,,,,,,174.12989360000938,174.2445633999887,175.04534189999686,175.02910139999585,,,,,,,,,,,,,,,,,,,,,,,,,,,,,,,,,,,175.0295538000064,175.04534189999686,175.04534189999686,175.64749760000268,r,1.0,0.5928208000259474,,,,,sub-130,1,stroop_test,59.9677493361942,
,,,,17.0,5.0,1.0,,,,,,,,,,,,,gelb,yellow,g,1.0,g,1.0,0.5261351000226568,,,,,,,,,,1.0,5.0,17.0,11.0,175.66234799998347,,,,,,,,,,,,,,,,,175.64797709998675,176.0127926999994,176.81305559998145,176.7974785999977,,,,,,,,,,,,,,,,,,,,,,,,,,,,,,,,,,,176.80012470000656,176.81305559998145,176.81305559998145,177.3486559999874,g,1.0,0.5261351000226568,,,,,sub-130,1,stroop_test,59.9677493361942,
,,,,18.0,6.0,1.0,,,,,,,,,,,,,rot,yellow,g,0.0,g,1.0,0.4135112999938428,,,,,,,,,,1.0,6.0,18.0,3.0,177.3636915999814,,,,,,,,,,,,,,,,,177.34906429998227,178.54815290000988,179.34882759998436,179.33313429998816,,,,,,,,,,,,,,,,,,,,,,,,,,,,,,,,,,,179.33756300000823,179.34882759998436,179.34882759998436,179.767317299993,g,1.0,0.4135112999938428,,,,,sub-130,1,stroop_test,59.9677493361942,
,,,,19.0,7.0,1.0,,,,,,,,,,,,,rot,red,r,1.0,r,1.0,0.3420886000094469,,,,,,,,,,1.0,7.0,19.0,1.0,179.78237810000428,,,,,,,,,,,,,,,,,179.76765449999948,180.96685910000812,181.76838580000916,181.75151729999925,,,,,,,,,,,,,,,,,,,,,,,,,,,,,,,,,,,181.7520457000064,181.76838580000916,181.76838580000916,182.11931879998883,r,1.0,0.3420886000094469,,,,,sub-130,1,stroop_test,59.9677493361942,
,,,,20.0,8.0,1.0,,,,,,,,,,,,,gelb,blue,b,0.0,b,1.0,0.4468737000133842,,,,,,,,,,1.0,8.0,20.0,9.0,182.13440499998975,,,,,,,,,,,,,,,,,182.11969110000064,182.4846619000018,183.28549419998308,183.2698887999868,,,,,,,,,,,,,,,,,,,,,,,,,,,,,,,,,,,183.27299399999904,183.28549419998308,183.28549419998308,183.7374993999838,b,1.0,0.4468737000133842,,,,,sub-130,1,stroop_test,59.9677493361942,
,,,,21.0,9.0,1.0,,,,,,,,,,,,,blau,yellow,g,0.0,g,1.0,0.3369133000087458,,,,,,,,,,1.0,9.0,21.0,7.0,183.75239670000155,,,,,,,,,,,,,,,,,183.7380188000097,184.102655900002,184.9033633999934,184.88791289998332,,,,,,,,,,,,,,,,,,,,,,,,,,,,,,,,,,,184.8917027999996,184.9033633999934,184.9033633999934,185.25531690000207,g,1.0,0.3369133000087458,,,,,sub-130,1,stroop_test,59.9677493361942,
,,,,22.0,10.0,1.0,,,,,,,,,,,,,blau,blue,b,1.0,b,1.0,0.4682820999878458,,,,,,,,,,1.0,10.0,22.0,5.0,185.2703160000092,,,,,,,,,,,,,,,,,185.25569779999205,185.37042379999184,186.17108880000887,186.1552743999928,,,,,,,,,,,,,,,,,,,,,,,,,,,,,,,,,,,186.15573030000087,186.17108880000887,186.17108880000887,186.6557568999997,b,1.0,0.4682820999878458,,,,,sub-130,1,stroop_test,59.9677493361942,
,,,,23.0,11.0,1.0,,,,,,,,,,,,,rot,blue,b,0.0,b,1.0,0.3785260999866295,,,,,,,,,,1.0,11.0,23.0,2.0,186.67147979998845,,,,,,,,,,,,,,,,,186.6560477000021,187.0051649000088,187.80581950000487,187.789903900004,,,,,,,,,,,,,,,,,,,,,,,,,,,,,,,,,,,187.79529229999756,187.80581950000487,187.80581950000487,188.19076110000609,b,1.0,0.3785260999866295,,,,,sub-130,1,stroop_test,59.9677493361942,
,,,,24.0,0.0,2.0,,,,,,,,,,,,,blau,blue,b,1.0,b,1.0,0.3728812999906949,,,,,,,,,,2.0,0.0,24.0,5.0,188.2058873999922,,,,,,,,,,,,,,,,,188.19105910000508,188.30625749999308,189.10683849998168,189.09091520000948,,,,,,,,,,,,,,,,,,,,,,,,,,,,,,,,,,,189.0940009999904,189.10683849998168,189.10683849998168,189.49199079998647,b,1.0,0.3728812999906949,,,,,sub-130,1,stroop_test,59.9677493361942,
,,,,25.0,1.0,2.0,,,,,,,,,,,,,gelb,blue,b,0.0,b,1.0,0.5312595999857876,,,,,,,,,,2.0,1.0,25.0,9.0,189.5072120999976,,,,,,,,,,,,,,,,,189.49240419999117,190.29119200000423,191.0916765999864,191.07621189998463,,,,,,,,,,,,,,,,,,,,,,,,,,,,,,,,,,,191.0789885999984,191.0916765999864,191.0916765999864,191.62706120000803,b,1.0,0.5312595999857876,,,,,sub-130,1,stroop_test,59.9677493361942,
,,,,26.0,2.0,2.0,,,,,,,,,,,,,rot,red,r,1.0,r,1.0,0.5180628999951296,,,,,,,,,,2.0,2.0,26.0,0.0,191.64194919998408,,,,,,,,,,,,,,,,,191.6273513000051,191.99252070000512,192.7932557000022,192.777391599986,,,,,,,,,,,,,,,,,,,,,,,,,,,,,,,,,,,192.7807635999925,192.7932557000022,192.7932557000022,193.3286897999933,r,1.0,0.5180628999951296,,,,,sub-130,1,stroop_test,59.9677493361942,
,,,,27.0,3.0,2.0,,,,,,,,,,,,,blau,red,r,0.0,r,1.0,0.3900215000030584,,,,,,,,,,2.0,3.0,27.0,4.0,193.34383860000528,,,,,,,,,,,,,,,,,193.3291598999931,193.4438139999984,194.2445245999843,194.2288081999868,,,,,,,,,,,,,,,,,,,,,,,,,,,,,,,,,,,194.23239970000577,194.2445245999843,194.2445245999843,194.6464772000036,r,1.0,0.3900215000030584,,,,,sub-130,1,stroop_test,59.9677493361942,
,,,,28.0,4.0,2.0,,,,,,,,,,,,,rot,red,r,1.0,r,1.0,0.3514200000208802,,,,,,,,,,2.0,4.0,28.0,1.0,194.66136669999105,,,,,,,,,,,,,,,,,194.646883599984,195.84568699999363,196.69731980000503,196.63082629998095,,,,,,,,,,,,,,,,,,,,,,,,,,,,,,,,,,,196.69225609998105,196.69731980000503,196.69731980000503,197.06475079999652,r,1.0,0.3514200000208802,,,,,sub-130,1,stroop_test,59.9677493361942,
,,,,29.0,5.0,2.0,,,,,,,,,,,,,blau,yellow,g,0.0,g,1.0,0.3602162000024691,,,,,,,,,,2.0,5.0,29.0,7.0,197.08003859999008,,,,,,,,,,,,,,,,,197.0650898999884,197.18021329998737,197.9808614999929,197.9652410999988,,,,,,,,,,,,,,,,,,,,,,,,,,,,,,,,,,,197.9686745000072,197.9808614999929,197.9808614999929,198.34971229999792,g,1.0,0.3602162000024691,,,,,sub-130,1,stroop_test,59.9677493361942,
,,,,30.0,6.0,2.0,,,,,,,,,,,,,rot,blue,b,0.0,b,1.0,0.4119591999915428,,,,,,,,,,2.0,6.0,30.0,2.0,198.36453829999664,,,,,,,,,,,,,,,,,198.35022419999584,199.56552699999884,200.36614729999565,200.35048110000207,,,,,,,,,,,,,,,,,,,,,,,,,,,,,,,,,,,200.354066800006,200.36614729999565,200.36614729999565,200.78483029999188,b,1.0,0.4119591999915428,,,,,sub-130,1,stroop_test,59.9677493361942,
,,,,31.0,7.0,2.0,,,,,,,,,,,,,gelb,red,r,0.0,r,1.0,0.3955457000120077,,,,,,,,,,2.0,7.0,31.0,8.0,200.79983730000092,,,,,,,,,,,,,,,,,200.78516669999223,200.9000987999898,201.70081099998788,201.6851934999868,,,,,,,,,,,,,,,,,,,,,,,,,,,,,,,,,,,201.6891612999898,201.70081099998788,201.70081099998788,202.10175639999213,r,1.0,0.3955457000120077,,,,,sub-130,1,stroop_test,59.9677493361942,
,,,,32.0,8.0,2.0,,,,,,,,,,,,,rot,yellow,g,0.0,g,1.0,0.3773692999966442,,,,,,,,,,2.0,8.0,32.0,3.0,202.1175879999937,,,,,,,,,,,,,,,,,202.10201279999453,202.20109859999505,203.0016595000052,202.9862126999942,,,,,,,,,,,,,,,,,,,,,,,,,,,,,,,,,,,202.99119519998203,203.0016595000052,203.0016595000052,203.38673030000064,g,1.0,0.3773692999966442,,,,,sub-130,1,stroop_test,59.9677493361942,
,,,,33.0,9.0,2.0,,,,,,,,,,,,,gelb,yellow,g,1.0,g,1.0,0.4347600000037346,,,,,,,,,,2.0,9.0,33.0,11.0,203.4021517999936,,,,,,,,,,,,,,,,,203.38704040000448,203.75238809999428,204.5531786000065,204.5374914999993,,,,,,,,,,,,,,,,,,,,,,,,,,,,,,,,,,,204.54157169998507,204.5531786000065,204.5531786000065,205.0047052000009,g,1.0,0.4347600000037346,,,,,sub-130,1,stroop_test,59.9677493361942,
,,,,34.0,10.0,2.0,,,,,,,,,,,,,gelb,yellow,g,1.0,g,1.0,0.4117353999754414,,,,,,,,,,2.0,10.0,34.0,10.0,205.0198887999868,,,,,,,,,,,,,,,,,205.00504600000568,205.37021039999672,206.17092380000395,206.1555749999825,,,,,,,,,,,,,,,,,,,,,,,,,,,,,,,,,,,206.15615699999037,206.17092380000395,206.17092380000395,206.58981249999488,g,1.0,0.4117353999754414,,,,,sub-130,1,stroop_test,59.9677493361942,
,,,,35.0,11.0,2.0,,,,,,,,,,,,,blau,blue,b,1.0,b,1.0,0.4824350999842863,,,,,,,,,,2.0,11.0,35.0,6.0,206.604503199982,,,,,,,,,,,,,,,,,206.59014159999788,206.95495819998905,207.7555003000016,207.74020870000825,,,,,,,,,,,,,,,,,,,,,,,,,,,,,,,,,,,207.74462499999208,207.7555003000016,207.7555003000016,208.2408490999951,b,1.0,0.4824350999842863,,,,,sub-130,1,stroop_test,59.9677493361942,
,,,,36.0,0.0,3.0,,,,,,,,,,,,,gelb,blue,b,0.0,b,1.0,0.7487291000143159,,,,,,,,,,3.0,0.0,36.0,9.0,208.2560484999849,,,,,,,,,,,,,,,,,208.24115220000385,208.3561837000016,209.15688349999252,209.1411601,,,,,,,,,,,,,,,,,,,,,,,,,,,,,,,,,,,209.1445917999954,209.15688349999252,209.15688349999252,209.9089655999851,b,1.0,0.7487291000143159,,,,,sub-130,1,stroop_test,59.9677493361942,
,,,,37.0,1.0,3.0,,,,,,,,,,,,,gelb,yellow,g,1.0,g,1.0,0.492906600004062,,,,,,,,,,3.0,1.0,37.0,11.0,209.9240171999845,,,,,,,,,,,,,,,,,209.90931789999013,211.1083163000003,211.90914740000156,211.89319719999912,,,,,,,,,,,,,,,,,,,,,,,,,,,,,,,,,,,211.89370739998407,211.90914740000156,211.90914740000156,212.4108711000008,g,1.0,0.492906600004062,,,,,sub-130,1,stroop_test,59.9677493361942,
,,,,38.0,2.0,3.0,,,,,,,,,,,,,blau,red,r,0.0,r,1.0,0.3103149000089615,,,,,,,,,,3.0,2.0,38.0,4.0,212.4262044999923,,,,,,,,,,,,,,,,,212.4112157000054,213.21014519999156,214.01081979999435,213.9952714999963,,,,,,,,,,,,,,,,,,,,,,,,,,,,,,,,,,,213.99982930000988,214.01081979999435,214.01081979999435,214.32918490000884,r,1.0,0.3103149000089615,,,,,sub-130,1,stroop_test,59.9677493361942,
,,,,39.0,3.0,3.0,,,,,,,,,,,,,rot,red,r,1.0,r,1.0,0.3847717999888118,,,,,,,,,,3.0,3.0,39.0,0.0,214.3445010999858,,,,,,,,,,,,,,,,,214.32948809998925,215.5288445999904,216.3294629000011,216.3138507999829,,,,,,,,,,,,,,,,,,,,,,,,,,,,,,,,,,,216.31864439998756,216.3294629000011,216.3294629000011,216.73128859998545,r,1.0,0.3847717999888118,,,,,sub-130,1,stroop_test,59.9677493361942,
,,,,40.0,4.0,3.0,,,,,,,,,,,,,gelb,red,r,0.0,r,1.0,0.3698015000263694,,,,,,,,,,3.0,4.0,40.0,8.0,216.74641930000507,,,,,,,,,,,,,,,,,216.7316179999907,217.53058079999755,218.3310751999961,218.3153164999967,,,,,,,,,,,,,,,,,,,,,,,,,,,,,,,,,,,218.31898660000297,218.3310751999961,218.3310751999961,218.71649869999965,r,1.0,0.3698015000263694,,,,,sub-130,1,stroop_test,59.9677493361942,
,,,,41.0,5.0,3.0,,,,,,,,,,,,,gelb,yellow,g,1.0,g,1.0,0.4528370999905746,,,,,,,,,,3.0,5.0,41.0,10.0,218.7315403999819,,,,,,,,,,,,,,,,,218.71687169998768,219.08164099999703,219.88227760000157,219.8665461000055,,,,,,,,,,,,,,,,,,,,,,,,,,,,,,,,,,,219.8671373999969,219.88227760000157,219.88227760000157,220.35088529999484,g,1.0,0.4528370999905746,,,,,sub-130,1,stroop_test,59.9677493361942,
,,,,42.0,6.0,3.0,,,,,,,,,,,,,rot,yellow,g,0.0,g,1.0,0.3949241999944206,,,,,,,,,,3.0,6.0,42.0,3.0,220.3661042999884,,,,,,,,,,,,,,,,,220.35123999998905,221.1667935999867,221.9673787000065,221.95197309998912,,,,,,,,,,,,,,,,,,,,,,,,,,,,,,,,,,,221.95593779999763,221.9673787000065,221.9673787000065,222.36974379999447,g,1.0,0.3949241999944206,,,,,sub-130,1,stroop_test,59.9677493361942,
,,,,43.0,7.0,3.0,,,,,,,,,,,,,blau,yellow,g,0.0,g,1.0,0.4018700000015087,,,,,,,,,,3.0,7.0,43.0,7.0,222.3843966999848,,,,,,,,,,,,,,,,,222.3700896000082,222.7347720999969,223.53544410000904,223.5196091999824,,,,,,,,,,,,,,,,,,,,,,,,,,,,,,,,,,,223.52395460000844,223.53544410000904,223.53544410000904,223.9543361999968,g,1.0,0.4018700000015087,,,,,sub-130,1,stroop_test,59.9677493361942,
,,,,44.0,8.0,3.0,,,,,,,,,,,,,rot,red,r,1.0,r,1.0,0.4619472000049427,,,,,,,,,,3.0,8.0,44.0,1.0,223.96915640000952,,,,,,,,,,,,,,,,,223.95486589998472,224.76968399999896,225.5703625000024,225.55480849999003,,,,,,,,,,,,,,,,,,,,,,,,,,,,,,,,,,,225.5589178999944,225.5703625000024,225.5703625000024,226.03948780000792,r,1.0,0.4619472000049427,,,,,sub-130,1,stroop_test,59.9677493361942,
,,,,45.0,9.0,3.0,,,,,,,,,,,,,blau,blue,b,1.0,b,1.0,0.4182234999898355,,,,,,,,,,3.0,9.0,45.0,6.0,226.05421470000877,,,,,,,,,,,,,,,,,226.03996609998285,226.4043975000095,227.20520779999788,227.18892519999645,,,,,,,,,,,,,,,,,,,,,,,,,,,,,,,,,,,227.1913651000068,227.20520779999788,227.20520779999788,227.64039179999963,b,1.0,0.4182234999898355,,,,,sub-130,1,stroop_test,59.9677493361942,
,,,,46.0,10.0,3.0,,,,,,,,,,,,,rot,blue,b,0.0,b,1.0,0.4661092000023927,,,,,,,,,,3.0,10.0,46.0,2.0,227.6553358999954,,,,,,,,,,,,,,,,,227.64074179998715,227.75545299999067,228.5560877000098,228.540379699989,,,,,,,,,,,,,,,,,,,,,,,,,,,,,,,,,,,228.54392199998256,228.5560877000098,228.5560877000098,229.0253623999888,b,1.0,0.4661092000023927,,,,,sub-130,1,stroop_test,59.9677493361942,
,,,,47.0,11.0,3.0,,,,,,,,,,,,,blau,blue,b,1.0,b,1.0,0.3856315999873914,,,,,,,,,,3.0,11.0,47.0,5.0,229.04003070000908,,,,,,,,,,,,,,,,,229.025841900002,229.3901848999958,230.1908562000026,230.1753835999989,,,,,,,,,,,,,,,,,,,,,,,,,,,,,,,,,,,230.179684200004,230.1908562000026,230.1908562000026,230.59282799999343,b,1.0,0.3856315999873914,,,,,sub-130,1,stroop_test,59.9677493361942,
,,,,48.0,0.0,4.0,,,,,,,,,,,,,blau,blue,b,1.0,b,1.0,0.3400137999851722,,,,,,,,,,4.0,0.0,48.0,6.0,230.6077884999977,,,,,,,,,,,,,,,,,230.59315949998563,230.9581635000068,231.75897299998903,231.7427333999949,,,,,,,,,,,,,,,,,,,,,,,,,,,,,,,,,,,231.7431043999968,231.75897299998903,231.75897299998903,232.11078630000705,b,1.0,0.3400137999851722,,,,,sub-130,1,stroop_test,59.9677493361942,
,,,,49.0,1.0,4.0,,,,,,,,,,,,,rot,yellow,g,0.0,g,1.0,0.8489416999800596,,,,,,,,,,4.0,1.0,49.0,3.0,232.1257100999937,,,,,,,,,,,,,,,,,232.11112159999905,232.4763092999929,233.27684059998137,233.26125939999477,,,,,,,,,,,,,,,,,,,,,,,,,,,,,,,,,,,233.26521270000376,233.27684059998137,233.27684059998137,234.12884039999332,g,1.0,0.8489416999800596,,,,,sub-130,1,stroop_test,59.9677493361942,
,,,,50.0,2.0,4.0,,,,,,,,,,,,,gelb,yellow,g,1.0,g,1.0,0.3757633999921381,,,,,,,,,,4.0,2.0,50.0,11.0,234.14403820000007,,,,,,,,,,,,,,,,,234.1291437000036,234.47791600000343,235.2786469999992,235.26251369999957,,,,,,,,,,,,,,,,,,,,,,,,,,,,,,,,,,,235.26531049999176,235.2786469999992,235.2786469999992,235.6638537999825,g,1.0,0.3757633999921381,,,,,sub-130,1,stroop_test,59.9677493361942,
,,,,51.0,3.0,4.0,,,,,,,,,,,,,rot,red,r,1.0,r,1.0,0.3912336000066716,,,,,,,,,,4.0,3.0,51.0,0.0,235.67866899998623,,,,,,,,,,,,,,,,,235.66426140000112,235.77906939998505,236.57953129999805,236.5639486,,,,,,,,,,,,,,,,,,,,,,,,,,,,,,,,,,,236.56794300000183,236.57953129999805,236.57953129999805,236.9812802000088,r,1.0,0.3912336000066716,,,,,sub-130,1,stroop_test,59.9677493361942,
,,,,52.0,4.0,4.0,,,,,,,,,,,,,blau,yellow,g,0.0,g,1.0,0.3993831999832764,,,,,,,,,,4.0,4.0,52.0,7.0,236.99646699998996,,,,,,,,,,,,,,,,,236.98167189999367,238.1808655000059,238.9812524000008,238.96531579998555,,,,,,,,,,,,,,,,,,,,,,,,,,,,,,,,,,,238.96812710000088,238.9812524000008,238.9812524000008,239.3829007000022,g,1.0,0.3993831999832764,,,,,sub-130,1,stroop_test,59.9677493361942,
,,,,53.0,5.0,4.0,,,,,,,,,,,,,rot,blue,b,0.0,b,1.0,0.5587627999775577,,,,,,,,,,4.0,5.0,53.0,2.0,239.39808439998887,,,,,,,,,,,,,,,,,239.38315819998388,239.49821749998955,240.2991541000083,240.28329510000185,,,,,,,,,,,,,,,,,,,,,,,,,,,,,,,,,,,240.28631090000272,240.2991541000083,240.2991541000083,240.8683650000021,b,1.0,0.5587627999775577,,,,,sub-130,1,stroop_test,59.9677493361942,
,,,,54.0,6.0,4.0,,,,,,,,,,,,,gelb,red,r,0.0,r,1.0,0.2991713999945204,,,,,,,,,,4.0,6.0,54.0,8.0,240.8831875000033,,,,,,,,,,,,,,,,,240.86883230000967,241.23352730000624,242.0341683999868,242.01844709998116,,,,,,,,,,,,,,,,,,,,,,,,,,,,,,,,,,,242.02149579999968,242.0341683999868,242.0341683999868,242.336195299984,r,1.0,0.2991713999945204,,,,,sub-130,1,stroop_test,59.9677493361942,
,,,,55.0,7.0,4.0,,,,,,,,,,,,,blau,red,r,0.0,r,1.0,0.414032499975292,,,,,,,,,,4.0,7.0,55.0,4.0,242.3510210000095,,,,,,,,,,,,,,,,,242.33665409998503,242.4511063999962,243.2517817000044,243.23580799999763,,,,,,,,,,,,,,,,,,,,,,,,,,,,,,,,,,,243.23858249999464,243.2517817000044,243.2517817000044,243.67011079998335,r,1.0,0.414032499975292,,,,,sub-130,1,stroop_test,59.9677493361942,
,,,,56.0,8.0,4.0,,,,,,,,,,,,,gelb,yellow,g,1.0,g,1.0,0.460151399980532,,,,,,,,,,4.0,8.0,56.0,10.0,243.6852898999932,,,,,,,,,,,,,,,,,243.67044689998147,244.86982009999335,245.67067930000485,245.6548616999935,,,,,,,,,,,,,,,,,,,,,,,,,,,,,,,,,,,245.65952019998804,245.67067930000485,245.67067930000485,246.1390332999872,g,1.0,0.460151399980532,,,,,sub-130,1,stroop_test,59.9677493361942,
,,,,57.0,9.0,4.0,,,,,,,,,,,,,blau,blue,b,1.0,b,1.0,0.4647712000005413,,,,,,,,,,4.0,9.0,57.0,5.0,246.15432450000665,,,,,,,,,,,,,,,,,246.1394303999841,246.25440189999065,247.05493939999724,247.03901249999765,,,,,,,,,,,,,,,,,,,,,,,,,,,,,,,,,,,247.0422802999965,247.05493939999724,247.05493939999724,247.5238054000074,b,1.0,0.4647712000005413,,,,,sub-130,1,stroop_test,59.9677493361942,
,,,,58.0,10.0,4.0,,,,,,,,,,,,,gelb,blue,b,0.0,b,1.0,0.5188171000045259,,,,,,,,,,4.0,10.0,58.0,9.0,247.53828750000685,,,,,,,,,,,,,,,,,247.52426710000145,248.33936349998112,249.1399868000008,249.12419619999127,,,,,,,,,,,,,,,,,,,,,,,,,,,,,,,,,,,249.12715729998308,249.1399868000008,249.1399868000008,249.6752030999924,b,1.0,0.5188171000045259,,,,,sub-130,1,stroop_test,59.9677493361942,
,,,,59.0,11.0,4.0,,,,,,,,,,,,,rot,red,r,1.0,r,1.0,0.4771556000050623,,,,,,,,,,4.0,11.0,59.0,1.0,249.69037219998427,,,,,,,,,,,,,,,,,249.67557669998496,250.0406679000007,250.84144009999,250.82550919998903,,,,,,,,,,,,,,,,,,,,,,,,,,,,,,,,,,,250.82865609999865,250.84144009999,250.84144009999,251.32656919999863,r,1.0,0.4771556000050623,,,,,sub-130,1,stroop_test,59.9677493361942,
,,,,60.0,0.0,5.0,,,,,,,,,,,,,gelb,blue,b,0.0,b,1.0,0.5462199999892619,,,,,,,,,,5.0,0.0,60.0,9.0,251.34182289999444,,,,,,,,,,,,,,,,,251.3268848999869,252.14241249999031,252.9431553999893,252.92737739998847,,,,,,,,,,,,,,,,,,,,,,,,,,,,,,,,,,,252.9303641000006,252.9431553999893,252.9431553999893,253.4955922999943,b,1.0,0.5462199999892619,,,,,sub-130,1,stroop_test,59.9677493361942,
,,,,61.0,1.0,5.0,,,,,,,,,,,,,blau,red,r,0.0,r,1.0,0.3687185000162571,,,,,,,,,,5.0,1.0,61.0,4.0,253.51021419998145,,,,,,,,,,,,,,,,,253.4961054000014,253.86059039999964,254.66108019999228,254.64550139999483,,,,,,,,,,,,,,,,,,,,,,,,,,,,,,,,,,,254.6502665999869,254.66108019999228,254.66108019999228,255.0466411999951,r,1.0,0.3687185000162571,,,,,sub-130,1,stroop_test,59.9677493361942,
,,,,62.0,2.0,5.0,,,,,,,,,,,,,gelb,red,r,0.0,r,1.0,0.4308393000101205,,,,,,,,,,5.0,2.0,62.0,8.0,255.0615261000057,,,,,,,,,,,,,,,,,255.04697809999925,256.2458578000078,257.04632590000983,257.0307843000046,,,,,,,,,,,,,,,,,,,,,,,,,,,,,,,,,,,257.0345448000008,257.04632590000983,257.04632590000983,257.4822246999829,r,1.0,0.4308393000101205,,,,,sub-130,1,stroop_test,59.9677493361942,
,,,,63.0,3.0,5.0,,,,,,,,,,,,,rot,red,r,1.0,r,1.0,0.3738714000210166,,,,,,,,,,5.0,3.0,63.0,1.0,257.4970218999952,,,,,,,,,,,,,,,,,257.48271539999405,257.5971479,258.39750739999,258.381673099997,,,,,,,,,,,,,,,,,,,,,,,,,,,,,,,,,,,258.3844085999881,258.39750739999,258.39750739999,258.7829454999883,r,1.0,0.3738714000210166,,,,,sub-130,1,stroop_test,59.9677493361942,
,,,,64.0,4.0,5.0,,,,,,,,,,,,,blau,blue,b,1.0,b,1.0,0.4867454999766778,,,,,,,,,,5.0,4.0,64.0,6.0,258.7980692999845,,,,,,,,,,,,,,,,,258.78334999998333,259.598685200006,260.3993657999963,260.3837569000025,,,,,,,,,,,,,,,,,,,,,,,,,,,,,,,,,,,260.3874833000009,260.3993657999963,260.3993657999963,260.9015194000094,b,1.0,0.4867454999766778,,,,,sub-130,1,stroop_test,59.9677493361942,
,,,,65.0,5.0,5.0,,,,,,,,,,,,,rot,yellow,g,0.0,g,1.0,0.6291681999864522,,,,,,,,,,5.0,5.0,65.0,3.0,260.91642170000705,,,,,,,,,,,,,,,,,260.90187709999736,261.2667292999977,262.0673763999948,262.0516682000016,,,,,,,,,,,,,,,,,,,,,,,,,,,,,,,,,,,262.05623819999164,262.0673763999948,262.0673763999948,262.70307359998696,g,1.0,0.6291681999864522,,,,,sub-130,1,stroop_test,59.9677493361942,
,,,,66.0,6.0,5.0,,,,,,,,,,,,,gelb,yellow,g,1.0,g,1.0,0.3849475999886635,,,,,,,,,,5.0,6.0,66.0,10.0,262.7180631000083,,,,,,,,,,,,,,,,,262.70345889998134,262.81808939998155,263.6187191999925,263.6029955999984,,,,,,,,,,,,,,,,,,,,,,,,,,,,,,,,,,,263.60698109999066,263.6187191999925,263.6187191999925,264.02077639999334,g,1.0,0.3849475999886635,,,,,sub-130,1,stroop_test,59.9677493361942,
,,,,67.0,7.0,5.0,,,,,,,,,,,,,rot,blue,b,0.0,b,1.0,0.7648995000054128,,,,,,,,,,5.0,7.0,67.0,2.0,264.0356928999827,,,,,,,,,,,,,,,,,264.0211519000004,265.2198164000001,266.0207224999904,266.005096399982,,,,,,,,,,,,,,,,,,,,,,,,,,,,,,,,,,,266.01025779999327,266.0207224999904,266.0207224999904,266.7896727999905,b,1.0,0.7648995000054128,,,,,sub-130,1,stroop_test,59.9677493361942,
,,,,68.0,8.0,5.0,,,,,,,,,,,,,gelb,yellow,g,1.0,g,1.0,0.495416199992178,,,,,,,,,,5.0,8.0,68.0,11.0,266.80455149998306,,,,,,,,,,,,,,,,,266.7900607000047,267.15511980000883,267.95548859998235,267.9399842999992,,,,,,,,,,,,,,,,,,,,,,,,,,,,,,,,,,,267.9442168000096,267.95548859998235,267.95548859998235,268.45774419998634,g,1.0,0.495416199992178,,,,,sub-130,1,stroop_test,59.9677493361942,
,,,,69.0,9.0,5.0,,,,,,,,,,,,,rot,red,r,1.0,r,1.0,0.3231137999973725,,,,,,,,,,5.0,9.0,69.0,0.0,268.4727389999898,,,,,,,,,,,,,,,,,268.4581826000067,268.572808500001,269.3734763999819,269.3575742999965,,,,,,,,,,,,,,,,,,,,,,,,,,,,,,,,,,,269.3612052999961,269.3734763999819,269.3734763999819,269.70854849999887,r,1.0,0.3231137999973725,,,,,sub-130,1,stroop_test,59.9677493361942,
,,,,70.0,10.0,5.0,,,,,,,,,,,,,blau,blue,b,1.0,b,1.0,0.3902814000030048,,,,,,,,,,5.0,10.0,70.0,5.0,269.723656999995,,,,,,,,,,,,,,,,,269.70893039999646,270.5075840000063,271.30830279999645,271.29281099999207,,,,,,,,,,,,,,,,,,,,,,,,,,,,,,,,,,,271.2962527000054,271.30830279999645,271.30830279999645,271.7098816999933,b,1.0,0.3902814000030048,,,,,sub-130,1,stroop_test,59.9677493361942,
,,,,71.0,11.0,5.0,,,,,,,,,,,,,blau,yellow,g,0.0,g,1.0,0.4575080999929923,,,,,,,,,,5.0,11.0,71.0,7.0,271.72546429999056,,,,,,,,,,,,,,,,,271.71018809999805,272.5096721999871,273.31011259998195,273.2943226000061,,,,,,,,,,,,,,,,,,,,,,,,,,,,,,,,,,,273.2948730000062,273.31011259998195,273.31011259998195,273.7790174999973,g,1.0,0.4575080999929923,,,,,sub-130,1,stroop_test,59.9677493361942,
,,,,72.0,0.0,6.0,,,,,,,,,,,,,rot,yellow,g,0.0,g,1.0,0.4124645999982022,,,,,,,,,,6.0,0.0,72.0,3.0,273.79369299998507,,,,,,,,,,,,,,,,,273.77958109998144,274.143949099991,274.9446756999823,274.9291266000073,,,,,,,,,,,,,,,,,,,,,,,,,,,,,,,,,,,274.93296750000445,274.9446756999823,274.9446756999823,275.3637114999874,g,1.0,0.4124645999982022,,,,,sub-130,1,stroop_test,59.9677493361942,
,,,,73.0,1.0,6.0,,,,,,,,,,,,,gelb,yellow,g,1.0,g,1.0,0.480188099987572,,,,,,,,,,6.0,1.0,73.0,11.0,275.3784161999938,,,,,,,,,,,,,,,,,275.36417169999913,275.47842080000555,276.2790982000006,276.26348669998697,,,,,,,,,,,,,,,,,,,,,,,,,,,,,,,,,,,276.26737749998574,276.2790982000006,276.2790982000006,276.7644303999841,g,1.0,0.480188099987572,,,,,sub-130,1,stroop_test,59.9677493361942,
,,,,74.0,2.0,6.0,,,,,,,,,,,,,blau,yellow,g,0.0,g,1.0,0.3502737000235356,,,,,,,,,,6.0,2.0,74.0,7.0,276.77950350000174,,,,,,,,,,,,,,,,,276.76476489999914,277.56358029998955,278.36436720000347,278.3486972999817,,,,,,,,,,,,,,,,,,,,,,,,,,,,,,,,,,,278.35239240000374,278.36436720000347,278.36436720000347,278.7165795000037,g,1.0,0.3502737000235356,,,,,sub-130,1,stroop_test,59.9677493361942,
,,,,75.0,3.0,6.0,,,,,,,,,,,,,rot,red,r,1.0,r,1.0,0.4194949999800883,,,,,,,,,,6.0,3.0,75.0,1.0,278.73117290000664,,,,,,,,,,,,,,,,,278.7171463999839,278.8312484000053,279.63201499998104,279.6161281999957,,,,,,,,,,,,,,,,,,,,,,,,,,,,,,,,,,,279.618936999992,279.63201499998104,279.63201499998104,280.067559099989,r,1.0,0.4194949999800883,,,,,sub-130,1,stroop_test,59.9677493361942,
,,,,76.0,4.0,6.0,,,,,,,,,,,,,gelb,red,r,0.0,r,1.0,0.3912949000077788,,,,,,,,,,6.0,4.0,76.0,8.0,280.08215380000183,,,,,,,,,,,,,,,,,280.0680516999855,280.8830497000017,281.68371990000014,281.66781879999326,,,,,,,,,,,,,,,,,,,,,,,,,,,,,,,,,,,281.6707286000019,281.68371990000014,281.68371990000014,282.0860549999925,r,1.0,0.3912949000077788,,,,,sub-130,1,stroop_test,59.9677493361942,
,,,,77.0,5.0,6.0,,,,,,,,,,,,,blau,blue,b,1.0,b,1.0,0.4129747000115458,,,,,,,,,,6.0,5.0,77.0,6.0,282.1006839000038,,,,,,,,,,,,,,,,,282.086530200002,283.3019006999966,284.1022970000049,284.0864174999879,,,,,,,,,,,,,,,,,,,,,,,,,,,,,,,,,,,284.0895485999936,284.1022970000049,284.1022970000049,284.52057849999983,b,1.0,0.4129747000115458,,,,,sub-130,1,stroop_test,59.9677493361942,
,,,,78.0,6.0,6.0,,,,,,,,,,,,,gelb,blue,b,0.0,b,1.0,0.352838699996937,,,,,,,,,,6.0,6.0,78.0,9.0,284.5358830000041,,,,,,,,,,,,,,,,,284.52115899999626,285.31989579999936,286.1204488000076,286.1050366999989,,,,,,,,,,,,,,,,,,,,,,,,,,,,,,,,,,,286.10994100000244,286.1204488000076,286.1204488000076,286.48904310000944,b,1.0,0.352838699996937,,,,,sub-130,1,stroop_test,59.9677493361942,
,,,,79.0,7.0,6.0,,,,,,,,,,,,,gelb,yellow,g,1.0,g,1.0,0.3756943000189494,,,,,,,,,,6.0,7.0,79.0,10.0,286.5043241000094,,,,,,,,,,,,,,,,,286.48934269999154,287.6885384999914,288.4893868000072,288.4737338999985,,,,,,,,,,,,,,,,,,,,,,,,,,,,,,,,,,,288.47422450000886,288.4893868000072,288.4893868000072,288.87515539999004,g,1.0,0.3756943000189494,,,,,sub-130,1,stroop_test,59.9677493361942,
,,,,80.0,8.0,6.0,,,,,,,,,,,,,blau,red,r,0.0,r,1.0,0.3631175000045914,,,,,,,,,,6.0,8.0,80.0,4.0,288.8896672999836,,,,,,,,,,,,,,,,,288.8756446999905,289.69028740000795,290.4909096999909,290.4751477999962,,,,,,,,,,,,,,,,,,,,,,,,,,,,,,,,,,,290.4790912999888,290.4909096999909,290.4909096999909,290.85969359998126,r,1.0,0.3631175000045914,,,,,sub-130,1,stroop_test,59.9677493361942,
,,,,81.0,9.0,6.0,,,,,,,,,,,,,blau,blue,b,1.0,b,1.0,0.4638034999952651,,,,,,,,,,6.0,9.0,81.0,5.0,290.8746533000085,,,,,,,,,,,,,,,,,290.86006589999306,292.058907300001,292.8596095999819,292.8438341000001,,,,,,,,,,,,,,,,,,,,,,,,,,,,,,,,,,,292.8443203000061,292.8596095999819,292.8596095999819,293.32817900000373,b,1.0,0.4638034999952651,,,,,sub-130,1,stroop_test,59.9677493361942,
,,,,82.0,10.0,6.0,,,,,,,,,,,,,rot,red,r,1.0,r,1.0,0.3772133000020403,,,,,,,,,,6.0,10.0,82.0,0.0,293.34314569999697,,,,,,,,,,,,,,,,,293.32853810000233,294.12711129998206,294.92798149999,294.9122938000073,,,,,,,,,,,,,,,,,,,,,,,,,,,,,,,,,,,294.91689279998536,294.92798149999,294.92798149999,295.31315989998984,r,1.0,0.3772133000020403,,,,,sub-130,1,stroop_test,59.9677493361942,
,,,,83.0,11.0,6.0,,,,,,,,,,,,,rot,blue,b,0.0,b,1.0,0.4340490000031423,,,,,,,,,,6.0,11.0,83.0,2.0,295.3280192999809,,,,,,,,,,,,,,,,,295.31350839999504,296.51240659999894,297.31328979998943,297.2976400000043,,,,,,,,,,,,,,,,,,,,,,,,,,,,,,,,,,,297.298265999998,297.31328979998943,297.31328979998943,297.7488768000039,b,1.0,0.4340490000031423,,,,,sub-130,1,stroop_test,59.9677493361942,
,,,,84.0,0.0,7.0,,,,,,,,,,,,,gelb,red,r,0.0,r,1.0,0.3846363999764435,,,,,,,,,,7.0,0.0,84.0,8.0,297.7635233000037,,,,,,,,,,,,,,,,,297.7492424999946,298.5643254999886,299.36515789999976,299.3491826999816,,,,,,,,,,,,,,,,,,,,,,,,,,,,,,,,,,,299.3527267999889,299.36515789999976,299.36515789999976,299.7669209000014,r,1.0,0.3846363999764435,,,,,sub-130,1,stroop_test,59.9677493361942,
,,,,85.0,1.0,7.0,,,,,,,,,,,,,rot,red,r,1.0,r,1.0,0.3692317999957595,,,,,,,,,,7.0,1.0,85.0,0.0,299.7820044999826,,,,,,,,,,,,,,,,,299.7672617000062,300.966388300003,301.767024700006,301.7510957999912,,,,,,,,,,,,,,,,,,,,,,,,,,,,,,,,,,,301.7539657999878,301.767024700006,301.767024700006,302.1526613000024,r,1.0,0.3692317999957595,,,,,sub-130,1,stroop_test,59.9677493361942,
,,,,86.0,2.0,7.0,,,,,,,,,,,,,rot,yellow,g,0.0,g,1.0,0.7554713999852538,,,,,,,,,,7.0,2.0,86.0,3.0,302.167300000001,,,,,,,,,,,,,,,,,302.1531527999905,303.3682379999955,304.16911479999544,304.1533824999933,,,,,,,,,,,,,,,,,,,,,,,,,,,,,,,,,,,304.15389650000725,304.16911479999544,304.16911479999544,304.9381774000067,g,1.0,0.7554713999852538,,,,,sub-130,1,stroop_test,59.9677493361942,
,,,,87.0,3.0,7.0,,,,,,,,,,,,,rot,blue,b,0.0,b,1.0,0.4812021999969147,,,,,,,,,,7.0,3.0,87.0,2.0,304.95280410000123,,,,,,,,,,,,,,,,,304.9386928000022,305.7536063999869,306.5543951999862,306.5383559000038,,,,,,,,,,,,,,,,,,,,,,,,,,,,,,,,,,,306.53881120000733,306.5543951999862,306.5543951999862,307.03968929999974,b,1.0,0.4812021999969147,,,,,sub-130,1,stroop_test,59.9677493361942,
,,,,88.0,4.0,7.0,,,,,,,,,,,,,gelb,yellow,g,1.0,g,1.0,0.3947800000023562,,,,,,,,,,7.0,4.0,88.0,11.0,307.0548284999968,,,,,,,,,,,,,,,,,307.04002660000697,307.4049815000035,308.2057422999933,308.18988950000494,,,,,,,,,,,,,,,,,,,,,,,,,,,,,,,,,,,308.1933512999967,308.2057422999933,308.2057422999933,308.60748559999047,g,1.0,0.3947800000023562,,,,,sub-130,1,stroop_test,59.9677493361942,
,,,,89.0,5.0,7.0,,,,,,,,,,,,,gelb,yellow,g,1.0,g,1.0,0.3391550999949686,,,,,,,,,,7.0,5.0,89.0,10.0,308.6226464000065,,,,,,,,,,,,,,,,,308.6077413999883,308.72291039998527,309.52332380000735,309.50774359999923,,,,,,,,,,,,,,,,,,,,,,,,,,,,,,,,,,,309.50826249999227,309.52332380000735,309.52332380000735,309.8754925999965,g,1.0,0.3391550999949686,,,,,sub-130,1,stroop_test,59.9677493361942,
,,,,90.0,6.0,7.0,,,,,,,,,,,,,blau,red,r,0.0,r,1.0,0.3513743999938015,,,,,,,,,,7.0,6.0,90.0,4.0,309.89036039999337,,,,,,,,,,,,,,,,,309.8760188999877,311.074720500008,311.8755058000097,311.8596745999821,,,,,,,,,,,,,,,,,,,,,,,,,,,,,,,,,,,311.8632936000067,311.8755058000097,311.8755058000097,312.2441152999818,r,1.0,0.3513743999938015,,,,,sub-130,1,stroop_test,59.9677493361942,
,,,,91.0,7.0,7.0,,,,,,,,,,,,,rot,red,r,1.0,r,1.0,0.34831440000562,,,,,,,,,,7.0,7.0,91.0,1.0,312.25896269999794,,,,,,,,,,,,,,,,,312.2445017999853,312.60927909999737,313.4101313999854,313.3941055999894,,,,,,,,,,,,,,,,,,,,,,,,,,,,,,,,,,,313.3975747000077,313.4101313999854,313.4101313999854,313.7620488999819,r,1.0,0.34831440000562,,,,,sub-130,1,stroop_test,59.9677493361942,
,,,,92.0,8.0,7.0,,,,,,,,,,,,,blau,blue,b,1.0,b,1.0,0.4606201999995392,,,,,,,,,,7.0,8.0,92.0,6.0,313.7770120000059,,,,,,,,,,,,,,,,,313.762481999991,313.8769581000088,314.677914800006,314.66187999999966,,,,,,,,,,,,,,,,,,,,,,,,,,,,,,,,,,,314.6648790999898,314.677914800006,314.677914800006,315.1462041999912,b,1.0,0.4606201999995392,,,,,sub-130,1,stroop_test,59.9677493361942,
,,,,93.0,9.0,7.0,,,,,,,,,,,,,gelb,blue,b,0.0,b,1.0,0.3498873999924399,,,,,,,,,,7.0,9.0,93.0,9.0,315.1613839000056,,,,,,,,,,,,,,,,,315.14656210000976,315.94564950000495,316.74586779999663,316.7301137000032,,,,,,,,,,,,,,,,,,,,,,,,,,,,,,,,,,,316.7327923999983,316.74586779999663,316.74586779999663,317.0980859999836,b,1.0,0.3498873999924399,,,,,sub-130,1,stroop_test,59.9677493361942,
,,,,94.0,10.0,7.0,,,,,,,,,,,,,blau,blue,b,1.0,b,1.0,0.3948786999972071,,,,,,,,,,7.0,10.0,94.0,5.0,317.1129233999818,,,,,,,,,,,,,,,,,317.0984027000086,317.46344389999285,318.26395220000995,318.24786820000736,,,,,,,,,,,,,,,,,,,,,,,,,,,,,,,,,,,318.2521216000023,318.26395220000995,318.26395220000995,318.66599660000065,b,1.0,0.3948786999972071,,,,,sub-130,1,stroop_test,59.9677493361942,
,,,,95.0,11.0,7.0,,,,,,,,,,,,,blau,yellow,g,0.0,g,1.0,0.4373077999916859,,,,,,,,,,7.0,11.0,95.0,7.0,318.6809898999927,,,,,,,,,,,,,,,,,318.6663150000095,319.4816824999871,320.2824811000028,320.2666552999872,,,,,,,,,,,,,,,,,,,,,,,,,,,,,,,,,,,320.2671985999914,320.2824811000028,320.2824811000028,320.7336945999996,g,1.0,0.4373077999916859,,,,,sub-130,1,stroop_test,59.9677493361942,
,,,,96.0,0.0,8.0,,,,,,,,,,,,,gelb,yellow,g,1.0,g,1.0,0.463671700010309,,,,,,,,,,8.0,0.0,96.0,10.0,320.749195899989,,,,,,,,,,,,,,,,,320.73402790000546,321.9335859999992,322.73419379998813,322.71881200000644,,,,,,,,,,,,,,,,,,,,,,,,,,,,,,,,,,,322.7234564999817,322.73419379998813,322.73419379998813,323.2027912999911,g,1.0,0.463671700010309,,,,,sub-130,1,stroop_test,59.9677493361942,
,,,,97.0,1.0,8.0,,,,,,,,,,,,,gelb,red,r,0.0,r,1.0,0.4495149999856949,,,,,,,,,,8.0,1.0,97.0,8.0,323.2179665000004,,,,,,,,,,,,,,,,,323.2031117999868,324.00211549998494,324.8027545000077,324.7872128000017,,,,,,,,,,,,,,,,,,,,,,,,,,,,,,,,,,,324.7877559000044,324.8027545000077,324.8027545000077,325.25516199998674,r,1.0,0.4495149999856949,,,,,sub-130,1,stroop_test,59.9677493361942,
,,,,98.0,2.0,8.0,,,,,,,,,,,,,blau,yellow,g,0.0,g,1.0,0.8258454999886453,,,,,,,,,,8.0,2.0,98.0,7.0,325.26994709999417,,,,,,,,,,,,,,,,,325.2555182999931,326.0705258999951,326.87130239998805,326.8555282999878,,,,,,,,,,,,,,,,,,,,,,,,,,,,,,,,,,,326.8593917999824,326.87130239998805,326.87130239998805,327.70687669998733,g,1.0,0.8258454999886453,,,,,sub-130,1,stroop_test,59.9677493361942,
,,,,99.0,3.0,8.0,,,,,,,,,,,,,blau,red,r,0.0,r,1.0,0.5151137000066228,,,,,,,,,,8.0,3.0,99.0,4.0,327.7217832999886,,,,,,,,,,,,,,,,,327.7072463000077,328.9061134000076,329.7069499999925,329.691136599984,,,,,,,,,,,,,,,,,,,,,,,,,,,,,,,,,,,329.6916358000017,329.7069499999925,329.7069499999925,330.22494690000894,r,1.0,0.5151137000066228,,,,,sub-130,1,stroop_test,59.9677493361942,
,,,,100.0,4.0,8.0,,,,,,,,,,,,,blau,blue,b,1.0,r,0.0,0.35670870001195,,,,,,,,,,8.0,4.0,100.0,6.0,330.2406064000097,,,,,,,,,,,,,,,,,330.22522190000745,330.5742218999949,331.37494320000405,331.3589467999991,,,,,,,,,,,,,,,,,,,,,,,,,,,,,,,,,,,331.3594715000072,331.37494320000405,331.37494320000405,331.743404000008,r,0.0,0.35670870001195,,,,,sub-130,1,stroop_test,59.9677493361942,
,,,,101.0,5.0,8.0,,,,,,,,,,,,,gelb,blue,b,0.0,b,1.0,0.6495950999960769,,,,,,,,,,8.0,5.0,101.0,9.0,331.7584965999995,,,,,,,,,,,,,,,,,331.74374899998656,332.9428948999848,333.7434313999838,333.7280216999934,,,,,,,,,,,,,,,,,,,,,,,,,,,,,,,,,,,333.7324949000031,333.7434313999838,333.7434313999838,334.3956765999901,b,1.0,0.6495950999960769,,,,,sub-130,1,stroop_test,59.9677493361942,
,,,,102.0,6.0,8.0,,,,,,,,,,,,,rot,red,r,1.0,r,1.0,0.4661136999784503,,,,,,,,,,8.0,6.0,102.0,0.0,334.4106710999913,,,,,,,,,,,,,,,,,334.39604880000115,334.5108482000069,335.3114304000046,335.29564409999875,,,,,,,,,,,,,,,,,,,,,,,,,,,,,,,,,,,335.3007276999997,335.3114304000046,335.3114304000046,335.7800152999989,r,1.0,0.4661136999784503,,,,,sub-130,1,stroop_test,59.9677493361942,
,,,,103.0,7.0,8.0,,,,,,,,,,,,,gelb,yellow,g,1.0,g,1.0,0.5415030000149272,,,,,,,,,,8.0,7.0,103.0,11.0,335.7951142999809,,,,,,,,,,,,,,,,,335.78034639998805,335.8951895000064,336.6959219999844,336.6804933999956,,,,,,,,,,,,,,,,,,,,,,,,,,,,,,,,,,,336.68524739998975,336.6959219999844,336.6959219999844,337.24782889999915,g,1.0,0.5415030000149272,,,,,sub-130,1,stroop_test,59.9677493361942,
,,,,104.0,8.0,8.0,,,,,,,,,,,,,rot,red,r,1.0,r,1.0,0.4712021999876015,,,,,,,,,,8.0,8.0,104.0,1.0,337.2631321999943,,,,,,,,,,,,,,,,,337.2481404999853,338.4472787999839,339.24761649998254,339.2317711999931,,,,,,,,,,,,,,,,,,,,,,,,,,,,,,,,,,,339.2348755999992,339.24761649998254,339.24761649998254,339.7337484000018,r,1.0,0.4712021999876015,,,,,sub-130,1,stroop_test,59.9677493361942,
,,,,105.0,9.0,8.0,,,,,,,,,,,,,rot,blue,b,0.0,b,1.0,0.7994309000205249,,,,,,,,,,8.0,9.0,105.0,2.0,339.7484415000072,,,,,,,,,,,,,,,,,339.73417559999507,340.0988854999887,340.89944869998726,340.88365989999147,,,,,,,,,,,,,,,,,,,,,,,,,,,,,,,,,,,340.884177800006,340.89944869998726,340.89944869998726,341.7019541999907,b,1.0,0.7994309000205249,,,,,sub-130,1,stroop_test,59.9677493361942,
,,,,106.0,10.0,8.0,,,,,,,,,,,,,rot,yellow,g,0.0,g,1.0,0.4648350999923423,,,,,,,,,,8.0,10.0,106.0,3.0,341.7167580999958,,,,,,,,,,,,,,,,,341.70242059999146,342.9012105999864,343.7017128999869,343.68604450000566,,,,,,,,,,,,,,,,,,,,,,,,,,,,,,,,,,,343.6865046999883,343.7017128999869,343.7017128999869,344.17010339998524,g,1.0,0.4648350999923423,,,,,sub-130,1,stroop_test,59.9677493361942,
,,,,107.0,11.0,8.0,,,,,,,,,,,,,blau,blue,b,1.0,b,1.0,0.4659295000019483,,,,,,,,,,8.0,11.0,107.0,5.0,344.18555679998826,,,,,,,,,,,,,,,,,344.17046249998384,345.3698252000031,346.17030410000007,346.15456480000285,,,,,,,,,,,,,,,,,,,,,,,,,,,,,,,,,,,346.15769120000186,346.17030410000007,346.17030410000007,346.63882329998887,b,1.0,0.4659295000019483,,,,,sub-130,1,stroop_test,59.9677493361942,
,,,,108.0,0.0,9.0,,,,,,,,,,,,,rot,blue,b,0.0,b,1.0,0.5372693999961484,,,,,,,,,,9.0,0.0,108.0,2.0,346.6542480000062,,,,,,,,,,,,,,,,,346.6391210999864,347.4385600000096,348.2389017000096,348.2233971999958,,,,,,,,,,,,,,,,,,,,,,,,,,,,,,,,,,,348.2267859999847,348.2389017000096,348.2389017000096,348.79083179999725,b,1.0,0.5372693999961484,,,,,sub-130,1,stroop_test,59.9677493361942,
,,,,109.0,1.0,9.0,,,,,,,,,,,,,blau,yellow,g,0.0,g,1.0,0.4937843999941833,,,,,,,,,,9.0,1.0,109.0,7.0,348.8058933999855,,,,,,,,,,,,,,,,,348.791240999999,349.5900571999955,350.3907447999809,350.3751412999991,,,,,,,,,,,,,,,,,,,,,,,,,,,,,,,,,,,350.37838499998907,350.3907447999809,350.3907447999809,350.89303259999724,g,1.0,0.4937843999941833,,,,,sub-130,1,stroop_test,59.9677493361942,
,,,,110.0,2.0,9.0,,,,,,,,,,,,,blau,blue,b,1.0,b,1.0,0.4886204000213183,,,,,,,,,,9.0,2.0,110.0,5.0,350.9076687000052,,,,,,,,,,,,,,,,,350.8935547999863,351.00776760000736,351.808468800009,351.7929057999864,,,,,,,,,,,,,,,,,,,,,,,,,,,,,,,,,,,351.79340379999485,351.808468800009,351.808468800009,352.3108213999949,b,1.0,0.4886204000213183,,,,,sub-130,1,stroop_test,59.9677493361942,
,,,,111.0,3.0,9.0,,,,,,,,,,,,,gelb,yellow,g,1.0,g,1.0,0.5579657999915071,,,,,,,,,,9.0,3.0,111.0,10.0,352.3256116999837,,,,,,,,,,,,,,,,,352.31131699998514,352.67606159998104,353.4765294000099,353.4608499000024,,,,,,,,,,,,,,,,,,,,,,,,,,,,,,,,,,,353.4645104999945,353.4765294000099,353.4765294000099,354.0456956999842,g,1.0,0.5579657999915071,,,,,sub-130,1,stroop_test,59.9677493361942,
,,,,112.0,4.0,9.0,,,,,,,,,,,,,blau,red,r,0.0,r,1.0,0.4866056000173557,,,,,,,,,,9.0,4.0,112.0,4.0,354.06043270000373,,,,,,,,,,,,,,,,,354.0462112000096,354.1604570999916,354.96120900000096,354.94533849999425,,,,,,,,,,,,,,,,,,,,,,,,,,,,,,,,,,,354.9487736999872,354.96120900000096,354.96120900000096,355.46325120000984,r,1.0,0.4866056000173557,,,,,sub-130,1,stroop_test,59.9677493361942,
,,,,113.0,5.0,9.0,,,,,,,,,,,,,gelb,blue,b,0.0,b,1.0,0.412956700020004,,,,,,,,,,9.0,5.0,113.0,9.0,355.4782167999947,,,,,,,,,,,,,,,,,355.4636429999955,356.6625088999863,357.4633123999811,357.4475378000061,,,,,,,,,,,,,,,,,,,,,,,,,,,,,,,,,,,357.4508672000084,357.4633123999811,357.4633123999811,357.8819964999857,b,1.0,0.412956700020004,,,,,sub-130,1,stroop_test,59.9677493361942,
,,,,114.0,6.0,9.0,,,,,,,,,,,,,rot,yellow,g,0.0,r,0.0,0.377750300016487,,,,,,,,,,9.0,6.0,114.0,3.0,357.89702579998993,,,,,,,,,,,,,,,,,357.88249910000013,358.6977030999842,359.49816940000164,359.48245300000417,,,,,,,,,,,,,,,,,,,,,,,,,,,,,,,,,,,359.48585920000914,359.49816940000164,359.49816940000164,359.8838775999902,r,0.0,0.377750300016487,,,,,sub-130,1,stroop_test,59.9677493361942,
,,,,115.0,7.0,9.0,,,,,,,,,,,,,rot,red,r,1.0,r,1.0,0.3910822999896481,,,,,,,,,,9.0,7.0,115.0,1.0,359.8985221000039,,,,,,,,,,,,,,,,,359.8843694999814,359.99856909998925,360.7993929999938,360.7835257999832,,,,,,,,,,,,,,,,,,,,,,,,,,,,,,,,,,,360.7840228999849,360.7993929999938,360.7993929999938,361.20077309999033,r,1.0,0.3910822999896481,,,,,sub-130,1,stroop_test,59.9677493361942,
,,,,116.0,8.0,9.0,,,,,,,,,,,,,rot,red,r,1.0,r,1.0,0.422236399987014,,,,,,,,,,9.0,8.0,116.0,0.0,361.21624099998735,,,,,,,,,,,,,,,,,361.2010714999924,362.0003327000013,362.8008820999821,362.7852464999887,,,,,,,,,,,,,,,,,,,,,,,,,,,,,,,,,,,362.7859067999816,362.8008820999821,362.8008820999821,363.2361503999855,r,1.0,0.422236399987014,,,,,sub-130,1,stroop_test,59.9677493361942,
,,,,117.0,9.0,9.0,,,,,,,,,,,,,blau,blue,b,1.0,g,0.0,0.3711031999846454,,,,,,,,,,9.0,9.0,117.0,6.0,363.25127869998687,,,,,,,,,,,,,,,,,363.2365092999826,364.4353332000028,365.2360083999811,365.2199258999899,,,,,,,,,,,,,,,,,,,,,,,,,,,,,,,,,,,365.2224868999911,365.2360083999811,365.2360083999811,365.6209391999873,g,0.0,0.3711031999846454,,,,,sub-130,1,stroop_test,59.9677493361942,
,,,,118.0,10.0,9.0,,,,,,,,,,,,,gelb,yellow,g,1.0,g,1.0,0.4336422000196762,,,,,,,,,,9.0,10.0,118.0,11.0,365.63632170000346,,,,,,,,,,,,,,,,,365.62124879998737,365.736779400002,366.5371688999876,366.5213284000056,,,,,,,,,,,,,,,,,,,,,,,,,,,,,,,,,,,366.5244996999973,366.5371688999876,366.5371688999876,366.9724655000027,g,1.0,0.4336422000196762,,,,,sub-130,1,stroop_test,59.9677493361942,
,,,,119.0,11.0,9.0,,,,,,,,,,,,,gelb,red,r,0.0,r,1.0,0.5372751000104472,,,,,,,,,,9.0,11.0,119.0,8.0,366.9878460000036,,,,,,,,,,,,,,,,,366.9727483000024,368.1718495999812,368.9726561999996,368.9570219999878,,,,,,,,,,,,,,,,,,,,,,,,,,,,,,,,,,,368.9575494999881,368.9726561999996,368.9726561999996,369.5246622999839,r,1.0,0.5372751000104472,,,,,sub-130,1,stroop_test,59.9677493361942,
,,,,,,,,,,,,,,,,,,,,,,,,,,,,,,,,,,,,,,,,,,,,,,,,,,,,,,,,,,,,,,,,,,,,,,,,,,,,,,,,,,,,,,,,,,,,,,,,,,,,,,369.52485339998384,369.5398676999903,374.5271401999926,sub-130,1,stroop_test,59.9677493361942,
