direction,corrAns,randomInstr,practice_trials.thisRepN,practice_trials.thisTrialN,practice_trials.thisN,practice_trials.thisIndex,instr_trials.thisRepN,instr_trials.thisTrialN,instr_trials.thisN,instr_trials.thisIndex,test_trials.thisRepN,test_trials.thisTrialN,test_trials.thisN,test_trials.thisIndex,thisRow.t,notes,general_instruction.started,textGeneralInstr.started,respGeneralInstr.started,general_instruction.stopped,respGeneralInstr.keys,respGeneralInstr.rt,respGeneralInstr.duration,ITI.started,fixcross.started,fixcross.stopped,ITI.stopped,dots.started,backgroundDots.started,stimulusDots.started,respDots.started,dots.stopped,respDots.keys,respDots.corr,respDots.rt,respDots.duration,feedback.started,textFeedback.started,textFeedback.stopped,feedback.stopped,info.started,textInfo.started,keyRespInfo.started,info.stopped,keyRespInfo.keys,keyRespInfo.rt,keyRespInfo.duration,test_instruction.started,textTestInstr.started,respTestInstr.started,test_instruction.stopped,respTestInstr.keys,respTestInstr.rt,respTestInstr.duration,random_instruction.started,textRandomInstr.started,respRandomInstr.started,random_instruction.stopped,respRandomInstr.keys,respRandomInstr.rt,respRandomInstr.duration,goodbye.started,textGoodbye.started,goodbye.stopped,participant,session,expName,frameRate
,,,,,,,,,,,,,,,,,0.0080624,0.0246691,0.0246691,1.7739067,space,21.024109,None,,,,,,,,,,,,,,,,,,,,,,,,,,,,,,,,,,,,,,,,,,sub-153,1,random_dot,59.95200242
left,left,,0,0,0,0,,,,,,,,,1.790171,,,,,,,,,1.7839209,1.8729599,2.6722508,2.6561676,2.6561867,2.6722508,2.6722508,2.6722508,5.404021,left,1,22.0161729,None,5.4048446,5.4197713,5.9195595,5.9033781,,,,,,,,,,,,,,,,,,,,,,,,,sub-153,1,random_dot,59.95200242
right,right,,0,1,1,1,,,,,,,,,5.9195595,,,,,,,,,5.9038132,6.0194154,6.8186222,6.802546,6.8025672,6.8186222,6.8186222,6.8186222,7.7186785,right,1,20.1856698,None,7.7192708,7.7345148,8.2340114,8.2179025,,,,,,,,,,,,,,,,,,,,,,,,,sub-153,1,random_dot,59.95200242
right,right,,1,0,2,1,,,,,,,,,8.2340114,,,,,,,,,8.2183388,9.033395,9.8327337,9.8166564,9.8166759,9.8327337,9.8327337,9.8327337,10.6162042,right,1,20.0605249,None,10.6167993,10.632051,11.131542,11.1154533,,,,,,,,,,,,,,,,,,,,,,,,,sub-153,1,random_dot,59.95200242
left,left,,1,1,3,0,,,,,,,,,11.131542,,,,,,,,,11.1158891,11.930834,12.730228,12.7141393,12.714158,12.730228,12.730228,12.730228,13.23042,left,1,19.7771935,None,13.2310118,13.2462921,13.7458154,13.7297001,,,,,,,,,,,,,,,,,,,,,,,,,sub-153,1,random_dot,59.95200242
left,left,,2,0,4,0,,,,,,,,,13.7458154,,,,,,,,,13.7301346,14.545223,15.344559,15.3283561,15.3283753,15.344559,15.344559,15.344559,16.910717,left,1,20.8538735,None,16.9113135,16.9263409,17.4259663,17.4099526,,,,,,,,,,,,,,,,,,,,,,,,,sub-153,1,random_dot,59.95200242
right,right,,2,1,5,1,,,,,,,,,17.4259663,,,,,,,,,17.4104363,18.225244,19.0247271,19.0084411,19.0084604,19.0247271,19.0247271,19.0247271,19.6915539,right,1,19.95294,None,19.6921393,19.7072295,20.2068297,20.1906874,,,,,,,,,,,,,,,,,,,,,,,,,sub-153,1,random_dot,59.95200242
right,right,,3,0,6,1,,,,,,,,,20.2068297,,,,,,,,,20.1911178,21.4058546,22.2051339,22.1889445,22.1889644,22.2051339,22.2051339,22.2051339,23.1052751,right,1,20.1827917,None,23.1059181,23.1209961,23.620468,23.6042972,,,,,,,,,,,,,,,,,,,,,,,,,sub-153,1,random_dot,59.95200242
left,left,,3,1,7,0,,,,,,,,,23.620468,,,,,,,,,23.6047358,24.8193747,25.618731,25.6026161,25.6026361,25.618731,25.618731,25.618731,26.2856327,left,1,19.9415781,None,26.2862256,26.3014107,26.801056,26.7849185,,,,,,,,,,,,,,,,,,,,,,,,,sub-153,1,random_dot,59.95200242
right,right,,4,0,8,1,,,,,,,,,26.801056,,,,,,,,,26.7853795,26.9010017,27.7003092,27.6841573,27.6841774,27.7003092,27.7003092,27.7003092,28.2507628,right,1,19.8353527,None,28.2514104,28.2663316,28.7659167,28.7497718,,,,,,,,,,,,,,,,,,,,,,,,,sub-153,1,random_dot,59.95200242
left,left,,4,1,9,0,,,,,,,,,28.7659167,,,,,,,,,28.7502038,29.5653164,30.364609,30.3484013,30.3484203,30.364609,30.364609,30.364609,31.1979947,right,0,20.1189164,None,31.198585,31.2137479,31.7135261,31.6982976,,,,,,,,,,,,,,,,,,,,,,,,,sub-153,1,random_dot,59.95200242
left,left,,5,0,10,0,,,,,,,,,31.7135261,,,,,,,,,31.6987362,32.0630806,32.8623177,32.846141,32.846161,32.8623177,32.8623177,32.8623177,33.7294401,right,0,20.1530599,None,33.7300359,33.7448073,34.244494,34.2283843,,,,,,,,,,,,,,,,,,,,,,,,,sub-153,1,random_dot,59.95200242
right,right,,5,1,11,1,,,,,,,,,34.244494,,,,,,,,,34.2288217,34.3444461,35.1435992,35.1274917,35.1275116,35.1435992,35.1435992,35.1435992,35.8939062,left,0,20.0293408,None,35.8944969,35.9096585,36.4092469,36.3929874,,,,,,,,,,,,,,,,,,,,,,,,,sub-153,1,random_dot,59.95200242
right,right,,6,0,12,1,,,,,,,,,36.4092469,,,,,,,,,36.3934244,36.5090546,37.3085533,37.2923224,37.292342,37.3085533,37.3085533,37.3085533,38.1584915,right,1,20.1241963,None,38.1590795,38.1743534,38.6739037,38.6579017,,,,,,,,,,,,,,,,,,,,,,,,,sub-153,1,random_dot,59.95200242
left,left,,6,1,13,0,,,,,,,,,38.6739037,,,,,,,,,38.658381,39.8729798,40.6721576,40.6560606,40.6560818,40.6721576,40.6721576,40.6721576,41.2890083,left,1,19.897143,None,41.2895954,41.304901,41.8043924,41.7883409,,,,,,,,,,,,,,,,,,,,,,,,,sub-153,1,random_dot,59.95200242
right,right,,7,0,14,1,,,,,,,,,41.8043924,,,,,,,,,41.7887848,43.0033179,43.8027679,43.7865563,43.7865753,43.8027679,43.8027679,43.8027679,44.4029773,right,1,19.8740395,None,44.4036824,44.4189283,44.9182925,44.9021602,,,,,,,,,,,,,,,,,,,,,,,,,sub-153,1,random_dot,59.95200242
left,left,,7,1,15,0,,,,,,,,,44.9182925,,,,,,,,,44.9026409,46.1172432,46.9165135,46.9003836,46.9004029,46.9165135,46.9165135,46.9165135,47.6003541,left,1,19.9652904,None,47.6010381,47.6160587,48.1155285,48.0994798,,,,,,,,,,,,,,,,,,,,,,,,,sub-153,1,random_dot,59.95200242
right,right,,8,0,16,1,,,,,,,,,48.1155285,,,,,,,,,48.0999425,48.2154929,49.0146718,48.9986315,48.9986505,49.0146718,49.0146718,49.0146718,49.864762,right,1,20.127526,None,49.8653491,49.8806033,50.3802422,50.3641096,,,,,,,,,,,,,,,,,,,,,,,,,sub-153,1,random_dot,59.95200242
left,left,,8,1,17,0,,,,,,,,,50.3802422,,,,,,,,,50.3645406,50.7300378,51.5292606,51.5130954,51.5131144,51.5292606,51.5292606,51.5292606,52.3294304,right,0,20.0752348,None,52.33002,52.3452121,52.844715,52.8286633,,,,,,,,,,,,,,,,,,,,,,,,,sub-153,1,random_dot,59.95200242
left,left,,9,0,18,0,,,,,,,,,52.844715,,,,,,,,,52.8291222,54.0437014,54.8430262,54.8268774,54.8269004,54.8430262,54.8430262,54.8430262,55.6264826,left,1,20.0617002,None,55.6270695,55.6422986,56.1418246,56.1257538,,,,,,,,,,,,,,,,,,,,,,,,,sub-153,1,random_dot,59.95200242
right,right,,9,1,19,1,,,,,,,,,56.1418246,,,,,,,,,56.1261919,56.9411827,57.7403668,57.7243821,57.724402,57.7403668,57.7403668,57.7403668,58.7405318,right,1,20.2791395,None,58.7410962,58.756394,59.2556615,59.2394854,,,,,,,,,,,,,,,,,,,,,,,,,sub-153,1,random_dot,59.95200242
,,,,,,,,,,,,,,,,,,,,,,,,,,,,,,,,,,,,,,,,,59.2395558,59.2556615,59.2556615,60.438758,space,20.4575904,None,,,,,,,,,,,,,,,,,,sub-153,1,random_dot,59.95200242
,,,,,,,,,,,,,,,,,,,,,,,,,,,,,,,,,,,,,,,,,,,,,,,,60.4387947,60.4546211,60.4546211,61.2880932,space,20.1199708,None,,,,,,,,,,,sub-153,1,random_dot,59.95200242
left,left,accuracy,,,,,0,0,0,0,0,0,0,0,62.46953,,,,,,,,,62.4611208,63.268821,64.0682296,64.0520053,64.0520266,64.0682296,64.0682296,64.0682296,65.0185481,left,1,20.2378602,None,,,,,,,,,,,,,,,,,,,61.2922106,61.3205117,61.3205117,62.4538608,space,20.4149921,None,,,,sub-153,1,random_dot,59.95200242
right,right,accuracy,,,,,0,0,0,0,0,1,1,1,65.0341115,,,,,,,,,65.0201607,65.3836497,66.1829501,66.1669481,66.1669702,66.1829501,66.1829501,66.1829501,66.8000143,right,1,19.9008283,None,,,,,,,,,,,,,,,,,,,,,,,,,,,,,sub-153,1,random_dot,59.95200242
left,left,accuracy,,,,,0,0,0,0,1,0,2,0,66.8157239,,,,,,,,,66.8012971,67.165676,67.9647948,67.9486953,67.9487171,67.9647948,67.9647948,67.9647948,69.4148337,left,1,20.7337791,None,,,,,,,,,,,,,,,,,,,,,,,,,,,,,sub-153,1,random_dot,59.95200242
right,right,accuracy,,,,,0,0,0,0,1,1,3,1,69.4303568,,,,,,,,,69.4162714,70.628986,71.4283753,71.4132783,71.4133003,71.4283753,71.4283753,71.4283753,72.6780281,right,1,20.5234583,None,,,,,,,,,,,,,,,,,,,,,,,,,,,,,sub-153,1,random_dot,59.95200242
left,left,accuracy,,,,,0,0,0,0,2,0,4,0,72.6938343,,,,,,,,,72.6791877,73.4933949,74.2924599,74.2763572,74.2763811,74.2924599,74.2924599,74.2924599,74.8760901,left,1,19.8633275,None,,,,,,,,,,,,,,,,,,,,,,,,,,,,,sub-153,1,random_dot,59.95200242
right,right,accuracy,,,,,0,0,0,0,2,1,5,1,74.8918365,,,,,,,,,74.8772613,75.6912741,76.4904179,76.4750017,76.4750287,76.4904179,76.4904179,76.4904179,77.4571285,right,1,20.2531963,None,,,,,,,,,,,,,,,,,,,,,,,,,,,,,sub-153,1,random_dot,59.95200242
right,right,accuracy,,,,,0,0,0,0,3,0,6,1,77.4729867,,,,,,,,,77.4582985,77.5729053,78.3722315,78.3560177,78.356038,78.3722315,78.3722315,78.3722315,78.9890224,left,0,19.8983539,None,,,,,,,,,,,,,,,,,,,,,,,,,,,,,sub-153,1,random_dot,59.95200242
left,left,accuracy,,,,,0,0,0,0,3,1,7,0,79.004861,,,,,,,,,78.9902446,80.2038622,81.0032206,80.9871498,80.9871696,81.0032206,81.0032206,81.0032206,81.7201525,left,1,19.9919979,None,,,,,,,,,,,,,,,,,,,,,,,,,,,,,sub-153,1,random_dot,59.95200242
left,left,accuracy,,,,,0,0,0,0,4,0,8,0,81.7358958,,,,,,,,,81.7213291,82.0855996,82.8847834,82.8686537,82.8686739,82.8847834,82.8847834,82.8847834,83.4685197,right,0,19.8676571,None,,,,,,,,,,,,,,,,,,,,,,,,,,,,,sub-153,1,random_dot,59.95200242
right,right,accuracy,,,,,0,0,0,0,4,1,9,1,83.4842456,,,,,,,,,83.4697042,84.6831746,85.4825245,85.4665157,85.4665392,85.4825245,85.4825245,85.4825245,86.4160741,right,1,20.2139647,None,,,,,,,,,,,,,,,,,,,,,,,,,,,,,sub-153,1,random_dot,59.95200242
right,right,accuracy,,,,,0,0,0,0,5,0,10,1,86.4316297,,,,,,,,,86.417243,86.7813838,87.5810448,87.5645615,87.5645816,87.5810448,87.5810448,87.5810448,88.4478865,right,1,20.1445342,None,,,,,,,,,,,,,,,,,,,,,,,,,,,,,sub-153,1,random_dot,59.95200242
left,left,accuracy,,,,,0,0,0,0,5,1,11,0,88.4632284,,,,,,,,,88.4489619,88.8128922,89.6123358,89.596164,89.5961825,89.6123358,89.6123358,89.6123358,90.1293609,left,1,19.7964685,None,,,,,,,,,,,,,,,,,,,,,,,,,,,,,sub-153,1,random_dot,59.95200242
left,left,accuracy,,,,,0,0,0,0,6,0,12,0,90.1452035,,,,,,,,,90.1305298,90.9443443,91.743627,91.7276789,91.7276999,91.743627,91.743627,91.743627,92.2773812,right,0,19.8123449,None,,,,,,,,,,,,,,,,,,,,,,,,,,,,,sub-153,1,random_dot,59.95200242
right,right,accuracy,,,,,0,0,0,0,6,1,13,1,92.2931336,,,,,,,,,92.278553,92.6428809,93.4421405,93.4260251,93.4260441,93.4421405,93.4421405,93.4421405,94.1756668,left,0,20.0118324,None,,,,,,,,,,,,,,,,,,,,,,,,,,,,,sub-153,1,random_dot,59.95200242
right,right,accuracy,,,,,0,0,0,0,7,0,14,1,94.1916608,,,,,,,,,94.1768302,94.9908722,95.7901209,95.7739633,95.7739831,95.7901209,95.7901209,95.7901209,96.4904799,left,0,19.9812875,None,,,,,,,,,,,,,,,,,,,,,,,,,,,,,sub-153,1,random_dot,59.95200242
left,left,accuracy,,,,,0,0,0,0,7,1,15,0,96.506122,,,,,,,,,96.4916462,97.3055043,98.1047691,98.0887632,98.0887822,98.1047691,98.1047691,98.1047691,98.8049908,left,1,19.9826499,None,,,,,,,,,,,,,,,,,,,,,,,,,,,,,sub-153,1,random_dot,59.95200242
left,left,accuracy,,,,,0,0,0,0,8,0,16,0,98.8207659,,,,,,,,,98.8061559,99.1704804,99.9697901,99.9536617,99.953681,99.9697901,99.9697901,99.9697901,103.4341618,left,1,22.741339,None,,,,,,,,,,,,,,,,,,,,,,,,,,,,,sub-153,1,random_dot,59.95200242
right,right,accuracy,,,,,0,0,0,0,8,1,17,1,103.4499472,,,,,,,,,103.4351698,103.5500244,104.3491764,104.3330121,104.3330312,104.3491764,104.3491764,104.3491764,104.9994247,right,1,19.9234437,None,,,,,,,,,,,,,,,,,,,,,,,,,,,,,sub-153,1,random_dot,59.95200242
right,right,accuracy,,,,,0,0,0,0,9,0,18,1,105.0152507,,,,,,,,,105.0006195,106.2142282,107.0135203,106.9974666,106.997487,107.0135203,107.0135203,107.0135203,107.6137494,right,1,19.8831947,None,,,,,,,,,,,,,,,,,,,,,,,,,,,,,sub-153,1,random_dot,59.95200242
left,left,accuracy,,,,,0,0,0,0,9,1,19,0,107.6296126,,,,,,,,,107.6149136,107.9793376,108.7785941,108.7625327,108.7625515,108.7785941,108.7785941,108.7785941,109.4301268,left,1,19.9389876,None,,,,,,,,,,,,,,,,,,,,,,,,,,,,,sub-153,1,random_dot,59.95200242
left,left,accuracy,,,,,0,0,0,0,10,0,20,0,109.4447072,,,,,,,,,109.4313331,109.5445952,110.3439904,110.3278479,110.3278667,110.3439904,110.3439904,110.3439904,111.5103917,right,0,20.439328,None,,,,,,,,,,,,,,,,,,,,,,,,,,,,,sub-153,1,random_dot,59.95200242
right,right,accuracy,,,,,0,0,0,0,10,1,21,1,111.5262246,,,,,,,,,111.5115536,111.6261131,112.4254697,112.4093962,112.4094154,112.4254697,112.4254697,112.4254697,113.2922304,right,1,20.1497719,None,,,,,,,,,,,,,,,,,,,,,,,,,,,,,sub-153,1,random_dot,59.95200242
right,right,accuracy,,,,,0,0,0,0,11,0,22,1,113.3080076,,,,,,,,,113.2933872,113.4078716,114.207141,114.1909707,114.1909897,114.207141,114.207141,114.207141,114.7575199,left,0,19.8353447,None,,,,,,,,,,,,,,,,,,,,,,,,,,,,,sub-153,1,random_dot,59.95200242
left,left,accuracy,,,,,0,0,0,0,11,1,23,0,114.773322,,,,,,,,,114.7586747,115.9722408,116.7715463,116.755412,116.7554317,116.7715463,116.7715463,116.7715463,117.4551454,right,0,19.9628947,None,,,,,,,,,,,,,,,,,,,,,,,,,,,,,sub-153,1,random_dot,59.95200242
right,right,accuracy,,,,,0,0,0,0,12,0,24,1,117.4711431,,,,,,,,,117.4563108,118.6698455,119.4691378,119.452994,119.4530125,119.4691378,119.4691378,119.4691378,120.1193804,right,1,19.9236944,None,,,,,,,,,,,,,,,,,,,,,,,,,,,,,sub-153,1,random_dot,59.95200242
left,left,accuracy,,,,,0,0,0,0,12,1,25,0,120.1352173,,,,,,,,,120.1205774,120.9345724,121.7338389,121.7180814,121.7181022,121.7338389,121.7338389,121.7338389,122.4842101,left,1,20.0325377,None,,,,,,,,,,,,,,,,,,,,,,,,,,,,,sub-153,1,random_dot,59.95200242
right,right,accuracy,,,,,0,0,0,0,13,0,26,1,122.4999759,,,,,,,,,122.4853656,122.8494995,123.6487953,123.6327497,123.6327692,123.6487953,123.6487953,123.6487953,124.7986425,right,1,20.4305893,None,,,,,,,,,,,,,,,,,,,,,,,,,,,,,sub-153,1,random_dot,59.95200242
left,left,accuracy,,,,,0,0,0,0,13,1,27,0,124.8146913,,,,,,,,,124.7997449,125.6137462,126.4130044,126.3971266,126.3971462,126.4130044,126.4130044,126.4130044,127.1635426,left,1,20.0290304,None,,,,,,,,,,,,,,,,,,,,,,,,,,,,,sub-153,1,random_dot,59.95200242
right,right,accuracy,,,,,0,0,0,0,14,0,28,1,127.1789874,,,,,,,,,127.1646985,127.9783052,128.7775928,128.7615878,128.7616076,128.7775928,128.7775928,128.7775928,129.4285219,right,1,19.938706,None,,,,,,,,,,,,,,,,,,,,,,,,,,,,,sub-153,1,random_dot,59.95200242
left,left,accuracy,,,,,0,0,0,0,14,1,29,0,129.4438013,,,,,,,,,129.4296967,129.5437429,130.342909,130.3268146,130.3268377,130.342909,130.342909,130.342909,130.943199,left,1,19.8755068,None,,,,,,,,,,,,,,,,,,,,,,,,,,,,,sub-153,1,random_dot,59.95200242
right,right,accuracy,,,,,0,0,0,0,15,0,30,1,130.9590137,,,,,,,,,130.9443794,131.3087417,132.1091367,132.091852,132.091872,132.1091367,132.1091367,132.1091367,132.6418077,right,1,19.8201471,None,,,,,,,,,,,,,,,,,,,,,,,,,,,,,sub-153,1,random_dot,59.95200242
left,left,accuracy,,,,,0,0,0,0,15,1,31,0,132.6576659,,,,,,,,,132.6429958,133.8564475,134.6557465,134.6399744,134.6399938,134.6557465,134.6557465,134.6557465,135.6558007,left,1,20.2867257,None,,,,,,,,,,,,,,,,,,,,,,,,,,,,,sub-153,1,random_dot,59.95200242
left,left,accuracy,,,,,0,0,0,0,16,0,32,0,135.6715431,,,,,,,,,135.6569701,135.7714398,136.5707448,136.5545848,136.5546037,136.5707448,136.5707448,136.5707448,137.2710159,left,1,19.9845161,None,,,,,,,,,,,,,,,,,,,,,,,,,,,,,sub-153,1,random_dot,59.95200242
right,right,accuracy,,,,,0,0,0,0,16,1,33,1,137.287035,,,,,,,,,137.2721853,138.4857633,139.2852662,139.2688545,139.2688735,139.2852662,139.2852662,139.2852662,139.7354722,right,1,19.7320934,None,,,,,,,,,,,,,,,,,,,,,,,,,,,,,sub-153,1,random_dot,59.95200242
left,left,accuracy,,,,,0,0,0,0,17,0,34,0,139.7512618,,,,,,,,,139.7366282,140.9502288,141.7494925,141.7333761,141.7333958,141.7494925,141.7494925,141.7494925,142.3165035,left,1,19.8438823,None,,,,,,,,,,,,,,,,,,,,,,,,,,,,,sub-153,1,random_dot,59.95200242
right,right,accuracy,,,,,0,0,0,0,17,1,35,1,142.332651,,,,,,,,,142.3178029,143.1317289,143.9308972,143.9147478,143.914767,143.9308972,143.9308972,143.9308972,144.5313398,right,1,19.8748006,None,,,,,,,,,,,,,,,,,,,,,,,,,,,,,sub-153,1,random_dot,59.95200242
left,left,accuracy,,,,,0,0,0,0,18,0,36,0,144.5473104,,,,,,,,,144.5325052,144.6469798,145.4462443,145.4301026,145.4301213,145.4462443,145.4462443,145.4462443,146.196384,left,1,20.0234076,None,,,,,,,,,,,,,,,,,,,,,,,,,,,,,sub-153,1,random_dot,59.95200242
right,right,accuracy,,,,,0,0,0,0,18,1,37,1,146.2122345,,,,,,,,,146.1975504,147.4116925,148.2270944,148.211004,148.211024,148.2270944,148.2270944,148.2270944,148.9775915,right,1,20.0365724,None,,,,,,,,,,,,,,,,,,,,,,,,,,,,,sub-153,1,random_dot,59.95200242
left,left,accuracy,,,,,0,0,0,0,19,0,38,0,148.9930833,,,,,,,,,148.9787628,150.1922155,150.99142,150.9752644,150.9752834,150.99142,150.99142,150.99142,151.5918932,left,1,19.8854951,None,,,,,,,,,,,,,,,,,,,,,,,,,,,,,sub-153,1,random_dot,59.95200242
right,right,accuracy,,,,,0,0,0,0,19,1,39,1,151.6075164,,,,,,,,,151.5930719,152.8063646,153.6068277,153.5895469,153.5895665,153.6068277,153.6068277,153.6068277,154.1893406,right,1,19.8645539,None,,,,,,,,,,,,,,,,,,,,,,,,,,,,,sub-153,1,random_dot,59.95200242
left,left,accuracy,,,,,0,0,0,0,20,0,40,0,154.2054321,,,,,,,,,154.1904946,155.4040951,156.2034191,156.1873117,156.1873306,156.2034191,156.2034191,156.2034191,156.7205488,left,1,19.804575,None,,,,,,,,,,,,,,,,,,,,,,,,,,,,,sub-153,1,random_dot,59.95200242
right,right,accuracy,,,,,0,0,0,0,20,1,41,1,156.7362606,,,,,,,,,156.7217067,157.9352531,158.7345065,158.7183569,158.7183759,158.7345065,158.7345065,158.7345065,159.3517721,left,0,19.8987184,None,,,,,,,,,,,,,,,,,,,,,,,,,,,,,sub-153,1,random_dot,59.95200242
right,right,accuracy,,,,,0,0,0,0,21,0,42,1,159.3684196,,,,,,,,,159.3529362,160.5662267,161.3657998,161.3493534,161.349373,161.3657998,161.3657998,161.3657998,162.0823498,right,1,19.9935728,None,,,,,,,,,,,,,,,,,,,,,,,,,,,,,sub-153,1,random_dot,59.95200242
left,left,accuracy,,,,,0,0,0,0,21,1,43,0,162.0982245,,,,,,,,,162.0835192,162.8978578,163.713491,163.6972914,163.6973107,163.713491,163.713491,163.713491,164.2805399,left,1,19.8476992,None,,,,,,,,,,,,,,,,,,,,,,,,,,,,,sub-153,1,random_dot,59.95200242
right,right,accuracy,,,,,0,0,0,0,22,0,44,1,164.2963174,,,,,,,,,164.281653,164.3961598,165.1956582,165.1805042,165.1805244,165.1956582,165.1956582,165.1956582,165.7792016,right,1,19.8651019,None,,,,,,,,,,,,,,,,,,,,,,,,,,,,,sub-153,1,random_dot,59.95200242
left,left,accuracy,,,,,0,0,0,0,22,1,45,0,165.7949655,,,,,,,,,165.7808479,166.5942286,167.3935393,167.3775173,167.3775367,167.3935393,167.3935393,167.3935393,167.9940083,left,1,19.88796,None,,,,,,,,,,,,,,,,,,,,,,,,,,,,,sub-153,1,random_dot,59.95200242
right,right,accuracy,,,,,0,0,0,0,23,0,46,1,168.009667,,,,,,,,,167.9951755,169.208635,170.0078659,169.9918075,169.9918287,170.0078659,170.0078659,170.0078659,170.7248715,right,1,19.9998234,None,,,,,,,,,,,,,,,,,,,,,,,,,,,,,sub-153,1,random_dot,59.95200242
left,left,accuracy,,,,,0,0,0,0,23,1,47,0,170.7407496,,,,,,,,,170.7260356,170.8404778,171.639792,171.6236853,171.6237049,171.639792,171.639792,171.639792,172.3233432,left,1,19.9598463,None,,,,,,,,,,,,,,,,,,,,,,,,,,,,,sub-153,1,random_dot,59.95200242
right,right,accuracy,,,,,0,0,0,0,24,0,48,1,172.3403493,,,,,,,,,172.3245064,172.6888604,173.4881273,173.4721469,173.4721668,173.4881273,173.4881273,173.4881273,174.3216642,right,1,20.1192525,None,,,,,,,,,,,,,,,,,,,,,,,,,,,,,sub-153,1,random_dot,59.95200242
left,left,accuracy,,,,,0,0,0,0,24,1,49,0,174.3374333,,,,,,,,,174.3228252,174.4372967,175.2365821,175.220487,175.2205066,175.2365821,175.2365821,175.2365821,175.8872167,left,1,19.933594,None,,,,,,,,,,,,,,,,,,,,,,,,,,,,,sub-153,1,random_dot,59.95200242
right,right,accuracy,,,,,0,0,0,0,25,0,50,1,175.9026833,,,,,,,,,175.8883637,176.0026137,176.8020353,176.7858835,176.7859037,176.8020353,176.8020353,176.8020353,177.7190797,right,1,20.2023948,None,,,,,,,,,,,,,,,,,,,,,,,,,,,,,sub-153,1,random_dot,59.95200242
left,left,accuracy,,,,,0,0,0,0,25,1,51,0,177.7343854,,,,,,,,,177.7206061,178.9333959,179.7326265,179.7166715,179.7166931,179.7326265,179.7326265,179.7326265,180.3330393,left,1,19.8853916,None,,,,,,,,,,,,,,,,,,,,,,,,,,,,,sub-153,1,random_dot,59.95200242
left,left,accuracy,,,,,0,0,0,0,26,0,52,0,180.3487481,,,,,,,,,180.3342173,181.547782,182.3470613,182.3311282,182.3311479,182.3470613,182.3470613,182.3470613,183.0308921,right,0,19.9608293,None,,,,,,,,,,,,,,,,,,,,,,,,,,,,,sub-153,1,random_dot,59.95200242
right,right,accuracy,,,,,0,0,0,0,26,1,53,1,183.0464263,,,,,,,,,183.0322711,183.8456517,184.6449653,184.6288992,184.6289184,184.6449653,184.6449653,184.6449653,185.8779957,right,1,20.5050562,None,,,,,,,,,,,,,,,,,,,,,,,,,,,,,sub-153,1,random_dot,59.95200242
right,right,accuracy,,,,,0,0,0,0,27,0,54,1,185.8938768,,,,,,,,,185.8791669,185.9937668,186.7932217,186.7772707,186.7773085,186.7932217,186.7932217,186.7932217,187.726488,left,0,20.2130787,None,,,,,,,,,,,,,,,,,,,,,,,,,,,,,sub-153,1,random_dot,59.95200242
left,left,accuracy,,,,,0,0,0,0,27,1,55,0,187.7422273,,,,,,,,,187.7276481,188.0919868,188.8923696,188.8751428,188.8751622,188.8923696,188.8923696,188.8923696,192.2402108,left,1,22.6262241,None,,,,,,,,,,,,,,,,,,,,,,,,,,,,,sub-153,1,random_dot,59.95200242
right,right,accuracy,,,,,0,0,0,0,28,0,56,1,192.2549987,,,,,,,,,192.2414302,192.3548227,193.1541232,193.1379914,193.1380104,193.1541232,193.1541232,193.1541232,194.0208354,left,0,20.1474832,None,,,,,,,,,,,,,,,,,,,,,,,,,,,,,sub-153,1,random_dot,59.95200242
left,left,accuracy,,,,,0,0,0,0,28,1,57,0,194.0366682,,,,,,,,,194.0219919,195.2356467,196.0349158,196.019228,196.0192505,196.0349158,196.0349158,196.0349158,196.7521458,left,1,20.004703,None,,,,,,,,,,,,,,,,,,,,,,,,,,,,,sub-153,1,random_dot,59.95200242
left,left,accuracy,,,,,0,0,0,0,29,0,58,0,196.7676326,,,,,,,,,196.7533342,197.9665398,198.7658217,198.7497415,198.7497613,198.7658217,198.7658217,198.7658217,199.4497669,left,1,19.9710004,None,,,,,,,,,,,,,,,,,,,,,,,,,,,,,sub-153,1,random_dot,59.95200242
right,right,accuracy,,,,,0,0,0,0,29,1,59,1,199.4651717,,,,,,,,,199.4509393,200.6641717,201.4636241,201.4476109,201.4476319,201.4636241,201.4636241,201.4636241,202.2968577,right,1,20.1073245,None,,,,,,,,,,,,,,,,,,,,,,,,,,,,,sub-153,1,random_dot,59.95200242
,,accuracy,,,,,0,0,0,0,,,,,,,,,,,,,,,,,,,,,,,,,,,,,,,,,,,,,,,,,,,,,,,,,,,,,,,sub-153,1,random_dot,59.95200242
left,left,speed,,,,,0,1,1,1,0,0,0,0,204.3777006,,,,,,,,,204.3689427,205.1769701,205.9773466,205.9600432,205.9600649,205.9773466,205.9773466,205.9773466,206.6934166,left,1,19.9983599,None,,,,,,,,,,,,,,,,,,,202.2979554,202.3126998,202.3126998,204.3618708,space,21.3220732,None,,,,sub-153,1,random_dot,59.95200242
right,right,speed,,,,,0,1,1,1,0,1,1,1,206.7088955,,,,,,,,,206.6948584,207.5080903,208.3074445,208.291315,208.2913348,208.3074445,208.3074445,208.3074445,209.057582,right,1,20.0227825,None,,,,,,,,,,,,,,,,,,,,,,,,,,,,,sub-153,1,random_dot,59.95200242
right,right,speed,,,,,0,1,1,1,1,0,2,1,209.0734033,,,,,,,,,209.0587549,209.1732832,209.9726433,209.9567414,209.9567678,209.9726433,209.9726433,209.9726433,210.4895826,left,0,19.7894193,None,,,,,,,,,,,,,,,,,,,,,,,,,,,,,sub-153,1,random_dot,59.95200242
left,left,speed,,,,,0,1,1,1,1,1,3,0,210.5054716,,,,,,,,,210.4904837,210.605393,211.4050192,211.3885377,211.3885563,211.4050192,211.4050192,211.4050192,211.9050163,right,0,19.7740665,None,,,,,,,,,,,,,,,,,,,,,,,,,,,,,sub-153,1,random_dot,59.95200242
right,right,speed,,,,,0,1,1,1,2,0,4,1,211.9209666,,,,,,,,,211.9062199,212.0208102,212.8200975,212.8039918,212.8040119,212.8200975,212.8200975,212.8200975,213.2206598,left,0,19.678255,None,,,,,,,,,,,,,,,,,,,,,,,,,,,,,sub-153,1,random_dot,59.95200242
left,left,speed,,,,,0,1,1,1,2,1,5,0,213.2364215,,,,,,,,,213.2218239,213.5861605,214.3853528,214.3691941,214.3692141,214.3853528,214.3853528,214.3853528,215.1689219,right,0,20.0562834,None,,,,,,,,,,,,,,,,,,,,,,,,,,,,,sub-153,1,random_dot,59.95200242
right,right,speed,,,,,0,1,1,1,3,0,6,1,215.1847007,,,,,,,,,215.1700843,215.2845751,216.0838887,216.0677608,216.0677813,216.0838887,216.0838887,216.0838887,216.6342611,left,0,19.8274428,None,,,,,,,,,,,,,,,,,,,,,,,,,,,,,sub-153,1,random_dot,59.95200242
left,left,speed,,,,,0,1,1,1,3,1,7,0,216.6501177,,,,,,,,,216.6354167,217.4493542,218.2486862,218.2325711,218.2325903,218.2486862,218.2486862,218.2486862,219.0488011,left,1,20.0856948,None,,,,,,,,,,,,,,,,,,,,,,,,,,,,,sub-153,1,random_dot,59.95200242
left,left,speed,,,,,0,1,1,1,4,0,8,0,219.0646053,,,,,,,,,219.0499494,219.8638638,220.6631413,220.64705,220.6470693,220.6631413,220.6631413,220.6631413,221.1969001,right,0,19.8134112,None,,,,,,,,,,,,,,,,,,,,,,,,,,,,,sub-153,1,random_dot,59.95200242
right,right,speed,,,,,0,1,1,1,4,1,9,1,221.2126881,,,,,,,,,221.1980567,221.3126755,222.1120244,222.0958006,222.0958196,222.1120244,222.1120244,222.1120244,222.7956484,left,0,19.9685733,None,,,,,,,,,,,,,,,,,,,,,,,,,,,,,sub-153,1,random_dot,59.95200242
left,left,speed,,,,,0,1,1,1,5,0,10,0,222.8113531,,,,,,,,,222.7968211,222.911173,223.7106307,223.6943377,223.6943578,223.7106307,223.7106307,223.7106307,224.4274552,left,1,20.0012708,None,,,,,,,,,,,,,,,,,,,,,,,,,,,,,sub-153,1,random_dot,59.95200242
right,right,speed,,,,,0,1,1,1,5,1,11,1,224.4431712,,,,,,,,,224.4286239,224.792857,225.5922985,225.5760303,225.5760496,225.5922985,225.5922985,225.5922985,226.2090716,left,0,19.8898291,None,,,,,,,,,,,,,,,,,,,,,,,,,,,,,sub-153,1,random_dot,59.95200242
right,right,speed,,,,,0,1,1,1,6,0,12,1,226.2249705,,,,,,,,,226.2102342,226.5749321,227.3905561,227.3744948,227.3745148,227.3905561,227.3905561,227.3905561,227.7911168,right,1,19.6804765,None,,,,,,,,,,,,,,,,,,,,,,,,,,,,,sub-153,1,random_dot,59.95200242
left,left,speed,,,,,0,1,1,1,6,1,13,0,227.8068713,,,,,,,,,227.7922808,227.9068129,228.7060545,228.6899791,228.6899989,228.7060545,228.7060545,228.7060545,229.2065241,right,0,19.7853426,None,,,,,,,,,,,,,,,,,,,,,,,,,,,,,sub-153,1,random_dot,59.95200242
right,right,speed,,,,,0,1,1,1,7,0,14,1,229.2223074,,,,,,,,,229.2076987,229.5719668,230.3712755,230.3552104,230.35523,230.3712755,230.3712755,230.3712755,230.871898,left,0,19.7877483,None,,,,,,,,,,,,,,,,,,,,,,,,,,,,,sub-153,1,random_dot,59.95200242
left,left,speed,,,,,0,1,1,1,7,1,15,0,230.8874992,,,,,,,,,230.8731756,230.9873961,231.7866581,231.7705246,231.7705436,231.7866581,231.7866581,231.7866581,232.2537608,right,0,19.7449244,None,,,,,,,,,,,,,,,,,,,,,,,,,,,,,sub-153,1,random_dot,59.95200242
left,left,speed,,,,,0,1,1,1,8,0,16,0,232.2696046,,,,,,,,,232.2549363,233.0688917,233.8681869,233.8521539,233.8521732,233.8681869,233.8681869,233.8681869,235.3179918,left,1,20.721256,None,,,,,,,,,,,,,,,,,,,,,,,,,,,,,sub-153,1,random_dot,59.95200242
right,right,speed,,,,,0,1,1,1,8,1,17,1,235.3335733,,,,,,,,,235.3191438,235.4336213,236.2327543,236.2166105,236.2166302,236.2327543,236.2327543,236.2327543,239.697314,right,1,22.7500364,None,,,,,,,,,,,,,,,,,,,,,,,,,,,,,sub-153,1,random_dot,59.95200242
left,left,speed,,,,,0,1,1,1,9,0,18,0,239.7130222,,,,,,,,,239.6995442,240.5123243,241.3120394,241.2954902,241.2955093,241.3120394,241.3120394,241.3120394,242.2450318,left,1,20.2190839,None,,,,,,,,,,,,,,,,,,,,,,,,,,,,,sub-153,1,random_dot,59.95200242
right,right,speed,,,,,0,1,1,1,9,1,19,1,242.2608635,,,,,,,,,242.246211,242.6104505,243.40974,243.3937962,243.3938283,243.40974,243.40974,243.40974,243.910773,right,1,19.778303,None,,,,,,,,,,,,,,,,,,,,,,,,,,,,,sub-153,1,random_dot,59.95200242
left,left,speed,,,,,0,1,1,1,10,0,20,0,243.9261988,,,,,,,,,243.9120323,244.2757041,245.0749695,245.0591725,245.0591915,245.0749695,245.0749695,245.0749695,245.3588632,left,1,19.5586732,None,,,,,,,,,,,,,,,,,,,,,,,,,,,,,sub-153,1,random_dot,59.95200242
right,right,speed,,,,,0,1,1,1,10,1,21,1,245.3749159,,,,,,,,,245.3600192,245.4749458,246.273949,246.257848,246.257868,246.273949,246.273949,246.273949,246.7076236,right,1,19.7055104,None,,,,,,,,,,,,,,,,,,,,,,,,,,,,,sub-153,1,random_dot,59.95200242
right,right,speed,,,,,0,1,1,1,11,0,22,1,246.7235031,,,,,,,,,246.7087741,246.823483,247.6226966,247.6065587,247.6065778,247.6226966,247.6226966,247.6226966,248.2730137,right,1,19.9362862,None,,,,,,,,,,,,,,,,,,,,,,,,,,,,,sub-153,1,random_dot,59.95200242
left,left,speed,,,,,0,1,1,1,11,1,23,0,248.2889956,,,,,,,,,248.2741745,248.3887033,249.1881216,249.1721276,249.1721484,249.1881216,249.1881216,249.1881216,249.9715503,right,0,20.0683792,None,,,,,,,,,,,,,,,,,,,,,,,,,,,,,sub-153,1,random_dot,59.95200242
right,right,speed,,,,,0,1,1,1,12,0,24,1,249.9873433,,,,,,,,,249.9727171,250.3369636,251.1362561,251.1201417,251.120161,251.1362561,251.1362561,251.1362561,251.7369525,right,1,19.88025,None,,,,,,,,,,,,,,,,,,,,,,,,,,,,,sub-153,1,random_dot,59.95200242
left,left,speed,,,,,0,1,1,1,12,1,25,0,251.7525251,,,,,,,,,251.7381991,251.8523284,252.651823,252.6354819,252.6355026,252.651823,252.651823,252.651823,254.101141,left,1,20.7283632,None,,,,,,,,,,,,,,,,,,,,,,,,,,,,,sub-153,1,random_dot,59.95200242
right,right,speed,,,,,0,1,1,1,13,0,26,1,254.1169809,,,,,,,,,254.1022953,254.4666536,255.2660238,255.2498062,255.2498263,255.2660238,255.2660238,255.2660238,257.897849,left,0,21.9068512,None,,,,,,,,,,,,,,,,,,,,,,,,,,,,,sub-153,1,random_dot,59.95200242
left,left,speed,,,,,0,1,1,1,13,1,27,0,257.9137099,,,,,,,,,257.899028,258.2634875,259.0625984,259.0464892,259.0465086,259.0625984,259.0625984,259.0625984,259.7961371,left,1,20.0052154,None,,,,,,,,,,,,,,,,,,,,,,,,,,,,,sub-153,1,random_dot,59.95200242
left,left,speed,,,,,0,1,1,1,14,0,28,0,259.8120708,,,,,,,,,259.7972981,259.9118924,260.7111705,260.695091,260.6951106,260.7111705,260.7111705,260.7111705,261.2781327,right,0,19.8435575,None,,,,,,,,,,,,,,,,,,,,,,,,,,,,,sub-153,1,random_dot,59.95200242
right,right,speed,,,,,0,1,1,1,14,1,29,1,261.294021,,,,,,,,,261.2792876,262.4929624,263.2922855,263.2760606,263.2760799,263.2922855,263.2922855,263.2922855,263.8759349,right,1,19.866661,None,,,,,,,,,,,,,,,,,,,,,,,,,,,,,sub-153,1,random_dot,59.95200242
right,right,speed,,,,,0,1,1,1,15,0,30,1,263.8916898,,,,,,,,,263.8771028,265.0906438,265.8899763,265.8738591,265.8738788,265.8899763,265.8899763,265.8899763,266.4071941,right,1,19.7920994,None,,,,,,,,,,,,,,,,,,,,,,,,,,,,,sub-153,1,random_dot,59.95200242
left,left,speed,,,,,0,1,1,1,15,1,31,0,266.4228477,,,,,,,,,266.4083625,266.7724929,267.5729353,267.5557018,267.555726,267.5729353,267.5729353,267.5729353,268.4387502,right,0,20.1535205,None,,,,,,,,,,,,,,,,,,,,,,,,,,,,,sub-153,1,random_dot,59.95200242
left,left,speed,,,,,0,1,1,1,16,0,32,0,268.4543343,,,,,,,,,268.4399546,268.8041158,269.6032921,269.5871832,269.5872027,269.6032921,269.6032921,269.6032921,270.3868659,left,1,20.0565231,None,,,,,,,,,,,,,,,,,,,,,,,,,,,,,sub-153,1,random_dot,59.95200242
right,right,speed,,,,,0,1,1,1,16,1,33,1,270.4026312,,,,,,,,,270.388025,270.7522775,271.5515795,271.5356532,271.5356725,271.5515795,271.5515795,271.5515795,272.9012631,right,1,20.6304277,None,,,,,,,,,,,,,,,,,,,,,,,,,,,,,sub-153,1,random_dot,59.95200242
right,right,speed,,,,,0,1,1,1,17,0,34,1,272.9170183,,,,,,,,,272.902423,274.1160776,274.9153008,274.8993446,274.8993638,274.9153008,274.9153008,274.9153008,275.4001968,left,0,19.7708909,None,,,,,,,,,,,,,,,,,,,,,,,,,,,,,sub-153,1,random_dot,59.95200242
left,left,speed,,,,,0,1,1,1,17,1,35,0,275.4148867,,,,,,,,,275.4024863,275.5151843,276.3306903,276.3146973,276.3147168,276.3306903,276.3306903,276.3306903,276.7311613,right,0,19.6752686,None,,,,,,,,,,,,,,,,,,,,,,,,,,,,,sub-153,1,random_dot,59.95200242
left,left,speed,,,,,0,1,1,1,18,0,36,0,276.7471566,,,,,,,,,276.7323274,276.846946,277.6463304,277.6312012,277.6312215,277.6463304,277.6463304,277.6463304,278.2631685,right,0,19.8963152,None,,,,,,,,,,,,,,,,,,,,,,,,,,,,,sub-153,1,random_dot,59.95200242
right,right,speed,,,,,0,1,1,1,18,1,37,1,278.2789959,,,,,,,,,278.2643674,278.3788995,279.1782528,279.1620662,279.1620859,279.1782528,279.1782528,279.1782528,279.6119417,right,1,19.7106498,None,,,,,,,,,,,,,,,,,,,,,,,,,,,,,sub-153,1,random_dot,59.95200242
left,left,speed,,,,,0,1,1,1,19,0,38,0,279.6278143,,,,,,,,,279.6130959,280.8267345,281.6259672,281.6100857,281.6101052,281.6259672,281.6259672,281.6259672,281.8933839,left,1,19.5496934,None,,,,,,,,,,,,,,,,,,,,,,,,,,,,,sub-153,1,random_dot,59.95200242
right,right,speed,,,,,0,1,1,1,19,1,39,1,281.9091123,,,,,,,,,281.8945829,283.1080828,283.9074406,283.8912185,283.8912386,283.9074406,283.9074406,283.9074406,284.7741491,right,1,20.1517021,None,,,,,,,,,,,,,,,,,,,,,,,,,,,,,sub-153,1,random_dot,59.95200242
left,left,speed,,,,,0,1,1,1,20,0,40,0,284.7899225,,,,,,,,,284.7753593,285.5892355,286.3885762,286.3724354,286.3724557,286.3885762,286.3885762,286.3885762,287.6881484,left,1,20.5834667,None,,,,,,,,,,,,,,,,,,,,,,,,,,,,,sub-153,1,random_dot,59.95200242
right,right,speed,,,,,0,1,1,1,20,1,41,1,287.7039971,,,,,,,,,287.6893146,288.9029074,289.7022717,289.6861435,289.6861639,289.7022717,289.7022717,289.7022717,290.5193292,right,1,20.0955218,None,,,,,,,,,,,,,,,,,,,,,,,,,,,,,sub-153,1,random_dot,59.95200242
left,left,speed,,,,,0,1,1,1,21,0,42,0,290.5348455,,,,,,,,,290.5213574,291.7337674,292.5331329,292.5170315,292.5170503,292.5331329,292.5331329,292.5331329,293.3499816,right,0,20.0962781,None,,,,,,,,,,,,,,,,,,,,,,,,,,,,,sub-153,1,random_dot,59.95200242
right,right,speed,,,,,0,1,1,1,21,1,43,1,293.3658663,,,,,,,,,293.3511285,294.1650607,294.9642327,294.9481255,294.9481452,294.9642327,294.9642327,294.9642327,295.6645962,left,0,19.9750178,None,,,,,,,,,,,,,,,,,,,,,,,,,,,,,sub-153,1,random_dot,59.95200242
left,left,speed,,,,,0,1,1,1,22,0,44,0,295.6806012,,,,,,,,,295.6657518,296.4795921,297.2788623,297.2630263,297.2630462,297.2788623,297.2788623,297.2788623,297.9957683,right,0,20.0016784,None,,,,,,,,,,,,,,,,,,,,,,,,,,,,,sub-153,1,random_dot,59.95200242
right,right,speed,,,,,0,1,1,1,22,1,45,1,298.0116315,,,,,,,,,297.9969218,298.1114631,298.9107788,298.8946129,298.8946312,298.9107788,298.9107788,298.9107788,299.5778153,left,0,19.9542315,None,,,,,,,,,,,,,,,,,,,,,,,,,,,,,sub-153,1,random_dot,59.95200242
right,right,speed,,,,,0,1,1,1,23,0,46,1,299.5935071,,,,,,,,,299.5789792,299.6768537,300.4760468,300.4599531,300.4599759,300.4760468,300.4760468,300.4760468,301.0098831,right,1,19.8213128,None,,,,,,,,,,,,,,,,,,,,,,,,,,,,,sub-153,1,random_dot,59.95200242
left,left,speed,,,,,0,1,1,1,23,1,47,0,301.025789,,,,,,,,,301.0110421,302.2247952,303.0237911,303.0077758,303.0077956,303.0237911,303.0237911,303.0237911,303.6407612,left,1,19.8949269,None,,,,,,,,,,,,,,,,,,,,,,,,,,,,,sub-153,1,random_dot,59.95200242
right,right,speed,,,,,0,1,1,1,24,0,48,1,303.6565551,,,,,,,,,303.6419288,304.0063184,304.8057941,304.7894413,304.7894604,304.8057941,304.8057941,304.8057941,305.905391,left,0,20.3722203,None,,,,,,,,,,,,,,,,,,,,,,,,,,,,,sub-153,1,random_dot,59.95200242
left,left,speed,,,,,0,1,1,1,24,1,49,0,305.9212558,,,,,,,,,305.906564,306.0214078,306.8204829,306.8043179,306.8043365,306.8204829,306.8204829,306.8204829,307.4708506,left,1,19.9372373,None,,,,,,,,,,,,,,,,,,,,,,,,,,,,,sub-153,1,random_dot,59.95200242
left,left,speed,,,,,0,1,1,1,25,0,50,0,307.4865731,,,,,,,,,307.4720075,308.6855017,309.484778,309.4686427,309.4686622,309.484778,309.484778,309.484778,310.3016526,left,1,20.1016594,None,,,,,,,,,,,,,,,,,,,,,,,,,,,,,sub-153,1,random_dot,59.95200242
right,right,speed,,,,,0,1,1,1,25,1,51,1,310.317387,,,,,,,,,310.3028091,311.1166505,311.9159578,311.8998783,311.8998978,311.9159578,311.9159578,311.9159578,312.766027,right,1,20.1270763,None,,,,,,,,,,,,,,,,,,,,,,,,,,,,,sub-153,1,random_dot,59.95200242
left,left,speed,,,,,0,1,1,1,26,0,52,0,312.7822022,,,,,,,,,312.7671981,313.5812121,314.3805922,314.3643321,314.3643513,314.3805922,314.3805922,314.3805922,314.8807933,left,1,19.7739647,None,,,,,,,,,,,,,,,,,,,,,,,,,,,,,sub-153,1,random_dot,59.95200242
right,right,speed,,,,,0,1,1,1,26,1,53,1,314.8966618,,,,,,,,,314.8819541,316.0956576,316.8952308,316.8789204,316.8789403,316.8952308,316.8952308,316.8952308,317.478558,right,1,19.855409,None,,,,,,,,,,,,,,,,,,,,,,,,,,,,,sub-153,1,random_dot,59.95200242
right,right,speed,,,,,0,1,1,1,27,0,54,1,317.4943823,,,,,,,,,317.4797123,317.844203,318.6433638,318.6272796,318.6272997,318.6433638,318.6433638,318.6433638,319.5932919,right,1,20.2287691,None,,,,,,,,,,,,,,,,,,,,,,,,,,,,,sub-153,1,random_dot,59.95200242
left,left,speed,,,,,0,1,1,1,27,1,55,0,319.6094937,,,,,,,,,319.5944405,320.8081077,321.6074564,321.5912682,321.591288,321.6074564,321.6074564,321.6074564,322.0745365,left,1,19.7529979,None,,,,,,,,,,,,,,,,,,,,,,,,,,,,,sub-153,1,random_dot,59.95200242
left,left,speed,,,,,0,1,1,1,28,0,56,0,322.0903044,,,,,,,,,322.0756971,322.1903729,322.9895201,322.9734052,322.9734246,322.9895201,322.9895201,322.9895201,323.5398457,right,0,19.8227412,None,,,,,,,,,,,,,,,,,,,,,,,,,,,,,sub-153,1,random_dot,59.95200242
right,right,speed,,,,,0,1,1,1,28,1,57,1,323.555711,,,,,,,,,323.5410071,323.655862,324.4549062,324.4387488,324.4387678,324.4549062,324.4549062,324.4549062,324.8386804,left,0,19.662413,None,,,,,,,,,,,,,,,,,,,,,,,,,,,,,sub-153,1,random_dot,59.95200242
right,right,speed,,,,,0,1,1,1,29,0,58,1,324.8545338,,,,,,,,,324.8398779,325.6538242,326.4534187,326.4373201,326.4373397,326.4534187,326.4534187,326.4534187,326.9368522,right,1,19.7574643,None,,,,,,,,,,,,,,,,,,,,,,,,,,,,,sub-153,1,random_dot,59.95200242
left,left,speed,,,,,0,1,1,1,29,1,59,0,326.9527021,,,,,,,,,326.9380105,327.3024065,328.1017206,328.08554,328.0855599,328.1017206,328.1017206,328.1017206,328.5354557,left,1,19.7058309,None,,,,,,,,,,,,,,,,,,,,,,,,,,,,,sub-153,1,random_dot,59.95200242
,,speed,,,,,0,1,1,1,,,,,,,,,,,,,,,,,,,,,,,,,,,,,,,,,,,,,,,,,,,,,,,,,,,,,,,sub-153,1,random_dot,59.95200242
,,,,,,,,,,,,,,,,,,,,,,,,,,,,,,,,,,,,,,,,,,,,,,,,,,,,,,,,,,,,,,328.5363107,328.5512451,333.5470208,,,,
