direction,corrAns,randomInstr,practice_trials.thisRepN,practice_trials.thisTrialN,practice_trials.thisN,practice_trials.thisIndex,instr_trials.thisRepN,instr_trials.thisTrialN,instr_trials.thisN,instr_trials.thisIndex,test_trials.thisRepN,test_trials.thisTrialN,test_trials.thisN,test_trials.thisIndex,thisRow.t,notes,general_instruction.started,textGeneralInstr.started,respGeneralInstr.started,general_instruction.stopped,respGeneralInstr.keys,respGeneralInstr.rt,respGeneralInstr.duration,ITI.started,fixcross.started,fixcross.stopped,ITI.stopped,dots.started,backgroundDots.started,stimulusDots.started,respDots.started,dots.stopped,respDots.keys,respDots.corr,respDots.rt,respDots.duration,feedback.started,textFeedback.started,feedback.stopped,textFeedback.stopped,info.started,textInfo.started,keyRespInfo.started,info.stopped,keyRespInfo.keys,keyRespInfo.rt,keyRespInfo.duration,test_instruction.started,textTestInstr.started,respTestInstr.started,test_instruction.stopped,respTestInstr.keys,respTestInstr.rt,respTestInstr.duration,random_instruction.started,textRandomInstr.started,respRandomInstr.started,random_instruction.stopped,respRandomInstr.keys,respRandomInstr.rt,respRandomInstr.duration,goodbye.started,textGoodbye.started,goodbye.stopped,participant,session,expName,frameRate,Unnamed: 72
,,,,,,,,,,,,,,,,,0.0053771000821143,0.0114070000126957,0.0114070000126957,1.328363799955696,space,66.19846350001171,,,,,,,,,,,,,,,,,,,,,,,,,,,,,,,,,,,,,,,,,,,sub-215,1.0,random_dot,60.15283634190397,
right,right,,0.0,0.0,0.0,1.0,,,,,,,,,1.3503552998881787,,,,,,,,,1.3445691000670197,1.4404187998734417,2.2420731000602245,2.223883300088346,2.2239002999849617,2.2420731000602245,2.2420731000602245,2.2420731000602245,3.657335700001568,right,1.0,66.28242860012688,,3.666367100086063,3.677664400078356,4.172279600054026,,,,,,,,,,,,,,,,,,,,,,,,,,sub-215,1.0,random_dot,60.15283634190397,
left,left,,0.0,1.0,1.0,0.0,,,,,,,,,4.188855800079182,,,,,,,,,4.172729599988088,4.521659699967131,5.322387099964544,5.305450199870393,5.305465499870479,5.322387099964544,5.322387099964544,5.322387099964544,6.056318399962038,left,1.0,65.61520880018361,,6.0569817998912185,6.070804199902341,6.554648499935865,6.5707195000723,,,,,,,,,,,,,,,,,,,,,,,,,sub-215,1.0,random_dot,60.15283634190397,
left,left,,1.0,0.0,2.0,0.0,,,,,,,,,6.5707195000723,,,,,,,,,6.55493830004707,7.769837399944663,8.570128599880263,8.553296499885619,8.553323100088164,8.570128599880263,8.570128599880263,8.570128599880263,9.503937399946151,left,1.0,65.81542300013825,,9.504476400092244,9.518603600095958,10.002324000000954,10.018258200027049,,,,,,,,,,,,,,,,,,,,,,,,,sub-215,1.0,random_dot,60.15283634190397,
right,right,,1.0,1.0,3.0,1.0,,,,,,,,,10.018258200027049,,,,,,,,,10.002732600085436,10.11836289986968,10.918917200062424,10.902236999943852,10.902258199872447,10.918917200062424,10.918917200062424,10.918917200062424,11.636087900027633,right,1.0,65.58957060007378,,11.636693299980834,11.650989499874411,12.134323599981144,12.150330499978736,,,,,,,,,,,,,,,,,,,,,,,,,sub-215,1.0,random_dot,60.15283634190397,
right,right,,2.0,0.0,4.0,1.0,,,,,,,,,12.150330499978736,,,,,,,,,12.134735899977386,13.3496284999419,14.149953600019217,14.132847300032154,14.132861899910496,14.149953600019217,14.149953600019217,14.149953600019217,15.10072200000286,right,1.0,65.82748590013944,,15.101399099919943,15.115491699893028,15.598975599976256,15.614920699968934,,,,,,,,,,,,,,,,,,,,,,,,,sub-215,1.0,random_dot,60.15283634190397,
left,left,,2.0,1.0,5.0,0.0,,,,,,,,,15.614920699968934,,,,,,,,,15.59941569995135,16.814168999902904,17.614654199918732,17.597517699934542,17.597533999942243,17.614654199918732,17.614654199918732,17.614654199918732,18.265146400080997,right,0.0,65.52855640021153,,18.26564579992555,18.279955399921164,18.76377550000325,18.77956960001029,,,,,,,,,,,,,,,,,,,,,,,,,sub-215,1.0,random_dot,60.15283634190397,
right,right,,3.0,0.0,6.0,1.0,,,,,,,,,18.77956960001029,,,,,,,,,18.764250200008973,19.57904099998996,20.37963859993033,20.36291319993325,20.36293739988469,20.37963859993033,20.37963859993033,20.37963859993033,21.147451400058344,right,1.0,65.63956160005182,,21.14829909987748,21.161512299906462,21.645176900085065,21.66132190008648,,,,,,,,,,,,,,,,,,,,,,,,,sub-215,1.0,random_dot,60.15283634190397,
left,left,,3.0,1.0,7.0,0.0,,,,,,,,,21.66132190008648,,,,,,,,,21.645673000020903,21.761187199968845,22.561738499905918,22.54496379988268,22.54499319987372,22.561738499905918,22.561738499905918,22.561738499905918,23.17942050006241,left,1.0,65.4879116001539,,23.18022010009736,23.193810400087383,23.67764199990779,23.69337529991753,,,,,,,,,,,,,,,,,,,,,,,,,sub-215,1.0,random_dot,60.15283634190397,
right,right,,4.0,0.0,8.0,1.0,,,,,,,,,23.69337529991753,,,,,,,,,23.67819990008138,23.793232100084424,24.593934299889952,24.57701459992677,24.577049300074577,24.593934299889952,24.593934299889952,24.593934299889952,25.461424000095576,right,1.0,65.74280120013282,,25.462397299939767,25.475823699962348,25.9594550000038,25.975206800037995,,,,,,,,,,,,,,,,,,,,,,,,,sub-215,1.0,random_dot,60.15283634190397,
left,left,,4.0,1.0,9.0,0.0,,,,,,,,,25.975206800037995,,,,,,,,,25.95998760010116,27.17457969998941,27.97490009991452,27.95817680004984,27.95820469991304,27.97490009991452,27.97490009991452,27.97490009991452,28.542317199986428,left,1.0,65.43478600005619,,28.542738599935547,28.55749040003866,29.04122920008376,29.0566563999746,,,,,,,,,,,,,,,,,,,,,,,,,sub-215,1.0,random_dot,60.15283634190397,
right,right,,5.0,0.0,10.0,1.0,,,,,,,,,29.0566563999746,,,,,,,,,29.04192420002073,29.40671880007721,30.207055900013074,30.19029919989407,30.190328999888152,30.207055900013074,30.207055900013074,30.207055900013074,30.94028429989703,right,1.0,65.60189829999581,,30.940712299896404,30.95527919987217,31.43932730006054,31.455218199873343,,,,,,,,,,,,,,,,,,,,,,,,,sub-215,1.0,random_dot,60.15283634190397,
left,left,,5.0,1.0,11.0,0.0,,,,,,,,,31.455218199873343,,,,,,,,,31.439855499891564,31.555180700030174,32.35572619992308,32.33891010005027,32.33893850003369,32.35572619992308,32.35572619992308,32.35572619992308,32.973289399873465,left,1.0,65.48437770013697,,32.97404400003143,32.98765909997746,33.47159070009366,33.48734140000306,,,,,,,,,,,,,,,,,,,,,,,,,sub-215,1.0,random_dot,60.15283634190397,
left,left,,6.0,0.0,12.0,0.0,,,,,,,,,33.48734140000306,,,,,,,,,33.47211860003881,33.83710779994726,34.63767650001682,34.62057280004956,34.62059829989448,34.63767650001682,34.63767650001682,34.63767650001682,35.555031900061294,left,1.0,65.78648110013455,,35.555786799872294,35.56960540008731,36.05330740008503,36.069384600035846,,,,,,,,,,,,,,,,,,,,,,,,,sub-215,1.0,random_dot,60.15283634190397,
right,right,,6.0,1.0,13.0,1.0,,,,,,,,,36.069384600035846,,,,,,,,,36.0539323000703,36.41902119992301,37.21948059997521,37.20259110000916,37.202618499984965,37.21948059997521,37.21948059997521,37.21948059997521,37.90363189997152,right,1.0,65.55035439995117,,37.90439729997888,37.91816330002621,38.40207080007531,38.41781449993141,,,,,,,,,,,,,,,,,,,,,,,,,sub-215,1.0,random_dot,60.15283634190397,
right,right,,7.0,0.0,14.0,1.0,,,,,,,,,38.41781449993141,,,,,,,,,38.40260610007681,38.5175749999471,39.31829329999164,39.301496899919584,39.30152969993651,39.31829329999164,39.31829329999164,39.31829329999164,39.8692220998928,right,1.0,65.41688910010271,,39.870130100054666,39.88364359992556,40.367348100058734,40.3833596999757,,,,,,,,,,,,,,,,,,,,,,,,,sub-215,1.0,random_dot,60.15283634190397,
left,left,,7.0,1.0,15.0,0.0,,,,,,,,,40.3833596999757,,,,,,,,,40.36797929997556,40.48313240008429,41.28374499990605,41.26680029998533,41.26683310000226,41.28374499990605,41.28374499990605,41.28374499990605,41.81814799993299,left,1.0,65.40857750014402,,41.81904329988174,41.83235740009695,42.31629940005951,42.33210549992509,,,,,,,,,,,,,,,,,,,,,,,,,sub-215,1.0,random_dot,60.15283634190397,
left,left,,8.0,0.0,16.0,0.0,,,,,,,,,42.33210549992509,,,,,,,,,42.31694020004943,43.531379899941385,44.3315830999054,44.314737000036985,44.314765099901706,44.3315830999054,44.3315830999054,44.3315830999054,45.13265939988196,left,1.0,65.67285240022466,,45.13348020007834,45.14706750004552,45.63066340005025,45.64652820001356,,,,,,,,,,,,,,,,,,,,,,,,,sub-215,1.0,random_dot,60.15283634190397,
right,right,,8.0,1.0,17.0,1.0,,,,,,,,,45.64652820001356,,,,,,,,,45.63118709996343,46.446055399952456,47.24676449992694,47.22976360004395,47.22979120002128,47.24676449992694,47.24676449992694,47.24676449992694,47.79774300009012,right,1.0,65.42476970003918,,47.79849789990112,47.81184189999476,48.29616650007665,48.31160339992493,,,,,,,,,,,,,,,,,,,,,,,,,sub-215,1.0,random_dot,60.15283634190397,
left,left,,9.0,0.0,18.0,0.0,,,,,,,,,48.31160339992493,,,,,,,,,48.29689079988748,49.11136860004626,49.9115746000316,49.89496629987843,49.894999800017104,49.9115746000316,49.9115746000316,49.9115746000316,50.54623900004663,left,1.0,65.50761460000649,,50.547152099898085,50.56034950003959,51.04436139995232,51.05978189990856,,,,,,,,,,,,,,,,,,,,,,,,,sub-215,1.0,random_dot,60.15283634190397,
right,right,,9.0,1.0,19.0,1.0,,,,,,,,,51.05978189990856,,,,,,,,,51.04504409991205,52.2591989999637,53.059585199924186,53.04271609988064,53.04274150007405,53.059585199924186,53.059585199924186,53.059585199924186,53.62714600004256,right,1.0,65.43668490019627,,53.62751880008727,53.64186570001766,54.12538270000368,54.14154540002346,,,,,,,,,,,,,,,,,,,,,,,,,sub-215,1.0,random_dot,60.15283634190397,
,,,,,,,,,,,,,,,,,,,,,,,,,,,,,,,,,,,,,,,,,54.12544430000708,54.14154540002346,54.14154540002346,55.17567560006864,space,65.91240500006825,,,,,,,,,,,,,,,,,,,sub-215,1.0,random_dot,60.15283634190397,
,,,,,,,,,,,,,,,,,,,,,,,,,,,,,,,,,,,,,,,,,,,,,,,,55.17573169991374,55.19127080007456,55.19127080007456,56.4752931999974,space,66.16197189991362,,,,,,,,,,,,sub-215,1.0,random_dot,60.15283634190397,
left,left,speed,,,,,0.0,0.0,0.0,1.0,0.0,0.0,0.0,0.0,59.65482719987631,,,,,,,,,59.64721200009808,60.454249399947,61.25477940007113,61.23800119990483,61.23804179998115,61.25477940007113,61.25477940007113,61.25477940007113,61.87284650001675,left,1.0,65.49119299999438,,,,,,,,,,,,,,,,,,,,56.48170810006559,56.50291889999062,56.50291889999062,59.63930639997125,space,68.0177699001506,,,,,sub-215,1.0,random_dot,60.15283634190397,
right,right,speed,,,,,0.0,0.0,0.0,1.0,0.0,1.0,1.0,1.0,61.88667699997313,,,,,,,,,61.87531529995613,62.23642460000701,63.03713930002414,63.02026510005817,63.02029439993203,63.03713930002414,63.03713930002414,63.03713930002414,63.60475809988566,right,1.0,65.44031570013613,,,,,,,,,,,,,,,,,,,,,,,,,,,,,,sub-215,1.0,random_dot,60.15283634190397,
left,left,speed,,,,,0.0,0.0,0.0,1.0,1.0,0.0,2.0,0.0,63.618789500091225,,,,,,,,,63.60624199989252,64.41840279987082,65.21909760008566,65.20206480007619,65.20208820002154,65.21909760008566,65.21909760008566,65.21909760008566,65.76956039993092,left,1.0,65.42048680013977,,,,,,,,,,,,,,,,,,,,,,,,,,,,,,sub-215,1.0,random_dot,60.15283634190397,
right,right,speed,,,,,0.0,0.0,0.0,1.0,1.0,1.0,3.0,1.0,65.78435690002516,,,,,,,,,65.77068739989772,66.58385839988478,67.38438410009257,67.3672011999879,67.36722510005347,67.38438410009257,67.38438410009257,67.38438410009257,67.83526409999467,right,1.0,65.31894619995728,,,,,,,,,,,,,,,,,,,,,,,,,,,,,,sub-215,1.0,random_dot,60.15283634190397,
left,left,speed,,,,,0.0,0.0,0.0,1.0,2.0,0.0,4.0,0.0,67.84984229994006,,,,,,,,,67.83657700009644,67.94957909989171,68.75011570006609,68.73324090009555,68.73326190002263,68.75011570006609,68.75011570006609,68.75011570006609,69.38406409998424,left,1.0,65.51172900013626,,,,,,,,,,,,,,,,,,,,,,,,,,,,,,sub-215,1.0,random_dot,60.15283634190397,
right,right,speed,,,,,0.0,0.0,0.0,1.0,2.0,1.0,5.0,1.0,69.39882360002957,,,,,,,,,69.38523630006239,69.49892559996806,70.29916530009359,70.28229369991459,70.28231519996189,70.29916530009359,70.29916530009359,70.29916530009359,71.23298970004544,right,1.0,65.8113329000771,,,,,,,,,,,,,,,,,,,,,,,,,,,,,,sub-215,1.0,random_dot,60.15283634190397,
right,right,speed,,,,,0.0,0.0,0.0,1.0,3.0,0.0,6.0,1.0,71.2475173000712,,,,,,,,,71.2341336000245,72.44685769989155,73.24735819990747,73.23041409999132,73.23043180000968,73.24735819990747,73.24735819990747,73.24735819990747,73.74780169990845,right,1.0,65.37276500021107,,,,,,,,,,,,,,,,,,,,,,,,,,,,,,sub-215,1.0,random_dot,60.15283634190397,
left,left,speed,,,,,0.0,0.0,0.0,1.0,3.0,1.0,7.0,0.0,73.76303160004318,,,,,,,,,73.74855599994771,73.862863099901,74.66310329991393,74.64611020009033,74.64613360003568,74.66310329991393,74.66310329991393,74.66310329991393,75.24715190008283,left,1.0,65.46312190010212,,,,,,,,,,,,,,,,,,,,,,,,,,,,,,sub-215,1.0,random_dot,60.15283634190397,
right,right,speed,,,,,0.0,0.0,0.0,1.0,4.0,0.0,8.0,1.0,75.26211500004865,,,,,,,,,75.24791139992885,76.46125989989378,77.26187060005032,77.2447321000509,77.24474669992924,77.26187060005032,77.26187060005032,77.26187060005032,77.84541879990138,right,1.0,65.45934400008991,,,,,,,,,,,,,,,,,,,,,,,,,,,,,,sub-215,1.0,random_dot,60.15283634190397,
left,left,speed,,,,,0.0,0.0,0.0,1.0,4.0,1.0,9.0,0.0,77.86052550002933,,,,,,,,,77.8462634999305,79.0597095999401,79.85987629997544,79.8431235998869,79.84314740006812,79.85987629997544,79.85987629997544,79.85987629997544,80.34406640008092,left,1.0,65.3569787000306,,,,,,,,,,,,,,,,,,,,,,,,,,,,,,sub-215,1.0,random_dot,60.15283634190397,
right,right,speed,,,,,0.0,0.0,0.0,1.0,5.0,0.0,10.0,1.0,80.3586621999275,,,,,,,,,80.34537849994376,80.45858339988627,81.2590244000312,81.2420967000071,81.24212049995549,81.2590244000312,81.2590244000312,81.2590244000312,82.14323600009084,right,1.0,65.75665100011975,,,,,,,,,,,,,,,,,,,,,,,,,,,,,,sub-215,1.0,random_dot,60.15283634190397,
left,left,speed,,,,,0.0,0.0,0.0,1.0,5.0,1.0,11.0,0.0,82.15759399998933,,,,,,,,,82.14450090005994,82.95707269990817,83.75784239987843,83.74060139991343,83.74061729991809,83.75784239987843,83.75784239987843,83.75784239987843,84.30803290009499,left,1.0,65.42242560000159,,,,,,,,,,,,,,,,,,,,,,,,,,,,,,sub-215,1.0,random_dot,60.15283634190397,
left,left,speed,,,,,0.0,0.0,0.0,1.0,6.0,0.0,12.0,0.0,84.32320149987936,,,,,,,,,84.30882050003856,85.52237250003964,86.32279850007035,86.30575659987517,86.30577289988287,86.32279850007035,86.32279850007035,86.32279850007035,86.89048429997638,left,1.0,65.44971210020594,,,,,,,,,,,,,,,,,,,,,,,,,,,,,,sub-215,1.0,random_dot,60.15283634190397,
right,right,speed,,,,,0.0,0.0,0.0,1.0,6.0,1.0,13.0,1.0,86.90467979991809,,,,,,,,,86.89163569989614,88.10414239997044,88.90452129999176,88.88764590001665,88.88766660005786,88.90452129999176,88.90452129999176,88.90452129999176,89.30554810003377,right,1.0,65.27125290012918,,,,,,,,,,,,,,,,,,,,,,,,,,,,,,sub-215,1.0,random_dot,60.15283634190397,
right,right,speed,,,,,0.0,0.0,0.0,1.0,7.0,0.0,14.0,1.0,89.3200930999592,,,,,,,,,89.30707430001348,90.11951479990968,90.92003399995156,90.90297769987956,90.90300450008364,90.92003399995156,90.92003399995156,90.92003399995156,91.40403730003165,right,1.0,65.35204929998145,,,,,,,,,,,,,,,,,,,,,,,,,,,,,,sub-215,1.0,random_dot,60.15283634190397,
left,left,speed,,,,,0.0,0.0,0.0,1.0,7.0,1.0,15.0,0.0,91.41867799987084,,,,,,,,,91.40509540005588,91.76835620007478,92.56897710007615,92.55190759990364,92.55193599988706,92.56897710007615,92.56897710007615,92.56897710007615,93.12001139996572,left,1.0,65.42428150004707,,,,,,,,,,,,,,,,,,,,,,,,,,,,,,sub-215,1.0,random_dot,60.15283634190397,
left,left,speed,,,,,0.0,0.0,0.0,1.0,8.0,0.0,16.0,0.0,93.13412080006674,,,,,,,,,93.12150499993004,93.93364880001172,94.73425500001758,94.71738000004552,94.71740309987216,94.73425500001758,94.73425500001758,94.73425500001758,95.3350237000268,left,1.0,65.47022449993528,,,,,,,,,,,,,,,,,,,,,,,,,,,,,,sub-215,1.0,random_dot,60.15283634190397,
right,right,speed,,,,,0.0,0.0,0.0,1.0,8.0,1.0,17.0,1.0,95.34952199994586,,,,,,,,,95.33625270007178,95.69939349987544,96.49973260005936,96.48296150006354,96.48298539989628,96.49973260005936,96.49973260005936,96.49973260005936,97.05075430008584,right,1.0,65.42366530001163,,,,,,,,,,,,,,,,,,,,,,,,,,,,,,sub-215,1.0,random_dot,60.15283634190397,
left,left,speed,,,,,0.0,0.0,0.0,1.0,9.0,0.0,18.0,0.0,97.06534629990348,,,,,,,,,97.05198300001211,98.26437749993056,99.0649816999212,99.04844180005604,99.048482199898,99.0649816999212,99.0649816999212,99.0649816999212,99.59954329999164,left,1.0,65.41517230006866,,,,,,,,,,,,,,,,,,,,,,,,,,,,,,sub-215,1.0,random_dot,60.15283634190397,
right,right,speed,,,,,0.0,0.0,0.0,1.0,9.0,1.0,19.0,1.0,99.61378180002794,,,,,,,,,99.60126890009268,100.41313509992324,101.21372670005076,101.1968254998792,101.19684639992192,101.21372670005076,101.21372670005076,101.21372670005076,101.64794220007025,right,1.0,65.3137693000026,,,,,,,,,,,,,,,,,,,,,,,,,,,,,,sub-215,1.0,random_dot,60.15283634190397,
left,left,speed,,,,,0.0,0.0,0.0,1.0,10.0,0.0,20.0,0.0,101.66231680009514,,,,,,,,,101.64922149991617,102.46198830008508,103.2622803999111,103.24528379994445,103.24530839989892,103.2622803999111,103.2622803999111,103.2622803999111,103.71302510006352,left,1.0,65.3234116001986,,,,,,,,,,,,,,,,,,,,,,,,,,,,,,sub-215,1.0,random_dot,60.15283634190397,
right,right,speed,,,,,0.0,0.0,0.0,1.0,10.0,1.0,21.0,1.0,103.72790689999238,,,,,,,,,103.71437820000574,104.52727869991212,105.3278633998707,105.31122560007498,105.31126730004326,105.3278633998707,105.3278633998707,105.3278633998707,105.74581360002048,right,1.0,65.2981501002796,,,,,,,,,,,,,,,,,,,,,,,,,,,,,,sub-215,1.0,random_dot,60.15283634190397,
right,right,speed,,,,,0.0,0.0,0.0,1.0,11.0,0.0,22.0,1.0,105.7599967001006,,,,,,,,,105.74750489997678,106.10978440009058,106.91004769993016,106.89322729990818,106.89324690005742,106.91004769993016,106.91004769993016,106.91004769993016,107.39403319987468,left,0.0,65.36490130005404,,,,,,,,,,,,,,,,,,,,,,,,,,,,,,sub-215,1.0,random_dot,60.15283634190397,
left,left,speed,,,,,0.0,0.0,0.0,1.0,11.0,1.0,23.0,0.0,107.40875530010088,,,,,,,,,107.39518329990096,107.75856039999051,108.55900710006244,108.54221699992196,108.54224450001492,108.55900710006244,108.55900710006244,108.55900710006244,109.10980259999631,left,1.0,65.42748369998299,,,,,,,,,,,,,,,,,,,,,,,,,,,,,,sub-215,1.0,random_dot,60.15283634190397,
right,right,speed,,,,,0.0,0.0,0.0,1.0,12.0,0.0,24.0,1.0,109.1244095999282,,,,,,,,,109.1108975999523,109.47417579987086,110.27470809989607,110.25788789987564,110.2579192998819,110.27470809989607,110.27470809989607,110.27470809989607,110.8261027999688,right,1.0,65.43247730005533,,,,,,,,,,,,,,,,,,,,,,,,,,,,,,sub-215,1.0,random_dot,60.15283634190397,
left,left,speed,,,,,0.0,0.0,0.0,1.0,12.0,1.0,25.0,0.0,110.84002309991048,,,,,,,,,110.82777239987628,111.63968700007536,112.44002399989404,112.42293099989185,112.42295009992084,112.44002399989404,112.44002399989404,112.44002399989404,112.92410439997911,left,1.0,65.35780940018594,,,,,,,,,,,,,,,,,,,,,,,,,,,,,,sub-215,1.0,random_dot,60.15283634190397,
left,left,speed,,,,,0.0,0.0,0.0,1.0,13.0,0.0,26.0,0.0,112.9385847998783,,,,,,,,,112.92534180008806,114.13801790005527,114.9384520999156,114.9216907999944,114.92172010010108,114.9384520999156,114.9384520999156,114.9384520999156,115.57251979992724,left,1.0,65.50530500011519,,,,,,,,,,,,,,,,,,,,,,,,,,,,,,sub-215,1.0,random_dot,60.15283634190397,
right,right,speed,,,,,0.0,0.0,0.0,1.0,13.0,1.0,27.0,1.0,115.58730309992096,,,,,,,,,115.57329649990425,116.78656559996308,117.58683899999596,117.569976599887,117.57000160007738,117.58683899999596,117.58683899999596,117.58683899999596,118.25467889988796,right,1.0,65.54747410002165,,,,,,,,,,,,,,,,,,,,,,,,,,,,,,sub-215,1.0,random_dot,60.15283634190397,
right,right,speed,,,,,0.0,0.0,0.0,1.0,14.0,0.0,28.0,1.0,118.26879159989768,,,,,,,,,118.2560626999475,118.36899350001477,119.16944639990106,119.15246920008212,119.15249409992248,119.16944639990106,119.16944639990106,119.16944639990106,119.9366180000361,left,0.0,65.64479689998552,,,,,,,,,,,,,,,,,,,,,,,,,,,,,,sub-215,1.0,random_dot,60.15283634190397,
left,left,speed,,,,,0.0,0.0,0.0,1.0,14.0,1.0,29.0,0.0,119.95162470010108,,,,,,,,,119.93729329993948,120.05138140008783,120.851639600005,120.83505159989,120.83508559991606,120.851639600005,120.851639600005,120.851639600005,121.45276360004208,left,1.0,65.47628420009278,,,,,,,,,,,,,,,,,,,,,,,,,,,,,,sub-215,1.0,random_dot,60.15283634190397,
right,right,speed,,,,,0.0,0.0,0.0,1.0,15.0,0.0,30.0,1.0,121.46687339991333,,,,,,,,,121.4545893999748,122.66639339993708,123.46660290006548,123.4500933000818,123.45012749987654,123.46660290006548,123.46660290006548,123.46660290006548,123.93439959990792,left,0.0,65.34411990013905,,,,,,,,,,,,,,,,,,,,,,,,,,,,,,sub-215,1.0,random_dot,60.15283634190397,
left,left,speed,,,,,0.0,0.0,0.0,1.0,15.0,1.0,31.0,0.0,123.94864910002798,,,,,,,,,123.93588949996048,124.2986314999871,125.0991420999635,125.0821913999971,125.08222389989533,125.0991420999635,125.0991420999635,125.0991420999635,125.71668260009028,left,1.0,65.4866808000952,,,,,,,,,,,,,,,,,,,,,,,,,,,,,,sub-215,1.0,random_dot,60.15283634190397,
right,right,speed,,,,,0.0,0.0,0.0,1.0,16.0,0.0,32.0,1.0,125.73117480007932,,,,,,,,,125.71823260001838,126.08093050005846,126.8814067998901,126.8646394999232,126.86467509996146,126.8814067998901,126.8814067998901,126.8814067998901,127.29915399989112,right,1.0,65.28992970008403,,,,,,,,,,,,,,,,,,,,,,,,,,,,,,sub-215,1.0,random_dot,60.15283634190397,
left,left,speed,,,,,0.0,0.0,0.0,1.0,16.0,1.0,33.0,0.0,127.31329339998774,,,,,,,,,127.30065130000004,127.41325269988738,128.2136645000428,128.19686560006812,128.19689300004393,128.2136645000428,128.2136645000428,128.2136645000428,128.76462329993956,left,1.0,65.4267114000395,,,,,,,,,,,,,,,,,,,,,,,,,,,,,,sub-215,1.0,random_dot,60.15283634190397,
left,left,speed,,,,,0.0,0.0,0.0,1.0,17.0,0.0,34.0,0.0,128.77925659995526,,,,,,,,,128.76611960004084,129.57882110006176,130.37925049988553,130.36233170004562,130.36236430006102,130.37925049988553,130.37925049988553,130.37925049988553,130.8806779999286,left,1.0,65.36697390023619,,,,,,,,,,,,,,,,,,,,,,,,,,,,,,sub-215,1.0,random_dot,60.15283634190397,
right,right,speed,,,,,0.0,0.0,0.0,1.0,17.0,1.0,35.0,1.0,130.89449020009488,,,,,,,,,130.8824696999509,131.24449549987912,132.0446558999829,132.0276651000604,132.02768309996463,132.0446558999829,132.0446558999829,132.0446558999829,132.711917999899,right,1.0,65.53461279999465,,,,,,,,,,,,,,,,,,,,,,,,,,,,,,sub-215,1.0,random_dot,60.15283634190397,
left,left,speed,,,,,0.0,0.0,0.0,1.0,18.0,0.0,36.0,0.0,132.72690730006434,,,,,,,,,132.7131328000687,133.52626760001294,134.32657979987562,134.309819099959,134.30984660005197,134.32657979987562,134.32657979987562,134.32657979987562,134.7279103999026,left,1.0,65.28158610011451,,,,,,,,,,,,,,,,,,,,,,,,,,,,,,sub-215,1.0,random_dot,60.15283634190397,
right,right,speed,,,,,0.0,0.0,0.0,1.0,18.0,1.0,37.0,1.0,134.74209060007706,,,,,,,,,134.72940890002064,135.54160350002348,136.3420076998882,136.32503210008144,136.32505430001763,136.3420076998882,136.3420076998882,136.3420076998882,136.79306850000285,right,1.0,65.3233464001678,,,,,,,,,,,,,,,,,,,,,,,,,,,,,,sub-215,1.0,random_dot,60.15283634190397,
left,left,speed,,,,,0.0,0.0,0.0,1.0,19.0,0.0,38.0,0.0,136.80750070000067,,,,,,,,,136.7942462998908,138.00660689990036,138.80718880007043,138.79053870006464,138.790563599905,138.80718880007043,138.80718880007043,138.80718880007043,139.27467139996588,left,1.0,65.33759920019656,,,,,,,,,,,,,,,,,,,,,,,,,,,,,,sub-215,1.0,random_dot,60.15283634190397,
right,right,speed,,,,,0.0,0.0,0.0,1.0,19.0,1.0,39.0,1.0,139.28956499998458,,,,,,,,,139.2758553000167,140.48876830004156,141.2891404000111,141.2725189998746,141.27256050007418,141.2891404000111,141.2891404000111,141.2891404000111,141.79012180003338,right,1.0,65.37526330025867,,,,,,,,,,,,,,,,,,,,,,,,,,,,,,sub-215,1.0,random_dot,60.15283634190397,
right,right,speed,,,,,0.0,0.0,0.0,1.0,20.0,0.0,40.0,1.0,141.80463830009103,,,,,,,,,141.79146689991467,143.00380480010062,143.80418649991043,143.78766430006362,143.78769839997403,143.80418649991043,143.80418649991043,143.80418649991043,144.3721684999764,right,1.0,65.44282210012898,,,,,,,,,,,,,,,,,,,,,,,,,,,,,,sub-215,1.0,random_dot,60.15283634190397,
left,left,speed,,,,,0.0,0.0,0.0,1.0,20.0,1.0,41.0,0.0,144.38627999997698,,,,,,,,,144.37409249995835,144.73598019988276,145.53659739997238,145.51995299989358,145.51999419997446,145.53659739997238,145.53659739997238,145.53659739997238,146.08732929988764,left,1.0,65.4285627999343,,,,,,,,,,,,,,,,,,,,,,,,,,,,,,sub-215,1.0,random_dot,60.15283634190397,
left,left,speed,,,,,0.0,0.0,0.0,1.0,21.0,0.0,42.0,0.0,146.1018342000898,,,,,,,,,146.0886162999086,146.20186179992743,147.00235909991898,146.98553829989396,146.98556599998847,147.00235909991898,147.00235909991898,147.00235909991898,147.6027792999521,right,0.0,65.47422750014812,,,,,,,,,,,,,,,,,,,,,,,,,,,,,,sub-215,1.0,random_dot,60.15283634190397,
right,right,speed,,,,,0.0,0.0,0.0,1.0,21.0,1.0,43.0,1.0,147.61778500000946,,,,,,,,,147.60378880007192,148.81683819997124,149.61723580001853,149.60026980005205,149.6002915999852,149.61723580001853,149.61723580001853,149.61723580001853,150.18491369998085,right,1.0,65.44958670018241,,,,,,,,,,,,,,,,,,,,,,,,,,,,,,sub-215,1.0,random_dot,60.15283634190397,
left,left,speed,,,,,0.0,0.0,0.0,1.0,22.0,0.0,44.0,0.0,150.1995256000664,,,,,,,,,150.1860990000423,150.29921890003607,151.0996506998781,151.08313430007547,151.0831633999478,151.0996506998781,151.0996506998781,151.0996506998781,151.63382479990833,left,1.0,65.40898820012808,,,,,,,,,,,,,,,,,,,,,,,,,,,,,,sub-215,1.0,random_dot,60.15283634190397,
right,right,speed,,,,,0.0,0.0,0.0,1.0,22.0,1.0,45.0,1.0,151.648489800049,,,,,,,,,151.63519080006515,152.4482022000011,153.2484281999059,153.23161450005136,153.23163549997844,153.2484281999059,153.2484281999059,153.2484281999059,153.73279769998044,right,1.0,65.36600130004808,,,,,,,,,,,,,,,,,,,,,,,,,,,,,,sub-215,1.0,random_dot,60.15283634190397,
right,right,speed,,,,,0.0,0.0,0.0,1.0,23.0,0.0,46.0,1.0,153.7471580998972,,,,,,,,,153.7340227998793,154.0971669999417,154.89736320008524,154.8805619000923,154.88059090008028,154.89736320008524,154.89736320008524,154.89736320008524,155.43163549993187,right,1.0,65.41372690000571,,,,,,,,,,,,,,,,,,,,,,,,,,,,,,sub-215,1.0,random_dot,60.15283634190397,
left,left,speed,,,,,0.0,0.0,0.0,1.0,23.0,1.0,47.0,0.0,155.44623339991085,,,,,,,,,155.4328177999705,155.7958070000168,156.5965612998698,156.5795334998984,156.57955899997614,156.5965612998698,156.5965612998698,156.5965612998698,157.1804623999633,left,1.0,65.45987519994378,,,,,,,,,,,,,,,,,,,,,,,,,,,,,,sub-215,1.0,random_dot,60.15283634190397,
left,left,speed,,,,,0.0,0.0,0.0,1.0,24.0,0.0,48.0,0.0,157.19504299992695,,,,,,,,,157.18122310005128,157.54489109991118,158.34526579990052,158.32831849996,158.32834389992058,158.34526579990052,158.34526579990052,158.34526579990052,159.12935400009155,right,0.0,65.66461510024965,,,,,,,,,,,,,,,,,,,,,,,,,,,,,,sub-215,1.0,random_dot,60.15283634190397,
right,right,speed,,,,,0.0,0.0,0.0,1.0,24.0,1.0,49.0,1.0,159.14379339991137,,,,,,,,,159.13070430001244,159.49357210006565,160.2942713999655,160.27735419990495,160.27738690003753,160.2942713999655,160.2942713999655,160.2942713999655,160.8451783999335,right,1.0,65.42403300013393,,,,,,,,,,,,,,,,,,,,,,,,,,,,,,sub-215,1.0,random_dot,60.15283634190397,
right,right,speed,,,,,0.0,0.0,0.0,1.0,25.0,0.0,50.0,1.0,160.85962869995274,,,,,,,,,160.84659199998714,161.2092573000118,162.0094729999546,161.99248460005035,161.99249939993024,162.0094729999546,162.0094729999546,162.0094729999546,162.59392839996144,right,1.0,65.46176430000924,,,,,,,,,,,,,,,,,,,,,,,,,,,,,,sub-215,1.0,random_dot,60.15283634190397,
left,left,speed,,,,,0.0,0.0,0.0,1.0,25.0,1.0,51.0,0.0,162.60865899990313,,,,,,,,,162.59530510008335,162.70848700008355,163.50878769997507,163.49218999990262,163.49222150002606,163.50878769997507,163.50878769997507,163.50878769997507,163.95947239990346,left,1.0,65.32091160002165,,,,,,,,,,,,,,,,,,,,,,,,,,,,,,sub-215,1.0,random_dot,60.15283634190397,
left,left,speed,,,,,0.0,0.0,0.0,1.0,26.0,0.0,52.0,0.0,163.97446789988317,,,,,,,,,163.96017000009306,164.32407790003344,165.12456090003252,165.10788529994898,165.10792650002986,165.12456090003252,165.12456090003252,165.12456090003252,165.70900420006365,right,0.0,65.45187600026838,,,,,,,,,,,,,,,,,,,,,,,,,,,,,,sub-215,1.0,random_dot,60.15283634190397,
right,right,speed,,,,,0.0,0.0,0.0,1.0,26.0,1.0,53.0,1.0,165.72326539992355,,,,,,,,,165.71067319996655,166.0730687000323,166.87337119993754,166.85666580009274,166.85669029993005,166.87337119993754,166.87337119993754,166.87337119993754,167.47415970009752,right,1.0,65.47895140014589,,,,,,,,,,,,,,,,,,,,,,,,,,,,,,sub-215,1.0,random_dot,60.15283634190397,
left,left,speed,,,,,0.0,0.0,0.0,1.0,27.0,0.0,54.0,0.0,167.48893049987964,,,,,,,,,167.47546019987203,168.68813419993967,169.48849479993805,169.47210090002045,169.47214199998416,169.48849479993805,169.48849479993805,169.48849479993805,169.95726480009034,left,1.0,65.35025430005044,,,,,,,,,,,,,,,,,,,,,,,,,,,,,,sub-215,1.0,random_dot,60.15283634190397,
right,right,speed,,,,,0.0,0.0,0.0,1.0,27.0,1.0,55.0,1.0,169.97064909990877,,,,,,,,,169.95893720001914,170.7702701999806,171.57071230001748,171.55392289999872,171.55395329999735,171.57071230001748,171.57071230001748,171.57071230001748,172.13833649992011,right,1.0,65.43424879992381,,,,,,,,,,,,,,,,,,,,,,,,,,,,,,sub-215,1.0,random_dot,60.15283634190397,
left,left,speed,,,,,0.0,0.0,0.0,1.0,28.0,0.0,56.0,0.0,172.15275579993613,,,,,,,,,172.14000570005737,172.25261009996757,173.05297329998575,173.03634370001964,173.0363747999072,173.05297329998575,173.05297329998575,173.05297329998575,173.82059370004572,left,1.0,65.64459350006655,,,,,,,,,,,,,,,,,,,,,,,,,,,,,,sub-215,1.0,random_dot,60.15283634190397,
right,right,speed,,,,,0.0,0.0,0.0,1.0,28.0,1.0,57.0,1.0,173.83488509990275,,,,,,,,,173.8227065000683,174.63437590003014,175.43478580005467,175.41773759992793,175.41775440005586,175.43478580005467,175.43478580005467,175.43478580005467,175.93589859991334,right,1.0,65.37124960008077,,,,,,,,,,,,,,,,,,,,,,,,,,,,,,sub-215,1.0,random_dot,60.15283634190397,
left,left,speed,,,,,0.0,0.0,0.0,1.0,29.0,0.0,58.0,0.0,175.9503583998885,,,,,,,,,175.9372916999273,176.74998100008816,177.55019009998068,177.53314370010048,177.53316370001994,177.55019009998068,177.55019009998068,177.55019009998068,177.96767359995283,left,1.0,65.296235000249,,,,,,,,,,,,,,,,,,,,,,,,,,,,,,sub-215,1.0,random_dot,60.15283634190397,
right,right,speed,,,,,0.0,0.0,0.0,1.0,29.0,1.0,59.0,1.0,177.9826108000707,,,,,,,,,177.96875209989958,179.1815992000047,179.98227540007792,179.9654260999523,179.965455400059,179.98227540007792,179.98227540007792,179.98227540007792,180.5331053000409,right,1.0,65.41862130002119,,,,,,,,,,,,,,,,,,,,,,,,,,,,,,sub-215,1.0,random_dot,60.15283634190397,
,,speed,,,,,0.0,0.0,0.0,1.0,,,,,,,,,,,,,,,,,,,,,,,,,,,,,,,,,,,,,,,,,,,,,,,,,,,,,,,sub-215,1.0,random_dot,60.15283634190397,
right,right,accuracy,,,,,0.0,1.0,1.0,0.0,0.0,0.0,0.0,1.0,182.92932039988227,,,,,,,,,182.9234873999376,184.1285806999076,184.92885320005007,184.91202470008284,184.9120414000936,184.92885320005007,184.92885320005007,184.92885320005007,185.4631598999258,right,1.0,65.40095620020293,,,,,,,,,,,,,,,,,,,,180.5345753999427,180.5500558000058,180.5500558000058,182.9141667000949,space,67.23797090002336,,,,,sub-215,1.0,random_dot,60.15283634190397,
left,left,accuracy,,,,,0.0,1.0,1.0,0.0,0.0,1.0,1.0,0.0,185.47795460000637,,,,,,,,,185.46460659988225,186.67700999998488,187.4774619000964,187.4607086998876,187.4607293999288,187.4774619000964,187.4774619000964,187.4774619000964,187.97840439993888,left,1.0,65.37118969997391,,,,,,,,,,,,,,,,,,,,,,,,,,,,,,sub-215,1.0,random_dot,60.15283634190397,
right,right,accuracy,,,,,0.0,1.0,1.0,0.0,1.0,0.0,2.0,1.0,187.99278289987703,,,,,,,,,187.9792923000641,188.09278770000677,188.89355159993283,188.8766914999578,188.87672269996256,188.89355159993283,188.89355159993283,188.89355159993283,189.64416270004585,right,1.0,65.61794760008343,,,,,,,,,,,,,,,,,,,,,,,,,,,,,,sub-215,1.0,random_dot,60.15283634190397,
left,left,accuracy,,,,,0.0,1.0,1.0,0.0,1.0,1.0,3.0,0.0,189.6584735000506,,,,,,,,,189.64563359995373,189.75868740002625,190.55906530003995,190.54217569995672,190.54220169992183,190.55906530003995,190.55906530003995,190.55906530003995,192.39243749994785,left,1.0,66.70807930012234,,,,,,,,,,,,,,,,,,,,,,,,,,,,,,sub-215,1.0,random_dot,60.15283634190397,
right,right,accuracy,,,,,0.0,1.0,1.0,0.0,2.0,0.0,4.0,1.0,192.40701050008647,,,,,,,,,192.3940214000177,193.2065033998806,194.0068667999003,193.990161200054,193.9901936999522,194.0068667999003,194.0068667999003,194.0068667999003,194.64132239995524,right,1.0,65.51258450001478,,,,,,,,,,,,,,,,,,,,,,,,,,,,,,sub-215,1.0,random_dot,60.15283634190397,
left,left,accuracy,,,,,0.0,1.0,1.0,0.0,2.0,1.0,5.0,0.0,194.6554982999805,,,,,,,,,194.6430764000397,195.0055340998806,195.80589030007832,195.7888722000644,195.7888960998971,195.80589030007832,195.80589030007832,195.80589030007832,196.3896125999745,left,1.0,65.45812580012716,,,,,,,,,,,,,,,,,,,,,,,,,,,,,,sub-215,1.0,random_dot,60.15283634190397,
right,right,accuracy,,,,,0.0,1.0,1.0,0.0,3.0,0.0,6.0,1.0,196.4043517000973,,,,,,,,,196.39050099998715,197.20407960005105,198.0045837000944,197.98746660002507,197.98749019997197,198.0045837000944,198.0045837000944,198.0045837000944,199.03839590004645,right,1.0,65.91430930001661,,,,,,,,,,,,,,,,,,,,,,,,,,,,,,sub-215,1.0,random_dot,60.15283634190397,
left,left,accuracy,,,,,0.0,1.0,1.0,0.0,3.0,1.0,7.0,0.0,199.05281629995443,,,,,,,,,199.03966780006888,199.4025751000736,200.20311030000448,200.18613520008512,200.18616329994984,200.20311030000448,200.20311030000448,200.20311030000448,200.95400079991668,left,1.0,65.62265560007654,,,,,,,,,,,,,,,,,,,,,,,,,,,,,,sub-215,1.0,random_dot,60.15283634190397,
right,right,accuracy,,,,,0.0,1.0,1.0,0.0,4.0,0.0,8.0,1.0,200.96825259993784,,,,,,,,,200.9554983000271,201.3182512000203,202.118717599893,202.1019514000509,202.1019844000693,202.118717599893,202.118717599893,202.118717599893,202.83604809991084,right,1.0,65.59756199992262,,,,,,,,,,,,,,,,,,,,,,,,,,,,,,sub-215,1.0,random_dot,60.15283634190397,
left,left,accuracy,,,,,0.0,1.0,1.0,0.0,4.0,1.0,9.0,0.0,202.85070029995404,,,,,,,,,202.83757869992405,204.0497087999247,204.85046999994665,204.8336783000268,204.83371619996612,204.85046999994665,204.85046999994665,204.85046999994665,205.4346244998742,left,1.0,65.45985400024801,,,,,,,,,,,,,,,,,,,,,,,,,,,,,,sub-215,1.0,random_dot,60.15283634190397,
left,left,accuracy,,,,,0.0,1.0,1.0,0.0,5.0,0.0,10.0,0.0,205.44904619990848,,,,,,,,,205.43629550002515,206.64812460006212,207.44839329994284,207.43134730006568,207.43136420007795,207.44839329994284,207.44839329994284,207.44839329994284,208.13323389994912,left,1.0,65.55210019997321,,,,,,,,,,,,,,,,,,,,,,,,,,,,,,sub-215,1.0,random_dot,60.15283634190397,
right,right,accuracy,,,,,0.0,1.0,1.0,0.0,5.0,1.0,11.0,1.0,208.1472646999173,,,,,,,,,208.13516519987024,208.2471672000829,209.0476172999479,209.03094279998916,209.03097319998776,209.0476172999479,209.0476172999479,209.0476172999479,210.0648532998748,right,1.0,65.89225160004571,,,,,,,,,,,,,,,,,,,,,,,,,,,,,,sub-215,1.0,random_dot,60.15283634190397,
left,left,accuracy,,,,,0.0,1.0,1.0,0.0,6.0,0.0,12.0,0.0,210.0795914998744,,,,,,,,,210.06625659996644,210.87908750004132,211.67953990004025,211.66280729998837,211.66285079997036,211.67953990004025,211.67953990004025,211.67953990004025,212.5801574999932,left,1.0,65.7708143000491,,,,,,,,,,,,,,,,,,,,,,,,,,,,,,sub-215,1.0,random_dot,60.15283634190397,
right,right,accuracy,,,,,0.0,1.0,1.0,0.0,6.0,1.0,13.0,1.0,212.5944487000816,,,,,,,,,212.58154879999347,212.6947105000727,213.49486980005167,213.47798709990457,213.47801329987124,213.49486980005167,213.49486980005167,213.49486980005167,214.3624668000266,right,1.0,65.74483470013365,,,,,,,,,,,,,,,,,,,,,,,,,,,,,,sub-215,1.0,random_dot,60.15283634190397,
right,right,accuracy,,,,,0.0,1.0,1.0,0.0,7.0,0.0,14.0,1.0,214.37673470005396,,,,,,,,,214.3640423999168,215.5762221000623,216.37656260002404,216.3596254999284,216.35967610008083,216.37656260002404,216.37656260002404,216.37656260002404,217.24420979991555,right,1.0,65.74519280018285,,,,,,,,,,,,,,,,,,,,,,,,,,,,,,sub-215,1.0,random_dot,60.15283634190397,
left,left,accuracy,,,,,0.0,1.0,1.0,0.0,7.0,1.0,15.0,0.0,217.25847709993832,,,,,,,,,217.2459813999012,217.60823410004377,218.4087859001011,218.39201790001243,218.3920529000461,218.4087859001011,218.4087859001011,218.4087859001011,219.17606620001607,left,1.0,65.63366740010679,,,,,,,,,,,,,,,,,,,,,,,,,,,,,,sub-215,1.0,random_dot,60.15283634190397,
right,right,accuracy,,,,,0.0,1.0,1.0,0.0,8.0,0.0,16.0,1.0,219.1906087000389,,,,,,,,,219.17674689996056,220.38972550001927,221.1901940999087,221.17359860008585,221.17362789995968,221.1901940999087,221.1901940999087,221.1901940999087,222.00805400009267,right,1.0,65.69617630005814,,,,,,,,,,,,,,,,,,,,,,,,,,,,,,sub-215,1.0,random_dot,60.15283634190397,
left,left,accuracy,,,,,0.0,1.0,1.0,0.0,8.0,1.0,17.0,0.0,222.022193599958,,,,,,,,,222.0096390999388,222.37185209989548,223.17250830004923,223.15545660001223,223.1554848998785,223.17250830004923,223.17250830004923,223.17250830004923,223.95662850001827,left,1.0,65.6556635000743,,,,,,,,,,,,,,,,,,,,,,,,,,,,,,sub-215,1.0,random_dot,60.15283634190397,
right,right,accuracy,,,,,0.0,1.0,1.0,0.0,9.0,0.0,18.0,1.0,223.9709509999957,,,,,,,,,223.9582102000713,225.17014420009215,225.97056509996764,225.95383580005728,225.95386120001783,225.97056509996764,225.97056509996764,225.97056509996764,226.8543857999612,right,1.0,65.7624278999865,,,,,,,,,,,,,,,,,,,,,,,,,,,,,,sub-215,1.0,random_dot,60.15283634190397,
left,left,accuracy,,,,,0.0,1.0,1.0,0.0,9.0,1.0,19.0,0.0,226.8693299998995,,,,,,,,,226.8553748999257,226.9690761000384,227.7694675999228,227.7525464000646,227.7525686000008,227.7694675999228,227.7694675999228,227.7694675999228,228.6199670000933,left,1.0,65.73112759995274,,,,,,,,,,,,,,,,,,,,,,,,,,,,,,sub-215,1.0,random_dot,60.15283634190397,
left,left,accuracy,,,,,0.0,1.0,1.0,0.0,10.0,0.0,20.0,0.0,228.6346632000059,,,,,,,,,228.62115129991437,229.833958900068,230.6343880998902,230.61775900004432,230.61778860003687,230.6343880998902,230.6343880998902,230.6343880998902,231.26876790006645,right,0.0,65.51211650017649,,,,,,,,,,,,,,,,,,,,,,,,,,,,,,sub-215,1.0,random_dot,60.15283634190397,
right,right,accuracy,,,,,0.0,1.0,1.0,0.0,10.0,1.0,21.0,1.0,231.28318800008856,,,,,,,,,231.2703396999277,232.08258839999328,232.88293870002963,232.8662930999417,232.86632069991904,232.88293870002963,232.88293870002963,232.88293870002963,233.7343639000319,right,1.0,65.72037200024351,,,,,,,,,,,,,,,,,,,,,,,,,,,,,,sub-215,1.0,random_dot,60.15283634190397,
left,left,accuracy,,,,,0.0,1.0,1.0,0.0,11.0,0.0,22.0,0.0,233.7483179999981,,,,,,,,,233.7362726998981,233.8484058000613,234.64874129998495,234.63197889993896,234.63200769992545,234.64874129998495,234.64874129998495,234.64874129998495,235.54964659991677,left,1.0,65.77775730006397,,,,,,,,,,,,,,,,,,,,,,,,,,,,,,sub-215,1.0,random_dot,60.15283634190397,
right,right,accuracy,,,,,0.0,1.0,1.0,0.0,11.0,1.0,23.0,1.0,235.5638071000576,,,,,,,,,235.55119180004112,235.6637242001016,236.4641291999724,236.44756180001423,236.44759069988504,236.4641291999724,236.4641291999724,236.4641291999724,237.16524760006,right,1.0,65.57755489996634,,,,,,,,,,,,,,,,,,,,,,,,,,,,,,sub-215,1.0,random_dot,60.15283634190397,
left,left,accuracy,,,,,0.0,1.0,1.0,0.0,12.0,0.0,24.0,0.0,237.17957949987613,,,,,,,,,237.1668155998923,237.97893159999512,238.77940619993024,238.7625436000526,238.7625680998899,238.77940619993024,238.77940619993024,238.77940619993024,239.4808495999314,left,1.0,65.58339470019564,,,,,,,,,,,,,,,,,,,,,,,,,,,,,,sub-215,1.0,random_dot,60.15283634190397,
right,right,accuracy,,,,,0.0,1.0,1.0,0.0,12.0,1.0,25.0,1.0,239.49475449998863,,,,,,,,,239.4821051999461,239.8445377999451,240.64490769989789,240.62811130005863,240.62813910003752,240.64490769989789,240.64490769989789,240.64490769989789,241.3125074999407,right,1.0,65.54484379990026,,,,,,,,,,,,,,,,,,,,,,,,,,,,,,sub-215,1.0,random_dot,60.15283634190397,
left,left,accuracy,,,,,0.0,1.0,1.0,0.0,13.0,0.0,26.0,0.0,241.3270568998996,,,,,,,,,241.31351660005748,242.52620309987103,243.3266078000888,243.3098122999072,243.3098398998845,243.3266078000888,243.3266078000888,243.3266078000888,244.22680919989944,left,1.0,65.77815630007535,,,,,,,,,,,,,,,,,,,,,,,,,,,,,,sub-215,1.0,random_dot,60.15283634190397,
right,right,accuracy,,,,,0.0,1.0,1.0,0.0,13.0,1.0,27.0,1.0,244.2420717000496,,,,,,,,,244.2277691999916,244.59181899996477,245.39220159989785,245.3752524999436,245.37527560000308,245.39220159989785,245.39220159989785,245.39220159989785,246.14342370000668,right,1.0,65.62607010011561,,,,,,,,,,,,,,,,,,,,,,,,,,,,,,sub-215,1.0,random_dot,60.15283634190397,
right,right,accuracy,,,,,0.0,1.0,1.0,0.0,14.0,0.0,28.0,1.0,246.15752490004525,,,,,,,,,246.1453016998712,246.25746260001324,247.0576696998905,247.0407243000809,247.0407451000065,247.0576696998905,247.0576696998905,247.0576696998905,248.041788399918,right,1.0,65.85962720005773,,,,,,,,,,,,,,,,,,,,,,,,,,,,,,sub-215,1.0,random_dot,60.15283634190397,
left,left,accuracy,,,,,0.0,1.0,1.0,0.0,14.0,1.0,29.0,0.0,248.0561919999309,,,,,,,,,248.04326709988527,248.40594099997543,249.20649109990336,249.18987490003929,249.18990470003337,249.20649109990336,249.20649109990336,249.20649109990336,249.95685940003025,right,0.0,65.61963260010816,,,,,,,,,,,,,,,,,,,,,,,,,,,,,,sub-215,1.0,random_dot,60.15283634190397,
right,right,accuracy,,,,,0.0,1.0,1.0,0.0,15.0,0.0,30.0,1.0,249.9719430000987,,,,,,,,,249.95785970008,250.07158689992505,250.8720962998923,250.8551079998724,250.85513120004907,250.8720962998923,250.8720962998923,250.8720962998923,251.8392272000201,right,1.0,65.8429600999225,,,,,,,,,,,,,,,,,,,,,,,,,,,,,,sub-215,1.0,random_dot,60.15283634190397,
left,left,accuracy,,,,,0.0,1.0,1.0,0.0,15.0,1.0,31.0,0.0,251.8540139000397,,,,,,,,,251.84045289992355,251.95398429990743,252.7543176999316,252.7373434000183,252.7373617999256,252.7543176999316,252.7543176999316,252.7543176999316,254.82088440004736,right,0.0,66.94670160021633,,,,,,,,,,,,,,,,,,,,,,,,,,,,,,sub-215,1.0,random_dot,60.15283634190397,
left,left,accuracy,,,,,0.0,1.0,1.0,0.0,16.0,0.0,32.0,0.0,254.83534669992517,,,,,,,,,254.82237259997052,255.6349315000698,256.4354401999153,256.4182038998697,256.4182237999048,256.4354401999153,256.4354401999153,256.4354401999153,257.40280879987404,left,1.0,65.83347499999218,,,,,,,,,,,,,,,,,,,,,,,,,,,,,,sub-215,1.0,random_dot,60.15283634190397,
right,right,accuracy,,,,,0.0,1.0,1.0,0.0,16.0,1.0,33.0,1.0,257.41716860001907,,,,,,,,,257.40458339988254,258.2168654999696,259.0172524000518,259.0003279999364,259.00036960002035,259.0172524000518,259.0172524000518,259.0172524000518,260.0678071000148,right,1.0,65.9274253998883,,,,,,,,,,,,,,,,,,,,,,,,,,,,,,sub-215,1.0,random_dot,60.15283634190397,
left,left,accuracy,,,,,0.0,1.0,1.0,0.0,17.0,0.0,34.0,0.0,260.0822264000308,,,,,,,,,260.0692833000794,260.881650299998,261.68206980009563,261.6652788000647,261.6653066999279,261.68206980009563,261.68206980009563,261.68206980009563,262.4162955000065,left,1.0,65.60187250003219,,,,,,,,,,,,,,,,,,,,,,,,,,,,,,sub-215,1.0,random_dot,60.15283634190397,
right,right,accuracy,,,,,0.0,1.0,1.0,0.0,17.0,1.0,35.0,1.0,262.4307397999801,,,,,,,,,262.41776419989765,262.53065870003775,263.3310658999253,263.3141151999589,263.31413759989664,263.3310658999253,263.3310658999253,263.3310658999253,264.4813313998748,right,1.0,66.02152549987659,,,,,,,,,,,,,,,,,,,,,,,,,,,,,,sub-215,1.0,random_dot,60.15283634190397,
left,left,accuracy,,,,,0.0,1.0,1.0,0.0,18.0,0.0,36.0,0.0,264.4964763999451,,,,,,,,,264.4820703000296,265.69538150005974,266.4958295999095,266.4793030999135,266.47934419987723,266.4958295999095,266.4958295999095,266.4958295999095,267.27988040004857,left,1.0,65.6530744000338,,,,,,,,,,,,,,,,,,,,,,,,,,,,,,sub-215,1.0,random_dot,60.15283634190397,
right,right,accuracy,,,,,0.0,1.0,1.0,0.0,18.0,1.0,37.0,1.0,267.2943851999007,,,,,,,,,267.2812191999983,267.39455000008456,268.1948090000078,268.17771540000103,268.17774150008336,268.1948090000078,268.1948090000078,268.1948090000078,269.42924179998226,right,1.0,66.11623129993677,,,,,,,,,,,,,,,,,,,,,,,,,,,,,,sub-215,1.0,random_dot,60.15283634190397,
left,left,accuracy,,,,,0.0,1.0,1.0,0.0,19.0,0.0,38.0,0.0,269.4430782001,,,,,,,,,269.43058230006136,270.2428609000053,271.04307450004853,271.026573299896,271.02660209988244,271.04307450004853,271.04307450004853,271.04307450004853,271.9108748000581,left,1.0,65.7454775001388,,,,,,,,,,,,,,,,,,,,,,,,,,,,,,sub-215,1.0,random_dot,60.15283634190397,
right,right,accuracy,,,,,0.0,1.0,1.0,0.0,19.0,1.0,39.0,1.0,271.9249263999518,,,,,,,,,271.9129304999951,272.7245674000588,273.5248475999106,273.50777149992064,273.50778879993595,273.5248475999106,273.5248475999106,273.5248475999106,274.7586997000035,right,1.0,66.1033801001031,,,,,,,,,,,,,,,,,,,,,,,,,,,,,,sub-215,1.0,random_dot,60.15283634190397,
right,right,accuracy,,,,,0.0,1.0,1.0,0.0,20.0,0.0,40.0,1.0,274.7731224000454,,,,,,,,,274.7599416000303,275.9726674000267,276.7729132999666,276.75614099996164,276.75616939994507,276.7729132999666,276.7729132999666,276.7729132999666,278.42342150001787,right,1.0,66.52294740010984,,,,,,,,,,,,,,,,,,,,,,,,,,,,,,sub-215,1.0,random_dot,60.15283634190397,
left,left,accuracy,,,,,0.0,1.0,1.0,0.0,20.0,1.0,41.0,0.0,278.43777700001374,,,,,,,,,278.4249919001013,278.7874384999741,279.587974099908,279.57129110000096,279.57133199996315,279.587974099908,279.587974099908,279.587974099908,280.45540759991854,left,1.0,65.74724930012599,,,,,,,,,,,,,,,,,,,,,,,,,,,,,,sub-215,1.0,random_dot,60.15283634190397,
left,left,accuracy,,,,,0.0,1.0,1.0,0.0,21.0,0.0,42.0,0.0,280.469869799912,,,,,,,,,280.45700139994733,281.66893679997884,282.4693763998803,282.4525729999877,282.45259959995747,282.4693763998803,282.4693763998803,282.4693763998803,283.87004159996286,right,0.0,66.26684439997189,,,,,,,,,,,,,,,,,,,,,,,,,,,,,,sub-215,1.0,random_dot,60.15283634190397,
right,right,accuracy,,,,,0.0,1.0,1.0,0.0,21.0,1.0,43.0,1.0,283.88433220004663,,,,,,,,,283.8715204000473,285.0836934999097,285.8841287000105,285.8670934999828,285.86712009995244,285.8841287000105,285.8841287000105,285.8841287000105,286.6014870000072,right,1.0,65.58976330026053,,,,,,,,,,,,,,,,,,,,,,,,,,,,,,sub-215,1.0,random_dot,60.15283634190397,
right,right,accuracy,,,,,0.0,1.0,1.0,0.0,22.0,0.0,44.0,1.0,286.6158862998709,,,,,,,,,286.6029727999121,286.7158514999319,287.5162901999429,287.49951889994554,287.4995470000431,287.5162901999429,287.5162901999429,287.5162901999429,288.5674177000765,left,0.0,65.93288500024937,,,,,,,,,,,,,,,,,,,,,,,,,,,,,,sub-215,1.0,random_dot,60.15283634190397,
left,left,accuracy,,,,,0.0,1.0,1.0,0.0,22.0,1.0,45.0,0.0,288.5815709999297,,,,,,,,,288.56893899990246,289.7807122999802,290.58134129992686,290.56455000001006,290.56458320003003,290.58134129992686,290.58134129992686,290.58134129992686,291.78165400004946,left,1.0,66.08233700017445,,,,,,,,,,,,,,,,,,,,,,,,,,,,,,sub-215,1.0,random_dot,60.15283634190397,
right,right,accuracy,,,,,0.0,1.0,1.0,0.0,23.0,0.0,46.0,1.0,291.79615409998223,,,,,,,,,291.7826244998723,292.99550270009786,293.796006700024,293.7788631999865,293.77888899995014,293.796006700024,293.796006700024,293.796006700024,294.4631288999226,right,1.0,65.54882610007189,,,,,,,,,,,,,,,,,,,,,,,,,,,,,,sub-215,1.0,random_dot,60.15283634190397,
left,left,accuracy,,,,,0.0,1.0,1.0,0.0,23.0,1.0,47.0,0.0,294.4781039999798,,,,,,,,,294.4639618000947,294.577812399948,295.3782257998828,295.3614807999693,295.3615057999268,295.3782257998828,295.3782257998828,295.3782257998828,296.1292479999829,left,1.0,65.61903619999066,,,,,,,,,,,,,,,,,,,,,,,,,,,,,,sub-215,1.0,random_dot,60.15283634190397,
left,left,accuracy,,,,,0.0,1.0,1.0,0.0,24.0,0.0,48.0,0.0,296.1436675998848,,,,,,,,,296.130662499927,296.9432177999988,297.743422199972,297.7267118000891,297.7267370999325,297.743422199972,297.743422199972,297.743422199972,298.3943570998963,right,0.0,65.52676440007053,,,,,,,,,,,,,,,,,,,,,,,,,,,,,,sub-215,1.0,random_dot,60.15283634190397,
right,right,accuracy,,,,,0.0,1.0,1.0,0.0,24.0,1.0,49.0,1.0,298.40890949987806,,,,,,,,,298.3957428999711,299.20848260005005,300.0086594999302,299.9916576000396,299.9916789000854,300.0086594999302,300.0086594999302,300.0086594999302,300.75918520009145,right,1.0,65.62645710003562,,,,,,,,,,,,,,,,,,,,,,,,,,,,,,sub-215,1.0,random_dot,60.15283634190397,
left,left,accuracy,,,,,0.0,1.0,1.0,0.0,25.0,0.0,50.0,0.0,300.7740756999701,,,,,,,,,300.76025369996205,300.8738502999768,301.67426469991915,301.65734319994226,301.6573645998724,301.67426469991915,301.67426469991915,301.67426469991915,302.4251518000383,left,1.0,65.62088440009393,,,,,,,,,,,,,,,,,,,,,,,,,,,,,,sub-215,1.0,random_dot,60.15283634190397,
right,right,accuracy,,,,,0.0,1.0,1.0,0.0,25.0,1.0,51.0,1.0,302.4396919999272,,,,,,,,,302.4263963000849,302.53950889990665,303.3401778000407,303.3229553999845,303.32297699991614,303.3401778000407,303.3401778000407,303.3401778000407,304.1239130999893,right,1.0,65.65270210010931,,,,,,,,,,,,,,,,,,,,,,,,,,,,,,sub-215,1.0,random_dot,60.15283634190397,
left,left,accuracy,,,,,0.0,1.0,1.0,0.0,26.0,0.0,52.0,0.0,304.1385381000582,,,,,,,,,304.12522959988564,304.2385094999336,305.0388748999685,305.02197430003434,305.0219954000786,305.0388748999685,305.0388748999685,305.0388748999685,306.03958470001817,left,1.0,65.86971770017408,,,,,,,,,,,,,,,,,,,,,,,,,,,,,,sub-215,1.0,random_dot,60.15283634190397,
right,right,accuracy,,,,,0.0,1.0,1.0,0.0,26.0,1.0,53.0,1.0,306.0542653000448,,,,,,,,,306.0409832999576,306.40382330003195,307.20424650004134,307.1874706998933,307.1874969999772,307.20424650004134,307.20424650004134,307.20424650004134,307.88881969987415,right,1.0,65.5666809999384,,,,,,,,,,,,,,,,,,,,,,,,,,,,,,sub-215,1.0,random_dot,60.15283634190397,
right,right,accuracy,,,,,0.0,1.0,1.0,0.0,27.0,0.0,54.0,1.0,307.9030124999117,,,,,,,,,307.8897323999554,308.70259290002286,309.50292499992065,309.4857964999974,309.4858111999929,309.50292499992065,309.50292499992065,309.50292499992065,310.35350279998966,right,1.0,65.73149839998223,,,,,,,,,,,,,,,,,,,,,,,,,,,,,,sub-215,1.0,random_dot,60.15283634190397,
left,left,accuracy,,,,,0.0,1.0,1.0,0.0,27.0,1.0,55.0,0.0,310.3683287000749,,,,,,,,,310.35438559995964,310.4680699000601,311.2686105000321,311.2514277000446,311.2514484000858,311.2686105000321,311.2686105000321,311.2686105000321,312.23567630001344,left,1.0,65.84049980016425,,,,,,,,,,,,,,,,,,,,,,,,,,,,,,sub-215,1.0,random_dot,60.15283634190397,
right,right,accuracy,,,,,0.0,1.0,1.0,0.0,28.0,0.0,56.0,1.0,312.2503984998912,,,,,,,,,312.2369077000767,313.44972879998386,314.25025500007905,314.2331924000755,314.2332081000786,314.25025500007905,314.25025500007905,314.25025500007905,314.96699670003727,right,1.0,65.58957760012709,,,,,,,,,,,,,,,,,,,,,,,,,,,,,,sub-215,1.0,random_dot,60.15283634190397,
left,left,accuracy,,,,,0.0,1.0,1.0,0.0,28.0,1.0,57.0,0.0,314.98220829991624,,,,,,,,,314.9678084999323,316.180951599963,316.9814985000994,316.96465969993733,316.9646832998842,316.9814985000994,316.9814985000994,316.9814985000994,317.59884439990856,left,1.0,65.49782910011709,,,,,,,,,,,,,,,,,,,,,,,,,,,,,,sub-215,1.0,random_dot,60.15283634190397,
left,left,accuracy,,,,,0.0,1.0,1.0,0.0,29.0,0.0,58.0,0.0,317.6138526001014,,,,,,,,,317.5998162000906,318.41313969995826,319.21369119989686,319.1968588999007,319.1968811999541,319.21369119989686,319.21369119989686,319.21369119989686,319.9646922000684,left,1.0,65.62397490022704,,,,,,,,,,,,,,,,,,,,,,,,,,,,,,sub-215,1.0,random_dot,60.15283634190397,
right,right,accuracy,,,,,0.0,1.0,1.0,0.0,29.0,1.0,59.0,1.0,319.97902780002914,,,,,,,,,319.9661636999808,320.7783937000204,321.579041399993,321.56197979999706,321.56200359994546,321.579041399993,321.579041399993,321.579041399993,322.32962680002674,right,1.0,65.6194985001348,,,,,,,,,,,,,,,,,,,,,,,,,,,,,,sub-215,1.0,random_dot,60.15283634190397,
,,accuracy,,,,,0.0,1.0,1.0,0.0,,,,,,,,,,,,,,,,,,,,,,,,,,,,,,,,,,,,,,,,,,,,,,,,,,,,,,,sub-215,1.0,random_dot,60.15283634190397,
,,,,,,,,,,,,,,,,,,,,,,,,,,,,,,,,,,,,,,,,,,,,,,,,,,,,,,,,,,,,,,322.33056650008075,322.344419100089,327.34127589990385,sub-215,,,,
