wordCTK,colorCTK,corrAnsCTK,congruentCTK,thisN,thisTrialN,thisRepN,keyResp_CTK.keys,keyResp_CTK.corr,keyResp_CTK.rt,keyResp_CTK.duration,wordPractice,colorPractice,corrAnsPractice,congruentPractice,respPractice.keys,respPractice.corr,respPractice.rt,respPractice.duration,word,color,corrAns,congruent,keyResp_test_run.keys,keyResp_test_run.corr,keyResp_test_run.rt,keyResp_test_run.duration,trials_CTK.thisRepN,trials_CTK.thisTrialN,trials_CTK.thisN,trials_CTK.thisIndex,trials_practice.thisRepN,trials_practice.thisTrialN,trials_practice.thisN,trials_practice.thisIndex,trials_test.thisRepN,trials_test.thisTrialN,trials_test.thisN,trials_test.thisIndex,thisRow.t,notes,instruction.started,instr_text.started,instr_image.started,instr_resp.started,instruction.stopped,instr_resp.keys,instr_resp.rt,instr_resp.duration,instr_color_to_key.started,instr_ctk.started,resp_ctk.started,instr_color_to_key.stopped,resp_ctk.keys,resp_ctk.rt,resp_ctk.duration,ITI.started,fixcross.started,fixcross.stopped,ITI.stopped,color_to_key_run.started,stimulus_CTK.started,keyResp_CTK.started,color_to_key_run.stopped,trials_CTK.keyResp_CTK.keys,trials_CTK.keyResp_CTK.corr,trials_CTK.keyResp_CTK.rt,trials_CTK.keyResp_CTK.duration,instr_practice.started,instr_practice_text.started,instr_practice_resp.started,instr_practice.stopped,instr_practice_resp.keys,instr_practice_resp.rt,instr_practice_resp.duration,practice_run.started,stimulus_practice.started,respPractice.started,practice_run.stopped,trials_practice.respPractice.keys,trials_practice.respPractice.corr,trials_practice.respPractice.rt,trials_practice.respPractice.duration,feedback.started,textFeedback.started,textFeedback.stopped,feedback.stopped,instr_test.started,instr_test_text.started,instr_test_resp.started,instr_test.stopped,instr_test_resp.keys,instr_test_resp.rt,instr_test_resp.duration,test_run.started,stimulus_test_run.started,keyResp_test_run.started,test_run.stopped,trials_test.keyResp_test_run.keys,trials_test.keyResp_test_run.corr,trials_test.keyResp_test_run.rt,trials_test.keyResp_test_run.duration,goodbye.started,textGoodbye.started,goodbye.stopped,participant,session,expName,frameRate,Unnamed: 112
,,,,,,,,,,,,,,,,,,,,,,,,,,,,,,,,,,,,,,,,,0.0046222999226301,0.0394101999700069,0.0394101999700069,0.0394101999700069,41.97983879991807,space,41.91612329997588,,,,,,,,,,,,,,,,,,,,,,,,,,,,,,,,,,,,,,,,,,,,,,,,,,,,,,,,,,sub-093,1,stroop_test,60.031360397831,
,,,,,,,,,,,,,,,,,,,,,,,,,,,,,,,,,,,,,,,,,,,,,,,,,41.98007319995668,41.99002509994898,41.99002509994898,60.29736149997916,space,18.29252030001953,,,,,,,,,,,,,,,,,,,,,,,,,,,,,,,,,,,,,,,,,,,,,,,,,,,sub-093,1,stroop_test,60.031360397831,
test,yellow,g,1.0,0.0,0.0,0.0,g,1.0,1.9901935000671076,,,,,,,,,,,,,,,,,,0.0,0.0,0.0,1.0,,,,,,,,,60.32360389991664,,,,,,,,,,,,,,,,,60.31871030002367,61.11301460000686,61.91405369993299,61.89661659998819,61.90753750002477,61.91405369993299,61.91405369993299,63.9133827999467,g,1.0,1.9901935000671076,,,,,,,,,,,,,,,,,,,,,,,,,,,,,,,,,,,,,,,sub-093,1,stroop_test,60.031360397831,
test,red,r,1.0,1.0,1.0,0.0,r,1.0,1.0275317000923678,,,,,,,,,,,,,,,,,,0.0,1.0,1.0,0.0,,,,,,,,,63.928920899983495,,,,,,,,,,,,,,,,,63.91363919992,64.27886339998804,65.07873019995168,65.06298339995556,65.06339999998454,65.07873019995168,65.07873019995168,66.11280589993112,r,1.0,1.0275317000923678,,,,,,,,,,,,,,,,,,,,,,,,,,,,,,,,,,,,,,,sub-093,1,stroop_test,60.031360397831,
test,blue,b,1.0,2.0,2.0,0.0,b,1.0,0.6750792999519035,,,,,,,,,,,,,,,,,,0.0,2.0,2.0,2.0,,,,,,,,,66.12851309997495,,,,,,,,,,,,,,,,,66.11306280002464,66.47836950002238,67.27869449998252,67.2624181000283,67.26282259996515,67.27869449998252,67.27869449998252,67.96278189995792,b,1.0,0.6750792999519035,,,,,,,,,,,,,,,,,,,,,,,,,,,,,,,,,,,,,,,sub-093,1,stroop_test,60.031360397831,
test,red,r,1.0,3.0,0.0,1.0,r,1.0,0.7661504000425339,,,,,,,,,,,,,,,,,,1.0,0.0,3.0,0.0,,,,,,,,,67.97832629992627,,,,,,,,,,,,,,,,,67.96301800000947,68.76242859999184,69.57811749994289,69.5620934999315,69.56249989999924,69.57811749994289,69.57811749994289,70.34645670000464,r,1.0,0.7661504000425339,,,,,,,,,,,,,,,,,,,,,,,,,,,,,,,,,,,,,,,sub-093,1,stroop_test,60.031360397831,
test,blue,b,1.0,4.0,1.0,1.0,b,1.0,0.5824141000630334,,,,,,,,,,,,,,,,,,1.0,1.0,4.0,2.0,,,,,,,,,70.36226439999882,,,,,,,,,,,,,,,,,70.34675609995611,71.16138790000696,71.96126180002466,71.94524739996996,71.9455825999612,71.96126180002466,71.96126180002466,72.54582090000622,b,1.0,0.5824141000630334,,,,,,,,,,,,,,,,,,,,,,,,,,,,,,,,,,,,,,,sub-093,1,stroop_test,60.031360397831,
test,yellow,g,1.0,5.0,2.0,1.0,g,1.0,0.8118411001050845,,,,,,,,,,,,,,,,,,1.0,2.0,5.0,1.0,,,,,,,,,72.56106099998578,,,,,,,,,,,,,,,,,72.54605369991623,72.91119150002487,73.71082839998417,73.69489129993599,73.69524409994483,73.71082839998417,73.71082839998417,74.52829029993154,g,1.0,0.8118411001050845,,,,,,,,,,,,,,,,,,,,,,,,,,,,,,,,,,,,,,,sub-093,1,stroop_test,60.031360397831,
test,red,r,1.0,6.0,0.0,2.0,r,1.0,0.5940695999888703,,,,,,,,,,,,,,,,,,2.0,0.0,6.0,0.0,,,,,,,,,74.54464849992655,,,,,,,,,,,,,,,,,74.52853809995577,74.64619350002613,75.46097489993554,75.44525539991446,75.44570979999844,75.46097489993554,75.46097489993554,76.06169579993002,r,1.0,0.5940695999888703,,,,,,,,,,,,,,,,,,,,,,,,,,,,,,,,,,,,,,,sub-093,1,stroop_test,60.031360397831,
test,blue,b,1.0,7.0,1.0,2.0,b,1.0,0.6079627999570221,,,,,,,,,,,,,,,,,,2.0,1.0,7.0,2.0,,,,,,,,,76.07693490001839,,,,,,,,,,,,,,,,,76.0619207000127,76.17714259994682,76.97721569996793,76.96133820002433,76.9617204000242,76.97721569996793,76.97721569996793,77.59440319996793,b,1.0,0.6079627999570221,,,,,,,,,,,,,,,,,,,,,,,,,,,,,,,,,,,,,,,sub-093,1,stroop_test,60.031360397831,
test,yellow,g,1.0,8.0,2.0,2.0,g,1.0,0.5928825000301003,,,,,,,,,,,,,,,,,,2.0,2.0,8.0,1.0,,,,,,,,,77.61096740001813,,,,,,,,,,,,,,,,,77.59460870001931,77.94371499994304,78.74373139999807,78.72743949992582,78.72778429999016,78.74373139999807,78.74373139999807,79.34478980000131,g,1.0,0.5928825000301003,,,,,,,,,,,,,,,,,,,,,,,,,,,,,,,,,,,,,,,sub-093,1,stroop_test,60.031360397831,
test,red,r,1.0,9.0,0.0,3.0,r,1.0,0.5442680999403819,,,,,,,,,,,,,,,,,,3.0,0.0,9.0,0.0,,,,,,,,,79.35986859991681,,,,,,,,,,,,,,,,,79.34501970000565,79.46019379992504,80.25993239996023,80.24407289992087,80.24441779998597,80.25993239996023,80.25993239996023,80.81152989994735,r,1.0,0.5442680999403819,,,,,,,,,,,,,,,,,,,,,,,,,,,,,,,,,,,,,,,sub-093,1,stroop_test,60.031360397831,
test,yellow,g,1.0,10.0,1.0,3.0,b,0.0,0.4911749000893906,,,,,,,,,,,,,,,,,,3.0,1.0,10.0,1.0,,,,,,,,,80.82728349999525,,,,,,,,,,,,,,,,,80.81175240001176,81.62698559998535,82.4269718999276,82.41049469995778,82.41089299996383,82.4269718999276,82.4269718999276,82.92865699995309,b,0.0,0.4911749000893906,,,,,,,,,,,,,,,,,,,,,,,,,,,,,,,,,,,,,,,sub-093,1,stroop_test,60.031360397831,
test,blue,b,1.0,11.0,2.0,3.0,b,1.0,0.9643183000152932,,,,,,,,,,,,,,,,,,3.0,2.0,11.0,2.0,,,,,,,,,82.94330569996964,,,,,,,,,,,,,,,,,82.9290341999149,83.74333969992585,84.54316120001022,84.52692440000828,84.52731819998007,84.54316120001022,84.54316120001022,85.51076039997861,b,1.0,0.9643183000152932,,,,,,,,,,,,,,,,,,,,,,,,,,,,,,,,,,,,,,,sub-093,1,stroop_test,60.031360397831,
,,,,,,,,,,,,,,,,,,,,,,,,,,,,,,,,,,,,,,,,,,,,,,,,,,,,,,,,,,,,,,,,,,,,85.51088489999529,85.52626630000304,85.52626630000304,89.99347550002858,space,4.458099700044841,,,,,,,,,,,,,,,,,,,,,,,,,,,,,,,,sub-093,1,stroop_test,60.031360397831,
,,,,0.0,0.0,0.0,,,,,gelb,yellow,g,1.0,g,1.0,0.8849073000019416,,,,,,,,,,,,,,0.0,0.0,0.0,11.0,,,,,90.00916859996505,,,,,,,,,,,,,,,,,90.0020525000291,90.09257430001162,90.8921286999248,90.87617229996248,,,,,,,,,,,,,,,,90.8819137000246,90.8921286999248,90.8921286999248,91.79313090001232,g,1.0,0.8849073000019416,,91.79901539999992,91.80867319996467,92.80898590001745,92.79270879994148,,,,,,,,,,,,,,,,,,,sub-093,1,stroop_test,60.031360397831,
,,,,1.0,1.0,0.0,,,,,blau,yellow,g,0.0,g,1.0,1.3481141000520438,,,,,,,,,,,,,,0.0,1.0,1.0,7.0,,,,,92.80898590001745,,,,,,,,,,,,,,,,,92.79310489993075,94.0084641999565,94.80879509996156,94.7928579999134,,,,,,,,,,,,,,,,94.7998421000084,94.80879509996156,94.80879509996156,96.15942929999436,g,1.0,1.3481141000520438,,96.15984640002716,96.1754642999731,97.17551849992014,97.15881910000462,,,,,,,,,,,,,,,,,,,sub-093,1,stroop_test,60.031360397831,
,,,,2.0,2.0,0.0,,,,,gelb,blue,b,0.0,b,1.0,0.6684065000154078,,,,,,,,,,,,,,0.0,2.0,2.0,9.0,,,,,97.17551849992014,,,,,,,,,,,,,,,,,97.1591123000253,98.37470879999456,99.17426859994885,99.15858569997364,,,,,,,,,,,,,,,,99.16112609999254,99.17426859994885,99.17426859994885,99.85921659995802,b,1.0,0.6684065000154078,,99.85970479995012,99.87454749993049,100.87449019995984,100.85832519992256,,,,,,,,,,,,,,,,,,,sub-093,1,stroop_test,60.031360397831,
,,,,3.0,3.0,0.0,,,,,rot,red,r,1.0,r,1.0,0.5534573999466375,,,,,,,,,,,,,,0.0,3.0,3.0,1.0,,,,,100.87449019995984,,,,,,,,,,,,,,,,,100.85876660002396,101.67383709992282,102.47411760000978,102.45822439994664,,,,,,,,,,,,,,,,102.4618434999138,102.47411760000978,102.47411760000978,103.0420328999171,r,1.0,0.5534573999466375,,103.04268999991471,103.05833459994756,104.05774349998684,104.0413322999375,,,,,,,,,,,,,,,,,,,sub-093,1,stroop_test,60.031360397831,
,,,,4.0,4.0,0.0,,,,,gelb,red,r,0.0,r,1.0,1.3663596000988036,,,,,,,,,,,,,,0.0,4.0,4.0,8.0,,,,,104.05774349998684,,,,,,,,,,,,,,,,,104.04159979999532,104.15735599992333,104.9570816999767,104.94099809997716,,,,,,,,,,,,,,,,104.94365959998686,104.9570816999767,104.9570816999767,106.32505280000623,r,1.0,1.3663596000988036,,106.32542110001668,106.34023239999078,107.34044479997829,107.32441040000413,,,,,,,,,,,,,,,,,,,sub-093,1,stroop_test,60.031360397831,
,,,,5.0,5.0,0.0,,,,,rot,blue,b,0.0,b,1.0,0.8398059000028297,,,,,,,,,,,,,,0.0,5.0,5.0,2.0,,,,,107.34044479997829,,,,,,,,,,,,,,,,,107.324655000004,107.68981210002676,108.48986249999145,108.4737164999824,,,,,,,,,,,,,,,,108.47642259998248,108.48986249999145,108.48986249999145,109.34118569991551,b,1.0,0.8398059000028297,,109.34166459995322,109.35711340000852,110.35752580000552,110.34052650001831,,,,,,,,,,,,,,,,,,,sub-093,1,stroop_test,60.031360397831,
,,,,6.0,6.0,0.0,,,,,blau,blue,b,1.0,b,1.0,1.073486699955538,,,,,,,,,,,,,,0.0,6.0,6.0,5.0,,,,,110.35752580000552,,,,,,,,,,,,,,,,,110.34095859993248,110.43955299991649,111.23977029998788,111.2238015999319,,,,,,,,,,,,,,,,111.22706840001048,111.23977029998788,111.23977029998788,112.32379449997096,b,1.0,1.073486699955538,,112.32418300001882,112.3394214999862,113.33991699991748,113.32341990002897,,,,,,,,,,,,,,,,,,,sub-093,1,stroop_test,60.031360397831,
,,,,7.0,7.0,0.0,,,,,rot,yellow,g,0.0,g,1.0,0.6990447000134736,,,,,,,,,,,,,,0.0,7.0,7.0,3.0,,,,,113.33991699991748,,,,,,,,,,,,,,,,,113.3237105999142,114.13909349997994,114.93946259992664,114.92325559991878,,,,,,,,,,,,,,,,114.92766049993224,114.93946259992664,114.93946259992664,115.6410342999734,g,1.0,0.6990447000134736,,115.64146439998876,115.65631220000796,116.65593270002864,116.63980469992384,,,,,,,,,,,,,,,,,,,sub-093,1,stroop_test,60.031360397831,
,,,,8.0,8.0,0.0,,,,,blau,red,r,0.0,r,1.0,0.6718974999384955,,,,,,,,,,,,,,0.0,8.0,8.0,4.0,,,,,116.65593270002864,,,,,,,,,,,,,,,,,116.6400689999573,116.75568559998646,117.55536779994144,117.54021399992052,,,,,,,,,,,,,,,,117.5445955999894,117.55536779994144,117.55536779994144,118.23979060002604,r,1.0,0.6718974999384955,,118.2402112999698,118.2553493999876,119.25529579992872,119.2394067000132,,,,,,,,,,,,,,,,,,,sub-093,1,stroop_test,60.031360397831,
,,,,9.0,9.0,0.0,,,,,rot,red,r,1.0,r,1.0,0.6072165999794379,,,,,,,,,,,,,,0.0,9.0,9.0,0.0,,,,,119.25529579992872,,,,,,,,,,,,,,,,,119.23969089996535,120.05528269999196,120.85507379996125,120.83924509992356,,,,,,,,,,,,,,,,120.84197559999302,120.85507379996125,120.85507379996125,121.47355130000506,r,1.0,0.6072165999794379,,121.47394539997912,121.48901149991434,122.4881242000265,122.47205350000876,,,,,,,,,,,,,,,,,,,sub-093,1,stroop_test,60.031360397831,
,,,,10.0,10.0,0.0,,,,,gelb,yellow,g,1.0,b,0.0,0.4763018999947235,,,,,,,,,,,,,,0.0,10.0,10.0,10.0,,,,,122.4881242000265,,,,,,,,,,,,,,,,,122.4722913999576,123.68815019994508,124.48782159993424,124.47169579996262,,,,,,,,,,,,,,,,124.47367169999052,124.48782159993424,124.48782159993424,124.97262199991384,b,0.0,0.4763018999947235,,124.97682390001135,124.98823629994877,125.9880145000061,125.97199769993313,,,,,,,,,,,,,,,,,,,sub-093,1,stroop_test,60.031360397831,
,,,,11.0,11.0,0.0,,,,,blau,blue,b,1.0,b,1.0,0.658181400038302,,,,,,,,,,,,,,0.0,11.0,11.0,6.0,,,,,125.9880145000061,,,,,,,,,,,,,,,,,125.97241239994764,126.78763059992345,127.5872921999544,127.57173919992056,,,,,,,,,,,,,,,,127.57430779992136,127.5872921999544,127.5872921999544,128.25512579991482,b,1.0,0.658181400038302,,128.25819299998693,128.27077409997582,129.27072819997557,129.25456509995274,,,,,,,,,,,,,,,,,,,sub-093,1,stroop_test,60.031360397831,
,,,,12.0,0.0,1.0,,,,,blau,yellow,g,0.0,g,1.0,0.9039794000564144,,,,,,,,,,,,,,1.0,0.0,12.0,7.0,,,,,129.27072819997557,,,,,,,,,,,,,,,,,129.25483109999914,129.60456669994164,130.4038784999866,130.38768529996742,,,,,,,,,,,,,,,,130.3880432000151,130.4038784999866,130.4038784999866,131.3209320999449,g,1.0,0.9039794000564144,,131.3213023999706,131.33752029994503,132.33683169994038,132.3208459999878,,,,,,,,,,,,,,,,,,,sub-093,1,stroop_test,60.031360397831,
,,,,13.0,1.0,1.0,,,,,blau,blue,b,1.0,b,1.0,1.3433020999655128,,,,,,,,,,,,,,1.0,1.0,13.0,5.0,,,,,132.33683169994038,,,,,,,,,,,,,,,,,132.3210997999413,133.52064899995457,134.31991989992093,134.30414399993606,,,,,,,,,,,,,,,,134.30455739994068,134.31991989992093,134.31991989992093,135.67071350000333,b,1.0,1.3433020999655128,,135.6711150999181,135.6870665999595,136.6862888999749,136.67023789999075,,,,,,,,,,,,,,,,,,,sub-093,1,stroop_test,60.031360397831,
,,,,14.0,2.0,1.0,,,,,rot,red,r,1.0,r,1.0,0.6828235000139102,,,,,,,,,,,,,,1.0,2.0,14.0,0.0,,,,,136.6862888999749,,,,,,,,,,,,,,,,,136.67046890000347,137.03659119992517,137.83651769999415,137.82060859992637,,,,,,,,,,,,,,,,137.8250077000121,137.83651769999415,137.83651769999415,138.52078100002836,r,1.0,0.6828235000139102,,138.52119619993027,138.53607949998695,139.53688129992224,139.51997939997818,,,,,,,,,,,,,,,,,,,sub-093,1,stroop_test,60.031360397831,
,,,,15.0,3.0,1.0,,,,,gelb,red,r,0.0,r,1.0,1.0059785000048578,,,,,,,,,,,,,,1.0,3.0,15.0,8.0,,,,,139.53688129992224,,,,,,,,,,,,,,,,,139.52034219994675,139.88599520002026,140.6899358999217,140.6697148999665,,,,,,,,,,,,,,,,140.67230789992027,140.6899358999217,140.6899358999217,141.70365299994592,r,1.0,1.0059785000048578,,141.70411649998275,141.71930250001606,142.71902590000536,142.70276939996984,,,,,,,,,,,,,,,,,,,sub-093,1,stroop_test,60.031360397831,
,,,,16.0,4.0,1.0,,,,,rot,red,r,1.0,r,1.0,0.5730158999795094,,,,,,,,,,,,,,1.0,4.0,16.0,1.0,,,,,142.71902590000536,,,,,,,,,,,,,,,,,142.70300869992934,142.81922449998092,143.61874029994942,143.60299099993426,,,,,,,,,,,,,,,,143.60577209992334,143.61874029994942,143.61874029994942,144.2029647999443,r,1.0,0.5730158999795094,,144.20342799997889,144.21862599998713,145.21883499994874,145.20296409993898,,,,,,,,,,,,,,,,,,,sub-093,1,stroop_test,60.031360397831,
,,,,17.0,5.0,1.0,,,,,rot,blue,b,0.0,b,1.0,0.8486458000261337,,,,,,,,,,,,,,1.0,5.0,17.0,2.0,,,,,145.21883499994874,,,,,,,,,,,,,,,,,145.2032237999374,145.3188190999208,146.11977879994083,146.1030195999192,,,,,,,,,,,,,,,,146.1034120999975,146.11977879994083,146.11977879994083,146.96989990002476,b,1.0,0.8486458000261337,,146.97031979996245,146.98505050002132,147.98524119996,147.96887049998622,,,,,,,,,,,,,,,,,,,sub-093,1,stroop_test,60.031360397831,
,,,,18.0,6.0,1.0,,,,,blau,blue,b,1.0,b,1.0,0.7697225000010803,,,,,,,,,,,,,,1.0,6.0,18.0,6.0,,,,,147.98524119996,,,,,,,,,,,,,,,,,147.96911730000284,148.7847524000099,149.58471730002202,149.56933279999066,,,,,,,,,,,,,,,,149.57231249997858,149.58471730002202,149.58471730002202,150.36890709993895,b,1.0,0.7697225000010803,,150.36930869997013,150.38451190001797,151.38528629997745,151.3685031000059,,,,,,,,,,,,,,,,,,,sub-093,1,stroop_test,60.031360397831,
,,,,19.0,7.0,1.0,,,,,gelb,blue,b,0.0,b,1.0,0.92711499996949,,,,,,,,,,,,,,1.0,7.0,19.0,9.0,,,,,151.38528629997745,,,,,,,,,,,,,,,,,151.36876689991914,151.46776349993888,152.2676254999824,152.25166910002008,,,,,,,,,,,,,,,,152.25393000000622,152.2676254999824,152.2676254999824,153.20184499991592,b,1.0,0.92711499996949,,153.20232979999855,153.2174907999579,154.21752139995806,154.20168629998807,,,,,,,,,,,,,,,,,,,sub-093,1,stroop_test,60.031360397831,
,,,,20.0,8.0,1.0,,,,,rot,yellow,g,0.0,g,1.0,1.1338824999984354,,,,,,,,,,,,,,1.0,8.0,20.0,3.0,,,,,154.21752139995806,,,,,,,,,,,,,,,,,154.2019575999584,155.4173501000041,156.21722310001496,156.20143529993948,,,,,,,,,,,,,,,,156.20427569991443,156.21722310001496,156.21722310001496,157.36867609992623,g,1.0,1.1338824999984354,,157.3693245999748,157.38366739999037,158.38351590000093,158.3675975999795,,,,,,,,,,,,,,,,,,,sub-093,1,stroop_test,60.031360397831,
,,,,21.0,9.0,1.0,,,,,gelb,yellow,g,1.0,g,1.0,0.7171157000120729,,,,,,,,,,,,,,1.0,9.0,21.0,11.0,,,,,158.38351590000093,,,,,,,,,,,,,,,,,158.36786270001903,159.58409140002914,160.38333189999685,160.36729929991998,,,,,,,,,,,,,,,,160.36956509994343,160.38333189999685,160.38333189999685,161.1022247999208,g,1.0,0.7171157000120729,,161.10269710002467,161.1173393999925,162.11635739996564,162.10138959996402,,,,,,,,,,,,,,,,,,,sub-093,1,stroop_test,60.031360397831,
,,,,22.0,10.0,1.0,,,,,blau,red,r,0.0,r,1.0,0.6397479999577627,,,,,,,,,,,,,,1.0,10.0,22.0,4.0,,,,,162.11635739996564,,,,,,,,,,,,,,,,,162.1018175999634,162.46706449997146,163.2663811999373,163.25025309994817,,,,,,,,,,,,,,,,163.25305900000967,163.2663811999373,163.2663811999373,163.91771239996888,r,1.0,0.6397479999577627,,163.91815129993483,163.93331220000982,164.93279450002592,164.91687399998773,,,,,,,,,,,,,,,,,,,sub-093,1,stroop_test,60.031360397831,
,,,,23.0,11.0,1.0,,,,,gelb,yellow,g,1.0,g,1.0,1.9717566999606788,,,,,,,,,,,,,,1.0,11.0,23.0,10.0,,,,,164.93279450002592,,,,,,,,,,,,,,,,,164.91716860001907,166.13285199995153,166.93261579994578,166.9165561000118,,,,,,,,,,,,,,,,166.91913009993732,166.93261579994578,166.93261579994578,168.9164019000018,g,1.0,1.9717566999606788,,168.916842799983,168.9326767999446,169.93220639997162,169.91622859996278,,,,,,,,,,,,,,,,,,,sub-093,1,stroop_test,60.031360397831,
,,,,,,,,,,,,,,,,,,,,,,,,,,,,,,,,,,,,,,,,,,,,,,,,,,,,,,,,,,,,,,,,,,,,,,,,,,,,,,,,,,,,,,,169.9163340999512,169.93220639997162,169.93220639997162,175.31603480002377,space,5.3782610999187455,,,,,,,,,,,,,sub-093,1,stroop_test,60.031360397831,
,,,,0.0,0.0,0.0,,,,,,,,,,,,,blau,blue,b,1.0,b,1.0,0.9028987999772652,,,,,,,,,,0.0,0.0,0.0,6.0,175.3328341000015,,,,,,,,,,,,,,,,,175.3259322999511,176.5315126000205,177.33123339992017,177.31627499999013,,,,,,,,,,,,,,,,,,,,,,,,,,,,,,,,,,,177.31915989995468,177.33123339992017,177.33123339992017,178.2513877999736,b,1.0,0.9028987999772652,,,,,sub-093,1,stroop_test,60.031360397831,
,,,,1.0,1.0,0.0,,,,,,,,,,,,,blau,yellow,g,0.0,g,1.0,0.9840886000311002,,,,,,,,,,0.0,1.0,1.0,7.0,178.2645768999355,,,,,,,,,,,,,,,,,178.25209840002935,178.36465180001687,179.16420190001372,179.1486243000254,,,,,,,,,,,,,,,,,,,,,,,,,,,,,,,,,,,179.14897350000683,179.16420190001372,179.16420190001372,180.14994879998267,g,1.0,0.9840886000311002,,,,,sub-093,1,stroop_test,60.031360397831,
,,,,2.0,2.0,0.0,,,,,,,,,,,,,gelb,red,r,0.0,r,1.0,0.7721269999165088,,,,,,,,,,0.0,2.0,2.0,8.0,180.16506069991735,,,,,,,,,,,,,,,,,180.1504384999862,180.2642262999434,181.06416039995383,181.0480536000105,,,,,,,,,,,,,,,,,,,,,,,,,,,,,,,,,,,181.05030729994175,181.06416039995383,181.06416039995383,181.8500635999953,r,1.0,0.7721269999165088,,,,,sub-093,1,stroop_test,60.031360397831,
,,,,3.0,3.0,0.0,,,,,,,,,,,,,rot,red,r,1.0,r,1.0,0.6535248999716714,,,,,,,,,,0.0,3.0,3.0,0.0,181.86478399997577,,,,,,,,,,,,,,,,,181.8505790999625,183.06444190000184,183.8648604999762,183.84899530000985,,,,,,,,,,,,,,,,,,,,,,,,,,,,,,,,,,,183.85219190001956,183.8648604999762,183.8648604999762,184.53099559992552,r,1.0,0.6535248999716714,,,,,sub-093,1,stroop_test,60.031360397831,
,,,,4.0,4.0,0.0,,,,,,,,,,,,,gelb,yellow,g,1.0,g,1.0,1.2071523000486195,,,,,,,,,,0.0,4.0,4.0,10.0,184.54716680001,,,,,,,,,,,,,,,,,184.5313050999539,185.73160940001253,186.54666869994253,186.53071349998936,,,,,,,,,,,,,,,,,,,,,,,,,,,,,,,,,,,186.5330807999708,186.54666869994253,186.54666869994253,187.76470349996816,g,1.0,1.2071523000486195,,,,,sub-093,1,stroop_test,60.031360397831,
,,,,5.0,5.0,0.0,,,,,,,,,,,,,gelb,blue,b,0.0,b,1.0,0.6824403000064194,,,,,,,,,,0.0,5.0,5.0,9.0,187.78003279992845,,,,,,,,,,,,,,,,,187.7650342999259,188.13075629994276,188.94637719995808,188.9303257999709,,,,,,,,,,,,,,,,,,,,,,,,,,,,,,,,,,,188.93065200001,188.94637719995808,188.94637719995808,189.63164969999343,b,1.0,0.6824403000064194,,,,,sub-093,1,stroop_test,60.031360397831,
,,,,6.0,6.0,0.0,,,,,,,,,,,,,blau,blue,b,1.0,b,1.0,0.8833114999579266,,,,,,,,,,0.0,6.0,6.0,5.0,189.64635339996312,,,,,,,,,,,,,,,,,189.63198289996944,190.44625469995665,191.24598509992936,191.23006420000456,,,,,,,,,,,,,,,,,,,,,,,,,,,,,,,,,,,191.23243819992055,191.24598509992936,191.24598509992936,192.13097509997897,b,1.0,0.8833114999579266,,,,,sub-093,1,stroop_test,60.031360397831,
,,,,7.0,7.0,0.0,,,,,,,,,,,,,blau,red,r,0.0,r,1.0,0.6631404999643564,,,,,,,,,,0.0,7.0,7.0,4.0,192.1465268000029,,,,,,,,,,,,,,,,,192.13131259998767,192.4961191000184,193.29589660000056,193.2798632999184,,,,,,,,,,,,,,,,,,,,,,,,,,,,,,,,,,,193.2802375999745,193.29589660000056,193.29589660000056,193.9644375999924,r,1.0,0.6631404999643564,,,,,sub-093,1,stroop_test,60.031360397831,
,,,,8.0,8.0,0.0,,,,,,,,,,,,,rot,yellow,g,0.0,g,1.0,0.9889315000036732,,,,,,,,,,0.0,8.0,8.0,3.0,193.9798317999812,,,,,,,,,,,,,,,,,193.96473779994997,194.77902219991665,195.5795983999269,195.56301969999916,,,,,,,,,,,,,,,,,,,,,,,,,,,,,,,,,,,195.56608779996168,195.5795983999269,195.5795983999269,196.58045270002916,g,1.0,0.9889315000036732,,,,,sub-093,1,stroop_test,60.031360397831,
,,,,9.0,9.0,0.0,,,,,,,,,,,,,gelb,yellow,g,1.0,g,1.0,0.6689351999666542,,,,,,,,,,0.0,9.0,9.0,11.0,196.59569629991893,,,,,,,,,,,,,,,,,196.58081930002663,196.6956296999706,197.49533549998887,197.4796254999237,,,,,,,,,,,,,,,,,,,,,,,,,,,,,,,,,,,197.48193789995275,197.49533549998887,197.49533549998887,198.18104679998945,g,1.0,0.6689351999666542,,,,,sub-093,1,stroop_test,60.031360397831,
,,,,10.0,10.0,0.0,,,,,,,,,,,,,rot,blue,b,0.0,b,1.0,0.762460199999623,,,,,,,,,,0.0,10.0,10.0,2.0,198.1965913999593,,,,,,,,,,,,,,,,,198.18161199998576,198.2950141999172,199.09512319997884,199.0792708999943,,,,,,,,,,,,,,,,,,,,,,,,,,,,,,,,,,,199.0819222999271,199.09512319997884,199.09512319997884,199.8627425999148,b,1.0,0.762460199999623,,,,,sub-093,1,stroop_test,60.031360397831,
,,,,11.0,11.0,0.0,,,,,,,,,,,,,rot,red,r,1.0,r,1.0,0.6009532000171021,,,,,,,,,,0.0,11.0,11.0,1.0,199.8786381999962,,,,,,,,,,,,,,,,,199.8630085999612,200.67819020000752,201.4781451999443,201.4622199999867,,,,,,,,,,,,,,,,,,,,,,,,,,,,,,,,,,,201.46259729994927,201.4781451999443,201.4781451999443,202.09572719992136,r,1.0,0.6009532000171021,,,,,sub-093,1,stroop_test,60.031360397831,
,,,,12.0,0.0,1.0,,,,,,,,,,,,,blau,red,r,0.0,r,1.0,0.8282559999497607,,,,,,,,,,1.0,0.0,12.0,4.0,202.1118991000112,,,,,,,,,,,,,,,,,202.0959859000286,202.46133159997407,203.26132890000008,203.24555959994905,,,,,,,,,,,,,,,,,,,,,,,,,,,,,,,,,,,203.24810849991627,203.26132890000008,203.26132890000008,204.0956870999653,r,1.0,0.8282559999497607,,,,,sub-093,1,stroop_test,60.031360397831,
,,,,13.0,1.0,1.0,,,,,,,,,,,,,gelb,yellow,g,1.0,g,1.0,0.949313799967058,,,,,,,,,,1.0,1.0,13.0,10.0,204.11134419997688,,,,,,,,,,,,,,,,,204.09595190000252,204.91251409996767,205.72779809997883,205.71127369999888,,,,,,,,,,,,,,,,,,,,,,,,,,,,,,,,,,,205.71364859992173,205.72779809997883,205.72779809997883,206.67929340002595,g,1.0,0.949313799967058,,,,,sub-093,1,stroop_test,60.031360397831,
,,,,14.0,2.0,1.0,,,,,,,,,,,,,blau,yellow,g,0.0,g,1.0,0.9908531999681144,,,,,,,,,,1.0,2.0,14.0,7.0,206.6944737000158,,,,,,,,,,,,,,,,,206.6796233999776,206.7787608000217,207.5773544999538,207.56204819993584,,,,,,,,,,,,,,,,,,,,,,,,,,,,,,,,,,,207.5661045999732,207.5773544999538,207.5773544999538,208.57922670000696,g,1.0,0.9908531999681144,,,,,sub-093,1,stroop_test,60.031360397831,
,,,,15.0,3.0,1.0,,,,,,,,,,,,,blau,blue,b,1.0,b,1.0,1.0167542999843135,,,,,,,,,,1.0,3.0,15.0,5.0,208.59456539992243,,,,,,,,,,,,,,,,,208.57963329995985,209.39389159996065,210.1942969999509,210.18069319997448,,,,,,,,,,,,,,,,,,,,,,,,,,,,,,,,,,,210.1814727999736,210.1942969999509,210.1942969999509,211.21218649996445,b,1.0,1.0167542999843135,,,,,sub-093,1,stroop_test,60.031360397831,
,,,,16.0,4.0,1.0,,,,,,,,,,,,,rot,red,r,1.0,r,1.0,0.6958188998978585,,,,,,,,,,1.0,4.0,16.0,0.0,211.2266886999132,,,,,,,,,,,,,,,,,211.2124613999622,212.42672549991403,213.2277334999526,213.21154899999965,,,,,,,,,,,,,,,,,,,,,,,,,,,,,,,,,,,213.2167743999744,213.2277334999526,213.2277334999526,213.92772699997292,r,1.0,0.6958188998978585,,,,,sub-093,1,stroop_test,60.031360397831,
,,,,17.0,5.0,1.0,,,,,,,,,,,,,rot,red,r,1.0,r,1.0,0.765818800078705,,,,,,,,,,1.0,5.0,17.0,1.0,213.94321489997677,,,,,,,,,,,,,,,,,213.92800119996537,214.72668909991623,215.5262691000244,215.510211899993,,,,,,,,,,,,,,,,,,,,,,,,,,,,,,,,,,,215.51069979998283,215.5262691000244,215.5262691000244,216.2945549999131,r,1.0,0.765818800078705,,,,,sub-093,1,stroop_test,60.031360397831,
,,,,18.0,6.0,1.0,,,,,,,,,,,,,rot,yellow,g,0.0,g,1.0,0.7195952999172732,,,,,,,,,,1.0,6.0,18.0,3.0,216.31002590002024,,,,,,,,,,,,,,,,,216.29482650000136,217.5095453999238,218.309358999948,218.2931175000267,,,,,,,,,,,,,,,,,,,,,,,,,,,,,,,,,,,218.2935773999197,218.309358999948,218.309358999948,219.0440813999157,g,1.0,0.7195952999172732,,,,,sub-093,1,stroop_test,60.031360397831,
,,,,19.0,7.0,1.0,,,,,,,,,,,,,gelb,red,r,0.0,r,1.0,0.8522659000009298,,,,,,,,,,1.0,7.0,19.0,8.0,219.05920629994944,,,,,,,,,,,,,,,,,219.04441789991688,219.15909359999927,219.95913510001265,219.9429447000148,,,,,,,,,,,,,,,,,,,,,,,,,,,,,,,,,,,219.94511769991368,219.95913510001265,219.95913510001265,220.827440999914,r,1.0,0.8522659000009298,,,,,sub-093,1,stroop_test,60.031360397831,
,,,,20.0,8.0,1.0,,,,,,,,,,,,,blau,blue,b,1.0,b,1.0,0.6632738999323919,,,,,,,,,,1.0,8.0,20.0,6.0,220.84262379992288,,,,,,,,,,,,,,,,,220.82778229995165,221.1923207999207,221.9921034999425,221.97607460001015,,,,,,,,,,,,,,,,,,,,,,,,,,,,,,,,,,,221.978480199934,221.9921034999425,221.9921034999425,222.66014449996877,b,1.0,0.6632738999323919,,,,,sub-093,1,stroop_test,60.031360397831,
,,,,21.0,9.0,1.0,,,,,,,,,,,,,rot,blue,b,0.0,b,1.0,1.202554399962537,,,,,,,,,,1.0,9.0,21.0,2.0,222.6759003999177,,,,,,,,,,,,,,,,,222.6604454999324,223.8752371999435,224.67585409991443,224.659184499993,,,,,,,,,,,,,,,,,,,,,,,,,,,,,,,,,,,224.6621328999754,224.67585409991443,224.67585409991443,225.8927230000263,b,1.0,1.202554399962537,,,,,sub-093,1,stroop_test,60.031360397831,
,,,,22.0,10.0,1.0,,,,,,,,,,,,,gelb,yellow,g,1.0,g,1.0,0.6568232000572607,,,,,,,,,,1.0,10.0,22.0,11.0,225.9082977999933,,,,,,,,,,,,,,,,,225.89297779998745,226.6923806000268,227.49173070001416,227.4759390000254,,,,,,,,,,,,,,,,,,,,,,,,,,,,,,,,,,,227.4783255999209,227.49173070001416,227.49173070001416,228.15934909996577,g,1.0,0.6568232000572607,,,,,sub-093,1,stroop_test,60.031360397831,
,,,,23.0,11.0,1.0,,,,,,,,,,,,,gelb,blue,b,0.0,b,1.0,0.9946357000153512,,,,,,,,,,1.0,11.0,23.0,9.0,228.1749281999655,,,,,,,,,,,,,,,,,228.159632600029,228.524918399984,229.3254524000222,229.30868809996173,,,,,,,,,,,,,,,,,,,,,,,,,,,,,,,,,,,229.3090860999655,229.3254524000222,229.3254524000222,230.32540390000213,b,1.0,0.9946357000153512,,,,,sub-093,1,stroop_test,60.031360397831,
,,,,24.0,0.0,2.0,,,,,,,,,,,,,gelb,yellow,g,1.0,g,1.0,1.019895700039342,,,,,,,,,,2.0,0.0,24.0,11.0,230.34103150002196,,,,,,,,,,,,,,,,,230.32572279998567,230.69135420001112,231.4910555999959,231.47548259992615,,,,,,,,,,,,,,,,,,,,,,,,,,,,,,,,,,,231.47587650001515,231.4910555999959,231.4910555999959,232.5258277999237,g,1.0,1.019895700039342,,,,,sub-093,1,stroop_test,60.031360397831,
,,,,25.0,1.0,2.0,,,,,,,,,,,,,blau,red,r,0.0,r,1.0,0.6336950999684632,,,,,,,,,,2.0,1.0,25.0,4.0,232.54114869993649,,,,,,,,,,,,,,,,,232.5261843999615,232.64089649997183,233.4413850000128,233.4258313999744,,,,,,,,,,,,,,,,,,,,,,,,,,,,,,,,,,,233.4282955999952,233.4413850000128,233.4413850000128,234.0918071999913,r,1.0,0.6336950999684632,,,,,sub-093,1,stroop_test,60.031360397831,
,,,,26.0,2.0,2.0,,,,,,,,,,,,,blau,blue,b,1.0,b,1.0,0.6004469000035897,,,,,,,,,,2.0,2.0,26.0,6.0,234.1072153999703,,,,,,,,,,,,,,,,,234.09222699992824,234.2075269999914,235.0071156999329,234.99126049992628,,,,,,,,,,,,,,,,,,,,,,,,,,,,,,,,,,,234.99165390001144,235.0071156999329,235.0071156999329,235.6247723000124,b,1.0,0.6004469000035897,,,,,sub-093,1,stroop_test,60.031360397831,
,,,,27.0,3.0,2.0,,,,,,,,,,,,,gelb,yellow,g,1.0,g,1.0,0.7597248000092804,,,,,,,,,,2.0,3.0,27.0,10.0,235.64045089995489,,,,,,,,,,,,,,,,,235.62506949994716,235.7403071000008,236.5407102999743,236.52425599994604,,,,,,,,,,,,,,,,,,,,,,,,,,,,,,,,,,,236.52609239995945,236.5407102999743,236.5407102999743,237.3085133000277,g,1.0,0.7597248000092804,,,,,sub-093,1,stroop_test,60.031360397831,
,,,,28.0,4.0,2.0,,,,,,,,,,,,,rot,red,r,1.0,r,1.0,0.6449265000410378,,,,,,,,,,2.0,4.0,28.0,0.0,237.32343500002756,,,,,,,,,,,,,,,,,237.3088363999268,238.5240009999834,239.32363270001952,239.3072193999542,,,,,,,,,,,,,,,,,,,,,,,,,,,,,,,,,,,239.30977259995416,239.32363270001952,239.32363270001952,239.97513139992952,r,1.0,0.6449265000410378,,,,,sub-093,1,stroop_test,60.031360397831,
,,,,29.0,5.0,2.0,,,,,,,,,,,,,gelb,red,r,0.0,r,1.0,0.8693385999649763,,,,,,,,,,2.0,5.0,29.0,8.0,239.9902710999595,,,,,,,,,,,,,,,,,239.9756090999581,241.18962409999224,241.9900609999895,241.9735695000272,,,,,,,,,,,,,,,,,,,,,,,,,,,,,,,,,,,241.97591609996744,241.9900609999895,241.9900609999895,242.87410329992417,r,1.0,0.8693385999649763,,,,,sub-093,1,stroop_test,60.031360397831,
,,,,30.0,6.0,2.0,,,,,,,,,,,,,rot,blue,b,0.0,b,1.0,0.6737799999536946,,,,,,,,,,2.0,6.0,30.0,2.0,242.890350200003,,,,,,,,,,,,,,,,,242.8744148999685,243.23942240001637,244.03960010001904,244.0233357999241,,,,,,,,,,,,,,,,,,,,,,,,,,,,,,,,,,,244.02591079997364,244.03960010001904,244.03960010001904,244.72423329995945,b,1.0,0.6737799999536946,,,,,sub-093,1,stroop_test,60.031360397831,
,,,,31.0,7.0,2.0,,,,,,,,,,,,,gelb,blue,b,0.0,b,1.0,1.261688300059177,,,,,,,,,,2.0,7.0,31.0,9.0,244.73997729993425,,,,,,,,,,,,,,,,,244.72472489997745,244.8397602000041,245.6400857999688,245.62345640000424,,,,,,,,,,,,,,,,,,,,,,,,,,,,,,,,,,,245.6259358000243,245.6400857999688,245.6400857999688,246.90728889999448,b,1.0,1.261688300059177,,,,,sub-093,1,stroop_test,60.031360397831,
,,,,32.0,8.0,2.0,,,,,,,,,,,,,rot,red,r,1.0,r,1.0,0.8332594999810681,,,,,,,,,,2.0,8.0,32.0,1.0,246.9228856000118,,,,,,,,,,,,,,,,,246.90778569993563,247.27221389999613,248.07328020001296,248.05617009999696,,,,,,,,,,,,,,,,,,,,,,,,,,,,,,,,,,,248.05905409995464,248.07328020001296,248.07328020001296,248.92339959996752,r,1.0,0.8332594999810681,,,,,sub-093,1,stroop_test,60.031360397831,
,,,,33.0,9.0,2.0,,,,,,,,,,,,,blau,yellow,g,0.0,g,1.0,1.281428899965249,,,,,,,,,,2.0,9.0,33.0,7.0,248.9387915999396,,,,,,,,,,,,,,,,,248.9238601999823,250.1385791000212,250.9385112000164,250.92252859997097,,,,,,,,,,,,,,,,,,,,,,,,,,,,,,,,,,,250.92591849993917,250.9385112000164,250.9385112000164,252.2228653000202,g,1.0,1.281428899965249,,,,,sub-093,1,stroop_test,60.031360397831,
,,,,34.0,10.0,2.0,,,,,,,,,,,,,rot,yellow,g,0.0,r,0.0,1.1226956999162212,,,,,,,,,,2.0,10.0,34.0,3.0,252.2389605999924,,,,,,,,,,,,,,,,,252.22314439993352,253.4381969999522,254.23816149996128,254.2220680000028,,,,,,,,,,,,,,,,,,,,,,,,,,,,,,,,,,,254.2245910000056,254.23816149996128,254.23816149996128,255.37211170000955,r,0.0,1.1226956999162212,,,,,sub-093,1,stroop_test,60.031360397831,
,,,,35.0,11.0,2.0,,,,,,,,,,,,,blau,blue,b,1.0,b,1.0,1.051496000029147,,,,,,,,,,2.0,11.0,35.0,5.0,255.3878961999435,,,,,,,,,,,,,,,,,255.37256029993296,256.5876671000151,257.38767019996885,257.37159250001423,,,,,,,,,,,,,,,,,,,,,,,,,,,,,,,,,,,257.37410060002003,257.38767019996885,257.38767019996885,258.4552170999814,b,1.0,1.051496000029147,,,,,sub-093,1,stroop_test,60.031360397831,
,,,,36.0,0.0,3.0,,,,,,,,,,,,,gelb,red,r,0.0,r,1.0,1.4899751999182629,,,,,,,,,,3.0,0.0,36.0,8.0,258.47142800001893,,,,,,,,,,,,,,,,,258.4554943999974,259.27082580002025,260.0707399999956,260.0547701999312,,,,,,,,,,,,,,,,,,,,,,,,,,,,,,,,,,,260.05704849993344,260.0707399999956,260.0707399999956,261.57129039999563,r,1.0,1.4899751999182629,,,,,sub-093,1,stroop_test,60.031360397831,
,,,,37.0,1.0,3.0,,,,,,,,,,,,,blau,blue,b,1.0,b,1.0,0.7575216999975964,,,,,,,,,,3.0,1.0,37.0,5.0,261.58716039999854,,,,,,,,,,,,,,,,,261.571603499935,261.6705140999984,262.47059149993584,262.45458169991616,,,,,,,,,,,,,,,,,,,,,,,,,,,,,,,,,,,262.4570158999413,262.47059149993584,262.47059149993584,263.23805889999494,b,1.0,0.7575216999975964,,,,,sub-093,1,stroop_test,60.031360397831,
,,,,38.0,2.0,3.0,,,,,,,,,,,,,blau,yellow,g,0.0,g,1.0,1.5331976000452414,,,,,,,,,,3.0,2.0,38.0,7.0,263.2540744999424,,,,,,,,,,,,,,,,,263.23834709997755,264.4535990000004,265.253196900012,265.23743819992524,,,,,,,,,,,,,,,,,,,,,,,,,,,,,,,,,,,265.2377955999691,265.253196900012,265.253196900012,266.7879060999257,g,1.0,1.5331976000452414,,,,,sub-093,1,stroop_test,60.031360397831,
,,,,39.0,3.0,3.0,,,,,,,,,,,,,blau,red,r,0.0,r,1.0,0.9174210999626666,,,,,,,,,,3.0,3.0,39.0,4.0,266.80340999993496,,,,,,,,,,,,,,,,,266.7883340999251,267.1530278000282,267.95314999995753,267.93709419993684,,,,,,,,,,,,,,,,,,,,,,,,,,,,,,,,,,,267.937437399989,267.95314999995753,267.95314999995753,268.88704069994856,r,1.0,0.9174210999626666,,,,,sub-093,1,stroop_test,60.031360397831,
,,,,40.0,4.0,3.0,,,,,,,,,,,,,gelb,blue,b,0.0,b,1.0,1.126483100000769,,,,,,,,,,3.0,4.0,40.0,9.0,268.9031244999496,,,,,,,,,,,,,,,,,268.8873504999792,269.23614479997195,270.03669630002696,270.0205278999638,,,,,,,,,,,,,,,,,,,,,,,,,,,,,,,,,,,270.02263139991555,270.03669630002696,270.03669630002696,271.1699691999238,b,1.0,1.126483100000769,,,,,sub-093,1,stroop_test,60.031360397831,
,,,,41.0,5.0,3.0,,,,,,,,,,,,,gelb,yellow,g,1.0,g,1.0,1.6416204000124708,,,,,,,,,,3.0,5.0,41.0,11.0,271.18588230002206,,,,,,,,,,,,,,,,,271.1702584999148,271.96910380001646,272.7696083999472,272.75358120002784,,,,,,,,,,,,,,,,,,,,,,,,,,,,,,,,,,,272.75397550000343,272.7696083999472,272.7696083999472,274.4213196999626,g,1.0,1.6416204000124708,,,,,sub-093,1,stroop_test,60.031360397831,
,,,,42.0,6.0,3.0,,,,,,,,,,,,,rot,red,r,1.0,r,1.0,0.7857457000063732,,,,,,,,,,3.0,6.0,42.0,1.0,274.4355579999974,,,,,,,,,,,,,,,,,274.4217494999757,275.6353514000075,276.43519150000066,276.4195406999206,,,,,,,,,,,,,,,,,,,,,,,,,,,,,,,,,,,276.4227951000212,276.43519150000066,276.43519150000066,277.23618539993186,r,1.0,0.7857457000063732,,,,,sub-093,1,stroop_test,60.031360397831,
,,,,43.0,7.0,3.0,,,,,,,,,,,,,rot,yellow,g,0.0,g,1.0,1.3929822000209242,,,,,,,,,,3.0,7.0,43.0,3.0,277.2520501000108,,,,,,,,,,,,,,,,,277.23649119993206,278.03573050000705,278.8350545000285,278.81888729997445,,,,,,,,,,,,,,,,,,,,,,,,,,,,,,,,,,,278.8192798999371,278.8350545000285,278.8350545000285,280.2357247999171,g,1.0,1.3929822000209242,,,,,sub-093,1,stroop_test,60.031360397831,
,,,,44.0,8.0,3.0,,,,,,,,,,,,,gelb,yellow,g,1.0,g,1.0,1.181250200024806,,,,,,,,,,3.0,8.0,44.0,10.0,280.252036800026,,,,,,,,,,,,,,,,,280.23602269997355,280.35138299991377,281.1513497999404,281.135184600018,,,,,,,,,,,,,,,,,,,,,,,,,,,,,,,,,,,281.1374105999712,281.1513497999404,281.1513497999404,282.33590419997927,g,1.0,1.181250200024806,,,,,sub-093,1,stroop_test,60.031360397831,
,,,,45.0,9.0,3.0,,,,,,,,,,,,,rot,blue,b,0.0,b,1.0,1.5620496000628918,,,,,,,,,,3.0,9.0,45.0,2.0,282.35117609996814,,,,,,,,,,,,,,,,,282.3361635999754,283.550872999942,284.35086719994433,284.3349564999808,,,,,,,,,,,,,,,,,,,,,,,,,,,,,,,,,,,284.3376911999658,284.35086719994433,284.35086719994433,285.9214295999845,b,1.0,1.5620496000628918,,,,,sub-093,1,stroop_test,60.031360397831,
,,,,46.0,10.0,3.0,,,,,,,,,,,,,blau,blue,b,1.0,b,1.0,0.6582931000739336,,,,,,,,,,3.0,10.0,46.0,6.0,285.9343236000277,,,,,,,,,,,,,,,,,285.9218752000015,286.73386879998725,287.5338355000131,287.51778749993537,,,,,,,,,,,,,,,,,,,,,,,,,,,,,,,,,,,287.520400099922,287.5338355000131,287.5338355000131,288.20194709999487,b,1.0,0.6582931000739336,,,,,sub-093,1,stroop_test,60.031360397831,
,,,,47.0,11.0,3.0,,,,,,,,,,,,,rot,red,r,1.0,r,1.0,1.2320551000302655,,,,,,,,,,3.0,11.0,47.0,0.0,288.2176830000244,,,,,,,,,,,,,,,,,288.20222350000404,288.300409700023,289.1002908999799,289.0845945000183,,,,,,,,,,,,,,,,,,,,,,,,,,,,,,,,,,,289.0871636000229,289.1002908999799,289.1002908999799,290.3348535000114,r,1.0,1.2320551000302655,,,,,sub-093,1,stroop_test,60.031360397831,
,,,,48.0,0.0,4.0,,,,,,,,,,,,,blau,blue,b,1.0,b,1.0,0.7368606000673026,,,,,,,,,,4.0,0.0,48.0,6.0,290.3507425999269,,,,,,,,,,,,,,,,,290.3351222999627,290.4499958999222,291.2500747999875,291.23401989997365,,,,,,,,,,,,,,,,,,,,,,,,,,,,,,,,,,,291.236422499991,291.2500747999875,291.2500747999875,292.00109289994,b,1.0,0.7368606000673026,,,,,sub-093,1,stroop_test,60.031360397831,
,,,,49.0,1.0,4.0,,,,,,,,,,,,,rot,red,r,1.0,r,1.0,0.7081684999866411,,,,,,,,,,4.0,1.0,49.0,1.0,292.01653639995493,,,,,,,,,,,,,,,,,292.00137600000016,292.3667054999387,293.1664090999402,293.15041449991986,,,,,,,,,,,,,,,,,,,,,,,,,,,,,,,,,,,293.1532621999504,293.1664090999402,293.1664090999402,293.8847908999305,r,1.0,0.7081684999866411,,,,,sub-093,1,stroop_test,60.031360397831,
,,,,50.0,2.0,4.0,,,,,,,,,,,,,blau,yellow,g,0.0,g,1.0,1.4401107000885531,,,,,,,,,,4.0,2.0,50.0,7.0,293.8997947999742,,,,,,,,,,,,,,,,,293.8851163999643,294.249920799979,295.04968669998925,295.0336162999738,,,,,,,,,,,,,,,,,,,,,,,,,,,,,,,,,,,295.036150299944,295.04968669998925,295.04968669998925,296.50050019996706,g,1.0,1.4401107000885531,,,,,sub-093,1,stroop_test,60.031360397831,
,,,,51.0,3.0,4.0,,,,,,,,,,,,,rot,yellow,g,0.0,g,1.0,1.4464645000407472,,,,,,,,,,4.0,3.0,51.0,3.0,296.5160658999812,,,,,,,,,,,,,,,,,296.5007736999541,296.84969099995214,297.64929969992954,297.63340799999423,,,,,,,,,,,,,,,,,,,,,,,,,,,,,,,,,,,297.63631400000304,297.64929969992954,297.64929969992954,299.1002352000214,g,1.0,1.4464645000407472,,,,,sub-093,1,stroop_test,60.031360397831,
,,,,52.0,4.0,4.0,,,,,,,,,,,,,rot,red,r,1.0,r,1.0,0.7094948999583721,,,,,,,,,,4.0,4.0,52.0,0.0,299.11574049992487,,,,,,,,,,,,,,,,,299.10049969994,299.46572350000497,300.2656903999159,300.2496403999394,,,,,,,,,,,,,,,,,,,,,,,,,,,,,,,,,,,300.25001179997344,300.2656903999159,300.2656903999159,300.9832878999878,r,1.0,0.7094948999583721,,,,,sub-093,1,stroop_test,60.031360397831,
,,,,53.0,5.0,4.0,,,,,,,,,,,,,rot,blue,b,0.0,b,1.0,1.0451113000744954,,,,,,,,,,4.0,5.0,53.0,2.0,300.9988131999271,,,,,,,,,,,,,,,,,300.9835630999878,302.1820783999283,302.98204139992595,302.96603299991693,,,,,,,,,,,,,,,,,,,,,,,,,,,,,,,,,,,302.96642029995564,302.98204139992595,302.98204139992595,304.0329838999314,b,1.0,1.0451113000744954,,,,,sub-093,1,stroop_test,60.031360397831,
,,,,54.0,6.0,4.0,,,,,,,,,,,,,blau,blue,b,1.0,b,1.0,0.6173111998941749,,,,,,,,,,4.0,6.0,54.0,5.0,304.0483754000161,,,,,,,,,,,,,,,,,304.0333593999967,304.3984417999163,305.1983097000048,305.1821147999726,,,,,,,,,,,,,,,,,,,,,,,,,,,,,,,,,,,305.1848555000033,305.1983097000048,305.1983097000048,305.8332774000009,b,1.0,0.6173111998941749,,,,,sub-093,1,stroop_test,60.031360397831,
,,,,55.0,7.0,4.0,,,,,,,,,,,,,gelb,red,r,0.0,r,1.0,0.7837304000277072,,,,,,,,,,4.0,7.0,55.0,8.0,305.84832079999615,,,,,,,,,,,,,,,,,305.8337799999863,306.6481272999663,307.4488149000099,307.4319361000089,,,,,,,,,,,,,,,,,,,,,,,,,,,,,,,,,,,307.4343842000235,307.4488149000099,307.4488149000099,308.24903820001055,r,1.0,0.7837304000277072,,,,,sub-093,1,stroop_test,60.031360397831,
,,,,56.0,8.0,4.0,,,,,,,,,,,,,gelb,blue,b,0.0,b,1.0,1.71832679992076,,,,,,,,,,4.0,8.0,56.0,9.0,308.2646636000136,,,,,,,,,,,,,,,,,308.24933599994984,309.4652951000025,310.2645483999513,310.2485406999476,,,,,,,,,,,,,,,,,,,,,,,,,,,,,,,,,,,310.2489719999721,310.2645483999513,310.2645483999513,311.9984853999922,b,1.0,1.71832679992076,,,,,sub-093,1,stroop_test,60.031360397831,
,,,,57.0,9.0,4.0,,,,,,,,,,,,,blau,red,r,0.0,r,1.0,0.9407317000441252,,,,,,,,,,4.0,9.0,57.0,4.0,312.01396409992594,,,,,,,,,,,,,,,,,311.99877629999537,312.8137914999388,313.61435139994137,313.5986008999171,,,,,,,,,,,,,,,,,,,,,,,,,,,,,,,,,,,313.601753899944,313.61435139994137,313.61435139994137,314.56450219999533,r,1.0,0.9407317000441252,,,,,sub-093,1,stroop_test,60.031360397831,
,,,,58.0,10.0,4.0,,,,,,,,,,,,,gelb,yellow,g,1.0,g,1.0,0.7917562000220641,,,,,,,,,,4.0,10.0,58.0,10.0,314.5808012000052,,,,,,,,,,,,,,,,,314.56480489997193,315.764462799998,316.58004739996977,316.5641941999784,,,,,,,,,,,,,,,,,,,,,,,,,,,,,,,,,,,316.56651109992526,316.58004739996977,316.58004739996977,317.3810171999503,g,1.0,0.7917562000220641,,,,,sub-093,1,stroop_test,60.031360397831,
,,,,59.0,11.0,4.0,,,,,,,,,,,,,gelb,yellow,g,1.0,g,1.0,0.5886248999740928,,,,,,,,,,4.0,11.0,59.0,11.0,317.3966042000102,,,,,,,,,,,,,,,,,317.3812944999663,317.4806968999328,318.2801968000131,318.2641808999469,,,,,,,,,,,,,,,,,,,,,,,,,,,,,,,,,,,318.2645654999651,318.2801968000131,318.2801968000131,318.880804699962,g,1.0,0.5886248999740928,,,,,sub-093,1,stroop_test,60.031360397831,
,,,,60.0,0.0,5.0,,,,,,,,,,,,,rot,blue,b,0.0,b,1.0,1.2340164999477563,,,,,,,,,,5.0,0.0,60.0,2.0,318.8963616000256,,,,,,,,,,,,,,,,,318.8811558999587,318.99652309995145,319.79712819994893,319.7815078999847,,,,,,,,,,,,,,,,,,,,,,,,,,,,,,,,,,,319.7846099999733,319.79712819994893,319.79712819994893,321.0471194999991,b,1.0,1.2340164999477563,,,,,sub-093,1,stroop_test,60.031360397831,
,,,,61.0,1.0,5.0,,,,,,,,,,,,,rot,yellow,g,0.0,g,1.0,1.4430536000290886,,,,,,,,,,5.0,1.0,61.0,3.0,321.06279609992635,,,,,,,,,,,,,,,,,321.0473874999443,322.262816799921,323.06252749997657,323.04681999993045,,,,,,,,,,,,,,,,,,,,,,,,,,,,,,,,,,,323.0472549999831,323.06252749997657,323.06252749997657,324.5135721999686,g,1.0,1.4430536000290886,,,,,sub-093,1,stroop_test,60.031360397831,
,,,,62.0,2.0,5.0,,,,,,,,,,,,,rot,red,r,1.0,r,1.0,0.7084397000726312,,,,,,,,,,5.0,2.0,62.0,1.0,324.529129399918,,,,,,,,,,,,,,,,,324.51387139991857,324.8791146000149,325.67903150001075,325.6630716000218,,,,,,,,,,,,,,,,,,,,,,,,,,,,,,,,,,,325.6636140999617,325.67903150001075,325.67903150001075,326.39686069998425,r,1.0,0.7084397000726312,,,,,sub-093,1,stroop_test,60.031360397831,
,,,,63.0,3.0,5.0,,,,,,,,,,,,,gelb,blue,b,0.0,b,1.0,0.8853870999300852,,,,,,,,,,5.0,3.0,63.0,9.0,326.41216179996263,,,,,,,,,,,,,,,,,326.3971248000162,327.2122534000082,328.01219049992505,327.9963193999138,,,,,,,,,,,,,,,,,,,,,,,,,,,,,,,,,,,327.9987767999992,328.01219049992505,328.01219049992505,328.9129801000236,b,1.0,0.8853870999300852,,,,,sub-093,1,stroop_test,60.031360397831,
,,,,64.0,4.0,5.0,,,,,,,,,,,,,blau,red,r,0.0,r,1.0,0.7992564999731258,,,,,,,,,,5.0,4.0,64.0,4.0,328.9286635000026,,,,,,,,,,,,,,,,,328.9132725999225,329.7120939999586,330.51174629991874,330.4957103999332,,,,,,,,,,,,,,,,,,,,,,,,,,,,,,,,,,,330.49831479997374,330.51174629991874,330.51174629991874,331.3128437999403,r,1.0,0.7992564999731258,,,,,sub-093,1,stroop_test,60.031360397831,
,,,,65.0,5.0,5.0,,,,,,,,,,,,,blau,blue,b,1.0,b,1.0,0.7251016999362037,,,,,,,,,,5.0,5.0,65.0,6.0,331.32819989998825,,,,,,,,,,,,,,,,,331.3130898999516,331.42898670001887,332.2280995999463,332.2120857000118,,,,,,,,,,,,,,,,,,,,,,,,,,,,,,,,,,,332.2124667000025,332.2280995999463,332.2280995999463,332.9624895999441,b,1.0,0.7251016999362037,,,,,sub-093,1,stroop_test,60.031360397831,
,,,,66.0,6.0,5.0,,,,,,,,,,,,,gelb,yellow,g,1.0,g,1.0,0.7078705000458285,,,,,,,,,,5.0,6.0,66.0,11.0,332.9780311000068,,,,,,,,,,,,,,,,,332.9627637999365,333.32794629991986,334.1280014999211,334.1123938999372,,,,,,,,,,,,,,,,,,,,,,,,,,,,,,,,,,,334.11470279993955,334.1280014999211,334.1280014999211,334.8466773999389,g,1.0,0.7078705000458285,,,,,sub-093,1,stroop_test,60.031360397831,
,,,,67.0,7.0,5.0,,,,,,,,,,,,,gelb,yellow,g,1.0,g,1.0,0.8314722999930382,,,,,,,,,,5.0,7.0,67.0,10.0,334.8620937999804,,,,,,,,,,,,,,,,,334.84695569996256,335.66159749997314,336.4609683000017,336.44494109996594,,,,,,,,,,,,,,,,,,,,,,,,,,,,,,,,,,,336.4453290000092,336.4609683000017,336.4609683000017,337.2951714999508,g,1.0,0.8314722999930382,,,,,sub-093,1,stroop_test,60.031360397831,
,,,,68.0,8.0,5.0,,,,,,,,,,,,,blau,yellow,g,0.0,g,1.0,0.9570073999930172,,,,,,,,,,5.0,8.0,68.0,7.0,337.31069389998447,,,,,,,,,,,,,,,,,337.29546449997,338.5106605999172,339.31067539996,339.2949109999463,,,,,,,,,,,,,,,,,,,,,,,,,,,,,,,,,,,339.2982277999399,339.31067539996,339.31067539996,340.2782918999437,g,1.0,0.9570073999930172,,,,,sub-093,1,stroop_test,60.031360397831,
,,,,69.0,9.0,5.0,,,,,,,,,,,,,blau,blue,b,1.0,b,1.0,0.991821900010109,,,,,,,,,,5.0,9.0,69.0,5.0,340.29384649998974,,,,,,,,,,,,,,,,,340.2785780000268,340.6437736999942,341.44359779998194,341.427743999986,,,,,,,,,,,,,,,,,,,,,,,,,,,,,,,,,,,341.428121099947,341.44359779998194,341.44359779998194,342.44452759996057,b,1.0,0.991821900010109,,,,,sub-093,1,stroop_test,60.031360397831,
,,,,70.0,10.0,5.0,,,,,,,,,,,,,gelb,red,r,0.0,r,1.0,1.301071499940008,,,,,,,,,,5.0,10.0,70.0,8.0,342.4601108999923,,,,,,,,,,,,,,,,,342.4448126999196,342.81008650001604,343.61073680000845,343.5943129999796,,,,,,,,,,,,,,,,,,,,,,,,,,,,,,,,,,,343.5978421999607,343.61073680000845,343.61073680000845,344.9288276999723,r,1.0,1.301071499940008,,,,,sub-093,1,stroop_test,60.031360397831,
,,,,71.0,11.0,5.0,,,,,,,,,,,,,rot,red,r,1.0,r,1.0,0.9105781000107528,,,,,,,,,,5.0,11.0,71.0,0.0,344.9437645999715,,,,,,,,,,,,,,,,,344.92912899993826,346.1432020999491,346.9428763999604,346.92688869999256,,,,,,,,,,,,,,,,,,,,,,,,,,,,,,,,,,,346.9294445000123,346.9428763999604,346.9428763999604,347.86146479996387,r,1.0,0.9105781000107528,,,,,sub-093,1,stroop_test,60.031360397831,
,,,,72.0,0.0,6.0,,,,,,,,,,,,,gelb,blue,b,0.0,b,1.0,1.1294751000823453,,,,,,,,,,6.0,0.0,72.0,9.0,347.87677909992635,,,,,,,,,,,,,,,,,347.86195799999405,348.6619221000001,349.47601460001897,349.4598371000029,,,,,,,,,,,,,,,,,,,,,,,,,,,,,,,,,,,349.4623130999971,349.47601460001897,349.47601460001897,350.6102583999745,b,1.0,1.1294751000823453,,,,,sub-093,1,stroop_test,60.031360397831,
,,,,73.0,1.0,6.0,,,,,,,,,,,,,blau,red,r,0.0,r,1.0,0.7525447000516579,,,,,,,,,,6.0,1.0,73.0,4.0,350.6256713999901,,,,,,,,,,,,,,,,,350.6105387000134,350.70920469996054,351.5091502999421,351.4930223999545,,,,,,,,,,,,,,,,,,,,,,,,,,,,,,,,,,,351.49559009994846,351.5091502999421,351.5091502999421,352.2766934999963,r,1.0,0.7525447000516579,,,,,sub-093,1,stroop_test,60.031360397831,
,,,,74.0,2.0,6.0,,,,,,,,,,,,,gelb,yellow,g,1.0,g,1.0,1.0989208000246435,,,,,,,,,,6.0,2.0,74.0,11.0,352.2929405999603,,,,,,,,,,,,,,,,,352.2769641999621,353.47613989992533,354.27546529995743,354.2593317999272,,,,,,,,,,,,,,,,,,,,,,,,,,,,,,,,,,,354.2619014999364,354.27546529995743,354.27546529995743,355.3764971999917,g,1.0,1.0989208000246435,,,,,sub-093,1,stroop_test,60.031360397831,
,,,,75.0,3.0,6.0,,,,,,,,,,,,,blau,blue,b,1.0,b,1.0,1.0912095999810845,,,,,,,,,,6.0,3.0,75.0,5.0,355.3919498999603,,,,,,,,,,,,,,,,,355.37676669994835,355.49200989992823,356.291751199984,356.27576129999943,,,,,,,,,,,,,,,,,,,,,,,,,,,,,,,,,,,356.27868789993227,356.291751199984,356.291751199984,357.392891000025,b,1.0,1.0912095999810845,,,,,sub-093,1,stroop_test,60.031360397831,
,,,,76.0,4.0,6.0,,,,,,,,,,,,,rot,red,r,1.0,r,1.0,0.8652013000100851,,,,,,,,,,6.0,4.0,76.0,0.0,357.4083109999774,,,,,,,,,,,,,,,,,357.39317279995885,357.75898339995183,358.55833329993766,358.5421070000157,,,,,,,,,,,,,,,,,,,,,,,,,,,,,,,,,,,358.5446384999668,358.55833329993766,358.55833329993766,359.426196699962,r,1.0,0.8652013000100851,,,,,sub-093,1,stroop_test,60.031360397831,
,,,,77.0,5.0,6.0,,,,,,,,,,,,,blau,blue,b,1.0,b,1.0,1.5960274999961257,,,,,,,,,,6.0,5.0,77.0,6.0,359.44153700000606,,,,,,,,,,,,,,,,,359.42647319997195,360.24139949993696,361.04109179996885,361.0251607999671,,,,,,,,,,,,,,,,,,,,,,,,,,,,,,,,,,,361.0275557999266,361.04109179996885,361.04109179996885,362.64204609999433,b,1.0,1.5960274999961257,,,,,sub-093,1,stroop_test,60.031360397831,
,,,,78.0,6.0,6.0,,,,,,,,,,,,,gelb,yellow,g,1.0,g,1.0,0.824570499942638,,,,,,,,,,6.0,6.0,78.0,10.0,362.6575674000196,,,,,,,,,,,,,,,,,362.6423118999228,363.8581220000051,364.6574006999144,364.6414719999302,,,,,,,,,,,,,,,,,,,,,,,,,,,,,,,,,,,364.6436812999891,364.6574006999144,364.6574006999144,365.492520699976,g,1.0,0.824570499942638,,,,,sub-093,1,stroop_test,60.031360397831,
,,,,79.0,7.0,6.0,,,,,,,,,,,,,gelb,red,r,0.0,r,1.0,0.8489410999463871,,,,,,,,,,6.0,7.0,79.0,8.0,365.50740429991856,,,,,,,,,,,,,,,,,365.4928177000256,365.60742459993344,366.407222299953,366.39141629997175,,,,,,,,,,,,,,,,,,,,,,,,,,,,,,,,,,,366.3920364999212,366.407222299953,366.407222299953,367.25844190001953,r,1.0,0.8489410999463871,,,,,sub-093,1,stroop_test,60.031360397831,
,,,,80.0,8.0,6.0,,,,,,,,,,,,,rot,yellow,g,0.0,g,1.0,1.4899851999944076,,,,,,,,,,6.0,8.0,80.0,3.0,367.27399569994304,,,,,,,,,,,,,,,,,367.2587091999594,367.6238568000263,368.4242628000211,368.4076898000203,,,,,,,,,,,,,,,,,,,,,,,,,,,,,,,,,,,368.41110020002816,368.4242628000211,368.4242628000211,369.9244859999744,g,1.0,1.4899851999944076,,,,,sub-093,1,stroop_test,60.031360397831,
,,,,81.0,9.0,6.0,,,,,,,,,,,,,rot,red,r,1.0,r,1.0,0.918648699996993,,,,,,,,,,6.0,9.0,81.0,1.0,369.9401283999905,,,,,,,,,,,,,,,,,369.92477129993495,370.0401209000265,370.8398315999657,370.8238174000289,,,,,,,,,,,,,,,,,,,,,,,,,,,,,,,,,,,370.824169499916,370.8398315999657,370.8398315999657,371.77457649994176,r,1.0,0.918648699996993,,,,,sub-093,1,stroop_test,60.031360397831,
,,,,82.0,10.0,6.0,,,,,,,,,,,,,rot,blue,b,0.0,b,1.0,0.5971093999687582,,,,,,,,,,6.0,10.0,82.0,2.0,371.7907928000204,,,,,,,,,,,,,,,,,371.7748949999223,372.9894790999824,373.7903091999469,373.7737710999791,,,,,,,,,,,,,,,,,,,,,,,,,,,,,,,,,,,373.77436699997634,373.7903091999469,373.7903091999469,374.3907179000089,b,1.0,0.5971093999687582,,,,,sub-093,1,stroop_test,60.031360397831,
,,,,83.0,11.0,6.0,,,,,,,,,,,,,blau,yellow,g,0.0,g,1.0,0.9779533999972044,,,,,,,,,,6.0,11.0,83.0,7.0,374.4062127999496,,,,,,,,,,,,,,,,,374.39100029994734,374.7561221999349,375.55618379998486,375.5407886999892,,,,,,,,,,,,,,,,,,,,,,,,,,,,,,,,,,,375.544277500012,375.55618379998486,375.55618379998486,376.5408660999965,g,1.0,0.9779533999972044,,,,,sub-093,1,stroop_test,60.031360397831,
,,,,84.0,0.0,7.0,,,,,,,,,,,,,gelb,yellow,g,1.0,g,1.0,0.7907880001002923,,,,,,,,,,7.0,0.0,84.0,10.0,376.5558855999261,,,,,,,,,,,,,,,,,376.5411735000089,376.655781499925,377.4565317999805,377.4406407999341,,,,,,,,,,,,,,,,,,,,,,,,,,,,,,,,,,,377.4430530000245,377.4565317999805,377.4565317999805,378.2566087999148,g,1.0,0.7907880001002923,,,,,sub-093,1,stroop_test,60.031360397831,
,,,,85.0,1.0,7.0,,,,,,,,,,,,,gelb,blue,b,0.0,b,1.0,0.6891418999293819,,,,,,,,,,7.0,1.0,85.0,9.0,378.2724169000285,,,,,,,,,,,,,,,,,378.25689489999786,379.4559494999703,380.2555136999581,380.23928520001937,,,,,,,,,,,,,,,,,,,,,,,,,,,,,,,,,,,380.239662899985,380.2555136999581,380.2555136999581,380.9564075999661,b,1.0,0.6891418999293819,,,,,sub-093,1,stroop_test,60.031360397831,
,,,,86.0,2.0,7.0,,,,,,,,,,,,,blau,red,r,0.0,r,1.0,0.6301202999893576,,,,,,,,,,7.0,2.0,86.0,4.0,380.97193869994953,,,,,,,,,,,,,,,,,380.9566755000269,381.07188780000433,381.8724935000064,381.85632969997823,,,,,,,,,,,,,,,,,,,,,,,,,,,,,,,,,,,381.85951739992015,381.8724935000064,381.8724935000064,382.5063768000109,r,1.0,0.6301202999893576,,,,,sub-093,1,stroop_test,60.031360397831,
,,,,87.0,3.0,7.0,,,,,,,,,,,,,rot,red,r,1.0,r,1.0,0.7402518999297172,,,,,,,,,,7.0,3.0,87.0,0.0,382.5219399000053,,,,,,,,,,,,,,,,,382.50664859998506,383.7059175999602,384.5216130999616,384.5054030999309,,,,,,,,,,,,,,,,,,,,,,,,,,,,,,,,,,,384.5079439999536,384.5216130999616,384.5216130999616,385.27269969997,r,1.0,0.7402518999297172,,,,,sub-093,1,stroop_test,60.031360397831,
,,,,88.0,4.0,7.0,,,,,,,,,,,,,rot,red,r,1.0,r,1.0,0.534646000014618,,,,,,,,,,7.0,4.0,88.0,1.0,385.2880392000079,,,,,,,,,,,,,,,,,385.2729621999897,385.6223257000093,386.421193499933,386.4053550999379,,,,,,,,,,,,,,,,,,,,,,,,,,,,,,,,,,,386.4057331000222,386.421193499933,386.421193499933,386.9724178999895,r,1.0,0.534646000014618,,,,,sub-093,1,stroop_test,60.031360397831,
,,,,89.0,5.0,7.0,,,,,,,,,,,,,blau,blue,b,1.0,b,1.0,0.5617615000810474,,,,,,,,,,7.0,5.0,89.0,5.0,386.9877614999423,,,,,,,,,,,,,,,,,386.9726875999477,388.1878926999634,388.9875452999258,388.9715813000221,,,,,,,,,,,,,,,,,,,,,,,,,,,,,,,,,,,388.9743424999761,388.9875452999258,388.9875452999258,389.5563861000119,b,1.0,0.5617615000810474,,,,,sub-093,1,stroop_test,60.031360397831,
,,,,90.0,6.0,7.0,,,,,,,,,,,,,rot,yellow,g,0.0,g,1.0,0.8496911999536678,,,,,,,,,,7.0,6.0,90.0,3.0,389.5716114999959,,,,,,,,,,,,,,,,,389.5568535999628,390.37074299994856,391.1707985999528,391.1548711999785,,,,,,,,,,,,,,,,,,,,,,,,,,,,,,,,,,,391.15718099998776,391.1707985999528,391.1707985999528,392.0222306000069,g,1.0,0.8496911999536678,,,,,sub-093,1,stroop_test,60.031360397831,
,,,,91.0,7.0,7.0,,,,,,,,,,,,,blau,yellow,g,0.0,g,1.0,0.8853520000120625,,,,,,,,,,7.0,7.0,91.0,7.0,392.03754679998383,,,,,,,,,,,,,,,,,392.0225482999813,393.23692329996265,394.0370850999607,394.021168999956,,,,,,,,,,,,,,,,,,,,,,,,,,,,,,,,,,,394.0247271999251,394.0370850999607,394.0370850999607,394.93843799992464,g,1.0,0.8853520000120625,,,,,sub-093,1,stroop_test,60.031360397831,
,,,,92.0,8.0,7.0,,,,,,,,,,,,,gelb,red,r,0.0,r,1.0,0.8891028000507504,,,,,,,,,,7.0,8.0,92.0,8.0,394.95383789995685,,,,,,,,,,,,,,,,,394.9387053999817,395.7375893000281,396.536837899941,396.5206237999955,,,,,,,,,,,,,,,,,,,,,,,,,,,,,,,,,,,396.5227962000063,396.536837899941,396.536837899941,397.43789930001367,r,1.0,0.8891028000507504,,,,,sub-093,1,stroop_test,60.031360397831,
,,,,93.0,9.0,7.0,,,,,,,,,,,,,blau,blue,b,1.0,b,1.0,0.9806883999845012,,,,,,,,,,7.0,9.0,93.0,6.0,397.4540125000058,,,,,,,,,,,,,,,,,397.4381643999368,397.5541359999916,398.370061499998,398.3538263000082,,,,,,,,,,,,,,,,,,,,,,,,,,,,,,,,,,,398.3563205000246,398.370061499998,398.370061499998,399.354152899934,b,1.0,0.9806883999845012,,,,,sub-093,1,stroop_test,60.031360397831,
,,,,94.0,10.0,7.0,,,,,,,,,,,,,gelb,yellow,g,1.0,g,1.0,0.9404867000412196,,,,,,,,,,7.0,10.0,94.0,11.0,399.3695565999951,,,,,,,,,,,,,,,,,399.3544069000054,400.5695366000291,401.3694837000221,401.3533191999886,,,,,,,,,,,,,,,,,,,,,,,,,,,,,,,,,,,401.3566906999331,401.3694837000221,401.3694837000221,402.3203866999829,g,1.0,0.9404867000412196,,,,,sub-093,1,stroop_test,60.031360397831,
,,,,95.0,11.0,7.0,,,,,,,,,,,,,rot,blue,b,0.0,r,0.0,0.7105117000173777,,,,,,,,,,7.0,11.0,95.0,2.0,402.33602609997615,,,,,,,,,,,,,,,,,402.3206808000105,402.43589159997646,403.2358611000236,403.2198221000144,,,,,,,,,,,,,,,,,,,,,,,,,,,,,,,,,,,403.2223827999551,403.2358611000236,403.2358611000236,403.9536449000007,r,0.0,0.7105117000173777,,,,,sub-093,1,stroop_test,60.031360397831,
,,,,96.0,0.0,8.0,,,,,,,,,,,,,gelb,blue,b,0.0,b,1.0,1.2145434999838471,,,,,,,,,,8.0,0.0,96.0,9.0,403.9692089000018,,,,,,,,,,,,,,,,,403.9539406999247,404.769059299957,405.569753699936,405.5528667999897,,,,,,,,,,,,,,,,,,,,,,,,,,,,,,,,,,,405.55532039992977,405.569753699936,405.569753699936,406.786641899962,b,1.0,1.2145434999838471,,,,,sub-093,1,stroop_test,60.031360397831,
,,,,97.0,1.0,8.0,,,,,,,,,,,,,blau,red,r,0.0,r,1.0,1.3360336000332609,,,,,,,,,,8.0,1.0,97.0,4.0,406.8020724999951,,,,,,,,,,,,,,,,,406.7869056999916,407.60267019993626,408.4018226999324,408.3866538000293,,,,,,,,,,,,,,,,,,,,,,,,,,,,,,,,,,,408.3893179999432,408.4018226999324,408.4018226999324,409.7533197000157,r,1.0,1.3360336000332609,,,,,sub-093,1,stroop_test,60.031360397831,
,,,,98.0,2.0,8.0,,,,,,,,,,,,,gelb,yellow,g,1.0,g,1.0,1.788607000024058,,,,,,,,,,8.0,2.0,98.0,11.0,409.768501100014,,,,,,,,,,,,,,,,,409.75365259998944,410.5681889000116,411.3682005999144,411.3518779999577,,,,,,,,,,,,,,,,,,,,,,,,,,,,,,,,,,,411.35445899993647,411.3682005999144,411.3682005999144,413.1688517000293,g,1.0,1.788607000024058,,,,,sub-093,1,stroop_test,60.031360397831,
,,,,99.0,3.0,8.0,,,,,,,,,,,,,blau,blue,b,1.0,b,1.0,0.884683100041002,,,,,,,,,,8.0,3.0,99.0,5.0,413.1846471999306,,,,,,,,,,,,,,,,,413.1691359999823,413.517863499932,414.3179325999226,414.3019746999489,,,,,,,,,,,,,,,,,,,,,,,,,,,,,,,,,,,414.3046250999905,414.3179325999226,414.3179325999226,415.2187498999992,b,1.0,0.884683100041002,,,,,sub-093,1,stroop_test,60.031360397831,
,,,,100.0,4.0,8.0,,,,,,,,,,,,,rot,blue,b,0.0,b,1.0,1.0820227999938652,,,,,,,,,,8.0,4.0,100.0,2.0,415.2343370999442,,,,,,,,,,,,,,,,,415.2190215999726,416.035150700016,416.8341537999222,416.8181613999186,,,,,,,,,,,,,,,,,,,,,,,,,,,,,,,,,,,416.820524699986,416.8341537999222,416.8341537999222,417.9185981999617,b,1.0,1.0820227999938652,,,,,sub-093,1,stroop_test,60.031360397831,
,,,,101.0,5.0,8.0,,,,,,,,,,,,,blau,blue,b,1.0,b,1.0,0.7004309999756515,,,,,,,,,,8.0,5.0,101.0,6.0,417.9340053999331,,,,,,,,,,,,,,,,,417.9188899999717,418.28400350001175,419.08385439997073,419.0683464999311,,,,,,,,,,,,,,,,,,,,,,,,,,,,,,,,,,,419.070756000001,419.08385439997073,419.08385439997073,419.786131599918,b,1.0,0.7004309999756515,,,,,sub-093,1,stroop_test,60.031360397831,
,,,,102.0,6.0,8.0,,,,,,,,,,,,,blau,yellow,g,0.0,g,1.0,0.8116529999533668,,,,,,,,,,8.0,6.0,102.0,7.0,419.8003840999445,,,,,,,,,,,,,,,,,419.7865787999472,420.1503686999204,420.9503084999742,420.9342131000012,,,,,,,,,,,,,,,,,,,,,,,,,,,,,,,,,,,420.934577899985,420.9503084999742,420.9503084999742,421.7686118999263,g,1.0,0.8116529999533668,,,,,sub-093,1,stroop_test,60.031360397831,
,,,,103.0,7.0,8.0,,,,,,,,,,,,,rot,yellow,g,0.0,g,1.0,0.9692006999393924,,,,,,,,,,8.0,7.0,103.0,3.0,421.78407880000304,,,,,,,,,,,,,,,,,421.7689183999319,421.88355539995246,422.6832645999966,422.6674067999702,,,,,,,,,,,,,,,,,,,,,,,,,,,,,,,,,,,422.66983889997937,422.6832645999966,422.6832645999966,423.6676680999808,g,1.0,0.9692006999393924,,,,,sub-093,1,stroop_test,60.031360397831,
,,,,104.0,8.0,8.0,,,,,,,,,,,,,gelb,yellow,g,1.0,g,1.0,0.6483522000489756,,,,,,,,,,8.0,8.0,104.0,10.0,423.68374030001,,,,,,,,,,,,,,,,,423.6679749999894,424.8830554999877,425.6832373000216,425.6671054000035,,,,,,,,,,,,,,,,,,,,,,,,,,,,,,,,,,,425.6694603000069,425.6832373000216,425.6832373000216,426.33401529991534,g,1.0,0.6483522000489756,,,,,sub-093,1,stroop_test,60.031360397831,
,,,,105.0,9.0,8.0,,,,,,,,,,,,,rot,red,r,1.0,r,1.0,0.7591925000306219,,,,,,,,,,8.0,9.0,105.0,0.0,426.34958979999647,,,,,,,,,,,,,,,,,426.3342905999161,426.4496727000224,427.2494678000221,427.2335429999512,,,,,,,,,,,,,,,,,,,,,,,,,,,,,,,,,,,427.236470600008,427.2494678000221,427.2494678000221,428.01738289999776,r,1.0,0.7591925000306219,,,,,sub-093,1,stroop_test,60.031360397831,
,,,,106.0,10.0,8.0,,,,,,,,,,,,,rot,red,r,1.0,r,1.0,0.4527544999727979,,,,,,,,,,8.0,10.0,106.0,1.0,428.0326908000279,,,,,,,,,,,,,,,,,428.0176741000032,428.83257369999774,429.6333172000013,429.6173962999601,,,,,,,,,,,,,,,,,,,,,,,,,,,,,,,,,,,429.6178724999773,429.6333172000013,429.6333172000013,430.1008959999308,r,1.0,0.4527544999727979,,,,,sub-093,1,stroop_test,60.031360397831,
,,,,107.0,11.0,8.0,,,,,,,,,,,,,gelb,red,r,0.0,r,1.0,0.945591100025922,,,,,,,,,,8.0,11.0,107.0,8.0,430.11587789992336,,,,,,,,,,,,,,,,,430.1014022999443,430.4657039999729,431.2656549999956,431.2497100000037,,,,,,,,,,,,,,,,,,,,,,,,,,,,,,,,,,,431.2518810000038,431.2656549999956,431.2656549999956,432.2173044999363,r,1.0,0.945591100025922,,,,,sub-093,1,stroop_test,60.031360397831,
,,,,108.0,0.0,9.0,,,,,,,,,,,,,rot,blue,b,0.0,b,1.0,0.8936939000850543,,,,,,,,,,9.0,0.0,108.0,2.0,432.23281189997215,,,,,,,,,,,,,,,,,432.2176176999928,432.3327654999448,433.1330425000051,433.1171095999889,,,,,,,,,,,,,,,,,,,,,,,,,,,,,,,,,,,433.1212155999383,433.1330425000051,433.1330425000051,434.0331543999491,b,1.0,0.8936939000850543,,,,,sub-093,1,stroop_test,60.031360397831,
,,,,109.0,1.0,9.0,,,,,,,,,,,,,gelb,yellow,g,1.0,g,1.0,1.0505545999621972,,,,,,,,,,9.0,1.0,109.0,11.0,434.04892550001387,,,,,,,,,,,,,,,,,434.0334543000208,434.1485880999826,434.9484321000055,434.9322917999234,,,,,,,,,,,,,,,,,,,,,,,,,,,,,,,,,,,434.9344145000214,434.9484321000055,434.9484321000055,436.0165440000128,g,1.0,1.0505545999621972,,,,,sub-093,1,stroop_test,60.031360397831,
,,,,110.0,2.0,9.0,,,,,,,,,,,,,gelb,red,r,0.0,r,1.0,0.888264000066556,,,,,,,,,,9.0,2.0,110.0,8.0,436.031797499978,,,,,,,,,,,,,,,,,436.0169000999304,436.8316222999711,437.63211969996337,437.6169280000031,,,,,,,,,,,,,,,,,,,,,,,,,,,,,,,,,,,437.61756069993135,437.63211969996337,437.63211969996337,438.53359879995696,r,1.0,0.888264000066556,,,,,sub-093,1,stroop_test,60.031360397831,
,,,,111.0,3.0,9.0,,,,,,,,,,,,,gelb,blue,b,0.0,b,1.0,0.7987102000042796,,,,,,,,,,9.0,3.0,111.0,9.0,438.5483186999336,,,,,,,,,,,,,,,,,438.53408699994907,439.74981770000886,440.56475649995264,440.5484469999792,,,,,,,,,,,,,,,,,,,,,,,,,,,,,,,,,,,440.54883989994414,440.56475649995264,440.56475649995264,441.3655205999967,b,1.0,0.7987102000042796,,,,,sub-093,1,stroop_test,60.031360397831,
,,,,112.0,4.0,9.0,,,,,,,,,,,,,blau,red,r,0.0,b,0.0,1.5374408999923617,,,,,,,,,,9.0,4.0,112.0,4.0,441.3814162999624,,,,,,,,,,,,,,,,,441.3657854999183,441.7150931999786,442.5142787999939,442.4981899999548,,,,,,,,,,,,,,,,,,,,,,,,,,,,,,,,,,,442.5005903999554,442.5142787999939,442.5142787999939,444.0650064999936,b,0.0,1.5374408999923617,,,,,sub-093,1,stroop_test,60.031360397831,
,,,,113.0,5.0,9.0,,,,,,,,,,,,,rot,red,r,1.0,r,1.0,0.9973222000990064,,,,,,,,,,9.0,5.0,113.0,1.0,444.0806232999312,,,,,,,,,,,,,,,,,444.0653208999429,444.1643439999316,444.9639063000213,444.9479732000036,,,,,,,,,,,,,,,,,,,,,,,,,,,,,,,,,,,444.9503439000109,444.9639063000213,444.9639063000213,445.96556159993634,r,1.0,0.9973222000990064,,,,,sub-093,1,stroop_test,60.031360397831,
,,,,114.0,6.0,9.0,,,,,,,,,,,,,blau,yellow,g,0.0,g,1.0,1.090414799982682,,,,,,,,,,9.0,6.0,114.0,7.0,445.9804824999301,,,,,,,,,,,,,,,,,445.9660684999544,446.7803490000079,447.5807197999675,447.56511169997975,,,,,,,,,,,,,,,,,,,,,,,,,,,,,,,,,,,447.5690433999989,447.5807197999675,447.5807197999675,448.6811438999139,g,1.0,1.090414799982682,,,,,sub-093,1,stroop_test,60.031360397831,
,,,,115.0,7.0,9.0,,,,,,,,,,,,,rot,yellow,g,0.0,g,1.0,0.81968129996676,,,,,,,,,,9.0,7.0,115.0,3.0,448.696724499925,,,,,,,,,,,,,,,,,448.6814128999831,449.8808206999674,450.6966413999908,450.6802228000015,,,,,,,,,,,,,,,,,,,,,,,,,,,,,,,,,,,450.682892999961,450.6966413999908,450.6966413999908,451.5316806000192,g,1.0,0.81968129996676,,,,,sub-093,1,stroop_test,60.031360397831,
,,,,116.0,8.0,9.0,,,,,,,,,,,,,gelb,yellow,g,1.0,g,1.0,0.5831909999251366,,,,,,,,,,9.0,8.0,116.0,10.0,451.54654439992737,,,,,,,,,,,,,,,,,451.53199599997606,451.8974059999455,452.7129779999377,452.6967992000282,,,,,,,,,,,,,,,,,,,,,,,,,,,,,,,,,,,452.6990868999856,452.7129779999377,452.7129779999377,453.297528599971,g,1.0,0.5831909999251366,,,,,sub-093,1,stroop_test,60.031360397831,
,,,,117.0,9.0,9.0,,,,,,,,,,,,,rot,red,r,1.0,r,1.0,0.7480934999184683,,,,,,,,,,9.0,9.0,117.0,0.0,453.312949599931,,,,,,,,,,,,,,,,,453.2977906999877,454.513098299969,455.3129305000184,455.2965221999912,,,,,,,,,,,,,,,,,,,,,,,,,,,,,,,,,,,455.29889289999846,455.3129305000184,455.3129305000184,456.06366769992746,r,1.0,0.7480934999184683,,,,,sub-093,1,stroop_test,60.031360397831,
,,,,118.0,10.0,9.0,,,,,,,,,,,,,blau,blue,b,1.0,b,1.0,0.6803758000023663,,,,,,,,,,9.0,10.0,118.0,5.0,456.0791567999404,,,,,,,,,,,,,,,,,456.06395490001887,456.1792759000091,456.9792648999719,456.9630511000287,,,,,,,,,,,,,,,,,,,,,,,,,,,,,,,,,,,456.9657740999246,456.9792648999719,456.9792648999719,457.6640997999348,b,1.0,0.6803758000023663,,,,,sub-093,1,stroop_test,60.031360397831,
,,,,119.0,11.0,9.0,,,,,,,,,,,,,blau,blue,b,1.0,b,1.0,0.7580389999784529,,,,,,,,,,9.0,11.0,119.0,6.0,457.6795075000264,,,,,,,,,,,,,,,,,457.664445500006,458.02898990002,458.82883170002606,458.8130437999498,,,,,,,,,,,,,,,,,,,,,,,,,,,,,,,,,,,458.8136299999896,458.82883170002606,458.82883170002606,459.59712259995285,b,1.0,0.7580389999784529,,,,,sub-093,1,stroop_test,60.031360397831,
,,,,,,,,,,,,,,,,,,,,,,,,,,,,,,,,,,,,,,,,,,,,,,,,,,,,,,,,,,,,,,,,,,,,,,,,,,,,,,,,,,,,,,,,,,,,,,,,,,,,,,459.5973328999244,459.612813499989,464.61157329997513,sub-093,1,stroop_test,60.031360397831,
