direction,corrAns,randomInstr,practice_trials.thisRepN,practice_trials.thisTrialN,practice_trials.thisN,practice_trials.thisIndex,instr_trials.thisRepN,instr_trials.thisTrialN,instr_trials.thisN,instr_trials.thisIndex,test_trials.thisRepN,test_trials.thisTrialN,test_trials.thisN,test_trials.thisIndex,thisRow.t,notes,general_instruction.started,textGeneralInstr.started,respGeneralInstr.started,general_instruction.stopped,respGeneralInstr.keys,respGeneralInstr.rt,respGeneralInstr.duration,ITI.started,fixcross.started,fixcross.stopped,ITI.stopped,dots.started,backgroundDots.started,stimulusDots.started,respDots.started,stimulusDots.stopped,dots.stopped,respDots.keys,respDots.corr,respDots.rt,respDots.duration,feedback.started,textFeedback.started,textFeedback.stopped,feedback.stopped,info.started,textInfo.started,keyRespInfo.started,info.stopped,keyRespInfo.keys,keyRespInfo.rt,keyRespInfo.duration,test_instruction.started,textTestInstr.started,respTestInstr.started,test_instruction.stopped,respTestInstr.keys,respTestInstr.rt,respTestInstr.duration,random_instruction.started,textRandomInstr.started,respRandomInstr.started,random_instruction.stopped,respRandomInstr.keys,respRandomInstr.rt,respRandomInstr.duration,goodbye.started,textGoodbye.started,goodbye.stopped,participant,session,expName,frameRate,Unnamed: 73
,,,,,,,,,,,,,,,,,0.0040442000026814,0.0092877999995835,0.0092877999995835,1.483109200009494,space,19.61784560000524,,,,,,,,,,,,,,,,,,,,,,,,,,,,,,,,,,,,,,,,,,,,sub-060,1.0,random_dot,60.022172193285066,
right,right,,0.0,0.0,0.0,1.0,,,,,,,,,1.5019235000072513,,,,,,,,,1.4973581000085687,2.696082900001784,3.4961772999959067,3.479495300009148,3.479524800000945,3.4961772999959067,3.4961772999959067,3.4961772999959067,8.49137139999948,8.692114200006472,right,1.0,23.3434217999893,,8.692679100000532,8.70708680000098,9.206747899996117,9.190668900002493,,,,,,,,,,,,,,,,,,,,,,,,,sub-060,1.0,random_dot,60.022172193285066,
left,left,,0.0,1.0,1.0,0.0,,,,,,,,,9.206747899996117,,,,,,,,,9.190961300002527,9.306619099996167,10.106478000001516,10.089734200009843,10.089755100008915,10.106478000001516,10.106478000001516,10.106478000001516,,12.8224338,left,1.0,20.863130699988687,,12.823616399997263,12.836710200004743,13.336173300005612,13.320585599998594,,,,,,,,,,,,,,,,,,,,,,,,,sub-060,1.0,random_dot,60.022172193285066,
right,right,,1.0,0.0,2.0,1.0,,,,,,,,,13.336173300005612,,,,,,,,,13.32113749999553,14.53567660000408,15.335356399999,15.32015020000108,15.320207700002356,15.335356399999,15.335356399999,15.335356399999,,15.5546222999983,right,1.0,18.36954169999808,,15.555930000002263,15.567896699998528,16.067067800002405,16.051298200007295,,,,,,,,,,,,,,,,,,,,,,,,,sub-060,1.0,random_dot,60.022172193285066,
left,left,,1.0,1.0,3.0,0.0,,,,,,,,,16.067067800002405,,,,,,,,,16.051807600000757,17.265829099997063,18.06599529999949,18.051044100007857,18.051136699999915,18.06599529999949,18.06599529999949,18.06599529999949,,18.30233220000809,left,1.0,18.376895900000815,,18.30388890000177,18.315338700005668,18.81496909999987,18.79983479999646,,,,,,,,,,,,,,,,,,,,,,,,,sub-060,1.0,random_dot,60.022172193285066,
right,right,,2.0,0.0,4.0,1.0,,,,,,,,,18.81496909999987,,,,,,,,,18.800938800006406,19.164794600001187,19.98070490000828,19.964086000007228,19.9641069000063,19.98070490000828,19.98070490000828,19.98070490000828,,20.114490799998748,right,1.0,18.281259800001862,,20.114860900008352,20.12982020000345,20.629537900007563,20.61342870000226,,,,,,,,,,,,,,,,,,,,,,,,,sub-060,1.0,random_dot,60.022172193285066,
left,left,,2.0,1.0,5.0,0.0,,,,,,,,,20.629537900007563,,,,,,,,,20.613715800005597,21.82858650000708,22.628420100008952,22.611516000004485,22.611529900008463,22.628420100008952,22.628420100008952,22.628420100008952,,23.128746600006707,left,1.0,18.637993899988945,,23.129134900009376,23.143949699995574,23.64376269999775,23.627944399995613,,,,,,,,,,,,,,,,,,,,,,,,,sub-060,1.0,random_dot,60.022172193285066,
right,right,,3.0,0.0,6.0,1.0,,,,,,,,,23.64376269999775,,,,,,,,,23.628537500000675,23.993633200007025,24.80944910000835,24.792664599997806,24.792701600003056,24.80944910000835,24.80944910000835,24.80944910000835,,24.89314569999988,right,1.0,18.22086980000313,,24.893747599999188,24.90820449999592,25.40764790000685,25.39175910000631,,,,,,,,,,,,,,,,,,,,,,,,,sub-060,1.0,random_dot,60.022172193285066,
left,left,,3.0,1.0,7.0,0.0,,,,,,,,,25.40764790000685,,,,,,,,,25.392261100001637,25.507582400008687,26.30791760000284,26.29120310000144,26.291217300007705,26.30791760000284,26.30791760000284,26.30791760000284,,26.459054999999356,right,0.0,18.288543100003157,,26.4594453000027,26.473783000008552,26.97337510000216,26.957224900004803,,,,,,,,,,,,,,,,,,,,,,,,,sub-060,1.0,random_dot,60.022172193285066,
right,right,,4.0,0.0,8.0,1.0,,,,,,,,,26.97337510000216,,,,,,,,,26.957522900003823,28.172859700003755,28.972409800000605,28.957274800006417,28.95733520000067,28.972409800000605,28.972409800000605,28.972409800000605,,29.107393199999933,right,1.0,18.27320899999177,,29.10832680000749,29.121788600008585,29.62150210000982,29.60639970000193,,,,,,,,,,,,,,,,,,,,,,,,,sub-060,1.0,random_dot,60.022172193285066,
left,left,,4.0,1.0,9.0,0.0,,,,,,,,,29.62150210000982,,,,,,,,,29.607539200005704,30.820208400007687,31.61988159999601,31.604723399999784,31.60477560000436,31.61988159999601,31.61988159999601,31.61988159999601,,31.70588890000363,left,1.0,18.22507319999568,,31.70723270000599,31.7194615000044,32.218928900008905,32.204087400008575,,,,,,,,,,,,,,,,,,,,,,,,,sub-060,1.0,random_dot,60.022172193285066,
left,left,,5.0,0.0,10.0,0.0,,,,,,,,,32.218928900008905,,,,,,,,,32.20503500000632,32.56846249999944,33.36865210000542,33.35410179999599,33.35416940000141,33.36865210000542,33.36865210000542,33.36865210000542,,33.63794100000814,left,1.0,18.40735709998989,,33.63950780000596,33.65132679999806,34.15081160000409,34.136140999995405,,,,,,,,,,,,,,,,,,,,,,,,,sub-060,1.0,random_dot,60.022172193285066,
right,right,,5.0,1.0,11.0,1.0,,,,,,,,,34.15081160000409,,,,,,,,,34.137165300009656,34.25081470000441,35.050471000009566,35.035329300008016,35.03544890000194,35.050471000009566,35.050471000009566,35.050471000009566,,35.85254580000765,right,1.0,18.94365979998838,,35.85385220000171,35.86611780000385,36.36562799999956,36.3502892999968,,,,,,,,,,,,,,,,,,,,,,,,,sub-060,1.0,random_dot,60.022172193285066,
right,right,,6.0,0.0,12.0,1.0,,,,,,,,,36.36562799999956,,,,,,,,,36.35126609999861,37.56441659999837,38.36471029999666,38.348857400007546,38.34891729999799,38.36471029999666,38.36471029999666,38.36471029999666,,39.81622940000671,left,0.0,19.592893399996683,,39.817543600001954,39.83365500000946,,40.3291515000019,,,,,,,,,,,,,,,,,,,,,,,,,sub-060,1.0,random_dot,60.022172193285066,
left,left,,6.0,1.0,13.0,0.0,,,,,,,,,40.345752499997616,,,,,,,,,40.33011389999592,41.52794130000984,42.32813520000491,42.312156400003005,42.312216400008765,42.32813520000491,42.32813520000491,42.32813520000491,,44.829062200005865,right,0.0,20.636940299984417,,44.83097660000203,44.84146160000819,45.34099399999832,45.3258147000015,,,,,,,,,,,,,,,,,,,,,,,,,sub-060,1.0,random_dot,60.022172193285066,
left,left,,7.0,0.0,14.0,0.0,,,,,,,,,45.34099399999832,,,,,,,,,45.32678390000365,46.14026240000385,46.9401099000097,46.924102000004495,46.92415790000814,46.9401099000097,46.9401099000097,46.9401099000097,,48.72232460000669,left,1.0,19.92665660000057,,48.72281720000319,48.7371448000049,49.23658540000906,49.22076460000244,,,,,,,,,,,,,,,,,,,,,,,,,sub-060,1.0,random_dot,60.022172193285066,
right,right,,7.0,1.0,15.0,1.0,,,,,,,,,49.23658540000906,,,,,,,,,49.22110209999664,49.33729890000541,50.13744580000639,50.12112999999954,50.12118550000014,50.13744580000639,50.13744580000639,50.13744580000639,,51.30508020000707,right,1.0,19.317940399982035,,51.30616480000026,51.31861180000124,51.818117300004815,51.80315999999584,,,,,,,,,,,,,,,,,,,,,,,,,sub-060,1.0,random_dot,60.022172193285066,
right,right,,8.0,0.0,16.0,1.0,,,,,,,,,51.818117300004815,,,,,,,,,51.80413960000442,52.6176095999981,53.43289569999615,53.41700300000957,53.41705640000873,53.43289569999615,53.43289569999615,53.43289569999615,,54.06836200000544,left,0.0,18.783325600001263,,54.06966110000212,54.08383850000973,,54.58179740000924,,,,,,,,,,,,,,,,,,,,,,,,,sub-060,1.0,random_dot,60.022172193285066,
left,left,,8.0,1.0,17.0,0.0,,,,,,,,,54.59809100000712,,,,,,,,,54.5831279999984,55.7803711000015,56.58000860000902,56.56478179999976,56.56484259999706,56.58000860000902,56.58000860000902,56.58000860000902,,58.1144656999968,right,0.0,19.68289489999006,,58.11576030000288,58.12839330000861,58.627940000005765,58.61268020000716,,,,,,,,,,,,,,,,,,,,,,,,,sub-060,1.0,random_dot,60.022172193285066,
left,left,,9.0,0.0,18.0,0.0,,,,,,,,,58.627940000005765,,,,,,,,,58.61367099999916,58.97746009999537,59.77777519999654,59.76162960000511,59.76168229999894,59.77777519999654,59.77777519999654,59.77777519999654,,60.37996940000448,left,1.0,18.75210369999695,,60.38127349999559,60.397026400009054,,60.89344650000567,,,,,,,,,,,,,,,,,,,,,,,,,sub-060,1.0,random_dot,60.022172193285066,
right,right,,9.0,1.0,19.0,1.0,,,,,,,,,60.909570300005726,,,,,,,,,60.894556800005375,60.99279669999669,61.79313800000818,61.77705610000703,61.77711779999663,61.79313800000818,61.79313800000818,61.79313800000818,,62.82821649999824,right,1.0,19.183614099994884,,62.82955570000922,62.84111770000891,63.34083149999788,63.32555200000934,,,,,,,,,,,,,,,,,,,,,,,,,sub-060,1.0,random_dot,60.022172193285066,
,,,,,,,,,,,,,,,,,,,,,,,,,,,,,,,,,,,,,,,,,,63.32572629999777,63.34083149999788,63.34083149999788,89.96840870000597,space,44.77785309999308,,,,,,,,,,,,,,,,,,,sub-060,1.0,random_dot,60.022172193285066,
,,,,,,,,,,,,,,,,,,,,,,,,,,,,,,,,,,,,,,,,,,,,,,,,,89.96850830000767,89.98234960000264,89.98234960000264,91.75098150000848,space,19.919354099984048,,,,,,,,,,,,sub-060,1.0,random_dot,60.022172193285066,
right,right,speed,,,,,0.0,0.0,0.0,1.0,0.0,0.0,0.0,1.0,92.25317989999894,,,,,,,,,92.24806260000332,92.5967665000062,93.3968898000021,93.38126960000956,93.3813450000016,93.3968898000021,93.3968898000021,93.3968898000021,,94.46504480000294,right,1.0,19.21752769999148,,,,,,,,,,,,,,,,,,,,91.7636874000018,91.78844020000544,91.78844020000544,92.23226990000694,space,18.59492629999295,,,,,sub-060,1.0,random_dot,60.022172193285066,
left,left,speed,,,,,0.0,0.0,0.0,1.0,0.0,1.0,1.0,0.0,94.47838110000885,,,,,,,,,94.4684927000053,94.57834860000004,95.37837580000632,95.36229129999992,95.3623602000007,95.37837580000632,95.37837580000632,95.37837580000632,,97.46131779999996,left,1.0,20.222545299999183,,,,,,,,,,,,,,,,,,,,,,,,,,,,,,sub-060,1.0,random_dot,60.022172193285066,
left,left,speed,,,,,0.0,0.0,0.0,1.0,1.0,0.0,2.0,0.0,97.47518380000838,,,,,,,,,97.4632505000045,97.8254406000051,98.6253110999969,98.60955609999657,98.60961569999928,98.6253110999969,98.6253110999969,98.6253110999969,,103.4900248000049,left,1.0,23.01390099999844,,,,,,,,,,,,,,,,,,,,,,,,,,,,,,sub-060,1.0,random_dot,60.022172193285066,
right,right,speed,,,,,0.0,0.0,0.0,1.0,1.0,1.0,3.0,1.0,103.50325249999878,,,,,,,,,103.49234989999968,103.85271980000834,104.65317340000183,104.63729070000409,104.63735160000216,104.65317340000183,104.65317340000183,104.65317340000183,,106.13726410000528,right,1.0,19.623429500003112,,,,,,,,,,,,,,,,,,,,,,,,,,,,,,sub-060,1.0,random_dot,60.022172193285066,
right,right,speed,,,,,0.0,0.0,0.0,1.0,2.0,0.0,4.0,1.0,106.15068600000814,,,,,,,,,106.13991150000948,106.5002392000024,107.30055800000264,107.28425450000212,107.28430670000672,107.30055800000264,107.30055800000264,107.30055800000264,,108.91814900000465,left,0.0,19.76736939998227,,,,,,,,,,,,,,,,,,,,,,,,,,,,,,sub-060,1.0,random_dot,60.022172193285066,
left,left,speed,,,,,0.0,0.0,0.0,1.0,2.0,1.0,5.0,0.0,108.9314713000058,,,,,,,,,108.92075360000308,109.73096290000832,110.53086620000248,110.51522750000004,110.51528900000268,110.53086620000248,110.53086620000248,110.53086620000248,,115.07888749999984,right,0.0,22.68492119999428,,,,,,,,,,,,,,,,,,,,,,,,,,,,,,sub-060,1.0,random_dot,60.022172193285066,
right,right,speed,,,,,0.0,0.0,0.0,1.0,3.0,0.0,6.0,1.0,115.09236999999848,,,,,,,,,115.0813238999981,115.44209510000655,116.24233740000636,116.22640470000624,116.22646449999591,116.24233740000636,116.24233740000636,116.24233740000636,,117.77659789999598,right,1.0,19.684778599999845,,,,,,,,,,,,,,,,,,,,,,,,,,,,,,sub-060,1.0,random_dot,60.022172193285066,
left,left,speed,,,,,0.0,0.0,0.0,1.0,3.0,1.0,7.0,0.0,117.78975429999991,,,,,,,,,117.77917460000026,118.98884299999918,119.78911820000212,119.77321500000836,119.77331730000152,119.78911820000212,119.78911820000212,119.78911820000212,,120.83882299999824,left,1.0,19.191086399994678,,,,,,,,,,,,,,,,,,,,,,,,,,,,,,sub-060,1.0,random_dot,60.022172193285066,
left,left,speed,,,,,0.0,0.0,0.0,1.0,4.0,0.0,8.0,0.0,120.85319809999784,,,,,,,,,120.83999310000218,120.95291970000837,121.75302910000028,121.73600260000968,121.73601720000444,121.75302910000028,121.75302910000028,121.75302910000028,,122.5545606000087,right,0.0,18.94461880000017,,,,,,,,,,,,,,,,,,,,,,,,,,,,,,sub-060,1.0,random_dot,60.022172193285066,
right,right,speed,,,,,0.0,0.0,0.0,1.0,4.0,1.0,9.0,1.0,122.5684212000051,,,,,,,,,122.55633669999952,122.91850420000264,123.73470420000376,123.71818399999756,123.71821710000222,123.73470420000376,123.73470420000376,123.73470420000376,,128.41486679999798,right,1.0,22.82066569999733,,,,,,,,,,,,,,,,,,,,,,,,,,,,,,sub-060,1.0,random_dot,60.022172193285066,
left,left,speed,,,,,0.0,0.0,0.0,1.0,5.0,0.0,10.0,0.0,128.42905299999984,,,,,,,,,128.41727040000842,129.22833009999886,130.028109699997,130.0131235000008,130.01319330000842,130.028109699997,130.028109699997,130.028109699997,,132.12882739999625,right,0.0,20.25106829998549,,,,,,,,,,,,,,,,,,,,,,,,,,,,,,sub-060,1.0,random_dot,60.022172193285066,
right,right,speed,,,,,0.0,0.0,0.0,1.0,5.0,1.0,11.0,1.0,132.14236230000097,,,,,,,,,132.1314648999978,132.2425602000003,133.04269290000957,133.02671770000595,133.02677409999887,133.04269290000957,133.04269290000957,133.04269290000957,,133.91148270000122,right,1.0,19.016841099990412,,,,,,,,,,,,,,,,,,,,,,,,,,,,,,sub-060,1.0,random_dot,60.022172193285066,
left,left,speed,,,,,0.0,0.0,0.0,1.0,6.0,0.0,12.0,0.0,133.9241761000012,,,,,,,,,133.9135740000056,134.7241095000063,135.5244234999991,135.5085165000055,135.50857639999597,135.5244234999991,135.5244234999991,135.5244234999991,,136.9751149000076,left,1.0,19.59523289999925,,,,,,,,,,,,,,,,,,,,,,,,,,,,,,sub-060,1.0,random_dot,60.022172193285066,
right,right,speed,,,,,0.0,0.0,0.0,1.0,6.0,1.0,13.0,1.0,136.9883811000036,,,,,,,,,136.97778139999718,137.78775020000467,138.58783210000547,138.571669500001,138.5717222000094,138.58783210000547,138.58783210000547,138.58783210000547,,139.6397999000037,right,1.0,19.19665199999872,,,,,,,,,,,,,,,,,,,,,,,,,,,,,,sub-060,1.0,random_dot,60.022172193285066,
left,left,speed,,,,,0.0,0.0,0.0,1.0,7.0,0.0,14.0,0.0,139.65255430000252,,,,,,,,,139.6423930000019,140.45194890000857,141.25236759999825,141.2361074000073,141.23617669999658,141.25236759999825,141.25236759999825,141.25236759999825,,142.02149110000755,left,1.0,18.91167579998728,,,,,,,,,,,,,,,,,,,,,,,,,,,,,,sub-060,1.0,random_dot,60.022172193285066,
right,right,speed,,,,,0.0,0.0,0.0,1.0,7.0,1.0,15.0,1.0,142.03393060000965,,,,,,,,,142.02444999999716,142.38371069999994,143.18390410000575,143.16787679999834,143.16793650000182,143.18390410000575,143.18390410000575,143.18390410000575,,144.03579330000505,right,1.0,18.99106299999403,,,,,,,,,,,,,,,,,,,,,,,,,,,,,,sub-060,1.0,random_dot,60.022172193285066,
left,left,speed,,,,,0.0,0.0,0.0,1.0,8.0,0.0,16.0,0.0,144.04877530000522,,,,,,,,,144.03885759999685,144.84793920000084,145.6479546000046,145.63216249999823,145.63222260000475,145.6479546000046,145.6479546000046,145.6479546000046,,150.54561570000078,left,1.0,23.036466200006544,,,,,,,,,,,,,,,,,,,,,,,,,,,,,,sub-060,1.0,random_dot,60.022172193285066,
right,right,speed,,,,,0.0,0.0,0.0,1.0,8.0,1.0,17.0,1.0,150.5590080999973,,,,,,,,,150.54797220000182,151.7580874999985,152.55813330000092,152.54189069999848,152.54194409999764,152.55813330000092,152.55813330000092,152.55813330000092,,153.7425990000047,right,1.0,19.331894499991904,,,,,,,,,,,,,,,,,,,,,,,,,,,,,,sub-060,1.0,random_dot,60.022172193285066,
left,left,speed,,,,,0.0,0.0,0.0,1.0,9.0,0.0,18.0,0.0,153.75599990000774,,,,,,,,,153.74500160000753,153.85625949999667,154.65620460000355,154.64031909999903,154.6403788000025,154.65620460000355,154.65620460000355,154.65620460000355,,158.28711940000358,right,0.0,21.772268000000626,,,,,,,,,,,,,,,,,,,,,,,,,,,,,,sub-060,1.0,random_dot,60.022172193285066,
right,right,speed,,,,,0.0,0.0,0.0,1.0,9.0,1.0,19.0,1.0,158.30188090000593,,,,,,,,,158.28789439999673,159.10142839999753,159.90130270000373,159.88534680000157,159.88541240000632,159.90130270000373,159.90130270000373,159.90130270000373,,164.082046800002,right,1.0,22.32125909999013,,,,,,,,,,,,,,,,,,,,,,,,,,,,,,sub-060,1.0,random_dot,60.022172193285066,
right,right,speed,,,,,0.0,0.0,0.0,1.0,10.0,0.0,20.0,1.0,164.09569010000268,,,,,,,,,164.08476100000553,164.89527760000783,165.6947846999974,165.67974890000187,165.67981810000492,165.6947846999974,165.6947846999974,165.6947846999974,,167.69538200000534,left,0.0,20.149781199987046,,,,,,,,,,,,,,,,,,,,,,,,,,,,,,sub-060,1.0,random_dot,60.022172193285066,
left,left,speed,,,,,0.0,0.0,0.0,1.0,10.0,1.0,21.0,0.0,167.70880570000736,,,,,,,,,167.6981269000098,168.05837440000323,168.85838000000513,168.84253989999706,168.842593399997,168.85838000000513,168.85838000000513,168.85838000000513,173.8535472000076,173.95614059999934,right,0.0,23.235809499994502,,,,,,,,,,,,,,,,,,,,,,,,,,,,,,sub-060,1.0,random_dot,60.022172193285066,
left,left,speed,,,,,0.0,0.0,0.0,1.0,11.0,0.0,22.0,0.0,173.9698859000055,,,,,,,,,173.95881460000237,174.76903480000328,175.5685560999991,175.5527022000024,175.55275509999774,175.5685560999991,175.5685560999991,175.5685560999991,,177.88584220000484,left,1.0,20.46083159999398,,,,,,,,,,,,,,,,,,,,,,,,,,,,,,sub-060,1.0,random_dot,60.022172193285066,
right,right,speed,,,,,0.0,0.0,0.0,1.0,11.0,1.0,23.0,1.0,177.89927019999595,,,,,,,,,177.888586400004,178.69847859999572,179.4985508999962,179.48302040000272,179.48309010000958,179.4985508999962,179.4985508999962,179.4985508999962,,180.5994447999983,right,1.0,19.25164339999901,,,,,,,,,,,,,,,,,,,,,,,,,,,,,,sub-060,1.0,random_dot,60.022172193285066,
right,right,speed,,,,,0.0,0.0,0.0,1.0,12.0,0.0,24.0,1.0,180.61322749999815,,,,,,,,,180.60161959999823,181.4128652000072,182.21245869999984,182.1967106000084,182.19676590000745,182.21245869999984,182.21245869999984,182.21245869999984,,182.9146044000081,right,1.0,18.851126399982604,,,,,,,,,,,,,,,,,,,,,,,,,,,,,,sub-060,1.0,random_dot,60.022172193285066,
left,left,speed,,,,,0.0,0.0,0.0,1.0,12.0,1.0,25.0,0.0,182.9278338000004,,,,,,,,,182.9172800000088,184.12676559999815,184.92676260000732,184.91170599999896,184.91179959999863,184.92676260000732,184.92676260000732,184.92676260000732,,189.24275400000624,left,1.0,22.458244299981743,,,,,,,,,,,,,,,,,,,,,,,,,,,,,,sub-060,1.0,random_dot,60.022172193285066,
left,left,speed,,,,,0.0,0.0,0.0,1.0,13.0,0.0,26.0,0.0,189.25573260000965,,,,,,,,,189.2462287000089,190.054732500008,190.87078009999823,190.8547959999996,190.85484010000076,190.87078009999823,190.87078009999823,190.87078009999823,,192.17160760000115,right,0.0,19.44052340000053,,,,,,,,,,,,,,,,,,,,,,,,,,,,,,sub-060,1.0,random_dot,60.022172193285066,
right,right,speed,,,,,0.0,0.0,0.0,1.0,13.0,1.0,27.0,1.0,192.18585940000776,,,,,,,,,192.1737932999968,193.3848810000054,194.18467980000423,194.1690655999992,194.1691329000023,194.18467980000423,194.18467980000423,194.18467980000423,,194.90357999999836,right,1.0,18.858041399988,,,,,,,,,,,,,,,,,,,,,,,,,,,,,,sub-060,1.0,random_dot,60.022172193285066,
right,right,speed,,,,,0.0,0.0,0.0,1.0,14.0,0.0,28.0,1.0,194.91671089999727,,,,,,,,,194.9067886999983,196.11587880000295,196.91541879999568,196.89999740000349,196.90006020000143,196.91541879999568,196.91541879999568,196.91541879999568,,197.60065560000655,right,1.0,18.83627830000478,,,,,,,,,,,,,,,,,,,,,,,,,,,,,,sub-060,1.0,random_dot,60.022172193285066,
left,left,speed,,,,,0.0,0.0,0.0,1.0,14.0,1.0,29.0,0.0,197.6143419,,,,,,,,,197.60338250000493,198.81301920000988,199.6129590000055,199.5969610000029,199.59701389999827,199.6129590000055,199.6129590000055,199.6129590000055,,200.7475259000057,right,0.0,19.27764250000473,,,,,,,,,,,,,,,,,,,,,,,,,,,,,,sub-060,1.0,random_dot,60.022172193285066,
left,left,speed,,,,,0.0,0.0,0.0,1.0,15.0,0.0,30.0,0.0,200.76121749999584,,,,,,,,,200.75017729999672,201.5605127000017,202.3602926000021,202.3448597000097,202.3449130000081,202.3602926000021,202.3602926000021,202.3602926000021,,202.89574960000755,right,0.0,18.680552799996804,,,,,,,,,,,,,,,,,,,,,,,,,,,,,,sub-060,1.0,random_dot,60.022172193285066,
right,right,speed,,,,,0.0,0.0,0.0,1.0,15.0,1.0,31.0,1.0,202.90938929999535,,,,,,,,,202.89852230000545,203.00908730000083,203.8090030000021,203.7931055000081,203.79315820000195,203.8090030000021,203.8090030000021,203.8090030000021,,207.17416769999545,right,1.0,21.50530909998633,,,,,,,,,,,,,,,,,,,,,,,,,,,,,,sub-060,1.0,random_dot,60.022172193285066,
left,left,speed,,,,,0.0,0.0,0.0,1.0,16.0,0.0,32.0,0.0,207.18851490000088,,,,,,,,,207.17623949999688,207.2884778000007,208.0882610999979,208.07278519999815,208.07283930000267,208.0882610999979,208.0882610999979,208.0882610999979,,208.8233922000072,left,1.0,18.88491389999399,,,,,,,,,,,,,,,,,,,,,,,,,,,,,,sub-060,1.0,random_dot,60.022172193285066,
right,right,speed,,,,,0.0,0.0,0.0,1.0,16.0,1.0,33.0,1.0,208.83720310000356,,,,,,,,,208.82618830000865,209.18671870000253,209.98667019999996,209.97113630000968,209.9711886000005,209.98667019999996,209.98667019999996,209.98667019999996,,210.9712079000019,right,1.0,19.123572099982997,,,,,,,,,,,,,,,,,,,,,,,,,,,,,,sub-060,1.0,random_dot,60.022172193285066,
right,right,speed,,,,,0.0,0.0,0.0,1.0,17.0,0.0,34.0,1.0,210.9849283000076,,,,,,,,,210.97384639999652,211.7842501999985,212.58420939999635,212.5684132000024,212.5684681999992,212.58420939999635,212.58420939999635,212.58420939999635,,214.13500229999767,right,1.0,19.69316229999822,,,,,,,,,,,,,,,,,,,,,,,,,,,,,,sub-060,1.0,random_dot,60.022172193285066,
left,left,speed,,,,,0.0,0.0,0.0,1.0,17.0,1.0,35.0,0.0,214.1487000000052,,,,,,,,,214.1377657999983,214.2486467999988,215.0484699000081,215.03272170000128,215.0327742000081,215.0484699000081,215.0484699000081,215.0484699000081,,215.8167204000056,left,1.0,18.90902930000448,,,,,,,,,,,,,,,,,,,,,,,,,,,,,,sub-060,1.0,random_dot,60.022172193285066,
left,left,speed,,,,,0.0,0.0,0.0,1.0,18.0,0.0,36.0,0.0,215.8305543000024,,,,,,,,,215.8194683000038,216.6299127999955,217.4291391000006,217.4143583999976,217.4144249999954,217.4291391000006,217.4291391000006,217.4291391000006,,219.14762270000935,left,1.0,19.853853399996297,,,,,,,,,,,,,,,,,,,,,,,,,,,,,,sub-060,1.0,random_dot,60.022172193285066,
right,right,speed,,,,,0.0,0.0,0.0,1.0,18.0,1.0,37.0,1.0,219.16065370000436,,,,,,,,,219.15063800000644,220.3595889999997,221.159470700004,221.1441499000066,221.1442104000016,221.159470700004,221.159470700004,221.159470700004,,221.7125029000017,right,1.0,18.695750299986685,,,,,,,,,,,,,,,,,,,,,,,,,,,,,,sub-060,1.0,random_dot,60.022172193285066,
left,left,speed,,,,,0.0,0.0,0.0,1.0,19.0,0.0,38.0,0.0,221.72482709999892,,,,,,,,,221.71617590000096,221.82537410000805,222.62524170000688,222.60969379999733,222.6097643999965,222.62524170000688,222.62524170000688,222.62524170000688,,223.14258220000195,left,1.0,18.66366500000004,,,,,,,,,,,,,,,,,,,,,,,,,,,,,,sub-060,1.0,random_dot,60.022172193285066,
right,right,speed,,,,,0.0,0.0,0.0,1.0,19.0,1.0,39.0,1.0,223.1570633000083,,,,,,,,,223.14469420000387,223.25719709999976,224.0567107000097,224.0416534999968,224.04172239999752,224.0567107000097,224.0567107000097,224.0567107000097,,224.57581399999617,right,1.0,18.658347999997204,,,,,,,,,,,,,,,,,,,,,,,,,,,,,,sub-060,1.0,random_dot,60.022172193285066,
right,right,speed,,,,,0.0,0.0,0.0,1.0,20.0,0.0,40.0,1.0,224.58894020000295,,,,,,,,,224.5790413000068,224.6888187000004,225.48907920000784,225.4731446000078,225.4732151000062,225.48907920000784,225.48907920000784,225.48907920000784,,226.32458100000804,left,0.0,18.97522849998495,,,,,,,,,,,,,,,,,,,,,,,,,,,,,,sub-060,1.0,random_dot,60.022172193285066,
left,left,speed,,,,,0.0,0.0,0.0,1.0,20.0,1.0,41.0,0.0,226.33733650000067,,,,,,,,,226.3273502000084,227.13647250000213,227.9364951000025,227.9204181000096,227.9204708000034,227.9364951000025,227.9364951000025,227.9364951000025,,228.63912829999757,left,1.0,18.84369749999314,,,,,,,,,,,,,,,,,,,,,,,,,,,,,,sub-060,1.0,random_dot,60.022172193285066,
right,right,speed,,,,,0.0,0.0,0.0,1.0,21.0,0.0,42.0,1.0,228.6518161999993,,,,,,,,,228.64280339999823,228.75208730000304,229.5681687000033,229.5521860000008,229.5522296999989,229.5681687000033,229.5681687000033,229.5681687000033,,230.12074650000432,right,1.0,18.696980899985647,,,,,,,,,,,,,,,,,,,,,,,,,,,,,,sub-060,1.0,random_dot,60.022172193285066,
left,left,speed,,,,,0.0,0.0,0.0,1.0,21.0,1.0,43.0,0.0,230.13398470000536,,,,,,,,,230.12377320000087,230.93296920000284,231.7327789999981,231.7173792999965,231.71744190000757,231.7327789999981,231.7327789999981,231.7327789999981,,232.7177927000012,left,1.0,19.13219309998385,,,,,,,,,,,,,,,,,,,,,,,,,,,,,,sub-060,1.0,random_dot,60.022172193285066,
right,right,speed,,,,,0.0,0.0,0.0,1.0,22.0,0.0,44.0,1.0,232.73149879999983,,,,,,,,,232.72054059999937,233.5306067000056,234.3303644999978,234.3150469999964,234.31510049999636,234.3303644999978,234.3303644999978,234.3303644999978,,234.83239920000776,right,1.0,18.64137529999425,,,,,,,,,,,,,,,,,,,,,,,,,,,,,,sub-060,1.0,random_dot,60.022172193285066,
left,left,speed,,,,,0.0,0.0,0.0,1.0,22.0,1.0,45.0,0.0,234.846157100008,,,,,,,,,234.83609369999613,234.94604310000432,235.7456736000022,235.73027539999748,235.73033540000324,235.7456736000022,235.7456736000022,235.7456736000022,,236.08014430000912,right,0.0,18.472275499996613,,,,,,,,,,,,,,,,,,,,,,,,,,,,,,sub-060,1.0,random_dot,60.022172193285066,
right,right,speed,,,,,0.0,0.0,0.0,1.0,23.0,0.0,46.0,1.0,236.094711800004,,,,,,,,,236.08170589999645,236.89410030000727,237.6938947000017,237.67828780000852,237.6783407000039,237.6938947000017,237.6938947000017,237.6938947000017,,238.51197669999965,right,1.0,18.95462429999316,,,,,,,,,,,,,,,,,,,,,,,,,,,,,,sub-060,1.0,random_dot,60.022172193285066,
left,left,speed,,,,,0.0,0.0,0.0,1.0,23.0,1.0,47.0,0.0,238.52617720000853,,,,,,,,,238.51461450000352,238.62591840000823,239.4254368999973,239.40960440000345,239.40965800000413,239.4254368999973,239.4254368999973,239.4254368999973,,240.17745899999863,left,1.0,18.901565899985144,,,,,,,,,,,,,,,,,,,,,,,,,,,,,,sub-060,1.0,random_dot,60.022172193285066,
left,left,speed,,,,,0.0,0.0,0.0,1.0,24.0,0.0,48.0,0.0,240.1911515999964,,,,,,,,,240.18019440000356,241.38989770000623,242.1898982999992,242.173930200006,242.17398289999983,242.1898982999992,242.1898982999992,242.1898982999992,,243.0414926000085,right,0.0,18.99757320000208,,,,,,,,,,,,,,,,,,,,,,,,,,,,,,sub-060,1.0,random_dot,60.022172193285066,
right,right,speed,,,,,0.0,0.0,0.0,1.0,24.0,1.0,49.0,1.0,243.05487619999624,,,,,,,,,243.044146500004,244.25434179999863,245.05379340000215,245.03855870000552,245.0386298000085,245.05379340000215,245.05379340000215,245.05379340000215,,246.12123740000243,right,1.0,19.20702429999073,,,,,,,,,,,,,,,,,,,,,,,,,,,,,,sub-060,1.0,random_dot,60.022172193285066,
left,left,speed,,,,,0.0,0.0,0.0,1.0,25.0,0.0,50.0,0.0,246.13557600000055,,,,,,,,,246.1233388999972,246.23574400000507,247.0517977999989,247.03650030000423,247.03656059999776,247.0517977999989,247.0517977999989,247.0517977999989,,247.90275120000297,left,1.0,18.988270499990904,,,,,,,,,,,,,,,,,,,,,,,,,,,,,,sub-060,1.0,random_dot,60.022172193285066,
right,right,speed,,,,,0.0,0.0,0.0,1.0,25.0,1.0,51.0,1.0,247.9169518999988,,,,,,,,,247.9049546000024,248.0168485000031,248.81706660000785,248.8011811000033,248.80124159999832,248.81706660000785,248.81706660000785,248.81706660000785,,249.81949320000425,right,1.0,19.15196289999585,,,,,,,,,,,,,,,,,,,,,,,,,,,,,,sub-060,1.0,random_dot,60.022172193285066,
left,left,speed,,,,,0.0,0.0,0.0,1.0,26.0,0.0,52.0,0.0,249.8321133999998,,,,,,,,,249.8225164000032,249.9322828000004,250.731775799999,250.71655160000955,250.71661129999848,250.731775799999,250.731775799999,250.731775799999,,252.3826229999977,left,1.0,19.788922199993976,,,,,,,,,,,,,,,,,,,,,,,,,,,,,,sub-060,1.0,random_dot,60.022172193285066,
right,right,speed,,,,,0.0,0.0,0.0,1.0,26.0,1.0,53.0,1.0,252.3964042000007,,,,,,,,,252.38541129999797,253.59561469999608,254.39523680000275,254.38020719999625,254.3802716000064,254.39523680000275,254.39523680000275,254.39523680000275,,257.79523800000607,left,0.0,21.5457150000002,,,,,,,,,,,,,,,,,,,,,,,,,,,,,,sub-060,1.0,random_dot,60.022172193285066,
right,right,speed,,,,,0.0,0.0,0.0,1.0,27.0,0.0,54.0,1.0,257.80811510000785,,,,,,,,,257.7987080000021,258.60735510000086,259.40714900000603,259.3921376000071,259.3922070999979,259.40714900000603,259.40714900000603,259.40714900000603,,260.758350899996,right,1.0,19.491963499982376,,,,,,,,,,,,,,,,,,,,,,,,,,,,,,sub-060,1.0,random_dot,60.022172193285066,
left,left,speed,,,,,0.0,0.0,0.0,1.0,27.0,1.0,55.0,0.0,260.7716402000078,,,,,,,,,260.76131260000693,261.12160759999824,261.9215928000049,261.9062554999982,261.90632700000424,261.9215928000049,261.9215928000049,261.9215928000049,,262.23964369999885,left,1.0,18.46401999999944,,,,,,,,,,,,,,,,,,,,,,,,,,,,,,sub-060,1.0,random_dot,60.022172193285066,
left,left,speed,,,,,0.0,0.0,0.0,1.0,28.0,0.0,56.0,0.0,262.2536309999996,,,,,,,,,262.2417989000096,263.4527970000054,264.2691882000072,264.25347510000574,264.25353010000254,264.2691882000072,264.2691882000072,264.2691882000072,,264.90416820000974,left,1.0,18.77489109999442,,,,,,,,,,,,,,,,,,,,,,,,,,,,,,sub-060,1.0,random_dot,60.022172193285066,
right,right,speed,,,,,0.0,0.0,0.0,1.0,28.0,1.0,57.0,1.0,264.9180367000081,,,,,,,,,264.9069083000068,265.7174624000036,266.5171843999997,266.50201900000684,266.50208920000296,266.5171843999997,266.5171843999997,266.5171843999997,,270.04982090000703,right,1.0,21.68139939999673,,,,,,,,,,,,,,,,,,,,,,,,,,,,,,sub-060,1.0,random_dot,60.022172193285066,
left,left,speed,,,,,0.0,0.0,0.0,1.0,29.0,0.0,58.0,0.0,270.0630841000093,,,,,,,,,270.0525365000067,270.8622586999991,271.66199400000914,271.6463824999955,271.6464388000022,271.66199400000914,271.66199400000914,271.66199400000914,,273.6130547000066,right,0.0,20.10093249999045,,,,,,,,,,,,,,,,,,,,,,,,,,,,,,sub-060,1.0,random_dot,60.022172193285066,
right,right,speed,,,,,0.0,0.0,0.0,1.0,29.0,1.0,59.0,1.0,273.6264233999973,,,,,,,,,273.6158298000082,274.82522539999627,275.6250776000088,275.6096347999992,275.6096961000003,275.6250776000088,275.6250776000088,275.6250776000088,,275.9943028999988,right,1.0,18.50953659998777,,,,,,,,,,,,,,,,,,,,,,,,,,,,,,sub-060,1.0,random_dot,60.022172193285066,
,,speed,,,,,0.0,0.0,0.0,1.0,,,,,,,,,,,,,,,,,,,,,,,,,,,,,,,,,,,,,,,,,,,,,,,,,,,,,,,,sub-060,1.0,random_dot,60.022172193285066,
left,left,accuracy,,,,,0.0,1.0,1.0,0.0,0.0,0.0,0.0,0.0,283.07946219999576,,,,,,,,,283.07445440000447,283.86679000000004,284.6664834999974,284.6508637000079,284.6509229000076,284.6664834999974,284.6664834999974,284.6664834999974,289.66218110000773,290.41371350000554,left,1.0,23.88834659999702,,,,,,,,,,,,,,,,,,,,275.99720250000246,276.01969430000463,276.01969430000463,283.0541660000017,space,25.185650599989454,,,,,sub-060,1.0,random_dot,60.022172193285066,
right,right,accuracy,,,,,0.0,1.0,1.0,0.0,0.0,1.0,1.0,1.0,290.42760180000914,,,,,,,,,290.41704440000467,290.777130100003,291.57697150000604,291.56110530000296,291.5611578000098,291.57697150000604,291.57697150000604,291.57697150000604,,292.9448618000024,right,1.0,19.51617719999922,,,,,,,,,,,,,,,,,,,,,,,,,,,,,,sub-060,1.0,random_dot,60.022172193285066,
left,left,accuracy,,,,,0.0,1.0,1.0,0.0,1.0,0.0,2.0,0.0,292.9584331000078,,,,,,,,,292.94758570000704,293.7575588000036,294.5573934999993,294.5416954999964,294.54174860000785,294.5573934999993,294.5573934999993,294.5573934999993,,297.17285440000705,left,1.0,20.76206759999332,,,,,,,,,,,,,,,,,,,,,,,,,,,,,,sub-060,1.0,random_dot,60.022172193285066,
right,right,accuracy,,,,,0.0,1.0,1.0,0.0,1.0,1.0,3.0,1.0,297.1874872000044,,,,,,,,,297.1743511999957,297.537055599998,298.337382800004,298.32234739999694,298.32241839999915,298.337382800004,298.337382800004,298.337382800004,,299.1383532000036,right,1.0,18.938500199990813,,,,,,,,,,,,,,,,,,,,,,,,,,,,,,sub-060,1.0,random_dot,60.022172193285066,
left,left,accuracy,,,,,0.0,1.0,1.0,0.0,2.0,0.0,4.0,0.0,299.15239689999726,,,,,,,,,299.1405395000038,300.35150010000507,301.15146999999706,301.13605230000394,301.1361318999989,301.15146999999706,301.15146999999706,301.15146999999706,,302.4528968000086,left,1.0,19.44312669998908,,,,,,,,,,,,,,,,,,,,,,,,,,,,,,sub-060,1.0,random_dot,60.022172193285066,
right,right,accuracy,,,,,0.0,1.0,1.0,0.0,2.0,1.0,5.0,1.0,302.4661371999973,,,,,,,,,302.455649800002,303.6651284999971,304.4648720999976,304.44885899999645,304.4489124999964,304.4648720999976,304.4648720999976,304.4648720999976,,305.5830227999977,right,1.0,19.2598672999884,,,,,,,,,,,,,,,,,,,,,,,,,,,,,,sub-060,1.0,random_dot,60.022172193285066,
right,right,accuracy,,,,,0.0,1.0,1.0,0.0,3.0,0.0,6.0,1.0,305.5966725000035,,,,,,,,,305.58575980000023,306.79566070000874,307.5950041000033,307.5796394000063,307.57969220000086,307.5950041000033,307.5950041000033,307.5950041000033,,309.1307090000046,left,0.0,19.67899519999628,,,,,,,,,,,,,,,,,,,,,,,,,,,,,,sub-060,1.0,random_dot,60.022172193285066,
left,left,accuracy,,,,,0.0,1.0,1.0,0.0,3.0,1.0,7.0,0.0,309.14351930000703,,,,,,,,,309.1341875000071,310.34232599999814,311.1418857999961,311.12684230000013,311.1269132000016,311.1418857999961,311.1418857999961,311.1418857999961,,314.27503050000814,left,1.0,21.28141019999748,,,,,,,,,,,,,,,,,,,,,,,,,,,,,,sub-060,1.0,random_dot,60.022172193285066,
left,left,accuracy,,,,,0.0,1.0,1.0,0.0,4.0,0.0,8.0,0.0,314.2886138000031,,,,,,,,,314.27771350000694,315.08755830000155,315.88739960000385,315.8717500000057,315.8718043999979,315.88739960000385,315.88739960000385,315.88739960000385,,317.6216565000068,left,1.0,19.878620599993155,,,,,,,,,,,,,,,,,,,,,,,,,,,,,,sub-060,1.0,random_dot,60.022172193285066,
right,right,accuracy,,,,,0.0,1.0,1.0,0.0,4.0,1.0,9.0,1.0,317.6354105000064,,,,,,,,,317.6240700000053,317.73530280000705,318.535162900007,318.52009800000815,318.520193999997,318.535162900007,318.535162900007,318.535162900007,,319.36997240000346,right,1.0,18.98320829999284,,,,,,,,,,,,,,,,,,,,,,,,,,,,,,sub-060,1.0,random_dot,60.022172193285066,
right,right,accuracy,,,,,0.0,1.0,1.0,0.0,5.0,0.0,10.0,1.0,319.3837235999963,,,,,,,,,319.37272210000083,320.18305279999913,320.98285850000684,320.9672520000022,320.967338500006,320.98285850000684,320.98285850000684,320.98285850000684,,322.2505361000076,left,0.0,19.40408319998824,,,,,,,,,,,,,,,,,,,,,,,,,,,,,,sub-060,1.0,random_dot,60.022172193285066,
left,left,accuracy,,,,,0.0,1.0,1.0,0.0,5.0,1.0,11.0,0.0,322.2643268999964,,,,,,,,,322.2532823000074,323.4633160000085,324.26306890000706,324.2471121999988,324.2471657999995,324.26306890000706,324.26306890000706,324.26306890000706,,325.2144398000092,left,1.0,19.095544099996918,,,,,,,,,,,,,,,,,,,,,,,,,,,,,,sub-060,1.0,random_dot,60.022172193285066,
right,right,accuracy,,,,,0.0,1.0,1.0,0.0,6.0,0.0,12.0,1.0,325.22812280000653,,,,,,,,,325.2173698999977,326.4272175000078,327.2269534000079,327.2109424000082,327.2109949000005,327.2269534000079,327.2269534000079,327.2269534000079,,332.1745948000025,right,1.0,23.0953945999936,,,,,,,,,,,,,,,,,,,,,,,,,,,,,,sub-060,1.0,random_dot,60.022172193285066,
left,left,accuracy,,,,,0.0,1.0,1.0,0.0,6.0,1.0,13.0,0.0,332.1881902000023,,,,,,,,,332.1772331999964,332.5381622999994,333.33824730000924,333.32270669999707,333.32278220000444,333.33824730000924,333.33824730000924,333.33824730000924,,334.57206760000554,left,1.0,19.373442199997957,,,,,,,,,,,,,,,,,,,,,,,,,,,,,,sub-060,1.0,random_dot,60.022172193285066,
left,left,accuracy,,,,,0.0,1.0,1.0,0.0,7.0,0.0,14.0,0.0,334.5859125999996,,,,,,,,,334.57406900000933,335.78483669999696,336.5845641000051,336.5691235999984,336.5691760000045,336.5845641000051,336.5845641000051,336.5845641000051,341.5798155000084,342.28155280000647,right,0.0,23.843446400001994,,,,,,,,,,,,,,,,,,,,,,,,,,,,,,sub-060,1.0,random_dot,60.022172193285066,
right,right,accuracy,,,,,0.0,1.0,1.0,0.0,7.0,1.0,15.0,1.0,342.2954383000033,,,,,,,,,342.28369029999885,342.3955840999988,343.1952564000094,343.17980810000154,343.179867800005,343.1952564000094,343.1952564000094,343.1952564000094,,345.59542290000536,right,1.0,20.539884099984192,,,,,,,,,,,,,,,,,,,,,,,,,,,,,,sub-060,1.0,random_dot,60.022172193285066,
right,right,accuracy,,,,,0.0,1.0,1.0,0.0,8.0,0.0,16.0,1.0,345.6092881000077,,,,,,,,,345.59806060000847,346.40851019999536,347.2084448000096,347.19297129999904,347.1930393000075,347.2084448000096,347.2084448000096,347.2084448000096,,348.60938850000093,right,1.0,19.546898299988243,,,,,,,,,,,,,,,,,,,,,,,,,,,,,,sub-060,1.0,random_dot,60.022172193285066,
left,left,accuracy,,,,,0.0,1.0,1.0,0.0,8.0,1.0,17.0,0.0,348.62309419999656,,,,,,,,,348.61197680000623,348.972525899997,349.7725754999992,349.7566480999958,349.7567010000057,349.7725754999992,349.7725754999992,349.7725754999992,,350.9573723000067,left,1.0,19.325662199989893,,,,,,,,,,,,,,,,,,,,,,,,,,,,,,sub-060,1.0,random_dot,60.022172193285066,
right,right,accuracy,,,,,0.0,1.0,1.0,0.0,9.0,0.0,18.0,1.0,350.9707400000043,,,,,,,,,350.9601438999962,351.0704919999989,351.8702670000057,351.8546015000029,351.8546548000013,351.8702670000057,351.8702670000057,351.8702670000057,,353.1219669999992,right,1.0,19.402780100004748,,,,,,,,,,,,,,,,,,,,,,,,,,,,,,sub-060,1.0,random_dot,60.022172193285066,
left,left,accuracy,,,,,0.0,1.0,1.0,0.0,9.0,1.0,19.0,0.0,353.13548009999795,,,,,,,,,353.1246264000074,353.2352338000055,354.0351047000004,354.01967680000234,354.01972920000844,354.0351047000004,354.0351047000004,354.0351047000004,,354.954112499996,right,0.0,19.069212099988363,,,,,,,,,,,,,,,,,,,,,,,,,,,,,,sub-060,1.0,random_dot,60.022172193285066,
right,right,accuracy,,,,,0.0,1.0,1.0,0.0,10.0,0.0,20.0,1.0,354.9670874000003,,,,,,,,,354.95691920000536,355.3166723000031,356.11653139999544,356.1006759000011,356.1007291999995,356.11653139999544,356.11653139999544,356.11653139999544,,356.9517472000007,right,1.0,18.98423199998797,,,,,,,,,,,,,,,,,,,,,,,,,,,,,,sub-060,1.0,random_dot,60.022172193285066,
left,left,accuracy,,,,,0.0,1.0,1.0,0.0,10.0,1.0,21.0,0.0,356.965311100008,,,,,,,,,356.95455320000474,357.0651229000068,357.86479049999616,357.84904060000554,357.84909360000165,357.86479049999616,357.86479049999616,357.86479049999616,,359.19950699999754,left,1.0,19.47652620000008,,,,,,,,,,,,,,,,,,,,,,,,,,,,,,sub-060,1.0,random_dot,60.022172193285066,
right,right,accuracy,,,,,0.0,1.0,1.0,0.0,11.0,0.0,22.0,1.0,359.21318570000585,,,,,,,,,359.20226099999854,360.01220670000475,360.8123752999964,360.7968445000006,360.7969157000043,360.8123752999964,360.8123752999964,360.8123752999964,,361.71313600000576,right,1.0,19.041242799983596,,,,,,,,,,,,,,,,,,,,,,,,,,,,,,sub-060,1.0,random_dot,60.022172193285066,
left,left,accuracy,,,,,0.0,1.0,1.0,0.0,11.0,1.0,23.0,0.0,361.7271974000032,,,,,,,,,361.7153510000062,362.527004100004,363.3264914000029,363.31094440000015,363.3110041000036,363.3264914000029,363.3264914000029,363.3264914000029,,364.6938414000033,left,1.0,19.511898599987035,,,,,,,,,,,,,,,,,,,,,,,,,,,,,,sub-060,1.0,random_dot,60.022172193285066,
left,left,accuracy,,,,,0.0,1.0,1.0,0.0,12.0,0.0,24.0,0.0,364.70767859999614,,,,,,,,,364.6959805000079,365.05763890000526,365.8575515999983,365.8424362000078,365.84250660000544,365.8575515999983,365.8575515999983,365.8575515999983,,366.9430948000081,left,1.0,19.221452700003283,,,,,,,,,,,,,,,,,,,,,,,,,,,,,,sub-060,1.0,random_dot,60.022172193285066,
right,right,accuracy,,,,,0.0,1.0,1.0,0.0,12.0,1.0,25.0,1.0,366.9559977000026,,,,,,,,,366.946789900001,367.7553688000044,368.554962299997,368.5397766999959,368.5398492999957,368.554962299997,368.554962299997,368.554962299997,,369.4397406000062,right,1.0,19.02873619999445,,,,,,,,,,,,,,,,,,,,,,,,,,,,,,sub-060,1.0,random_dot,60.022172193285066,
right,right,accuracy,,,,,0.0,1.0,1.0,0.0,13.0,0.0,26.0,1.0,369.4536270000099,,,,,,,,,369.4419101000094,370.6524477000057,371.4523038000043,371.4364118000085,371.4364726000058,371.4523038000043,371.4523038000043,371.4523038000043,,374.55092599999625,left,0.0,21.24771409999812,,,,,,,,,,,,,,,,,,,,,,,,,,,,,,sub-060,1.0,random_dot,60.022172193285066,
left,left,accuracy,,,,,0.0,1.0,1.0,0.0,13.0,1.0,27.0,0.0,374.5654413000011,,,,,,,,,374.5527522000048,375.3647656999965,376.1647131000064,376.1492510000098,376.14932340000814,376.1647131000064,376.1647131000064,376.1647131000064,,376.9658200999984,left,1.0,18.949318600003608,,,,,,,,,,,,,,,,,,,,,,,,,,,,,,sub-060,1.0,random_dot,60.022172193285066,
left,left,accuracy,,,,,0.0,1.0,1.0,0.0,14.0,0.0,28.0,0.0,376.97929499999736,,,,,,,,,376.9679146999988,377.32905450000544,378.1292441999976,378.1135951000033,378.1136473000079,378.1292441999976,378.1292441999976,378.1292441999976,,378.348367300001,left,1.0,18.368990799994208,,,,,,,,,,,,,,,,,,,,,,,,,,,,,,sub-060,1.0,random_dot,60.022172193285066,
right,right,accuracy,,,,,0.0,1.0,1.0,0.0,14.0,1.0,29.0,1.0,378.3618171999988,,,,,,,,,378.3509982999967,378.7116740000056,379.5113693000021,379.4961807000072,379.4962524000002,379.5113693000021,379.5113693000021,379.5113693000021,,379.6797615999967,right,1.0,18.31553609999537,,,,,,,,,,,,,,,,,,,,,,,,,,,,,,sub-060,1.0,random_dot,60.022172193285066,
right,right,accuracy,,,,,0.0,1.0,1.0,0.0,15.0,0.0,30.0,1.0,379.69372330000624,,,,,,,,,379.6819596999994,380.4931207000045,381.29318449999846,381.2776459000015,381.27770659999806,381.29318449999846,381.29318449999846,381.29318449999846,,381.3795111000072,left,0.0,18.23577290000685,,,,,,,,,,,,,,,,,,,,,,,,,,,,,,sub-060,1.0,random_dot,60.022172193285066,
left,left,accuracy,,,,,0.0,1.0,1.0,0.0,15.0,1.0,31.0,0.0,381.3925674000057,,,,,,,,,381.38243540000985,381.7420928000065,382.5422151000093,382.5266282000084,382.5267058000027,382.5422151000093,382.5422151000093,382.5422151000093,,383.426500600006,left,1.0,19.02639869999257,,,,,,,,,,,,,,,,,,,,,,,,,,,,,,sub-060,1.0,random_dot,60.022172193285066,
right,right,accuracy,,,,,0.0,1.0,1.0,0.0,16.0,0.0,32.0,1.0,383.4402857000096,,,,,,,,,383.429143100002,383.7899988999998,384.58993840000767,384.57479830000375,384.5748927999957,384.58993840000767,384.58993840000767,384.58993840000767,,385.8092187000002,left,0.0,19.367302499988,,,,,,,,,,,,,,,,,,,,,,,,,,,,,,sub-060,1.0,random_dot,60.022172193285066,
left,left,accuracy,,,,,0.0,1.0,1.0,0.0,16.0,1.0,33.0,0.0,385.82169540000905,,,,,,,,,385.81269829999655,385.9217638999981,386.721326400002,386.7055884000001,386.7056428000069,386.721326400002,386.721326400002,386.721326400002,,389.3548231000023,left,1.0,20.77180950000184,,,,,,,,,,,,,,,,,,,,,,,,,,,,,,sub-060,1.0,random_dot,60.022172193285066,
right,right,accuracy,,,,,0.0,1.0,1.0,0.0,17.0,0.0,34.0,1.0,389.3682673000003,,,,,,,,,389.35758730000816,389.4680634999968,390.267878300001,390.25227409999934,390.25232709999545,390.267878300001,390.267878300001,390.267878300001,,391.0202785000001,right,1.0,18.893049199992674,,,,,,,,,,,,,,,,,,,,,,,,,,,,,,sub-060,1.0,random_dot,60.022172193285066,
left,left,accuracy,,,,,0.0,1.0,1.0,0.0,17.0,1.0,35.0,0.0,391.0335091000016,,,,,,,,,391.0229648999957,391.1331944999984,391.9330018000037,391.9174750000093,391.9175433000055,391.9330018000037,391.9330018000037,391.9330018000037,,392.66767860000255,left,1.0,18.8866141000035,,,,,,,,,,,,,,,,,,,,,,,,,,,,,,sub-060,1.0,random_dot,60.022172193285066,
right,right,accuracy,,,,,0.0,1.0,1.0,0.0,18.0,0.0,36.0,1.0,392.6814925000072,,,,,,,,,392.6695266000024,393.8811008000048,394.6970195000031,394.6810910000058,394.6811347000039,394.6970195000031,394.6970195000031,394.6970195000031,,395.38263000000734,left,0.0,18.82167129998561,,,,,,,,,,,,,,,,,,,,,,,,,,,,,,sub-060,1.0,random_dot,60.022172193285066,
left,left,accuracy,,,,,0.0,1.0,1.0,0.0,18.0,1.0,37.0,0.0,395.3961091000092,,,,,,,,,395.38566400000127,396.59496400000353,397.41088090000267,397.3945017000078,397.3945334000018,397.41088090000267,397.41088090000267,397.41088090000267,,398.9794381999964,right,0.0,19.709678499988517,,,,,,,,,,,,,,,,,,,,,,,,,,,,,,sub-060,1.0,random_dot,60.022172193285066,
left,left,accuracy,,,,,0.0,1.0,1.0,0.0,19.0,0.0,38.0,0.0,398.9927935000014,,,,,,,,,398.9824418000062,399.7921203000005,400.5915168000065,400.576144000006,400.5762051000056,400.5915168000065,400.5915168000065,400.5915168000065,,402.7091417000047,right,0.0,20.255225499990047,,,,,,,,,,,,,,,,,,,,,,,,,,,,,,sub-060,1.0,random_dot,60.022172193285066,
right,right,accuracy,,,,,0.0,1.0,1.0,0.0,19.0,1.0,39.0,1.0,402.7227082000026,,,,,,,,,402.71206930000335,403.5219413000013,404.32173599999805,404.3063913000078,404.3064838999999,404.32173599999805,404.32173599999805,404.32173599999805,409.3167090000061,409.9852472000057,right,1.0,23.813320799992653,,,,,,,,,,,,,,,,,,,,,,,,,,,,,,sub-060,1.0,random_dot,60.022172193285066,
left,left,accuracy,,,,,0.0,1.0,1.0,0.0,20.0,0.0,40.0,0.0,409.9989911000012,,,,,,,,,409.98786789999576,410.3487861000031,411.1483331000054,411.1328923999972,411.1329449000041,411.1483331000054,411.1483331000054,411.1483331000054,,412.2829177000094,right,0.0,19.284404999998515,,,,,,,,,,,,,,,,,,,,,,,,,,,,,,sub-060,1.0,random_dot,60.022172193285066,
right,right,accuracy,,,,,0.0,1.0,1.0,0.0,20.0,1.0,41.0,1.0,412.2967081000097,,,,,,,,,412.2857090000034,412.6463324000069,413.4463864999998,413.43049549999705,413.43054879999545,413.4463864999998,413.4463864999998,413.4463864999998,,414.26460300000326,left,0.0,18.96304649999365,,,,,,,,,,,,,,,,,,,,,,,,,,,,,,sub-060,1.0,random_dot,60.022172193285066,
left,left,accuracy,,,,,0.0,1.0,1.0,0.0,21.0,0.0,42.0,0.0,414.2784681000048,,,,,,,,,414.2673433000018,415.4770347000013,416.2769012000063,416.2612967000023,416.26134920000914,416.2769012000063,416.2769012000063,416.2769012000063,,417.1450779000006,right,0.0,19.0040175000031,,,,,,,,,,,,,,,,,,,,,,,,,,,,,,sub-060,1.0,random_dot,60.022172193285066,
right,right,accuracy,,,,,0.0,1.0,1.0,0.0,21.0,1.0,43.0,1.0,417.1587796999957,,,,,,,,,417.1478646000032,417.2589424000034,418.05852700000105,418.04294440000376,418.04299689999607,418.05852700000105,418.05852700000105,418.05852700000105,,418.8769250000041,right,1.0,18.966855899998336,,,,,,,,,,,,,,,,,,,,,,,,,,,,,,sub-060,1.0,random_dot,60.022172193285066,
right,right,accuracy,,,,,0.0,1.0,1.0,0.0,22.0,0.0,44.0,1.0,418.89070220000576,,,,,,,,,418.8796010000078,420.0896098000085,420.8893506000022,420.8733692000096,420.8734218000027,420.8893506000022,420.8893506000022,420.8893506000022,,421.7411217000045,right,1.0,18.99162199998682,,,,,,,,,,,,,,,,,,,,,,,,,,,,,,sub-060,1.0,random_dot,60.022172193285066,
left,left,accuracy,,,,,0.0,1.0,1.0,0.0,22.0,1.0,45.0,0.0,421.7544946999988,,,,,,,,,421.7438495000097,421.8546706000052,422.6543354000023,422.6386883000087,422.6387404999987,422.6543354000023,422.6543354000023,422.6543354000023,,423.27239969999937,right,0.0,18.76624090000405,,,,,,,,,,,,,,,,,,,,,,,,,,,,,,sub-060,1.0,random_dot,60.022172193285066,
left,left,accuracy,,,,,0.0,1.0,1.0,0.0,23.0,0.0,46.0,0.0,423.286546000003,,,,,,,,,423.2745547000086,424.4855583000026,425.3019345000066,425.2862155000039,425.286273699996,425.3019345000066,425.3019345000066,425.3019345000066,,425.61998669999593,left,1.0,18.458246700000014,,,,,,,,,,,,,,,,,,,,,,,,,,,,,,sub-060,1.0,random_dot,60.022172193285066,
right,right,accuracy,,,,,0.0,1.0,1.0,0.0,23.0,1.0,47.0,1.0,425.63407250000455,,,,,,,,,425.621933500006,425.9839195999957,426.7839001999964,426.768313499997,426.76842210000905,426.7839001999964,426.7839001999964,426.7839001999964,,427.036594899997,left,0.0,18.402160399986315,,,,,,,,,,,,,,,,,,,,,,,,,,,,,,sub-060,1.0,random_dot,60.022172193285066,
right,right,accuracy,,,,,0.0,1.0,1.0,0.0,24.0,0.0,48.0,1.0,427.04997010000807,,,,,,,,,427.03915140000754,428.248642999999,429.04835589999857,429.0333832000033,429.03345309999713,429.04835589999857,429.04835589999857,429.04835589999857,,429.28489330000593,left,0.0,18.371947499996168,,,,,,,,,,,,,,,,,,,,,,,,,,,,,,sub-060,1.0,random_dot,60.022172193285066,
left,left,accuracy,,,,,0.0,1.0,1.0,0.0,24.0,1.0,49.0,0.0,429.2975116000016,,,,,,,,,429.2885491000052,430.49683250000817,431.2966102000064,431.2810372000095,431.2811070000025,431.2966102000064,431.2966102000064,431.2966102000064,,431.5977237000043,left,1.0,18.44032029999653,,,,,,,,,,,,,,,,,,,,,,,,,,,,,,sub-060,1.0,random_dot,60.022172193285066,
right,right,accuracy,,,,,0.0,1.0,1.0,0.0,25.0,0.0,50.0,1.0,431.6119922000071,,,,,,,,,431.5999062000046,431.9616384999972,432.76167619999615,432.7461607000005,432.74626260000514,432.76167619999615,432.76167619999615,432.76167619999615,,433.0973696000001,right,1.0,18.48669769999105,,,,,,,,,,,,,,,,,,,,,,,,,,,,,,sub-060,1.0,random_dot,60.022172193285066,
left,left,accuracy,,,,,0.0,1.0,1.0,0.0,25.0,1.0,51.0,0.0,433.1104970000015,,,,,,,,,433.1000550000026,433.2106707000057,434.010452100003,433.9948227999994,433.994875400007,434.010452100003,434.010452100003,434.010452100003,,434.3792479999975,left,1.0,18.50696909999533,,,,,,,,,,,,,,,,,,,,,,,,,,,,,,sub-060,1.0,random_dot,60.022172193285066,
left,left,accuracy,,,,,0.0,1.0,1.0,0.0,26.0,0.0,52.0,0.0,434.3929566000006,,,,,,,,,434.38188549999904,434.74239189999935,435.5422729999991,435.5262120999978,435.5262649000069,435.5422729999991,435.5422729999991,435.5422729999991,,435.72768820000056,right,0.0,18.325228799993056,,,,,,,,,,,,,,,,,,,,,,,,,,,,,,sub-060,1.0,random_dot,60.022172193285066,
right,right,accuracy,,,,,0.0,1.0,1.0,0.0,26.0,1.0,53.0,1.0,435.7414239000064,,,,,,,,,435.7304248,436.9402377000079,437.7400688000053,437.7247006999969,437.7247541999968,437.7400688000053,437.7400688000053,437.7400688000053,,438.3587733000022,left,0.0,18.75516309999512,,,,,,,,,,,,,,,,,,,,,,,,,,,,,,sub-060,1.0,random_dot,60.022172193285066,
right,right,accuracy,,,,,0.0,1.0,1.0,0.0,27.0,0.0,54.0,1.0,438.3725836000085,,,,,,,,,438.3614061999979,438.7220374000026,439.5215612000029,439.50586309999926,439.5059158000077,439.5215612000029,439.5215612000029,439.5215612000029,,439.9075580000063,right,1.0,18.527038799991715,,,,,,,,,,,,,,,,,,,,,,,,,,,,,,sub-060,1.0,random_dot,60.022172193285066,
left,left,accuracy,,,,,0.0,1.0,1.0,0.0,27.0,1.0,55.0,0.0,439.9210148999992,,,,,,,,,439.9102705999976,441.1199324000045,441.91987670000526,441.9043598999997,441.9044281999959,441.91987670000526,441.91987670000526,441.91987670000526,,442.2385299000016,right,0.0,18.458422900002915,,,,,,,,,,,,,,,,,,,,,,,,,,,,,,sub-060,1.0,random_dot,60.022172193285066,
right,right,accuracy,,,,,0.0,1.0,1.0,0.0,28.0,0.0,56.0,1.0,442.2522752000077,,,,,,,,,442.241286000004,443.0512992000004,443.85129810000944,443.8359841000056,443.8360765999969,443.85129810000944,443.85129810000944,443.85129810000944,,444.6855341000046,left,0.0,18.9848287999921,,,,,,,,,,,,,,,,,,,,,,,,,,,,,,sub-060,1.0,random_dot,60.022172193285066,
left,left,accuracy,,,,,0.0,1.0,1.0,0.0,28.0,1.0,57.0,0.0,444.6996768999961,,,,,,,,,444.6874966000032,445.8988654999994,446.6982266999985,446.683160200002,446.6832747000008,446.6982266999985,446.6982266999985,446.6982266999985,,447.0829606000043,right,0.0,18.531010299993795,,,,,,,,,,,,,,,,,,,,,,,,,,,,,,sub-060,1.0,random_dot,60.022172193285066,
right,right,accuracy,,,,,0.0,1.0,1.0,0.0,29.0,0.0,58.0,1.0,447.0972552000021,,,,,,,,,447.0845214000001,448.2966982000071,449.096555600001,449.0810447999975,449.0811384999979,449.096555600001,449.096555600001,449.096555600001,,449.7820269000076,right,1.0,18.83402749999368,,,,,,,,,,,,,,,,,,,,,,,,,,,,,,sub-060,1.0,random_dot,60.022172193285066,
left,left,accuracy,,,,,0.0,1.0,1.0,0.0,29.0,1.0,59.0,0.0,449.7953322999965,,,,,,,,,449.7850201999972,449.8951150000066,450.6951523000025,450.6795637000032,450.67963569999847,450.6951523000025,450.6951523000025,450.6951523000025,,451.0131127000059,right,0.0,18.46675039999536,,,,,,,,,,,,,,,,,,,,,,,,,,,,,,sub-060,1.0,random_dot,60.022172193285066,
,,accuracy,,,,,0.0,1.0,1.0,0.0,,,,,,,,,,,,,,,,,,,,,,,,,,,,,,,,,,,,,,,,,,,,,,,,,,,,,,,,sub-060,1.0,random_dot,60.022172193285066,
,,,,,,,,,,,,,,,,,,,,,,,,,,,,,,,,,,,,,,,,,,,,,,,,,,,,,,,,,,,,,,,451.0146999999997,451.0273976000026,456.0229330000002,sub-060,,,,
