direction,corrAns,randomInstr,practice_trials.thisRepN,practice_trials.thisTrialN,practice_trials.thisN,practice_trials.thisIndex,instr_trials.thisRepN,instr_trials.thisTrialN,instr_trials.thisN,instr_trials.thisIndex,test_trials.thisRepN,test_trials.thisTrialN,test_trials.thisN,test_trials.thisIndex,thisRow.t,notes,general_instruction.started,textGeneralInstr.started,respGeneralInstr.started,general_instruction.stopped,respGeneralInstr.keys,respGeneralInstr.rt,respGeneralInstr.duration,ITI.started,fixcross.started,fixcross.stopped,ITI.stopped,dots.started,backgroundDots.started,stimulusDots.started,respDots.started,stimulusDots.stopped,dots.stopped,respDots.keys,respDots.corr,respDots.rt,respDots.duration,feedback.started,textFeedback.started,feedback.stopped,textFeedback.stopped,info.started,textInfo.started,keyRespInfo.started,info.stopped,keyRespInfo.keys,keyRespInfo.rt,keyRespInfo.duration,test_instruction.started,textTestInstr.started,respTestInstr.started,test_instruction.stopped,respTestInstr.keys,respTestInstr.rt,respTestInstr.duration,random_instruction.started,textRandomInstr.started,respRandomInstr.started,random_instruction.stopped,respRandomInstr.keys,respRandomInstr.rt,respRandomInstr.duration,goodbye.started,textGoodbye.started,textGoodbye.stopped,goodbye.stopped,participant,session,expName,frameRate,Unnamed: 74
,,,,,,,,,,,,,,,,,0.0274212000003899,0.0353818000003229,0.0353818000003229,15.718962900000406,space,40.74230329999955,,,,,,,,,,,,,,,,,,,,,,,,,,,,,,,,,,,,,,,,,,,,,sub-139,1.0,random_dot,119.5887581789828,
right,right,,0.0,0.0,0.0,1.0,,,,,,,,,15.766727600000197,,,,,,,,,15.76162960000056,16.07197830000041,17.12571200000002,16.871415999999954,16.87144520000038,17.12571200000002,17.12571200000002,17.12571200000002,21.871988100000635,23.44757490000029,left,0.0,31.38549869999952,,23.44832230000065,23.45832420000079,23.950296200000597,,,,,,,,,,,,,,,,,,,,,,,,,,,sub-139,1.0,random_dot,119.5887581789828,
left,left,,0.0,1.0,1.0,0.0,,,,,,,,,23.95895330000076,,,,,,,,,23.950706399999945,24.30013720000079,25.10033610000028,25.092327000000296,25.09234800000013,25.10033610000028,25.10033610000028,25.10033610000028,30.091979200000424,30.43430489999992,left,1.0,30.3957233000001,,30.434789800000544,30.4428183,30.93512650000048,,,,,,,,,,,,,,,,,,,,,,,,,,,sub-139,1.0,random_dot,119.5887581789828,
right,right,,1.0,0.0,2.0,1.0,,,,,,,,,30.943521900000636,,,,,,,,,30.935545500000444,31.284683300000324,32.08491440000034,32.07706409999992,32.07708470000034,32.08491440000034,32.08491440000034,32.08491440000034,,35.52707080000073,right,1.0,28.50143759999992,,35.52754200000072,35.53396420000081,36.02636390000043,36.034085199999936,,,,,,,,,,,,,,,,,,,,,,,,,,sub-139,1.0,random_dot,119.5887581789828,
left,left,,1.0,1.0,3.0,0.0,,,,,,,,,36.034085199999936,,,,,,,,,36.02692770000067,36.384107400000175,37.18397230000028,37.17605400000048,37.17607110000063,37.18397230000028,37.18397230000028,37.18397230000028,,39.63558379999995,left,1.0,27.50969170000008,,39.63615900000059,39.64210370000001,40.13456910000059,40.14257570000064,,,,,,,,,,,,,,,,,,,,,,,,,,sub-139,1.0,random_dot,119.5887581789828,
left,left,,2.0,0.0,4.0,0.0,,,,,,,,,40.14257570000064,,,,,,,,,40.1349338,40.94269729999996,41.74209240000073,41.73495700000058,41.73497650000081,41.74209240000073,41.74209240000073,41.74209240000073,,45.143594200000734,left,1.0,28.46133889999965,,45.14443030000075,45.1503986000007,45.64299480000045,45.6513472000006,,,,,,,,,,,,,,,,,,,,,,,,,,sub-139,1.0,random_dot,119.5887581789828,
right,right,,2.0,1.0,5.0,1.0,,,,,,,,,45.6513472000006,,,,,,,,,45.64346730000034,46.45187100000021,47.25904859999992,47.25147470000047,47.251497300000665,47.25904859999992,47.25904859999992,47.25904859999992,,51.19393620000028,right,1.0,28.99436250000053,,51.19441240000015,51.20061480000004,51.69326840000031,51.70108770000024,,,,,,,,,,,,,,,,,,,,,,,,,,sub-139,1.0,random_dot,119.5887581789828,
right,right,,3.0,0.0,6.0,1.0,,,,,,,,,51.70108770000024,,,,,,,,,51.69364530000075,51.80078330000015,52.600627600000735,52.59321490000002,52.59323270000005,52.600627600000735,52.600627600000735,52.600627600000735,,54.54393610000079,left,0.0,27.002312900000103,,54.54439170000023,54.551456600000165,55.0439221000006,55.05180910000036,,,,,,,,,,,,,,,,,,,,,,,,,,sub-139,1.0,random_dot,119.5887581789828,
left,left,,3.0,1.0,7.0,0.0,,,,,,,,,55.05180910000036,,,,,,,,,55.04429150000033,56.25152150000031,57.05107230000067,57.04457720000028,57.04459760000009,57.05107230000067,57.05107230000067,57.05107230000067,,58.9859890000007,left,1.0,26.992866700000377,,58.98649870000008,58.992561700000806,59.48541190000015,59.49305480000021,,,,,,,,,,,,,,,,,,,,,,,,,,sub-139,1.0,random_dot,119.5887581789828,
right,right,,4.0,0.0,8.0,1.0,,,,,,,,,59.49305480000021,,,,,,,,,59.48578220000036,59.84299050000027,60.64286220000031,60.635597400000734,60.635617200000524,60.64286220000031,60.64286220000031,60.64286220000031,,62.54375130000062,right,1.0,26.96267379999972,,62.54421970000021,62.55118080000011,63.04362420000052,63.05123559999993,,,,,,,,,,,,,,,,,,,,,,,,,,sub-139,1.0,random_dot,119.5887581789828,
left,left,,4.0,1.0,9.0,0.0,,,,,,,,,63.05123559999993,,,,,,,,,63.0439937000001,63.851231100000405,64.65111849999994,64.64362440000059,64.64364360000036,64.65111849999994,64.65111849999994,64.65111849999994,,66.9027485000006,right,0.0,27.308888300000035,,66.90323200000057,66.90951650000079,67.40207400000054,67.40946840000015,,,,,,,,,,,,,,,,,,,,,,,,,,sub-139,1.0,random_dot,119.5887581789828,
right,right,,5.0,0.0,10.0,1.0,,,,,,,,,67.40946840000015,,,,,,,,,67.40248300000076,67.50970469999993,68.30944850000014,68.30151070000011,68.30153070000051,68.30944850000014,68.30944850000014,68.30944850000014,,70.2187885000003,right,1.0,26.972572800000307,,70.21926330000042,70.22646270000041,70.7188543000002,70.7264739000002,,,,,,,,,,,,,,,,,,,,,,,,,,sub-139,1.0,random_dot,119.5887581789828,
left,left,,5.0,1.0,11.0,0.0,,,,,,,,,70.7264739000002,,,,,,,,,70.71933549999994,71.9181939,72.71840960000009,72.71061850000024,72.71063740000045,72.71840960000009,72.71840960000009,72.71840960000009,,75.0365782000008,left,1.0,27.382121200000256,,75.03709750000053,75.04368650000015,75.53571600000032,75.54341540000041,,,,,,,,,,,,,,,,,,,,,,,,,,sub-139,1.0,random_dot,119.5887581789828,
left,left,,6.0,0.0,12.0,0.0,,,,,,,,,75.54341540000041,,,,,,,,,75.53611040000033,76.34338690000004,77.14315020000049,77.13542640000014,77.13544480000019,77.14315020000049,77.14315020000049,77.14315020000049,,79.02772540000024,left,1.0,26.945900400000028,,79.0282143000004,79.03568760000053,79.52713900000072,79.53489919999993,,,,,,,,,,,,,,,,,,,,,,,,,,sub-139,1.0,random_dot,119.5887581789828,
right,right,,6.0,1.0,13.0,1.0,,,,,,,,,79.53489919999993,,,,,,,,,79.52751010000065,80.33515950000037,81.13496900000064,81.12725030000001,81.12726930000008,81.13496900000064,81.13496900000064,81.13496900000064,,83.05270180000025,left,0.0,26.9801195,,83.0531976000002,83.05972230000043,83.55198800000016,83.55999760000032,,,,,,,,,,,,,,,,,,,,,,,,,,sub-139,1.0,random_dot,119.5887581789828,
left,left,,7.0,0.0,14.0,0.0,,,,,,,,,83.55999760000032,,,,,,,,,83.55236940000032,83.66015050000078,84.46008359999996,84.45207990000017,84.45209830000022,84.46008359999996,84.46008359999996,84.46008359999996,,86.61100290000013,left,1.0,27.21478509999997,,86.61146820000067,86.6179873000001,87.11076540000067,87.11836410000069,,,,,,,,,,,,,,,,,,,,,,,,,,sub-139,1.0,random_dot,119.5887581789828,
right,right,,7.0,1.0,15.0,1.0,,,,,,,,,87.11836410000069,,,,,,,,,87.11119880000024,87.21858330000032,88.01813810000021,88.01099169999998,88.01101450000078,88.01813810000021,88.01813810000021,88.01813810000021,,89.76164190000054,left,0.0,26.80749990000004,,89.7621192000006,89.76802709999993,90.26194960000066,90.26825690000078,,,,,,,,,,,,,,,,,,,,,,,,,,sub-139,1.0,random_dot,119.5887581789828,
left,left,,8.0,0.0,16.0,0.0,,,,,,,,,90.26825690000078,,,,,,,,,90.26254810000046,91.06846600000064,91.86826460000066,91.86024290000024,91.86026089999996,91.86826460000066,91.86826460000066,91.86826460000066,,96.76100410000072,left,1.0,29.95398710000063,,96.7614990000002,96.7687130000004,97.26112710000052,97.26868680000008,,,,,,,,,,,,,,,,,,,,,,,,,,sub-139,1.0,random_dot,119.5887581789828,
right,right,,8.0,1.0,17.0,1.0,,,,,,,,,97.26868680000008,,,,,,,,,97.26169329999992,97.61857360000069,98.41846720000012,98.41065570000046,98.41067449999991,98.41846720000012,98.41846720000012,98.41846720000012,,99.9444185000002,right,1.0,26.58406509999986,,99.94487190000018,99.9528033000006,100.44459900000038,100.4523263000001,,,,,,,,,,,,,,,,,,,,,,,,,,sub-139,1.0,random_dot,119.5887581789828,
right,right,,9.0,0.0,18.0,1.0,,,,,,,,,100.4523263000001,,,,,,,,,100.44497630000023,101.2519258000002,102.05183450000004,102.0445623000005,102.04459040000074,102.05183450000004,102.05183450000004,102.05183450000004,,104.30341040000076,left,0.0,27.315243300000475,,104.30419650000022,104.31227380000018,104.80426690000058,104.81214950000049,,,,,,,,,,,,,,,,,,,,,,,,,,sub-139,1.0,random_dot,119.5887581789828,
left,left,,9.0,1.0,19.0,0.0,,,,,,,,,104.81214950000049,,,,,,,,,104.80468800000016,105.15410539999992,105.9539237000008,105.94629770000029,105.94631819999996,105.9539237000008,105.9539237000008,105.9539237000008,,107.73043320000032,left,1.0,26.839967799999613,,107.73091310000018,107.7374948000006,108.23012620000009,108.23748670000076,,,,,,,,,,,,,,,,,,,,,,,,,,sub-139,1.0,random_dot,119.5887581789828,
,,,,,,,,,,,,,,,,,,,,,,,,,,,,,,,,,,,,,,,,,,108.23019250000016,108.23748670000076,108.23748670000076,109.9635360000002,space,26.789989799999603,,,,,,,,,,,,,,,,,,,,sub-139,1.0,random_dot,119.5887581789828,
,,,,,,,,,,,,,,,,,,,,,,,,,,,,,,,,,,,,,,,,,,,,,,,,,109.96357230000012,109.97075670000048,109.97075670000048,113.82186380000076,space,28.909227199999805,,,,,,,,,,,,,sub-139,1.0,random_dot,119.5887581789828,
right,right,speed,,,,,0.0,0.0,0.0,1.0,0.0,0.0,0.0,1.0,116.70560840000051,,,,,,,,,116.70228530000075,117.89761309999994,118.69727600000078,118.69037780000052,118.69039840000003,118.69727600000078,118.69727600000078,118.69727600000078,,119.57344490000014,left,0.0,25.93626039999981,,,,,,,,,,,,,,,,,,,,113.84146690000034,113.86639910000032,113.86639910000032,116.69536990000051,space,27.89305010000044,,,,,,sub-139,1.0,random_dot,119.5887581789828,
left,left,speed,,,,,0.0,0.0,0.0,1.0,0.0,1.0,1.0,0.0,119.58093910000024,,,,,,,,,119.57462130000022,120.38123950000043,121.1809400000002,121.17307320000054,121.17310980000002,121.1809400000002,121.1809400000002,121.1809400000002,,122.64885219999996,left,1.0,26.52862469999945,,,,,,,,,,,,,,,,,,,,,,,,,,,,,,,sub-139,1.0,random_dot,119.5887581789828,
right,right,speed,,,,,0.0,0.0,0.0,1.0,1.0,0.0,2.0,1.0,122.65538600000036,,,,,,,,,122.6504158000007,122.7560168,123.55589570000028,123.5480503000008,123.54807830000028,123.55589570000028,123.55589570000028,123.55589570000028,,125.1232753000004,left,0.0,26.62510629999997,,,,,,,,,,,,,,,,,,,,,,,,,,,,,,,sub-139,1.0,random_dot,119.5887581789828,
left,left,speed,,,,,0.0,0.0,0.0,1.0,1.0,1.0,3.0,0.0,125.13104270000076,,,,,,,,,125.12416260000008,125.9310875000001,126.7309277000004,126.72333270000036,126.72336620000078,126.7309277000004,126.7309277000004,126.7309277000004,,128.5486892000008,left,1.0,26.877548300000853,,,,,,,,,,,,,,,,,,,,,,,,,,,,,,,sub-139,1.0,random_dot,119.5887581789828,
left,left,speed,,,,,0.0,0.0,0.0,1.0,2.0,0.0,4.0,0.0,128.5553705000002,,,,,,,,,128.55034550000073,129.75586490000023,130.5557942000005,130.54843750000057,130.5484703000002,130.5557942000005,130.5557942000005,130.5557942000005,,132.7900841999999,right,0.0,27.2923351999998,,,,,,,,,,,,,,,,,,,,,,,,,,,,,,,sub-139,1.0,random_dot,119.5887581789828,
right,right,speed,,,,,0.0,0.0,0.0,1.0,2.0,1.0,5.0,1.0,132.79758430000038,,,,,,,,,132.79096570000002,132.89757830000053,133.69739610000033,133.69070570000076,133.69072570000026,133.69739610000033,133.69739610000033,133.69739610000033,,135.54003360000024,left,0.0,26.905669199999465,,,,,,,,,,,,,,,,,,,,,,,,,,,,,,,sub-139,1.0,random_dot,119.5887581789828,
right,right,speed,,,,,0.0,0.0,0.0,1.0,3.0,0.0,6.0,1.0,135.54740280000078,,,,,,,,,135.54118590000053,136.34823400000005,137.14754190000076,137.13989350000065,137.13991330000044,137.14754190000076,137.14754190000076,137.14754190000076,,139.9235251,right,1.0,27.833912899999632,,,,,,,,,,,,,,,,,,,,,,,,,,,,,,,sub-139,1.0,random_dot,119.5887581789828,
left,left,speed,,,,,0.0,0.0,0.0,1.0,3.0,1.0,7.0,0.0,139.93071170000076,,,,,,,,,139.92525240000032,141.1310366000007,141.9308955000006,141.92306050000025,141.9230791,141.9308955000006,141.9308955000006,141.9308955000006,,143.35658180000064,right,0.0,26.48295349999989,,,,,,,,,,,,,,,,,,,,,,,,,,,,,,,sub-139,1.0,random_dot,119.5887581789828,
right,right,speed,,,,,0.0,0.0,0.0,1.0,4.0,0.0,8.0,1.0,143.3642604000006,,,,,,,,,143.35763150000002,144.5643357000008,145.364329,145.35648130000027,145.35650820000046,145.364329,145.364329,145.364329,,147.06524960000024,left,0.0,26.76366170000074,,,,,,,,,,,,,,,,,,,,,,,,,,,,,,,sub-139,1.0,random_dot,119.5887581789828,
left,left,speed,,,,,0.0,0.0,0.0,1.0,4.0,1.0,9.0,0.0,147.07292330000018,,,,,,,,,147.0662269000004,147.4226236000004,148.2225939,148.2147270000005,148.214747,148.2225939,148.2225939,148.2225939,,149.79858580000018,right,0.0,26.63889349999954,,,,,,,,,,,,,,,,,,,,,,,,,,,,,,,sub-139,1.0,random_dot,119.5887581789828,
right,right,speed,,,,,0.0,0.0,0.0,1.0,5.0,0.0,10.0,1.0,149.80597800000032,,,,,,,,,149.79957280000053,150.6058717000005,151.4061603,151.39825310000015,151.3982719000005,151.4061603,151.4061603,151.4061603,,153.53192170000057,right,1.0,27.18303680000008,,,,,,,,,,,,,,,,,,,,,,,,,,,,,,,sub-139,1.0,random_dot,119.5887581789828,
left,left,speed,,,,,0.0,0.0,0.0,1.0,5.0,1.0,11.0,0.0,153.53942619999998,,,,,,,,,153.5327944999999,153.8809351,154.68095200000062,154.67313540000032,154.67315660000077,154.68095200000062,154.68095200000062,154.68095200000062,,156.0654439,left,1.0,26.44847019999997,,,,,,,,,,,,,,,,,,,,,,,,,,,,,,,sub-139,1.0,random_dot,119.5887581789828,
left,left,speed,,,,,0.0,0.0,0.0,1.0,6.0,0.0,12.0,0.0,156.07233580000047,,,,,,,,,156.0670469000006,156.17278290000013,156.97260780000033,156.9651799000003,156.96519930000068,156.97260780000033,156.97260780000033,156.97260780000033,,158.82352210000045,left,1.0,26.912059399999634,,,,,,,,,,,,,,,,,,,,,,,,,,,,,,,sub-139,1.0,random_dot,119.5887581789828,
right,right,speed,,,,,0.0,0.0,0.0,1.0,6.0,1.0,13.0,1.0,158.8314233000001,,,,,,,,,158.82442420000007,159.18115930000022,159.98118440000053,159.97316860000046,159.9731883000004,159.98118440000053,159.98118440000053,159.98118440000053,,161.50686029999997,right,1.0,26.589690100000556,,,,,,,,,,,,,,,,,,,,,,,,,,,,,,,sub-139,1.0,random_dot,119.5887581789828,
left,left,speed,,,,,0.0,0.0,0.0,1.0,7.0,0.0,14.0,0.0,161.51494980000007,,,,,,,,,161.50809879999997,161.85603940000055,162.65579270000035,162.64813890000005,162.6481590000003,162.65579270000035,162.65579270000035,162.65579270000035,,164.0157220000001,left,1.0,26.4192477000006,,,,,,,,,,,,,,,,,,,,,,,,,,,,,,,sub-139,1.0,random_dot,119.5887581789828,
right,right,speed,,,,,0.0,0.0,0.0,1.0,7.0,1.0,15.0,1.0,164.0225287000003,,,,,,,,,164.0166336000002,164.82286870000007,165.62248330000057,165.61492799999996,165.61494650000077,165.62248330000057,165.62248330000057,165.62248330000057,,167.29847080000036,right,1.0,26.734875800000736,,,,,,,,,,,,,,,,,,,,,,,,,,,,,,,sub-139,1.0,random_dot,119.5887581789828,
left,left,speed,,,,,0.0,0.0,0.0,1.0,8.0,0.0,16.0,0.0,167.30594980000023,,,,,,,,,167.29938610000045,167.65610370000013,168.45602260000032,168.4482377000004,168.4482564,168.45602260000032,168.45602260000032,168.45602260000032,,170.5239173,right,0.0,27.12838910000028,,,,,,,,,,,,,,,,,,,,,,,,,,,,,,,sub-139,1.0,random_dot,119.5887581789828,
right,right,speed,,,,,0.0,0.0,0.0,1.0,8.0,1.0,17.0,1.0,170.53119770000012,,,,,,,,,170.52479110000058,171.73099510000063,172.5316126000007,172.52358750000076,172.5236130000003,172.5316126000007,172.5316126000007,172.5316126000007,,175.26514570000018,left,0.0,27.796441600000435,,,,,,,,,,,,,,,,,,,,,,,,,,,,,,,sub-139,1.0,random_dot,119.5887581789828,
left,left,speed,,,,,0.0,0.0,0.0,1.0,9.0,0.0,18.0,0.0,175.27276920000077,,,,,,,,,175.26603419999992,175.61475599999994,176.41420840000046,176.40700820000075,176.40702880000026,176.41420840000046,176.41420840000046,176.41420840000046,,177.7907449000004,left,1.0,26.43423789999997,,,,,,,,,,,,,,,,,,,,,,,,,,,,,,,sub-139,1.0,random_dot,119.5887581789828,
right,right,speed,,,,,0.0,0.0,0.0,1.0,9.0,1.0,19.0,1.0,177.79788890000054,,,,,,,,,177.7916311000008,178.5978311000008,179.39779330000056,179.39006640000025,179.3900865000005,179.39779330000056,179.39779330000056,179.39779330000056,,180.4986447000001,right,1.0,26.16455179999957,,,,,,,,,,,,,,,,,,,,,,,,,,,,,,,sub-139,1.0,random_dot,119.5887581789828,
right,right,speed,,,,,0.0,0.0,0.0,1.0,10.0,0.0,20.0,1.0,180.50650060000044,,,,,,,,,180.49954250000064,181.3061891000007,182.1059737000005,182.09851190000063,182.0985425000008,182.1059737000005,182.1059737000005,182.1059737000005,,183.3073581000008,right,1.0,26.265564000000268,,,,,,,,,,,,,,,,,,,,,,,,,,,,,,,sub-139,1.0,random_dot,119.5887581789828,
left,left,speed,,,,,0.0,0.0,0.0,1.0,10.0,1.0,21.0,0.0,183.31450850000056,,,,,,,,,183.30830650000007,184.5143295000007,185.31438400000025,185.30648950000068,185.3065078,185.31438400000025,185.31438400000025,185.31438400000025,,187.12524699999997,left,1.0,26.875218799999857,,,,,,,,,,,,,,,,,,,,,,,,,,,,,,,sub-139,1.0,random_dot,119.5887581789828,
left,left,speed,,,,,0.0,0.0,0.0,1.0,11.0,0.0,22.0,0.0,187.13175760000013,,,,,,,,,187.12613710000005,187.9317522000001,188.73159160000068,188.7249786000002,188.7250120000008,188.73159160000068,188.73159160000068,188.73159160000068,,189.8994349000004,left,1.0,26.22486459999982,,,,,,,,,,,,,,,,,,,,,,,,,,,,,,,sub-139,1.0,random_dot,119.5887581789828,
right,right,speed,,,,,0.0,0.0,0.0,1.0,11.0,1.0,23.0,1.0,189.90699790000053,,,,,,,,,189.9003294000004,190.00666,190.8067570000003,190.79885110000032,190.7988692000008,190.8067570000003,190.8067570000003,190.8067570000003,,191.8747441000005,right,1.0,26.132078799999363,,,,,,,,,,,,,,,,,,,,,,,,,,,,,,,sub-139,1.0,random_dot,119.5887581789828,
right,right,speed,,,,,0.0,0.0,0.0,1.0,12.0,0.0,24.0,1.0,191.88176710000064,,,,,,,,,191.87573930000053,192.2316703000006,193.03165489999992,193.02473809999992,193.02475959999992,193.03165489999992,193.03165489999992,193.03165489999992,,194.1243733000001,right,1.0,26.153670599999717,,,,,,,,,,,,,,,,,,,,,,,,,,,,,,,sub-139,1.0,random_dot,119.5887581789828,
left,left,speed,,,,,0.0,0.0,0.0,1.0,12.0,1.0,25.0,0.0,194.1316727000003,,,,,,,,,194.1260615000001,194.9321385000003,195.7316634000008,195.7247963,195.72482670000045,195.7316634000008,195.7316634000008,195.7316634000008,,196.60812460000037,left,1.0,25.93668499999967,,,,,,,,,,,,,,,,,,,,,,,,,,,,,,,sub-139,1.0,random_dot,119.5887581789828,
right,right,speed,,,,,0.0,0.0,0.0,1.0,13.0,0.0,26.0,1.0,196.61529320000045,,,,,,,,,196.60901430000013,196.96519940000053,197.76511200000004,197.75786229999997,197.75788160000047,197.76511200000004,197.76511200000004,197.76511200000004,,198.5163648000007,right,1.0,25.81043150000005,,,,,,,,,,,,,,,,,,,,,,,,,,,,,,,sub-139,1.0,random_dot,119.5887581789828,
left,left,speed,,,,,0.0,0.0,0.0,1.0,13.0,1.0,27.0,0.0,198.52328300000045,,,,,,,,,198.5174810000008,199.32341690000067,200.1234575000008,200.1159054,200.11594080000032,200.1234575000008,200.1234575000008,200.1234575000008,,200.9658717000002,left,1.0,25.903746099999807,,,,,,,,,,,,,,,,,,,,,,,,,,,,,,,sub-139,1.0,random_dot,119.5887581789828,
right,right,speed,,,,,0.0,0.0,0.0,1.0,14.0,0.0,28.0,1.0,200.97349530000065,,,,,,,,,200.96678650000013,201.7735446000006,202.5734788,202.56659900000068,202.5666194000005,202.5734788,202.5734788,202.5734788,,203.1826970000002,right,1.0,25.672820499999943,,,,,,,,,,,,,,,,,,,,,,,,,,,,,,,sub-139,1.0,random_dot,119.5887581789828,
left,left,speed,,,,,0.0,0.0,0.0,1.0,14.0,1.0,29.0,0.0,203.1910224000003,,,,,,,,,203.1836024000004,203.98143130000065,204.7816597000001,204.7753076000008,204.7753416000005,204.7816597000001,204.7816597000001,204.7816597000001,,205.7077439000004,left,1.0,25.990110100000493,,,,,,,,,,,,,,,,,,,,,,,,,,,,,,,sub-139,1.0,random_dot,119.5887581789828,
left,left,speed,,,,,0.0,0.0,0.0,1.0,15.0,0.0,30.0,0.0,205.7151092000004,,,,,,,,,205.70863540000028,206.5068486,207.30638290000024,207.3008043,207.30083730000024,207.30638290000024,207.30638290000024,207.30638290000024,,207.97472900000048,right,0.0,25.727697000000266,,,,,,,,,,,,,,,,,,,,,,,,,,,,,,,sub-139,1.0,random_dot,119.5887581789828,
right,right,speed,,,,,0.0,0.0,0.0,1.0,15.0,1.0,31.0,1.0,207.98190650000012,,,,,,,,,207.9756331000008,208.33245609999997,209.13193200000023,209.1242658000001,209.1242923,209.13193200000023,209.13193200000023,209.13193200000023,,209.95762970000035,right,1.0,25.885602900000777,,,,,,,,,,,,,,,,,,,,,,,,,,,,,,,sub-139,1.0,random_dot,119.5887581789828,
right,right,speed,,,,,0.0,0.0,0.0,1.0,16.0,0.0,32.0,1.0,209.9654487000007,,,,,,,,,209.95853979999995,211.16595980000056,211.9650704000005,211.95804279999996,211.9580659000003,211.9650704000005,211.9650704000005,211.9650704000005,,212.61578210000064,right,1.0,25.707231399999728,,,,,,,,,,,,,,,,,,,,,,,,,,,,,,,sub-139,1.0,random_dot,119.5887581789828,
left,left,speed,,,,,0.0,0.0,0.0,1.0,16.0,1.0,33.0,0.0,212.62340850000052,,,,,,,,,212.6166520000006,213.42356890000065,214.22350910000023,214.21601050000027,214.21603050000067,214.22350910000023,214.22350910000023,214.22350910000023,,215.0153718000001,left,1.0,25.84991700000046,,,,,,,,,,,,,,,,,,,,,,,,,,,,,,,sub-139,1.0,random_dot,119.5887581789828,
left,left,speed,,,,,0.0,0.0,0.0,1.0,17.0,0.0,34.0,0.0,215.0234272000007,,,,,,,,,215.0162633,215.3653200000008,216.16529560000072,216.15736040000047,216.15738020000023,216.16529560000072,216.16529560000072,216.16529560000072,,217.00772750000036,right,0.0,25.900447900000472,,,,,,,,,,,,,,,,,,,,,,,,,,,,,,,sub-139,1.0,random_dot,119.5887581789828,
right,right,speed,,,,,0.0,0.0,0.0,1.0,17.0,1.0,35.0,1.0,217.0152618000002,,,,,,,,,217.00896960000048,217.11535080000067,217.91545399999995,217.9074511000008,217.9074685000005,217.91545399999995,217.91545399999995,217.91545399999995,,218.81607190000068,left,0.0,25.961925900000097,,,,,,,,,,,,,,,,,,,,,,,,,,,,,,,sub-139,1.0,random_dot,119.5887581789828,
left,left,speed,,,,,0.0,0.0,0.0,1.0,18.0,0.0,36.0,0.0,218.8235435000006,,,,,,,,,218.8170157000004,219.17352930000013,219.97353620000013,219.96566239999996,219.9656813000001,219.97353620000013,219.97353620000013,219.97353620000013,,222.62421640000048,left,1.0,27.714287599999807,,,,,,,,,,,,,,,,,,,,,,,,,,,,,,,sub-139,1.0,random_dot,119.5887581789828,
right,right,speed,,,,,0.0,0.0,0.0,1.0,18.0,1.0,37.0,1.0,222.63216330000068,,,,,,,,,222.62510550000025,222.72363630000015,223.5233694000008,223.51590710000076,223.51594060000025,223.5233694000008,223.5233694000008,223.5233694000008,,225.00811180000076,right,1.0,26.54400439999972,,,,,,,,,,,,,,,,,,,,,,,,,,,,,,,sub-139,1.0,random_dot,119.5887581789828,
right,right,speed,,,,,0.0,0.0,0.0,1.0,19.0,0.0,38.0,1.0,225.01502299999996,,,,,,,,,225.0090289,225.3653618000008,226.16536880000055,226.1579719000001,226.15799180000067,226.16536880000055,226.16536880000055,226.16536880000055,,227.2075616000002,right,1.0,26.10481900000013,,,,,,,,,,,,,,,,,,,,,,,,,,,,,,,sub-139,1.0,random_dot,119.5887581789828,
left,left,speed,,,,,0.0,0.0,0.0,1.0,19.0,1.0,39.0,0.0,227.21523890000023,,,,,,,,,227.20845000000008,227.31522210000003,228.1152241,228.1078475000004,228.1078864000001,228.1152241,228.1152241,228.1152241,,229.3586113000001,left,1.0,26.30765209999936,,,,,,,,,,,,,,,,,,,,,,,,,,,,,,,sub-139,1.0,random_dot,119.5887581789828,
left,left,speed,,,,,0.0,0.0,0.0,1.0,20.0,0.0,40.0,0.0,229.36586440000065,,,,,,,,,229.3595036000006,230.1655795000006,230.9651893,230.95728260000035,230.95730080000067,230.9651893,230.9651893,230.9651893,,231.80789090000053,right,0.0,25.906829300000027,,,,,,,,,,,,,,,,,,,,,,,,,,,,,,,sub-139,1.0,random_dot,119.5887581789828,
right,right,speed,,,,,0.0,0.0,0.0,1.0,20.0,1.0,41.0,1.0,231.81514229999996,,,,,,,,,231.8089757000007,233.01552059999997,233.81504600000065,233.8074379,233.80746510000063,233.81504600000065,233.81504600000065,233.81504600000065,,234.74191430000064,right,1.0,25.987277000000176,,,,,,,,,,,,,,,,,,,,,,,,,,,,,,,sub-139,1.0,random_dot,119.5887581789828,
left,left,speed,,,,,0.0,0.0,0.0,1.0,21.0,0.0,42.0,0.0,234.7484581000008,,,,,,,,,234.74288590000012,235.5485631000001,236.34856650000077,236.34131350000007,236.3413328000006,236.34856650000077,236.34856650000077,236.34856650000077,,237.44137750000027,left,1.0,26.15206760000001,,,,,,,,,,,,,,,,,,,,,,,,,,,,,,,sub-139,1.0,random_dot,119.5887581789828,
right,right,speed,,,,,0.0,0.0,0.0,1.0,21.0,1.0,43.0,1.0,237.4486807000003,,,,,,,,,237.44229450000057,237.5404983000008,238.34044650000035,238.3328051000008,238.33283980000036,238.34044650000035,238.34044650000035,238.34044650000035,,239.1079351000008,right,1.0,25.830576699999256,,,,,,,,,,,,,,,,,,,,,,,,,,,,,,,sub-139,1.0,random_dot,119.5887581789828,
right,right,speed,,,,,0.0,0.0,0.0,1.0,22.0,0.0,44.0,1.0,239.1150731000007,,,,,,,,,239.1095062000004,240.31523890000065,241.11515700000015,241.1078765000002,241.1079099000008,241.11515700000015,241.11515700000015,241.11515700000015,,241.8828175000008,right,1.0,25.82979660000001,,,,,,,,,,,,,,,,,,,,,,,,,,,,,,,sub-139,1.0,random_dot,119.5887581789828,
left,left,speed,,,,,0.0,0.0,0.0,1.0,22.0,1.0,45.0,0.0,241.89068260000025,,,,,,,,,241.88371890000053,242.69057410000005,243.49024080000072,243.48241570000027,243.48243320000077,243.49024080000072,243.49024080000072,243.49024080000072,,244.2665291000003,left,1.0,25.83410510000067,,,,,,,,,,,,,,,,,,,,,,,,,,,,,,,sub-139,1.0,random_dot,119.5887581789828,
right,right,speed,,,,,0.0,0.0,0.0,1.0,23.0,0.0,46.0,1.0,244.27372830000056,,,,,,,,,244.26741970000057,244.62362440000012,245.42358670000067,245.41577039999996,245.41579040000036,245.42358670000067,245.42358670000067,245.42358670000067,,246.4079113000007,right,1.0,26.044717200000377,,,,,,,,,,,,,,,,,,,,,,,,,,,,,,,sub-139,1.0,random_dot,119.5887581789828,
left,left,speed,,,,,0.0,0.0,0.0,1.0,23.0,1.0,47.0,0.0,246.41534610000053,,,,,,,,,246.40881270000045,247.21541950000028,248.01533550000025,248.00768250000056,248.0077011000003,248.01533550000025,248.01533550000025,248.01533550000025,,248.86643260000076,left,1.0,25.910078599999903,,,,,,,,,,,,,,,,,,,,,,,,,,,,,,,sub-139,1.0,random_dot,119.5887581789828,
left,left,speed,,,,,0.0,0.0,0.0,1.0,24.0,0.0,48.0,0.0,248.87374140000065,,,,,,,,,248.8673215000008,248.97379890000047,249.77384220000025,249.7658734000006,249.7658908000003,249.77384220000025,249.77384220000025,249.77384220000025,,250.5493871000008,left,1.0,25.83799429999999,,,,,,,,,,,,,,,,,,,,,,,,,,,,,,,sub-139,1.0,random_dot,119.5887581789828,
right,right,speed,,,,,0.0,0.0,0.0,1.0,24.0,1.0,49.0,1.0,250.5571243000004,,,,,,,,,250.5503245,251.75777240000025,252.5569815000008,252.54932710000048,252.54934540000067,252.5569815000008,252.5569815000008,252.5569815000008,,253.19125450000047,right,1.0,25.694400600000336,,,,,,,,,,,,,,,,,,,,,,,,,,,,,,,sub-139,1.0,random_dot,119.5887581789828,
left,left,speed,,,,,0.0,0.0,0.0,1.0,25.0,0.0,50.0,0.0,253.19929350000075,,,,,,,,,253.19223180000063,253.54862120000053,254.3484331,254.3409035000004,254.3409369000001,254.3484331,254.3484331,254.3484331,,255.0577501000007,left,1.0,25.767276699999456,,,,,,,,,,,,,,,,,,,,,,,,,,,,,,,sub-139,1.0,random_dot,119.5887581789828,
right,right,speed,,,,,0.0,0.0,0.0,1.0,25.0,1.0,51.0,1.0,255.06530590000057,,,,,,,,,255.05869040000016,255.85696850000025,256.6570393000002,256.6492943000003,256.64931419999994,256.6570393000002,256.6570393000002,256.6570393000002,,257.52511550000054,right,1.0,25.92627200000061,,,,,,,,,,,,,,,,,,,,,,,,,,,,,,,sub-139,1.0,random_dot,119.5887581789828,
left,left,speed,,,,,0.0,0.0,0.0,1.0,26.0,0.0,52.0,0.0,257.5322236000002,,,,,,,,,257.52602600000046,257.88195580000047,258.6821011000002,258.67428010000003,258.67431430000033,258.6821011000002,258.6821011000002,258.6821011000002,,259.7329901000003,right,0.0,26.113165499999923,,,,,,,,,,,,,,,,,,,,,,,,,,,,,,,sub-139,1.0,random_dot,119.5887581789828,
right,right,speed,,,,,0.0,0.0,0.0,1.0,26.0,1.0,53.0,1.0,259.7404051000003,,,,,,,,,259.7338757000007,259.84071850000055,260.64093240000057,260.6328238000005,260.63285820000056,260.64093240000057,260.64093240000057,260.64093240000057,,261.6665926000005,right,1.0,26.089540599999964,,,,,,,,,,,,,,,,,,,,,,,,,,,,,,,sub-139,1.0,random_dot,119.5887581789828,
left,left,speed,,,,,0.0,0.0,0.0,1.0,27.0,0.0,54.0,0.0,261.67343190000065,,,,,,,,,261.66768780000075,262.8736940000008,263.6734731000006,263.6658101000003,263.6658359000003,263.6734731000006,263.6734731000006,263.6734731000006,,264.3829940000005,left,1.0,25.77312239999992,,,,,,,,,,,,,,,,,,,,,,,,,,,,,,,sub-139,1.0,random_dot,119.5887581789828,
right,right,speed,,,,,0.0,0.0,0.0,1.0,27.0,1.0,55.0,1.0,264.3903665000007,,,,,,,,,264.38388940000004,265.5903646000006,266.3904122000004,266.3827035000004,266.3827381000001,266.3904122000004,266.3904122000004,266.3904122000004,,267.2078334000007,right,1.0,25.877019700000343,,,,,,,,,,,,,,,,,,,,,,,,,,,,,,,sub-139,1.0,random_dot,119.5887581789828,
left,left,speed,,,,,0.0,0.0,0.0,1.0,28.0,0.0,56.0,0.0,267.21536730000025,,,,,,,,,267.20871910000005,267.5651721000004,268.36539600000015,268.3576563000006,268.3576757000001,268.36539600000015,268.36539600000015,268.36539600000015,,269.29178520000005,left,1.0,25.989558399999623,,,,,,,,,,,,,,,,,,,,,,,,,,,,,,,sub-139,1.0,random_dot,119.5887581789828,
right,right,speed,,,,,0.0,0.0,0.0,1.0,28.0,1.0,57.0,1.0,269.29859620000025,,,,,,,,,269.2926901000001,269.39873590000025,270.19866980000006,270.1908419000001,270.1908594000006,270.19866980000006,270.19866980000006,270.19866980000006,,270.8755383000007,right,1.0,25.73791299999993,,,,,,,,,,,,,,,,,,,,,,,,,,,,,,,sub-139,1.0,random_dot,119.5887581789828,
left,left,speed,,,,,0.0,0.0,0.0,1.0,29.0,0.0,58.0,0.0,270.8834791,,,,,,,,,270.8764178000001,270.9745199000008,271.77526260000013,271.7670154000007,271.7670356000008,271.77526260000013,271.77526260000013,271.77526260000013,,273.25890359999994,left,1.0,26.547006699999656,,,,,,,,,,,,,,,,,,,,,,,,,,,,,,,sub-139,1.0,random_dot,119.5887581789828,
right,right,speed,,,,,0.0,0.0,0.0,1.0,29.0,1.0,59.0,1.0,273.26671330000045,,,,,,,,,273.2600343000004,274.46645250000074,275.26612449999993,275.25838060000024,275.2584078,275.26612449999993,275.26612449999993,275.26612449999993,,276.3340218000003,right,1.0,26.12729290000061,,,,,,,,,,,,,,,,,,,,,,,,,,,,,,,sub-139,1.0,random_dot,119.5887581789828,
,,speed,,,,,0.0,0.0,0.0,1.0,,,,,,,,,,,,,,,,,,,,,,,,,,,,,,,,,,,,,,,,,,,,,,,,,,,,,,,,,sub-139,1.0,random_dot,119.5887581789828,
right,right,accuracy,,,,,0.0,1.0,1.0,0.0,0.0,0.0,0.0,1.0,281.1395366000006,,,,,,,,,281.1361443000005,281.93199840000034,282.7314722000001,282.7236416000005,282.7236632000004,282.7314722000001,282.7314722000001,282.7314722000001,,283.8820884000006,right,1.0,26.21419010000045,,,,,,,,,,,,,,,,,,,,276.3351349000004,276.35366460000023,276.35366460000023,281.1293697000001,space,29.83577249999962,,,,,,sub-139,1.0,random_dot,119.5887581789828,
left,left,accuracy,,,,,0.0,1.0,1.0,0.0,0.0,1.0,1.0,0.0,283.88981010000043,,,,,,,,,283.8833562,285.08979980000004,285.88966770000025,285.8823708,285.8824039000001,285.88966770000025,285.88966770000025,285.88966770000025,,286.7159552000003,left,1.0,25.88876970000001,,,,,,,,,,,,,,,,,,,,,,,,,,,,,,,sub-139,1.0,random_dot,119.5887581789828,
right,right,accuracy,,,,,0.0,1.0,1.0,0.0,1.0,0.0,2.0,1.0,286.72291530000075,,,,,,,,,286.71723530000054,287.92358010000044,288.7230943000004,288.71523290000005,288.7152644000007,288.7230943000004,288.7230943000004,288.7230943000004,,289.3073275000006,right,1.0,25.64568359999976,,,,,,,,,,,,,,,,,,,,,,,,,,,,,,,sub-139,1.0,random_dot,119.5887581789828,
left,left,accuracy,,,,,0.0,1.0,1.0,0.0,1.0,1.0,3.0,0.0,289.3147151000003,,,,,,,,,289.30865110000013,289.6647971000002,290.4645988000002,290.45709590000024,290.45711590000064,290.4645988000002,290.4645988000002,290.4645988000002,,291.6825777000004,right,0.0,26.275169399999868,,,,,,,,,,,,,,,,,,,,,,,,,,,,,,,sub-139,1.0,random_dot,119.5887581789828,
left,left,accuracy,,,,,0.0,1.0,1.0,0.0,2.0,0.0,4.0,0.0,291.6897359000004,,,,,,,,,291.6835631000004,292.48987790000047,293.2897913000006,293.28191760000027,293.2819386000001,293.2897913000006,293.2897913000006,293.2897913000006,,294.0492091000005,left,1.0,25.823552900000323,,,,,,,,,,,,,,,,,,,,,,,,,,,,,,,sub-139,1.0,random_dot,119.5887581789828,
right,right,accuracy,,,,,0.0,1.0,1.0,0.0,2.0,1.0,5.0,1.0,294.0563781999999,,,,,,,,,294.05022480000025,294.40641460000006,295.2064340000006,295.19865540000046,295.1986740000002,295.2064340000006,295.2064340000006,295.2064340000006,,296.19946510000045,right,1.0,26.050071300000127,,,,,,,,,,,,,,,,,,,,,,,,,,,,,,,sub-139,1.0,random_dot,119.5887581789828,
left,left,accuracy,,,,,0.0,1.0,1.0,0.0,3.0,0.0,6.0,0.0,296.2063435,,,,,,,,,296.20072680000067,297.40639590000046,298.20646190000025,298.1988342000004,298.1988543000007,298.20646190000025,298.20646190000025,298.20646190000025,,299.69075410000005,left,1.0,26.547056800000064,,,,,,,,,,,,,,,,,,,,,,,,,,,,,,,sub-139,1.0,random_dot,119.5887581789828,
right,right,accuracy,,,,,0.0,1.0,1.0,0.0,3.0,1.0,7.0,1.0,299.69873590000043,,,,,,,,,299.6916702000008,300.4982372000004,301.29806590000044,301.29094070000065,301.2909743,301.29806590000044,301.29806590000044,301.29806590000044,,302.1573098000008,right,1.0,25.91616030000023,,,,,,,,,,,,,,,,,,,,,,,,,,,,,,,sub-139,1.0,random_dot,119.5887581789828,
left,left,accuracy,,,,,0.0,1.0,1.0,0.0,4.0,0.0,8.0,0.0,302.1646645000001,,,,,,,,,302.1582470000003,302.2648420000005,303.0645026000002,303.0577352,303.0577688000003,303.0645026000002,303.0645026000002,303.0645026000002,,304.2657042000001,right,0.0,26.26132830000006,,,,,,,,,,,,,,,,,,,,,,,,,,,,,,,sub-139,1.0,random_dot,119.5887581789828,
right,right,accuracy,,,,,0.0,1.0,1.0,0.0,4.0,1.0,9.0,1.0,304.27305870000055,,,,,,,,,304.26666600000044,305.0733504,305.87314960000003,305.86528240000007,305.86530630000016,305.87314960000003,305.87314960000003,305.87314960000003,,308.0159143000001,right,1.0,27.200592199999846,,,,,,,,,,,,,,,,,,,,,,,,,,,,,,,sub-139,1.0,random_dot,119.5887581789828,
right,right,accuracy,,,,,0.0,1.0,1.0,0.0,5.0,0.0,10.0,1.0,308.0236771,,,,,,,,,308.0167898,308.37314120000065,309.17295900000045,309.16581810000025,309.16583880000053,309.17295900000045,309.17295900000045,309.17295900000045,,311.7488768000003,right,1.0,27.63957430000028,,,,,,,,,,,,,,,,,,,,,,,,,,,,,,,sub-139,1.0,random_dot,119.5887581789828,
left,left,accuracy,,,,,0.0,1.0,1.0,0.0,5.0,1.0,11.0,0.0,311.7565344000004,,,,,,,,,311.7497666,312.1066198000008,312.9066236000008,312.89865910000026,312.8986780000005,312.9066236000008,312.9066236000008,312.9066236000008,,314.1827072000005,left,1.0,26.333260800000065,,,,,,,,,,,,,,,,,,,,,,,,,,,,,,,sub-139,1.0,random_dot,119.5887581789828,
left,left,accuracy,,,,,0.0,1.0,1.0,0.0,6.0,0.0,12.0,0.0,314.1897697000004,,,,,,,,,314.1835824,314.2899589000008,315.0896777000007,315.08248170000024,315.08250080000016,315.0896777000007,315.0896777000007,315.0896777000007,,316.5327030000008,left,1.0,26.502595799999654,,,,,,,,,,,,,,,,,,,,,,,,,,,,,,,sub-139,1.0,random_dot,119.5887581789828,
right,right,accuracy,,,,,0.0,1.0,1.0,0.0,6.0,1.0,13.0,1.0,316.54000200000064,,,,,,,,,316.5335901000008,316.6402355,317.4395021,317.43218740000066,317.4322129000002,317.4395021,317.4395021,317.4395021,,319.3908532000005,right,1.0,27.01288209999984,,,,,,,,,,,,,,,,,,,,,,,,,,,,,,,sub-139,1.0,random_dot,119.5887581789828,
left,left,accuracy,,,,,0.0,1.0,1.0,0.0,7.0,0.0,14.0,0.0,319.3982371000002,,,,,,,,,319.3917394,319.4983877000004,320.29799120000007,320.2903071999999,320.2903262,320.29799120000007,320.29799120000007,320.29799120000007,,321.6908873000002,left,1.0,26.456790199999887,,,,,,,,,,,,,,,,,,,,,,,,,,,,,,,sub-139,1.0,random_dot,119.5887581789828,
right,right,accuracy,,,,,0.0,1.0,1.0,0.0,7.0,1.0,15.0,1.0,321.69768470000054,,,,,,,,,321.69256570000016,322.8982749000006,323.6980629,323.69094920000043,323.6909684000002,323.6980629,323.6980629,323.6980629,,325.1574319000001,left,0.0,26.520000600000454,,,,,,,,,,,,,,,,,,,,,,,,,,,,,,,sub-139,1.0,random_dot,119.5887581789828,
left,left,accuracy,,,,,0.0,1.0,1.0,0.0,8.0,0.0,16.0,0.0,325.1648911000002,,,,,,,,,325.1583307000001,325.9647167000003,326.7648003000004,326.7569970000004,326.7570166000005,326.7648003000004,326.7648003000004,326.7648003000004,,327.80731520000063,left,1.0,26.09939249999934,,,,,,,,,,,,,,,,,,,,,,,,,,,,,,,sub-139,1.0,random_dot,119.5887581789828,
right,right,accuracy,,,,,0.0,1.0,1.0,0.0,8.0,1.0,17.0,1.0,327.8146335000001,,,,,,,,,327.80893340000057,329.01610230000006,329.82336100000066,329.8153467000002,329.81537090000074,329.82336100000066,329.82336100000066,329.82336100000066,,330.9823187000002,left,0.0,26.21629789999952,,,,,,,,,,,,,,,,,,,,,,,,,,,,,,,sub-139,1.0,random_dot,119.5887581789828,
right,right,accuracy,,,,,0.0,1.0,1.0,0.0,9.0,0.0,18.0,1.0,330.9904282000007,,,,,,,,,330.98328459999993,331.0817016000001,331.88142060000064,331.87401560000035,331.87403429999995,331.88142060000064,331.88142060000064,331.88142060000064,,332.7327561000002,left,0.0,25.90932570000041,,,,,,,,,,,,,,,,,,,,,,,,,,,,,,,sub-139,1.0,random_dot,119.5887581789828,
left,left,accuracy,,,,,0.0,1.0,1.0,0.0,9.0,1.0,19.0,0.0,332.74009810000007,,,,,,,,,332.73363000000063,333.5399578000006,334.3400951000003,334.3319454000002,334.3319639000001,334.3400951000003,334.3400951000003,334.3400951000003,,335.75729950000004,left,1.0,26.477182200000243,,,,,,,,,,,,,,,,,,,,,,,,,,,,,,,sub-139,1.0,random_dot,119.5887581789828,
right,right,accuracy,,,,,0.0,1.0,1.0,0.0,10.0,0.0,20.0,1.0,335.7648807000005,,,,,,,,,335.75846850000016,336.96499029999995,337.76465760000065,337.7568768000001,337.7568949000006,337.76465760000065,337.76465760000065,337.76465760000065,,339.1409915000004,left,0.0,26.439040100000057,,,,,,,,,,,,,,,,,,,,,,,,,,,,,,,sub-139,1.0,random_dot,119.5887581789828,
left,left,accuracy,,,,,0.0,1.0,1.0,0.0,10.0,1.0,21.0,0.0,339.1485259000001,,,,,,,,,339.14190080000026,339.2483994000004,340.04805470000065,340.04186800000025,340.04188800000065,340.04805470000065,340.04805470000065,340.04805470000065,,341.2002607000004,left,1.0,26.21583800000008,,,,,,,,,,,,,,,,,,,,,,,,,,,,,,,sub-139,1.0,random_dot,119.5887581789828,
left,left,accuracy,,,,,0.0,1.0,1.0,0.0,11.0,0.0,22.0,0.0,341.20632680000017,,,,,,,,,341.20133500000065,342.40669980000075,343.2066861000003,343.1991401000005,343.1991600000001,343.2066861000003,343.2066861000003,343.2066861000003,,344.3740578000006,left,1.0,26.22854920000009,,,,,,,,,,,,,,,,,,,,,,,,,,,,,,,sub-139,1.0,random_dot,119.5887581789828,
right,right,accuracy,,,,,0.0,1.0,1.0,0.0,11.0,1.0,23.0,1.0,344.38179820000005,,,,,,,,,344.3750217000006,344.4735488000006,345.2733839000002,345.2656074000006,345.2656277000005,345.2733839000002,345.2733839000002,345.2733839000002,,346.3240257000007,right,1.0,26.111849099999745,,,,,,,,,,,,,,,,,,,,,,,,,,,,,,,sub-139,1.0,random_dot,119.5887581789828,
right,right,accuracy,,,,,0.0,1.0,1.0,0.0,12.0,0.0,24.0,1.0,346.3315605000007,,,,,,,,,346.3249403,346.4319734999999,347.23172410000006,347.2240216,347.2240402000007,347.23172410000006,347.23172410000006,347.23172410000006,,348.5323584000007,left,0.0,26.36397620000025,,,,,,,,,,,,,,,,,,,,,,,,,,,,,,,sub-139,1.0,random_dot,119.5887581789828,
left,left,accuracy,,,,,0.0,1.0,1.0,0.0,12.0,1.0,25.0,0.0,348.5401784000005,,,,,,,,,348.53325960000075,349.3400457000007,350.13999390000026,350.1319758,350.1319960000001,350.13999390000026,350.13999390000026,350.13999390000026,,350.8993775000008,left,1.0,25.81771200000003,,,,,,,,,,,,,,,,,,,,,,,,,,,,,,,sub-139,1.0,random_dot,119.5887581789828,
left,left,accuracy,,,,,0.0,1.0,1.0,0.0,13.0,0.0,26.0,0.0,350.9067658000004,,,,,,,,,350.9002435000002,351.7065740000007,352.5065825000001,352.4988641,352.4988834000005,352.5065825000001,352.5065825000001,352.5065825000001,,354.53255250000075,left,1.0,27.08686300000045,,,,,,,,,,,,,,,,,,,,,,,,,,,,,,,sub-139,1.0,random_dot,119.5887581789828,
right,right,accuracy,,,,,0.0,1.0,1.0,0.0,13.0,1.0,27.0,1.0,354.5397188000006,,,,,,,,,354.5337512000005,354.6400328,355.4397888000003,355.43249730000025,355.4325174000005,355.4397888000003,355.4397888000003,355.4397888000003,,356.8414597000001,left,0.0,26.46314269999948,,,,,,,,,,,,,,,,,,,,,,,,,,,,,,,sub-139,1.0,random_dot,119.5887581789828,
left,left,accuracy,,,,,0.0,1.0,1.0,0.0,14.0,0.0,28.0,0.0,356.8480941000007,,,,,,,,,356.84238540000024,356.9485966000002,357.7480118000003,357.74051360000067,357.7405396000004,357.7480118000003,357.7480118000003,357.7480118000003,,358.73273100000006,left,1.0,26.04242620000059,,,,,,,,,,,,,,,,,,,,,,,,,,,,,,,sub-139,1.0,random_dot,119.5887581789828,
right,right,accuracy,,,,,0.0,1.0,1.0,0.0,14.0,1.0,29.0,1.0,358.74001230000067,,,,,,,,,358.7338142000008,359.0899894000004,359.8893695000006,359.8828164000006,359.88283630000024,359.8893695000006,359.8893695000006,359.8893695000006,,360.7251322000002,right,1.0,25.893989799999872,,,,,,,,,,,,,,,,,,,,,,,,,,,,,,,sub-139,1.0,random_dot,119.5887581789828,
left,left,accuracy,,,,,0.0,1.0,1.0,0.0,15.0,0.0,30.0,0.0,360.7315992000004,,,,,,,,,360.7260171000007,361.0814442000001,361.88195820000055,361.8736405,361.87365970000064,361.88195820000055,361.88195820000055,361.88195820000055,,363.45743720000064,right,0.0,26.637240299999576,,,,,,,,,,,,,,,,,,,,,,,,,,,,,,,sub-139,1.0,random_dot,119.5887581789828,
right,right,accuracy,,,,,0.0,1.0,1.0,0.0,15.0,1.0,31.0,1.0,363.4648379,,,,,,,,,363.4586663,364.2652267000003,365.0651085,365.05727190000016,365.05729210000027,365.0651085,365.0651085,365.0651085,,366.4246398000005,right,1.0,26.42246139999952,,,,,,,,,,,,,,,,,,,,,,,,,,,,,,,sub-139,1.0,random_dot,119.5887581789828,
left,left,accuracy,,,,,0.0,1.0,1.0,0.0,16.0,0.0,32.0,0.0,366.4318591000001,,,,,,,,,366.4255256000006,366.7816082,367.5821155000003,367.5740483,367.57408380000015,367.5821155000003,367.5821155000003,367.5821155000003,,368.5415861000001,left,1.0,26.01754290000008,,,,,,,,,,,,,,,,,,,,,,,,,,,,,,,sub-139,1.0,random_dot,119.5887581789828,
right,right,accuracy,,,,,0.0,1.0,1.0,0.0,16.0,1.0,33.0,1.0,368.54841940000006,,,,,,,,,368.5424821000006,368.6484191,369.4481002000002,369.4407206000005,369.4407550000005,369.4481002000002,369.4481002000002,369.4481002000002,,371.5244425000001,left,0.0,27.1399607000003,,,,,,,,,,,,,,,,,,,,,,,,,,,,,,,sub-139,1.0,random_dot,119.5887581789828,
right,right,accuracy,,,,,0.0,1.0,1.0,0.0,17.0,0.0,34.0,1.0,371.5315264000001,,,,,,,,,371.5253460000004,372.3316837000002,373.1311810000007,373.12457300000005,373.1246008000008,373.1311810000007,373.1311810000007,373.1311810000007,,374.14915400000064,left,0.0,26.08090049999919,,,,,,,,,,,,,,,,,,,,,,,,,,,,,,,sub-139,1.0,random_dot,119.5887581789828,
left,left,accuracy,,,,,0.0,1.0,1.0,0.0,17.0,1.0,35.0,0.0,374.1566856,,,,,,,,,374.15019870000015,374.5065025000004,375.3064454000005,375.2988871000007,375.2989041999999,375.3064454000005,375.3064454000005,375.3064454000005,,376.2492277000001,left,1.0,26.003189299999576,,,,,,,,,,,,,,,,,,,,,,,,,,,,,,,sub-139,1.0,random_dot,119.5887581789828,
left,left,accuracy,,,,,0.0,1.0,1.0,0.0,18.0,0.0,36.0,0.0,376.2566034000001,,,,,,,,,376.2501429000004,377.4569410000004,378.2562157000002,378.25018530000034,378.2502167000002,378.2562157000002,378.2562157000002,378.2562157000002,,378.9574897000002,left,1.0,25.76167480000004,,,,,,,,,,,,,,,,,,,,,,,,,,,,,,,sub-139,1.0,random_dot,119.5887581789828,
right,right,accuracy,,,,,0.0,1.0,1.0,0.0,18.0,1.0,37.0,1.0,378.9648494000003,,,,,,,,,378.9583850000008,379.0568648000008,379.8565040000003,379.84959870000057,379.8496185000004,379.8565040000003,379.8565040000003,379.8565040000003,,380.6409572000002,left,0.0,25.84315770000012,,,,,,,,,,,,,,,,,,,,,,,,,,,,,,,sub-139,1.0,random_dot,119.5887581789828,
right,right,accuracy,,,,,0.0,1.0,1.0,0.0,19.0,0.0,38.0,1.0,380.64843740000015,,,,,,,,,380.6418501000008,380.9984607000006,381.7982657000002,381.7904596000008,381.79047940000055,381.7982657000002,381.7982657000002,381.7982657000002,,382.6076785000005,right,1.0,25.87332040000001,,,,,,,,,,,,,,,,,,,,,,,,,,,,,,,sub-139,1.0,random_dot,119.5887581789828,
left,left,accuracy,,,,,0.0,1.0,1.0,0.0,19.0,1.0,39.0,0.0,382.6150460000008,,,,,,,,,382.6085632000004,382.96574210000017,383.7647996000005,383.75719460000073,383.7572145000004,383.7647996000005,383.7647996000005,383.7647996000005,,384.58281200000056,left,1.0,25.87541770000007,,,,,,,,,,,,,,,,,,,,,,,,,,,,,,,sub-139,1.0,random_dot,119.5887581789828,
left,left,accuracy,,,,,0.0,1.0,1.0,0.0,20.0,0.0,40.0,0.0,384.5903146999999,,,,,,,,,384.58374260000073,385.3899899000007,386.1902069000007,386.1822652000001,386.18228780000027,386.1902069000007,386.1902069000007,386.1902069000007,,386.9080996000002,left,1.0,25.776161100000536,,,,,,,,,,,,,,,,,,,,,,,,,,,,,,,sub-139,1.0,random_dot,119.5887581789828,
right,right,accuracy,,,,,0.0,1.0,1.0,0.0,20.0,1.0,41.0,1.0,386.9150958,,,,,,,,,386.9090367000008,388.10668690000057,388.9066647,388.8993938000003,388.8994272,388.9066647,388.9066647,388.9066647,,389.5243270000001,right,1.0,25.677460300000348,,,,,,,,,,,,,,,,,,,,,,,,,,,,,,,sub-139,1.0,random_dot,119.5887581789828,
right,right,accuracy,,,,,0.0,1.0,1.0,0.0,21.0,0.0,42.0,1.0,389.5320740000007,,,,,,,,,389.52524040000026,390.7317513000007,391.5318121,391.5242967000004,391.52432990000034,391.5318121,391.5318121,391.5318121,,392.10762650000015,right,1.0,25.63866980000057,,,,,,,,,,,,,,,,,,,,,,,,,,,,,,,sub-139,1.0,random_dot,119.5887581789828,
left,left,accuracy,,,,,0.0,1.0,1.0,0.0,21.0,1.0,43.0,0.0,392.1153477000007,,,,,,,,,392.1085314000002,392.45780790000026,393.2567165,393.24938790000033,393.2494214000008,393.2567165,393.2567165,393.2567165,,393.9909385000001,right,0.0,25.797524200000225,,,,,,,,,,,,,,,,,,,,,,,,,,,,,,,sub-139,1.0,random_dot,119.5887581789828,
right,right,accuracy,,,,,0.0,1.0,1.0,0.0,22.0,0.0,44.0,1.0,393.99831150000045,,,,,,,,,393.9918735000001,394.7901759000006,395.5903416000001,395.5824250000005,395.5824423000004,395.5903416000001,395.5903416000001,395.5903416000001,,396.20805800000016,right,1.0,25.67727079999986,,,,,,,,,,,,,,,,,,,,,,,,,,,,,,,sub-139,1.0,random_dot,119.5887581789828,
left,left,accuracy,,,,,0.0,1.0,1.0,0.0,22.0,1.0,45.0,0.0,396.2153404999999,,,,,,,,,396.2094337000008,397.0150928000003,397.81518310000047,397.8074395000003,397.8074593000001,397.81518310000047,397.81518310000047,397.81518310000047,,398.2827333000005,left,1.0,25.531658200000493,,,,,,,,,,,,,,,,,,,,,,,,,,,,,,,sub-139,1.0,random_dot,119.5887581789828,
left,left,accuracy,,,,,0.0,1.0,1.0,0.0,23.0,0.0,46.0,0.0,398.290156,,,,,,,,,398.2836836000006,399.09018000000015,399.8904531000008,399.8824600000007,399.8824792000005,399.8904531000008,399.8904531000008,399.8904531000008,,400.4410829000008,left,1.0,25.613486999999623,,,,,,,,,,,,,,,,,,,,,,,,,,,,,,,sub-139,1.0,random_dot,119.5887581789828,
right,right,accuracy,,,,,0.0,1.0,1.0,0.0,23.0,1.0,47.0,1.0,400.4485340000001,,,,,,,,,400.4419678000004,400.5483904000002,401.3486709000008,401.3408081000007,401.34082880000005,401.3486709000008,401.3486709000008,401.3486709000008,,401.9828339000005,right,1.0,25.6923526999999,,,,,,,,,,,,,,,,,,,,,,,,,,,,,,,sub-139,1.0,random_dot,119.5887581789828,
right,right,accuracy,,,,,0.0,1.0,1.0,0.0,24.0,0.0,48.0,1.0,401.9901938000002,,,,,,,,,401.9843916,403.1903321,403.9900404,403.9825376000008,403.9825764000007,403.9900404,403.9900404,403.9900404,,404.7826428000008,right,1.0,25.855842500000108,,,,,,,,,,,,,,,,,,,,,,,,,,,,,,,sub-139,1.0,random_dot,119.5887581789828,
left,left,accuracy,,,,,0.0,1.0,1.0,0.0,24.0,1.0,49.0,0.0,404.7902148000003,,,,,,,,,404.7840756000005,404.8902145000002,405.6901430000007,405.6828837000003,405.6829184000008,405.6901430000007,405.6901430000007,405.6901430000007,,407.02516040000046,left,1.0,26.398831800000156,,,,,,,,,,,,,,,,,,,,,,,,,,,,,,,sub-139,1.0,random_dot,119.5887581789828,
left,left,accuracy,,,,,0.0,1.0,1.0,0.0,25.0,0.0,50.0,0.0,407.03173700000025,,,,,,,,,407.02604390000033,407.8332277,408.6403540000001,408.6323404000004,408.6323605000007,408.6403540000001,408.6403540000001,408.6403540000001,,409.45857590000014,left,1.0,25.87453219999952,,,,,,,,,,,,,,,,,,,,,,,,,,,,,,,sub-139,1.0,random_dot,119.5887581789828,
right,right,accuracy,,,,,0.0,1.0,1.0,0.0,25.0,1.0,51.0,1.0,409.4652438000003,,,,,,,,,409.4594453,410.26476360000015,411.06521130000056,411.05756180000026,411.0575815000002,411.06521130000056,411.06521130000056,411.06521130000056,,411.5991455000003,right,1.0,25.59174500000063,,,,,,,,,,,,,,,,,,,,,,,,,,,,,,,sub-139,1.0,random_dot,119.5887581789828,
right,right,accuracy,,,,,0.0,1.0,1.0,0.0,26.0,0.0,52.0,1.0,411.6068481000002,,,,,,,,,411.6001425000004,411.7070424000003,412.5074115000007,412.4999763000005,412.49999560000015,412.5074115000007,412.5074115000007,412.5074115000007,,413.11619640000026,right,1.0,25.66724860000068,,,,,,,,,,,,,,,,,,,,,,,,,,,,,,,sub-139,1.0,random_dot,119.5887581789828,
left,left,accuracy,,,,,0.0,1.0,1.0,0.0,26.0,1.0,53.0,0.0,413.1233534000002,,,,,,,,,413.1172290000004,413.2235172999999,414.02351890000045,414.0159556000008,414.0159889000006,414.02351890000045,414.02351890000045,414.02351890000045,,414.7915688000003,right,0.0,25.827808999999437,,,,,,,,,,,,,,,,,,,,,,,,,,,,,,,sub-139,1.0,random_dot,119.5887581789828,
left,left,accuracy,,,,,0.0,1.0,1.0,0.0,27.0,0.0,54.0,0.0,414.798914,,,,,,,,,414.7924697000008,414.8985716000007,415.6985335,415.6908869000008,415.6909056000004,415.6985335,415.6985335,415.6985335,,416.7329345000008,right,0.0,26.09485039999981,,,,,,,,,,,,,,,,,,,,,,,,,,,,,,,sub-139,1.0,random_dot,119.5887581789828,
right,right,accuracy,,,,,0.0,1.0,1.0,0.0,27.0,1.0,55.0,1.0,416.7401955000005,,,,,,,,,416.7338456000007,417.54018540000015,418.33992750000016,418.3333815000005,418.33341400000063,418.33992750000016,418.33992750000016,418.33992750000016,,419.0081351000008,right,1.0,25.728909499999645,,,,,,,,,,,,,,,,,,,,,,,,,,,,,,,sub-139,1.0,random_dot,119.5887581789828,
left,left,accuracy,,,,,0.0,1.0,1.0,0.0,28.0,0.0,56.0,0.0,419.0155459000007,,,,,,,,,419.0090293000003,419.8152367000002,420.6154240000005,420.6077735000008,420.6077943,420.6154240000005,420.6154240000005,420.6154240000005,,421.2915452000007,left,1.0,25.733015599999817,,,,,,,,,,,,,,,,,,,,,,,,,,,,,,,sub-139,1.0,random_dot,119.5887581789828,
right,right,accuracy,,,,,0.0,1.0,1.0,0.0,28.0,1.0,57.0,1.0,421.2986102000005,,,,,,,,,421.29242740000063,421.64861650000057,422.4484973000008,422.4405477,422.4405673000001,422.4484973000008,422.4484973000008,422.4484973000008,,423.0913644000002,left,0.0,25.701866899999917,,,,,,,,,,,,,,,,,,,,,,,,,,,,,,,sub-139,1.0,random_dot,119.5887581789828,
left,left,accuracy,,,,,0.0,1.0,1.0,0.0,29.0,0.0,58.0,0.0,423.0986242000008,,,,,,,,,423.0923812000001,424.2986455,425.0986555,425.09124710000015,425.0912662999999,425.0986555,425.0986555,425.0986555,,425.8492982000007,left,1.0,25.811922900000354,,,,,,,,,,,,,,,,,,,,,,,,,,,,,,,sub-139,1.0,random_dot,119.5887581789828,
right,right,accuracy,,,,,0.0,1.0,1.0,0.0,29.0,1.0,59.0,1.0,425.8570687000001,,,,,,,,,425.8501716999999,425.9487092,426.7486281000001,426.7408183000007,426.7408363000004,426.7486281000001,426.7486281000001,426.7486281000001,,427.3654524000003,right,1.0,25.67413260000012,,,,,,,,,,,,,,,,,,,,,,,,,,,,,,,sub-139,1.0,random_dot,119.5887581789828,
,,accuracy,,,,,0.0,1.0,1.0,0.0,,,,,,,,,,,,,,,,,,,,,,,,,,,,,,,,,,,,,,,,,,,,,,,,,,,,,,,,,sub-139,1.0,random_dot,119.5887581789828,
,,,,,,,,,,,,,,,,,,,,,,,,,,,,,,,,,,,,,,,,,,,,,,,,,,,,,,,,,,,,,,,427.3661632000003,427.3735219,432.3736809000002,432.3661785000004,sub-139,,,,
