direction,corrAns,randomInstr,practice_trials.thisRepN,practice_trials.thisTrialN,practice_trials.thisN,practice_trials.thisIndex,instr_trials.thisRepN,instr_trials.thisTrialN,instr_trials.thisN,instr_trials.thisIndex,test_trials.thisRepN,test_trials.thisTrialN,test_trials.thisN,test_trials.thisIndex,thisRow.t,notes,general_instruction.started,textGeneralInstr.started,respGeneralInstr.started,general_instruction.stopped,respGeneralInstr.keys,respGeneralInstr.rt,respGeneralInstr.duration,ITI.started,fixcross.started,fixcross.stopped,ITI.stopped,dots.started,backgroundDots.started,stimulusDots.started,respDots.started,dots.stopped,respDots.keys,respDots.corr,respDots.rt,respDots.duration,feedback.started,textFeedback.started,feedback.stopped,textFeedback.stopped,stimulusDots.stopped,info.started,textInfo.started,keyRespInfo.started,info.stopped,keyRespInfo.keys,keyRespInfo.rt,keyRespInfo.duration,test_instruction.started,textTestInstr.started,respTestInstr.started,test_instruction.stopped,respTestInstr.keys,respTestInstr.rt,respTestInstr.duration,random_instruction.started,textRandomInstr.started,respRandomInstr.started,random_instruction.stopped,respRandomInstr.keys,respRandomInstr.rt,respRandomInstr.duration,goodbye.started,textGoodbye.started,textGoodbye.stopped,goodbye.stopped,participant,session,expName,frameRate,Unnamed: 74
,,,,,,,,,,,,,,,,,0.0044002999784424,0.0088230000110343,0.0088230000110343,66.73683129996061,space,100.50059840001632,,,,,,,,,,,,,,,,,,,,,,,,,,,,,,,,,,,,,,,,,,,,,sub-101,1.0,random_dot,60.98896040716636,
left,left,,0.0,0.0,0.0,0.0,,,,,,,,,66.763712999993,,,,,,,,,66.75753729999997,67.10123069997644,67.90472890000092,67.88603860000148,67.88607859995682,67.90472890000092,67.90472890000092,67.90472890000092,72.49061249999795,left,1.0,38.34987599996384,,72.49297580000712,72.51377399999183,73.00532679999014,,,,,,,,,,,,,,,,,,,,,,,,,,,,sub-101,1.0,random_dot,60.98896040716636,
right,right,,0.0,1.0,1.0,1.0,,,,,,,,,73.02162610000232,,,,,,,,,73.00613449997036,73.8055056000012,74.60738309996668,74.59102110000094,74.59106869995594,74.60738309996668,74.60738309996668,74.60738309996668,79.26144039997598,right,1.0,38.41727340000216,,79.26194940001005,79.27586009999504,79.76070489996346,79.7763082999736,,,,,,,,,,,,,,,,,,,,,,,,,,,sub-101,1.0,random_dot,60.98896040716636,
left,left,,1.0,0.0,2.0,0.0,,,,,,,,,79.7763082999736,,,,,,,,,79.76124239998171,80.97691029997077,81.77860949997557,81.76176739996299,81.76179530000081,81.77860949997557,81.77860949997557,81.77860949997557,91.62065309996252,left,1.0,43.60594460001448,,91.62158759997692,91.6345588999684,92.1195079999743,92.1350817999919,86.76524290000089,,,,,,,,,,,,,,,,,,,,,,,,,,sub-101,1.0,random_dot,60.98896040716636,
right,right,,1.0,1.0,3.0,1.0,,,,,,,,,92.1350817999919,,,,,,,,,92.12013120000483,92.93524949997663,93.73663399997169,93.72033529996406,93.7203703999985,93.73663399997169,93.73663399997169,93.73663399997169,99.50907679996452,left,0.0,39.548208500025794,,99.51024929998675,99.52764039998874,100.02375279995611,,98.72349459998075,,,,,,,,,,,,,,,,,,,,,,,,,,sub-101,1.0,random_dot,60.98896040716636,
left,left,,2.0,0.0,4.0,0.0,,,,,,,,,100.04031389998272,,,,,,,,,100.02427409996744,100.82415749999927,101.62553789996308,101.6092877999763,101.60933389997808,101.62553789996308,101.62553789996308,101.62553789996308,103.89917649998095,right,0.0,36.04901969997445,,103.90033049997874,103.90955739998026,104.39439579995816,104.41038199997274,,,,,,,,,,,,,,,,,,,,,,,,,,,sub-101,1.0,random_dot,60.98896040716636,
right,right,,2.0,1.0,5.0,1.0,,,,,,,,,104.41038199997274,,,,,,,,,104.39586190000408,104.76004570000804,105.56117589998756,105.54527890001192,105.54536679998272,105.56117589998756,105.56117589998756,105.56117589998756,107.0639547999599,left,0.0,35.273442600038834,,107.06499990000157,107.07827759999782,107.56305269995936,107.57878949999576,,,,,,,,,,,,,,,,,,,,,,,,,,,sub-101,1.0,random_dot,60.98896040716636,
right,right,,3.0,0.0,6.0,1.0,,,,,,,,,107.57878949999576,,,,,,,,,107.56373769999482,108.3792594000115,109.1801298999926,109.163627300004,109.16365299996689,109.1801298999926,109.1801298999926,109.1801298999926,112.334585900011,right,1.0,36.92466850002529,,112.3354463999858,112.34849899995606,112.83309179998469,112.84882740001194,,,,,,,,,,,,,,,,,,,,,,,,,,,sub-101,1.0,random_dot,60.98896040716636,
left,left,,3.0,1.0,7.0,0.0,,,,,,,,,112.84882740001194,,,,,,,,,112.8338096999796,112.94898609997472,113.75101879995782,113.73400999995648,113.73404439998558,113.75101879995782,113.75101879995782,113.75101879995782,118.38853900000686,right,0.0,38.41423689998919,,118.389377399988,118.40251859999262,118.88727569999172,118.90326230000936,,,,,,,,,,,,,,,,,,,,,,,,,,,sub-101,1.0,random_dot,60.98896040716636,
right,right,,4.0,0.0,8.0,1.0,,,,,,,,,118.90326230000936,,,,,,,,,118.88770079996902,119.00316219998058,119.80441869999048,119.7885130000068,119.78854829998454,119.80441869999048,119.80441869999048,119.80441869999048,121.10785510001006,left,0.0,35.070204799994826,,121.10921789996792,121.1213904999895,121.60595080000348,121.62162009999156,,,,,,,,,,,,,,,,,,,,,,,,,,,sub-101,1.0,random_dot,60.98896040716636,
left,left,,4.0,1.0,9.0,0.0,,,,,,,,,121.62162009999156,,,,,,,,,121.60638069995912,122.82242619997125,123.62412100000074,123.60758969996824,123.60761869995622,123.62412100000074,123.62412100000074,123.62412100000074,126.2105568999541,right,0.0,36.3502659999649,,126.21157270000548,126.22484239999903,126.70986780000383,126.7253681999864,,,,,,,,,,,,,,,,,,,,,,,,,,,sub-101,1.0,random_dot,60.98896040716636,
left,left,,5.0,0.0,10.0,0.0,,,,,,,,,126.7253681999864,,,,,,,,,126.71073769999202,127.52600029995664,128.32737869996345,128.3110883999616,128.31112569995457,128.32737869996345,128.32737869996345,128.32737869996345,128.78015389997745,left,1.0,34.21697219996713,,128.78193930000998,128.79373989999294,129.2780003999942,129.29351339995628,,,,,,,,,,,,,,,,,,,,,,,,,,,sub-101,1.0,random_dot,60.98896040716636,
right,right,,5.0,1.0,11.0,1.0,,,,,,,,,129.29351339995628,,,,,,,,,129.27860640001018,129.39369459997397,130.1952547999681,130.17887110001175,130.1789495999692,130.1952547999681,130.1952547999681,130.1952547999681,133.49896029999945,right,1.0,37.06924870004877,,133.49947829998564,133.51308850001078,133.99781279999297,134.01339119998738,,,,,,,,,,,,,,,,,,,,,,,,,,,sub-101,1.0,random_dot,60.98896040716636,
left,left,,6.0,0.0,12.0,0.0,,,,,,,,,134.01339119998738,,,,,,,,,133.99846299999626,134.8140882999869,135.6160992999794,135.59895019995747,135.59897960000671,135.6160992999794,135.6160992999794,135.6160992999794,138.16844829998445,left,1.0,36.31844339997042,,138.16931729996577,138.18292230000952,138.66784959996585,138.68334629997844,,,,,,,,,,,,,,,,,,,,,,,,,,,sub-101,1.0,random_dot,60.98896040716636,
right,right,,6.0,1.0,13.0,1.0,,,,,,,,,138.68334629997844,,,,,,,,,138.66877220000606,139.03354689996922,139.83524829999078,139.81897419999586,139.81903009995585,139.83524829999078,139.83524829999078,139.83524829999078,143.6058977000066,right,1.0,37.53950140002416,,143.60664989997167,143.6201480999589,144.1050791000016,144.12043599999743,,,,,,,,,,,,,,,,,,,,,,,,,,,sub-101,1.0,random_dot,60.98896040716636,
left,left,,7.0,0.0,14.0,0.0,,,,,,,,,144.12043599999743,,,,,,,,,144.10581420001108,144.47078659996623,145.27233780000824,145.25539690000005,145.25545259995852,145.27233780000824,145.27233780000824,145.27233780000824,146.2572453999892,left,1.0,34.75174410000909,,146.25789000000805,146.27165289997356,146.75682969996706,146.7723088999628,,,,,,,,,,,,,,,,,,,,,,,,,,,sub-101,1.0,random_dot,60.98896040716636,
right,right,,7.0,1.0,15.0,1.0,,,,,,,,,146.7723088999628,,,,,,,,,146.7578368000104,147.9733332999749,148.77503520000027,148.75816609995672,148.75818929995876,148.77503520000027,148.77503520000027,148.77503520000027,150.81119169999147,right,1.0,35.80942820000928,,150.81229239999084,150.8251185999834,151.30995460000122,151.3254926999798,,,,,,,,,,,,,,,,,,,,,,,,,,,sub-101,1.0,random_dot,60.98896040716636,
right,right,,8.0,0.0,16.0,1.0,,,,,,,,,151.3254926999798,,,,,,,,,151.31065339996712,151.67574099998455,152.47710109996842,152.46103959996253,152.4610882999841,152.47710109996842,152.47710109996842,152.47710109996842,154.78026989998762,left,0.0,36.06750420003664,,154.78104849997908,154.79425869998522,155.27902009995887,155.29468130000168,,,,,,,,,,,,,,,,,,,,,,,,,,,sub-101,1.0,random_dot,60.98896040716636,
left,left,,8.0,1.0,17.0,0.0,,,,,,,,,155.29468130000168,,,,,,,,,155.2801654000068,156.49549459997797,157.2965944999596,157.28047619998688,157.28051720000803,157.2965944999596,157.2965944999596,157.2965944999596,162.50294360000407,left,1.0,38.97811490000458,,162.50432750000618,162.51973579998594,163.01720389997354,,162.28367599996272,,,,,,,,,,,,,,,,,,,,,,,,,,sub-101,1.0,random_dot,60.98896040716636,
left,left,,9.0,0.0,18.0,0.0,,,,,,,,,163.03325469995616,,,,,,,,,163.01812839997,163.36688990000405,164.16856749996077,164.1522612000117,164.15229910000926,164.16856749996077,164.16856749996077,164.16856749996077,165.47052029997576,right,0.0,35.07528520002961,,165.47104209999088,165.48490729997866,165.97011489997385,165.98528849997092,,,,,,,,,,,,,,,,,,,,,,,,,,,sub-101,1.0,random_dot,60.98896040716636,
right,right,,9.0,1.0,19.0,1.0,,,,,,,,,165.98528849997092,,,,,,,,,165.9710712999804,167.1860819999711,167.98771419998957,167.97116580000147,167.97119849995943,167.98771419998957,167.98771419998957,167.98771419998957,168.45668060000753,left,0.0,34.2361689999816,,168.45758819999173,168.47042570001213,168.9553590999567,168.97095389995957,,,,,,,,,,,,,,,,,,,,,,,,,,,sub-101,1.0,random_dot,60.98896040716636,
,,,,,,,,,,,,,,,,,,,,,,,,,,,,,,,,,,,,,,,,,,168.95547469996382,168.97095389995957,168.97095389995957,176.41130360000534,space,41.212961599987466,,,,,,,,,,,,,,,,,,,,sub-101,1.0,random_dot,60.98896040716636,
,,,,,,,,,,,,,,,,,,,,,,,,,,,,,,,,,,,,,,,,,,,,,,,,,176.4114036000101,176.42590430000564,176.42590430000564,200.32788120000623,space,57.66838559997268,,,,,,,,,,,,,sub-101,1.0,random_dot,60.98896040716636,
left,left,speed,,,,,0.0,0.0,0.0,1.0,0.0,0.0,0.0,0.0,203.17729149997467,,,,,,,,,203.17094709997764,203.27754330000607,204.0789271999965,204.06224399997157,204.0622788000037,204.0789271999965,204.0789271999965,204.0789271999965,205.79964069998823,left,1.0,35.49530519999098,,,,,,,,,,,,,,,,,,,,,200.33549179998224,200.3680754000088,200.3680754000088,203.16227349999824,space,36.55706580000697,,,,,,sub-101,1.0,random_dot,60.98896040716636,
right,right,speed,,,,,0.0,0.0,0.0,1.0,0.0,1.0,1.0,1.0,205.8124736999744,,,,,,,,,205.80190959997708,206.6135493000038,207.4145697999629,207.39812869997692,207.3981569999596,207.4145697999629,207.4145697999629,207.4145697999629,209.0680374999647,left,0.0,35.41954829997849,,,,,,,,,,,,,,,,,,,,,,,,,,,,,,,,sub-101,1.0,random_dot,60.98896040716636,
right,right,speed,,,,,0.0,0.0,0.0,1.0,1.0,0.0,2.0,1.0,209.08156249998137,,,,,,,,,209.06994889996716,210.28252839995548,211.0838637999841,211.06724979996216,211.06729459995404,211.0838637999841,211.0838637999841,211.0838637999841,213.3710618999903,right,1.0,36.05035789997783,,,,,,,,,,,,,,,,,,,,,,,,,,,,,,,,sub-101,1.0,random_dot,60.98896040716636,
left,left,speed,,,,,0.0,0.0,0.0,1.0,1.0,1.0,3.0,0.0,213.38464389997532,,,,,,,,,213.3740555999684,214.58537459996296,215.386786499992,215.3706131000072,215.37067119998392,215.386786499992,215.386786499992,215.386786499992,216.55566479999104,left,1.0,34.93732309999177,,,,,,,,,,,,,,,,,,,,,,,,,,,,,,,,sub-101,1.0,random_dot,60.98896040716636,
right,right,speed,,,,,0.0,0.0,0.0,1.0,2.0,0.0,4.0,1.0,216.56992350000652,,,,,,,,,216.55716209998357,216.6700419000117,217.47151589998973,217.4554652000079,217.45549610001035,217.47151589998973,217.47151589998973,217.47151589998973,220.05845069995848,right,1.0,36.352201500034425,,,,,,,,,,,,,,,,,,,,,,,,,,,,,,,,sub-101,1.0,random_dot,60.98896040716636,
left,left,speed,,,,,0.0,0.0,0.0,1.0,2.0,1.0,5.0,0.0,220.0723227999988,,,,,,,,,220.06040409998968,220.87296599999536,221.67450819996884,221.65808520000428,221.6581242000102,221.67450819996884,221.67450819996884,221.67450819996884,223.1278453999548,left,1.0,35.23072150000371,,,,,,,,,,,,,,,,,,,,,,,,,,,,,,,,sub-101,1.0,random_dot,60.98896040716636,
left,left,speed,,,,,0.0,0.0,0.0,1.0,3.0,0.0,6.0,0.0,223.14108829997716,,,,,,,,,223.129152999958,224.34205340000332,225.1438075999613,225.1276192999794,225.1276648999774,225.1438075999613,225.1438075999613,225.1438075999613,226.54607300000495,left,1.0,35.17055540002184,,,,,,,,,,,,,,,,,,,,,,,,,,,,,,,,sub-101,1.0,random_dot,60.98896040716636,
right,right,speed,,,,,0.0,0.0,0.0,1.0,3.0,1.0,7.0,1.0,226.56002649996665,,,,,,,,,226.5477463999996,226.66033260000404,227.4617721000104,227.4452557999757,227.4452833000105,227.4617721000104,227.4617721000104,227.4617721000104,228.24737950001145,right,1.0,34.551892199961,,,,,,,,,,,,,,,,,,,,,,,,,,,,,,,,sub-101,1.0,random_dot,60.98896040716636,
left,left,speed,,,,,0.0,0.0,0.0,1.0,4.0,0.0,8.0,0.0,228.261332199967,,,,,,,,,228.2486701000016,229.4621005000081,230.26369479997084,230.2474605999887,230.24750810000117,230.26369479997084,230.26369479997084,230.26369479997084,231.18330019997663,left,1.0,34.69096780003747,,,,,,,,,,,,,,,,,,,,,,,,,,,,,,,,sub-101,1.0,random_dot,60.98896040716636,
right,right,speed,,,,,0.0,0.0,0.0,1.0,4.0,1.0,9.0,1.0,231.19687589997196,,,,,,,,,231.1853743999964,231.54706969996917,232.34842329996167,232.3323160999571,232.33241430000635,232.34842329996167,232.34842329996167,232.34842329996167,233.5009802999557,right,1.0,34.91643480001949,,,,,,,,,,,,,,,,,,,,,,,,,,,,,,,,sub-101,1.0,random_dot,60.98896040716636,
right,right,speed,,,,,0.0,0.0,0.0,1.0,5.0,0.0,10.0,1.0,233.5149597999989,,,,,,,,,233.5037997000036,234.3155607999652,235.1170570999966,235.1007332999725,235.1007692999556,235.1170570999966,235.1170570999966,235.1170570999966,236.369909400004,right,1.0,35.028591400012374,,,,,,,,,,,,,,,,,,,,,,,,,,,,,,,,sub-101,1.0,random_dot,60.98896040716636,
left,left,speed,,,,,0.0,0.0,0.0,1.0,5.0,1.0,11.0,0.0,236.3838105999748,,,,,,,,,236.37186129996556,237.58440599997996,238.38591969996924,238.36940639995737,238.36946949997215,238.38591969996924,238.38591969996924,238.38591969996924,239.08852900000056,left,1.0,34.468307700008154,,,,,,,,,,,,,,,,,,,,,,,,,,,,,,,,sub-101,1.0,random_dot,60.98896040716636,
left,left,speed,,,,,0.0,0.0,0.0,1.0,6.0,0.0,12.0,0.0,239.10222279996376,,,,,,,,,239.09024200000567,239.2023120999802,240.00373050000053,239.98768500000008,239.9877337999642,240.00373050000053,240.00373050000053,240.00373050000053,240.80556879995856,left,1.0,34.57118959998479,,,,,,,,,,,,,,,,,,,,,,,,,,,,,,,,sub-101,1.0,random_dot,60.98896040716636,
right,right,speed,,,,,0.0,0.0,0.0,1.0,6.0,1.0,13.0,1.0,240.8198759999941,,,,,,,,,240.8072026000009,241.6204569999827,242.42217749997508,242.40651989995968,242.4065552999964,242.42217749997508,242.42217749997508,242.42217749997508,243.0244190999656,right,1.0,34.363933700020425,,,,,,,,,,,,,,,,,,,,,,,,,,,,,,,,sub-101,1.0,random_dot,60.98896040716636,
right,right,speed,,,,,0.0,0.0,0.0,1.0,7.0,0.0,14.0,1.0,243.03826979995935,,,,,,,,,243.02658869995503,243.8388389999745,244.6401823000051,244.6239246999612,244.6239754999988,244.6401823000051,244.6401823000051,244.6401823000051,246.14325139997527,right,1.0,35.27560870000161,,,,,,,,,,,,,,,,,,,,,,,,,,,,,,,,sub-101,1.0,random_dot,60.98896040716636,
left,left,speed,,,,,0.0,0.0,0.0,1.0,7.0,1.0,15.0,0.0,246.1569042999763,,,,,,,,,246.14518200000748,246.9575598000083,247.75882529997037,247.74245309998517,247.7424966999679,247.75882529997037,247.75882529997037,247.75882529997037,248.41135459998625,left,1.0,34.41668949997984,,,,,,,,,,,,,,,,,,,,,,,,,,,,,,,,sub-101,1.0,random_dot,60.98896040716636,
right,right,speed,,,,,0.0,0.0,0.0,1.0,8.0,0.0,16.0,1.0,248.42503909999505,,,,,,,,,248.41272399999437,248.52520189998904,249.326773400011,249.3101804999751,249.31020469998475,249.326773400011,249.326773400011,249.326773400011,250.1452856999822,right,1.0,34.589212299964856,,,,,,,,,,,,,,,,,,,,,,,,,,,,,,,,sub-101,1.0,random_dot,60.98896040716636,
left,left,speed,,,,,0.0,0.0,0.0,1.0,8.0,1.0,17.0,0.0,250.15970179997385,,,,,,,,,250.14717010001183,250.509730699996,251.31162529997528,251.29528449999637,251.29551219998396,251.31162529997528,251.31162529997528,251.31162529997528,251.880717299995,left,1.0,34.34427750000032,,,,,,,,,,,,,,,,,,,,,,,,,,,,,,,,sub-101,1.0,random_dot,60.98896040716636,
left,left,speed,,,,,0.0,0.0,0.0,1.0,9.0,0.0,18.0,0.0,251.89413029997377,,,,,,,,,251.883512099972,253.09498499997423,253.89674160000868,253.8797193999635,253.87973980000243,253.89674160000868,253.89674160000868,253.89674160000868,254.8151482999674,left,1.0,34.68831489997683,,,,,,,,,,,,,,,,,,,,,,,,,,,,,,,,sub-101,1.0,random_dot,60.98896040716636,
right,right,speed,,,,,0.0,0.0,0.0,1.0,9.0,1.0,19.0,1.0,254.8294278999674,,,,,,,,,254.81626250001136,255.6301538000116,256.4316766999545,256.4155638999655,256.4156149000046,256.4316766999545,256.4316766999545,256.4316766999545,257.3173327000113,left,0.0,34.653917699994054,,,,,,,,,,,,,,,,,,,,,,,,,,,,,,,,sub-101,1.0,random_dot,60.98896040716636,
right,right,speed,,,,,0.0,0.0,0.0,1.0,10.0,0.0,20.0,1.0,257.3312614999595,,,,,,,,,257.3191356000025,257.43106849998003,258.232729499985,258.2157225999981,258.2157410999644,258.232729499985,258.232729499985,258.232729499985,259.16896889999043,left,0.0,34.70319060003385,,,,,,,,,,,,,,,,,,,,,,,,,,,,,,,,sub-101,1.0,random_dot,60.98896040716636,
left,left,speed,,,,,0.0,0.0,0.0,1.0,10.0,1.0,21.0,0.0,259.1828620999586,,,,,,,,,259.17168029997265,259.98309990001144,260.78461299999617,260.7685012999573,260.76854509999976,260.78461299999617,260.78461299999617,260.78461299999617,261.5710454999935,left,1.0,34.5612443999853,,,,,,,,,,,,,,,,,,,,,,,,,,,,,,,,sub-101,1.0,random_dot,60.98896040716636,
left,left,speed,,,,,0.0,0.0,0.0,1.0,11.0,0.0,22.0,0.0,261.58414389996324,,,,,,,,,261.5739193999907,261.9342547999695,262.73631639999803,262.7193699000054,262.7194027999649,262.73631639999803,262.73631639999803,262.73631639999803,263.5385571999941,left,1.0,34.56893690000288,,,,,,,,,,,,,,,,,,,,,,,,,,,,,,,,sub-101,1.0,random_dot,60.98896040716636,
right,right,speed,,,,,0.0,0.0,0.0,1.0,11.0,1.0,23.0,1.0,263.55218419997254,,,,,,,,,263.54051769996295,263.6521948999725,264.453666699992,264.4374354999745,264.43747189996066,264.453666699992,264.453666699992,264.453666699992,265.8400494999951,left,0.0,35.161777600005735,,,,,,,,,,,,,,,,,,,,,,,,,,,,,,,,sub-101,1.0,random_dot,60.98896040716636,
left,left,speed,,,,,0.0,0.0,0.0,1.0,12.0,0.0,24.0,0.0,265.8537787999958,,,,,,,,,265.84166939998977,266.6543736999738,267.45564559998456,267.43957409996074,267.43961239996133,267.45564559998456,267.45564559998456,267.45564559998456,268.94217970001046,left,1.0,35.24887139996281,,,,,,,,,,,,,,,,,,,,,,,,,,,,,,,,sub-101,1.0,random_dot,60.98896040716636,
right,right,speed,,,,,0.0,0.0,0.0,1.0,12.0,1.0,25.0,1.0,268.9557753999834,,,,,,,,,268.94417239999166,269.3062931000022,270.10728180001024,270.0918128999765,270.091850399971,270.10728180001024,270.10728180001024,270.10728180001024,272.74473969999235,right,1.0,36.40835640003206,,,,,,,,,,,,,,,,,,,,,,,,,,,,,,,,sub-101,1.0,random_dot,60.98896040716636,
right,right,speed,,,,,0.0,0.0,0.0,1.0,13.0,0.0,26.0,1.0,272.75860870000906,,,,,,,,,272.74648039997555,273.1089385999949,273.9103503999649,273.8939209000091,273.8939565999899,273.9103503999649,273.9103503999649,273.9103503999649,275.8988619999727,left,0.0,35.764602300012484,,,,,,,,,,,,,,,,,,,,,,,,,,,,,,,,sub-101,1.0,random_dot,60.98896040716636,
left,left,speed,,,,,0.0,0.0,0.0,1.0,13.0,1.0,27.0,0.0,275.91077059996314,,,,,,,,,275.9005488000112,277.1115125999786,277.91280699998606,277.8962584999972,277.896299999964,277.91280699998606,277.91280699998606,277.91280699998606,279.7995395999751,left,1.0,35.65246760001173,,,,,,,,,,,,,,,,,,,,,,,,,,,,,,,,sub-101,1.0,random_dot,60.98896040716636,
right,right,speed,,,,,0.0,0.0,0.0,1.0,14.0,0.0,28.0,1.0,279.8132906999672,,,,,,,,,279.80148039996857,280.1636256999918,280.96549329999834,280.94876150001073,280.94880829995964,280.96549329999834,280.96549329999834,280.96549329999834,282.4349742999766,right,1.0,35.24025370000163,,,,,,,,,,,,,,,,,,,,,,,,,,,,,,,,sub-101,1.0,random_dot,60.98896040716636,
left,left,speed,,,,,0.0,0.0,0.0,1.0,14.0,1.0,29.0,0.0,282.448380399961,,,,,,,,,282.43735580000794,282.54840159998275,283.3499492999981,283.33358839998255,283.3336391999619,283.3499492999981,283.3499492999981,283.3499492999981,285.88655180000933,right,0.0,36.30510180001147,,,,,,,,,,,,,,,,,,,,,,,,,,,,,,,,sub-101,1.0,random_dot,60.98896040716636,
left,left,speed,,,,,0.0,0.0,0.0,1.0,15.0,0.0,30.0,0.0,285.90086220001103,,,,,,,,,285.88835839997046,287.10164619999705,287.90308279998135,287.88667949999217,287.88671220000833,287.90308279998135,287.90308279998135,287.90308279998135,288.9889937999542,left,1.0,34.85316609998699,,,,,,,,,,,,,,,,,,,,,,,,,,,,,,,,sub-101,1.0,random_dot,60.98896040716636,
right,right,speed,,,,,0.0,0.0,0.0,1.0,15.0,1.0,31.0,1.0,289.0028713999782,,,,,,,,,288.9911500999588,289.8034493000014,290.604940499994,290.5882977999863,290.5883249999606,290.604940499994,290.604940499994,290.604940499994,292.55809710000176,left,0.0,35.72058330004802,,,,,,,,,,,,,,,,,,,,,,,,,,,,,,,,sub-101,1.0,random_dot,60.98896040716636,
left,left,speed,,,,,0.0,0.0,0.0,1.0,16.0,0.0,32.0,0.0,292.57216069998685,,,,,,,,,292.55990659998497,293.37254690000555,294.1748399999924,294.1576908999705,294.1577373999753,294.1748399999924,294.1748399999924,294.1748399999924,296.2104298999766,left,1.0,35.80992059997516,,,,,,,,,,,,,,,,,,,,,,,,,,,,,,,,sub-101,1.0,random_dot,60.98896040716636,
right,right,speed,,,,,0.0,0.0,0.0,1.0,16.0,1.0,33.0,1.0,296.2245800999808,,,,,,,,,296.2118378999876,296.5745689999894,297.3762399000116,297.3598875000025,297.3599234999856,297.3762399000116,297.3762399000116,297.3762399000116,300.0299576999969,left,0.0,36.42920399998548,,,,,,,,,,,,,,,,,,,,,,,,,,,,,,,,sub-101,1.0,random_dot,60.98896040716636,
left,left,speed,,,,,0.0,0.0,0.0,1.0,17.0,0.0,34.0,0.0,300.0435804000008,,,,,,,,,300.0321927999612,300.14376529998844,300.9453572999919,300.92867779999506,300.9287149999873,300.9453572999919,300.9453572999919,300.9453572999919,302.2310326999868,left,1.0,35.05924800003413,,,,,,,,,,,,,,,,,,,,,,,,,,,,,,,,sub-101,1.0,random_dot,60.98896040716636,
right,right,speed,,,,,0.0,0.0,0.0,1.0,17.0,1.0,35.0,1.0,302.2453919000109,,,,,,,,,302.2326622999972,303.0459088999778,303.8473660000018,303.83076849998906,303.8308068999904,303.8473660000018,303.8473660000018,303.8473660000018,306.0680579000036,left,0.0,35.997227799962275,,,,,,,,,,,,,,,,,,,,,,,,,,,,,,,,sub-101,1.0,random_dot,60.98896040716636,
left,left,speed,,,,,0.0,0.0,0.0,1.0,18.0,0.0,36.0,0.0,306.0813671000069,,,,,,,,,306.07092809997266,306.8819412000012,307.68357649998507,307.6666119999718,307.66663619998144,307.68357649998507,307.68357649998507,307.68357649998507,309.8699299999862,left,1.0,35.95107990002725,,,,,,,,,,,,,,,,,,,,,,,,,,,,,,,,sub-101,1.0,random_dot,60.98896040716636,
right,right,speed,,,,,0.0,0.0,0.0,1.0,18.0,1.0,37.0,1.0,309.88392799999565,,,,,,,,,309.87162220000755,311.08482379995985,311.8861777999555,311.86998779996065,311.87003519997234,311.8861777999555,311.8861777999555,311.8861777999555,316.3744987999671,left,0.0,38.2589720999822,,,,,,,,,,,,,,,,,,,,,,,,,,,,,,,,sub-101,1.0,random_dot,60.98896040716636,
right,right,speed,,,,,0.0,0.0,0.0,1.0,19.0,0.0,38.0,1.0,316.3883805999649,,,,,,,,,316.37605779996375,316.48834989999887,317.2901605999796,317.27354089997243,317.27359080000315,317.2901605999796,317.2901605999796,317.2901605999796,321.0944527999964,left,0.0,37.57500120002078,,,,,,,,,,,,,,,,,,,,,,,,,,,,,,,,sub-101,1.0,random_dot,60.98896040716636,
left,left,speed,,,,,0.0,0.0,0.0,1.0,19.0,1.0,39.0,0.0,321.1083028999856,,,,,,,,,321.09646619996056,321.9088776999852,322.71006289997604,322.6937355999835,322.6937565999688,322.71006289997604,322.71006289997604,322.71006289997604,326.2807723999722,left,1.0,37.334438399993815,,,,,,,,,,,,,,,,,,,,,,,,,,,,,,,,sub-101,1.0,random_dot,60.98896040716636,
left,left,speed,,,,,0.0,0.0,0.0,1.0,20.0,0.0,40.0,0.0,326.29501409997465,,,,,,,,,326.28344569995534,326.3953038000036,327.19669239997165,327.1805642999825,327.18060889997287,327.19669239997165,327.19669239997165,327.19669239997165,328.2491058000014,left,1.0,34.82902910001576,,,,,,,,,,,,,,,,,,,,,,,,,,,,,,,,sub-101,1.0,random_dot,60.98896040716636,
right,right,speed,,,,,0.0,0.0,0.0,1.0,20.0,1.0,41.0,1.0,328.26295919995755,,,,,,,,,328.25021410000045,329.06389910000144,329.86495149997063,329.848416999972,329.84845150000183,329.86495149997063,329.86495149997063,329.86495149997063,330.6677561000106,left,0.0,34.579545599990524,,,,,,,,,,,,,,,,,,,,,,,,,,,,,,,,sub-101,1.0,random_dot,60.98896040716636,
right,right,speed,,,,,0.0,0.0,0.0,1.0,21.0,0.0,42.0,1.0,330.68134429998463,,,,,,,,,330.6701574999606,331.03174820001004,331.8333241000073,331.8164020999684,331.8164274999872,331.8333241000073,331.8333241000073,331.8333241000073,332.7185290000052,left,0.0,34.65159560000757,,,,,,,,,,,,,,,,,,,,,,,,,,,,,,,,sub-101,1.0,random_dot,60.98896040716636,
left,left,speed,,,,,0.0,0.0,0.0,1.0,21.0,1.0,43.0,0.0,332.73300129995914,,,,,,,,,332.7202716000029,333.0832955999649,333.8846279999707,333.86801119998563,333.8680430999957,333.8846279999707,333.8846279999707,333.8846279999707,334.8369175000116,left,1.0,34.73017350002192,,,,,,,,,,,,,,,,,,,,,,,,,,,,,,,,sub-101,1.0,random_dot,60.98896040716636,
left,left,speed,,,,,0.0,0.0,0.0,1.0,22.0,0.0,44.0,0.0,334.8510990999639,,,,,,,,,334.8390227999771,335.2013186999829,336.0027216000017,335.9864872999606,335.98653579998063,336.0027216000017,336.0027216000017,336.0027216000017,339.023810099985,left,1.0,36.79288750002161,,,,,,,,,,,,,,,,,,,,,,,,,,,,,,,,sub-101,1.0,random_dot,60.98896040716636,
right,right,speed,,,,,0.0,0.0,0.0,1.0,22.0,1.0,45.0,1.0,339.03709940001136,,,,,,,,,339.02592709998135,339.136988299957,339.9389651999809,339.9224615999847,339.9225262000109,339.9389651999809,339.9389651999809,339.9389651999809,341.95875729998806,right,1.0,35.796295600011945,,,,,,,,,,,,,,,,,,,,,,,,,,,,,,,,sub-101,1.0,random_dot,60.98896040716636,
right,right,speed,,,,,0.0,0.0,0.0,1.0,23.0,0.0,46.0,1.0,341.97253629995976,,,,,,,,,341.96057669998845,342.32270689995494,343.12422840000363,343.1078277999768,343.1078639999614,343.12422840000363,343.12422840000363,343.12422840000363,345.67796870000893,right,1.0,36.33064629998989,,,,,,,,,,,,,,,,,,,,,,,,,,,,,,,,sub-101,1.0,random_dot,60.98896040716636,
left,left,speed,,,,,0.0,0.0,0.0,1.0,23.0,1.0,47.0,0.0,345.6916419999907,,,,,,,,,345.6791487999726,346.4921771999798,347.29381259996444,347.27743229997577,347.27747510001063,347.29381259996444,347.29381259996444,347.29381259996444,350.29835870000534,right,0.0,36.7817575999652,,,,,,,,,,,,,,,,,,,,,,,,,,,,,,,,sub-101,1.0,random_dot,60.98896040716636,
right,right,speed,,,,,0.0,0.0,0.0,1.0,24.0,0.0,48.0,1.0,350.3113330999622,,,,,,,,,350.30007579998346,351.51244590000715,352.31385089998366,352.29736409999896,352.29740009998204,352.31385089998366,352.31385089998366,352.31385089998366,353.6993993999786,left,0.0,35.160715400008485,,,,,,,,,,,,,,,,,,,,,,,,,,,,,,,,sub-101,1.0,random_dot,60.98896040716636,
left,left,speed,,,,,0.0,0.0,0.0,1.0,24.0,1.0,49.0,0.0,353.71389979997184,,,,,,,,,353.7005893999594,353.81404129997827,354.61550439998973,354.5992698000045,354.59931769996183,354.61550439998973,354.61550439998973,354.61550439998973,356.7518539999728,right,0.0,35.91023069998482,,,,,,,,,,,,,,,,,,,,,,,,,,,,,,,,sub-101,1.0,random_dot,60.98896040716636,
left,left,speed,,,,,0.0,0.0,0.0,1.0,25.0,0.0,50.0,0.0,356.7659393000067,,,,,,,,,356.7528723999858,356.86617029999616,357.6674851999851,357.65088079997804,357.65090299997246,357.6674851999851,357.6674851999851,357.6674851999851,358.4037371999584,left,1.0,34.507822300016414,,,,,,,,,,,,,,,,,,,,,,,,,,,,,,,,sub-101,1.0,random_dot,60.98896040716636,
right,right,speed,,,,,0.0,0.0,0.0,1.0,25.0,1.0,51.0,1.0,358.4173960000044,,,,,,,,,358.4064442999661,359.61780780000845,360.4194728999864,360.4029603999807,360.403006699984,360.4194728999864,360.4194728999864,360.4194728999864,362.3061478000018,left,0.0,35.65669909998542,,,,,,,,,,,,,,,,,,,,,,,,,,,,,,,,sub-101,1.0,random_dot,60.98896040716636,
right,right,speed,,,,,0.0,0.0,0.0,1.0,26.0,0.0,52.0,1.0,362.3199151000008,,,,,,,,,362.30882519995794,362.4199768999824,363.2212828999618,363.2051138000097,363.2051707999781,363.2212828999618,363.2212828999618,363.2212828999618,366.8091621999629,left,0.0,37.353254800022114,,,,,,,,,,,,,,,,,,,,,,,,,,,,,,,,sub-101,1.0,random_dot,60.98896040716636,
left,left,speed,,,,,0.0,0.0,0.0,1.0,26.0,1.0,53.0,0.0,366.8229550999822,,,,,,,,,366.8111529999878,368.0235857999651,368.8253224999644,368.80906319996575,368.80910979997134,368.8253224999644,368.8253224999644,368.8253224999644,370.428027499991,right,0.0,35.369341299985535,,,,,,,,,,,,,,,,,,,,,,,,,,,,,,,,sub-101,1.0,random_dot,60.98896040716636,
right,right,speed,,,,,0.0,0.0,0.0,1.0,27.0,0.0,54.0,1.0,370.4420334000024,,,,,,,,,370.4302980999928,370.5420669000014,371.3435141000082,371.32704129995545,371.32707130000927,371.3435141000082,371.3435141000082,371.3435141000082,373.98008209996624,left,0.0,36.41148010001052,,,,,,,,,,,,,,,,,,,,,,,,,,,,,,,,sub-101,1.0,random_dot,60.98896040716636,
left,left,speed,,,,,0.0,0.0,0.0,1.0,27.0,1.0,55.0,0.0,373.9946664999589,,,,,,,,,373.981752599997,374.3446132999961,375.1461280999938,375.1297957999632,375.1298300999915,375.1461280999938,375.1461280999938,375.1461280999938,377.26633459998993,right,0.0,35.8886856000172,,,,,,,,,,,,,,,,,,,,,,,,,,,,,,,,sub-101,1.0,random_dot,60.98896040716636,
left,left,speed,,,,,0.0,0.0,0.0,1.0,28.0,0.0,56.0,0.0,377.2800761999679,,,,,,,,,377.26862119999714,377.380354999972,378.1815354999853,378.1653801999637,378.16544630000135,378.1815354999853,378.1815354999853,378.1815354999853,380.1513884000015,left,1.0,35.7431823000079,,,,,,,,,,,,,,,,,,,,,,,,,,,,,,,,sub-101,1.0,random_dot,60.98896040716636,
right,right,speed,,,,,0.0,0.0,0.0,1.0,28.0,1.0,57.0,1.0,380.1652828999795,,,,,,,,,380.1531787999557,380.51565069996286,381.3172078999924,381.301169399987,381.3012121999636,381.3172078999924,381.3172078999924,381.3172078999924,384.187976599962,left,0.0,36.64729210000951,,,,,,,,,,,,,,,,,,,,,,,,,,,,,,,,sub-101,1.0,random_dot,60.98896040716636,
left,left,speed,,,,,0.0,0.0,0.0,1.0,29.0,0.0,58.0,0.0,384.20147119998,,,,,,,,,384.1899014000082,384.3015716999653,385.1030867999653,385.0865724000032,385.0865974999615,385.1030867999653,385.1030867999653,385.1030867999653,387.7902128999704,right,0.0,36.46138230001088,,,,,,,,,,,,,,,,,,,,,,,,,,,,,,,,sub-101,1.0,random_dot,60.98896040716636,
right,right,speed,,,,,0.0,0.0,0.0,1.0,29.0,1.0,59.0,1.0,387.8039817999816,,,,,,,,,387.79176809999626,388.1541759999818,388.9555793000036,388.93924529996,388.9392804999952,388.9555793000036,388.9555793000036,388.9555793000036,390.69115179998334,right,1.0,35.49931330000982,,,,,,,,,,,,,,,,,,,,,,,,,,,,,,,,sub-101,1.0,random_dot,60.98896040716636,
,,speed,,,,,0.0,0.0,0.0,1.0,,,,,,,,,,,,,,,,,,,,,,,,,,,,,,,,,,,,,,,,,,,,,,,,,,,,,,,,,sub-101,1.0,random_dot,60.98896040716636,
left,left,accuracy,,,,,0.0,1.0,1.0,0.0,0.0,0.0,0.0,0.0,395.009093599976,,,,,,,,,395.0050410999684,395.7928762999945,396.5942143999855,396.5778844999732,396.5779285999597,396.5942143999855,396.5942143999855,396.5942143999855,400.2990021999576,right,0.0,37.47009570000228,,,,,,,,,,,,,,,,,,,,,390.6925117999781,390.7117952999543,390.7117952999543,394.9933334999951,space,38.04401620000135,,,,,,sub-101,1.0,random_dot,60.98896040716636,
right,right,accuracy,,,,,0.0,1.0,1.0,0.0,0.0,1.0,1.0,1.0,400.3124921999988,,,,,,,,,400.30069289996754,400.66257859999314,401.46424750000006,401.4476507999934,401.447672499984,401.46424750000006,401.46424750000006,401.46424750000006,407.2038105999818,left,0.0,39.510535199951846,,,,,,406.4509668999817,,,,,,,,,,,,,,,,,,,,,,,,,,sub-101,1.0,random_dot,60.98896040716636,
right,right,accuracy,,,,,0.0,1.0,1.0,0.0,1.0,0.0,2.0,1.0,407.2171751999995,,,,,,,,,407.2063324999762,407.5676308000111,408.3690339999739,408.35236719995737,408.3524191000033,408.3690339999739,408.3690339999739,408.3690339999739,409.8214859999716,right,1.0,35.21649590000743,,,,,,,,,,,,,,,,,,,,,,,,,,,,,,,,sub-101,1.0,random_dot,60.98896040716636,
left,left,accuracy,,,,,0.0,1.0,1.0,0.0,1.0,1.0,3.0,0.0,409.8358581999783,,,,,,,,,409.8234517999808,410.1860037999577,410.9874857999967,410.9710067999549,410.9710601000115,410.9874857999967,410.9874857999967,410.9874857999967,414.8753991999547,left,1.0,37.65713700000197,,,,,,,,,,,,,,,,,,,,,,,,,,,,,,,,sub-101,1.0,random_dot,60.98896040716636,
left,left,accuracy,,,,,0.0,1.0,1.0,0.0,2.0,0.0,4.0,0.0,414.8894035000121,,,,,,,,,414.8781774999807,414.9891218999983,415.79053920001024,415.7739105999936,415.77397420001216,415.79053920001024,415.79053920001024,415.79053920001024,418.0284197999863,right,0.0,36.01479200000176,,,,,,,,,,,,,,,,,,,,,,,,,,,,,,,,sub-101,1.0,random_dot,60.98896040716636,
right,right,accuracy,,,,,0.0,1.0,1.0,0.0,2.0,1.0,5.0,1.0,418.0413886999595,,,,,,,,,418.03083639999386,418.841648600006,419.6430370999733,419.6266171999741,419.6266467999667,419.6430370999733,419.6430370999733,419.6430370999733,423.231319399958,right,1.0,37.352331200032495,,,,,,,,,,,,,,,,,,,,,,,,,,,,,,,,sub-101,1.0,random_dot,60.98896040716636,
right,right,accuracy,,,,,0.0,1.0,1.0,0.0,3.0,0.0,6.0,1.0,423.2448764999863,,,,,,,,,423.2334652999998,423.59505020000506,424.3961844999576,424.38047679996816,424.3805159999756,424.3961844999576,424.3961844999576,424.3961844999576,426.3659739999566,right,1.0,35.7380603000056,,,,,,,,,,,,,,,,,,,,,,,,,,,,,,,,sub-101,1.0,random_dot,60.98896040716636,
left,left,accuracy,,,,,0.0,1.0,1.0,0.0,3.0,1.0,7.0,0.0,426.38033869996434,,,,,,,,,426.3674816999701,426.7307261999813,427.53188580001006,427.5159817999811,427.51606190000894,427.53188580001006,427.53188580001006,427.53188580001006,428.5675435999874,left,1.0,34.80394820001675,,,,,,,,,,,,,,,,,,,,,,,,,,,,,,,,sub-101,1.0,random_dot,60.98896040716636,
right,right,accuracy,,,,,0.0,1.0,1.0,0.0,4.0,0.0,8.0,1.0,428.5821059999871,,,,,,,,,428.56917480000993,428.9319407999865,429.7334544999758,429.7171059999964,429.717150099983,429.7334544999758,429.7334544999758,429.7334544999758,431.5197132999892,left,0.0,35.551336500037,,,,,,,,,,,,,,,,,,,,,,,,,,,,,,,,sub-101,1.0,random_dot,60.98896040716636,
left,left,accuracy,,,,,0.0,1.0,1.0,0.0,4.0,1.0,9.0,0.0,431.5338701999863,,,,,,,,,431.5208727999707,431.6338977999985,432.43560339999385,432.4189872999559,432.4190288999816,432.43560339999385,432.43560339999385,432.43560339999385,434.47170220001135,right,0.0,35.80951130000176,,,,,,,,,,,,,,,,,,,,,,,,,,,,,,,,sub-101,1.0,random_dot,60.98896040716636,
right,right,accuracy,,,,,0.0,1.0,1.0,0.0,5.0,0.0,10.0,1.0,434.4857473999728,,,,,,,,,434.472886500007,434.5861142000067,435.3875209999969,435.370907399978,435.3709602999734,435.3875209999969,435.3875209999969,435.3875209999969,436.1729525999981,right,1.0,34.55741890001809,,,,,,,,,,,,,,,,,,,,,,,,,,,,,,,,sub-101,1.0,random_dot,60.98896040716636,
left,left,accuracy,,,,,0.0,1.0,1.0,0.0,5.0,1.0,11.0,0.0,436.1870714999968,,,,,,,,,436.17436149995774,436.2875610999763,437.0885243999656,437.0723413999658,437.072392800008,437.0885243999656,437.0885243999656,437.0885243999656,441.3269811999635,left,1.0,38.00586089998251,,,,,,,,,,,,,,,,,,,,,,,,,,,,,,,,sub-101,1.0,random_dot,60.98896040716636,
right,right,accuracy,,,,,0.0,1.0,1.0,0.0,6.0,0.0,12.0,1.0,441.3406469000038,,,,,,,,,441.328637700004,441.6909098000033,442.4924861000036,442.4761661000084,442.4762131999596,442.4924861000036,442.4924861000036,442.4924861000036,443.6280289999559,right,1.0,34.90172620001249,,,,,,,,,,,,,,,,,,,,,,,,,,,,,,,,sub-101,1.0,random_dot,60.98896040716636,
left,left,accuracy,,,,,0.0,1.0,1.0,0.0,6.0,1.0,13.0,0.0,443.6420914999908,,,,,,,,,443.62943209998775,444.4425282999873,445.2442704999703,445.2280337999691,445.2280729999766,445.2442704999703,445.2442704999703,445.2442704999703,447.68059579998953,right,0.0,36.20108840003377,,,,,,,,,,,,,,,,,,,,,,,,,,,,,,,,sub-101,1.0,random_dot,60.98896040716636,
right,right,accuracy,,,,,0.0,1.0,1.0,0.0,7.0,0.0,14.0,1.0,447.6949639999657,,,,,,,,,447.68248570000287,448.8959954999737,449.6974810999818,449.68057889997726,449.68061699997634,449.6974810999818,449.6974810999818,449.6974810999818,451.3495345999836,right,1.0,35.41828290000558,,,,,,,,,,,,,,,,,,,,,,,,,,,,,,,,sub-101,1.0,random_dot,60.98896040716636,
left,left,accuracy,,,,,0.0,1.0,1.0,0.0,7.0,1.0,15.0,0.0,451.3639991999953,,,,,,,,,451.3514630999998,451.714415399998,452.5159123999765,452.49960889999056,452.4996467999881,452.5159123999765,452.5159123999765,452.5159123999765,453.5016262999852,left,1.0,34.7599575999775,,,,,,,,,,,,,,,,,,,,,,,,,,,,,,,,sub-101,1.0,random_dot,60.98896040716636,
left,left,accuracy,,,,,0.0,1.0,1.0,0.0,8.0,0.0,16.0,0.0,453.5158606999903,,,,,,,,,453.5030526999617,453.6157994999666,454.4169905000017,454.4005300999852,454.40055999998,454.4169905000017,454.4169905000017,454.4169905000017,455.5199850999634,left,1.0,34.879308499977924,,,,,,,,,,,,,,,,,,,,,,,,,,,,,,,,sub-101,1.0,random_dot,60.98896040716636,
right,right,accuracy,,,,,0.0,1.0,1.0,0.0,8.0,1.0,17.0,1.0,455.5336479999824,,,,,,,,,455.52111400000285,456.3341807000106,457.1355166999856,457.1187549000024,457.1187920999946,457.1355166999856,457.1355166999856,457.1355166999856,458.3545697999653,right,1.0,34.99015089997556,,,,,,,,,,,,,,,,,,,,,,,,,,,,,,,,sub-101,1.0,random_dot,60.98896040716636,
left,left,accuracy,,,,,0.0,1.0,1.0,0.0,9.0,0.0,18.0,0.0,458.3688587999786,,,,,,,,,458.3557068000082,459.5696140999789,460.3712679999881,460.35481659998186,460.3548560999916,460.3712679999881,460.3712679999881,460.3712679999881,461.3403874000069,left,1.0,34.73368509998545,,,,,,,,,,,,,,,,,,,,,,,,,,,,,,,,sub-101,1.0,random_dot,60.98896040716636,
right,right,accuracy,,,,,0.0,1.0,1.0,0.0,9.0,1.0,19.0,1.0,461.35421459999634,,,,,,,,,461.3424871999887,461.70435919996817,462.50570969999535,462.4895292999572,462.4895678999601,462.50570969999535,462.50570969999535,462.50570969999535,463.1410453999997,right,1.0,34.40010389999952,,,,,,,,,,,,,,,,,,,,,,,,,,,,,,,,sub-101,1.0,random_dot,60.98896040716636,
right,right,accuracy,,,,,0.0,1.0,1.0,0.0,10.0,0.0,20.0,1.0,463.1553477999987,,,,,,,,,463.14331949997,463.9559600999928,464.75732849998167,464.7406094999751,464.7406360000023,464.75732849998167,464.75732849998167,464.75732849998167,466.2436482000048,right,1.0,35.248521099973004,,,,,,,,,,,,,,,,,,,,,,,,,,,,,,,,sub-101,1.0,random_dot,60.98896040716636,
left,left,accuracy,,,,,0.0,1.0,1.0,0.0,10.0,1.0,21.0,0.0,466.25759890000336,,,,,,,,,466.2451273999759,466.6077819999773,467.4096426999895,467.39309129997855,467.3931291999761,467.4096426999895,467.4096426999895,467.4096426999895,468.21168089995626,left,1.0,34.5760662999819,,,,,,,,,,,,,,,,,,,,,,,,,,,,,,,,sub-101,1.0,random_dot,60.98896040716636,
left,left,accuracy,,,,,0.0,1.0,1.0,0.0,11.0,0.0,22.0,0.0,468.2256347999792,,,,,,,,,468.2136604000116,469.4262999999919,470.2276062999736,470.2115724000032,470.2116083999863,470.2276062999736,470.2276062999736,470.2276062999736,471.1803234000108,left,1.0,34.72836639999878,,,,,,,,,,,,,,,,,,,,,,,,,,,,,,,,sub-101,1.0,random_dot,60.98896040716636,
right,right,accuracy,,,,,0.0,1.0,1.0,0.0,11.0,1.0,23.0,1.0,471.1941670000088,,,,,,,,,471.1816660999903,471.99510299996473,472.7965398000088,472.7802827999694,472.7803265000112,472.7965398000088,472.7965398000088,472.7965398000088,474.6330820999574,right,1.0,35.59859959996538,,,,,,,,,,,,,,,,,,,,,,,,,,,,,,,,sub-101,1.0,random_dot,60.98896040716636,
left,left,accuracy,,,,,0.0,1.0,1.0,0.0,12.0,0.0,24.0,0.0,474.6471162000089,,,,,,,,,474.6349365999922,474.7474538999959,475.5488956999616,475.5324900999549,475.5325358999544,475.5488956999616,475.5488956999616,475.5488956999616,476.8024911999819,left,1.0,35.02679119998356,,,,,,,,,,,,,,,,,,,,,,,,,,,,,,,,sub-101,1.0,random_dot,60.98896040716636,
right,right,accuracy,,,,,0.0,1.0,1.0,0.0,12.0,1.0,25.0,1.0,476.8155693999725,,,,,,,,,476.8046436999575,477.16604599996936,477.9668079999974,477.94987529999344,477.94990609999513,477.9668079999974,477.9668079999974,477.9668079999974,479.0526026999578,right,1.0,34.85921159997815,,,,,,,,,,,,,,,,,,,,,,,,,,,,,,,,sub-101,1.0,random_dot,60.98896040716636,
left,left,accuracy,,,,,0.0,1.0,1.0,0.0,13.0,0.0,26.0,0.0,479.06647359998897,,,,,,,,,479.0545285999542,479.4166812999756,480.2182986999978,480.202041499957,480.2021203999757,480.2182986999978,480.2182986999978,480.2182986999978,480.85371130000567,left,1.0,34.407470699981786,,,,,,,,,,,,,,,,,,,,,,,,,,,,,,,,sub-101,1.0,random_dot,60.98896040716636,
right,right,accuracy,,,,,0.0,1.0,1.0,0.0,13.0,1.0,27.0,1.0,480.8675898999791,,,,,,,,,480.85527219995856,482.0684168000007,482.8698368999758,482.8536272000056,482.8536752999644,482.8698368999758,482.8698368999758,482.8698368999758,484.80636990000494,right,1.0,35.70513169997139,,,,,,,,,,,,,,,,,,,,,,,,,,,,,,,,sub-101,1.0,random_dot,60.98896040716636,
left,left,accuracy,,,,,0.0,1.0,1.0,0.0,14.0,0.0,28.0,0.0,484.8204530999647,,,,,,,,,484.8078790999716,484.92063740000594,485.72190760000376,485.7055876000086,485.705636299972,485.72190760000376,485.72190760000376,485.72190760000376,487.4918203999987,left,1.0,35.53330940002343,,,,,,,,,,,,,,,,,,,,,,,,,,,,,,,,sub-101,1.0,random_dot,60.98896040716636,
right,right,accuracy,,,,,0.0,1.0,1.0,0.0,14.0,1.0,29.0,1.0,487.50551619997714,,,,,,,,,487.4937705000048,487.60569419997046,488.4071657999884,488.3908378999913,488.3908804999664,488.4071657999884,488.4071657999884,488.4071657999884,489.8109979999717,right,1.0,35.179745300032664,,,,,,,,,,,,,,,,,,,,,,,,,,,,,,,,sub-101,1.0,random_dot,60.98896040716636,
left,left,accuracy,,,,,0.0,1.0,1.0,0.0,15.0,0.0,30.0,0.0,489.82378909998806,,,,,,,,,489.8127671999973,491.02466190001,491.8261559999664,491.8096229999792,491.8096566000022,491.8261559999664,491.8261559999664,491.8261559999664,492.71161569998367,left,1.0,34.649654200009536,,,,,,,,,,,,,,,,,,,,,,,,,,,,,,,,sub-101,1.0,random_dot,60.98896040716636,
right,right,accuracy,,,,,0.0,1.0,1.0,0.0,15.0,1.0,31.0,1.0,492.7257298000041,,,,,,,,,492.7132113999687,492.8262659999891,493.6274900999852,493.6109365999582,493.6109631999861,493.6274900999852,493.6274900999852,493.6274900999852,494.8640820999863,right,1.0,35.008562200004235,,,,,,,,,,,,,,,,,,,,,,,,,,,,,,,,sub-101,1.0,random_dot,60.98896040716636,
right,right,accuracy,,,,,0.0,1.0,1.0,0.0,16.0,0.0,32.0,1.0,494.8776151000056,,,,,,,,,494.8662499999628,496.0786851999583,496.8806245999877,496.8639464000007,496.8639748999849,496.8806245999877,496.8806245999877,496.8806245999877,497.7157414999674,left,0.0,34.60579870000947,,,,,,,,,,,,,,,,,,,,,,,,,,,,,,,,sub-101,1.0,random_dot,60.98896040716636,
left,left,accuracy,,,,,0.0,1.0,1.0,0.0,16.0,1.0,33.0,0.0,497.7292516999878,,,,,,,,,497.71810900000855,498.9300560999545,499.731806900003,499.7149902000092,499.71502110001165,499.731806900003,499.731806900003,499.731806900003,500.50093879998894,left,1.0,34.543303499987815,,,,,,,,,,,,,,,,,,,,,,,,,,,,,,,,sub-101,1.0,random_dot,60.98896040716636,
right,right,accuracy,,,,,0.0,1.0,1.0,0.0,17.0,0.0,34.0,1.0,500.514623199997,,,,,,,,,500.5034354999661,501.31509849999566,502.1162239999976,502.0998736000038,502.0999078999739,502.1162239999976,502.1162239999976,502.1162239999976,505.1036874999991,right,1.0,36.74952589999885,,,,,,,,,,,,,,,,,,,,,,,,,,,,,,,,sub-101,1.0,random_dot,60.98896040716636,
left,left,accuracy,,,,,0.0,1.0,1.0,0.0,17.0,1.0,35.0,0.0,505.1178234000108,,,,,,,,,505.1054120999761,505.2176444999641,506.018986399984,506.00255969999125,506.002594999969,506.018986399984,506.018986399984,506.018986399984,507.52152819995536,left,1.0,35.26631810003892,,,,,,,,,,,,,,,,,,,,,,,,,,,,,,,,sub-101,1.0,random_dot,60.98896040716636,
left,left,accuracy,,,,,0.0,1.0,1.0,0.0,18.0,0.0,36.0,0.0,507.5357526000007,,,,,,,,,507.5231998999952,507.63597679999657,508.437789299991,508.4211219999706,508.4211584999575,508.437789299991,508.437789299991,508.437789299991,509.8740695999586,left,1.0,35.20743869995931,,,,,,,,,,,,,,,,,,,,,,,,,,,,,,,,sub-101,1.0,random_dot,60.98896040716636,
right,right,accuracy,,,,,0.0,1.0,1.0,0.0,18.0,1.0,37.0,1.0,509.8875300000073,,,,,,,,,509.8758434999618,509.9875482000061,510.7889460999868,510.773083499982,510.7731211999781,510.7889460999868,510.7889460999868,510.7889460999868,512.5426080999896,right,1.0,35.526433899998665,,,,,,,,,,,,,,,,,,,,,,,,,,,,,,,,sub-101,1.0,random_dot,60.98896040716636,
left,left,accuracy,,,,,0.0,1.0,1.0,0.0,19.0,0.0,38.0,0.0,512.5562389999977,,,,,,,,,512.5449186000042,513.3568032999756,514.1579097000067,514.1415880999994,514.1416227999725,514.1579097000067,514.1579097000067,514.1579097000067,515.2274913999718,left,1.0,34.847301799978595,,,,,,,,,,,,,,,,,,,,,,,,,,,,,,,,sub-101,1.0,random_dot,60.98896040716636,
right,right,accuracy,,,,,0.0,1.0,1.0,0.0,19.0,1.0,39.0,1.0,515.2413927000016,,,,,,,,,515.2290928000002,516.0418167999596,516.8432582999812,516.8269209999708,516.8269553999999,516.8432582999812,516.8432582999812,516.8432582999812,518.0959396999679,right,1.0,35.02227140002651,,,,,,,,,,,,,,,,,,,,,,,,,,,,,,,,sub-101,1.0,random_dot,60.98896040716636,
left,left,accuracy,,,,,0.0,1.0,1.0,0.0,20.0,0.0,40.0,0.0,518.1098608999746,,,,,,,,,518.0979639999568,518.2099263999844,519.0113974999986,518.995009700011,518.9950332999579,519.0113974999986,519.0113974999986,519.0113974999986,521.0649651999702,left,1.0,35.82364919997053,,,,,,,,,,,,,,,,,,,,,,,,,,,,,,,,sub-101,1.0,random_dot,60.98896040716636,
right,right,accuracy,,,,,0.0,1.0,1.0,0.0,20.0,1.0,41.0,1.0,521.0786769000115,,,,,,,,,521.066301099956,521.8790714999777,522.6807512000087,522.6645134999999,522.6645628999686,522.6807512000087,522.6807512000087,522.6807512000087,523.9834638999891,right,1.0,35.07429779996164,,,,,,,,,,,,,,,,,,,,,,,,,,,,,,,,sub-101,1.0,random_dot,60.98896040716636,
right,right,accuracy,,,,,0.0,1.0,1.0,0.0,21.0,0.0,42.0,1.0,523.9972384999855,,,,,,,,,523.9854625999578,525.1981886999565,525.9992039999925,525.9831075000111,525.9831408999744,525.9992039999925,525.9992039999925,525.9992039999925,529.453145699983,right,1.0,37.2159660999896,,,,,,,,,,,,,,,,,,,,,,,,,,,,,,,,sub-101,1.0,random_dot,60.98896040716636,
left,left,accuracy,,,,,0.0,1.0,1.0,0.0,21.0,1.0,43.0,0.0,529.4674116999959,,,,,,,,,529.4549115999835,529.8175862999633,530.6191081999568,530.6023775999784,530.6024126999546,530.6191081999568,530.6191081999568,530.6191081999568,531.4715048999642,left,1.0,34.62634610000532,,,,,,,,,,,,,,,,,,,,,,,,,,,,,,,,sub-101,1.0,random_dot,60.98896040716636,
left,left,accuracy,,,,,0.0,1.0,1.0,0.0,22.0,0.0,44.0,0.0,531.4855428999872,,,,,,,,,531.4732304000063,532.6863409999642,533.4879563999712,533.4719197999802,533.4719569999725,533.4879563999712,533.4879563999712,533.4879563999712,536.9104961999692,left,1.0,37.18717800005106,,,,,,,,,,,,,,,,,,,,,,,,,,,,,,,,sub-101,1.0,random_dot,60.98896040716636,
right,right,accuracy,,,,,0.0,1.0,1.0,0.0,22.0,1.0,45.0,1.0,536.9232938999776,,,,,,,,,536.913685699983,537.7232079000096,538.5250565999886,538.508314799983,538.5083409000072,538.5250565999886,538.5250565999886,538.5250565999886,539.8439049999579,right,1.0,35.09083180001471,,,,,,,,,,,,,,,,,,,,,,,,,,,,,,,,sub-101,1.0,random_dot,60.98896040716636,
right,right,accuracy,,,,,0.0,1.0,1.0,0.0,23.0,0.0,46.0,1.0,539.8581395999645,,,,,,,,,539.845828599995,539.9584554999601,540.7597976999823,540.7438416999648,540.7438832999906,540.7597976999823,540.7597976999823,540.7597976999823,544.2314933000016,left,0.0,37.2351961999666,,,,,,,,,,,,,,,,,,,,,,,,,,,,,,,,sub-101,1.0,random_dot,60.98896040716636,
left,left,accuracy,,,,,0.0,1.0,1.0,0.0,23.0,1.0,47.0,0.0,544.244595600001,,,,,,,,,544.2339740999741,544.5950176999904,545.3960055999923,545.3794605999719,545.3794815999572,545.3960055999923,545.3960055999923,545.3960055999923,546.9495996999904,left,1.0,35.32037700002547,,,,,,,,,,,,,,,,,,,,,,,,,,,,,,,,sub-101,1.0,random_dot,60.98896040716636,
right,right,accuracy,,,,,0.0,1.0,1.0,0.0,24.0,0.0,48.0,1.0,546.9629072999815,,,,,,,,,546.9528435000102,547.3130502999993,548.114675299963,548.097792399989,548.0978166999994,548.114675299963,548.114675299963,548.114675299963,550.5678008999676,right,1.0,36.220893800025806,,,,,,,,,,,,,,,,,,,,,,,,,,,,,,,,sub-101,1.0,random_dot,60.98896040716636,
left,left,accuracy,,,,,0.0,1.0,1.0,0.0,24.0,1.0,49.0,0.0,550.5820501999697,,,,,,,,,550.568870899966,551.7829610999906,552.5844936000067,552.5680103999912,552.568052699964,552.5844936000067,552.5844936000067,552.5844936000067,555.1383627000032,left,1.0,36.32058190001408,,,,,,,,,,,,,,,,,,,,,,,,,,,,,,,,sub-101,1.0,random_dot,60.98896040716636,
right,right,accuracy,,,,,0.0,1.0,1.0,0.0,25.0,0.0,50.0,1.0,555.1519155999995,,,,,,,,,555.1408137999824,555.9526087999693,556.7541983999545,556.7378672999912,556.7379117999808,556.7541983999545,556.7541983999545,556.7541983999545,560.8591153000016,left,0.0,37.871908500033896,,,,,,,,,,,,,,,,,,,,,,,,,,,,,,,,sub-101,1.0,random_dot,60.98896040716636,
left,left,accuracy,,,,,0.0,1.0,1.0,0.0,25.0,1.0,51.0,0.0,560.8725477999542,,,,,,,,,560.8602126999758,560.9726093999925,561.7743125999696,561.7579524999601,561.7580039000022,561.7743125999696,561.7743125999696,561.7743125999696,565.7280453999992,left,1.0,37.72103229997447,,,,,,,,,,,,,,,,,,,,,,,,,,,,,,,,sub-101,1.0,random_dot,60.98896040716636,
left,left,accuracy,,,,,0.0,1.0,1.0,0.0,26.0,0.0,52.0,0.0,565.742389299965,,,,,,,,,565.7297543999739,566.5430271999794,567.3445991000044,567.3280065999716,567.328051999968,567.3445991000044,567.3445991000044,567.3445991000044,572.416992399958,left,1.0,38.850202000001445,,,,,,572.3312956999871,,,,,,,,,,,,,,,,,,,,,,,,,,sub-101,1.0,random_dot,60.98896040716636,
right,right,accuracy,,,,,0.0,1.0,1.0,0.0,26.0,1.0,53.0,1.0,572.4304896999965,,,,,,,,,572.4188181000063,572.7808228000067,573.5821176999598,573.5653537999606,573.5653728999896,573.5821176999598,573.5821176999598,573.5821176999598,575.1178950999747,right,1.0,35.30326570000034,,,,,,,,,,,,,,,,,,,,,,,,,,,,,,,,sub-101,1.0,random_dot,60.98896040716636,
left,left,accuracy,,,,,0.0,1.0,1.0,0.0,27.0,0.0,54.0,0.0,575.1322392000002,,,,,,,,,575.118976400001,575.2323702999856,576.0336788999848,576.0177088999772,576.0177433000063,576.0336788999848,576.0336788999848,576.0336788999848,580.4555688999826,right,0.0,38.191453300009016,,,,,,,,,,,,,,,,,,,,,,,,,,,,,,,,sub-101,1.0,random_dot,60.98896040716636,
right,right,accuracy,,,,,0.0,1.0,1.0,0.0,27.0,1.0,55.0,1.0,580.4694129999843,,,,,,,,,580.4574343999848,580.569343799958,581.3711603999836,581.3552263999591,581.3553335999604,581.3711603999836,581.3711603999836,581.3711603999836,585.6586496999953,left,0.0,38.06430999998702,,,,,,,,,,,,,,,,,,,,,,,,,,,,,,,,sub-101,1.0,random_dot,60.98896040716636,
right,right,accuracy,,,,,0.0,1.0,1.0,0.0,28.0,0.0,56.0,1.0,585.672579200007,,,,,,,,,585.6606556999614,586.0228952000034,586.8244871000061,586.808211800002,586.8082466999767,586.8244871000061,586.8244871000061,586.8244871000061,589.6619261999731,left,0.0,36.60033129999647,,,,,,,,,,,,,,,,,,,,,,,,,,,,,,,,sub-101,1.0,random_dot,60.98896040716636,
left,left,accuracy,,,,,0.0,1.0,1.0,0.0,28.0,1.0,57.0,0.0,589.6755055999965,,,,,,,,,589.6638417000067,590.476012900006,591.2774642999866,591.261109199957,591.2611456000013,591.2774642999866,591.2774642999866,591.2774642999866,594.7319686000119,left,1.0,37.21725990000414,,,,,,,,,,,,,,,,,,,,,,,,,,,,,,,,sub-101,1.0,random_dot,60.98896040716636,
right,right,accuracy,,,,,0.0,1.0,1.0,0.0,29.0,0.0,58.0,1.0,594.7456705999793,,,,,,,,,594.7351259999559,595.5463280999684,596.347750499961,596.3314365000115,596.3314703999786,596.347750499961,596.347750499961,596.347750499961,598.751189499977,right,1.0,36.17797329998575,,,,,,,,,,,,,,,,,,,,,,,,,,,,,,,,sub-101,1.0,random_dot,60.98896040716636,
left,left,accuracy,,,,,0.0,1.0,1.0,0.0,29.0,1.0,59.0,0.0,598.7648877999745,,,,,,,,,598.7525197999785,599.9661425999948,600.7674685000093,600.7514975999948,600.7515411999775,600.7674685000093,600.7674685000093,600.7674685000093,601.9195781999733,left,1.0,34.92909739998868,,,,,,,,,,,,,,,,,,,,,,,,,,,,,,,,sub-101,1.0,random_dot,60.98896040716636,
,,accuracy,,,,,0.0,1.0,1.0,0.0,,,,,,,,,,,,,,,,,,,,,,,,,,,,,,,,,,,,,,,,,,,,,,,,,,,,,,,,,sub-101,1.0,random_dot,60.98896040716636,
,,,,,,,,,,,,,,,,,,,,,,,,,,,,,,,,,,,,,,,,,,,,,,,,,,,,,,,,,,,,,,,601.9212323999964,601.9339661999838,606.9374362999806,606.9221933999797,sub-101,,,,
