direction,corrAns,randomInstr,practice_trials.thisRepN,practice_trials.thisTrialN,practice_trials.thisN,practice_trials.thisIndex,instr_trials.thisRepN,instr_trials.thisTrialN,instr_trials.thisN,instr_trials.thisIndex,test_trials.thisRepN,test_trials.thisTrialN,test_trials.thisN,test_trials.thisIndex,thisRow.t,notes,general_instruction.started,textGeneralInstr.started,respGeneralInstr.started,general_instruction.stopped,respGeneralInstr.keys,respGeneralInstr.rt,respGeneralInstr.duration,ITI.started,fixcross.started,fixcross.stopped,ITI.stopped,dots.started,backgroundDots.started,stimulusDots.started,respDots.started,stimulusDots.stopped,dots.stopped,respDots.keys,respDots.corr,respDots.rt,respDots.duration,feedback.started,textFeedback.started,feedback.stopped,textFeedback.stopped,info.started,textInfo.started,keyRespInfo.started,info.stopped,keyRespInfo.keys,keyRespInfo.rt,keyRespInfo.duration,test_instruction.started,textTestInstr.started,respTestInstr.started,test_instruction.stopped,respTestInstr.keys,respTestInstr.rt,respTestInstr.duration,random_instruction.started,textRandomInstr.started,respRandomInstr.started,random_instruction.stopped,respRandomInstr.keys,respRandomInstr.rt,respRandomInstr.duration,goodbye.started,textGoodbye.started,goodbye.stopped,participant,session,expName,frameRate,Unnamed: 73
,,,,,,,,,,,,,,,,,0.030770899989875,0.039346799996565,0.039346799996565,27.533259199990425,space,107.04349979999824,,,,,,,,,,,,,,,,,,,,,,,,,,,,,,,,,,,,,,,,,,,,sub-069,1.0,random_dot,60.03445977672623,
right,right,,0.0,0.0,0.0,1.0,,,,,,,,,27.561564499992528,,,,,,,,,27.55754449999949,27.896197399997614,28.704343799996423,28.680338199992548,28.680388199994923,28.704343799996423,28.704343799996423,28.704343799996423,33.69192659998953,38.854848099988885,right,1.0,89.70972530001018,,38.85665770000196,38.88697659999889,39.36866179999197,,,,,,,,,,,,,,,,,,,,,,,,,,sub-069,1.0,random_dot,60.03445977672623,
left,left,,0.0,1.0,1.0,0.0,,,,,,,,,39.38485479999508,,,,,,,,,39.36973289999878,39.46798560000025,40.26773079999839,40.251985299997614,40.252033500000834,40.26773079999839,40.26773079999839,40.26773079999839,,44.38389129999268,left,1.0,83.67455999999947,,44.38496899999154,44.39742490000208,44.882950100000016,44.89734029999818,,,,,,,,,,,,,,,,,,,,,,,,,sub-069,1.0,random_dot,60.03445977672623,
right,right,,1.0,0.0,2.0,1.0,,,,,,,,,44.89734029999818,,,,,,,,,44.88423270000203,44.99722429999383,45.79705369999283,45.7806913999957,45.78073420000146,45.79705369999283,45.79705369999283,45.79705369999283,,50.07729600000312,right,1.0,83.83161749999272,,50.078401799997664,50.0912559999997,50.57596889999695,50.59113129999605,,,,,,,,,,,,,,,,,,,,,,,,,sub-069,1.0,random_dot,60.03445977672623,
left,left,,1.0,1.0,3.0,0.0,,,,,,,,,50.59113129999605,,,,,,,,,50.57702659998904,51.78979640000034,52.59009359999618,52.574250299992855,52.57430939999176,52.59009359999618,52.59009359999618,52.59009359999618,,53.74105029999919,right,0.0,80.70302090000769,,53.74226519999502,53.76460779999616,54.25460020000173,,,,,,,,,,,,,,,,,,,,,,,,,,sub-069,1.0,random_dot,60.03445977672623,
right,right,,2.0,0.0,4.0,1.0,,,,,,,,,54.27120699999796,,,,,,,,,54.2554775000026,55.05369129999599,55.854050399997504,55.83820369999739,55.83825109999452,55.854050399997504,55.854050399997504,55.854050399997504,60.8485287999938,62.69908510000096,left,0.0,86.40711030000239,,62.70024559999001,62.71303159999661,63.196867199992994,63.21255209999799,,,,,,,,,,,,,,,,,,,,,,,,,sub-069,1.0,random_dot,60.03445977672623,
left,left,,2.0,1.0,5.0,0.0,,,,,,,,,63.21255209999799,,,,,,,,,63.19775529998879,63.56215139999404,64.36187339999015,64.34601069999917,64.34606450000138,64.36187339999015,64.36187339999015,64.36187339999015,,65.44610999998986,left,1.0,80.64043269999092,,65.44706379999116,65.46050119999563,65.94575119999354,65.96016770000278,,,,,,,,,,,,,,,,,,,,,,,,,sub-069,1.0,random_dot,60.03445977672623,
right,right,,3.0,0.0,6.0,1.0,,,,,,,,,65.96016770000278,,,,,,,,,65.94704729999648,67.15936069999589,67.95946479999111,67.94378999999026,67.94384999999602,67.95946479999111,67.95946479999111,67.95946479999111,,72.25670179999724,right,1.0,83.8584133000113,,72.25780909998866,72.27071559999604,72.75490249998984,72.77029549999861,,,,,,,,,,,,,,,,,,,,,,,,,sub-069,1.0,random_dot,60.03445977672623,
left,left,,3.0,1.0,7.0,0.0,,,,,,,,,72.77029549999861,,,,,,,,,72.75588959999732,73.96917489999032,74.76895509999304,74.75334749999456,74.75340000000142,74.76895509999304,74.76895509999304,74.76895509999304,79.76470319999498,80.34869430000253,right,0.0,85.14351460000034,,80.34976379999716,80.36277949999203,80.8478405999922,80.86257009999827,,,,,,,,,,,,,,,,,,,,,,,,,sub-069,1.0,random_dot,60.03445977672623,
right,right,,4.0,0.0,8.0,1.0,,,,,,,,,80.86257009999827,,,,,,,,,80.84896819999267,82.06138319999445,82.86143569998967,82.84539489999588,82.84544849999656,82.86143569998967,82.86143569998967,82.86143569998967,87.85732979999739,88.79153360000055,left,0.0,85.4937285999913,,88.79273859999375,88.80520719999913,89.2891810000001,89.30473730000085,,,,,,,,,,,,,,,,,,,,,,,,,sub-069,1.0,random_dot,60.03445977672623,
left,left,,4.0,1.0,9.0,0.0,,,,,,,,,89.30473730000085,,,,,,,,,89.2900546000019,90.50346079999872,91.3033931999962,91.28745920000074,91.28750589999254,91.3033931999962,91.3033931999962,91.3033931999962,,92.6874656,left,1.0,80.93629730000976,,92.68853499999386,92.70172339999408,93.18611640000016,93.2013891999959,,,,,,,,,,,,,,,,,,,,,,,,,sub-069,1.0,random_dot,60.03445977672623,
right,right,,5.0,0.0,10.0,1.0,,,,,,,,,93.2013891999959,,,,,,,,,93.18706250000103,94.40014189999783,95.2002599999978,95.18464859999948,95.1847020999994,95.2002599999978,95.2002599999978,95.2002599999978,,95.51912269998866,right,1.0,79.87274980000802,,95.52052099999857,95.53276309999636,96.0173317000008,96.0324541000009,,,,,,,,,,,,,,,,,,,,,,,,,sub-069,1.0,random_dot,60.03445977672623,
left,left,,5.0,1.0,11.0,0.0,,,,,,,,,96.0324541000009,,,,,,,,,96.01833739998985,97.23172719999276,98.03164839999226,98.0155298999889,98.01558199999272,98.03164839999226,98.03164839999226,98.03164839999226,,98.41610609999044,left,1.0,79.94298560000607,,98.4170668000006,98.43022879998898,98.9144312999997,98.92977550000067,,,,,,,,,,,,,,,,,,,,,,,,,sub-069,1.0,random_dot,60.03445977672623,
right,right,,6.0,0.0,12.0,1.0,,,,,,,,,98.92977550000067,,,,,,,,,98.91531119999128,100.12897169998904,100.92904299999644,100.91270239998994,100.91274859999248,100.92904299999644,100.92904299999644,100.92904299999644,,101.19748740000068,right,1.0,79.82955609999772,,101.1986801000021,101.2112780999887,101.69525129999964,101.71074709999084,,,,,,,,,,,,,,,,,,,,,,,,,sub-069,1.0,random_dot,60.03445977672623,
left,left,,6.0,1.0,13.0,0.0,,,,,,,,,101.71074709999084,,,,,,,,,101.69616490000044,102.51001969999923,103.30997869999555,103.2938839999988,103.29393079999136,103.30997869999555,103.30997869999555,103.30997869999555,,103.62858449999476,left,1.0,79.87337529999786,,103.62979229999472,103.64226239999698,104.1262521999888,104.14170870000088,,,,,,,,,,,,,,,,,,,,,,,,,sub-069,1.0,random_dot,60.03445977672623,
right,right,,7.0,0.0,14.0,1.0,,,,,,,,,104.14170870000088,,,,,,,,,104.12713379999332,104.24153069999012,105.04190260000178,105.02551870000023,105.02556650000042,105.04190260000178,105.04190260000178,105.04190260000178,,105.42672689999743,right,1.0,79.93439629999921,,105.4280080000026,105.44052560000272,105.9245113999932,105.94015090000175,,,,,,,,,,,,,,,,,,,,,,,,,sub-069,1.0,random_dot,60.03445977672623,
left,left,,7.0,1.0,15.0,0.0,,,,,,,,,105.94015090000175,,,,,,,,,105.92540700000244,106.0398201999924,106.84009050000168,106.82376230000229,106.82381019998866,106.84009050000168,106.84009050000168,106.84009050000168,,107.17558299998927,left,1.0,79.90037920000032,,107.17674119998992,107.18900159999612,107.673002800002,107.68850150000073,,,,,,,,,,,,,,,,,,,,,,,,,sub-069,1.0,random_dot,60.03445977672623,
right,right,,8.0,0.0,16.0,1.0,,,,,,,,,107.68850150000073,,,,,,,,,107.6738631999906,108.038126200001,108.83822499999953,108.82169630000136,108.82174299999316,108.83822499999953,108.83822499999953,108.83822499999953,,109.15688199999568,right,1.0,79.88091300000087,,109.15806149999844,109.17025629999988,109.65456670000276,109.6696826999978,,,,,,,,,,,,,,,,,,,,,,,,,sub-069,1.0,random_dot,60.03445977672623,
left,left,,8.0,1.0,17.0,0.0,,,,,,,,,109.6696826999978,,,,,,,,,109.65543199999956,109.7698543000006,110.56979280000088,110.5534403999918,110.55348879999656,110.56979280000088,110.56979280000088,110.56979280000088,,110.85486890000176,left,1.0,79.84666759999527,,110.85584459999518,110.86852099999668,111.35359909999534,111.36863969999833,,,,,,,,,,,,,,,,,,,,,,,,,sub-069,1.0,random_dot,60.03445977672623,
right,right,,9.0,0.0,18.0,1.0,,,,,,,,,111.36863969999833,,,,,,,,,111.35487260000082,111.71814409999934,112.51838850000058,112.5024082000018,112.5024684999953,112.51838850000058,112.51838850000058,112.51838850000058,,116.4996444999997,right,1.0,83.53842310000618,,116.50065149999864,116.51331290000236,116.99714419999508,117.012009699989,,,,,,,,,,,,,,,,,,,,,,,,,sub-069,1.0,random_dot,60.03445977672623,
left,left,,9.0,1.0,19.0,0.0,,,,,,,,,117.012009699989,,,,,,,,,116.99823789999937,117.11201349999465,117.91176829999311,117.8963914999913,117.896451099994,117.91176829999311,117.91176829999311,117.91176829999311,,122.60944190000008,left,1.0,84.25722050000331,,122.6105217000004,122.62363750000075,123.1077198999992,123.12322739999216,,,,,,,,,,,,,,,,,,,,,,,,,sub-069,1.0,random_dot,60.03445977672623,
,,,,,,,,,,,,,,,,,,,,,,,,,,,,,,,,,,,,,,,,,,123.1078448999906,123.12322739999216,123.12322739999216,126.12278979999246,space,82.55045159999281,,,,,,,,,,,,,,,,,,,sub-069,1.0,random_dot,60.03445977672623,
,,,,,,,,,,,,,,,,,,,,,,,,,,,,,,,,,,,,,,,,,,,,,,,,,126.12288019999689,126.13705629999458,126.13705629999458,128.47100740000317,space,81.88445739999588,,,,,,,,,,,,sub-069,1.0,random_dot,60.03445977672623,
right,right,speed,,,,,0.0,0.0,0.0,1.0,0.0,0.0,0.0,1.0,130.76083059998928,,,,,,,,,130.75550469999143,131.54896829999052,132.3491195999959,132.33309509999526,132.3331468999968,132.3491195999959,132.3491195999959,132.3491195999959,,133.45067829999607,left,0.0,80.65762079998967,,,,,,,,,,,,,,,,,,,,128.48110629999428,128.5423535000009,128.5423535000009,130.7352094999951,space,81.74233649999951,,,,,sub-069,1.0,random_dot,60.03445977672623,
left,left,speed,,,,,0.0,0.0,0.0,1.0,0.0,1.0,1.0,0.0,133.4643109000026,,,,,,,,,133.4536872999888,134.66322029998992,135.46332769999572,135.4471663000004,135.44721410000056,135.46332769999572,135.46332769999572,135.46332769999572,,137.63046099999335,left,1.0,81.72157860000152,,,,,,,,,,,,,,,,,,,,,,,,,,,,,,sub-069,1.0,random_dot,60.03445977672623,
left,left,speed,,,,,0.0,0.0,0.0,1.0,1.0,0.0,2.0,0.0,137.64393289999862,,,,,,,,,137.63304129999597,138.84258959999715,139.64265129998967,139.62649640000018,139.62654929999553,139.64265129998967,139.64265129998967,139.64265129998967,,142.5928157000017,left,1.0,82.5120498000033,,,,,,,,,,,,,,,,,,,,,,,,,,,,,,sub-069,1.0,random_dot,60.03445977672623,
right,right,speed,,,,,0.0,0.0,0.0,1.0,1.0,1.0,3.0,1.0,142.60572669999965,,,,,,,,,142.59547420000308,142.70586979998916,143.50580739999714,143.48988209999516,143.48995619999187,143.50580739999714,143.50580739999714,143.50580739999714,,144.3242362000019,right,1.0,80.37018669999088,,,,,,,,,,,,,,,,,,,,,,,,,,,,,,sub-069,1.0,random_dot,60.03445977672623,
right,right,speed,,,,,0.0,0.0,0.0,1.0,2.0,0.0,4.0,1.0,144.33760699999402,,,,,,,,,144.326876799998,144.4375258999935,145.25280229999044,145.23705029999837,145.23710489999212,145.25280229999044,145.25280229999044,145.25280229999044,,146.80384269999922,right,1.0,81.10274370000116,,,,,,,,,,,,,,,,,,,,,,,,,,,,,,sub-069,1.0,random_dot,60.03445977672623,
left,left,speed,,,,,0.0,0.0,0.0,1.0,2.0,1.0,5.0,0.0,146.81769379999605,,,,,,,,,146.80618959999993,146.9173856999987,147.71721839999373,147.70152699999744,147.70159630000126,147.71721839999373,147.71721839999373,147.71721839999373,,149.3843979999947,left,1.0,81.22989719999896,,,,,,,,,,,,,,,,,,,,,,,,,,,,,,sub-069,1.0,random_dot,60.03445977672623,
left,left,speed,,,,,0.0,0.0,0.0,1.0,3.0,0.0,6.0,0.0,149.39840320000076,,,,,,,,,149.38658120000036,149.49826349999057,150.29791929999192,150.28203999999096,150.28208219999215,150.29791929999192,150.29791929999192,150.29791929999192,,152.79793960000097,left,1.0,82.05206980000366,,,,,,,,,,,,,,,,,,,,,,,,,,,,,,sub-069,1.0,random_dot,60.03445977672623,
right,right,speed,,,,,0.0,0.0,0.0,1.0,3.0,1.0,7.0,1.0,152.81186609998986,,,,,,,,,152.80068179999944,154.01125789999787,154.8111191999924,154.7956886000029,154.79575849999674,154.8111191999924,154.8111191999924,154.8111191999924,,155.79553459999445,right,1.0,80.53436550000333,,,,,,,,,,,,,,,,,,,,,,,,,,,,,,sub-069,1.0,random_dot,60.03445977672623,
left,left,speed,,,,,0.0,0.0,0.0,1.0,4.0,0.0,8.0,0.0,155.80963709999924,,,,,,,,,155.7976503999962,155.90959149999253,156.70946009999898,156.6931242999999,156.69316850000178,156.70946009999898,156.70946009999898,156.70946009999898,,159.892760799994,left,1.0,82.74433560000034,,,,,,,,,,,,,,,,,,,,,,,,,,,,,,sub-069,1.0,random_dot,60.03445977672623,
right,right,speed,,,,,0.0,0.0,0.0,1.0,4.0,1.0,9.0,1.0,159.90604590000294,,,,,,,,,159.89498840000306,160.7055524000025,161.52095310000004,161.50552239999524,161.50558430000092,161.52095310000004,161.52095310000004,161.52095310000004,,164.10368949999977,right,1.0,82.1360607000097,,,,,,,,,,,,,,,,,,,,,,,,,,,,,,sub-069,1.0,random_dot,60.03445977672623,
left,left,speed,,,,,0.0,0.0,0.0,1.0,5.0,0.0,10.0,0.0,164.11807450000197,,,,,,,,,164.1057897999999,164.46801050000067,165.26802839999436,165.25236739999673,165.25248280000233,165.26802839999436,165.26802839999436,165.26802839999436,,169.2168726999953,left,1.0,83.50569279999763,,,,,,,,,,,,,,,,,,,,,,,,,,,,,,sub-069,1.0,random_dot,60.03445977672623,
right,right,speed,,,,,0.0,0.0,0.0,1.0,5.0,1.0,11.0,1.0,169.23044069999014,,,,,,,,,169.21903510000266,170.42985719999706,171.23016700000153,171.214123999991,171.21418329999142,171.23016700000153,171.23016700000153,171.23016700000153,,172.332004099997,right,1.0,80.66508489999978,,,,,,,,,,,,,,,,,,,,,,,,,,,,,,sub-069,1.0,random_dot,60.03445977672623,
right,right,speed,,,,,0.0,0.0,0.0,1.0,6.0,0.0,12.0,1.0,172.3448492999887,,,,,,,,,172.33512019999034,172.44451629999094,173.26084039999114,173.2437748999946,173.24379009999393,173.26084039999114,173.26084039999114,173.26084039999114,,177.24188370000047,right,1.0,83.5420993000007,,,,,,,,,,,,,,,,,,,,,,,,,,,,,,sub-069,1.0,random_dot,60.03445977672623,
left,left,speed,,,,,0.0,0.0,0.0,1.0,6.0,1.0,13.0,0.0,177.25562969999737,,,,,,,,,177.2442202999955,177.35562789998949,178.15528859999904,178.13980759998958,178.13988669999526,178.15528859999904,178.15528859999904,178.15528859999904,,179.77255829999922,left,1.0,81.1679804000014,,,,,,,,,,,,,,,,,,,,,,,,,,,,,,sub-069,1.0,random_dot,60.03445977672623,
left,left,speed,,,,,0.0,0.0,0.0,1.0,7.0,0.0,14.0,0.0,179.78665159999218,,,,,,,,,179.7749474000011,180.58606259999212,181.3857015999965,181.3699702000013,181.37001800000144,181.3857015999965,181.3857015999965,181.3857015999965,186.3813758999895,188.2150586999924,left,1.0,86.38353530000313,,,,,,,,,,,,,,,,,,,,,,,,,,,,,,sub-069,1.0,random_dot,60.03445977672623,
right,right,speed,,,,,0.0,0.0,0.0,1.0,7.0,1.0,15.0,1.0,188.22916950000217,,,,,,,,,188.21697660000063,189.02905479999023,189.8291260999977,189.8124977999978,189.81253709999143,189.8291260999977,189.8291260999977,189.8291260999977,,192.3790281999973,right,1.0,82.11222090000228,,,,,,,,,,,,,,,,,,,,,,,,,,,,,,sub-069,1.0,random_dot,60.03445977672623,
right,right,speed,,,,,0.0,0.0,0.0,1.0,8.0,0.0,16.0,1.0,192.39235749999352,,,,,,,,,192.3814806000009,193.59123160000308,194.3913717999967,194.37510469999688,194.37515179999173,194.3913717999967,194.3913717999967,194.3913717999967,,197.77374150000105,right,1.0,82.94586120000167,,,,,,,,,,,,,,,,,,,,,,,,,,,,,,sub-069,1.0,random_dot,60.03445977672623,
left,left,speed,,,,,0.0,0.0,0.0,1.0,8.0,1.0,17.0,0.0,197.78727849999268,,,,,,,,,197.77586470000097,197.88749039999675,198.68751239999256,198.67093559999196,198.6709783999977,198.68751239999256,198.68751239999256,198.68751239999256,,200.9540846000018,left,1.0,81.82337190001272,,,,,,,,,,,,,,,,,,,,,,,,,,,,,,sub-069,1.0,random_dot,60.03445977672623,
left,left,speed,,,,,0.0,0.0,0.0,1.0,9.0,0.0,18.0,0.0,200.96792679998907,,,,,,,,,200.9562319999968,202.16593730000025,202.96569640000237,202.9498849999945,202.94994489999956,202.96569640000237,202.96569640000237,202.96569640000237,,207.43070919999445,left,1.0,84.01620710000861,,,,,,,,,,,,,,,,,,,,,,,,,,,,,,sub-069,1.0,random_dot,60.03445977672623,
right,right,speed,,,,,0.0,0.0,0.0,1.0,9.0,1.0,19.0,1.0,207.4444629999925,,,,,,,,,207.43315399999847,207.7942476999888,208.5945192999934,208.5783627999917,208.57841049999115,208.5945192999934,208.5945192999934,208.5945192999934,,209.72938419999264,right,1.0,80.68479610001668,,,,,,,,,,,,,,,,,,,,,,,,,,,,,,sub-069,1.0,random_dot,60.03445977672623,
right,right,speed,,,,,0.0,0.0,0.0,1.0,10.0,0.0,20.0,1.0,209.74294939999527,,,,,,,,,209.73182239999005,210.09272169999892,210.8927842999983,210.87655509999604,210.87660199998936,210.8927842999983,210.8927842999983,210.8927842999983,,214.70820059999824,right,1.0,83.37750080000842,,,,,,,,,,,,,,,,,,,,,,,,,,,,,,sub-069,1.0,random_dot,60.03445977672623,
left,left,speed,,,,,0.0,0.0,0.0,1.0,10.0,1.0,21.0,0.0,214.72173199999088,,,,,,,,,214.7105287000013,215.92040289999568,216.7205452999915,216.70440599998983,216.7044550999999,216.7205452999915,216.7205452999915,216.7205452999915,,221.2348007999972,left,1.0,84.07351790000394,,,,,,,,,,,,,,,,,,,,,,,,,,,,,,sub-069,1.0,random_dot,60.03445977672623,
right,right,speed,,,,,0.0,0.0,0.0,1.0,11.0,0.0,22.0,1.0,221.2488767000032,,,,,,,,,221.2365787000017,221.3486198000028,222.16451479999523,222.14893879999,222.14901850000024,222.16451479999523,222.16451479999523,222.16451479999523,,225.44607839999665,right,1.0,82.83332430000883,,,,,,,,,,,,,,,,,,,,,,,,,,,,,,sub-069,1.0,random_dot,60.03445977672623,
left,left,speed,,,,,0.0,0.0,0.0,1.0,11.0,1.0,23.0,0.0,225.4605842000019,,,,,,,,,225.4480462999927,225.8106800999958,226.6267584000016,226.61113479999767,226.61119489998964,226.6267584000016,226.6267584000016,226.6267584000016,,229.142282300003,left,1.0,82.0715474000026,,,,,,,,,,,,,,,,,,,,,,,,,,,,,,sub-069,1.0,random_dot,60.03445977672623,
left,left,speed,,,,,0.0,0.0,0.0,1.0,12.0,0.0,24.0,0.0,229.15693089998967,,,,,,,,,229.14379679999547,229.95667369999865,230.75624380000227,230.7409470999992,230.7410087999888,230.75624380000227,230.75624380000227,230.75624380000227,,235.57064739998896,left,1.0,84.37310440000147,,,,,,,,,,,,,,,,,,,,,,,,,,,,,,sub-069,1.0,random_dot,60.03445977672623,
right,right,speed,,,,,0.0,0.0,0.0,1.0,12.0,1.0,25.0,1.0,235.5843845999916,,,,,,,,,235.57381289999464,235.6844027999905,236.4840683999937,236.4684103999898,236.46845689999464,236.4840683999937,236.4840683999937,236.4840683999937,241.47902899999465,241.8477581999905,right,1.0,84.9198888999963,,,,,,,,,,,,,,,,,,,,,,,,,,,,,,sub-069,1.0,random_dot,60.03445977672623,
right,right,speed,,,,,0.0,0.0,0.0,1.0,13.0,0.0,26.0,1.0,241.8619966999977,,,,,,,,,241.85002040000109,242.2116435999924,243.0113910999935,242.99569589999737,242.99580509999944,243.0113910999935,243.0113910999935,243.0113910999935,,246.44324799999595,right,1.0,82.98696239999845,,,,,,,,,,,,,,,,,,,,,,,,,,,,,,sub-069,1.0,random_dot,60.03445977672623,
left,left,speed,,,,,0.0,0.0,0.0,1.0,13.0,1.0,27.0,0.0,246.45740990000195,,,,,,,,,246.4450702000031,246.55771249999816,247.35709459999637,247.3411552999896,247.3411974999908,247.35709459999637,247.35709459999637,247.35709459999637,,249.1245445999957,left,1.0,81.33153460000176,,,,,,,,,,,,,,,,,,,,,,,,,,,,,,sub-069,1.0,random_dot,60.03445977672623,
right,right,speed,,,,,0.0,0.0,0.0,1.0,14.0,0.0,28.0,1.0,249.1386133999913,,,,,,,,,249.12666379999428,249.48812139999063,250.28820759999508,250.2725645000028,250.27262459999477,250.28820759999508,250.28820759999508,250.28820759999508,,253.6710621999955,right,1.0,82.94263520000095,,,,,,,,,,,,,,,,,,,,,,,,,,,,,,sub-069,1.0,random_dot,60.03445977672623,
left,left,speed,,,,,0.0,0.0,0.0,1.0,14.0,1.0,29.0,0.0,253.68495679998887,,,,,,,,,253.6729698999989,254.4843625999929,255.2845413999894,255.2685015000025,255.26855369999248,255.2845413999894,255.2845413999894,255.2845413999894,,257.65030670000124,left,1.0,81.92570799999521,,,,,,,,,,,,,,,,,,,,,,,,,,,,,,sub-069,1.0,random_dot,60.03445977672623,
left,left,speed,,,,,0.0,0.0,0.0,1.0,15.0,0.0,30.0,0.0,257.66469730000244,,,,,,,,,257.6518645999895,257.76480989999254,258.5649884000013,258.54871750000166,258.54877080000006,258.5649884000013,258.5649884000013,258.5649884000013,,263.06132870000147,left,1.0,84.05842899999698,,,,,,,,,,,,,,,,,,,,,,,,,,,,,,sub-069,1.0,random_dot,60.03445977672623,
right,right,speed,,,,,0.0,0.0,0.0,1.0,15.0,1.0,31.0,1.0,263.07526149999467,,,,,,,,,263.063490799992,263.8750058000005,264.6748634999967,264.65919549998944,264.65925640000205,264.6748634999967,264.6748634999967,264.6748634999967,,268.505347600003,right,1.0,83.3925476000004,,,,,,,,,,,,,,,,,,,,,,,,,,,,,,sub-069,1.0,random_dot,60.03445977672623,
right,right,speed,,,,,0.0,0.0,0.0,1.0,16.0,0.0,32.0,1.0,268.5202019999997,,,,,,,,,268.5061030999932,269.7195528000011,270.5353111000004,270.51883829999133,270.5188783999911,270.5353111000004,270.5353111000004,270.5353111000004,,274.9671685999929,right,1.0,83.9836071000027,,,,,,,,,,,,,,,,,,,,,,,,,,,,,,sub-069,1.0,random_dot,60.03445977672623,
left,left,speed,,,,,0.0,0.0,0.0,1.0,16.0,1.0,33.0,0.0,274.980931099999,,,,,,,,,274.9696057999972,275.78010659999563,276.5802282999939,276.5642386999971,276.5642853999889,276.5802282999939,276.5802282999939,276.5802282999939,281.5759500999993,282.509338399992,left,1.0,85.48584009999468,,,,,,,,,,,,,,,,,,,,,,,,,,,,,,sub-069,1.0,random_dot,60.03445977672623,
left,left,speed,,,,,0.0,0.0,0.0,1.0,17.0,0.0,34.0,0.0,282.5239744999999,,,,,,,,,282.5114057000028,282.87398419999226,283.69009239999286,283.6745322999923,283.6746035999968,283.69009239999286,283.69009239999286,283.69009239999286,288.68591309999465,289.3377685000014,left,1.0,85.21020139999746,,,,,,,,,,,,,,,,,,,,,,,,,,,,,,sub-069,1.0,random_dot,60.03445977672623,
right,right,speed,,,,,0.0,0.0,0.0,1.0,17.0,1.0,35.0,1.0,289.3514176999888,,,,,,,,,289.3402408999973,290.14998339999875,290.9498046999943,290.93428020000283,290.9343277000007,290.9498046999943,290.9498046999943,290.9498046999943,,295.2480848999985,right,1.0,83.85775110000395,,,,,,,,,,,,,,,,,,,,,,,,,,,,,,sub-069,1.0,random_dot,60.03445977672623,
left,left,speed,,,,,0.0,0.0,0.0,1.0,18.0,0.0,36.0,0.0,295.26215879998927,,,,,,,,,295.2501663000003,295.3623688999942,296.1619506999996,296.14618229999905,296.1462625999993,296.1619506999996,296.1619506999996,296.1619506999996,,299.5104979000025,left,1.0,82.90855060001195,,,,,,,,,,,,,,,,,,,,,,,,,,,,,,sub-069,1.0,random_dot,60.03445977672623,
right,right,speed,,,,,0.0,0.0,0.0,1.0,18.0,1.0,37.0,1.0,299.5246361999889,,,,,,,,,299.5124777000019,300.3239502999932,301.1238805999892,301.1083266999922,301.1083854000026,301.1238805999892,301.1238805999892,301.1238805999892,306.11870979999367,307.90297499999,right,1.0,86.3399317000003,,,,,,,,,,,,,,,,,,,,,,,,,,,,,,sub-069,1.0,random_dot,60.03445977672623,
right,right,speed,,,,,0.0,0.0,0.0,1.0,19.0,0.0,38.0,1.0,307.916725499992,,,,,,,,,307.90568090000306,308.71620229999826,309.51602179999463,309.5002628999937,309.50031459999445,309.51602179999463,309.51602179999463,309.51602179999463,314.5111887999956,314.97948519999045,right,1.0,85.01960610000242,,,,,,,,,,,,,,,,,,,,,,,,,,,,,,sub-069,1.0,random_dot,60.03445977672623,
left,left,speed,,,,,0.0,0.0,0.0,1.0,19.0,1.0,39.0,0.0,314.9938795999915,,,,,,,,,314.98162589999265,315.09371180000016,315.89370909999707,315.8779982999986,315.8780590999959,315.89370909999707,315.89370909999707,315.89370909999707,,317.34545749999234,left,1.0,81.0006485000049,,,,,,,,,,,,,,,,,,,,,,,,,,,,,,sub-069,1.0,random_dot,60.03445977672623,
right,right,speed,,,,,0.0,0.0,0.0,1.0,20.0,0.0,40.0,1.0,317.35874329999206,,,,,,,,,317.34817509999266,317.4587574999896,318.2744900999969,318.2586545999948,318.2587074999901,318.2744900999969,318.2744900999969,318.2744900999969,,319.741592099992,right,1.0,81.01668400000199,,,,,,,,,,,,,,,,,,,,,,,,,,,,,,sub-069,1.0,random_dot,60.03445977672623,
left,left,speed,,,,,0.0,0.0,0.0,1.0,20.0,1.0,41.0,0.0,319.75562149999314,,,,,,,,,319.74400569999125,320.95480490000045,321.75450729999284,321.73927169998933,321.7394731999957,321.75450729999284,321.75450729999284,321.75450729999284,326.7495393999998,326.9846445000003,left,1.0,84.7896524000098,,,,,,,,,,,,,,,,,,,,,,,,,,,,,,sub-069,1.0,random_dot,60.03445977672623,
right,right,speed,,,,,0.0,0.0,0.0,1.0,21.0,0.0,42.0,1.0,326.9988272999908,,,,,,,,,326.986831000002,327.0989450999914,327.898629000003,327.8826807000005,327.8827234999917,327.898629000003,327.898629000003,327.898629000003,332.8940651000012,333.47950010000204,right,1.0,85.1322790000122,,,,,,,,,,,,,,,,,,,,,,,,,,,,,,sub-069,1.0,random_dot,60.03445977672623,
left,left,speed,,,,,0.0,0.0,0.0,1.0,21.0,1.0,43.0,0.0,333.49291390000144,,,,,,,,,333.48216339999635,334.2923196999909,335.0920916000032,335.0763959999895,335.0764485999971,335.0920916000032,335.0920916000032,335.0920916000032,,339.8397158000007,left,1.0,84.31152030000521,,,,,,,,,,,,,,,,,,,,,,,,,,,,,,sub-069,1.0,random_dot,60.03445977672623,
left,left,speed,,,,,0.0,0.0,0.0,1.0,22.0,0.0,44.0,0.0,339.8539712999918,,,,,,,,,339.8418340999924,341.05293359998905,341.8532481000002,341.83722669999406,341.83728639999754,341.8532481000002,341.8532481000002,341.8532481000002,346.84742999999435,347.7319776999939,left,1.0,85.4424594000011,,,,,,,,,,,,,,,,,,,,,,,,,,,,,,sub-069,1.0,random_dot,60.03445977672623,
right,right,speed,,,,,0.0,0.0,0.0,1.0,22.0,1.0,45.0,1.0,347.74618249999185,,,,,,,,,347.7340813999908,347.8460079999932,348.64613129998907,348.6303599999956,348.6304200000013,348.64613129998907,348.64613129998907,348.64613129998907,,351.1970771999913,right,1.0,82.10719010001048,,,,,,,,,,,,,,,,,,,,,,,,,,,,,,sub-069,1.0,random_dot,60.03445977672623,
left,left,speed,,,,,0.0,0.0,0.0,1.0,23.0,0.0,46.0,0.0,351.21012699999847,,,,,,,,,351.2001797999983,351.5597445000021,352.35981449999963,352.3441515000013,352.3442170999915,352.35981449999963,352.35981449999963,352.35981449999963,357.3556494999939,358.3059718000004,left,1.0,85.50886859999446,,,,,,,,,,,,,,,,,,,,,,,,,,,,,,sub-069,1.0,random_dot,60.03445977672623,
right,right,speed,,,,,0.0,0.0,0.0,1.0,23.0,1.0,47.0,1.0,358.31986119999783,,,,,,,,,358.30829169999924,359.11915059998864,359.91878500000166,359.90306019999844,359.903106999991,359.91878500000166,359.91878500000166,359.91878500000166,364.9144002999965,365.3498768999998,right,1.0,84.98751390000689,,,,,,,,,,,,,,,,,,,,,,,,,,,,,,sub-069,1.0,random_dot,60.03445977672623,
left,left,speed,,,,,0.0,0.0,0.0,1.0,24.0,0.0,48.0,0.0,365.3636854999932,,,,,,,,,365.352189199999,365.4637098999956,366.2793660000025,366.2636256999977,366.2636730999948,366.2793660000025,366.2793660000025,366.2793660000025,,367.3637295999943,left,1.0,80.63524780000444,,,,,,,,,,,,,,,,,,,,,,,,,,,,,,sub-069,1.0,random_dot,60.03445977672623,
right,right,speed,,,,,0.0,0.0,0.0,1.0,24.0,1.0,49.0,1.0,367.3779206999898,,,,,,,,,367.3661543999915,367.4777896000014,368.2777155999938,368.2617606999993,368.26180769999337,368.2777155999938,368.2777155999938,368.2777155999938,,369.31250590000127,right,1.0,80.59828660001222,,,,,,,,,,,,,,,,,,,,,,,,,,,,,,sub-069,1.0,random_dot,60.03445977672623,
right,right,speed,,,,,0.0,0.0,0.0,1.0,25.0,0.0,50.0,1.0,369.32623530000274,,,,,,,,,369.3148190999928,369.6758581000031,370.475563,370.4599095000012,370.45995720000064,370.475563,370.475563,370.475563,,375.0908985999995,right,1.0,84.16466819999914,,,,,,,,,,,,,,,,,,,,,,,,,,,,,,sub-069,1.0,random_dot,60.03445977672623,
left,left,speed,,,,,0.0,0.0,0.0,1.0,25.0,1.0,51.0,0.0,375.1047835999925,,,,,,,,,375.09270090000064,376.3040989000001,377.1042899000022,377.0880414999992,377.088104399998,377.1042899000022,377.1042899000022,377.1042899000022,,380.50312850000046,left,1.0,82.96233510000457,,,,,,,,,,,,,,,,,,,,,,,,,,,,,,sub-069,1.0,random_dot,60.03445977672623,
left,left,speed,,,,,0.0,0.0,0.0,1.0,26.0,0.0,52.0,0.0,380.5166481999913,,,,,,,,,380.50547219999135,380.8663365999964,381.66644459999225,381.650026999996,381.65007449999393,381.66644459999225,381.66644459999225,381.66644459999225,,384.2318578999984,left,1.0,82.12633640000422,,,,,,,,,,,,,,,,,,,,,,,,,,,,,,sub-069,1.0,random_dot,60.03445977672623,
right,right,speed,,,,,0.0,0.0,0.0,1.0,26.0,1.0,53.0,1.0,384.2454963999917,,,,,,,,,384.2342019999924,385.04511710000224,385.8445167000027,385.8285119999928,385.82855469999777,385.8445167000027,385.8445167000027,385.8445167000027,,386.96220249999897,right,1.0,80.66779839999799,,,,,,,,,,,,,,,,,,,,,,,,,,,,,,sub-069,1.0,random_dot,60.03445977672623,
right,right,speed,,,,,0.0,0.0,0.0,1.0,27.0,0.0,54.0,1.0,386.976436099998,,,,,,,,,386.9644648999965,387.7760235000024,388.5759708999976,388.5600701999938,388.56012819999887,388.5759708999976,388.5759708999976,388.5759708999976,393.5718812999985,394.32332609999867,left,0.0,85.305068200003,,,,,,,,,,,,,,,,,,,,,,,,,,,,,,sub-069,1.0,random_dot,60.03445977672623,
left,left,speed,,,,,0.0,0.0,0.0,1.0,27.0,1.0,55.0,0.0,394.3367253999895,,,,,,,,,394.3254387999914,394.6859480999992,395.4854529000004,395.47018439999374,395.4702830000024,395.4854529000004,395.4854529000004,395.4854529000004,,399.5504290999961,right,0.0,83.61523749999469,,,,,,,,,,,,,,,,,,,,,,,,,,,,,,sub-069,1.0,random_dot,60.03445977672623,
right,right,speed,,,,,0.0,0.0,0.0,1.0,28.0,0.0,56.0,1.0,399.5644461999909,,,,,,,,,399.5525886999967,399.914254000003,400.71452519999,400.6989980999933,400.6990584000014,400.71452519999,400.71452519999,400.71452519999,,405.52996089999215,right,1.0,84.38025220000418,,,,,,,,,,,,,,,,,,,,,,,,,,,,,,sub-069,1.0,random_dot,60.03445977672623,
left,left,speed,,,,,0.0,0.0,0.0,1.0,28.0,1.0,57.0,0.0,405.5430100999947,,,,,,,,,405.5323374,406.7409834999999,407.5407874999946,407.52550629999314,407.5255659999966,407.5407874999946,407.5407874999946,407.5407874999946,,409.4073711999954,left,1.0,81.42763829999603,,,,,,,,,,,,,,,,,,,,,,,,,,,,,,sub-069,1.0,random_dot,60.03445977672623,
left,left,speed,,,,,0.0,0.0,0.0,1.0,29.0,0.0,58.0,0.0,409.4217549000023,,,,,,,,,409.409186799996,410.221118299989,411.0209489999979,411.0050843999925,411.0051329999988,411.0209489999979,411.0209489999979,411.0209489999979,,414.7206819999992,left,1.0,83.24981030001072,,,,,,,,,,,,,,,,,,,,,,,,,,,,,,sub-069,1.0,random_dot,60.03445977672623,
right,right,speed,,,,,0.0,0.0,0.0,1.0,29.0,1.0,59.0,1.0,414.7341783000011,,,,,,,,,414.7230516999989,415.9333401999902,416.7334271,416.7173486999964,416.717395899992,416.7334271,416.7334271,416.7334271,,418.1011002000014,right,1.0,80.93131559999892,,,,,,,,,,,,,,,,,,,,,,,,,,,,,,sub-069,1.0,random_dot,60.03445977672623,
,,speed,,,,,0.0,0.0,0.0,1.0,,,,,,,,,,,,,,,,,,,,,,,,,,,,,,,,,,,,,,,,,,,,,,,,,,,,,,,,sub-069,1.0,random_dot,60.03445977672623,
left,left,accuracy,,,,,0.0,1.0,1.0,0.0,0.0,0.0,0.0,0.0,421.4529266999889,,,,,,,,,421.4473094999994,422.64394919999177,423.4439025000029,423.4279717999889,423.42803009999625,423.4439025000029,423.4439025000029,423.4439025000029,,425.7273316999927,left,1.0,81.8486147000076,,,,,,,,,,,,,,,,,,,,418.10328959999606,418.1329342999961,418.1329342999961,421.43027129999246,space,82.85085899999831,,,,,sub-069,1.0,random_dot,60.03445977672623,
right,right,accuracy,,,,,0.0,1.0,1.0,0.0,0.0,1.0,1.0,1.0,425.7409489999991,,,,,,,,,425.72984619998897,425.8407971999986,426.6411081999977,426.6248903999949,426.6249439999956,426.6411081999977,426.6411081999977,426.6411081999977,,428.0423224999977,right,1.0,80.95127750000393,,,,,,,,,,,,,,,,,,,,,,,,,,,,,,sub-069,1.0,random_dot,60.03445977672623,
left,left,accuracy,,,,,0.0,1.0,1.0,0.0,1.0,0.0,2.0,0.0,428.05530989999534,,,,,,,,,428.0451231999905,428.4051136999915,429.2053337999969,429.1892375999887,429.1892896999925,429.2053337999969,429.2053337999969,429.2053337999969,,431.072308399991,left,1.0,81.43064649999724,,,,,,,,,,,,,,,,,,,,,,,,,,,,,,sub-069,1.0,random_dot,60.03445977672623,
right,right,accuracy,,,,,0.0,1.0,1.0,0.0,1.0,1.0,3.0,1.0,431.08592129999306,,,,,,,,,431.0744477999978,431.1859013999929,431.9860356999998,431.96964739999385,431.9696901999996,431.9860356999998,431.9860356999998,431.9860356999998,,433.3365456999891,right,1.0,80.90045420000388,,,,,,,,,,,,,,,,,,,,,,,,,,,,,,sub-069,1.0,random_dot,60.03445977672623,
left,left,accuracy,,,,,0.0,1.0,1.0,0.0,2.0,0.0,4.0,0.0,433.350529000003,,,,,,,,,433.3386503999936,433.4501932999992,434.25051969999913,434.233585199996,434.2336187999899,434.25051969999913,434.25051969999913,434.25051969999913,,437.7976831999986,left,1.0,83.10812920000171,,,,,,,,,,,,,,,,,,,,,,,,,,,,,,sub-069,1.0,random_dot,60.03445977672623,
right,right,accuracy,,,,,0.0,1.0,1.0,0.0,2.0,1.0,5.0,1.0,437.8120745999913,,,,,,,,,437.7996825000009,437.9118959999905,438.7118284999888,438.6959181999992,438.6959703999892,438.7118284999888,438.7118284999888,438.7118284999888,,440.1628109000012,right,1.0,81.01455810001062,,,,,,,,,,,,,,,,,,,,,,,,,,,,,,sub-069,1.0,random_dot,60.03445977672623,
left,left,accuracy,,,,,0.0,1.0,1.0,0.0,3.0,0.0,6.0,0.0,440.176612700001,,,,,,,,,440.1652375999984,440.52614229999017,441.3258027999982,441.3100393999921,441.3100870999915,441.3258027999982,441.3258027999982,441.3258027999982,,442.4106325999892,left,1.0,80.64542739999888,,,,,,,,,,,,,,,,,,,,,,,,,,,,,,sub-069,1.0,random_dot,60.03445977672623,
right,right,accuracy,,,,,0.0,1.0,1.0,0.0,3.0,1.0,7.0,1.0,442.4243739999947,,,,,,,,,442.41308309999295,442.52430379998987,443.3241462000005,443.3084396999912,443.3084868000005,443.3241462000005,443.3241462000005,443.3241462000005,,445.8412305999954,right,1.0,82.07733420000295,,,,,,,,,,,,,,,,,,,,,,,,,,,,,,sub-069,1.0,random_dot,60.03445977672623,
left,left,accuracy,,,,,0.0,1.0,1.0,0.0,4.0,0.0,8.0,0.0,445.85523749999993,,,,,,,,,445.8435376999987,446.65455569999176,447.45504380000057,447.43837509999867,447.4384135,447.45504380000057,447.45504380000057,447.45504380000057,,448.50611539999954,left,1.0,80.60740639999858,,,,,,,,,,,,,,,,,,,,,,,,,,,,,,sub-069,1.0,random_dot,60.03445977672623,
right,right,accuracy,,,,,0.0,1.0,1.0,0.0,4.0,1.0,9.0,1.0,448.519741199998,,,,,,,,,448.5085196,449.3189980999887,450.1188555999979,450.10258979999344,450.1026364999998,450.1188555999979,450.1188555999979,450.1188555999979,,451.2534917000012,right,1.0,80.69088280000142,,,,,,,,,,,,,,,,,,,,,,,,,,,,,,sub-069,1.0,random_dot,60.03445977672623,
right,right,accuracy,,,,,0.0,1.0,1.0,0.0,5.0,0.0,10.0,1.0,451.26689259998966,,,,,,,,,451.2558429999917,451.6168531000003,452.4168844999949,452.4004533999978,452.4004999000026,452.4168844999949,452.4168844999949,452.4168844999949,,453.6178887999995,left,0.0,80.75323440000648,,,,,,,,,,,,,,,,,,,,,,,,,,,,,,sub-069,1.0,random_dot,60.03445977672623,
left,left,accuracy,,,,,0.0,1.0,1.0,0.0,5.0,1.0,11.0,0.0,453.6312733999948,,,,,,,,,453.620090899989,453.9810506999929,454.7811161999998,454.7645457999897,454.7645951000013,454.7811161999998,454.7811161999998,454.7811161999998,,459.0630703999923,left,1.0,83.83916309999768,,,,,,,,,,,,,,,,,,,,,,,,,,,,,,sub-069,1.0,random_dot,60.03445977672623,
left,left,accuracy,,,,,0.0,1.0,1.0,0.0,6.0,0.0,12.0,0.0,459.0765373000031,,,,,,,,,459.0654049000004,459.176209799989,459.9764880000002,459.960042199993,459.960090499997,459.9764880000002,459.9764880000002,459.9764880000002,,461.4439920000004,left,1.0,81.02051719999872,,,,,,,,,,,,,,,,,,,,,,,,,,,,,,sub-069,1.0,random_dot,60.03445977672623,
right,right,accuracy,,,,,0.0,1.0,1.0,0.0,6.0,1.0,13.0,1.0,461.4573691999976,,,,,,,,,461.44633919998887,461.5575586999912,462.35761900000216,462.3413359999977,462.34138359999633,462.35761900000216,462.35761900000216,462.35761900000216,,463.2244350999972,right,1.0,80.42967170001066,,,,,,,,,,,,,,,,,,,,,,,,,,,,,,sub-069,1.0,random_dot,60.03445977672623,
left,left,accuracy,,,,,0.0,1.0,1.0,0.0,7.0,0.0,14.0,0.0,463.2383504999889,,,,,,,,,463.2268468999973,464.0373420999968,464.837480000002,464.8222297999892,464.8223044999904,464.837480000002,464.837480000002,464.837480000002,,465.6893236999895,left,1.0,80.41079820001323,,,,,,,,,,,,,,,,,,,,,,,,,,,,,,sub-069,1.0,random_dot,60.03445977672623,
right,right,accuracy,,,,,0.0,1.0,1.0,0.0,7.0,1.0,15.0,1.0,465.70291919999,,,,,,,,,465.6919266999903,466.0526413999905,466.8521671999915,466.8365308999928,466.8365840999904,466.8521671999915,466.8521671999915,466.8521671999915,,467.95336739999766,right,1.0,80.65536840001005,,,,,,,,,,,,,,,,,,,,,,,,,,,,,,sub-069,1.0,random_dot,60.03445977672623,
right,right,accuracy,,,,,0.0,1.0,1.0,0.0,8.0,0.0,16.0,1.0,467.9674840999942,,,,,,,,,467.9556800999999,469.16632199999,469.9665851999889,469.9503752000019,469.9504230000021,469.9665851999889,469.9665851999889,469.9665851999889,,471.3348117999994,right,1.0,80.91792000000714,,,,,,,,,,,,,,,,,,,,,,,,,,,,,,sub-069,1.0,random_dot,60.03445977672623,
left,left,accuracy,,,,,0.0,1.0,1.0,0.0,8.0,1.0,17.0,0.0,471.34810879999714,,,,,,,,,471.3377870999975,471.69781529999455,472.4979612999887,472.4820146999991,472.4820630999893,472.4979612999887,472.4979612999887,472.4979612999887,,474.38207159999,left,1.0,81.44310950000363,,,,,,,,,,,,,,,,,,,,,,,,,,,,,,sub-069,1.0,random_dot,60.03445977672623,
right,right,accuracy,,,,,0.0,1.0,1.0,0.0,9.0,0.0,18.0,1.0,474.3952719999943,,,,,,,,,474.38443079999706,475.5946051999927,476.3944943999959,476.3787660999951,476.3788264999894,476.3944943999959,476.3944943999959,476.3944943999959,,477.37863469999866,right,1.0,80.53476090000186,,,,,,,,,,,,,,,,,,,,,,,,,,,,,,sub-069,1.0,random_dot,60.03445977672623,
left,left,accuracy,,,,,0.0,1.0,1.0,0.0,9.0,1.0,19.0,0.0,477.392279599997,,,,,,,,,477.3806806999928,478.5914721000008,479.39165160000266,479.3754187000013,479.3754661999992,479.39165160000266,479.39165160000266,479.39165160000266,,481.6418085999903,left,1.0,81.80311360000633,,,,,,,,,,,,,,,,,,,,,,,,,,,,,,sub-069,1.0,random_dot,60.03445977672623,
right,right,accuracy,,,,,0.0,1.0,1.0,0.0,10.0,0.0,20.0,1.0,481.6551439999894,,,,,,,,,481.64416979999805,481.7550647999888,482.55543860000034,482.5388234999991,482.53887089999625,482.55543860000034,482.55543860000034,482.55543860000034,,483.8394278999913,right,1.0,80.8333369000029,,,,,,,,,,,,,,,,,,,,,,,,,,,,,,sub-069,1.0,random_dot,60.03445977672623,
left,left,accuracy,,,,,0.0,1.0,1.0,0.0,10.0,1.0,21.0,0.0,483.8532425000012,,,,,,,,,483.8417771999957,485.0522353999986,485.8521026999952,485.8359338000009,485.8359806999943,485.8521026999952,485.8521026999952,485.8521026999952,,486.70379559999856,left,1.0,80.40296089999902,,,,,,,,,,,,,,,,,,,,,,,,,,,,,,sub-069,1.0,random_dot,60.03445977672623,
left,left,accuracy,,,,,0.0,1.0,1.0,0.0,11.0,0.0,22.0,0.0,486.717078200003,,,,,,,,,486.7061943000008,486.8169843999931,487.6173347000004,487.6010661999899,487.6011137000023,487.6173347000004,487.6173347000004,487.6173347000004,,488.6352424999932,left,1.0,80.5780575999961,,,,,,,,,,,,,,,,,,,,,,,,,,,,,,sub-069,1.0,random_dot,60.03445977672623,
right,right,accuracy,,,,,0.0,1.0,1.0,0.0,11.0,1.0,23.0,1.0,488.64882360000047,,,,,,,,,488.637608399993,488.7485728999891,489.54890379999415,489.5326459999924,489.5326948000002,489.54890379999415,489.54890379999415,489.54890379999415,,492.9313058999978,right,1.0,82.93402430000424,,,,,,,,,,,,,,,,,,,,,,,,,,,,,,sub-069,1.0,random_dot,60.03445977672623,
right,right,accuracy,,,,,0.0,1.0,1.0,0.0,12.0,0.0,24.0,1.0,492.94459869999264,,,,,,,,,492.93371879999177,493.2942838000017,494.0945957999938,494.0781389999902,494.0781865000026,494.0945957999938,494.0945957999938,494.0945957999938,,495.09473169999546,left,0.0,80.55207000000519,,,,,,,,,,,,,,,,,,,,,,,,,,,,,,sub-069,1.0,random_dot,60.03445977672623,
left,left,accuracy,,,,,0.0,1.0,1.0,0.0,12.0,1.0,25.0,0.0,495.1082708999893,,,,,,,,,495.0971467999916,495.2084684000001,496.0082395999925,495.9924617999932,495.9925098999957,496.0082395999925,496.0082395999925,496.0082395999925,,499.7236370000028,left,1.0,83.2753878999938,,,,,,,,,,,,,,,,,,,,,,,,,,,,,,sub-069,1.0,random_dot,60.03445977672623,
left,left,accuracy,,,,,0.0,1.0,1.0,0.0,13.0,0.0,26.0,0.0,499.7376720000029,,,,,,,,,499.7260529999912,499.8375524000003,500.6373745000019,500.621507399992,500.62155429999984,500.6373745000019,500.6373745000019,500.6373745000019,,503.5201124000014,left,1.0,82.44143849999818,,,,,,,,,,,,,,,,,,,,,,,,,,,,,,sub-069,1.0,random_dot,60.03445977672623,
right,right,accuracy,,,,,0.0,1.0,1.0,0.0,13.0,1.0,27.0,1.0,503.5339898999955,,,,,,,,,503.5224831999949,504.7327298000018,505.5327906000021,505.5165676999896,505.5166309999913,505.5327906000021,505.5327906000021,505.5327906000021,510.5285206999979,511.2963001999888,left,0.0,85.3181070999999,,,,,,,,,,,,,,,,,,,,,,,,,,,,,,sub-069,1.0,random_dot,60.03445977672623,
right,right,accuracy,,,,,0.0,1.0,1.0,0.0,14.0,0.0,28.0,1.0,511.3098326999898,,,,,,,,,511.2987917999999,512.5086886999925,513.3085823000001,513.2926340999984,513.2926817999978,513.3085823000001,513.3085823000001,513.3085823000001,,514.4097115999903,right,1.0,80.66556320000382,,,,,,,,,,,,,,,,,,,,,,,,,,,,,,sub-069,1.0,random_dot,60.03445977672623,
left,left,accuracy,,,,,0.0,1.0,1.0,0.0,14.0,1.0,29.0,0.0,514.423776399999,,,,,,,,,514.4119037999917,515.2231738999981,516.0232680999907,516.0077682999981,516.0078324999922,516.0232680999907,516.0232680999907,516.0232680999907,,518.3237932999909,left,1.0,81.85032409999985,,,,,,,,,,,,,,,,,,,,,,,,,,,,,,sub-069,1.0,random_dot,60.03445977672623,
left,left,accuracy,,,,,0.0,1.0,1.0,0.0,15.0,0.0,30.0,0.0,518.3374629000027,,,,,,,,,518.326104599997,519.5366328999953,520.3366639000014,520.3204881999991,520.3205355999962,520.3366639000014,520.3366639000014,520.3366639000014,,523.751943299998,right,0.0,82.97175430000061,,,,,,,,,,,,,,,,,,,,,,,,,,,,,,sub-069,1.0,random_dot,60.03445977672623,
right,right,accuracy,,,,,0.0,1.0,1.0,0.0,15.0,1.0,31.0,1.0,523.7658563000005,,,,,,,,,523.7541029999993,524.1154660000029,524.9159408999985,524.8998588999966,524.8999221999984,524.9159408999985,524.9159408999985,524.9159408999985,,526.8494148000027,right,1.0,81.48993789999804,,,,,,,,,,,,,,,,,,,,,,,,,,,,,,sub-069,1.0,random_dot,60.03445977672623,
right,right,accuracy,,,,,0.0,1.0,1.0,0.0,16.0,0.0,32.0,1.0,526.8630949999933,,,,,,,,,526.8519320999912,526.9629798999958,527.7783009999985,527.7625912999938,527.7626386999909,527.7783009999985,527.7783009999985,527.7783009999985,,531.4105645999953,right,1.0,83.1840583000012,,,,,,,,,,,,,,,,,,,,,,,,,,,,,,sub-069,1.0,random_dot,60.03445977672623,
left,left,accuracy,,,,,0.0,1.0,1.0,0.0,16.0,1.0,33.0,0.0,531.4246419999981,,,,,,,,,531.412493900003,532.6237024000002,533.4237343999994,533.4078027999931,533.4078563999938,533.4237343999994,533.4237343999994,533.4237343999994,,536.8400018999964,left,1.0,82.97715150000295,,,,,,,,,,,,,,,,,,,,,,,,,,,,,,sub-069,1.0,random_dot,60.03445977672623,
left,left,accuracy,,,,,0.0,1.0,1.0,0.0,17.0,0.0,34.0,0.0,536.8535957999993,,,,,,,,,536.8423211999907,536.9532584999979,537.7537062999909,537.7376726999937,537.7377250999998,537.7537062999909,537.7537062999909,537.7537062999909,,542.5996684999991,left,1.0,84.40072380000493,,,,,,,,,,,,,,,,,,,,,,,,,,,,,,sub-069,1.0,random_dot,60.03445977672623,
right,right,accuracy,,,,,0.0,1.0,1.0,0.0,17.0,1.0,35.0,1.0,542.6139683999936,,,,,,,,,542.6014768000023,543.8132556999917,544.6126982999995,544.5969464999944,544.5969984999974,544.6126982999995,544.6126982999995,544.6126982999995,,546.363691999999,right,1.0,81.31483240000671,,,,,,,,,,,,,,,,,,,,,,,,,,,,,,sub-069,1.0,random_dot,60.03445977672623,
left,left,accuracy,,,,,0.0,1.0,1.0,0.0,18.0,0.0,36.0,0.0,546.3771204999939,,,,,,,,,546.3663108999899,546.7270667999983,547.5266497999983,547.5110404000006,547.5110927999922,547.5266497999983,547.5266497999983,547.5266497999983,,549.6936934999976,left,1.0,81.72416620000149,,,,,,,,,,,,,,,,,,,,,,,,,,,,,,sub-069,1.0,random_dot,60.03445977672623,
right,right,accuracy,,,,,0.0,1.0,1.0,0.0,18.0,1.0,37.0,1.0,549.7079035999923,,,,,,,,,549.696014000001,550.9069642999966,551.7071829999913,551.6910152999917,551.6910632999934,551.7071829999913,551.7071829999913,551.7071829999913,,552.6419595999905,right,1.0,80.49256189999869,,,,,,,,,,,,,,,,,,,,,,,,,,,,,,sub-069,1.0,random_dot,60.03445977672623,
right,right,accuracy,,,,,0.0,1.0,1.0,0.0,19.0,0.0,38.0,1.0,552.6554731999931,,,,,,,,,552.6443246999988,553.0056132999889,553.8054208999965,553.7898236999899,553.7898832999927,553.8054208999965,553.8054208999965,553.8054208999965,,556.9214567000017,left,0.0,82.67987169999105,,,,,,,,,,,,,,,,,,,,,,,,,,,,,,sub-069,1.0,random_dot,60.03445977672623,
left,left,accuracy,,,,,0.0,1.0,1.0,0.0,19.0,1.0,39.0,0.0,556.9348816999991,,,,,,,,,556.9238390999963,557.2844309999928,558.0847286999924,558.0683456999977,558.0683924999903,558.0847286999924,558.0847286999924,558.0847286999924,,560.9331498999964,right,0.0,82.39941220000037,,,,,,,,,,,,,,,,,,,,,,,,,,,,,,sub-069,1.0,random_dot,60.03445977672623,
right,right,accuracy,,,,,0.0,1.0,1.0,0.0,20.0,0.0,40.0,1.0,560.9468762999895,,,,,,,,,560.9354877000005,562.1461701999942,562.9458601999941,562.9304032999935,562.9305052999989,562.9458601999941,562.9458601999941,562.9458601999941,,565.02909489999,right,1.0,81.64670450000267,,,,,,,,,,,,,,,,,,,,,,,,,,,,,,sub-069,1.0,random_dot,60.03445977672623,
left,left,accuracy,,,,,0.0,1.0,1.0,0.0,20.0,1.0,41.0,0.0,565.0434813000029,,,,,,,,,565.031006899997,566.2424718999973,567.0429453999968,567.0265403999947,567.0265962999983,567.0429453999968,567.0429453999968,567.0429453999968,,570.292283799994,left,1.0,82.80974799999967,,,,,,,,,,,,,,,,,,,,,,,,,,,,,,sub-069,1.0,random_dot,60.03445977672623,
left,left,accuracy,,,,,0.0,1.0,1.0,0.0,21.0,0.0,42.0,0.0,570.3057708999986,,,,,,,,,570.2946979999979,571.5035036999907,572.3033190999995,572.2873709999985,572.2874181999941,572.3033190999995,572.3033190999995,572.3033190999995,,576.5850845999958,left,1.0,83.83816120000847,,,,,,,,,,,,,,,,,,,,,,,,,,,,,,sub-069,1.0,random_dot,60.03445977672623,
right,right,accuracy,,,,,0.0,1.0,1.0,0.0,21.0,1.0,43.0,1.0,576.5990136999899,,,,,,,,,576.587457200003,576.6990253999975,577.4991001000017,577.4830094999925,577.4830568999896,577.4991001000017,577.4991001000017,577.4991001000017,,578.4005949999992,right,1.0,80.46436510000785,,,,,,,,,,,,,,,,,,,,,,,,,,,,,,sub-069,1.0,random_dot,60.03445977672623,
left,left,accuracy,,,,,0.0,1.0,1.0,0.0,22.0,0.0,44.0,0.0,578.4142074999982,,,,,,,,,578.4035035999987,579.2129776999936,580.0128412999911,579.9969293000031,579.9969762999972,580.0128412999911,580.0128412999911,580.0128412999911,,581.1139505000028,left,1.0,80.65052280000236,,,,,,,,,,,,,,,,,,,,,,,,,,,,,,sub-069,1.0,random_dot,60.03445977672623,
right,right,accuracy,,,,,0.0,1.0,1.0,0.0,22.0,1.0,45.0,1.0,581.127831699996,,,,,,,,,581.1163621000014,581.2280707000027,582.0277040999936,582.0117419000017,582.0117896000011,582.0277040999936,582.0277040999936,582.0277040999936,,582.8958933999966,right,1.0,80.42985560001398,,,,,,,,,,,,,,,,,,,,,,,,,,,,,,sub-069,1.0,random_dot,60.03445977672623,
right,right,accuracy,,,,,0.0,1.0,1.0,0.0,23.0,0.0,46.0,1.0,582.909995199996,,,,,,,,,582.8982448000024,584.108911999996,584.908824099999,584.8928049999959,584.892861100001,584.908824099999,584.908824099999,584.908824099999,589.9049967000028,590.2066655999952,right,1.0,84.85730230000627,,,,,,,,,,,,,,,,,,,,,,,,,,,,,,sub-069,1.0,random_dot,60.03445977672623,
left,left,accuracy,,,,,0.0,1.0,1.0,0.0,23.0,1.0,47.0,0.0,590.220441700003,,,,,,,,,590.2087818,591.4183326999919,592.2180783999938,592.202635900001,592.2027053999918,592.2180783999938,592.2180783999938,592.2180783999938,,594.6848522999935,right,0.0,82.02641340000264,,,,,,,,,,,,,,,,,,,,,,,,,,,,,,sub-069,1.0,random_dot,60.03445977672623,
right,right,accuracy,,,,,0.0,1.0,1.0,0.0,24.0,0.0,48.0,1.0,594.6987747999956,,,,,,,,,594.6871622999897,595.0482495999895,595.8483262999944,595.8326247999939,595.8326872999896,595.8483262999944,595.8483262999944,595.8483262999944,,598.7817776000011,right,1.0,82.4884876000142,,,,,,,,,,,,,,,,,,,,,,,,,,,,,,sub-069,1.0,random_dot,60.03445977672623,
left,left,accuracy,,,,,0.0,1.0,1.0,0.0,24.0,1.0,49.0,0.0,598.795232599994,,,,,,,,,598.7841783999902,599.5949137999996,600.3953386999929,600.379059599989,600.3791135999927,600.3953386999929,600.3953386999929,600.3953386999929,,605.2590073000028,left,1.0,84.41297849999683,,,,,,,,,,,,,,,,,,,,,,,,,,,,,,sub-069,1.0,random_dot,60.03445977672623,
left,left,accuracy,,,,,0.0,1.0,1.0,0.0,25.0,0.0,50.0,0.0,605.2730830999935,,,,,,,,,605.2611794999975,605.3728878999973,606.1730747999973,606.1570199999987,606.1570878999919,606.1730747999973,606.1730747999973,606.1730747999973,,607.7056933999993,left,1.0,81.09193620001315,,,,,,,,,,,,,,,,,,,,,,,,,,,,,,sub-069,1.0,random_dot,60.03445977672623,
right,right,accuracy,,,,,0.0,1.0,1.0,0.0,25.0,1.0,51.0,1.0,607.7196540000004,,,,,,,,,607.7081436000008,608.5192233999987,609.3190805999911,609.30386,609.3039309000014,609.3190805999911,609.3190805999911,609.3190805999911,,610.5195207999932,right,1.0,80.76152650000586,,,,,,,,,,,,,,,,,,,,,,,,,,,,,,sub-069,1.0,random_dot,60.03445977672623,
right,right,accuracy,,,,,0.0,1.0,1.0,0.0,26.0,0.0,52.0,1.0,610.5336527999898,,,,,,,,,610.5215904999932,610.8837007999973,611.6833399000025,611.6679446999915,611.6679975000006,611.6833399000025,611.6833399000025,611.6833399000025,,615.5665923999914,right,1.0,83.43552590000036,,,,,,,,,,,,,,,,,,,,,,,,,,,,,,sub-069,1.0,random_dot,60.03445977672623,
left,left,accuracy,,,,,0.0,1.0,1.0,0.0,26.0,1.0,53.0,0.0,615.5799009999901,,,,,,,,,615.5689985999925,615.9297114999936,616.7297967999912,616.7136419000017,616.7136893999996,616.7297967999912,616.7297967999912,616.7297967999912,,620.2941777999949,left,1.0,83.11919889999263,,,,,,,,,,,,,,,,,,,,,,,,,,,,,,sub-069,1.0,random_dot,60.03445977672623,
right,right,accuracy,,,,,0.0,1.0,1.0,0.0,27.0,0.0,54.0,1.0,620.3078398999933,,,,,,,,,620.2965895999951,620.4078018,621.2077558000019,621.1918626999977,621.1919054999889,621.2077558000019,621.2077558000019,621.2077558000019,,622.3752562000009,right,1.0,80.731455000001,,,,,,,,,,,,,,,,,,,,,,,,,,,,,,sub-069,1.0,random_dot,60.03445977672623,
left,left,accuracy,,,,,0.0,1.0,1.0,0.0,27.0,1.0,55.0,0.0,622.3892398000025,,,,,,,,,622.3773650999938,622.7390334999945,623.538824599993,623.5234991999896,623.5235604999907,623.538824599993,623.538824599993,623.538824599993,628.5339458999952,629.4190690999967,left,1.0,85.44404080000822,,,,,,,,,,,,,,,,,,,,,,,,,,,,,,sub-069,1.0,random_dot,60.03445977672623,
left,left,accuracy,,,,,0.0,1.0,1.0,0.0,28.0,0.0,56.0,0.0,629.4329219999927,,,,,,,,,629.4212954999966,629.782772999999,630.5826049999887,630.5667897999956,630.5668528999959,630.5826049999887,630.5826049999887,630.5826049999887,,632.4831618000026,left,1.0,81.46045060000324,,,,,,,,,,,,,,,,,,,,,,,,,,,,,,sub-069,1.0,random_dot,60.03445977672623,
right,right,accuracy,,,,,0.0,1.0,1.0,0.0,28.0,1.0,57.0,1.0,632.496911299997,,,,,,,,,632.4855604999902,632.8467057999951,633.6463750999974,633.630338899995,633.6303864999936,633.6463750999974,633.6463750999974,633.6463750999974,,634.4314410999941,right,1.0,80.3355758000107,,,,,,,,,,,,,,,,,,,,,,,,,,,,,,sub-069,1.0,random_dot,60.03445977672623,
right,right,accuracy,,,,,0.0,1.0,1.0,0.0,29.0,0.0,58.0,1.0,634.4450579999975,,,,,,,,,634.4338395999948,634.7952462999965,635.5956035999989,635.579092,635.5791396999994,635.5956035999989,635.5956035999989,635.5956035999989,,639.6094054999994,right,1.0,83.56868280000344,,,,,,,,,,,,,,,,,,,,,,,,,,,,,,sub-069,1.0,random_dot,60.03445977672623,
left,left,accuracy,,,,,0.0,1.0,1.0,0.0,29.0,1.0,59.0,0.0,639.6233838999906,,,,,,,,,639.6117927000014,640.8220297999942,641.6219622999924,641.6062017999939,641.6062490999902,641.6219622999924,641.6219622999924,641.6219622999924,646.6179456999962,647.1537471999909,right,0.0,85.08920239999134,,,,,,,,,,,,,,,,,,,,,,,,,,,,,,sub-069,1.0,random_dot,60.03445977672623,
,,accuracy,,,,,0.0,1.0,1.0,0.0,,,,,,,,,,,,,,,,,,,,,,,,,,,,,,,,,,,,,,,,,,,,,,,,,,,,,,,,sub-069,1.0,random_dot,60.03445977672623,
,,,,,,,,,,,,,,,,,,,,,,,,,,,,,,,,,,,,,,,,,,,,,,,,,,,,,,,,,,,,,,,647.156009600003,647.1671558999951,652.1623658000026,sub-069,,,,
