direction,corrAns,randomInstr,practice_trials.thisRepN,practice_trials.thisTrialN,practice_trials.thisN,practice_trials.thisIndex,instr_trials.thisRepN,instr_trials.thisTrialN,instr_trials.thisN,instr_trials.thisIndex,test_trials.thisRepN,test_trials.thisTrialN,test_trials.thisN,test_trials.thisIndex,thisRow.t,notes,general_instruction.started,textGeneralInstr.started,respGeneralInstr.started,general_instruction.stopped,respGeneralInstr.keys,respGeneralInstr.rt,respGeneralInstr.duration,ITI.started,fixcross.started,fixcross.stopped,ITI.stopped,dots.started,backgroundDots.started,stimulusDots.started,respDots.started,stimulusDots.stopped,dots.stopped,respDots.keys,respDots.corr,respDots.rt,respDots.duration,feedback.started,textFeedback.started,textFeedback.stopped,feedback.stopped,info.started,textInfo.started,keyRespInfo.started,info.stopped,keyRespInfo.keys,keyRespInfo.rt,keyRespInfo.duration,test_instruction.started,textTestInstr.started,respTestInstr.started,test_instruction.stopped,respTestInstr.keys,respTestInstr.rt,respTestInstr.duration,random_instruction.started,textRandomInstr.started,respRandomInstr.started,random_instruction.stopped,respRandomInstr.keys,respRandomInstr.rt,respRandomInstr.duration,goodbye.started,textGoodbye.started,goodbye.stopped,participant,session,expName,frameRate,Unnamed: 73
,,,,,,,,,,,,,,,,,0.0054254001006484,0.0134405000135302,0.0134405000135302,26.230755100026727,space,26.214545199996792,,,,,,,,,,,,,,,,,,,,,,,,,,,,,,,,,,,,,,,,,,,,sub-146,1.0,random_dot,59.97152549835956,
right,right,,0.0,0.0,0.0,1.0,,,,,,,,,26.26576670003124,,,,,,,,,26.25967460009269,26.59609970008023,27.39607680006884,27.37976979999803,27.37978850002401,27.39607680006884,27.39607680006884,27.39607680006884,32.39167820010334,32.70904079999309,right,1.0,5.304317599977367,,32.70968359999824,32.725359500036575,33.22454980004113,33.20858630002476,,,,,,,,,,,,,,,,,,,,,,,,,sub-146,1.0,random_dot,59.97152549835956,
left,left,,0.0,1.0,1.0,0.0,,,,,,,,,33.22454980004113,,,,,,,,,33.20900740008801,33.57458050001878,34.37400790001266,34.357824000064284,34.35783720004838,34.37400790001266,34.37400790001266,34.37400790001266,,37.14041240001097,left,1.0,2.762755399919115,,37.14076090010349,37.15548660000786,37.65519740001764,37.639513300033286,,,,,,,,,,,,,,,,,,,,,,,,,sub-146,1.0,random_dot,59.97152549835956,
left,left,,1.0,0.0,2.0,0.0,,,,,,,,,37.65519740001764,,,,,,,,,37.63979839999229,38.85456520004664,39.65388900006656,39.63778930006083,39.63780220004264,39.65388900006656,39.65388900006656,39.65388900006656,,44.4683459000662,right,0.0,4.798643400077708,,44.468696500058286,44.48397950001527,44.9838938000612,44.96773160004523,,,,,,,,,,,,,,,,,,,,,,,,,sub-146,1.0,random_dot,59.97152549835956,
right,right,,1.0,1.0,3.0,1.0,,,,,,,,,44.9838938000612,,,,,,,,,44.968003800022416,45.78323120006826,46.58262060000561,46.566719499998726,46.56674240005668,46.58262060000561,46.58262060000561,46.58262060000561,,50.24757850007154,right,1.0,3.6489163999212906,,50.24814899999183,50.2635749001056,50.76325310009997,50.747356400010176,,,,,,,,,,,,,,,,,,,,,,,,,sub-146,1.0,random_dot,59.97152549835956,
left,left,,2.0,0.0,4.0,0.0,,,,,,,,,50.76325310009997,,,,,,,,,50.74762600008398,51.96234670002013,52.76198280008976,52.745708400034346,52.74572640005499,52.76198280008976,52.76198280008976,52.76198280008976,,57.21010630007368,right,0.0,4.4315240000141785,,57.210529200034216,57.22584540001117,57.72529820003547,57.70922970003448,,,,,,,,,,,,,,,,,,,,,,,,,sub-146,1.0,random_dot,59.97152549835956,
right,right,,2.0,1.0,5.0,1.0,,,,,,,,,57.72529820003547,,,,,,,,,57.70949919999112,58.525077900034375,59.32404740003403,59.3080727000488,59.308088800054975,59.32404740003403,59.32404740003403,59.32404740003403,,62.10650810005609,right,1.0,2.773614599951543,,62.10707660007756,62.12199610006064,62.622051000013016,62.60615760006476,,,,,,,,,,,,,,,,,,,,,,,,,sub-146,1.0,random_dot,59.97152549835956,
right,right,,3.0,0.0,6.0,1.0,,,,,,,,,62.622051000013016,,,,,,,,,62.606437600101344,62.97176169999875,63.77137990004849,63.755067000049166,63.75507990003098,63.77137990004849,63.77137990004849,63.77137990004849,,65.22180140006822,left,0.0,1.440970700001344,,65.2223665000638,65.23686689999886,65.73651980003342,65.72091330005787,,,,,,,,,,,,,,,,,,,,,,,,,sub-146,1.0,random_dot,59.97152549835956,
left,left,,3.0,1.0,7.0,0.0,,,,,,,,,65.73651980003342,,,,,,,,,65.72120760008693,66.08648380008526,66.88572460005525,66.86983930005226,66.86985230003484,66.88572460005525,66.88572460005525,66.88572460005525,,70.01821600005496,right,0.0,3.1165172000182797,,70.01856580004096,70.03377520001959,70.53361300006509,70.51740570005495,,,,,,,,,,,,,,,,,,,,,,,,,sub-146,1.0,random_dot,59.97152549835956,
right,right,,4.0,0.0,8.0,1.0,,,,,,,,,70.53361300006509,,,,,,,,,70.51767160010058,70.88319180009421,71.68242490000557,71.66676360007841,71.66677660006098,71.68242490000557,71.68242490000557,71.68242490000557,76.67898650001734,78.89539620000869,right,1.0,7.203495600027964,,78.89574540010653,78.91133360005915,79.41094150010031,79.39462340006139,,,,,,,,,,,,,,,,,,,,,,,,,sub-146,1.0,random_dot,59.97152549835956,
left,left,,4.0,1.0,9.0,0.0,,,,,,,,,79.41094150010031,,,,,,,,,79.39489480003249,79.7607995000435,80.5603787000291,80.54410520009696,80.54411870008335,80.5603787000291,80.5603787000291,80.5603787000291,,83.85911020007916,left,1.0,3.286168699967675,,83.85954350000247,83.87479540007189,84.37438520009164,84.35823940008413,,,,,,,,,,,,,,,,,,,,,,,,,sub-146,1.0,random_dot,59.97152549835956,
left,left,,5.0,0.0,10.0,0.0,,,,,,,,,84.37438520009164,,,,,,,,,84.35850960004609,84.72402930003591,85.5233286001021,85.5075385000091,85.50755660003051,85.5233286001021,85.5233286001021,85.5233286001021,,87.6401849000249,left,1.0,2.100652499939315,,87.64053309999872,87.65541610005312,88.15514000004623,88.1391526000807,,,,,,,,,,,,,,,,,,,,,,,,,sub-146,1.0,random_dot,59.97152549835956,
right,right,,5.0,1.0,11.0,1.0,,,,,,,,,88.15514000004623,,,,,,,,,88.13942440005485,89.35431090008933,90.15345710003749,90.1379181999946,90.13793150009587,90.15345710003749,90.15345710003749,90.15345710003749,,91.80374490004031,right,1.0,1.6366798999952152,,91.80409280001186,91.81918089999816,92.31874240003526,92.3032177001005,,,,,,,,,,,,,,,,,,,,,,,,,sub-146,1.0,random_dot,59.97152549835956,
left,left,,6.0,0.0,12.0,0.0,,,,,,,,,92.31874240003526,,,,,,,,,92.30358400009573,92.4190642000176,93.21835450001528,93.20256650005469,93.20258000004104,93.21835450001528,93.21835450001528,93.21835450001528,,95.61775340000167,left,1.0,2.3854819000698626,,95.61811410007068,95.6334511000896,96.13332770008128,96.11743990005924,,,,,,,,,,,,,,,,,,,,,,,,,sub-146,1.0,random_dot,59.97152549835956,
right,right,,6.0,1.0,13.0,1.0,,,,,,,,,96.13332770008128,,,,,,,,,96.11772219999692,96.93249580007978,97.73183110007083,97.71614060003776,97.71616890002042,97.73183110007083,97.73183110007083,97.73183110007083,,100.5479260000866,right,1.0,2.800076000043191,,100.54827330005357,100.56343880004717,101.06330530007835,101.04713409999384,,,,,,,,,,,,,,,,,,,,,,,,,sub-146,1.0,random_dot,59.97152549835956,
right,right,,7.0,0.0,14.0,1.0,,,,,,,,,101.06330530007835,,,,,,,,,101.04744270001538,101.41278940008488,102.21220539999194,102.19654130004346,102.19655480002984,102.21220539999194,102.21220539999194,102.21220539999194,,103.895801100065,right,1.0,1.673326799995266,,103.89614610001443,103.9112476001028,104.41078540007584,104.39508570008913,,,,,,,,,,,,,,,,,,,,,,,,,sub-146,1.0,random_dot,59.97152549835956,
left,left,,7.0,1.0,15.0,0.0,,,,,,,,,104.41078540007584,,,,,,,,,104.39536419999786,105.61034650006332,106.40944070008118,106.3937799000414,106.3937934000278,106.40944070008118,106.40944070008118,106.40944070008118,,107.47649260004982,left,1.0,1.0605127000017092,,107.4768471000716,107.49231490003876,107.99209380010144,107.97613399999682,,,,,,,,,,,,,,,,,,,,,,,,,sub-146,1.0,random_dot,59.97152549835956,
left,left,,8.0,0.0,16.0,0.0,,,,,,,,,107.99209380010144,,,,,,,,,107.97642160009129,108.79151600005572,109.59075080009644,109.57489540008828,109.5749085000716,109.59075080009644,109.59075080009644,109.59075080009644,,111.37397539999802,left,1.0,1.772473999997601,,111.37444620009046,111.38964940002188,111.88949600001796,111.87342610000633,,,,,,,,,,,,,,,,,,,,,,,,,sub-146,1.0,random_dot,59.97152549835956,
right,right,,8.0,1.0,17.0,1.0,,,,,,,,,111.88949600001796,,,,,,,,,111.87369250005575,113.08866590005346,113.88786140002776,113.87213250005152,113.87214500003029,113.88786140002776,113.88786140002776,113.88786140002776,,114.75524530000985,right,1.0,0.8605341999791563,,114.75558780005667,114.7708417000249,115.27054320008028,115.25462600006722,,,,,,,,,,,,,,,,,,,,,,,,,sub-146,1.0,random_dot,59.97152549835956,
right,right,,9.0,0.0,18.0,1.0,,,,,,,,,115.27054320008028,,,,,,,,,115.25488620006944,116.4696452000644,117.26915800001008,117.25321330002043,117.2532279000152,117.26915800001008,117.26915800001008,117.26915800001008,,119.70174150005914,right,1.0,2.4168976999353617,,119.70209100004286,119.71763289999215,120.2173182000406,120.20130320009775,,,,,,,,,,,,,,,,,,,,,,,,,sub-146,1.0,random_dot,59.97152549835956,
left,left,,9.0,1.0,19.0,0.0,,,,,,,,,120.2173182000406,,,,,,,,,120.20157400006428,120.3168694000924,121.1167420001002,121.10025690007024,121.10027010005432,121.1167420001002,121.1167420001002,121.1167420001002,,122.54965980001724,left,1.0,1.4254551000194624,,122.5500086999964,122.56554410001264,123.0654102000408,123.04931200004648,,,,,,,,,,,,,,,,,,,,,,,,,sub-146,1.0,random_dot,59.97152549835956,
,,,,,,,,,,,,,,,,,,,,,,,,,,,,,,,,,,,,,,,,,,123.04937320004684,123.0654102000408,123.0654102000408,127.7467631000327,space,4.679762599989772,,,,,,,,,,,,,,,,,,,sub-146,1.0,random_dot,59.97152549835956,
,,,,,,,,,,,,,,,,,,,,,,,,,,,,,,,,,,,,,,,,,,,,,,,,,127.74678680009674,127.7622748001013,127.7622748001013,133.79239560000133,space,6.021487300051376,,,,,,,,,,,,sub-146,1.0,random_dot,59.97152549835956,
right,right,speed,,,,,0.0,0.0,0.0,1.0,0.0,0.0,0.0,1.0,137.88856830005534,,,,,,,,,137.87861740007065,139.0881217001006,139.88731120002922,139.87158360006288,139.87159890006296,139.88731120002922,139.88731120002922,139.88731120002922,,141.45460040005855,left,0.0,1.5650965000968426,,,,,,,,,,,,,,,,,,,,133.7955312000122,133.81540449999738,133.81540449999738,137.8732474000426,space,4.041612499975599,,,,,sub-146,1.0,random_dot,59.97152549835956,
left,left,speed,,,,,0.0,0.0,0.0,1.0,0.0,1.0,1.0,0.0,141.46984999999404,,,,,,,,,141.45544879999943,142.6690275000874,143.46861560002435,143.45253740006592,143.45256030000746,143.46861560002435,143.46861560002435,143.46861560002435,,145.1017048000358,left,1.0,1.624116199905984,,,,,,,,,,,,,,,,,,,,,,,,,,,,,,sub-146,1.0,random_dot,59.97152549835956,
left,left,speed,,,,,0.0,0.0,0.0,1.0,1.0,0.0,2.0,0.0,145.11704720009584,,,,,,,,,145.102371300105,145.467105000047,146.26665660005528,146.2506396000972,146.25066240003798,146.26665660005528,146.26665660005528,146.26665660005528,,149.01664970000274,left,1.0,2.7484845999861136,,,,,,,,,,,,,,,,,,,,,,,,,,,,,,sub-146,1.0,random_dot,59.97152549835956,
right,right,speed,,,,,0.0,0.0,0.0,1.0,1.0,1.0,3.0,1.0,149.03154930006713,,,,,,,,,149.0174325000262,150.23080500005744,151.0301335999975,151.01413360005245,151.01414680003654,151.0301335999975,151.0301335999975,151.0301335999975,,151.93056970008183,right,1.0,0.8840905999531969,,,,,,,,,,,,,,,,,,,,,,,,,,,,,,sub-146,1.0,random_dot,59.97152549835956,
left,left,speed,,,,,0.0,0.0,0.0,1.0,2.0,0.0,4.0,0.0,151.94595180009492,,,,,,,,,151.93122170004062,152.0459666000679,152.8452643000055,152.82951470010448,152.8295281000901,152.8452643000055,152.8452643000055,152.8452643000055,,154.34564200008754,left,1.0,1.4915753999957817,,,,,,,,,,,,,,,,,,,,,,,,,,,,,,sub-146,1.0,random_dot,59.97152549835956,
right,right,speed,,,,,0.0,0.0,0.0,1.0,2.0,1.0,5.0,1.0,154.36129490006715,,,,,,,,,154.34703180007637,154.7108224000549,155.51082870003302,155.49454129999503,155.4945546000963,155.51082870003302,155.51082870003302,155.51082870003302,,156.97765960008837,right,1.0,1.4647460000123829,,,,,,,,,,,,,,,,,,,,,,,,,,,,,,sub-146,1.0,random_dot,59.97152549835956,
right,right,speed,,,,,0.0,0.0,0.0,1.0,3.0,0.0,6.0,1.0,156.99276920000557,,,,,,,,,156.97830720001366,157.34261789999437,158.1417558999965,158.1258683000924,158.12588619999588,158.1417558999965,158.1417558999965,158.1417558999965,,159.69206430006307,right,1.0,1.5385829000733793,,,,,,,,,,,,,,,,,,,,,,,,,,,,,,sub-146,1.0,random_dot,59.97152549835956,
left,left,speed,,,,,0.0,0.0,0.0,1.0,3.0,1.0,7.0,0.0,159.70750650006812,,,,,,,,,159.69271370000206,160.90690790000372,161.7063493001042,161.69025430001784,161.69026800000574,161.7063493001042,161.7063493001042,161.7063493001042,,162.45670050010085,left,1.0,0.7427314999513328,,,,,,,,,,,,,,,,,,,,,,,,,,,,,,sub-146,1.0,random_dot,59.97152549835956,
right,right,speed,,,,,0.0,0.0,0.0,1.0,4.0,0.0,8.0,1.0,162.47251880005933,,,,,,,,,162.4573565000901,163.27206850005314,164.07129900006112,164.05596060003154,164.0559744000202,164.07129900006112,164.07129900006112,164.07129900006112,,164.55496990005486,right,1.0,0.4748144999612123,,,,,,,,,,,,,,,,,,,,,,,,,,,,,,sub-146,1.0,random_dot,59.97152549835956,
left,left,speed,,,,,0.0,0.0,0.0,1.0,4.0,1.0,9.0,0.0,164.57079800008796,,,,,,,,,164.55562320002355,165.77035150001757,166.56955450004898,166.55391590006184,166.55392950004898,166.56955450004898,166.56955450004898,166.56955450004898,,167.4371158001013,left,1.0,0.8539640000090003,,,,,,,,,,,,,,,,,,,,,,,,,,,,,,sub-146,1.0,random_dot,59.97152549835956,
right,right,speed,,,,,0.0,0.0,0.0,1.0,5.0,0.0,10.0,1.0,167.4524932000786,,,,,,,,,167.43776760005858,168.65187570010312,169.45109800004866,169.4353578001028,169.4353707000846,169.45109800004866,169.45109800004866,169.45109800004866,,170.28517240006477,right,1.0,0.8295980000402778,,,,,,,,,,,,,,,,,,,,,,,,,,,,,,sub-146,1.0,random_dot,59.97152549835956,
left,left,speed,,,,,0.0,0.0,0.0,1.0,5.0,1.0,11.0,0.0,170.30049290007446,,,,,,,,,170.28582860005554,171.10026390000712,171.89974210003857,171.8837633000221,171.88377630000468,171.89974210003857,171.89974210003857,171.89974210003857,,172.63337799999863,left,1.0,0.7258681999519467,,,,,,,,,,,,,,,,,,,,,,,,,,,,,,sub-146,1.0,random_dot,59.97152549835956,
left,left,speed,,,,,0.0,0.0,0.0,1.0,6.0,0.0,12.0,0.0,172.64919750008266,,,,,,,,,172.63399430003483,173.4489337000996,174.2483835000312,174.23198730009608,174.23200010007713,174.2483835000312,174.2483835000312,174.2483835000312,,175.5816755000269,left,1.0,1.321222099941224,,,,,,,,,,,,,,,,,,,,,,,,,,,,,,sub-146,1.0,random_dot,59.97152549835956,
right,right,speed,,,,,0.0,0.0,0.0,1.0,6.0,1.0,13.0,1.0,175.59726280008908,,,,,,,,,175.58232960000169,175.94706220005173,176.74664420005865,176.7304085000651,176.73042150004767,176.74664420005865,176.74664420005865,176.74664420005865,,177.58069420000538,right,1.0,0.8328716000542045,,,,,,,,,,,,,,,,,,,,,,,,,,,,,,sub-146,1.0,random_dot,59.97152549835956,
right,right,speed,,,,,0.0,0.0,0.0,1.0,7.0,0.0,14.0,1.0,177.59588620008435,,,,,,,,,177.5813612000784,177.94564650009852,178.7448712000623,178.72907750005834,178.72908980003558,178.7448712000623,178.7448712000623,178.7448712000623,,180.09553130005952,right,1.0,1.348233100026846,,,,,,,,,,,,,,,,,,,,,,,,,,,,,,sub-146,1.0,random_dot,59.97152549835956,
left,left,speed,,,,,0.0,0.0,0.0,1.0,7.0,1.0,15.0,0.0,180.11100690008607,,,,,,,,,180.0961846000282,181.30973390000872,182.1094679000089,182.09366920008324,182.0936824000673,182.1094679000089,182.1094679000089,182.1094679000089,,182.89338570006657,left,1.0,0.77483879995998,,,,,,,,,,,,,,,,,,,,,,,,,,,,,,sub-146,1.0,random_dot,59.97152549835956,
right,right,speed,,,,,0.0,0.0,0.0,1.0,8.0,0.0,16.0,1.0,182.9089467000449,,,,,,,,,182.8940402000444,183.00925770006145,183.808378500049,183.7922674000729,183.79228070005772,183.808378500049,183.808378500049,183.808378500049,,184.4766661000904,right,1.0,0.6641395000042394,,,,,,,,,,,,,,,,,,,,,,,,,,,,,,sub-146,1.0,random_dot,59.97152549835956,
left,left,speed,,,,,0.0,0.0,0.0,1.0,8.0,1.0,17.0,0.0,184.49150900007223,,,,,,,,,184.47731109999583,184.84113420010544,185.6404118000064,185.62429250008427,185.6243097000988,185.6404118000064,185.6404118000064,185.6404118000064,,186.42404539999552,left,1.0,0.7814892999595031,,,,,,,,,,,,,,,,,,,,,,,,,,,,,,sub-146,1.0,random_dot,59.97152549835956,
right,right,speed,,,,,0.0,0.0,0.0,1.0,9.0,0.0,18.0,1.0,186.43989570008125,,,,,,,,,186.4250586000271,187.2395837000804,188.03864810010415,188.0231193000218,188.02313260000665,188.03864810010415,188.03864810010415,188.03864810010415,,188.6729872000869,right,1.0,0.6223634999478236,,,,,,,,,,,,,,,,,,,,,,,,,,,,,,sub-146,1.0,random_dot,59.97152549835956,
left,left,speed,,,,,0.0,0.0,0.0,1.0,9.0,1.0,19.0,0.0,188.6881923000328,,,,,,,,,188.6736380000366,189.88772890006655,190.68710250000004,190.6712455000961,190.6712585000787,190.68710250000004,190.68710250000004,190.68710250000004,,191.82115249999333,left,1.0,1.1293741000117734,,,,,,,,,,,,,,,,,,,,,,,,,,,,,,sub-146,1.0,random_dot,59.97152549835956,
left,left,speed,,,,,0.0,0.0,0.0,1.0,10.0,0.0,20.0,0.0,191.836930999998,,,,,,,,,191.82180500007237,193.035317700007,193.8350731000537,193.8188326000236,193.81884560000617,193.8350731000537,193.8350731000537,193.8350731000537,,195.8180484001059,left,1.0,1.973821500083432,,,,,,,,,,,,,,,,,,,,,,,,,,,,,,sub-146,1.0,random_dot,59.97152549835956,
right,right,speed,,,,,0.0,0.0,0.0,1.0,10.0,1.0,21.0,1.0,195.83361249999143,,,,,,,,,195.81873260007703,197.0330990999937,197.8324517000001,197.8165692000184,197.816582200001,197.8324517000001,197.8324517000001,197.8324517000001,,198.9002031000564,right,1.0,1.0636488000163808,,,,,,,,,,,,,,,,,,,,,,,,,,,,,,sub-146,1.0,random_dot,59.97152549835956,
right,right,speed,,,,,0.0,0.0,0.0,1.0,11.0,0.0,22.0,1.0,198.9151126000797,,,,,,,,,198.9008672999917,199.26494450005703,200.064483400085,200.04838450008535,200.04839820007328,200.064483400085,200.064483400085,200.064483400085,205.06108030001636,205.29552530008368,left,0.0,5.229297799989581,,,,,,,,,,,,,,,,,,,,,,,,,,,,,,sub-146,1.0,random_dot,59.97152549835956,
left,left,speed,,,,,0.0,0.0,0.0,1.0,11.0,1.0,23.0,0.0,205.3104530000128,,,,,,,,,205.2970618000254,206.11036070005505,206.9100207000738,206.8937880001031,206.89380210009404,206.9100207000738,206.9100207000738,206.9100207000738,,208.1597347999923,left,1.0,1.247334099956788,,,,,,,,,,,,,,,,,,,,,,,,,,,,,,sub-146,1.0,random_dot,59.97152549835956,
right,right,speed,,,,,0.0,0.0,0.0,1.0,12.0,0.0,24.0,1.0,208.1757661000593,,,,,,,,,208.1603893000865,208.9750765000936,209.7747749000555,209.758545699995,209.75855890009552,209.7747749000555,209.7747749000555,209.7747749000555,,210.50909609999508,right,1.0,0.7304091999540105,,,,,,,,,,,,,,,,,,,,,,,,,,,,,,sub-146,1.0,random_dot,59.97152549835956,
left,left,speed,,,,,0.0,0.0,0.0,1.0,12.0,1.0,25.0,0.0,210.52418350009248,,,,,,,,,210.51014510006644,211.72329460002948,212.52267780003604,212.50696020002945,212.50697280000892,212.52267780003604,212.52267780003604,212.52267780003604,,213.2728930000449,left,1.0,0.7365404000738636,,,,,,,,,,,,,,,,,,,,,,,,,,,,,,sub-146,1.0,random_dot,59.97152549835956,
left,left,speed,,,,,0.0,0.0,0.0,1.0,13.0,0.0,26.0,0.0,213.28877960005772,,,,,,,,,213.27365710004236,214.48816850001455,215.28754700010177,215.27146409999116,215.27147720009089,215.28754700010177,215.28754700010177,215.28754700010177,,218.08658710005693,left,1.0,2.7899458999745548,,,,,,,,,,,,,,,,,,,,,,,,,,,,,,sub-146,1.0,random_dot,59.97152549835956,
right,right,speed,,,,,0.0,0.0,0.0,1.0,13.0,1.0,27.0,1.0,218.10204500006512,,,,,,,,,218.08724190003704,218.20241590007208,219.00155980000272,218.98586900008377,218.98588250007012,219.00155980000272,219.00155980000272,219.00155980000272,,219.78623630001675,right,1.0,0.7712421000469476,,,,,,,,,,,,,,,,,,,,,,,,,,,,,,sub-146,1.0,random_dot,59.97152549835956,
left,left,speed,,,,,0.0,0.0,0.0,1.0,14.0,0.0,28.0,0.0,219.8011406000005,,,,,,,,,219.7874913000269,221.00065110006835,221.79997230006848,221.7839580000145,221.78397119999863,221.79997230006848,221.79997230006848,221.79997230006848,,222.8998698000796,left,1.0,1.0835491000907496,,,,,,,,,,,,,,,,,,,,,,,,,,,,,,sub-146,1.0,random_dot,59.97152549835956,
right,right,speed,,,,,0.0,0.0,0.0,1.0,14.0,1.0,29.0,1.0,222.9159380000783,,,,,,,,,222.900527000078,222.99914500000887,223.7986193000106,223.7826220000861,223.78263390006032,223.7986193000106,223.7986193000106,223.7986193000106,,225.19832339999263,right,1.0,1.392289399984293,,,,,,,,,,,,,,,,,,,,,,,,,,,,,,sub-146,1.0,random_dot,59.97152549835956,
right,right,speed,,,,,0.0,0.0,0.0,1.0,15.0,0.0,30.0,1.0,225.21424970007504,,,,,,,,,225.19897120003588,226.4132452000631,227.2127657000674,227.1971904000966,227.19720370008145,227.2127657000674,227.2127657000674,227.2127657000674,,228.91278890008107,right,1.0,1.6941727000521496,,,,,,,,,,,,,,,,,,,,,,,,,,,,,,sub-146,1.0,random_dot,59.97152549835956,
left,left,speed,,,,,0.0,0.0,0.0,1.0,15.0,1.0,31.0,0.0,228.92868180002552,,,,,,,,,228.9141330000712,230.1277386000147,230.92708520009185,230.91135250008665,230.91136570007075,230.92708520009185,230.92708520009185,230.92708520009185,,231.71140260004904,left,1.0,0.7815438999095932,,,,,,,,,,,,,,,,,,,,,,,,,,,,,,sub-146,1.0,random_dot,59.97152549835956,
left,left,speed,,,,,0.0,0.0,0.0,1.0,16.0,0.0,32.0,0.0,231.72693010000512,,,,,,,,,231.712158700102,232.5264150000876,233.32574120000936,233.30963380006145,233.30964690004475,233.32574120000936,233.32574120000936,233.32574120000936,,235.17546800000127,left,1.0,1.835179299931042,,,,,,,,,,,,,,,,,,,,,,,,,,,,,,sub-146,1.0,random_dot,59.97152549835956,
right,right,speed,,,,,0.0,0.0,0.0,1.0,16.0,1.0,33.0,1.0,235.19091190001927,,,,,,,,,235.17617230000903,236.3903691000305,237.18975290004164,237.173747700057,237.1737606000388,237.18975290004164,237.18975290004164,237.18975290004164,,241.3882944000652,left,0.0,4.194491200032644,,,,,,,,,,,,,,,,,,,,,,,,,,,,,,sub-146,1.0,random_dot,59.97152549835956,
left,left,speed,,,,,0.0,0.0,0.0,1.0,17.0,0.0,34.0,0.0,241.40343010006472,,,,,,,,,241.38895769999365,241.50367720006037,242.3032496999949,242.28701690002345,242.2870354000479,242.3032496999949,242.3032496999949,242.3032496999949,,244.5035111000761,left,1.0,2.1960604999912903,,,,,,,,,,,,,,,,,,,,,,,,,,,,,,sub-146,1.0,random_dot,59.97152549835956,
right,right,speed,,,,,0.0,0.0,0.0,1.0,17.0,1.0,35.0,1.0,244.51813560002483,,,,,,,,,244.5041699000867,244.86825850000605,245.66738890006675,245.6513143000193,245.65132760000412,245.66738890006675,245.66738890006675,245.66738890006675,,248.23348960001024,left,0.0,2.5543331999797374,,,,,,,,,,,,,,,,,,,,,,,,,,,,,,sub-146,1.0,random_dot,59.97152549835956,
right,right,speed,,,,,0.0,0.0,0.0,1.0,18.0,0.0,36.0,1.0,248.248744700104,,,,,,,,,248.2341319000116,248.59899150009733,249.3983263000846,249.38240040000528,249.3824138999917,249.3983263000846,249.3983263000846,249.3983263000846,,250.96581780002447,right,1.0,1.5634324999991804,,,,,,,,,,,,,,,,,,,,,,,,,,,,,,sub-146,1.0,random_dot,59.97152549835956,
left,left,speed,,,,,0.0,0.0,0.0,1.0,18.0,1.0,37.0,0.0,250.98061460000463,,,,,,,,,250.9664526000852,251.08025940007064,251.8802435999969,251.8639461999992,251.8639617000008,251.8802435999969,251.8802435999969,251.8802435999969,,253.2637453000061,left,1.0,1.3739602999994531,,,,,,,,,,,,,,,,,,,,,,,,,,,,,,sub-146,1.0,random_dot,59.97152549835956,
left,left,speed,,,,,0.0,0.0,0.0,1.0,19.0,0.0,38.0,0.0,253.2791658000788,,,,,,,,,253.26439700007904,253.62877980002668,254.42839530005585,254.4124448000221,254.41245780000463,254.42839530005585,254.42839530005585,254.42839530005585,,255.3619178000372,left,1.0,0.9243265999248252,,,,,,,,,,,,,,,,,,,,,,,,,,,,,,sub-146,1.0,random_dot,59.97152549835956,
right,right,speed,,,,,0.0,0.0,0.0,1.0,19.0,1.0,39.0,1.0,255.3777122000465,,,,,,,,,255.36295930005144,256.5771874000784,257.39313020010013,257.3769682000857,257.3769811000675,257.39313020010013,257.39313020010013,257.39313020010013,,261.8739072000608,right,1.0,4.467400300083682,,,,,,,,,,,,,,,,,,,,,,,,,,,,,,sub-146,1.0,random_dot,59.97152549835956,
right,right,speed,,,,,0.0,0.0,0.0,1.0,20.0,0.0,40.0,1.0,261.88988750008866,,,,,,,,,261.8746000000974,261.9734573001042,262.7730311000487,262.7566645001061,262.7566780000925,262.7730311000487,262.7730311000487,262.7730311000487,,265.4384984000353,right,1.0,2.659903799998574,,,,,,,,,,,,,,,,,,,,,,,,,,,,,,sub-146,1.0,random_dot,59.97152549835956,
left,left,speed,,,,,0.0,0.0,0.0,1.0,20.0,1.0,41.0,0.0,265.45419550000224,,,,,,,,,265.4391535000177,266.2537899001036,267.05316810007207,267.03699310007505,267.0370105000911,267.05316810007207,267.05316810007207,267.05316810007207,,267.82020680001006,left,1.0,0.7564423000440001,,,,,,,,,,,,,,,,,,,,,,,,,,,,,,sub-146,1.0,random_dot,59.97152549835956,
left,left,speed,,,,,0.0,0.0,0.0,1.0,21.0,0.0,42.0,0.0,267.8359119000379,,,,,,,,,267.8212100000819,268.18586780002806,268.98548400006257,268.96928850002587,268.9693013000069,268.98548400006257,268.98548400006257,268.98548400006257,,270.4359591000248,left,1.0,1.4480995999183506,,,,,,,,,,,,,,,,,,,,,,,,,,,,,,sub-146,1.0,random_dot,59.97152549835956,
right,right,speed,,,,,0.0,0.0,0.0,1.0,21.0,1.0,43.0,1.0,270.4513018000871,,,,,,,,,270.43660910008475,271.6502025000518,272.44973350001965,272.43384130008053,272.4338543000631,272.44973350001965,272.44973350001965,272.44973350001965,,273.3001212000381,right,1.0,0.8398045999929309,,,,,,,,,,,,,,,,,,,,,,,,,,,,,,sub-146,1.0,random_dot,59.97152549835956,
right,right,speed,,,,,0.0,0.0,0.0,1.0,22.0,0.0,44.0,1.0,273.3157727000071,,,,,,,,,273.3010542000411,274.11528420005925,274.9145461000735,274.89879550004844,274.8988090000348,274.9145461000735,274.9145461000735,274.9145461000735,,277.54744850005955,left,0.0,2.6184538999805227,,,,,,,,,,,,,,,,,,,,,,,,,,,,,,sub-146,1.0,random_dot,59.97152549835956,
left,left,speed,,,,,0.0,0.0,0.0,1.0,22.0,1.0,45.0,0.0,277.5632513000164,,,,,,,,,277.5486432000762,277.9129032000201,278.71226900001056,278.69618950004224,278.69620730006136,278.71226900001056,278.71226900001056,278.71226900001056,,280.2959540000884,right,0.0,1.5811590999364853,,,,,,,,,,,,,,,,,,,,,,,,,,,,,,sub-146,1.0,random_dot,59.97152549835956,
right,right,speed,,,,,0.0,0.0,0.0,1.0,23.0,0.0,46.0,1.0,280.3111345000798,,,,,,,,,280.2965982001042,281.11043050000444,281.90993700001854,281.8942392000463,281.8942523000296,281.90993700001854,281.90993700001854,281.90993700001854,,283.3935439999914,left,0.0,1.4752486000070348,,,,,,,,,,,,,,,,,,,,,,,,,,,,,,sub-146,1.0,random_dot,59.97152549835956,
left,left,speed,,,,,0.0,0.0,0.0,1.0,23.0,1.0,47.0,0.0,283.4090789000038,,,,,,,,,283.39426700002514,283.50911860005,284.3084372000303,284.2926534001017,284.2926668000873,284.3084372000303,284.3084372000303,284.3084372000303,,286.52500630007125,left,1.0,2.211871500010602,,,,,,,,,,,,,,,,,,,,,,,,,,,,,,sub-146,1.0,random_dot,59.97152549835956,
left,left,speed,,,,,0.0,0.0,0.0,1.0,24.0,0.0,48.0,0.0,286.5404961000895,,,,,,,,,286.5256589000346,286.89014240005054,287.68941890005954,287.67367560009006,287.67368990008254,287.68941890005954,287.68941890005954,287.68941890005954,,289.7230048000347,left,1.0,2.0311270999955013,,,,,,,,,,,,,,,,,,,,,,,,,,,,,,sub-146,1.0,random_dot,59.97152549835956,
right,right,speed,,,,,0.0,0.0,0.0,1.0,24.0,1.0,49.0,1.0,289.7383627000964,,,,,,,,,289.7236580000026,290.93747890007216,291.7369002000196,291.72079849999864,291.7208164000185,291.7369002000196,291.7369002000196,291.7369002000196,,292.5871502000373,right,1.0,0.8428738000802696,,,,,,,,,,,,,,,,,,,,,,,,,,,,,,sub-146,1.0,random_dot,59.97152549835956,
right,right,speed,,,,,0.0,0.0,0.0,1.0,25.0,0.0,50.0,1.0,292.60292450001,,,,,,,,,292.5878050000174,293.80216890003067,294.6014177000616,294.58578090008814,294.585794200073,294.6014177000616,294.6014177000616,294.6014177000616,,295.6352702000877,right,1.0,1.0263497000560164,,,,,,,,,,,,,,,,,,,,,,,,,,,,,,sub-146,1.0,random_dot,59.97152549835956,
left,left,speed,,,,,0.0,0.0,0.0,1.0,25.0,1.0,51.0,0.0,295.65109890000895,,,,,,,,,295.6359384000534,296.8502534000436,297.6499379000161,297.6336521001067,297.6336650000885,297.6499379000161,297.6499379000161,297.6499379000161,,299.0170071000466,left,1.0,1.365777499973774,,,,,,,,,,,,,,,,,,,,,,,,,,,,,,sub-146,1.0,random_dot,59.97152549835956,
left,left,speed,,,,,0.0,0.0,0.0,1.0,26.0,0.0,52.0,0.0,299.0320482000243,,,,,,,,,299.0176227000775,299.38184660009574,300.18113500007894,300.1655033000279,300.16551640001126,300.18113500007894,300.18113500007894,300.18113500007894,,301.2317600999959,left,1.0,1.0461473999312147,,,,,,,,,,,,,,,,,,,,,,,,,,,,,,sub-146,1.0,random_dot,59.97152549835956,
right,right,speed,,,,,0.0,0.0,0.0,1.0,26.0,1.0,53.0,1.0,301.2472262000665,,,,,,,,,301.2324126000749,302.4466468000319,303.2459606000921,303.2301844001049,303.23019750008825,303.2459606000921,303.2459606000921,303.2459606000921,,305.145563099999,left,0.0,1.8969775999430567,,,,,,,,,,,,,,,,,,,,,,,,,,,,,,sub-146,1.0,random_dot,59.97152549835956,
right,right,speed,,,,,0.0,0.0,0.0,1.0,27.0,0.0,54.0,1.0,305.161170000094,,,,,,,,,305.14680119999684,305.96084010007326,306.76042860001326,306.74451069999486,306.7445243000984,306.76042860001326,306.76042860001326,306.76042860001326,,308.2602036000462,left,0.0,1.4906830000691116,,,,,,,,,,,,,,,,,,,,,,,,,,,,,,sub-146,1.0,random_dot,59.97152549835956,
left,left,speed,,,,,0.0,0.0,0.0,1.0,27.0,1.0,55.0,0.0,308.2760363999987,,,,,,,,,308.2613993000705,309.07545250002295,309.87477330002,309.85906730010174,309.8590803000843,309.87477330002,309.87477330002,309.87477330002,,311.2250987000298,left,1.0,1.33960449998267,,,,,,,,,,,,,,,,,,,,,,,,,,,,,,sub-146,1.0,random_dot,59.97152549835956,
right,right,speed,,,,,0.0,0.0,0.0,1.0,28.0,0.0,56.0,1.0,311.2409689000342,,,,,,,,,311.22575260000303,312.0399425000651,312.8400142000756,312.82419850002043,312.8242222000845,312.8400142000756,312.8400142000756,312.8400142000756,,314.44033920008224,left,0.0,1.5963003999786451,,,,,,,,,,,,,,,,,,,,,,,,,,,,,,sub-146,1.0,random_dot,59.97152549835956,
left,left,speed,,,,,0.0,0.0,0.0,1.0,28.0,1.0,57.0,0.0,314.4552486001048,,,,,,,,,314.44100019999314,314.8050554000074,315.60435540007893,315.58830110006966,315.5883143000537,315.60435540007893,315.60435540007893,315.60435540007893,,316.28822770004626,left,1.0,0.6734982000198215,,,,,,,,,,,,,,,,,,,,,,,,,,,,,,sub-146,1.0,random_dot,59.97152549835956,
right,right,speed,,,,,0.0,0.0,0.0,1.0,29.0,0.0,58.0,1.0,316.3040008000098,,,,,,,,,316.2890783000039,316.6538146000821,317.4534880000865,317.4371551000513,317.43716820003465,317.4534880000865,317.4534880000865,317.4534880000865,,321.5349405000452,right,1.0,4.069615900050849,,,,,,,,,,,,,,,,,,,,,,,,,,,,,,sub-146,1.0,random_dot,59.97152549835956,
left,left,speed,,,,,0.0,0.0,0.0,1.0,29.0,1.0,59.0,0.0,321.550343500101,,,,,,,,,321.5356404000195,322.35014019999653,323.14962810010184,323.1335143001052,323.13352760009,323.14962810010184,323.14962810010184,323.14962810010184,,326.43207750003785,left,1.0,3.2798043999355286,,,,,,,,,,,,,,,,,,,,,,,,,,,,,,sub-146,1.0,random_dot,59.97152549835956,
,,speed,,,,,0.0,0.0,0.0,1.0,,,,,,,,,,,,,,,,,,,,,,,,,,,,,,,,,,,,,,,,,,,,,,,,,,,,,,,,sub-146,1.0,random_dot,59.97152549835956,
right,right,accuracy,,,,,0.0,1.0,1.0,0.0,0.0,0.0,0.0,1.0,330.3614335000748,,,,,,,,,330.35098800004926,330.46133760001976,331.26074890000746,331.245135400095,331.2451497000875,331.26074890000746,331.26074890000746,331.26074890000746,336.25753760000225,336.2916922000004,left,0.0,5.016994799952954,,,,,,,,,,,,,,,,,,,,326.4326779000694,326.44735270005185,326.44735270005185,330.3457776000723,space,3.884939900017344,,,,,sub-146,1.0,random_dot,59.97152549835956,
left,left,accuracy,,,,,0.0,1.0,1.0,0.0,0.0,1.0,1.0,0.0,336.307508100057,,,,,,,,,336.2932154000737,337.10690820007585,337.9061927000293,337.89051779999863,337.8905306000961,337.9061927000293,337.9061927000293,337.9061927000293,342.90322870004456,343.9197752000764,right,0.0,6.006061700056307,,,,,,,,,,,,,,,,,,,,,,,,,,,,,,sub-146,1.0,random_dot,59.97152549835956,
right,right,accuracy,,,,,0.0,1.0,1.0,0.0,1.0,0.0,2.0,1.0,343.9359542001039,,,,,,,,,343.92042520002,344.73486389999744,345.53466820006724,345.51833820005413,345.518351500039,345.53466820006724,345.53466820006724,345.53466820006724,,346.6527170999907,right,1.0,1.113740500062704,,,,,,,,,,,,,,,,,,,,,,,,,,,,,,sub-146,1.0,random_dot,59.97152549835956,
left,left,accuracy,,,,,0.0,1.0,1.0,0.0,1.0,1.0,3.0,0.0,346.6672374000773,,,,,,,,,346.6533602999989,346.7673838000046,347.56678700004704,347.5508403000422,347.5508535000263,347.56678700004704,347.56678700004704,347.56678700004704,352.5633657000726,352.89746540004853,left,1.0,5.325897100032307,,,,,,,,,,,,,,,,,,,,,,,,,,,,,,sub-146,1.0,random_dot,59.97152549835956,
right,right,accuracy,,,,,0.0,1.0,1.0,0.0,2.0,0.0,4.0,1.0,352.9129078000551,,,,,,,,,352.8980683000991,354.11239420005586,354.91183990007266,354.8958197000902,354.89583250007126,354.91183990007266,354.91183990007266,354.91183990007266,,355.77890170004684,left,0.0,0.8528189000207931,,,,,,,,,,,,,,,,,,,,,,,,,,,,,,sub-146,1.0,random_dot,59.97152549835956,
left,left,accuracy,,,,,0.0,1.0,1.0,0.0,2.0,1.0,5.0,0.0,355.79464780003764,,,,,,,,,355.7795502000954,356.9935394000495,357.7931691000704,357.77723160001915,357.7772450000048,357.7931691000704,357.7931691000704,357.7931691000704,,359.5930559000699,left,1.0,1.791356900008395,,,,,,,,,,,,,,,,,,,,,,,,,,,,,,sub-146,1.0,random_dot,59.97152549835956,
left,left,accuracy,,,,,0.0,1.0,1.0,0.0,3.0,0.0,6.0,0.0,359.60873189999256,,,,,,,,,359.593691200018,360.8079572001007,361.60708960006014,361.59142910002265,361.5914423000068,361.60708960006014,361.60708960006014,361.60708960006014,,362.60773350007366,left,1.0,0.9961285999743268,,,,,,,,,,,,,,,,,,,,,,,,,,,,,,sub-146,1.0,random_dot,59.97152549835956,
right,right,accuracy,,,,,0.0,1.0,1.0,0.0,3.0,1.0,7.0,1.0,362.6232324000448,,,,,,,,,362.60838009999134,362.723699400085,363.5224086000817,363.5068544000387,363.50686780002434,363.5224086000817,363.5224086000817,363.5224086000817,,365.0062559000216,right,1.0,1.4794618000742048,,,,,,,,,,,,,,,,,,,,,,,,,,,,,,sub-146,1.0,random_dot,59.97152549835956,
right,right,accuracy,,,,,0.0,1.0,1.0,0.0,4.0,0.0,8.0,1.0,365.0217252000002,,,,,,,,,365.00700720003806,365.37195050006267,366.17083529999945,366.1550922000315,366.1551056000171,366.17083529999945,366.17083529999945,366.17083529999945,,367.0382054999936,right,1.0,0.8605271999258548,,,,,,,,,,,,,,,,,,,,,,,,,,,,,,sub-146,1.0,random_dot,59.97152549835956,
left,left,accuracy,,,,,0.0,1.0,1.0,0.0,4.0,1.0,9.0,0.0,367.05366050009616,,,,,,,,,367.038850300014,367.8529092000099,368.65277980000246,368.6368170999922,368.6368303000927,368.65277980000246,368.65277980000246,368.65277980000246,,369.6364137000637,left,1.0,0.9688729000044988,,,,,,,,,,,,,,,,,,,,,,,,,,,,,,sub-146,1.0,random_dot,59.97152549835956,
right,right,accuracy,,,,,0.0,1.0,1.0,0.0,5.0,0.0,10.0,1.0,369.6519513000967,,,,,,,,,369.6370646000141,370.8509160000831,371.6507969000377,371.63454200001433,371.63455509999767,371.6507969000377,371.6507969000377,371.6507969000377,376.64734660007525,382.8786437000381,right,1.0,11.2252540999325,,,,,,,,,,,,,,,,,,,,,,,,,,,,,,sub-146,1.0,random_dot,59.97152549835956,
left,left,accuracy,,,,,0.0,1.0,1.0,0.0,5.0,1.0,11.0,0.0,382.8933688000543,,,,,,,,,382.879290800076,382.993114800076,383.7928803000832,383.7767221000977,383.7767359000864,383.7928803000832,383.7928803000832,383.7928803000832,,386.1753239000682,left,1.0,2.370941099943593,,,,,,,,,,,,,,,,,,,,,,,,,,,,,,sub-146,1.0,random_dot,59.97152549835956,
left,left,accuracy,,,,,0.0,1.0,1.0,0.0,6.0,0.0,12.0,0.0,386.1909220000962,,,,,,,,,386.1759991000872,386.9904910000041,387.790062700049,387.7741428000154,387.77415589999873,387.790062700049,387.790062700049,387.790062700049,,390.3560844000895,left,1.0,2.562889599939808,,,,,,,,,,,,,,,,,,,,,,,,,,,,,,sub-146,1.0,random_dot,59.97152549835956,
right,right,accuracy,,,,,0.0,1.0,1.0,0.0,6.0,1.0,13.0,1.0,390.3720410000533,,,,,,,,,390.3574920000974,390.7215584000805,391.52067080000415,391.5049966000952,391.5050105000846,391.52067080000415,391.52067080000415,391.52067080000415,,392.7543692000909,right,1.0,1.2192966000875458,,,,,,,,,,,,,,,,,,,,,,,,,,,,,,sub-146,1.0,random_dot,59.97152549835956,
right,right,accuracy,,,,,0.0,1.0,1.0,0.0,7.0,0.0,14.0,1.0,392.7698337000329,,,,,,,,,392.7550338000292,393.5692934000399,394.3689676000504,394.3530107000842,394.3530239000684,394.3689676000504,394.3689676000504,394.3689676000504,,396.1189114000881,right,1.0,1.7349587000207976,,,,,,,,,,,,,,,,,,,,,,,,,,,,,,sub-146,1.0,random_dot,59.97152549835956,
left,left,accuracy,,,,,0.0,1.0,1.0,0.0,7.0,1.0,15.0,0.0,396.1342321000993,,,,,,,,,396.1195516000735,397.33385180006735,398.1331097000512,398.1171431000112,398.1171561999945,398.1331097000512,398.1331097000512,398.1331097000512,,399.0834344000323,left,1.0,0.934802500065416,,,,,,,,,,,,,,,,,,,,,,,,,,,,,,sub-146,1.0,random_dot,59.97152549835956,
left,left,accuracy,,,,,0.0,1.0,1.0,0.0,8.0,0.0,16.0,0.0,399.09936990006827,,,,,,,,,399.0845798000228,399.8986430000514,400.6977867000969,400.6821743000765,400.6821874000598,400.6977867000969,400.6977867000969,400.6977867000969,,404.980120500084,left,1.0,4.278516799909994,,,,,,,,,,,,,,,,,,,,,,,,,,,,,,sub-146,1.0,random_dot,59.97152549835956,
right,right,accuracy,,,,,0.0,1.0,1.0,0.0,8.0,1.0,17.0,1.0,404.99541040009353,,,,,,,,,404.9807739000535,406.19450050010346,406.9940260000294,406.97809170000255,406.9781042000977,406.9940260000294,406.9940260000294,406.9940260000294,,410.8093358000042,left,0.0,3.81064849998802,,,,,,,,,,,,,,,,,,,,,,,,,,,,,,sub-146,1.0,random_dot,59.97152549835956,
left,left,accuracy,,,,,0.0,1.0,1.0,0.0,9.0,0.0,18.0,0.0,410.8248523999937,,,,,,,,,410.8099845000543,412.0241241001058,412.83977100008633,412.8248625000706,412.8248765000608,412.83977100008633,412.83977100008633,412.83977100008633,,415.1727356000338,left,1.0,2.3189651999855414,,,,,,,,,,,,,,,,,,,,,,,,,,,,,,sub-146,1.0,random_dot,59.97152549835956,
right,right,accuracy,,,,,0.0,1.0,1.0,0.0,9.0,1.0,19.0,1.0,415.1883910000324,,,,,,,,,415.1734043000033,415.9879998000106,416.7873045000015,416.7716743000783,416.7716880000662,416.7873045000015,416.7873045000015,416.7873045000015,,418.68698320002295,right,1.0,1.8845760999247432,,,,,,,,,,,,,,,,,,,,,,,,,,,,,,sub-146,1.0,random_dot,59.97152549835956,
right,right,accuracy,,,,,0.0,1.0,1.0,0.0,10.0,0.0,20.0,1.0,418.70307080005296,,,,,,,,,418.68763850000687,419.502570200013,420.3016692000674,420.28546400007326,420.28547720005736,420.3016692000674,420.3016692000674,420.3016692000674,,421.9850268000737,right,1.0,1.6781186000443995,,,,,,,,,,,,,,,,,,,,,,,,,,,,,,sub-146,1.0,random_dot,59.97152549835956,
left,left,accuracy,,,,,0.0,1.0,1.0,0.0,10.0,1.0,21.0,0.0,422.00060040003154,,,,,,,,,421.9856850000797,422.1006846000673,422.8999431000557,422.8841877999948,422.8842009000946,422.8999431000557,422.8999431000557,422.8999431000557,,424.383404500084,left,1.0,1.4767636000178754,,,,,,,,,,,,,,,,,,,,,,,,,,,,,,sub-146,1.0,random_dot,59.97152549835956,
left,left,accuracy,,,,,0.0,1.0,1.0,0.0,11.0,0.0,22.0,0.0,424.3991709999973,,,,,,,,,424.3840547000291,425.19835680001415,425.9982501000632,425.9824654000113,425.9824789999984,425.9982501000632,425.9982501000632,425.9982501000632,,428.41448830009904,left,1.0,2.4122168000321835,,,,,,,,,,,,,,,,,,,,,,,,,,,,,,sub-146,1.0,random_dot,59.97152549835956,
right,right,accuracy,,,,,0.0,1.0,1.0,0.0,11.0,1.0,23.0,1.0,428.4297690000385,,,,,,,,,428.4156741000479,428.77948880009353,429.578818900045,429.56380360003095,429.5638174000196,429.578818900045,429.578818900045,429.578818900045,,432.06134360004216,left,0.0,2.468200600007549,,,,,,,,,,,,,,,,,,,,,,,,,,,,,,sub-146,1.0,random_dot,59.97152549835956,
right,right,accuracy,,,,,0.0,1.0,1.0,0.0,12.0,0.0,24.0,1.0,432.0768930000486,,,,,,,,,432.0621597000864,432.1770376000786,432.9766647000797,432.9607347000856,432.960748600075,432.9766647000797,432.9766647000797,432.9766647000797,,434.9931496999925,right,1.0,2.002115600043908,,,,,,,,,,,,,,,,,,,,,,,,,,,,,,sub-146,1.0,random_dot,59.97152549835956,
left,left,accuracy,,,,,0.0,1.0,1.0,0.0,12.0,1.0,25.0,0.0,435.0088673999999,,,,,,,,,434.9938014000654,435.1090040000854,435.908204400097,435.89223570004106,435.8922539000632,435.908204400097,435.908204400097,435.908204400097,,437.6577772001037,left,1.0,1.7371307000285017,,,,,,,,,,,,,,,,,,,,,,,,,,,,,,sub-146,1.0,random_dot,59.97152549835956,
left,left,accuracy,,,,,0.0,1.0,1.0,0.0,13.0,0.0,26.0,0.0,437.6736429000739,,,,,,,,,437.6584669000004,438.87281800003257,439.6722829000792,439.65620950004086,439.6562225000234,439.6722829000792,439.6722829000792,439.6722829000792,,441.2390752000501,left,1.0,1.561921100015752,,,,,,,,,,,,,,,,,,,,,,,,,,,,,,sub-146,1.0,random_dot,59.97152549835956,
right,right,accuracy,,,,,0.0,1.0,1.0,0.0,13.0,1.0,27.0,1.0,441.2545993000968,,,,,,,,,441.2397325000493,442.0540859000757,442.8534876001068,442.8377325000474,442.8377454000292,442.8534876001068,442.8534876001068,442.8534876001068,,445.5191616000375,left,0.0,2.6532559999031946,,,,,,,,,,,,,,,,,,,,,,,,,,,,,,sub-146,1.0,random_dot,59.97152549835956,
left,left,accuracy,,,,,0.0,1.0,1.0,0.0,14.0,0.0,28.0,0.0,445.5351506000152,,,,,,,,,445.5198001000099,446.334669200005,447.1340218000114,447.1181640001014,447.1181854000315,447.1340218000114,447.1340218000114,447.1340218000114,,449.7499307000544,left,1.0,2.6071216000709683,,,,,,,,,,,,,,,,,,,,,,,,,,,,,,sub-146,1.0,random_dot,59.97152549835956,
right,right,accuracy,,,,,0.0,1.0,1.0,0.0,14.0,1.0,29.0,1.0,449.7655444000848,,,,,,,,,449.7505743000656,450.5653275999939,451.3644281000597,451.3486540000886,451.34867289999966,451.3644281000597,451.3644281000597,451.3644281000597,,454.23080000001937,right,1.0,2.864977800054476,,,,,,,,,,,,,,,,,,,,,,,,,,,,,,sub-146,1.0,random_dot,59.97152549835956,
left,left,accuracy,,,,,0.0,1.0,1.0,0.0,15.0,0.0,30.0,0.0,454.2459796000039,,,,,,,,,454.2320571000455,455.4454798999941,456.2443961000536,456.22883270005696,456.2288460000418,456.2443961000536,456.2443961000536,456.2443961000536,,458.4274512000848,right,0.0,2.1719750999473035,,,,,,,,,,,,,,,,,,,,,,,,,,,,,,sub-146,1.0,random_dot,59.97152549835956,
right,right,accuracy,,,,,0.0,1.0,1.0,0.0,15.0,1.0,31.0,1.0,458.4432517000241,,,,,,,,,458.42813500005286,459.6421754000476,460.4416305000195,460.42595890001394,460.425972099998,460.4416305000195,460.4416305000195,460.4416305000195,,464.8064008000074,right,1.0,4.351340900058858,,,,,,,,,,,,,,,,,,,,,,,,,,,,,,sub-146,1.0,random_dot,59.97152549835956,
right,right,accuracy,,,,,0.0,1.0,1.0,0.0,16.0,0.0,32.0,1.0,464.8222523001023,,,,,,,,,464.807601800072,465.1721591000678,465.97133790003136,465.9556847000495,465.9556980000343,465.97133790003136,465.97133790003136,465.97133790003136,,469.7535352000268,left,0.0,3.76562949991785,,,,,,,,,,,,,,,,,,,,,,,,,,,,,,sub-146,1.0,random_dot,59.97152549835956,
left,left,accuracy,,,,,0.0,1.0,1.0,0.0,16.0,1.0,33.0,0.0,469.768882000004,,,,,,,,,469.754188699997,470.11881690006703,470.9181615000125,470.9021356001031,470.9021488000872,470.9181615000125,470.9181615000125,470.9181615000125,,472.0684708000626,left,1.0,1.14017829997465,,,,,,,,,,,,,,,,,,,,,,,,,,,,,,sub-146,1.0,random_dot,59.97152549835956,
right,right,accuracy,,,,,0.0,1.0,1.0,0.0,17.0,0.0,34.0,1.0,472.08427560003474,,,,,,,,,472.0691604000749,472.43415020010434,473.2335404000478,473.2175122000044,473.21752530010417,473.2335404000478,473.2335404000478,473.2335404000478,,473.5678328000941,right,1.0,0.3319839999312535,,,,,,,,,,,,,,,,,,,,,,,,,,,,,,sub-146,1.0,random_dot,59.97152549835956,
left,left,accuracy,,,,,0.0,1.0,1.0,0.0,17.0,1.0,35.0,0.0,473.5832949000178,,,,,,,,,473.5684916001046,474.38255229999777,475.18181050010026,475.1662593000801,475.1662725000642,475.18181050010026,475.18181050010026,475.18181050010026,,475.41688350006007,right,0.0,0.2323931000428274,,,,,,,,,,,,,,,,,,,,,,,,,,,,,,sub-146,1.0,random_dot,59.97152549835956,
right,right,accuracy,,,,,0.0,1.0,1.0,0.0,18.0,0.0,36.0,1.0,475.43197140004486,,,,,,,,,475.41789949999657,475.5318669000408,476.3313070000149,476.3156110000564,476.3156242000405,476.3313070000149,476.3313070000149,476.3313070000149,,476.6819721000502,left,0.0,0.3446839000098407,,,,,,,,,,,,,,,,,,,,,,,,,,,,,,sub-146,1.0,random_dot,59.97152549835956,
left,left,accuracy,,,,,0.0,1.0,1.0,0.0,18.0,1.0,37.0,0.0,476.6974982999964,,,,,,,,,476.6829004000174,477.0475712000625,477.8472002000781,477.8311169000808,477.83113100007176,477.8472002000781,477.8472002000781,477.8472002000781,,477.9480552000459,right,0.0,0.0970840000081807,,,,,,,,,,,,,,,,,,,,,,,,,,,,,,sub-146,1.0,random_dot,59.97152549835956,
left,left,accuracy,,,,,0.0,1.0,1.0,0.0,19.0,0.0,38.0,0.0,477.9633891000413,,,,,,,,,477.9487000000663,479.1629246000666,479.9622820999939,479.94651760009583,479.9465307000792,479.9622820999939,479.9622820999939,479.9622820999939,,480.3962546000257,left,1.0,0.426405799924396,,,,,,,,,,,,,,,,,,,,,,,,,,,,,,sub-146,1.0,random_dot,59.97152549835956,
right,right,accuracy,,,,,0.0,1.0,1.0,0.0,19.0,1.0,39.0,1.0,480.4118782000151,,,,,,,,,480.3969017000636,480.7618070000317,481.5610186000122,481.5451095000608,481.5451226000441,481.5610186000122,481.5610186000122,481.5610186000122,,481.87902410002425,right,1.0,0.3158815000206232,,,,,,,,,,,,,,,,,,,,,,,,,,,,,,sub-146,1.0,random_dot,59.97152549835956,
right,right,accuracy,,,,,0.0,1.0,1.0,0.0,20.0,0.0,40.0,1.0,481.89400670002215,,,,,,,,,481.8796279000817,482.69403190002777,483.4931308000814,483.4774344000034,483.4774474001024,483.4931308000814,483.4931308000814,483.4931308000814,,483.6777304999996,right,1.0,0.1710552999284118,,,,,,,,,,,,,,,,,,,,,,,,,,,,,,sub-146,1.0,random_dot,59.97152549835956,
left,left,accuracy,,,,,0.0,1.0,1.0,0.0,20.0,1.0,41.0,0.0,483.6931976000778,,,,,,,,,483.67836240003817,484.8924430001061,485.6916508000577,485.6759663000703,485.6759800000582,485.6916508000577,485.6916508000577,485.6916508000577,,486.0922557000304,right,0.0,0.3904858999885618,,,,,,,,,,,,,,,,,,,,,,,,,,,,,,sub-146,1.0,random_dot,59.97152549835956,
right,right,accuracy,,,,,0.0,1.0,1.0,0.0,21.0,0.0,42.0,1.0,486.1081604000647,,,,,,,,,486.09293830010574,487.307189400075,488.10672240005806,488.0907778000692,488.0908088000724,488.10672240005806,488.10672240005806,488.10672240005806,,489.60681190004107,left,0.0,1.495695500052534,,,,,,,,,,,,,,,,,,,,,,,,,,,,,,sub-146,1.0,random_dot,59.97152549835956,
left,left,accuracy,,,,,0.0,1.0,1.0,0.0,21.0,1.0,43.0,0.0,489.62240590003785,,,,,,,,,489.6075127000222,490.8219004001003,491.62124420003965,491.6050281000789,491.605041300063,491.62124420003965,491.62124420003965,491.62124420003965,,493.3543252000818,left,1.0,1.7267745001008734,,,,,,,,,,,,,,,,,,,,,,,,,,,,,,sub-146,1.0,random_dot,59.97152549835956,
right,right,accuracy,,,,,0.0,1.0,1.0,0.0,22.0,0.0,44.0,1.0,493.3700094000669,,,,,,,,,493.35499960009474,494.5695468999911,495.36893610004336,495.3527428000234,495.3527563000098,495.36893610004336,495.36893610004336,495.36893610004336,,496.6190017000772,right,1.0,1.2355735000455752,,,,,,,,,,,,,,,,,,,,,,,,,,,,,,sub-146,1.0,random_dot,59.97152549835956,
left,left,accuracy,,,,,0.0,1.0,1.0,0.0,22.0,1.0,45.0,0.0,496.6346727000782,,,,,,,,,496.61961320007686,497.4340395000763,498.2333562000422,498.2176181999967,498.2176314000972,498.2333562000422,498.2333562000422,498.2333562000422,,500.449707700056,left,1.0,2.2075318000279367,,,,,,,,,,,,,,,,,,,,,,,,,,,,,,sub-146,1.0,random_dot,59.97152549835956,
left,left,accuracy,,,,,0.0,1.0,1.0,0.0,23.0,0.0,46.0,0.0,500.46530979999807,,,,,,,,,500.450361300027,501.6648003000301,502.4643190000206,502.44823750003707,502.4482513000257,502.4643190000206,502.4643190000206,502.4643190000206,,503.34804940002505,left,1.0,0.8721901000244543,,,,,,,,,,,,,,,,,,,,,,,,,,,,,,sub-146,1.0,random_dot,59.97152549835956,
right,right,accuracy,,,,,0.0,1.0,1.0,0.0,23.0,1.0,47.0,1.0,503.3635190000059,,,,,,,,,503.3488322000485,503.4635067000054,504.2629885000642,504.2469140000176,504.2469260999933,504.2629885000642,504.2629885000642,504.2629885000642,,505.8460618000245,right,1.0,1.5710317000048235,,,,,,,,,,,,,,,,,,,,,,,,,,,,,,sub-146,1.0,random_dot,59.97152549835956,
left,left,accuracy,,,,,0.0,1.0,1.0,0.0,24.0,0.0,48.0,0.0,505.8624609000981,,,,,,,,,505.847213900066,506.2114126000088,507.01074400008656,506.9957485999912,506.9957709000446,507.01074400008656,507.01074400008656,507.01074400008656,,507.87823060003575,left,1.0,0.856299199978821,,,,,,,,,,,,,,,,,,,,,,,,,,,,,,sub-146,1.0,random_dot,59.97152549835956,
right,right,accuracy,,,,,0.0,1.0,1.0,0.0,24.0,1.0,49.0,1.0,507.8935645000311,,,,,,,,,507.8794956000056,509.0927908000304,509.8927134000696,509.8763635000214,509.8763771000085,509.8927134000696,509.8927134000696,509.8927134000696,,511.9759075000184,left,0.0,2.07281900011003,,,,,,,,,,,,,,,,,,,,,,,,,,,,,,sub-146,1.0,random_dot,59.97152549835956,
right,right,accuracy,,,,,0.0,1.0,1.0,0.0,25.0,0.0,50.0,1.0,511.9911182000069,,,,,,,,,511.97655380005017,512.7905070000561,513.5899237000849,513.5736000000034,513.5736139999935,513.5899237000849,513.5899237000849,513.5899237000849,518.5869937000098,519.5371774000814,right,1.0,5.933816900011152,,,,,,,,,,,,,,,,,,,,,,,,,,,,,,sub-146,1.0,random_dot,59.97152549835956,
left,left,accuracy,,,,,0.0,1.0,1.0,0.0,25.0,1.0,51.0,0.0,519.5526818000944,,,,,,,,,519.5378268000204,520.7519085000968,521.5513745000353,521.5353022000054,521.5353160999948,521.5513745000353,521.5513745000353,521.5513745000353,,522.4850352000212,left,1.0,0.9265774000668898,,,,,,,,,,,,,,,,,,,,,,,,,,,,,,sub-146,1.0,random_dot,59.97152549835956,
left,left,accuracy,,,,,0.0,1.0,1.0,0.0,26.0,0.0,52.0,0.0,522.5010215000948,,,,,,,,,522.4856859000865,522.8502684000414,523.6499913000735,523.6341422999976,523.6341559001012,523.6499913000735,523.6499913000735,523.6499913000735,,524.5339606000343,left,1.0,0.8733871000586078,,,,,,,,,,,,,,,,,,,,,,,,,,,,,,sub-146,1.0,random_dot,59.97152549835956,
right,right,accuracy,,,,,0.0,1.0,1.0,0.0,26.0,1.0,53.0,1.0,524.5494831000688,,,,,,,,,524.5347435000585,524.6491682000924,525.4490258001024,525.4329058000585,525.4329192000441,525.4490258001024,525.4490258001024,525.4490258001024,,526.5659553000005,right,1.0,1.1009386000223458,,,,,,,,,,,,,,,,,,,,,,,,,,,,,,sub-146,1.0,random_dot,59.97152549835956,
right,right,accuracy,,,,,0.0,1.0,1.0,0.0,27.0,0.0,54.0,1.0,526.5812476000283,,,,,,,,,526.566617500037,526.6811983000953,527.4809157000855,527.4647988000652,527.4648122000508,527.4809157000855,527.4809157000855,527.4809157000855,,529.1813599000452,right,1.0,1.6966898000100628,,,,,,,,,,,,,,,,,,,,,,,,,,,,,,sub-146,1.0,random_dot,59.97152549835956,
left,left,accuracy,,,,,0.0,1.0,1.0,0.0,27.0,1.0,55.0,0.0,529.1964293000055,,,,,,,,,529.1820283000125,529.5461625000462,530.3452566000633,530.3298247000203,530.3298381000059,530.3452566000633,530.3452566000633,530.3452566000633,,531.2792163999984,left,1.0,0.928565200068988,,,,,,,,,,,,,,,,,,,,,,,,,,,,,,sub-146,1.0,random_dot,59.97152549835956,
left,left,accuracy,,,,,0.0,1.0,1.0,0.0,28.0,0.0,56.0,0.0,531.2948544000974,,,,,,,,,531.2798519000644,532.0941855000565,532.8935512000462,532.8781463000923,532.8781596000772,532.8935512000462,532.8935512000462,532.8935512000462,,533.2613511000527,right,0.0,0.3591708999592811,,,,,,,,,,,,,,,,,,,,,,,,,,,,,,sub-146,1.0,random_dot,59.97152549835956,
right,right,accuracy,,,,,0.0,1.0,1.0,0.0,28.0,1.0,57.0,1.0,533.2768272000831,,,,,,,,,533.2620264000725,534.4764941000612,535.2754245999968,535.2596105000703,535.2596236000536,535.2754245999968,535.2754245999968,535.2754245999968,,536.0597013999941,right,1.0,0.7770080999471247,,,,,,,,,,,,,,,,,,,,,,,,,,,,,,sub-146,1.0,random_dot,59.97152549835956,
left,left,accuracy,,,,,0.0,1.0,1.0,0.0,29.0,0.0,58.0,0.0,536.0751234000782,,,,,,,,,536.0603412000928,536.4249143000925,537.2243472000118,537.2084421000909,537.2084556000773,537.2243472000118,537.2243472000118,537.2243472000118,,539.0739829000086,left,1.0,1.8445840999484064,,,,,,,,,,,,,,,,,,,,,,,,,,,,,,sub-146,1.0,random_dot,59.97152549835956,
right,right,accuracy,,,,,0.0,1.0,1.0,0.0,29.0,1.0,59.0,1.0,539.0900661000051,,,,,,,,,539.0746710000094,540.288709100103,541.088463800028,541.0726691000164,541.0726818999974,541.088463800028,541.088463800028,541.088463800028,,541.8888484000927,right,1.0,0.7931716000894085,,,,,,,,,,,,,,,,,,,,,,,,,,,,,,sub-146,1.0,random_dot,59.97152549835956,
,,accuracy,,,,,0.0,1.0,1.0,0.0,,,,,,,,,,,,,,,,,,,,,,,,,,,,,,,,,,,,,,,,,,,,,,,,,,,,,,,,sub-146,1.0,random_dot,59.97152549835956,
,,,,,,,,,,,,,,,,,,,,,,,,,,,,,,,,,,,,,,,,,,,,,,,,,,,,,,,,,,,,,,,541.8893461000407,541.9044129000977,546.9014669000171,sub-146,,,,
