wordCTK,colorCTK,corrAnsCTK,congruentCTK,thisN,thisTrialN,thisRepN,keyResp_CTK.keys,keyResp_CTK.corr,keyResp_CTK.rt,keyResp_CTK.duration,wordPractice,colorPractice,corrAnsPractice,congruentPractice,respPractice.keys,respPractice.corr,respPractice.rt,respPractice.duration,word,color,corrAns,congruent,keyResp_test_run.keys,keyResp_test_run.corr,keyResp_test_run.rt,keyResp_test_run.duration,trials_CTK.thisRepN,trials_CTK.thisTrialN,trials_CTK.thisN,trials_CTK.thisIndex,trials_practice.thisRepN,trials_practice.thisTrialN,trials_practice.thisN,trials_practice.thisIndex,trials_test.thisRepN,trials_test.thisTrialN,trials_test.thisN,trials_test.thisIndex,thisRow.t,notes,instruction.started,instr_text.started,instr_image.started,instr_resp.started,instruction.stopped,instr_resp.keys,instr_resp.rt,instr_resp.duration,instr_color_to_key.started,instr_ctk.started,resp_ctk.started,instr_color_to_key.stopped,resp_ctk.keys,resp_ctk.rt,resp_ctk.duration,ITI.started,fixcross.started,fixcross.stopped,ITI.stopped,color_to_key_run.started,stimulus_CTK.started,keyResp_CTK.started,color_to_key_run.stopped,trials_CTK.keyResp_CTK.keys,trials_CTK.keyResp_CTK.corr,trials_CTK.keyResp_CTK.rt,trials_CTK.keyResp_CTK.duration,instr_practice.started,instr_practice_text.started,instr_practice_resp.started,instr_practice.stopped,instr_practice_resp.keys,instr_practice_resp.rt,instr_practice_resp.duration,practice_run.started,stimulus_practice.started,respPractice.started,practice_run.stopped,trials_practice.respPractice.keys,trials_practice.respPractice.corr,trials_practice.respPractice.rt,trials_practice.respPractice.duration,feedback.started,textFeedback.started,feedback.stopped,textFeedback.stopped,instr_test.started,instr_test_text.started,instr_test_resp.started,instr_test.stopped,instr_test_resp.keys,instr_test_resp.rt,instr_test_resp.duration,test_run.started,stimulus_test_run.started,keyResp_test_run.started,test_run.stopped,trials_test.keyResp_test_run.keys,trials_test.keyResp_test_run.corr,trials_test.keyResp_test_run.rt,trials_test.keyResp_test_run.duration,goodbye.started,textGoodbye.started,textGoodbye.stopped,goodbye.stopped,participant,session,expName,frameRate,Unnamed: 113
,,,,,,,,,,,,,,,,,,,,,,,,,,,,,,,,,,,,,,,,,0.0055231000296771,0.0248882999876514,0.0248882999876514,0.0248882999876514,33.80875790002756,space,33.67197469994426,,,,,,,,,,,,,,,,,,,,,,,,,,,,,,,,,,,,,,,,,,,,,,,,,,,,,,,,,,,sub-094,1,stroop_test,59.80832626471051,
,,,,,,,,,,,,,,,,,,,,,,,,,,,,,,,,,,,,,,,,,,,,,,,,,33.808853800059296,33.818164300057106,33.818164300057106,43.75536439998541,space,9.920849799993448,,,,,,,,,,,,,,,,,,,,,,,,,,,,,,,,,,,,,,,,,,,,,,,,,,,,sub-094,1,stroop_test,59.80832626471051,
test,blue,b,1.0,0.0,0.0,0.0,b,1.0,0.9843855999642984,,,,,,,,,,,,,,,,,,0.0,0.0,0.0,2.0,,,,,,,,,43.82157100003678,,,,,,,,,,,,,,,,,43.81592099997215,43.871010300004855,44.67088400002103,44.65516940003727,44.66418950003572,44.67088400002103,44.67088400002103,45.672481999965385,b,1.0,0.9843855999642984,,,,,,,,,,,,,,,,,,,,,,,,,,,,,,,,,,,,,,,,sub-094,1,stroop_test,59.80832626471051,
test,yellow,g,1.0,1.0,1.0,0.0,g,1.0,0.4930224000709131,,,,,,,,,,,,,,,,,,0.0,1.0,1.0,1.0,,,,,,,,,45.68730420002248,,,,,,,,,,,,,,,,,45.673005699994974,45.78696050005965,46.58740540000144,46.57186909997836,46.57265990006272,46.58740540000144,46.58740540000144,47.089024499990046,g,1.0,0.4930224000709131,,,,,,,,,,,,,,,,,,,,,,,,,,,,,,,,,,,,,,,,sub-094,1,stroop_test,59.80832626471051,
test,red,r,1.0,2.0,2.0,0.0,r,1.0,0.2590162999695167,,,,,,,,,,,,,,,,,,0.0,2.0,2.0,0.0,,,,,,,,,47.10361820005346,,,,,,,,,,,,,,,,,47.08944160002284,47.454040199983865,48.25391730002593,48.23794749996159,48.23883320007008,48.25391730002593,48.25391730002593,48.52268060005736,r,1.0,0.2590162999695167,,,,,,,,,,,,,,,,,,,,,,,,,,,,,,,,,,,,,,,,sub-094,1,stroop_test,59.80832626471051,
test,red,r,1.0,3.0,0.0,1.0,r,1.0,1.014674699981697,,,,,,,,,,,,,,,,,,1.0,0.0,3.0,0.0,,,,,,,,,48.53686150000431,,,,,,,,,,,,,,,,,48.52312560006976,48.8869185000658,49.68728329997976,49.67224540002644,49.67296590004116,49.68728329997976,49.68728329997976,50.705710700014606,r,1.0,1.014674699981697,,,,,,,,,,,,,,,,,,,,,,,,,,,,,,,,,,,,,,,,sub-094,1,stroop_test,59.80832626471051,
test,blue,b,1.0,4.0,1.0,1.0,b,1.0,0.4480471999850124,,,,,,,,,,,,,,,,,,1.0,1.0,4.0,2.0,,,,,,,,,50.720298400032334,,,,,,,,,,,,,,,,,50.70626420003828,51.920932900044136,52.72139279998373,52.70481130003464,52.70552860002499,52.72139279998373,52.72139279998373,53.17297409998719,b,1.0,0.4480471999850124,,,,,,,,,,,,,,,,,,,,,,,,,,,,,,,,,,,,,,,,sub-094,1,stroop_test,59.80832626471051,
test,yellow,g,1.0,5.0,2.0,1.0,g,1.0,0.3896746999816969,,,,,,,,,,,,,,,,,,1.0,2.0,5.0,1.0,,,,,,,,,53.18705780000892,,,,,,,,,,,,,,,,,53.1734751999611,53.53714050003328,54.3368428000249,54.32152150000911,54.322305000037886,54.3368428000249,54.3368428000249,54.73911780002527,g,1.0,0.3896746999816969,,,,,,,,,,,,,,,,,,,,,,,,,,,,,,,,,,,,,,,,sub-094,1,stroop_test,59.80832626471051,
test,blue,b,1.0,6.0,0.0,2.0,b,1.0,0.4196943000424653,,,,,,,,,,,,,,,,,,2.0,0.0,6.0,2.0,,,,,,,,,54.753668099991046,,,,,,,,,,,,,,,,,54.73959630005993,55.95377160003409,56.75347190001048,56.73806530004367,56.73878949997015,56.75347190001048,56.75347190001048,57.18897300004028,b,1.0,0.4196943000424653,,,,,,,,,,,,,,,,,,,,,,,,,,,,,,,,,,,,,,,,sub-094,1,stroop_test,59.80832626471051,
test,red,r,1.0,7.0,1.0,2.0,r,1.0,0.4834128000074997,,,,,,,,,,,,,,,,,,2.0,1.0,7.0,0.0,,,,,,,,,57.20370179996826,,,,,,,,,,,,,,,,,57.189483399968594,58.00382420001552,58.80389770003967,58.78847809997387,58.7891709000105,58.80389770003967,58.80389770003967,59.28967149998061,r,1.0,0.4834128000074997,,,,,,,,,,,,,,,,,,,,,,,,,,,,,,,,,,,,,,,,sub-094,1,stroop_test,59.80832626471051,
test,yellow,g,1.0,8.0,2.0,2.0,g,1.0,0.4303768000099808,,,,,,,,,,,,,,,,,,2.0,2.0,8.0,1.0,,,,,,,,,59.30357840005309,,,,,,,,,,,,,,,,,59.29011169995647,59.40396829997189,60.203778699971735,60.18797910003923,60.18871969997417,60.203778699971735,60.203778699971735,60.63933509995695,g,1.0,0.4303768000099808,,,,,,,,,,,,,,,,,,,,,,,,,,,,,,,,,,,,,,,,sub-094,1,stroop_test,59.80832626471051,
test,blue,b,1.0,9.0,0.0,3.0,b,1.0,0.4482139000901952,,,,,,,,,,,,,,,,,,3.0,0.0,9.0,2.0,,,,,,,,,60.65390519995708,,,,,,,,,,,,,,,,,60.63977100001648,61.00377650000155,61.803912300034426,61.78804630006198,61.78874300001189,61.803912300034426,61.803912300034426,62.2555488999933,b,1.0,0.4482139000901952,,,,,,,,,,,,,,,,,,,,,,,,,,,,,,,,,,,,,,,,sub-094,1,stroop_test,59.80832626471051,
test,yellow,g,1.0,10.0,1.0,3.0,g,1.0,0.5114424000494182,,,,,,,,,,,,,,,,,,3.0,1.0,10.0,1.0,,,,,,,,,62.27012330002617,,,,,,,,,,,,,,,,,62.256022199988365,63.47075219999533,64.27026290004142,64.25468040001579,64.25533800001722,64.27026290004142,64.27026290004142,64.78852820000611,g,1.0,0.5114424000494182,,,,,,,,,,,,,,,,,,,,,,,,,,,,,,,,,,,,,,,,sub-094,1,stroop_test,59.80832626471051,
test,red,r,1.0,11.0,2.0,3.0,r,1.0,0.326343800057657,,,,,,,,,,,,,,,,,,3.0,2.0,11.0,0.0,,,,,,,,,64.80344270006754,,,,,,,,,,,,,,,,,64.78894120000768,65.6040450000437,66.4034260000335,66.38899040000979,66.38960100000259,66.4034260000335,66.4034260000335,66.7391845000675,r,1.0,0.326343800057657,,,,,,,,,,,,,,,,,,,,,,,,,,,,,,,,,,,,,,,,sub-094,1,stroop_test,59.80832626471051,
,,,,,,,,,,,,,,,,,,,,,,,,,,,,,,,,,,,,,,,,,,,,,,,,,,,,,,,,,,,,,,,,,,,,66.73938040004577,66.75369110004976,66.75369110004976,73.85623489995487,space,7.091059900005348,,,,,,,,,,,,,,,,,,,,,,,,,,,,,,,,,sub-094,1,stroop_test,59.80832626471051,
,,,,0.0,0.0,0.0,,,,,gelb,yellow,g,1.0,g,1.0,1.4514796000439674,,,,,,,,,,,,,,0.0,0.0,0.0,10.0,,,,,73.91131280001719,,,,,,,,,,,,,,,,,73.90512110001873,74.21395390003454,75.01555400004145,74.99855420005042,,,,,,,,,,,,,,,,75.00855050003156,75.01555400004145,75.01555400004145,76.48275810002815,g,1.0,1.4514796000439674,,76.49419460003264,76.50304300000425,77.49774789996445,,,,,,,,,,,,,,,,,,,,,sub-094,1,stroop_test,59.80832626471051,
,,,,1.0,1.0,0.0,,,,,rot,blue,b,0.0,b,1.0,0.4532739999704063,,,,,,,,,,,,,,0.0,1.0,1.0,2.0,,,,,77.51376700005494,,,,,,,,,,,,,,,,,77.49836540000979,78.29712540004402,79.09683559997939,79.08153810002841,,,,,,,,,,,,,,,,79.08837230002973,79.09683559997939,79.09683559997939,79.56550070003141,b,1.0,0.4532739999704063,,79.5661597000435,79.5807397000026,80.565547300037,80.58078299998306,,,,,,,,,,,,,,,,,,,,sub-094,1,stroop_test,59.80832626471051,
,,,,2.0,2.0,0.0,,,,,blau,yellow,g,0.0,g,1.0,0.486047999933362,,,,,,,,,,,,,,0.0,2.0,2.0,7.0,,,,,80.58078299998306,,,,,,,,,,,,,,,,,80.56599390006159,80.68061599996872,81.48039649997372,81.46524469996803,,,,,,,,,,,,,,,,81.4729463000549,81.48039649997372,81.48039649997372,81.98246199998539,g,1.0,0.486047999933362,,81.98314290004782,81.99694300000556,82.98240179999266,82.99711590004154,,,,,,,,,,,,,,,,,,,,sub-094,1,stroop_test,59.80832626471051,
,,,,3.0,3.0,0.0,,,,,rot,yellow,g,0.0,g,1.0,0.5238052998902276,,,,,,,,,,,,,,0.0,3.0,3.0,3.0,,,,,82.99711590004154,,,,,,,,,,,,,,,,,82.98297700006515,84.19787440006621,84.99711360002402,84.98215729999356,,,,,,,,,,,,,,,,84.98636249999981,84.99711360002402,84.99711360002402,85.53221279999707,g,1.0,0.5238052998902276,,85.53286789997946,85.54738710005768,86.53206580004189,86.54695240000729,,,,,,,,,,,,,,,,,,,,sub-094,1,stroop_test,59.80832626471051,
,,,,4.0,4.0,0.0,,,,,blau,blue,b,1.0,b,1.0,0.3863178000319749,,,,,,,,,,,,,,0.0,4.0,4.0,5.0,,,,,86.54695240000729,,,,,,,,,,,,,,,,,86.5324756000191,86.64731599995866,87.44752479996532,87.43151580006815,,,,,,,,,,,,,,,,87.43517079995945,87.44752479996532,87.44752479996532,87.84891790000256,b,1.0,0.3863178000319749,,87.8497531999601,87.86434870003723,88.84868369996548,88.8641022000229,,,,,,,,,,,,,,,,,,,,sub-094,1,stroop_test,59.80832626471051,
,,,,5.0,5.0,0.0,,,,,blau,blue,b,1.0,b,1.0,0.3792150999652222,,,,,,,,,,,,,,0.0,5.0,5.0,6.0,,,,,88.8641022000229,,,,,,,,,,,,,,,,,88.84922900004312,88.96415130002424,89.76373959996272,89.74823070003185,,,,,,,,,,,,,,,,89.7489377000602,89.76373959996272,89.76373959996272,90.14885520003736,b,1.0,0.3792150999652222,,90.14955980004744,90.16372920002324,91.1483521000482,91.163777400041,,,,,,,,,,,,,,,,,,,,sub-094,1,stroop_test,59.80832626471051,
,,,,6.0,6.0,0.0,,,,,rot,red,r,1.0,r,1.0,0.3935457000043243,,,,,,,,,,,,,,0.0,6.0,6.0,1.0,,,,,91.163777400041,,,,,,,,,,,,,,,,,91.14877289999276,92.36354940000456,93.16422310005872,93.14858929999173,,,,,,,,,,,,,,,,93.1536634999793,93.16422310005872,93.16422310005872,93.56630830001086,r,1.0,0.3935457000043243,,93.56703410006594,93.58037580002564,94.56476089998614,94.58062620006967,,,,,,,,,,,,,,,,,,,,sub-094,1,stroop_test,59.80832626471051,
,,,,7.0,7.0,0.0,,,,,gelb,red,r,0.0,r,1.0,0.5016302999574691,,,,,,,,,,,,,,0.0,7.0,7.0,8.0,,,,,94.58062620006967,,,,,,,,,,,,,,,,,94.56525640003385,94.68056170002092,95.4804475000128,95.46482480003031,,,,,,,,,,,,,,,,95.46857310004998,95.4804475000128,95.4804475000128,95.99911990005056,r,1.0,0.5016302999574691,,95.99976749997586,96.01363890001085,96.99890790006611,97.01426159997936,,,,,,,,,,,,,,,,,,,,sub-094,1,stroop_test,59.80832626471051,
,,,,8.0,8.0,0.0,,,,,gelb,yellow,g,1.0,g,1.0,0.6077446000417694,,,,,,,,,,,,,,0.0,8.0,8.0,11.0,,,,,97.01426159997936,,,,,,,,,,,,,,,,,96.99939240003005,98.21376469999086,99.01379019999877,98.99792940006591,,,,,,,,,,,,,,,,98.99858919996768,99.01379019999877,99.01379019999877,99.63212500000373,g,1.0,0.6077446000417694,,99.6328288000077,99.64689860004,100.63139220001176,100.64751210005488,,,,,,,,,,,,,,,,,,,,sub-094,1,stroop_test,59.80832626471051,
,,,,9.0,9.0,0.0,,,,,rot,red,r,1.0,r,1.0,0.472334099933505,,,,,,,,,,,,,,0.0,9.0,9.0,0.0,,,,,100.64751210005488,,,,,,,,,,,,,,,,,100.63185410003643,101.44731019996108,102.24719859997276,102.23184580006637,,,,,,,,,,,,,,,,102.2361882000696,102.24719859997276,102.24719859997276,102.73206069995648,r,1.0,0.472334099933505,,102.73290860000998,102.74692249996588,103.7319258999778,103.74755470000672,,,,,,,,,,,,,,,,,,,,sub-094,1,stroop_test,59.80832626471051,
,,,,10.0,10.0,0.0,,,,,blau,red,r,0.0,r,1.0,0.5337966999504715,,,,,,,,,,,,,,0.0,10.0,10.0,4.0,,,,,103.74755470000672,,,,,,,,,,,,,,,,,103.73241569998208,103.84699680004267,104.64702659996692,104.63159190001898,,,,,,,,,,,,,,,,104.63527830003297,104.64702659996692,104.64702659996692,105.18308590003288,r,1.0,0.5337966999504715,,105.18373619997874,105.19679880002514,106.18164670001715,106.196818800061,,,,,,,,,,,,,,,,,,,,sub-094,1,stroop_test,59.80832626471051,
,,,,11.0,11.0,0.0,,,,,gelb,blue,b,0.0,b,1.0,0.5537104000104591,,,,,,,,,,,,,,0.0,11.0,11.0,9.0,,,,,106.196818800061,,,,,,,,,,,,,,,,,106.18216450000182,107.39718800003176,108.19716840004548,108.18145889998414,,,,,,,,,,,,,,,,108.18525159999264,108.19716840004548,108.19716840004548,108.76553089998195,b,1.0,0.5537104000104591,,108.76619019999634,108.78031120006926,109.76580459997058,109.78125320002437,,,,,,,,,,,,,,,,,,,,sub-094,1,stroop_test,59.80832626471051,
,,,,12.0,0.0,1.0,,,,,blau,yellow,g,0.0,g,1.0,0.3950442000059411,,,,,,,,,,,,,,1.0,0.0,12.0,7.0,,,,,109.78125320002437,,,,,,,,,,,,,,,,,109.76627640007064,109.88090630003715,110.68126710003708,110.66491110005882,,,,,,,,,,,,,,,,110.66917060001288,110.68126710003708,110.68126710003708,111.08180949999952,g,1.0,0.3950442000059411,,111.08252040005756,111.0969352000393,112.08133700001054,112.09781439998189,,,,,,,,,,,,,,,,,,,,sub-094,1,stroop_test,59.80832626471051,
,,,,13.0,1.0,1.0,,,,,gelb,red,r,0.0,r,1.0,0.3589442999800667,,,,,,,,,,,,,,1.0,1.0,13.0,8.0,,,,,112.09781439998189,,,,,,,,,,,,,,,,,112.08181919995695,113.29752709995957,114.09721479995642,114.0817631999962,,,,,,,,,,,,,,,,114.08548750006594,114.09721479995642,114.09721479995642,114.46602579997852,r,1.0,0.3589442999800667,,114.4667111999588,114.48061560001224,115.46527320006862,115.4801635000622,,,,,,,,,,,,,,,,,,,,sub-094,1,stroop_test,59.80832626471051,
,,,,14.0,2.0,1.0,,,,,rot,yellow,g,0.0,r,0.0,0.712843699962832,,,,,,,,,,,,,,1.0,2.0,14.0,3.0,,,,,115.4801635000622,,,,,,,,,,,,,,,,,115.46568789996672,115.58028130000456,116.38106310006695,116.36528769996949,,,,,,,,,,,,,,,,116.3692960999906,116.38106310006695,116.38106310006695,117.09886340005323,r,0.0,0.712843699962832,,117.10619960003532,117.11479829996824,118.11391339998228,,,,,,,,,,,,,,,,,,,,,sub-094,1,stroop_test,59.80832626471051,
,,,,15.0,3.0,1.0,,,,,rot,red,r,1.0,r,1.0,0.4843948000343516,,,,,,,,,,,,,,1.0,3.0,15.0,0.0,,,,,118.13071080006192,,,,,,,,,,,,,,,,,118.11434520001058,118.914191900054,119.71388609998394,119.69784819998311,,,,,,,,,,,,,,,,119.69854460004716,119.71388609998394,119.71388609998394,120.21529119997284,r,1.0,0.4843948000343516,,120.21968109998852,120.23019430006389,121.2147907000035,121.23016799998004,,,,,,,,,,,,,,,,,,,,sub-094,1,stroop_test,59.80832626471051,
,,,,16.0,4.0,1.0,,,,,rot,blue,b,0.0,b,1.0,0.3545406999764964,,,,,,,,,,,,,,1.0,4.0,16.0,2.0,,,,,121.23016799998004,,,,,,,,,,,,,,,,,121.21526770002674,121.33023299998604,122.13036399998236,122.11476440005936,,,,,,,,,,,,,,,,122.11547169997355,122.13036399998236,122.13036399998236,122.49884470005054,b,1.0,0.3545406999764964,,122.49966430000497,122.5135477000149,123.4981356000062,123.51356330001728,,,,,,,,,,,,,,,,,,,,sub-094,1,stroop_test,59.80832626471051,
,,,,17.0,5.0,1.0,,,,,blau,blue,b,1.0,b,1.0,0.4584140999941155,,,,,,,,,,,,,,1.0,5.0,17.0,6.0,,,,,123.51356330001728,,,,,,,,,,,,,,,,,123.49863669998012,123.61390850006136,124.41394810006022,124.39791249996053,,,,,,,,,,,,,,,,124.4023251000326,124.41394810006022,124.41394810006022,124.88251510006376,b,1.0,0.4584140999941155,,124.883162299986,124.89676130004229,125.88160169997718,125.89750159997492,,,,,,,,,,,,,,,,,,,,sub-094,1,stroop_test,59.80832626471051,
,,,,18.0,6.0,1.0,,,,,blau,red,r,0.0,r,1.0,0.3790470999665558,,,,,,,,,,,,,,1.0,6.0,18.0,4.0,,,,,125.89750159997492,,,,,,,,,,,,,,,,,125.88209279999136,127.09714149998037,127.8970868999604,127.8817429000046,,,,,,,,,,,,,,,,127.88248050003313,127.8970868999604,127.8970868999604,128.28237330005504,r,1.0,0.3790470999665558,,128.28316490002908,128.29671010002494,129.28177760005929,129.29700789996423,,,,,,,,,,,,,,,,,,,,sub-094,1,stroop_test,59.80832626471051,
,,,,19.0,7.0,1.0,,,,,gelb,yellow,g,1.0,g,1.0,0.4924925999948755,,,,,,,,,,,,,,1.0,7.0,19.0,10.0,,,,,129.29700789996423,,,,,,,,,,,,,,,,,129.28241330001038,130.4972666000249,131.29688080004416,131.28179350006394,,,,,,,,,,,,,,,,131.285882199998,131.29688080004416,131.29688080004416,131.79839560005348,g,1.0,0.4924925999948755,,131.7990532000549,131.81344759999774,132.79846690001432,132.81405320006888,,,,,,,,,,,,,,,,,,,,sub-094,1,stroop_test,59.80832626471051,
,,,,20.0,8.0,1.0,,,,,gelb,yellow,g,1.0,g,1.0,0.4176250000018626,,,,,,,,,,,,,,1.0,8.0,20.0,11.0,,,,,132.81405320006888,,,,,,,,,,,,,,,,,132.79889350000303,134.01324969995767,134.8140093999682,134.79818140005227,,,,,,,,,,,,,,,,134.79880960006267,134.8140093999682,134.8140093999682,135.24894890002906,g,1.0,0.4176250000018626,,135.24963380000554,135.26331569999456,136.24813830002677,136.26408680004533,,,,,,,,,,,,,,,,,,,,sub-094,1,stroop_test,59.80832626471051,
,,,,21.0,9.0,1.0,,,,,gelb,blue,b,0.0,b,1.0,0.4982860999880358,,,,,,,,,,,,,,1.0,9.0,21.0,9.0,,,,,136.26408680004533,,,,,,,,,,,,,,,,,136.24858789995778,136.61379750003107,137.4134768999647,137.398372799973,,,,,,,,,,,,,,,,137.3990662000142,137.4134768999647,137.4134768999647,137.91518959996756,b,1.0,0.4982860999880358,,137.91591720003635,137.93022650002968,138.91467009996995,138.93033390003256,,,,,,,,,,,,,,,,,,,,sub-094,1,stroop_test,59.80832626471051,
,,,,22.0,10.0,1.0,,,,,rot,red,r,1.0,r,1.0,0.4248079999815672,,,,,,,,,,,,,,1.0,10.0,22.0,1.0,,,,,138.93033390003256,,,,,,,,,,,,,,,,,138.91510530002415,139.73054080002476,140.53022459999193,140.51463870005682,,,,,,,,,,,,,,,,140.51900730002671,140.53022459999193,140.53022459999193,140.96571520005818,r,1.0,0.4248079999815672,,140.96641860005911,140.980036700028,141.9650786999846,141.98008989996742,,,,,,,,,,,,,,,,,,,,sub-094,1,stroop_test,59.80832626471051,
,,,,23.0,11.0,1.0,,,,,blau,blue,b,1.0,b,1.0,0.4501730999909341,,,,,,,,,,,,,,1.0,11.0,23.0,5.0,,,,,141.98008989996742,,,,,,,,,,,,,,,,,141.96571290004067,142.78008040005807,143.58064150006976,143.5651401999639,,,,,,,,,,,,,,,,143.56880989996716,143.58064150006976,143.58064150006976,144.03333830006886,b,1.0,0.4501730999909341,,144.0341397000011,144.046735299984,145.03125160001218,145.04731339996215,,,,,,,,,,,,,,,,,,,,sub-094,1,stroop_test,59.80832626471051,
,,,,,,,,,,,,,,,,,,,,,,,,,,,,,,,,,,,,,,,,,,,,,,,,,,,,,,,,,,,,,,,,,,,,,,,,,,,,,,,,,,,,,,,145.03143269999418,145.04731339996215,145.04731339996215,151.91514120006468,space,6.852159900008701,,,,,,,,,,,,,,sub-094,1,stroop_test,59.80832626471051,
,,,,0.0,0.0,0.0,,,,,,,,,,,,,gelb,blue,b,0.0,b,1.0,0.4738197000697255,,,,,,,,,,0.0,0.0,0.0,9.0,151.969702100032,,,,,,,,,,,,,,,,,151.96285889996216,153.1218992000213,153.92232789995614,153.90644339995924,,,,,,,,,,,,,,,,,,,,,,,,,,,,,,,,,,,153.91054359998088,153.92232789995614,153.92232789995614,154.40715600003023,b,1.0,0.4738197000697255,,,,,,sub-094,1,stroop_test,59.80832626471051,
,,,,1.0,1.0,0.0,,,,,,,,,,,,,rot,yellow,g,0.0,g,1.0,0.5856633000075817,,,,,,,,,,0.0,1.0,1.0,3.0,154.421718699974,,,,,,,,,,,,,,,,,154.40763120003976,154.77189740003087,155.571754100034,155.5562126999721,,,,,,,,,,,,,,,,,,,,,,,,,,,,,,,,,,,155.56067230005283,155.571754100034,155.571754100034,156.1737624000525,g,1.0,0.5856633000075817,,,,,,sub-094,1,stroop_test,59.80832626471051,
,,,,2.0,2.0,0.0,,,,,,,,,,,,,gelb,yellow,g,1.0,g,1.0,0.4819289000006392,,,,,,,,,,0.0,2.0,2.0,11.0,156.18832499999553,,,,,,,,,,,,,,,,,156.17422739998435,156.98873980005737,157.78870539995842,157.77303350006696,,,,,,,,,,,,,,,,,,,,,,,,,,,,,,,,,,,157.7769311000593,157.78870539995842,157.78870539995842,158.27420580002945,g,1.0,0.4819289000006392,,,,,,sub-094,1,stroop_test,59.80832626471051,
,,,,3.0,3.0,0.0,,,,,,,,,,,,,rot,red,r,1.0,r,1.0,0.5025679999962449,,,,,,,,,,0.0,3.0,3.0,0.0,158.2883103999775,,,,,,,,,,,,,,,,,158.2746794000268,158.38883630000055,159.1885842999909,159.17361219995655,,,,,,,,,,,,,,,,,,,,,,,,,,,,,,,,,,,159.17752719996497,159.1885842999909,159.1885842999909,159.70694930001628,r,1.0,0.5025679999962449,,,,,,sub-094,1,stroop_test,59.80832626471051,
,,,,4.0,4.0,0.0,,,,,,,,,,,,,blau,blue,b,1.0,b,1.0,0.4286970999091863,,,,,,,,,,0.0,4.0,4.0,5.0,159.72184650006238,,,,,,,,,,,,,,,,,159.7074203999946,160.07213970005978,160.8714970999863,160.85646390006875,,,,,,,,,,,,,,,,,,,,,,,,,,,,,,,,,,,160.86283180001192,160.8714970999863,160.8714970999863,161.30719419999514,b,1.0,0.4286970999091863,,,,,,sub-094,1,stroop_test,59.80832626471051,
,,,,5.0,5.0,0.0,,,,,,,,,,,,,blau,red,r,0.0,r,1.0,0.5161029999144375,,,,,,,,,,0.0,5.0,5.0,4.0,161.32156900002155,,,,,,,,,,,,,,,,,161.3077353000408,161.67168270004913,162.47194379998837,162.45606999995653,,,,,,,,,,,,,,,,,,,,,,,,,,,,,,,,,,,162.45668439997826,162.47194379998837,162.47194379998837,162.99073780002072,r,1.0,0.5161029999144375,,,,,,sub-094,1,stroop_test,59.80832626471051,
,,,,6.0,6.0,0.0,,,,,,,,,,,,,gelb,red,r,0.0,r,1.0,0.4834196000592783,,,,,,,,,,0.0,6.0,6.0,8.0,163.0048875999637,,,,,,,,,,,,,,,,,162.9912018000614,163.80528990004677,164.60538790002465,164.5899272999959,,,,,,,,,,,,,,,,,,,,,,,,,,,,,,,,,,,164.5939587999601,164.60538790002465,164.60538790002465,165.09135919995606,r,1.0,0.4834196000592783,,,,,,sub-094,1,stroop_test,59.80832626471051,
,,,,7.0,7.0,0.0,,,,,,,,,,,,,gelb,yellow,g,1.0,g,1.0,0.6301957999821752,,,,,,,,,,0.0,7.0,7.0,10.0,165.10504499997478,,,,,,,,,,,,,,,,,165.09182410000358,165.2051577999955,166.00534050003623,165.98985989997163,,,,,,,,,,,,,,,,,,,,,,,,,,,,,,,,,,,165.99056780000683,166.00534050003623,166.00534050003623,166.6406350999605,g,1.0,0.6301957999821752,,,,,,sub-094,1,stroop_test,59.80832626471051,
,,,,8.0,8.0,0.0,,,,,,,,,,,,,blau,yellow,g,0.0,g,1.0,0.3551285999128595,,,,,,,,,,0.0,8.0,8.0,7.0,166.65497959998902,,,,,,,,,,,,,,,,,166.64110430004075,167.45552429999225,168.2550848000683,168.23938250006177,,,,,,,,,,,,,,,,,,,,,,,,,,,,,,,,,,,168.24359920003917,168.2550848000683,168.2550848000683,168.62331120006274,g,1.0,0.3551285999128595,,,,,,sub-094,1,stroop_test,59.80832626471051,
,,,,9.0,9.0,0.0,,,,,,,,,,,,,rot,red,r,1.0,r,1.0,0.4205209000501781,,,,,,,,,,0.0,9.0,9.0,1.0,168.63861200003885,,,,,,,,,,,,,,,,,168.62379840004724,169.83888339996338,170.63839980005287,170.62297330005094,,,,,,,,,,,,,,,,,,,,,,,,,,,,,,,,,,,170.62697780004237,170.63839980005287,170.63839980005287,171.07355700002518,r,1.0,0.4205209000501781,,,,,,sub-094,1,stroop_test,59.80832626471051,
,,,,10.0,10.0,0.0,,,,,,,,,,,,,rot,blue,b,0.0,b,1.0,0.4348215999780223,,,,,,,,,,0.0,10.0,10.0,2.0,171.08829610003158,,,,,,,,,,,,,,,,,171.07402329996694,171.43842180003412,172.23847780004144,172.22321930003818,,,,,,,,,,,,,,,,,,,,,,,,,,,,,,,,,,,172.2238322000485,172.23847780004144,172.23847780004144,172.6898125000298,b,1.0,0.4348215999780223,,,,,,sub-094,1,stroop_test,59.80832626471051,
,,,,11.0,11.0,0.0,,,,,,,,,,,,,blau,blue,b,1.0,b,1.0,0.7281968999886885,,,,,,,,,,0.0,11.0,11.0,6.0,172.70519540004898,,,,,,,,,,,,,,,,,172.69032289995812,173.90492010000162,174.70568180002738,174.68955879996065,,,,,,,,,,,,,,,,,,,,,,,,,,,,,,,,,,,174.6931820999598,174.70568180002738,174.70568180002738,175.44099519995507,b,1.0,0.7281968999886885,,,,,,sub-094,1,stroop_test,59.80832626471051,
,,,,12.0,0.0,1.0,,,,,,,,,,,,,blau,red,r,0.0,r,1.0,0.3680266999872401,,,,,,,,,,1.0,0.0,12.0,4.0,175.4549109999789,,,,,,,,,,,,,,,,,175.44152079999913,176.65539319999516,177.45545650005806,177.43970039999112,,,,,,,,,,,,,,,,,,,,,,,,,,,,,,,,,,,177.44040520000271,177.45545650005806,177.45545650005806,177.84018519998062,r,1.0,0.3680266999872401,,,,,,sub-094,1,stroop_test,59.80832626471051,
,,,,13.0,1.0,1.0,,,,,,,,,,,,,blau,yellow,g,0.0,g,1.0,0.4135333999292925,,,,,,,,,,1.0,1.0,13.0,7.0,177.8548569000559,,,,,,,,,,,,,,,,,177.84064910002053,178.65530690003652,179.45594010001514,179.43952769995667,,,,,,,,,,,,,,,,,,,,,,,,,,,,,,,,,,,179.44029100006446,179.45594010001514,179.45594010001514,179.87371049996,g,1.0,0.4135333999292925,,,,,,sub-094,1,stroop_test,59.80832626471051,
,,,,14.0,2.0,1.0,,,,,,,,,,,,,gelb,yellow,g,1.0,g,1.0,0.4184550000354647,,,,,,,,,,1.0,2.0,14.0,11.0,179.88849399995524,,,,,,,,,,,,,,,,,179.87437480001245,180.2383512000088,181.0384281000588,181.0229219000321,,,,,,,,,,,,,,,,,,,,,,,,,,,,,,,,,,,181.0281917999964,181.0384281000588,181.0384281000588,181.47309260000475,g,1.0,0.4184550000354647,,,,,,sub-094,1,stroop_test,59.80832626471051,
,,,,15.0,3.0,1.0,,,,,,,,,,,,,blau,blue,b,1.0,b,1.0,0.4704519000370055,,,,,,,,,,1.0,3.0,15.0,6.0,181.4889259999618,,,,,,,,,,,,,,,,,181.4735900000669,181.83821860002357,182.6385256999638,182.62319199997,,,,,,,,,,,,,,,,,,,,,,,,,,,,,,,,,,,182.6271217999747,182.6385256999638,182.6385256999638,183.1239993000636,b,1.0,0.4704519000370055,,,,,,sub-094,1,stroop_test,59.80832626471051,
,,,,16.0,4.0,1.0,,,,,,,,,,,,,rot,blue,b,0.0,b,1.0,0.7487400999525562,,,,,,,,,,1.0,4.0,16.0,2.0,183.1391053000698,,,,,,,,,,,,,,,,,183.12451190000863,183.9389835000038,184.7383021999849,184.7225528999697,,,,,,,,,,,,,,,,,,,,,,,,,,,,,,,,,,,184.72742809995543,184.7383021999849,184.7383021999849,185.49052200000733,b,1.0,0.7487400999525562,,,,,,sub-094,1,stroop_test,59.80832626471051,
,,,,17.0,5.0,1.0,,,,,,,,,,,,,gelb,blue,b,0.0,b,1.0,0.3797306000487879,,,,,,,,,,1.0,5.0,17.0,9.0,185.50488100002983,,,,,,,,,,,,,,,,,185.49100839998573,185.8551804999588,186.655275200028,186.6393095999956,,,,,,,,,,,,,,,,,,,,,,,,,,,,,,,,,,,186.64364450005812,186.655275200028,186.655275200028,187.03991299995687,b,1.0,0.3797306000487879,,,,,,sub-094,1,stroop_test,59.80832626471051,
,,,,18.0,6.0,1.0,,,,,,,,,,,,,rot,yellow,g,0.0,g,1.0,0.4054298000410199,,,,,,,,,,1.0,6.0,18.0,3.0,187.05480709997937,,,,,,,,,,,,,,,,,187.04038130003028,188.255393999978,189.0555615000194,189.039560800069,,,,,,,,,,,,,,,,,,,,,,,,,,,,,,,,,,,189.04382989997976,189.0555615000194,189.0555615000194,189.4733872000361,g,1.0,0.4054298000410199,,,,,,sub-094,1,stroop_test,59.80832626471051,
,,,,19.0,7.0,1.0,,,,,,,,,,,,,gelb,yellow,g,1.0,g,1.0,0.4269582000561058,,,,,,,,,,1.0,7.0,19.0,10.0,189.4885863000527,,,,,,,,,,,,,,,,,189.4738551999908,189.83826690004207,190.6387904000003,190.6226024000207,,,,,,,,,,,,,,,,,,,,,,,,,,,,,,,,,,,190.62718109996055,190.6387904000003,190.6387904000003,191.07369290001225,g,1.0,0.4269582000561058,,,,,,sub-094,1,stroop_test,59.80832626471051,
,,,,20.0,8.0,1.0,,,,,,,,,,,,,rot,red,r,1.0,r,1.0,0.3951882999390363,,,,,,,,,,1.0,8.0,20.0,1.0,191.0883229000028,,,,,,,,,,,,,,,,,191.0741604999639,191.43839869997464,192.2383000999689,192.2231264000293,,,,,,,,,,,,,,,,,,,,,,,,,,,,,,,,,,,192.2270209999988,192.2383000999689,192.2383000999689,192.64004740002565,r,1.0,0.3951882999390363,,,,,,sub-094,1,stroop_test,59.80832626471051,
,,,,21.0,9.0,1.0,,,,,,,,,,,,,rot,red,r,1.0,r,1.0,0.3148324999492615,,,,,,,,,,1.0,9.0,21.0,0.0,192.6549564000452,,,,,,,,,,,,,,,,,192.6405162999872,193.0056041000644,193.8050701000029,193.7896463000216,,,,,,,,,,,,,,,,,,,,,,,,,,,,,,,,,,,193.79033730004448,193.8050701000029,193.8050701000029,194.1235367000336,r,1.0,0.3148324999492615,,,,,,sub-094,1,stroop_test,59.80832626471051,
,,,,22.0,10.0,1.0,,,,,,,,,,,,,gelb,red,r,0.0,r,1.0,0.4743982999352738,,,,,,,,,,1.0,10.0,22.0,8.0,194.1383068000432,,,,,,,,,,,,,,,,,194.12401619995944,194.4891024000244,195.28840079996732,195.27279149997048,,,,,,,,,,,,,,,,,,,,,,,,,,,,,,,,,,,195.27670100005344,195.28840079996732,195.28840079996732,195.7734150000615,r,1.0,0.4743982999352738,,,,,,sub-094,1,stroop_test,59.80832626471051,
,,,,23.0,11.0,1.0,,,,,,,,,,,,,blau,blue,b,1.0,b,1.0,0.4585765999509021,,,,,,,,,,1.0,11.0,23.0,5.0,195.78798040002584,,,,,,,,,,,,,,,,,195.7739008000353,196.58825609995984,197.388635899988,197.37289280002005,,,,,,,,,,,,,,,,,,,,,,,,,,,,,,,,,,,197.37658919999376,197.388635899988,197.388635899988,197.85651049995795,b,1.0,0.4585765999509021,,,,,,sub-094,1,stroop_test,59.80832626471051,
,,,,24.0,0.0,2.0,,,,,,,,,,,,,blau,blue,b,1.0,b,1.0,0.4442392999771982,,,,,,,,,,2.0,0.0,24.0,5.0,197.87141899997368,,,,,,,,,,,,,,,,,197.85698210005648,197.97177359997292,198.77161769999657,198.75636480003595,,,,,,,,,,,,,,,,,,,,,,,,,,,,,,,,,,,198.7571582000237,198.77161769999657,198.77161769999657,199.22358079999685,b,1.0,0.4442392999771982,,,,,,sub-094,1,stroop_test,59.80832626471051,
,,,,25.0,1.0,2.0,,,,,,,,,,,,,gelb,yellow,g,1.0,g,1.0,0.3992622999940067,,,,,,,,,,2.0,1.0,25.0,11.0,199.2382142000133,,,,,,,,,,,,,,,,,199.2240522999782,200.43855780002195,201.23832250002303,201.22266029997263,,,,,,,,,,,,,,,,,,,,,,,,,,,,,,,,,,,201.22651780000888,201.23832250002303,201.23832250002303,201.64052500005343,g,1.0,0.3992622999940067,,,,,,sub-094,1,stroop_test,59.80832626471051,
,,,,26.0,2.0,2.0,,,,,,,,,,,,,rot,blue,b,0.0,b,1.0,0.6022581000579521,,,,,,,,,,2.0,2.0,26.0,2.0,201.65496499999423,,,,,,,,,,,,,,,,,201.6409912999952,202.45529810001608,203.25546899996695,203.2395050000632,,,,,,,,,,,,,,,,,,,,,,,,,,,,,,,,,,,203.2440294000553,203.25546899996695,203.25546899996695,203.8733387000393,b,1.0,0.6022581000579521,,,,,,sub-094,1,stroop_test,59.80832626471051,
,,,,27.0,3.0,2.0,,,,,,,,,,,,,blau,blue,b,1.0,b,1.0,0.3484144000103697,,,,,,,,,,2.0,3.0,27.0,6.0,203.88797110004816,,,,,,,,,,,,,,,,,203.87387440004383,205.08803660003468,205.88855480006896,205.87323480006307,,,,,,,,,,,,,,,,,,,,,,,,,,,,,,,,,,,205.87699160003103,205.88855480006896,205.88855480006896,206.2404603000032,b,1.0,0.3484144000103697,,,,,,sub-094,1,stroop_test,59.80832626471051,
,,,,28.0,4.0,2.0,,,,,,,,,,,,,blau,yellow,g,0.0,g,1.0,0.5325062000192702,,,,,,,,,,2.0,4.0,28.0,7.0,206.25481169996783,,,,,,,,,,,,,,,,,206.24102700001092,206.35506920004264,207.1546957000392,207.14002349996008,,,,,,,,,,,,,,,,,,,,,,,,,,,,,,,,,,,207.1406576000154,207.1546957000392,207.1546957000392,207.69074059999548,g,1.0,0.5325062000192702,,,,,,sub-094,1,stroop_test,59.80832626471051,
,,,,29.0,5.0,2.0,,,,,,,,,,,,,gelb,blue,b,0.0,b,1.0,0.4493758999742567,,,,,,,,,,2.0,5.0,29.0,9.0,207.7050713000353,,,,,,,,,,,,,,,,,207.69121059996544,208.9050358000677,209.7051770000253,209.6896560000023,,,,,,,,,,,,,,,,,,,,,,,,,,,,,,,,,,,209.6934866000665,209.7051770000253,209.7051770000253,210.1573243000312,b,1.0,0.4493758999742567,,,,,,sub-094,1,stroop_test,59.80832626471051,
,,,,30.0,6.0,2.0,,,,,,,,,,,,,rot,red,r,1.0,r,1.0,0.4561566000338644,,,,,,,,,,2.0,6.0,30.0,1.0,210.1716174000176,,,,,,,,,,,,,,,,,210.15781020000577,211.3715036000358,212.17175690003205,212.15590260003228,,,,,,,,,,,,,,,,,,,,,,,,,,,,,,,,,,,212.1598298000172,212.17175690003205,212.17175690003205,212.64020230004095,r,1.0,0.4561566000338644,,,,,,sub-094,1,stroop_test,59.80832626471051,
,,,,31.0,7.0,2.0,,,,,,,,,,,,,gelb,red,r,0.0,r,1.0,0.3636525999754667,,,,,,,,,,2.0,7.0,31.0,8.0,212.65482329996303,,,,,,,,,,,,,,,,,212.64067430002612,213.4548698000144,214.25475990003903,214.23954470001627,,,,,,,,,,,,,,,,,,,,,,,,,,,,,,,,,,,214.24344350001772,214.25475990003903,214.25475990003903,214.62346979998983,r,1.0,0.3636525999754667,,,,,,sub-094,1,stroop_test,59.80832626471051,
,,,,32.0,8.0,2.0,,,,,,,,,,,,,blau,red,r,0.0,r,1.0,0.3284828000469133,,,,,,,,,,2.0,8.0,32.0,4.0,214.63822860002983,,,,,,,,,,,,,,,,,214.62402500002645,215.43827290006448,216.23815670004117,216.22284750000108,,,,,,,,,,,,,,,,,,,,,,,,,,,,,,,,,,,216.2271551999729,216.23815670004117,216.23815670004117,216.5731926000444,r,1.0,0.3284828000469133,,,,,,sub-094,1,stroop_test,59.80832626471051,
,,,,33.0,9.0,2.0,,,,,,,,,,,,,rot,red,r,1.0,r,1.0,0.4679753000382334,,,,,,,,,,2.0,9.0,33.0,0.0,216.588328700047,,,,,,,,,,,,,,,,,216.57366680004637,217.38831489998847,218.1882881000638,218.1728155000601,,,,,,,,,,,,,,,,,,,,,,,,,,,,,,,,,,,218.17678290000185,218.1882881000638,218.1882881000638,218.67299640004055,r,1.0,0.4679753000382334,,,,,,sub-094,1,stroop_test,59.80832626471051,
,,,,34.0,10.0,2.0,,,,,,,,,,,,,rot,yellow,g,0.0,g,1.0,0.4285416000057012,,,,,,,,,,2.0,10.0,34.0,3.0,218.6881911000237,,,,,,,,,,,,,,,,,218.6734575000592,219.8927810000023,220.7048710000236,220.6893473999808,,,,,,,,,,,,,,,,,,,,,,,,,,,,,,,,,,,220.6899875999661,220.7048710000236,220.7048710000236,221.14013569999952,g,1.0,0.4285416000057012,,,,,,sub-094,1,stroop_test,59.80832626471051,
,,,,35.0,11.0,2.0,,,,,,,,,,,,,gelb,yellow,g,1.0,g,1.0,0.3194142000284046,,,,,,,,,,2.0,11.0,35.0,10.0,221.1547780999681,,,,,,,,,,,,,,,,,221.14072010002565,221.9549803000409,222.75506860006132,222.73962320003196,,,,,,,,,,,,,,,,,,,,,,,,,,,,,,,,,,,222.7433399000438,222.75506860006132,222.75506860006132,223.0897765000118,g,1.0,0.3194142000284046,,,,,,sub-094,1,stroop_test,59.80832626471051,
,,,,36.0,0.0,3.0,,,,,,,,,,,,,blau,blue,b,1.0,b,1.0,0.36809440003708,,,,,,,,,,3.0,0.0,36.0,6.0,223.10469760000703,,,,,,,,,,,,,,,,,223.0902972000185,224.3051707999548,225.1051164000528,225.0892867000075,,,,,,,,,,,,,,,,,,,,,,,,,,,,,,,,,,,225.0929402000038,225.1051164000528,225.1051164000528,225.48980320000555,b,1.0,0.36809440003708,,,,,,sub-094,1,stroop_test,59.80832626471051,
,,,,37.0,1.0,3.0,,,,,,,,,,,,,blau,blue,b,1.0,b,1.0,0.2981511000543833,,,,,,,,,,3.0,1.0,37.0,5.0,225.50487289996815,,,,,,,,,,,,,,,,,225.49027139996176,225.60480109998025,226.40553860005457,226.38952239998616,,,,,,,,,,,,,,,,,,,,,,,,,,,,,,,,,,,226.3901649999898,226.40553860005457,226.40553860005457,226.70692150003745,b,1.0,0.2981511000543833,,,,,,sub-094,1,stroop_test,59.80832626471051,
,,,,38.0,2.0,3.0,,,,,,,,,,,,,blau,yellow,g,0.0,r,0.0,0.3053045000415295,,,,,,,,,,3.0,2.0,38.0,7.0,226.72196480003183,,,,,,,,,,,,,,,,,226.70739650004543,227.07140110002365,227.8716949999798,227.85609370004383,,,,,,,,,,,,,,,,,,,,,,,,,,,,,,,,,,,227.8568932999624,227.8716949999798,227.8716949999798,228.18970560003072,r,0.0,0.3053045000415295,,,,,,sub-094,1,stroop_test,59.80832626471051,
,,,,39.0,3.0,3.0,,,,,,,,,,,,,rot,red,r,1.0,r,1.0,0.2880135000450536,,,,,,,,,,3.0,3.0,39.0,0.0,228.20484380004928,,,,,,,,,,,,,,,,,228.19021909998264,228.3050535999937,229.1051782000577,229.08909340004905,,,,,,,,,,,,,,,,,,,,,,,,,,,,,,,,,,,229.09345859999303,229.1051782000577,229.1051782000577,229.4063144000247,r,1.0,0.2880135000450536,,,,,,sub-094,1,stroop_test,59.80832626471051,
,,,,40.0,4.0,3.0,,,,,,,,,,,,,gelb,yellow,g,1.0,g,1.0,0.3814720000373199,,,,,,,,,,3.0,4.0,40.0,10.0,229.4215097000124,,,,,,,,,,,,,,,,,229.40686019998972,229.7547747000353,230.55483280005865,230.5395864000311,,,,,,,,,,,,,,,,,,,,,,,,,,,,,,,,,,,230.54406900005412,230.55483280005865,230.55483280005865,230.94019380002285,g,1.0,0.3814720000373199,,,,,,sub-094,1,stroop_test,59.80832626471051,
,,,,41.0,5.0,3.0,,,,,,,,,,,,,gelb,yellow,g,1.0,g,1.0,0.343412599992007,,,,,,,,,,3.0,5.0,41.0,11.0,230.9546148000518,,,,,,,,,,,,,,,,,230.9406595999608,231.0547235000413,231.85494620003735,231.8394810999744,,,,,,,,,,,,,,,,,,,,,,,,,,,,,,,,,,,231.8400796999922,231.85494620003735,231.85494620003735,232.2067073000362,g,1.0,0.343412599992007,,,,,,sub-094,1,stroop_test,59.80832626471051,
,,,,42.0,6.0,3.0,,,,,,,,,,,,,rot,red,r,1.0,r,1.0,0.4145607000682503,,,,,,,,,,3.0,6.0,42.0,1.0,232.22130610002205,,,,,,,,,,,,,,,,,232.20718769996893,232.3217552000424,233.12158100004308,233.10552600002848,,,,,,,,,,,,,,,,,,,,,,,,,,,,,,,,,,,233.109900200041,233.12158100004308,233.12158100004308,233.54017689998727,r,1.0,0.4145607000682503,,,,,,sub-094,1,stroop_test,59.80832626471051,
,,,,43.0,7.0,3.0,,,,,,,,,,,,,rot,yellow,g,0.0,g,1.0,0.417762600001879,,,,,,,,,,3.0,7.0,43.0,3.0,233.554730999982,,,,,,,,,,,,,,,,,233.5407812000485,234.3547803000547,235.15473730000667,235.13920500001404,,,,,,,,,,,,,,,,,,,,,,,,,,,,,,,,,,,235.13988330005668,235.15473730000667,235.15473730000667,235.58946930000093,g,1.0,0.417762600001879,,,,,,sub-094,1,stroop_test,59.80832626471051,
,,,,44.0,8.0,3.0,,,,,,,,,,,,,gelb,red,r,0.0,r,1.0,0.3680224000709131,,,,,,,,,,3.0,8.0,44.0,8.0,235.604482499999,,,,,,,,,,,,,,,,,235.59001669997812,236.40478910005183,237.2049186000368,237.1893152999692,,,,,,,,,,,,,,,,,,,,,,,,,,,,,,,,,,,237.19362400006503,237.2049186000368,237.2049186000368,237.58995529997628,r,1.0,0.3680224000709131,,,,,,sub-094,1,stroop_test,59.80832626471051,
,,,,45.0,9.0,3.0,,,,,,,,,,,,,rot,blue,b,0.0,b,1.0,0.4576096000382676,,,,,,,,,,3.0,9.0,45.0,2.0,237.60458479996305,,,,,,,,,,,,,,,,,237.59045430005065,238.4051931999857,239.20446440007072,239.18935470003635,,,,,,,,,,,,,,,,,,,,,,,,,,,,,,,,,,,239.19341129995885,239.20446440007072,239.20446440007072,239.67348780005705,b,1.0,0.4576096000382676,,,,,,sub-094,1,stroop_test,59.80832626471051,
,,,,46.0,10.0,3.0,,,,,,,,,,,,,gelb,blue,b,0.0,b,1.0,0.47497049998492,,,,,,,,,,3.0,10.0,46.0,9.0,239.6879026000388,,,,,,,,,,,,,,,,,239.67395399999805,239.7879316000035,240.587901800056,240.5729082999751,,,,,,,,,,,,,,,,,,,,,,,,,,,,,,,,,,,240.57746870000847,240.587901800056,240.587901800056,241.0731713999994,b,1.0,0.47497049998492,,,,,,sub-094,1,stroop_test,59.80832626471051,
,,,,47.0,11.0,3.0,,,,,,,,,,,,,blau,red,r,0.0,r,1.0,0.3540002999361604,,,,,,,,,,3.0,11.0,47.0,4.0,241.08829310000877,,,,,,,,,,,,,,,,,241.07363320002327,241.88818320003335,242.6878089000238,242.67240879999008,,,,,,,,,,,,,,,,,,,,,,,,,,,,,,,,,,,242.67764760006685,242.6878089000238,242.6878089000238,243.0562391000567,r,1.0,0.3540002999361604,,,,,,sub-094,1,stroop_test,59.80832626471051,
,,,,48.0,0.0,4.0,,,,,,,,,,,,,gelb,yellow,g,1.0,g,1.0,0.3359651999780908,,,,,,,,,,4.0,0.0,48.0,10.0,243.0713702000212,,,,,,,,,,,,,,,,,243.05670590000227,243.8715121999849,244.6719697000226,244.6559689999558,,,,,,,,,,,,,,,,,,,,,,,,,,,,,,,,,,,244.6597039999906,244.6719697000226,244.6719697000226,245.0228156000376,g,1.0,0.3359651999780908,,,,,,sub-094,1,stroop_test,59.80832626471051,
,,,,49.0,1.0,4.0,,,,,,,,,,,,,blau,yellow,g,0.0,g,1.0,0.4925199999706819,,,,,,,,,,4.0,1.0,49.0,7.0,245.03800259996208,,,,,,,,,,,,,,,,,245.023304500035,245.3717108999845,246.1719671000028,246.155858800048,,,,,,,,,,,,,,,,,,,,,,,,,,,,,,,,,,,246.15969760005828,246.1719671000028,246.1719671000028,246.67298070003744,g,1.0,0.4925199999706819,,,,,,sub-094,1,stroop_test,59.80832626471051,
,,,,50.0,2.0,4.0,,,,,,,,,,,,,gelb,blue,b,0.0,b,1.0,0.474036099971272,,,,,,,,,,4.0,2.0,50.0,9.0,246.6879863999784,,,,,,,,,,,,,,,,,246.6735875000013,247.8882639000658,248.68795140006117,248.67261540004984,,,,,,,,,,,,,,,,,,,,,,,,,,,,,,,,,,,248.67634440003891,248.68795140006117,248.68795140006117,249.17293949995656,b,1.0,0.474036099971272,,,,,,sub-094,1,stroop_test,59.80832626471051,
,,,,51.0,3.0,4.0,,,,,,,,,,,,,gelb,red,r,0.0,r,1.0,0.6036669000750408,,,,,,,,,,4.0,3.0,51.0,8.0,249.1885474000592,,,,,,,,,,,,,,,,,249.17343680001795,249.98797500005455,250.7879347000271,250.77226410002916,,,,,,,,,,,,,,,,,,,,,,,,,,,,,,,,,,,250.77296940004453,250.7879347000271,250.7879347000271,251.40616919996685,r,1.0,0.6036669000750408,,,,,,sub-094,1,stroop_test,59.80832626471051,
,,,,52.0,4.0,4.0,,,,,,,,,,,,,rot,blue,b,0.0,b,1.0,0.443570000003092,,,,,,,,,,4.0,4.0,52.0,2.0,251.4218349000439,,,,,,,,,,,,,,,,,251.4066638000077,252.2048801999772,253.00449860002848,252.98894740000836,,,,,,,,,,,,,,,,,,,,,,,,,,,,,,,,,,,252.9928537000669,253.00449860002848,253.00449860002848,253.45653910003605,b,1.0,0.443570000003092,,,,,,sub-094,1,stroop_test,59.80832626471051,
,,,,53.0,5.0,4.0,,,,,,,,,,,,,blau,blue,b,1.0,b,1.0,0.4011679999530315,,,,,,,,,,4.0,5.0,53.0,6.0,253.47116059996188,,,,,,,,,,,,,,,,,253.4571494000265,254.27130450005643,255.07159030006733,255.0559674999677,,,,,,,,,,,,,,,,,,,,,,,,,,,,,,,,,,,255.06046549999155,255.07159030006733,255.07159030006733,255.4894961999962,b,1.0,0.4011679999530315,,,,,,sub-094,1,stroop_test,59.80832626471051,
,,,,54.0,6.0,4.0,,,,,,,,,,,,,blau,red,r,0.0,r,1.0,0.5356315999524668,,,,,,,,,,4.0,6.0,54.0,4.0,255.5045264000073,,,,,,,,,,,,,,,,,255.48996330006048,256.7056254000636,257.5216952000046,257.5054953000508,,,,,,,,,,,,,,,,,,,,,,,,,,,,,,,,,,,257.5062081000069,257.5216952000046,257.5216952000046,258.0736524000531,r,1.0,0.5356315999524668,,,,,,sub-094,1,stroop_test,59.80832626471051,
,,,,55.0,7.0,4.0,,,,,,,,,,,,,blau,blue,b,1.0,b,1.0,0.4191500000888482,,,,,,,,,,4.0,7.0,55.0,5.0,258.0881607000483,,,,,,,,,,,,,,,,,258.07427300000563,258.8886792999692,259.6881113999989,259.67266190005466,,,,,,,,,,,,,,,,,,,,,,,,,,,,,,,,,,,259.6736148999771,259.6881113999989,259.6881113999989,260.12349789997097,b,1.0,0.4191500000888482,,,,,,sub-094,1,stroop_test,59.80832626471051,
,,,,56.0,8.0,4.0,,,,,,,,,,,,,rot,yellow,g,0.0,g,1.0,0.6028482000110671,,,,,,,,,,4.0,8.0,56.0,3.0,260.1379355000099,,,,,,,,,,,,,,,,,260.1239644000307,260.93794930004515,261.7377505999757,261.72258780000266,,,,,,,,,,,,,,,,,,,,,,,,,,,,,,,,,,,261.7265725999605,261.7377505999757,261.7377505999757,262.35615040000994,g,1.0,0.6028482000110671,,,,,,sub-094,1,stroop_test,59.80832626471051,
,,,,57.0,9.0,4.0,,,,,,,,,,,,,gelb,yellow,g,1.0,g,1.0,0.3345649999100715,,,,,,,,,,4.0,9.0,57.0,11.0,262.37149719998706,,,,,,,,,,,,,,,,,262.35661090002395,262.7220553000225,263.5217948000645,263.5058368999744,,,,,,,,,,,,,,,,,,,,,,,,,,,,,,,,,,,263.5105912999716,263.5217948000645,263.5217948000645,263.872875800007,g,1.0,0.3345649999100715,,,,,,sub-094,1,stroop_test,59.80832626471051,
,,,,58.0,10.0,4.0,,,,,,,,,,,,,rot,red,r,1.0,r,1.0,0.4547152000013739,,,,,,,,,,4.0,10.0,58.0,1.0,263.8875344999833,,,,,,,,,,,,,,,,,263.87334559997544,264.2379668999929,265.0378242000006,265.02241249999497,,,,,,,,,,,,,,,,,,,,,,,,,,,,,,,,,,,265.02639769995585,265.0378242000006,265.0378242000006,265.5061241000658,r,1.0,0.4547152000013739,,,,,,sub-094,1,stroop_test,59.80832626471051,
,,,,59.0,11.0,4.0,,,,,,,,,,,,,rot,red,r,1.0,r,1.0,0.3171026000054553,,,,,,,,,,4.0,11.0,59.0,0.0,265.52146900002845,,,,,,,,,,,,,,,,,265.506583499955,266.3212665000465,267.1213481000159,267.1054703999544,,,,,,,,,,,,,,,,,,,,,,,,,,,,,,,,,,,267.10619510000106,267.1213481000159,267.1213481000159,267.440699000028,r,1.0,0.3171026000054553,,,,,,sub-094,1,stroop_test,59.80832626471051,
,,,,60.0,0.0,5.0,,,,,,,,,,,,,rot,red,r,1.0,r,1.0,0.366105500026606,,,,,,,,,,5.0,0.0,60.0,1.0,267.45432620006613,,,,,,,,,,,,,,,,,267.4411658999743,268.25512009998783,269.0549088000553,269.03940050001256,,,,,,,,,,,,,,,,,,,,,,,,,,,,,,,,,,,269.04001009999774,269.0549088000553,269.0549088000553,269.4235863999929,r,1.0,0.366105500026606,,,,,,sub-094,1,stroop_test,59.80832626471051,
,,,,61.0,1.0,5.0,,,,,,,,,,,,,gelb,blue,b,0.0,b,1.0,0.3891850999789312,,,,,,,,,,5.0,1.0,61.0,9.0,269.4377474000212,,,,,,,,,,,,,,,,,269.4240872999653,270.2380251999712,271.03787540004123,271.0221827999921,,,,,,,,,,,,,,,,,,,,,,,,,,,,,,,,,,,271.026586699998,271.03787540004123,271.03787540004123,271.4393711000448,b,1.0,0.3891850999789312,,,,,,sub-094,1,stroop_test,59.80832626471051,
,,,,62.0,2.0,5.0,,,,,,,,,,,,,rot,red,r,1.0,r,1.0,0.5428512000944465,,,,,,,,,,5.0,2.0,62.0,0.0,271.45434499997646,,,,,,,,,,,,,,,,,271.4398360999767,271.5551051000366,272.3546048999997,272.33875019999687,,,,,,,,,,,,,,,,,,,,,,,,,,,,,,,,,,,272.34271700005047,272.3546048999997,272.3546048999997,272.9068696000613,r,1.0,0.5428512000944465,,,,,,sub-094,1,stroop_test,59.80832626471051,
,,,,63.0,3.0,5.0,,,,,,,,,,,,,blau,yellow,g,0.0,g,1.0,0.479998099966906,,,,,,,,,,5.0,3.0,63.0,7.0,272.9211275000125,,,,,,,,,,,,,,,,,272.9076497000642,273.0220479000127,273.82092299999204,273.8057314000325,,,,,,,,,,,,,,,,,,,,,,,,,,,,,,,,,,,273.809515299974,273.82092299999204,273.82092299999204,274.30640170001425,g,1.0,0.479998099966906,,,,,,sub-094,1,stroop_test,59.80832626471051,
,,,,64.0,4.0,5.0,,,,,,,,,,,,,gelb,yellow,g,1.0,g,1.0,0.4398083999985829,,,,,,,,,,5.0,4.0,64.0,10.0,274.32097190001514,,,,,,,,,,,,,,,,,274.3068748000078,275.5215579000069,276.32141900004353,276.3054719000356,,,,,,,,,,,,,,,,,,,,,,,,,,,,,,,,,,,276.3095974000171,276.32141900004353,276.32141900004353,276.7730376999825,g,1.0,0.4398083999985829,,,,,,sub-094,1,stroop_test,59.80832626471051,
,,,,65.0,5.0,5.0,,,,,,,,,,,,,gelb,red,r,0.0,r,1.0,0.5042311999714002,,,,,,,,,,5.0,5.0,65.0,8.0,276.78790770005435,,,,,,,,,,,,,,,,,276.7735157000134,277.1380994999781,277.93810739996843,277.92218540003523,,,,,,,,,,,,,,,,,,,,,,,,,,,,,,,,,,,277.92282019997947,277.93810739996843,277.93810739996843,278.45619409997016,r,1.0,0.5042311999714002,,,,,,sub-094,1,stroop_test,59.80832626471051,
,,,,66.0,6.0,5.0,,,,,,,,,,,,,blau,red,r,0.0,r,1.0,0.4044979000464082,,,,,,,,,,5.0,6.0,66.0,4.0,278.47152550006285,,,,,,,,,,,,,,,,,278.4566557999933,278.82129400002304,279.621028100024,279.60569870006293,,,,,,,,,,,,,,,,,,,,,,,,,,,,,,,,,,,279.6094906000653,279.621028100024,279.621028100024,280.04032140003983,r,1.0,0.4044979000464082,,,,,,sub-094,1,stroop_test,59.80832626471051,
,,,,67.0,7.0,5.0,,,,,,,,,,,,,blau,blue,b,1.0,b,1.0,0.3666272999253124,,,,,,,,,,5.0,7.0,67.0,5.0,280.0548917000415,,,,,,,,,,,,,,,,,280.0407899999991,281.25503780005965,282.0545216000173,282.03902050002944,,,,,,,,,,,,,,,,,,,,,,,,,,,,,,,,,,,282.03970920003485,282.0545216000173,282.0545216000173,282.4234677000204,b,1.0,0.3666272999253124,,,,,,sub-094,1,stroop_test,59.80832626471051,
,,,,68.0,8.0,5.0,,,,,,,,,,,,,gelb,yellow,g,1.0,g,1.0,0.5179070000303909,,,,,,,,,,5.0,8.0,68.0,11.0,282.4375849000644,,,,,,,,,,,,,,,,,282.4239807999693,282.78798659995664,283.5880071000429,283.5726493999828,,,,,,,,,,,,,,,,,,,,,,,,,,,,,,,,,,,283.57826590002514,283.5880071000429,283.5880071000429,284.122825199971,g,1.0,0.5179070000303909,,,,,,sub-094,1,stroop_test,59.80832626471051,
,,,,69.0,9.0,5.0,,,,,,,,,,,,,rot,yellow,g,0.0,g,1.0,0.4450022000819444,,,,,,,,,,5.0,9.0,69.0,3.0,284.1376393999672,,,,,,,,,,,,,,,,,284.123287800001,284.2378189000301,285.0380691000028,285.0229163999902,,,,,,,,,,,,,,,,,,,,,,,,,,,,,,,,,,,285.0271135000512,285.0380691000028,285.0380691000028,285.48961230006535,g,1.0,0.4450022000819444,,,,,,sub-094,1,stroop_test,59.80832626471051,
,,,,70.0,10.0,5.0,,,,,,,,,,,,,rot,blue,b,0.0,b,1.0,0.4701878000050783,,,,,,,,,,5.0,10.0,70.0,2.0,285.50435679999646,,,,,,,,,,,,,,,,,285.4901685999939,285.6045441000024,286.4043732000282,286.38885310001206,,,,,,,,,,,,,,,,,,,,,,,,,,,,,,,,,,,286.38948700006586,286.4043732000282,286.4043732000282,286.8894607999828,b,1.0,0.4701878000050783,,,,,,sub-094,1,stroop_test,59.80832626471051,
,,,,71.0,11.0,5.0,,,,,,,,,,,,,blau,blue,b,1.0,b,1.0,0.4142662999220192,,,,,,,,,,5.0,11.0,71.0,6.0,286.904390300042,,,,,,,,,,,,,,,,,286.8899827999994,287.2544616999803,288.05483430007007,288.03911000001244,,,,,,,,,,,,,,,,,,,,,,,,,,,,,,,,,,,288.04284110001754,288.05483430007007,288.05483430007007,288.4730081000598,b,1.0,0.4142662999220192,,,,,,sub-094,1,stroop_test,59.80832626471051,
,,,,72.0,0.0,6.0,,,,,,,,,,,,,rot,blue,b,0.0,b,1.0,0.4302283000433817,,,,,,,,,,6.0,0.0,72.0,2.0,288.4874592999695,,,,,,,,,,,,,,,,,288.47347159998026,289.68872310000006,290.4877592000412,290.47213200002443,,,,,,,,,,,,,,,,,,,,,,,,,,,,,,,,,,,290.47613049997017,290.4877592000412,290.4877592000412,290.92309349996503,b,1.0,0.4302283000433817,,,,,,sub-094,1,stroop_test,59.80832626471051,
,,,,73.0,1.0,6.0,,,,,,,,,,,,,gelb,yellow,g,1.0,g,1.0,0.3152322999667376,,,,,,,,,,6.0,1.0,73.0,10.0,290.9377323000226,,,,,,,,,,,,,,,,,290.9235524999676,292.1383417999605,292.937673300039,292.9221611999674,,,,,,,,,,,,,,,,,,,,,,,,,,,,,,,,,,,292.9265562000219,292.937673300039,292.937673300039,293.2563438999932,g,1.0,0.3152322999667376,,,,,,sub-094,1,stroop_test,59.80832626471051,
,,,,74.0,2.0,6.0,,,,,,,,,,,,,blau,red,r,0.0,r,1.0,0.3612871000077575,,,,,,,,,,6.0,2.0,74.0,4.0,293.27127340005245,,,,,,,,,,,,,,,,,293.2568071000278,294.47161010000855,295.2716802000068,295.2554610000225,,,,,,,,,,,,,,,,,,,,,,,,,,,,,,,,,,,295.2600408999715,295.2716802000068,295.2716802000068,295.6396240000613,r,1.0,0.3612871000077575,,,,,,sub-094,1,stroop_test,59.80832626471051,
,,,,75.0,3.0,6.0,,,,,,,,,,,,,gelb,yellow,g,1.0,b,0.0,0.3976865999866277,,,,,,,,,,6.0,3.0,75.0,11.0,295.65412259998266,,,,,,,,,,,,,,,,,295.6400933000259,296.8544622999616,297.6543180999579,297.63952109997626,,,,,,,,,,,,,,,,,,,,,,,,,,,,,,,,,,,297.64370110002346,297.6543180999579,297.6543180999579,298.0561120000202,b,0.0,0.3976865999866277,,,,,,sub-094,1,stroop_test,59.80832626471051,
,,,,76.0,4.0,6.0,,,,,,,,,,,,,gelb,red,r,0.0,r,1.0,0.5287441000109538,,,,,,,,,,6.0,4.0,76.0,8.0,298.0713872000342,,,,,,,,,,,,,,,,,298.0565847000107,299.2713409999851,300.07100520003587,300.0557449000189,,,,,,,,,,,,,,,,,,,,,,,,,,,,,,,,,,,300.0563325000694,300.07100520003587,300.07100520003587,300.6061747999629,r,1.0,0.5287441000109538,,,,,,sub-094,1,stroop_test,59.80832626471051,
,,,,77.0,5.0,6.0,,,,,,,,,,,,,blau,blue,b,1.0,b,1.0,0.4671847000718117,,,,,,,,,,6.0,5.0,77.0,6.0,300.62097479996737,,,,,,,,,,,,,,,,,300.60663439997006,301.82106790004764,302.62156550004147,302.60566160001326,,,,,,,,,,,,,,,,,,,,,,,,,,,,,,,,,,,302.60934409999754,302.62156550004147,302.62156550004147,303.1063512000256,b,1.0,0.4671847000718117,,,,,,sub-094,1,stroop_test,59.80832626471051,
,,,,78.0,6.0,6.0,,,,,,,,,,,,,blau,yellow,g,0.0,g,1.0,0.375460600014776,,,,,,,,,,6.0,6.0,78.0,7.0,303.1208444000222,,,,,,,,,,,,,,,,,303.1069247999694,303.9216791000217,304.7210017000325,304.70555980002973,,,,,,,,,,,,,,,,,,,,,,,,,,,,,,,,,,,304.7062603000086,304.7210017000325,304.7210017000325,305.10611469997093,g,1.0,0.375460600014776,,,,,,sub-094,1,stroop_test,59.80832626471051,
,,,,79.0,7.0,6.0,,,,,,,,,,,,,rot,red,r,1.0,r,1.0,0.3650137000950053,,,,,,,,,,6.0,7.0,79.0,0.0,305.12137119995896,,,,,,,,,,,,,,,,,305.1065742999781,306.3211802999722,307.1214233000064,307.1055228000041,,,,,,,,,,,,,,,,,,,,,,,,,,,,,,,,,,,307.10964809998404,307.1214233000064,307.1214233000064,307.48999260005075,r,1.0,0.3650137000950053,,,,,,sub-094,1,stroop_test,59.80832626471051,
,,,,80.0,8.0,6.0,,,,,,,,,,,,,blau,blue,b,1.0,b,1.0,0.4830552999628708,,,,,,,,,,6.0,8.0,80.0,5.0,307.5041798000457,,,,,,,,,,,,,,,,,307.4904528000625,307.8544650999829,308.65460590005387,308.6387954000384,,,,,,,,,,,,,,,,,,,,,,,,,,,,,,,,,,,308.6424542999593,308.65460590005387,308.65460590005387,309.14064969995525,b,1.0,0.4830552999628708,,,,,,sub-094,1,stroop_test,59.80832626471051,
,,,,81.0,9.0,6.0,,,,,,,,,,,,,rot,red,r,1.0,r,1.0,0.4166066000470891,,,,,,,,,,6.0,9.0,81.0,1.0,309.1545627999585,,,,,,,,,,,,,,,,,309.14113120001275,310.35425079998095,311.15453349996824,311.1391356000677,,,,,,,,,,,,,,,,,,,,,,,,,,,,,,,,,,,311.1438307999633,311.15453349996824,311.15453349996824,311.5740667000646,r,1.0,0.4166066000470891,,,,,,sub-094,1,stroop_test,59.80832626471051,
,,,,82.0,10.0,6.0,,,,,,,,,,,,,rot,yellow,g,0.0,g,1.0,0.3858455000445246,,,,,,,,,,6.0,10.0,82.0,3.0,311.58744320005644,,,,,,,,,,,,,,,,,311.57461110001896,312.7876815999625,313.58798930002376,313.57203679997474,,,,,,,,,,,,,,,,,,,,,,,,,,,,,,,,,,,313.5729234999744,313.58798930002376,313.58798930002376,313.98919860005844,g,1.0,0.3858455000445246,,,,,,sub-094,1,stroop_test,59.80832626471051,
,,,,83.0,11.0,6.0,,,,,,,,,,,,,gelb,blue,b,0.0,b,1.0,0.3598321999888867,,,,,,,,,,6.0,11.0,83.0,9.0,314.0041561999824,,,,,,,,,,,,,,,,,313.9896602999652,314.80453449999914,315.6044990000082,315.5885884000454,,,,,,,,,,,,,,,,,,,,,,,,,,,,,,,,,,,315.5922732000472,315.6044990000082,315.6044990000082,315.9728558000643,b,1.0,0.3598321999888867,,,,,,sub-094,1,stroop_test,59.80832626471051,
,,,,84.0,0.0,7.0,,,,,,,,,,,,,rot,yellow,g,0.0,g,1.0,0.4727491999510675,,,,,,,,,,7.0,0.0,84.0,3.0,315.987392900046,,,,,,,,,,,,,,,,,315.9734724999871,316.3376221000217,317.13758219999727,317.1223460000474,,,,,,,,,,,,,,,,,,,,,,,,,,,,,,,,,,,317.12736799998675,317.13758219999727,317.13758219999727,317.6226558999624,g,1.0,0.4727491999510675,,,,,,sub-094,1,stroop_test,59.80832626471051,
,,,,85.0,1.0,7.0,,,,,,,,,,,,,rot,red,r,1.0,r,1.0,0.4210175999905914,,,,,,,,,,7.0,1.0,85.0,1.0,317.637543000048,,,,,,,,,,,,,,,,,317.6232357000699,317.737442899961,318.53766500006896,318.5221583000384,,,,,,,,,,,,,,,,,,,,,,,,,,,,,,,,,,,318.5227906999644,318.53766500006896,318.53766500006896,318.9728408000665,r,1.0,0.4210175999905914,,,,,,sub-094,1,stroop_test,59.80832626471051,
,,,,86.0,2.0,7.0,,,,,,,,,,,,,blau,yellow,g,0.0,g,1.0,0.4018811000278219,,,,,,,,,,7.0,2.0,86.0,7.0,318.9875009000534,,,,,,,,,,,,,,,,,318.9733285000548,319.0879087999929,319.8884876000229,319.8718892000616,,,,,,,,,,,,,,,,,,,,,,,,,,,,,,,,,,,319.87623890000395,319.8884876000229,319.8884876000229,320.30620380002074,g,1.0,0.4018811000278219,,,,,,sub-094,1,stroop_test,59.80832626471051,
,,,,87.0,3.0,7.0,,,,,,,,,,,,,gelb,yellow,g,1.0,g,1.0,0.348909700056538,,,,,,,,,,7.0,3.0,87.0,11.0,320.32099260005634,,,,,,,,,,,,,,,,,320.3066711999709,321.1213308000006,321.92111160000786,321.90530920005403,,,,,,,,,,,,,,,,,,,,,,,,,,,,,,,,,,,321.9094855999574,321.92111160000786,321.92111160000786,322.2731845000526,g,1.0,0.348909700056538,,,,,,sub-094,1,stroop_test,59.80832626471051,
,,,,88.0,4.0,7.0,,,,,,,,,,,,,rot,red,r,1.0,r,1.0,0.3304260000586509,,,,,,,,,,7.0,4.0,88.0,0.0,322.2874031000538,,,,,,,,,,,,,,,,,322.27366379997693,322.3875954999821,323.18790400004946,323.17294159997255,,,,,,,,,,,,,,,,,,,,,,,,,,,,,,,,,,,323.1783234999748,323.18790400004946,323.18790400004946,323.522545899963,r,1.0,0.3304260000586509,,,,,,sub-094,1,stroop_test,59.80832626471051,
,,,,89.0,5.0,7.0,,,,,,,,,,,,,blau,blue,b,1.0,b,1.0,0.4022082999581471,,,,,,,,,,7.0,5.0,89.0,5.0,323.53748699999414,,,,,,,,,,,,,,,,,323.52308830001857,324.3379980999744,325.1374522000551,325.12259399995673,,,,,,,,,,,,,,,,,,,,,,,,,,,,,,,,,,,325.12671340000816,325.1374522000551,325.1374522000551,325.5562649000203,b,1.0,0.4022082999581471,,,,,,sub-094,1,stroop_test,59.80832626471051,
,,,,90.0,6.0,7.0,,,,,,,,,,,,,blau,blue,b,1.0,b,1.0,0.4300527999876067,,,,,,,,,,7.0,6.0,90.0,6.0,325.570678899996,,,,,,,,,,,,,,,,,325.55673439998645,326.3708135000197,327.1708925999701,327.1554196999641,,,,,,,,,,,,,,,,,,,,,,,,,,,,,,,,,,,327.1562550000381,327.1708925999701,327.1708925999701,327.6060231999727,b,1.0,0.4300527999876067,,,,,,sub-094,1,stroop_test,59.80832626471051,
,,,,91.0,7.0,7.0,,,,,,,,,,,,,gelb,red,r,0.0,r,1.0,0.6751551000634208,,,,,,,,,,7.0,7.0,91.0,8.0,327.62083000002895,,,,,,,,,,,,,,,,,327.60648590000346,327.72102459997404,328.52093500003684,328.5052151000127,,,,,,,,,,,,,,,,,,,,,,,,,,,,,,,,,,,328.5090665000025,328.52093500003684,328.52093500003684,329.20639519998804,r,1.0,0.6751551000634208,,,,,,sub-094,1,stroop_test,59.80832626471051,
,,,,92.0,8.0,7.0,,,,,,,,,,,,,gelb,blue,b,0.0,b,1.0,0.4062118999427184,,,,,,,,,,7.0,8.0,92.0,9.0,329.22079279995523,,,,,,,,,,,,,,,,,329.20685359998606,330.0219790999545,330.82107790000737,330.8054933999665,,,,,,,,,,,,,,,,,,,,,,,,,,,,,,,,,,,330.80619060003664,330.82107790000737,330.82107790000737,331.2390769000631,b,1.0,0.4062118999427184,,,,,,sub-094,1,stroop_test,59.80832626471051,
,,,,93.0,9.0,7.0,,,,,,,,,,,,,rot,blue,b,0.0,b,1.0,0.676079299999401,,,,,,,,,,7.0,9.0,93.0,2.0,331.2543312000344,,,,,,,,,,,,,,,,,331.2395451000193,332.0540022000205,332.8541434999788,332.83882679999806,,,,,,,,,,,,,,,,,,,,,,,,,,,,,,,,,,,332.84281790000387,332.8541434999788,332.8541434999788,333.5395964999916,b,1.0,0.676079299999401,,,,,,sub-094,1,stroop_test,59.80832626471051,
,,,,94.0,10.0,7.0,,,,,,,,,,,,,blau,red,r,0.0,r,1.0,0.5206254000077024,,,,,,,,,,7.0,10.0,94.0,4.0,333.5543042999925,,,,,,,,,,,,,,,,,333.54013950005174,334.7542422000552,335.5547725000652,335.5386906999629,,,,,,,,,,,,,,,,,,,,,,,,,,,,,,,,,,,335.54240819998085,335.5547725000652,335.5547725000652,336.0897837000666,r,1.0,0.5206254000077024,,,,,,sub-094,1,stroop_test,59.80832626471051,
,,,,95.0,11.0,7.0,,,,,,,,,,,,,gelb,yellow,g,1.0,g,1.0,0.4127957000164315,,,,,,,,,,7.0,11.0,95.0,10.0,336.10484280006494,,,,,,,,,,,,,,,,,336.09024260006845,336.90434800006915,337.7045268999645,337.68911230005324,,,,,,,,,,,,,,,,,,,,,,,,,,,,,,,,,,,337.6939258000348,337.7045268999645,337.7045268999645,338.1224978000391,g,1.0,0.4127957000164315,,,,,,sub-094,1,stroop_test,59.80832626471051,
,,,,96.0,0.0,8.0,,,,,,,,,,,,,blau,blue,b,1.0,b,1.0,0.4344573999987915,,,,,,,,,,8.0,0.0,96.0,6.0,338.1372359000379,,,,,,,,,,,,,,,,,338.1229624999687,338.48733939998783,339.2880008000648,339.27173599996604,,,,,,,,,,,,,,,,,,,,,,,,,,,,,,,,,,,339.27567040000577,339.2880008000648,339.2880008000648,339.7395317000337,b,1.0,0.4344573999987915,,,,,,sub-094,1,stroop_test,59.80832626471051,
,,,,97.0,1.0,8.0,,,,,,,,,,,,,rot,red,r,1.0,r,1.0,0.4039776000427082,,,,,,,,,,8.0,1.0,97.0,0.0,339.754852800048,,,,,,,,,,,,,,,,,339.7399970999686,340.104078900069,340.9044206000399,340.88853130000643,,,,,,,,,,,,,,,,,,,,,,,,,,,,,,,,,,,340.8932426000247,340.9044206000399,340.9044206000399,341.3230769999791,r,1.0,0.4039776000427082,,,,,,sub-094,1,stroop_test,59.80832626471051,
,,,,98.0,2.0,8.0,,,,,,,,,,,,,rot,blue,b,0.0,b,1.0,0.620529199950397,,,,,,,,,,8.0,2.0,98.0,2.0,341.3374114000472,,,,,,,,,,,,,,,,,341.3236232000636,342.5383537999587,343.35410100000445,343.33896369999275,,,,,,,,,,,,,,,,,,,,,,,,,,,,,,,,,,,343.3395407999633,343.35410100000445,343.35410100000445,343.9896512000123,b,1.0,0.620529199950397,,,,,,sub-094,1,stroop_test,59.80832626471051,
,,,,99.0,3.0,8.0,,,,,,,,,,,,,blau,red,r,0.0,r,1.0,0.4053742000833154,,,,,,,,,,8.0,3.0,99.0,4.0,344.00447020004503,,,,,,,,,,,,,,,,,343.99010880000424,344.35457970004063,345.1545085000107,345.1381661000196,,,,,,,,,,,,,,,,,,,,,,,,,,,,,,,,,,,345.1419059999753,345.1545085000107,345.1545085000107,345.5725790000288,r,1.0,0.4053742000833154,,,,,,sub-094,1,stroop_test,59.80832626471051,
,,,,100.0,4.0,8.0,,,,,,,,,,,,,gelb,blue,b,0.0,b,1.0,0.5611913000466302,,,,,,,,,,8.0,4.0,100.0,9.0,345.5882195000304,,,,,,,,,,,,,,,,,345.5732587999664,345.6873467999976,346.48740970005747,346.4717939000111,,,,,,,,,,,,,,,,,,,,,,,,,,,,,,,,,,,346.47556090005673,346.48740970005747,346.48740970005747,347.0556725000497,b,1.0,0.5611913000466302,,,,,,sub-094,1,stroop_test,59.80832626471051,
,,,,101.0,5.0,8.0,,,,,,,,,,,,,rot,yellow,g,0.0,g,1.0,0.4485946000786498,,,,,,,,,,8.0,5.0,101.0,3.0,347.07103320001625,,,,,,,,,,,,,,,,,347.05613390007056,347.1707580999937,347.97075079998467,347.9560410999693,,,,,,,,,,,,,,,,,,,,,,,,,,,,,,,,,,,347.96124550001696,347.97075079998467,347.97075079998467,348.4229358000448,g,1.0,0.4485946000786498,,,,,,sub-094,1,stroop_test,59.80832626471051,
,,,,102.0,6.0,8.0,,,,,,,,,,,,,blau,yellow,g,0.0,g,1.0,0.4190429999725893,,,,,,,,,,8.0,6.0,102.0,7.0,348.4371852000477,,,,,,,,,,,,,,,,,348.4233974000672,348.78750360000413,349.58777380001266,349.5720475000562,,,,,,,,,,,,,,,,,,,,,,,,,,,,,,,,,,,349.5757653999608,349.58777380001266,349.58777380001266,350.0228028000565,g,1.0,0.4190429999725893,,,,,,sub-094,1,stroop_test,59.80832626471051,
,,,,103.0,7.0,8.0,,,,,,,,,,,,,rot,red,r,1.0,r,1.0,0.3023192000109702,,,,,,,,,,8.0,7.0,103.0,1.0,350.0371989000123,,,,,,,,,,,,,,,,,350.02328710001893,350.3874761000043,351.187545599998,351.17179930000566,,,,,,,,,,,,,,,,,,,,,,,,,,,,,,,,,,,351.1757982999552,351.187545599998,351.187545599998,351.5057884999551,r,1.0,0.3023192000109702,,,,,,sub-094,1,stroop_test,59.80832626471051,
,,,,104.0,8.0,8.0,,,,,,,,,,,,,gelb,yellow,g,1.0,g,1.0,0.488429700024426,,,,,,,,,,8.0,8.0,104.0,11.0,351.5207381000509,,,,,,,,,,,,,,,,,351.50629960000515,351.8710855999961,352.6706427000463,352.6559051000513,,,,,,,,,,,,,,,,,,,,,,,,,,,,,,,,,,,352.6596692999592,352.6706427000463,352.6706427000463,353.17296540003736,g,1.0,0.488429700024426,,,,,,sub-094,1,stroop_test,59.80832626471051,
,,,,105.0,9.0,8.0,,,,,,,,,,,,,blau,blue,b,1.0,b,1.0,0.365661000018008,,,,,,,,,,8.0,9.0,105.0,5.0,353.18826149997767,,,,,,,,,,,,,,,,,353.1734258000506,354.3875731000444,355.1873891999712,355.172077300027,,,,,,,,,,,,,,,,,,,,,,,,,,,,,,,,,,,355.1762987000402,355.1873891999712,355.1873891999712,355.55643820005935,b,1.0,0.365661000018008,,,,,,sub-094,1,stroop_test,59.80832626471051,
,,,,106.0,10.0,8.0,,,,,,,,,,,,,gelb,yellow,g,1.0,r,0.0,0.3772694999352097,,,,,,,,,,8.0,10.0,106.0,10.0,355.57201740005985,,,,,,,,,,,,,,,,,355.55691649997607,355.67073969997,356.4709741000552,356.4552002999699,,,,,,,,,,,,,,,,,,,,,,,,,,,,,,,,,,,356.46042460005265,356.4709741000552,356.4709741000552,356.8567518000491,r,0.0,0.3772694999352097,,,,,,sub-094,1,stroop_test,59.80832626471051,
,,,,107.0,11.0,8.0,,,,,,,,,,,,,gelb,red,r,0.0,r,1.0,0.3513211000245064,,,,,,,,,,8.0,11.0,107.0,8.0,356.872556700022,,,,,,,,,,,,,,,,,356.8574077000376,357.6710765999742,358.471245200024,358.4554527000291,,,,,,,,,,,,,,,,,,,,,,,,,,,,,,,,,,,358.456155300024,358.471245200024,358.471245200024,358.8396480999654,r,1.0,0.3513211000245064,,,,,,sub-094,1,stroop_test,59.80832626471051,
,,,,108.0,0.0,9.0,,,,,,,,,,,,,rot,red,r,1.0,r,1.0,0.3469362000469118,,,,,,,,,,9.0,0.0,108.0,0.0,358.8598578000674,,,,,,,,,,,,,,,,,358.8401341000572,359.2047993000597,360.0051943999715,359.9892522000009,,,,,,,,,,,,,,,,,,,,,,,,,,,,,,,,,,,359.9973818999715,360.0051943999715,360.0051943999715,360.3562856999925,r,1.0,0.3469362000469118,,,,,,sub-094,1,stroop_test,59.80832626471051,
,,,,109.0,1.0,9.0,,,,,,,,,,,,,gelb,red,r,0.0,r,1.0,0.3860210999846458,,,,,,,,,,9.0,1.0,109.0,8.0,360.3708523999667,,,,,,,,,,,,,,,,,360.356792400009,361.5710166000063,362.37122970004566,362.3554876999697,,,,,,,,,,,,,,,,,,,,,,,,,,,,,,,,,,,362.3594515000004,362.37122970004566,362.37122970004566,362.7731920999941,r,1.0,0.3860210999846458,,,,,,sub-094,1,stroop_test,59.80832626471051,
,,,,110.0,2.0,9.0,,,,,,,,,,,,,rot,red,r,1.0,r,1.0,0.3517334000207484,,,,,,,,,,9.0,2.0,110.0,1.0,362.7875228000339,,,,,,,,,,,,,,,,,362.77367570006754,363.5877052999567,364.3877506999997,364.37208530004136,,,,,,,,,,,,,,,,,,,,,,,,,,,,,,,,,,,364.37733409996144,364.3877506999997,364.3877506999997,364.7565322000301,r,1.0,0.3517334000207484,,,,,,sub-094,1,stroop_test,59.80832626471051,
,,,,111.0,3.0,9.0,,,,,,,,,,,,,blau,red,r,0.0,r,1.0,0.5040897999424487,,,,,,,,,,9.0,3.0,111.0,4.0,364.7710451000603,,,,,,,,,,,,,,,,,364.7570173999993,365.1214046999812,365.9210542000365,365.905895599979,,,,,,,,,,,,,,,,,,,,,,,,,,,,,,,,,,,365.9101272000698,365.9210542000365,365.9210542000365,366.4398036999628,r,1.0,0.5040897999424487,,,,,,sub-094,1,stroop_test,59.80832626471051,
,,,,112.0,4.0,9.0,,,,,,,,,,,,,blau,blue,b,1.0,b,1.0,0.4709543000208214,,,,,,,,,,9.0,4.0,112.0,5.0,366.4542957000667,,,,,,,,,,,,,,,,,366.4402908000629,367.2543363999576,368.0545448999619,368.03927920002025,,,,,,,,,,,,,,,,,,,,,,,,,,,,,,,,,,,368.0399823000189,368.0545448999619,368.0545448999619,368.5396286000032,b,1.0,0.4709543000208214,,,,,,sub-094,1,stroop_test,59.80832626471051,
,,,,113.0,5.0,9.0,,,,,,,,,,,,,blau,yellow,g,0.0,g,1.0,0.5111716000828892,,,,,,,,,,9.0,5.0,113.0,7.0,368.5545700000366,,,,,,,,,,,,,,,,,368.54011770000216,369.35423669999,370.1543272000272,370.1387969000498,,,,,,,,,,,,,,,,,,,,,,,,,,,,,,,,,,,370.13956609996967,370.1543272000272,370.1543272000272,370.6733486000449,g,1.0,0.5111716000828892,,,,,,sub-094,1,stroop_test,59.80832626471051,
,,,,114.0,6.0,9.0,,,,,,,,,,,,,gelb,yellow,g,1.0,g,1.0,0.3586116000078618,,,,,,,,,,9.0,6.0,114.0,11.0,370.687562200008,,,,,,,,,,,,,,,,,370.6738557000645,371.88748210005,372.6874622000614,372.6721355000045,,,,,,,,,,,,,,,,,,,,,,,,,,,,,,,,,,,372.67585230001714,372.6874622000614,372.6874622000614,373.0614346000366,g,1.0,0.3586116000078618,,,,,,sub-094,1,stroop_test,59.80832626471051,
,,,,115.0,7.0,9.0,,,,,,,,,,,,,rot,blue,b,0.0,b,1.0,0.526148600038141,,,,,,,,,,9.0,7.0,115.0,2.0,373.07040339999367,,,,,,,,,,,,,,,,,373.0619761999697,373.8706951000495,374.671117400052,374.654726000037,,,,,,,,,,,,,,,,,,,,,,,,,,,,,,,,,,,374.6592772000004,374.671117400052,374.671117400052,375.2056993000442,b,1.0,0.526148600038141,,,,,,sub-094,1,stroop_test,59.80832626471051,
,,,,116.0,8.0,9.0,,,,,,,,,,,,,blau,blue,b,1.0,b,1.0,0.2814799000043422,,,,,,,,,,9.0,8.0,116.0,6.0,375.2203225999838,,,,,,,,,,,,,,,,,375.206343100057,376.0207703000633,376.82080530002713,376.8049845000496,,,,,,,,,,,,,,,,,,,,,,,,,,,,,,,,,,,376.80863169999793,376.82080530002713,376.82080530002713,377.1057247000281,b,1.0,0.2814799000043422,,,,,,sub-094,1,stroop_test,59.80832626471051,
,,,,117.0,9.0,9.0,,,,,,,,,,,,,gelb,yellow,g,1.0,g,1.0,0.5490355000365525,,,,,,,,,,9.0,9.0,117.0,10.0,377.12099630001467,,,,,,,,,,,,,,,,,377.1061913999729,377.92070080002304,378.72082130005583,378.70505990006495,,,,,,,,,,,,,,,,,,,,,,,,,,,,,,,,,,,378.7089104000479,378.72082130005583,378.72082130005583,379.2728314000415,g,1.0,0.5490355000365525,,,,,,sub-094,1,stroop_test,59.80832626471051,
,,,,118.0,10.0,9.0,,,,,,,,,,,,,rot,yellow,g,0.0,g,1.0,0.3151995000662282,,,,,,,,,,9.0,10.0,118.0,3.0,379.2870912000071,,,,,,,,,,,,,,,,,379.2733082000632,380.4873109000037,381.2872946000425,381.2718300999841,,,,,,,,,,,,,,,,,,,,,,,,,,,,,,,,,,,381.27578629995696,381.2872946000425,381.2872946000425,381.6057556000305,g,1.0,0.3151995000662282,,,,,,sub-094,1,stroop_test,59.80832626471051,
,,,,119.0,11.0,9.0,,,,,,,,,,,,,gelb,blue,b,0.0,b,1.0,0.4088663998991251,,,,,,,,,,9.0,11.0,119.0,9.0,381.62037949997466,,,,,,,,,,,,,,,,,381.6063699000515,381.9710971000604,382.7706977999769,382.755673800013,,,,,,,,,,,,,,,,,,,,,,,,,,,,,,,,,,,382.7597460000543,382.7706977999769,382.7706977999769,383.1887743000407,b,1.0,0.4088663998991251,,,,,,sub-094,1,stroop_test,59.80832626471051,
,,,,,,,,,,,,,,,,,,,,,,,,,,,,,,,,,,,,,,,,,,,,,,,,,,,,,,,,,,,,,,,,,,,,,,,,,,,,,,,,,,,,,,,,,,,,,,,,,,,,,,383.18900150002446,383.2041181999957,388.2044858000008,388.1892964000581,sub-094,1,stroop_test,59.80832626471051,
