wordCTK,colorCTK,corrAnsCTK,congruentCTK,thisN,thisTrialN,thisRepN,keyResp_CTK.keys,keyResp_CTK.corr,keyResp_CTK.rt,keyResp_CTK.duration,wordPractice,colorPractice,corrAnsPractice,congruentPractice,respPractice.keys,respPractice.corr,respPractice.rt,respPractice.duration,word,color,corrAns,congruent,keyResp_test_run.keys,keyResp_test_run.corr,keyResp_test_run.rt,keyResp_test_run.duration,trials_CTK.thisRepN,trials_CTK.thisTrialN,trials_CTK.thisN,trials_CTK.thisIndex,trials_practice.thisRepN,trials_practice.thisTrialN,trials_practice.thisN,trials_practice.thisIndex,trials_test.thisRepN,trials_test.thisTrialN,trials_test.thisN,trials_test.thisIndex,thisRow.t,notes,instruction.started,instr_text.started,instr_image.started,instr_resp.started,instruction.stopped,instr_resp.keys,instr_resp.rt,instr_resp.duration,instr_color_to_key.started,instr_ctk.started,resp_ctk.started,instr_color_to_key.stopped,resp_ctk.keys,resp_ctk.rt,resp_ctk.duration,ITI.started,fixcross.started,fixcross.stopped,ITI.stopped,color_to_key_run.started,stimulus_CTK.started,keyResp_CTK.started,color_to_key_run.stopped,trials_CTK.keyResp_CTK.keys,trials_CTK.keyResp_CTK.corr,trials_CTK.keyResp_CTK.rt,trials_CTK.keyResp_CTK.duration,instr_practice.started,instr_practice_text.started,instr_practice_resp.started,instr_practice.stopped,instr_practice_resp.keys,instr_practice_resp.rt,instr_practice_resp.duration,practice_run.started,stimulus_practice.started,respPractice.started,practice_run.stopped,trials_practice.respPractice.keys,trials_practice.respPractice.corr,trials_practice.respPractice.rt,trials_practice.respPractice.duration,feedback.started,textFeedback.started,textFeedback.stopped,feedback.stopped,instr_test.started,instr_test_text.started,instr_test_resp.started,instr_test.stopped,instr_test_resp.keys,instr_test_resp.rt,instr_test_resp.duration,test_run.started,stimulus_test_run.started,keyResp_test_run.started,test_run.stopped,trials_test.keyResp_test_run.keys,trials_test.keyResp_test_run.corr,trials_test.keyResp_test_run.rt,trials_test.keyResp_test_run.duration,goodbye.started,textGoodbye.started,goodbye.stopped,participant,session,expName,frameRate,Unnamed: 112
,,,,,,,,,,,,,,,,,,,,,,,,,,,,,,,,,,,,,,,,,0.0027814000000034,0.018209699999943,0.018209699999943,0.018209699999943,28.903480799999897,space,28.87721970000007,,,,,,,,,,,,,,,,,,,,,,,,,,,,,,,,,,,,,,,,,,,,,,,,,,,,,,,,,,sub-211,1,stroop_test,59.9086153980995,
,,,,,,,,,,,,,,,,,,,,,,,,,,,,,,,,,,,,,,,,,,,,,,,,,28.903550399999855,28.91416749999985,28.91416749999985,34.04316529999983,space,5.113820900000064,,,,,,,,,,,,,,,,,,,,,,,,,,,,,,,,,,,,,,,,,,,,,,,,,,,sub-211,1,stroop_test,59.9086153980995,
test,blue,b,1.0,0.0,0.0,0.0,b,1.0,1.6478397000000768,,,,,,,,,,,,,,,,,,0.0,0.0,0.0,2.0,,,,,,,,,34.06021499999997,,,,,,,,,,,,,,,,,34.05762789999994,34.142584499999884,34.94171089999986,34.92684629999985,34.93484739999985,34.94171089999986,34.94171089999986,36.591069599999855,b,1.0,1.6478397000000768,,,,,,,,,,,,,,,,,,,,,,,,,,,,,,,,,,,,,,,sub-211,1,stroop_test,59.9086153980995,
test,red,r,1.0,1.0,1.0,0.0,r,1.0,2.1496426000001065,,,,,,,,,,,,,,,,,,0.0,1.0,1.0,0.0,,,,,,,,,36.60670540000001,,,,,,,,,,,,,,,,,36.59126969999989,37.4064277,38.205583799999886,38.19035259999987,38.19105749999994,38.205583799999886,38.205583799999886,40.37107990000004,r,1.0,2.1496426000001065,,,,,,,,,,,,,,,,,,,,,,,,,,,,,,,,,,,,,,,sub-211,1,stroop_test,59.9086153980995,
test,yellow,g,1.0,2.0,2.0,0.0,g,1.0,1.0759800999999245,,,,,,,,,,,,,,,,,,0.0,2.0,2.0,1.0,,,,,,,,,40.386567900000045,,,,,,,,,,,,,,,,,40.37125760000004,41.18613540000001,41.98538719999988,41.97015250000004,41.97092739999994,41.98538719999988,41.98538719999988,43.06836939999994,g,1.0,1.0759800999999245,,,,,,,,,,,,,,,,,,,,,,,,,,,,,,,,,,,,,,,sub-211,1,stroop_test,59.9086153980995,
test,yellow,g,1.0,3.0,0.0,1.0,g,1.0,0.7372247999999217,,,,,,,,,,,,,,,,,,1.0,0.0,3.0,1.0,,,,,,,,,43.08440199999996,,,,,,,,,,,,,,,,,43.06855719999999,44.28296829999999,45.08266260000005,45.07139529999995,45.0716124999999,45.08266260000005,45.08266260000005,45.83615779999991,g,1.0,0.7372247999999217,,,,,,,,,,,,,,,,,,,,,,,,,,,,,,,,,,,,,,,sub-211,1,stroop_test,59.9086153980995,
test,red,r,1.0,4.0,1.0,1.0,r,1.0,0.9747495999999956,,,,,,,,,,,,,,,,,,1.0,1.0,4.0,0.0,,,,,,,,,45.8482919999999,,,,,,,,,,,,,,,,,45.83639769999991,47.04727219999995,47.84660310000004,47.830240199999935,47.83065899999997,47.84660310000004,47.84660310000004,48.83046449999984,r,1.0,0.9747495999999956,,,,,,,,,,,,,,,,,,,,,,,,,,,,,,,,,,,,,,,sub-211,1,stroop_test,59.9086153980995,
test,blue,b,1.0,5.0,2.0,1.0,b,1.0,0.6478704999999536,,,,,,,,,,,,,,,,,,1.0,2.0,5.0,2.0,,,,,,,,,48.84533590000001,,,,,,,,,,,,,,,,,48.83088459999999,48.94552490000001,49.74482739999985,49.7296715,49.73049409999999,49.74482739999985,49.74482739999985,50.39448359999983,b,1.0,0.6478704999999536,,,,,,,,,,,,,,,,,,,,,,,,,,,,,,,,,,,,,,,sub-211,1,stroop_test,59.9086153980995,
test,yellow,g,1.0,6.0,0.0,2.0,g,1.0,0.7399967000001197,,,,,,,,,,,,,,,,,,2.0,0.0,6.0,1.0,,,,,,,,,50.41116509999984,,,,,,,,,,,,,,,,,50.39465819999987,50.744254299999966,51.55953239999985,51.54339540000001,51.54365959999996,51.55953239999985,51.55953239999985,52.31000640000002,g,1.0,0.7399967000001197,,,,,,,,,,,,,,,,,,,,,,,,,,,,,,,,,,,,,,,sub-211,1,stroop_test,59.9086153980995,
test,blue,b,1.0,7.0,1.0,2.0,b,1.0,1.3449117000000117,,,,,,,,,,,,,,,,,,2.0,1.0,7.0,2.0,,,,,,,,,52.32572809999988,,,,,,,,,,,,,,,,,52.31030480000004,53.12483739999993,53.92410359999985,53.9090205,53.91004029999999,53.92410359999985,53.92410359999985,55.27418869999997,b,1.0,1.3449117000000117,,,,,,,,,,,,,,,,,,,,,,,,,,,,,,,,,,,,,,,sub-211,1,stroop_test,59.9086153980995,
test,red,r,1.0,8.0,2.0,2.0,r,1.0,1.539856600000121,,,,,,,,,,,,,,,,,,2.0,2.0,8.0,0.0,,,,,,,,,55.28957379999997,,,,,,,,,,,,,,,,,55.2745253999999,55.63901850000002,56.438666799999964,56.422436800000014,56.42289869999991,56.438666799999964,56.438666799999964,57.98895559999983,r,1.0,1.539856600000121,,,,,,,,,,,,,,,,,,,,,,,,,,,,,,,,,,,,,,,sub-211,1,stroop_test,59.9086153980995,
test,red,r,1.0,9.0,0.0,3.0,r,1.0,0.907545700000128,,,,,,,,,,,,,,,,,,3.0,0.0,9.0,0.0,,,,,,,,,58.00387860000001,,,,,,,,,,,,,,,,,57.98942779999993,58.80303679999997,59.60209280000004,59.58693399999993,59.58785239999997,59.60209280000004,59.60209280000004,60.52014220000001,r,1.0,0.907545700000128,,,,,,,,,,,,,,,,,,,,,,,,,,,,,,,,,,,,,,,sub-211,1,stroop_test,59.9086153980995,
test,yellow,g,1.0,10.0,1.0,3.0,g,1.0,0.8027274000000943,,,,,,,,,,,,,,,,,,3.0,1.0,10.0,1.0,,,,,,,,,60.53443539999989,,,,,,,,,,,,,,,,,60.52056199999993,60.884441199999856,61.68363619999991,61.66838699999994,61.6692521,61.68363619999991,61.68363619999991,62.50019980000002,g,1.0,0.8027274000000943,,,,,,,,,,,,,,,,,,,,,,,,,,,,,,,,,,,,,,,sub-211,1,stroop_test,59.9086153980995,
test,blue,b,1.0,11.0,2.0,3.0,b,1.0,0.5076435000000856,,,,,,,,,,,,,,,,,,3.0,2.0,11.0,2.0,,,,,,,,,62.51595950000001,,,,,,,,,,,,,,,,,62.50042719999988,62.84932089999984,63.664939600000025,63.6483945,63.6486531999999,63.664939600000025,63.664939600000025,64.18268689999991,b,1.0,0.5076435000000856,,,,,,,,,,,,,,,,,,,,,,,,,,,,,,,,,,,,,,,sub-211,1,stroop_test,59.9086153980995,
,,,,,,,,,,,,,,,,,,,,,,,,,,,,,,,,,,,,,,,,,,,,,,,,,,,,,,,,,,,,,,,,,,,,64.1828653,64.1980994999999,64.1980994999999,68.06231849999995,space,3.8618715999998585,,,,,,,,,,,,,,,,,,,,,,,,,,,,,,,,sub-211,1,stroop_test,59.9086153980995,
,,,,0.0,0.0,0.0,,,,,gelb,yellow,g,1.0,g,1.0,0.9940564999999424,,,,,,,,,,,,,,0.0,0.0,0.0,10.0,,,,,68.07759820000001,,,,,,,,,,,,,,,,,68.07479169999988,69.27628449999997,70.0755678999999,70.05971219999992,,,,,,,,,,,,,,,,70.06307900000002,70.0755678999999,70.0755678999999,71.07636490000004,g,1.0,0.9940564999999424,,71.08434799999986,71.09126219999985,72.09026019999988,72.07466690000001,,,,,,,,,,,,,,,,,,,sub-211,1,stroop_test,59.9086153980995,
,,,,1.0,1.0,0.0,,,,,rot,red,r,1.0,r,1.0,0.5850838999999723,,,,,,,,,,,,,,0.0,1.0,1.0,1.0,,,,,72.09026019999988,,,,,,,,,,,,,,,,,72.0750774999999,73.28968069999996,74.10533129999999,74.08881929999984,,,,,,,,,,,,,,,,74.09146209999994,74.10533129999999,74.10533129999999,74.70683729999996,r,1.0,0.5850838999999723,,74.70769069999983,74.7212950999999,75.72025140000005,75.70519689999992,,,,,,,,,,,,,,,,,,,sub-211,1,stroop_test,59.9086153980995,
,,,,2.0,2.0,0.0,,,,,gelb,yellow,g,1.0,g,1.0,0.7001248000001397,,,,,,,,,,,,,,0.0,2.0,2.0,11.0,,,,,75.72025140000005,,,,,,,,,,,,,,,,,75.70578579999983,76.91914819999988,77.71844609999994,77.70339039999999,,,,,,,,,,,,,,,,77.70747940000001,77.71844609999994,77.71844609999994,78.42209400000002,g,1.0,0.7001248000001397,,78.42271349999987,78.43458989999999,79.43342059999986,79.41819510000005,,,,,,,,,,,,,,,,,,,sub-211,1,stroop_test,59.9086153980995,
,,,,3.0,3.0,0.0,,,,,rot,blue,b,0.0,b,1.0,1.7079292000000803,,,,,,,,,,,,,,0.0,3.0,3.0,2.0,,,,,79.43342059999986,,,,,,,,,,,,,,,,,79.41876129999991,79.78322809999986,80.58224169999994,80.56597179999994,,,,,,,,,,,,,,,,80.56737969999995,80.58224169999994,80.58224169999994,82.29849990000002,b,1.0,1.7079292000000803,,82.29880089999983,82.3142006999999,,83.31351319999999,,,,,,,,,,,,,,,,,,,sub-211,1,stroop_test,59.9086153980995,
,,,,4.0,4.0,0.0,,,,,blau,blue,b,1.0,b,1.0,1.4092734000000746,,,,,,,,,,,,,,0.0,4.0,4.0,5.0,,,,,83.32972519999998,,,,,,,,,,,,,,,,,83.31401179999989,84.5119373,85.31130409999992,85.2949008999999,,,,,,,,,,,,,,,,85.29830309999988,85.31130409999992,85.31130409999992,86.72810600000003,b,1.0,1.4092734000000746,,86.72874969999998,86.74338069999999,87.74247360000004,87.72698429999991,,,,,,,,,,,,,,,,,,,sub-211,1,stroop_test,59.9086153980995,
,,,,5.0,5.0,0.0,,,,,blau,red,r,0.0,r,1.0,0.7757278999999926,,,,,,,,,,,,,,0.0,5.0,5.0,4.0,,,,,87.74247360000004,,,,,,,,,,,,,,,,,87.72714769999993,88.54192379999995,89.34110029999988,89.32580370000005,,,,,,,,,,,,,,,,89.32662759999994,89.34110029999988,89.34110029999988,90.12552749999986,r,1.0,0.7757278999999926,,90.12611789999984,90.14041169999996,,91.1398368,,,,,,,,,,,,,,,,,,,sub-211,1,stroop_test,59.9086153980995,
,,,,6.0,6.0,0.0,,,,,rot,red,r,1.0,r,1.0,0.6951414000000113,,,,,,,,,,,,,,0.0,6.0,6.0,0.0,,,,,91.15623119999988,,,,,,,,,,,,,,,,,91.14044839999995,91.93835719999991,92.7377282,92.72276319999992,,,,,,,,,,,,,,,,92.72761619999984,92.7377282,92.7377282,93.43831179999984,r,1.0,0.6951414000000113,,93.43859269999984,93.45403650000004,94.45298609999986,94.43814479999992,,,,,,,,,,,,,,,,,,,sub-211,1,stroop_test,59.9086153980995,
,,,,7.0,7.0,0.0,,,,,blau,yellow,g,0.0,g,1.0,0.6578558999999586,,,,,,,,,,,,,,0.0,7.0,7.0,7.0,,,,,94.45298609999986,,,,,,,,,,,,,,,,,94.43877469999984,94.80277090000004,95.60203950000005,95.58674959999983,,,,,,,,,,,,,,,,95.5913633,95.60203950000005,95.60203950000005,96.2688404999999,g,1.0,0.6578558999999586,,96.2692353,96.2843989999999,97.28329499999997,97.26734579999992,,,,,,,,,,,,,,,,,,,sub-211,1,stroop_test,59.9086153980995,
,,,,8.0,8.0,0.0,,,,,gelb,blue,b,0.0,b,1.0,5.037493799999993,,,,,,,,,,,,,,0.0,8.0,8.0,9.0,,,,,97.28329499999997,,,,,,,,,,,,,,,,,97.26752979999992,98.4822013999999,99.28163040000004,99.26590769999984,,,,,,,,,,,,,,,,99.26909690000002,99.28163040000004,99.28163040000004,104.32879899999988,b,1.0,5.037493799999993,,104.32952769999996,104.34366579999984,105.34247659999984,105.3275787,,,,,,,,,,,,,,,,,,,sub-211,1,stroop_test,59.9086153980995,
,,,,9.0,9.0,0.0,,,,,blau,blue,b,1.0,b,1.0,1.1176284000000578,,,,,,,,,,,,,,0.0,9.0,9.0,6.0,,,,,105.34247659999984,,,,,,,,,,,,,,,,,105.32814529999996,105.44274329999983,106.24181009999984,106.22590939999986,,,,,,,,,,,,,,,,106.22737080000002,106.24181009999984,106.24181009999984,107.37630169999989,b,1.0,1.1176284000000578,,107.37713949999988,107.39087889999996,,108.39018080000004,,,,,,,,,,,,,,,,,,,sub-211,1,stroop_test,59.9086153980995,
,,,,10.0,10.0,0.0,,,,,rot,yellow,g,0.0,g,1.0,1.1228406999998697,,,,,,,,,,,,,,0.0,10.0,10.0,3.0,,,,,108.40668570000004,,,,,,,,,,,,,,,,,108.39061049999988,108.48968309999988,109.28894999999989,109.27313729999992,,,,,,,,,,,,,,,,109.27612139999997,109.28894999999989,109.28894999999989,110.42366199999992,g,1.0,1.1228406999998697,,110.42395339999985,110.4379563,111.43726059999996,111.42065630000002,,,,,,,,,,,,,,,,,,,sub-211,1,stroop_test,59.9086153980995,
,,,,11.0,11.0,0.0,,,,,gelb,red,r,0.0,r,1.0,0.9787681000000248,,,,,,,,,,,,,,0.0,11.0,11.0,8.0,,,,,111.43726059999996,,,,,,,,,,,,,,,,,111.4208268,112.23586879999992,113.03550999999992,113.02019719999998,,,,,,,,,,,,,,,,113.02393970000004,113.03550999999992,113.03550999999992,114.01912429999992,r,1.0,0.9787681000000248,,114.01938879999987,114.03465779999988,115.0337915,115.01791809999986,,,,,,,,,,,,,,,,,,,sub-211,1,stroop_test,59.9086153980995,
,,,,12.0,0.0,1.0,,,,,gelb,yellow,g,1.0,g,1.0,0.796031800000037,,,,,,,,,,,,,,1.0,0.0,12.0,10.0,,,,,115.0337915,,,,,,,,,,,,,,,,,115.01835489999984,116.23247130000004,117.03174599999988,117.0154175,,,,,,,,,,,,,,,,117.01581509999984,117.03174599999988,117.03174599999988,117.8331925,g,1.0,0.796031800000037,,117.83382849999998,117.84743349999984,118.84706869999992,118.8316559,,,,,,,,,,,,,,,,,,,sub-211,1,stroop_test,59.9086153980995,
,,,,13.0,1.0,1.0,,,,,rot,red,r,1.0,r,1.0,0.6141293999999107,,,,,,,,,,,,,,1.0,1.0,13.0,1.0,,,,,118.84706869999992,,,,,,,,,,,,,,,,,118.83226369999988,119.19636459999992,119.99562909999986,119.97994759999985,,,,,,,,,,,,,,,,119.98418070000002,119.99562909999986,119.99562909999986,120.61223440000003,r,1.0,0.6141293999999107,,120.61248950000004,120.62809359999984,121.62734739999996,121.61241299999983,,,,,,,,,,,,,,,,,,,sub-211,1,stroop_test,59.9086153980995,
,,,,14.0,2.0,1.0,,,,,gelb,red,r,0.0,r,1.0,1.1517220000000634,,,,,,,,,,,,,,1.0,2.0,14.0,8.0,,,,,121.62734739999996,,,,,,,,,,,,,,,,,121.61295629999996,121.72713199999998,122.52655919999984,122.51042859999984,,,,,,,,,,,,,,,,122.51341899999989,122.52655919999984,122.52655919999984,123.69444269999984,r,1.0,1.1517220000000634,,123.69534869999984,123.70880749999992,124.70795019999991,124.69242199999984,,,,,,,,,,,,,,,,,,,sub-211,1,stroop_test,59.9086153980995,
,,,,15.0,3.0,1.0,,,,,blau,yellow,g,0.0,g,1.0,1.5231403000000228,,,,,,,,,,,,,,1.0,3.0,15.0,7.0,,,,,124.70795019999991,,,,,,,,,,,,,,,,,124.6929321,125.90704570000004,126.7226811999999,126.70723180000005,,,,,,,,,,,,,,,,126.71159839999996,126.7226811999999,126.7226811999999,128.25501929999996,g,1.0,1.5231403000000228,,128.25527050000005,128.27099150000004,129.27029889999994,129.2546044999999,,,,,,,,,,,,,,,,,,,sub-211,1,stroop_test,59.9086153980995,
,,,,16.0,4.0,1.0,,,,,blau,red,r,0.0,r,1.0,1.174054999999953,,,,,,,,,,,,,,1.0,4.0,16.0,4.0,,,,,129.27029889999994,,,,,,,,,,,,,,,,,129.2550286999999,130.46955789999993,131.285216,131.27000709999993,,,,,,,,,,,,,,,,131.27078129999995,131.285216,131.285216,132.46932649999985,r,1.0,1.174054999999953,,132.4700312,132.48407029999998,133.48308999999995,133.46688169999993,,,,,,,,,,,,,,,,,,,sub-211,1,stroop_test,59.9086153980995,
,,,,17.0,5.0,1.0,,,,,rot,blue,b,0.0,b,1.0,0.672629200000074,,,,,,,,,,,,,,1.0,5.0,17.0,2.0,,,,,133.48308999999995,,,,,,,,,,,,,,,,,133.46713839999984,133.83294619999992,134.64835989999983,134.63217529999997,,,,,,,,,,,,,,,,134.63401120000003,134.64835989999983,134.64835989999983,135.33336259999987,b,1.0,0.672629200000074,,135.33414779999998,135.3479112,136.34709679999992,136.33128399999987,,,,,,,,,,,,,,,,,,,sub-211,1,stroop_test,59.9086153980995,
,,,,18.0,6.0,1.0,,,,,gelb,yellow,g,1.0,g,1.0,0.5861372000001666,,,,,,,,,,,,,,1.0,6.0,18.0,11.0,,,,,136.34709679999992,,,,,,,,,,,,,,,,,136.33166800000004,137.5457481999999,138.34514760000002,138.3292454,,,,,,,,,,,,,,,,138.33225479999987,138.34514760000002,138.34514760000002,138.94488579999984,g,1.0,0.5861372000001666,,138.94512489999988,138.9608452,139.96022679999987,139.9439657999999,,,,,,,,,,,,,,,,,,,sub-211,1,stroop_test,59.9086153980995,
,,,,19.0,7.0,1.0,,,,,rot,yellow,g,0.0,g,1.0,0.4973989000000074,,,,,,,,,,,,,,1.0,7.0,19.0,3.0,,,,,139.96022679999987,,,,,,,,,,,,,,,,,139.9441268999999,141.15887629999995,141.9584488999999,141.94279529999994,,,,,,,,,,,,,,,,141.94673579999994,141.9584488999999,141.9584488999999,142.45885139999996,g,1.0,0.4973989000000074,,142.4590960999999,142.47474880000004,143.47385429999986,143.45860100000004,,,,,,,,,,,,,,,,,,,sub-211,1,stroop_test,59.9086153980995,
,,,,20.0,8.0,1.0,,,,,rot,red,r,1.0,r,1.0,1.0733597000000827,,,,,,,,,,,,,,1.0,8.0,20.0,0.0,,,,,143.47385429999986,,,,,,,,,,,,,,,,,143.45929699999988,143.57345850000002,144.37275720000002,144.35671439999987,,,,,,,,,,,,,,,,144.35724430000005,144.37275720000002,144.37275720000002,145.45707909999987,r,1.0,1.0733597000000827,,145.457903,145.4719725,146.4713079999999,146.45522919999985,,,,,,,,,,,,,,,,,,,sub-211,1,stroop_test,59.9086153980995,
,,,,21.0,9.0,1.0,,,,,gelb,blue,b,0.0,b,1.0,0.5654775999998947,,,,,,,,,,,,,,1.0,9.0,21.0,9.0,,,,,146.4713079999999,,,,,,,,,,,,,,,,,146.45542309999996,146.82045169999992,147.61952539999993,147.60428290000004,,,,,,,,,,,,,,,,147.60782829999994,147.61952539999993,147.61952539999993,148.18924100000004,b,1.0,0.5654775999998947,,148.18996960000004,148.20257509999988,149.20184440000003,149.18533460000003,,,,,,,,,,,,,,,,,,,sub-211,1,stroop_test,59.9086153980995,
,,,,22.0,10.0,1.0,,,,,blau,blue,b,1.0,b,1.0,1.079658899999913,,,,,,,,,,,,,,1.0,10.0,22.0,5.0,,,,,149.20184440000003,,,,,,,,,,,,,,,,,149.18549719999987,150.40036839999993,151.19982570000002,151.18452389999993,,,,,,,,,,,,,,,,151.18919319999986,151.19982570000002,151.19982570000002,152.28449389999992,b,1.0,1.079658899999913,,152.2850951999999,152.29864569999995,153.29761839999992,153.28163059999997,,,,,,,,,,,,,,,,,,,sub-211,1,stroop_test,59.9086153980995,
,,,,23.0,11.0,1.0,,,,,blau,blue,b,1.0,b,1.0,0.4604448000000047,,,,,,,,,,,,,,1.0,11.0,23.0,6.0,,,,,153.29761839999992,,,,,,,,,,,,,,,,,153.28191309999988,153.39759830000003,154.19732969999995,154.1807733999999,,,,,,,,,,,,,,,,154.18117039999993,154.19732969999995,154.19732969999995,154.66424699999993,b,1.0,0.4604448000000047,,154.66469689999985,154.67992609999988,155.67866949999984,155.66288940000004,,,,,,,,,,,,,,,,,,,sub-211,1,stroop_test,59.9086153980995,
,,,,,,,,,,,,,,,,,,,,,,,,,,,,,,,,,,,,,,,,,,,,,,,,,,,,,,,,,,,,,,,,,,,,,,,,,,,,,,,,,,,,,,,155.66295569999988,155.67866949999984,155.67866949999984,157.2145544,space,1.5317454000000907,,,,,,,,,,,,,sub-211,1,stroop_test,59.9086153980995,
,,,,0.0,0.0,0.0,,,,,,,,,,,,,rot,yellow,g,0.0,g,1.0,1.81808030000002,,,,,,,,,,0.0,0.0,0.0,3.0,157.2342819999999,,,,,,,,,,,,,,,,,157.23159109999983,157.57707489999984,158.37634589999993,158.3611782999999,,,,,,,,,,,,,,,,,,,,,,,,,,,,,,,,,,,158.36518690000003,158.37634589999993,158.37634589999993,160.2102700999999,g,1.0,1.81808030000002,,,,,sub-211,1,stroop_test,59.9086153980995,
,,,,1.0,1.0,0.0,,,,,,,,,,,,,blau,red,r,0.0,r,1.0,0.9850725999999668,,,,,,,,,,0.0,1.0,1.0,4.0,160.22479839999983,,,,,,,,,,,,,,,,,160.21078820000002,161.42352200000005,162.22277669999994,162.20772769999985,,,,,,,,,,,,,,,,,,,,,,,,,,,,,,,,,,,162.21272169999995,162.22277669999994,162.22277669999994,163.22290469999984,r,1.0,0.9850725999999668,,,,,sub-211,1,stroop_test,59.9086153980995,
,,,,2.0,2.0,0.0,,,,,,,,,,,,,gelb,blue,b,0.0,b,1.0,0.9142534999998588,,,,,,,,,,0.0,2.0,2.0,9.0,163.23837489999983,,,,,,,,,,,,,,,,,163.22308109999994,164.43707089999998,165.2366993999999,165.2215036,,,,,,,,,,,,,,,,,,,,,,,,,,,,,,,,,,,165.22580530000005,165.2366993999999,165.2366993999999,166.15423739999983,b,1.0,0.9142534999998588,,,,,sub-211,1,stroop_test,59.9086153980995,
,,,,3.0,3.0,0.0,,,,,,,,,,,,,gelb,yellow,g,1.0,g,1.0,0.7397966999999426,,,,,,,,,,0.0,3.0,3.0,11.0,166.16930060000004,,,,,,,,,,,,,,,,,166.15465989999984,166.26922339999987,167.0678871,167.05234099999984,,,,,,,,,,,,,,,,,,,,,,,,,,,,,,,,,,,167.05293159999997,167.0678871,167.0678871,167.81997030000002,g,1.0,0.7397966999999426,,,,,sub-211,1,stroop_test,59.9086153980995,
,,,,4.0,4.0,0.0,,,,,,,,,,,,,rot,blue,b,0.0,b,1.0,1.3955650000000333,,,,,,,,,,0.0,4.0,4.0,2.0,167.83434079999984,,,,,,,,,,,,,,,,,167.82052610000005,168.1839321,168.9829436,168.96797300000003,,,,,,,,,,,,,,,,,,,,,,,,,,,,,,,,,,,168.97243819999994,168.9829436,168.9829436,170.38363749999985,b,1.0,1.3955650000000333,,,,,sub-211,1,stroop_test,59.9086153980995,
,,,,5.0,5.0,0.0,,,,,,,,,,,,,blau,yellow,g,0.0,g,1.0,0.7240544000001137,,,,,,,,,,0.0,5.0,5.0,7.0,170.39863409999998,,,,,,,,,,,,,,,,,170.38410239999985,170.74818269999992,171.5474431,171.53235859999995,,,,,,,,,,,,,,,,,,,,,,,,,,,,,,,,,,,171.53691019999997,171.5474431,171.5474431,172.2809428999999,g,1.0,0.7240544000001137,,,,,sub-211,1,stroop_test,59.9086153980995,
,,,,6.0,6.0,0.0,,,,,,,,,,,,,rot,red,r,1.0,r,1.0,1.2965758999998798,,,,,,,,,,0.0,6.0,6.0,0.0,172.2965231999999,,,,,,,,,,,,,,,,,172.2811102999999,173.49546480000004,174.29479849999984,174.2804696999999,,,,,,,,,,,,,,,,,,,,,,,,,,,,,,,,,,,174.28456259999984,174.29479849999984,174.29479849999984,175.59567389999984,r,1.0,1.2965758999998798,,,,,sub-211,1,stroop_test,59.9086153980995,
,,,,7.0,7.0,0.0,,,,,,,,,,,,,blau,blue,b,1.0,b,1.0,0.9424137999999402,,,,,,,,,,0.0,7.0,7.0,6.0,175.6102409,,,,,,,,,,,,,,,,,175.59609839999985,175.96001249999995,176.75906239999995,176.7435685999999,,,,,,,,,,,,,,,,,,,,,,,,,,,,,,,,,,,176.74744029999988,176.75906239999995,176.75906239999995,177.70970979999993,b,1.0,0.9424137999999402,,,,,sub-211,1,stroop_test,59.9086153980995,
,,,,8.0,8.0,0.0,,,,,,,,,,,,,gelb,red,r,0.0,r,1.0,1.0373246999999992,,,,,,,,,,0.0,8.0,8.0,8.0,177.72509909999985,,,,,,,,,,,,,,,,,177.71016480000003,178.92355909999992,179.72311579999996,179.70749690000002,,,,,,,,,,,,,,,,,,,,,,,,,,,,,,,,,,,179.71140189999983,179.72311579999996,179.72311579999996,180.7743381,r,1.0,1.0373246999999992,,,,,sub-211,1,stroop_test,59.9086153980995,
,,,,9.0,9.0,0.0,,,,,,,,,,,,,blau,blue,b,1.0,b,1.0,1.674740899999961,,,,,,,,,,0.0,9.0,9.0,5.0,180.78867089999997,,,,,,,,,,,,,,,,,180.77492489999983,181.987946,182.80340260000003,182.7870977,,,,,,,,,,,,,,,,,,,,,,,,,,,,,,,,,,,182.78926699999988,182.80340260000003,182.80340260000003,184.4897059,b,1.0,1.674740899999961,,,,,sub-211,1,stroop_test,59.9086153980995,
,,,,10.0,10.0,0.0,,,,,,,,,,,,,gelb,yellow,g,1.0,g,1.0,0.782327000000123,,,,,,,,,,0.0,10.0,10.0,10.0,184.50173070000005,,,,,,,,,,,,,,,,,184.4900309,185.3011173,186.10029510000004,186.08540279999988,,,,,,,,,,,,,,,,,,,,,,,,,,,,,,,,,,,186.089616,186.10029510000004,186.10029510000004,186.883953,g,1.0,0.782327000000123,,,,,sub-211,1,stroop_test,59.9086153980995,
,,,,11.0,11.0,0.0,,,,,,,,,,,,,rot,red,r,1.0,r,1.0,0.767101700000012,,,,,,,,,,0.0,11.0,11.0,1.0,186.89988270000003,,,,,,,,,,,,,,,,,186.88413109999988,187.69878619999983,188.49812699999984,188.48311909999984,,,,,,,,,,,,,,,,,,,,,,,,,,,,,,,,,,,188.48784980000005,188.49812699999984,188.49812699999984,189.28146919999995,r,1.0,0.767101700000012,,,,,sub-211,1,stroop_test,59.9086153980995,
,,,,12.0,0.0,1.0,,,,,,,,,,,,,blau,red,r,0.0,r,1.0,0.7138306000001648,,,,,,,,,,1.0,0.0,12.0,4.0,189.297192,,,,,,,,,,,,,,,,,189.2818218,189.63030979999985,190.4295559,190.4139011,,,,,,,,,,,,,,,,,,,,,,,,,,,,,,,,,,,190.41549280000004,190.4295559,190.4295559,191.1463386999999,r,1.0,0.7138306000001648,,,,,sub-211,1,stroop_test,59.9086153980995,
,,,,13.0,1.0,1.0,,,,,,,,,,,,,rot,blue,b,0.0,b,1.0,0.79405440000005,,,,,,,,,,1.0,1.0,13.0,2.0,191.1620128,,,,,,,,,,,,,,,,,191.14652649999996,191.96165640000004,192.76071920000004,192.74564869999995,,,,,,,,,,,,,,,,,,,,,,,,,,,,,,,,,,,192.75100669999983,192.76071920000004,192.76071920000004,193.56072679999988,b,1.0,0.79405440000005,,,,,sub-211,1,stroop_test,59.9086153980995,
,,,,14.0,2.0,1.0,,,,,,,,,,,,,rot,red,r,1.0,r,1.0,0.9568783000001986,,,,,,,,,,1.0,2.0,14.0,1.0,193.5765938,,,,,,,,,,,,,,,,,193.5609089,194.37585390000004,195.1752033,195.15997700000003,,,,,,,,,,,,,,,,,,,,,,,,,,,,,,,,,,,195.1606881,195.1752033,195.1752033,196.14248669999984,r,1.0,0.9568783000001986,,,,,sub-211,1,stroop_test,59.9086153980995,
,,,,15.0,3.0,1.0,,,,,,,,,,,,,gelb,yellow,g,1.0,g,1.0,0.949703399999862,,,,,,,,,,1.0,3.0,15.0,10.0,196.15796049999997,,,,,,,,,,,,,,,,,196.14289399999984,196.2579295999999,197.0735244,197.05698719999987,,,,,,,,,,,,,,,,,,,,,,,,,,,,,,,,,,,197.0590264,197.0735244,197.0735244,198.02708699999997,g,1.0,0.949703399999862,,,,,sub-211,1,stroop_test,59.9086153980995,
,,,,16.0,4.0,1.0,,,,,,,,,,,,,blau,yellow,g,0.0,g,1.0,0.4551429000000553,,,,,,,,,,1.0,4.0,16.0,7.0,198.03920279999988,,,,,,,,,,,,,,,,,198.02758959999983,199.23803499999983,200.0373531,200.02143669999987,,,,,,,,,,,,,,,,,,,,,,,,,,,,,,,,,,,200.0247609999999,200.0373531,200.0373531,200.50567490000003,g,1.0,0.4551429000000553,,,,,sub-211,1,stroop_test,59.9086153980995,
,,,,17.0,5.0,1.0,,,,,,,,,,,,,gelb,red,r,0.0,r,1.0,0.606892900000048,,,,,,,,,,1.0,5.0,17.0,8.0,200.52039279999985,,,,,,,,,,,,,,,,,200.5061925,200.8698992,201.66919889999983,201.6540436,,,,,,,,,,,,,,,,,,,,,,,,,,,,,,,,,,,201.65861019999988,201.66919889999983,201.66919889999983,202.2858004,r,1.0,0.606892900000048,,,,,sub-211,1,stroop_test,59.9086153980995,
,,,,18.0,6.0,1.0,,,,,,,,,,,,,blau,blue,b,1.0,b,1.0,0.5993883999999525,,,,,,,,,,1.0,6.0,18.0,6.0,202.3018345999999,,,,,,,,,,,,,,,,,202.2859727,203.10112759999996,203.90026190000003,203.8842797,,,,,,,,,,,,,,,,,,,,,,,,,,,,,,,,,,,203.8875114,203.90026190000003,203.90026190000003,204.5041544999999,b,1.0,0.5993883999999525,,,,,sub-211,1,stroop_test,59.9086153980995,
,,,,19.0,7.0,1.0,,,,,,,,,,,,,gelb,yellow,g,1.0,g,1.0,0.689886400000205,,,,,,,,,,1.0,7.0,19.0,11.0,204.516607,,,,,,,,,,,,,,,,,204.5047027999999,205.3160292,206.1314628,206.11504160000004,,,,,,,,,,,,,,,,,,,,,,,,,,,,,,,,,,,206.11675769999988,206.1314628,206.1314628,206.8336537,g,1.0,0.689886400000205,,,,,sub-211,1,stroop_test,59.9086153980995,
,,,,20.0,8.0,1.0,,,,,,,,,,,,,rot,red,r,1.0,r,1.0,0.5210414999999102,,,,,,,,,,1.0,8.0,20.0,0.0,206.8477034,,,,,,,,,,,,,,,,,206.8343267,206.9480194,207.7467597,207.7317667,,,,,,,,,,,,,,,,,,,,,,,,,,,,,,,,,,,207.73666460000004,207.7467597,207.7467597,208.28140889999983,r,1.0,0.5210414999999102,,,,,sub-211,1,stroop_test,59.9086153980995,
,,,,21.0,9.0,1.0,,,,,,,,,,,,,blau,blue,b,1.0,b,1.0,0.4554903999999169,,,,,,,,,,1.0,9.0,21.0,5.0,208.2966045999999,,,,,,,,,,,,,,,,,208.28188929999988,208.3964457,209.19551060000003,209.18015679999985,,,,,,,,,,,,,,,,,,,,,,,,,,,,,,,,,,,209.18537309999988,209.19551060000003,209.19551060000003,209.6634359,b,1.0,0.4554903999999169,,,,,sub-211,1,stroop_test,59.9086153980995,
,,,,22.0,10.0,1.0,,,,,,,,,,,,,gelb,blue,b,0.0,b,1.0,1.8076690999998848,,,,,,,,,,1.0,10.0,22.0,9.0,209.67832380000004,,,,,,,,,,,,,,,,,209.66398209999988,210.8774386,211.6764080999999,211.6604857,,,,,,,,,,,,,,,,,,,,,,,,,,,,,,,,,,,211.6632657,211.6764080999999,211.6764080999999,213.4916856,b,1.0,1.8076690999998848,,,,,sub-211,1,stroop_test,59.9086153980995,
,,,,23.0,11.0,1.0,,,,,,,,,,,,,rot,yellow,g,0.0,g,1.0,1.5199753999997938,,,,,,,,,,1.0,11.0,23.0,3.0,213.5080086999999,,,,,,,,,,,,,,,,,213.49187869999992,213.84072619999984,214.6405052,214.62532109999984,,,,,,,,,,,,,,,,,,,,,,,,,,,,,,,,,,,214.62988769999995,214.6405052,214.6405052,216.17423519999988,g,1.0,1.5199753999997938,,,,,sub-211,1,stroop_test,59.9086153980995,
,,,,24.0,0.0,2.0,,,,,,,,,,,,,gelb,red,r,0.0,r,1.0,0.9789063000000624,,,,,,,,,,2.0,0.0,24.0,8.0,216.1890550999999,,,,,,,,,,,,,,,,,216.17481989999987,216.98820320000004,217.7874067,217.77106099999992,,,,,,,,,,,,,,,,,,,,,,,,,,,,,,,,,,,217.77245070000004,217.7874067,217.7874067,218.77063269999985,r,1.0,0.9789063000000624,,,,,sub-211,1,stroop_test,59.9086153980995,
,,,,25.0,1.0,2.0,,,,,,,,,,,,,rot,blue,b,0.0,b,1.0,1.0352182999999968,,,,,,,,,,2.0,1.0,25.0,2.0,218.7867517,,,,,,,,,,,,,,,,,218.77094020000004,219.9855316999999,220.78469099999984,220.7688598,,,,,,,,,,,,,,,,,,,,,,,,,,,,,,,,,,,220.7727083,220.78469099999984,220.78469099999984,221.8361746999999,b,1.0,1.0352182999999968,,,,,sub-211,1,stroop_test,59.9086153980995,
,,,,26.0,2.0,2.0,,,,,,,,,,,,,blau,blue,b,1.0,b,1.0,0.92252029999986,,,,,,,,,,2.0,2.0,26.0,5.0,221.8501472999999,,,,,,,,,,,,,,,,,221.83675300000004,222.64977279999997,223.44877410000004,223.4335269999999,,,,,,,,,,,,,,,,,,,,,,,,,,,,,,,,,,,223.43842329999984,223.44877410000004,223.44877410000004,224.3822441,b,1.0,0.92252029999986,,,,,sub-211,1,stroop_test,59.9086153980995,
,,,,27.0,3.0,2.0,,,,,,,,,,,,,gelb,yellow,g,1.0,g,1.0,0.6895540000000437,,,,,,,,,,2.0,3.0,27.0,10.0,224.39775569999983,,,,,,,,,,,,,,,,,224.38259470000003,224.7479053,225.56332099999983,225.54726579999988,,,,,,,,,,,,,,,,,,,,,,,,,,,,,,,,,,,225.54858790000003,225.56332099999983,225.56332099999983,226.2651555,g,1.0,0.6895540000000437,,,,,sub-211,1,stroop_test,59.9086153980995,
,,,,28.0,4.0,2.0,,,,,,,,,,,,,blau,red,r,0.0,r,1.0,1.0577468000001318,,,,,,,,,,2.0,4.0,28.0,4.0,226.27954049999997,,,,,,,,,,,,,,,,,226.2656949,227.4783364,228.29422219999992,228.2780544,,,,,,,,,,,,,,,,,,,,,,,,,,,,,,,,,,,228.28093650000005,228.29422219999992,228.29422219999992,229.36085639999988,r,1.0,1.0577468000001318,,,,,sub-211,1,stroop_test,59.9086153980995,
,,,,29.0,5.0,2.0,,,,,,,,,,,,,gelb,yellow,g,1.0,g,1.0,0.7518047999999453,,,,,,,,,,2.0,5.0,29.0,11.0,229.37705129999995,,,,,,,,,,,,,,,,,229.3610371,230.1761449999999,230.9751288,230.95978979999995,,,,,,,,,,,,,,,,,,,,,,,,,,,,,,,,,,,230.9641801,230.9751288,230.9751288,231.7440586,g,1.0,0.7518047999999453,,,,,sub-211,1,stroop_test,59.9086153980995,
,,,,30.0,6.0,2.0,,,,,,,,,,,,,rot,red,r,1.0,r,1.0,1.0408522000000175,,,,,,,,,,2.0,6.0,30.0,0.0,231.7577939,,,,,,,,,,,,,,,,,231.74467200000004,232.9566038999999,233.7556451999999,233.74007600000004,,,,,,,,,,,,,,,,,,,,,,,,,,,,,,,,,,,233.74340759999995,233.7556451999999,233.7556451999999,234.8070677999999,r,1.0,1.0408522000000175,,,,,sub-211,1,stroop_test,59.9086153980995,
,,,,31.0,7.0,2.0,,,,,,,,,,,,,blau,blue,b,1.0,b,1.0,0.5876241000000846,,,,,,,,,,2.0,7.0,31.0,6.0,234.8211819999999,,,,,,,,,,,,,,,,,234.8076572,235.62068,236.41994479999997,236.404151,,,,,,,,,,,,,,,,,,,,,,,,,,,,,,,,,,,236.4079067,236.41994479999997,236.41994479999997,237.02529719999984,b,1.0,0.5876241000000846,,,,,sub-211,1,stroop_test,59.9086153980995,
,,,,32.0,8.0,2.0,,,,,,,,,,,,,rot,red,r,1.0,r,1.0,0.8789639999999963,,,,,,,,,,2.0,8.0,32.0,1.0,237.0361074,,,,,,,,,,,,,,,,,237.02551369999992,238.23523750000004,239.0341844,239.0195409999999,,,,,,,,,,,,,,,,,,,,,,,,,,,,,,,,,,,239.0241160999999,239.0341844,239.0341844,239.9175819,r,1.0,0.8789639999999963,,,,,sub-211,1,stroop_test,59.9086153980995,
,,,,33.0,9.0,2.0,,,,,,,,,,,,,blau,yellow,g,0.0,g,1.0,0.9940628000001652,,,,,,,,,,2.0,9.0,33.0,7.0,239.93315970000003,,,,,,,,,,,,,,,,,239.9177932,240.01677619999987,240.8159899,240.8009233,,,,,,,,,,,,,,,,,,,,,,,,,,,,,,,,,,,240.8059248,240.8159899,240.8159899,241.81676219999983,g,1.0,0.9940628000001652,,,,,sub-211,1,stroop_test,59.9086153980995,
,,,,34.0,10.0,2.0,,,,,,,,,,,,,rot,yellow,g,0.0,g,1.0,0.711436699999922,,,,,,,,,,2.0,10.0,34.0,3.0,241.83172949999997,,,,,,,,,,,,,,,,,241.81721079999988,241.9315036999999,242.73075629999997,242.71556439999995,,,,,,,,,,,,,,,,,,,,,,,,,,,,,,,,,,,242.72122779999995,242.73075629999997,242.73075629999997,243.44762109999988,g,1.0,0.711436699999922,,,,,sub-211,1,stroop_test,59.9086153980995,
,,,,35.0,11.0,2.0,,,,,,,,,,,,,gelb,blue,b,0.0,b,1.0,0.7230799000001298,,,,,,,,,,2.0,11.0,35.0,9.0,243.4633099,,,,,,,,,,,,,,,,,243.44789560000004,243.81295720000003,244.6124448999999,244.5959676,,,,,,,,,,,,,,,,,,,,,,,,,,,,,,,,,,,244.59793820000004,244.6124448999999,244.6124448999999,245.3465119,b,1.0,0.7230799000001298,,,,,sub-211,1,stroop_test,59.9086153980995,
,,,,36.0,0.0,3.0,,,,,,,,,,,,,blau,red,r,0.0,r,1.0,0.6309615999998641,,,,,,,,,,3.0,0.0,36.0,4.0,245.3615752999999,,,,,,,,,,,,,,,,,245.34706719999983,246.56070479999997,247.3595662,247.34428359999995,,,,,,,,,,,,,,,,,,,,,,,,,,,,,,,,,,,247.34845559999985,247.3595662,247.3595662,247.9952123999999,r,1.0,0.6309615999998641,,,,,sub-211,1,stroop_test,59.9086153980995,
,,,,37.0,1.0,3.0,,,,,,,,,,,,,gelb,red,r,0.0,r,1.0,1.064906399999927,,,,,,,,,,3.0,1.0,37.0,8.0,248.00910479999996,,,,,,,,,,,,,,,,,247.9957304,248.8081904999999,249.6075868999999,249.5918439,,,,,,,,,,,,,,,,,,,,,,,,,,,,,,,,,,,249.5955065999999,249.6075868999999,249.6075868999999,250.67533119999985,r,1.0,1.064906399999927,,,,,sub-211,1,stroop_test,59.9086153980995,
,,,,38.0,2.0,3.0,,,,,,,,,,,,,rot,blue,b,0.0,b,1.0,1.0548757999999907,,,,,,,,,,3.0,2.0,38.0,2.0,250.6899962,,,,,,,,,,,,,,,,,250.67577689999985,250.79005659999984,251.60575759999983,251.5899649999999,,,,,,,,,,,,,,,,,,,,,,,,,,,,,,,,,,,251.5934427,251.60575759999983,251.60575759999983,252.67204730000003,b,1.0,1.0548757999999907,,,,,sub-211,1,stroop_test,59.9086153980995,
,,,,39.0,3.0,3.0,,,,,,,,,,,,,blau,blue,b,1.0,b,1.0,0.9496554000002106,,,,,,,,,,3.0,3.0,39.0,5.0,252.68796009999983,,,,,,,,,,,,,,,,,252.6722275,253.03771959999997,253.83688059999983,253.82046459999992,,,,,,,,,,,,,,,,,,,,,,,,,,,,,,,,,,,253.82233769999996,253.83688059999983,253.83688059999983,254.78986569999984,b,1.0,0.9496554000002106,,,,,sub-211,1,stroop_test,59.9086153980995,
,,,,40.0,4.0,3.0,,,,,,,,,,,,,blau,blue,b,1.0,b,1.0,0.5348544999999376,,,,,,,,,,3.0,4.0,40.0,6.0,254.8028795,,,,,,,,,,,,,,,,,254.790297,255.60216289999997,256.4011315,256.38523050000003,,,,,,,,,,,,,,,,,,,,,,,,,,,,,,,,,,,256.3854647999999,256.4011315,256.4011315,256.9523093999999,b,1.0,0.5348544999999376,,,,,sub-211,1,stroop_test,59.9086153980995,
,,,,41.0,5.0,3.0,,,,,,,,,,,,,blau,yellow,g,0.0,g,1.0,0.9522618999999396,,,,,,,,,,3.0,5.0,41.0,7.0,256.96743719999995,,,,,,,,,,,,,,,,,256.9527309,257.06732480000005,257.86643749999985,257.85036990000003,,,,,,,,,,,,,,,,,,,,,,,,,,,,,,,,,,,257.8507726,257.86643749999985,257.86643749999985,258.83325390000005,g,1.0,0.9522618999999396,,,,,sub-211,1,stroop_test,59.9086153980995,
,,,,42.0,6.0,3.0,,,,,,,,,,,,,rot,red,r,1.0,r,1.0,1.030829600000061,,,,,,,,,,3.0,6.0,42.0,0.0,258.84915439999986,,,,,,,,,,,,,,,,,258.83358769999995,259.19871349999994,259.99800489999984,259.9820041999999,,,,,,,,,,,,,,,,,,,,,,,,,,,,,,,,,,,259.9869140999999,259.99800489999984,259.99800489999984,261.0329208999999,r,1.0,1.030829600000061,,,,,sub-211,1,stroop_test,59.9086153980995,
,,,,43.0,7.0,3.0,,,,,,,,,,,,,rot,red,r,1.0,r,1.0,0.5998016000000916,,,,,,,,,,3.0,7.0,43.0,1.0,261.0470419999999,,,,,,,,,,,,,,,,,261.0334186,261.84623139999985,262.6455248,262.6305083999998,,,,,,,,,,,,,,,,,,,,,,,,,,,,,,,,,,,262.63131769999995,262.6455248,262.6455248,263.24860879999983,r,1.0,0.5998016000000916,,,,,sub-211,1,stroop_test,59.9086153980995,
,,,,44.0,8.0,3.0,,,,,,,,,,,,,gelb,yellow,g,1.0,g,1.0,0.8410145999998804,,,,,,,,,,3.0,8.0,44.0,11.0,263.2615306,,,,,,,,,,,,,,,,,263.2489836999998,264.46024779999993,265.25963219999994,265.2445989999999,,,,,,,,,,,,,,,,,,,,,,,,,,,,,,,,,,,265.24886909999987,265.25963219999994,265.25963219999994,266.11091939999983,g,1.0,0.8410145999998804,,,,,sub-211,1,stroop_test,59.9086153980995,
,,,,45.0,9.0,3.0,,,,,,,,,,,,,rot,yellow,g,0.0,g,1.0,1.082206000000042,,,,,,,,,,3.0,9.0,45.0,3.0,266.12550409999994,,,,,,,,,,,,,,,,,266.1114353999999,266.4753816,267.2745666999999,267.25941220000004,,,,,,,,,,,,,,,,,,,,,,,,,,,,,,,,,,,267.2639225999999,267.2745666999999,267.2745666999999,268.3585917999999,g,1.0,1.082206000000042,,,,,sub-211,1,stroop_test,59.9086153980995,
,,,,46.0,10.0,3.0,,,,,,,,,,,,,gelb,blue,b,0.0,b,1.0,0.7792125999999371,,,,,,,,,,3.0,10.0,46.0,9.0,268.3733126,,,,,,,,,,,,,,,,,268.3590239,268.4733234999999,269.2725986999999,269.2573603999999,,,,,,,,,,,,,,,,,,,,,,,,,,,,,,,,,,,269.26035950000005,269.2725986999999,269.2725986999999,270.0568235999999,b,1.0,0.7792125999999371,,,,,sub-211,1,stroop_test,59.9086153980995,
,,,,47.0,11.0,3.0,,,,,,,,,,,,,gelb,yellow,g,1.0,g,1.0,0.9510999000001448,,,,,,,,,,3.0,11.0,47.0,10.0,270.0721186999999,,,,,,,,,,,,,,,,,270.05728209999984,270.1717260999999,270.97110210000005,270.9555800999999,,,,,,,,,,,,,,,,,,,,,,,,,,,,,,,,,,,270.95629169999984,270.97110210000005,270.97110210000005,271.93781850000005,g,1.0,0.9510999000001448,,,,,sub-211,1,stroop_test,59.9086153980995,
,,,,48.0,0.0,4.0,,,,,,,,,,,,,blau,red,r,0.0,r,1.0,0.6325010000000475,,,,,,,,,,4.0,0.0,48.0,4.0,271.9532956999999,,,,,,,,,,,,,,,,,271.9380014999999,272.0370132999999,272.8358401999999,272.8209542,,,,,,,,,,,,,,,,,,,,,,,,,,,,,,,,,,,272.82549700000004,272.8358401999999,272.8358401999999,273.46973920000005,r,1.0,0.6325010000000475,,,,,sub-211,1,stroop_test,59.9086153980995,
,,,,49.0,1.0,4.0,,,,,,,,,,,,,gelb,yellow,g,1.0,g,1.0,1.2929125000000568,,,,,,,,,,4.0,1.0,49.0,10.0,273.48510839999994,,,,,,,,,,,,,,,,,273.47005519999993,274.28426390000004,275.0835697,275.0686980999999,,,,,,,,,,,,,,,,,,,,,,,,,,,,,,,,,,,275.0729374,275.0835697,275.0835697,276.38313789999984,g,1.0,1.2929125000000568,,,,,sub-211,1,stroop_test,59.9086153980995,
,,,,50.0,2.0,4.0,,,,,,,,,,,,,blau,blue,b,1.0,b,1.0,0.7224598999998761,,,,,,,,,,4.0,2.0,50.0,5.0,276.3991779999999,,,,,,,,,,,,,,,,,276.383433,277.19835479999983,277.9975675999999,277.9816759,,,,,,,,,,,,,,,,,,,,,,,,,,,,,,,,,,,277.9859018,277.9975675999999,277.9975675999999,278.73240169999985,b,1.0,0.7224598999998761,,,,,sub-211,1,stroop_test,59.9086153980995,
,,,,51.0,3.0,4.0,,,,,,,,,,,,,blau,yellow,g,0.0,g,1.0,0.9264154999998482,,,,,,,,,,4.0,3.0,51.0,7.0,278.7468102,,,,,,,,,,,,,,,,,278.7328702,279.5461063,280.34562400000004,280.3305335,,,,,,,,,,,,,,,,,,,,,,,,,,,,,,,,,,,280.3313616999999,280.34562400000004,280.34562400000004,281.279601,g,1.0,0.9264154999998482,,,,,sub-211,1,stroop_test,59.9086153980995,
,,,,52.0,4.0,4.0,,,,,,,,,,,,,rot,red,r,1.0,r,1.0,0.8024265999999898,,,,,,,,,,4.0,4.0,52.0,1.0,281.2948472999999,,,,,,,,,,,,,,,,,281.2800299999999,281.64438199999995,282.443427,282.427473,,,,,,,,,,,,,,,,,,,,,,,,,,,,,,,,,,,282.42890539999985,282.443427,282.443427,283.26161809999985,r,1.0,0.8024265999999898,,,,,sub-211,1,stroop_test,59.9086153980995,
,,,,53.0,5.0,4.0,,,,,,,,,,,,,blau,blue,b,1.0,b,1.0,0.7836582999998427,,,,,,,,,,4.0,5.0,53.0,6.0,283.2761823999999,,,,,,,,,,,,,,,,,283.26213800000005,283.62579459999984,284.42490899999984,284.4099357,,,,,,,,,,,,,,,,,,,,,,,,,,,,,,,,,,,284.4144202,284.42490899999984,284.42490899999984,285.21256849999986,b,1.0,0.7836582999998427,,,,,sub-211,1,stroop_test,59.9086153980995,
,,,,54.0,6.0,4.0,,,,,,,,,,,,,rot,yellow,g,0.0,g,1.0,0.7195854999999938,,,,,,,,,,4.0,6.0,54.0,3.0,285.22432379999987,,,,,,,,,,,,,,,,,285.2130499,286.02391850000004,286.8394942,286.8238233,,,,,,,,,,,,,,,,,,,,,,,,,,,,,,,,,,,286.8277063999999,286.8394942,286.8394942,287.5728589999999,g,1.0,0.7195854999999938,,,,,sub-211,1,stroop_test,59.9086153980995,
,,,,55.0,7.0,4.0,,,,,,,,,,,,,gelb,blue,b,0.0,b,1.0,1.2334837999999309,,,,,,,,,,4.0,7.0,55.0,9.0,287.58838079999987,,,,,,,,,,,,,,,,,287.5730486,288.7876008999999,289.58689349999986,289.57148429999984,,,,,,,,,,,,,,,,,,,,,,,,,,,,,,,,,,,289.57541049999986,289.58689349999986,289.58689349999986,290.8375323999999,b,1.0,1.2334837999999309,,,,,sub-211,1,stroop_test,59.9086153980995,
,,,,56.0,8.0,4.0,,,,,,,,,,,,,gelb,yellow,g,1.0,g,1.0,0.8084776999999121,,,,,,,,,,4.0,8.0,56.0,11.0,290.8523155999999,,,,,,,,,,,,,,,,,290.8380073999999,290.95229470000004,291.7516042,291.736392,,,,,,,,,,,,,,,,,,,,,,,,,,,,,,,,,,,291.73720890000004,291.7516042,291.7516042,292.56828129999985,g,1.0,0.8084776999999121,,,,,sub-211,1,stroop_test,59.9086153980995,
,,,,57.0,9.0,4.0,,,,,,,,,,,,,gelb,red,r,0.0,r,1.0,1.4693130000000565,,,,,,,,,,4.0,9.0,57.0,8.0,292.58382800000004,,,,,,,,,,,,,,,,,292.5685621,292.68380379999985,293.48305059999984,293.4665353999999,,,,,,,,,,,,,,,,,,,,,,,,,,,,,,,,,,,293.4667766,293.48305059999984,293.48305059999984,294.96706199999994,r,1.0,1.4693130000000565,,,,,sub-211,1,stroop_test,59.9086153980995,
,,,,58.0,10.0,4.0,,,,,,,,,,,,,rot,red,r,1.0,r,1.0,0.5702522000001409,,,,,,,,,,4.0,10.0,58.0,0.0,294.9818028,,,,,,,,,,,,,,,,,294.96758709999995,296.1804947999999,296.9800399999999,296.9647777,,,,,,,,,,,,,,,,,,,,,,,,,,,,,,,,,,,296.9694030999999,296.9800399999999,296.9800399999999,297.5648704,r,1.0,0.5702522000001409,,,,,sub-211,1,stroop_test,59.9086153980995,
,,,,59.0,11.0,4.0,,,,,,,,,,,,,rot,blue,b,0.0,b,1.0,0.8974729000001389,,,,,,,,,,4.0,11.0,59.0,2.0,297.579358,,,,,,,,,,,,,,,,,297.5654520999999,298.3786975999999,299.1779772,299.16161969999985,,,,,,,,,,,,,,,,,,,,,,,,,,,,,,,,,,,299.161973,299.1779772,299.1779772,300.0796711999999,b,1.0,0.8974729000001389,,,,,sub-211,1,stroop_test,59.9086153980995,
,,,,60.0,0.0,5.0,,,,,,,,,,,,,blau,blue,b,1.0,b,1.0,0.7599325999999564,,,,,,,,,,5.0,0.0,60.0,5.0,300.09373430000005,,,,,,,,,,,,,,,,,300.08015269999987,300.893151,301.69235419999995,301.67606909999995,,,,,,,,,,,,,,,,,,,,,,,,,,,,,,,,,,,301.67779199999995,301.69235419999995,301.69235419999995,302.45964359999994,b,1.0,0.7599325999999564,,,,,sub-211,1,stroop_test,59.9086153980995,
,,,,61.0,1.0,5.0,,,,,,,,,,,,,blau,red,r,0.0,r,1.0,0.8716225999999097,,,,,,,,,,5.0,1.0,61.0,4.0,302.4749006,,,,,,,,,,,,,,,,,302.4600458,302.82463929999994,303.6236331,303.60861090000003,,,,,,,,,,,,,,,,,,,,,,,,,,,,,,,,,,,303.60946449999983,303.6236331,303.6236331,304.50828019999994,r,1.0,0.8716225999999097,,,,,sub-211,1,stroop_test,59.9086153980995,
,,,,62.0,2.0,5.0,,,,,,,,,,,,,rot,red,r,1.0,r,1.0,0.7569645999999466,,,,,,,,,,5.0,2.0,62.0,1.0,304.5229947999999,,,,,,,,,,,,,,,,,304.50877990000004,305.32207530000005,306.1215066999998,306.1062233,,,,,,,,,,,,,,,,,,,,,,,,,,,,,,,,,,,306.11063079999985,306.1215066999998,306.1215066999998,306.88777600000003,r,1.0,0.7569645999999466,,,,,sub-211,1,stroop_test,59.9086153980995,
,,,,63.0,3.0,5.0,,,,,,,,,,,,,gelb,yellow,g,1.0,g,1.0,0.7047914999998284,,,,,,,,,,5.0,3.0,63.0,11.0,306.9037268,,,,,,,,,,,,,,,,,306.8879376,307.7033684999999,308.5024799,308.4871025,,,,,,,,,,,,,,,,,,,,,,,,,,,,,,,,,,,308.4909487,308.5024799,308.5024799,309.2199297,g,1.0,0.7047914999998284,,,,,sub-211,1,stroop_test,59.9086153980995,
,,,,64.0,4.0,5.0,,,,,,,,,,,,,blau,blue,b,1.0,b,1.0,1.032924299999877,,,,,,,,,,5.0,4.0,64.0,6.0,309.23491879999983,,,,,,,,,,,,,,,,,309.22038669999984,310.4340333,311.23318419999987,311.21861390000004,,,,,,,,,,,,,,,,,,,,,,,,,,,,,,,,,,,311.22194249999984,311.23318419999987,311.23318419999987,312.28485479999995,b,1.0,1.032924299999877,,,,,sub-211,1,stroop_test,59.9086153980995,
,,,,65.0,5.0,5.0,,,,,,,,,,,,,gelb,red,r,0.0,r,1.0,1.86781689999998,,,,,,,,,,5.0,5.0,65.0,8.0,312.2992227,,,,,,,,,,,,,,,,,312.2853564,312.6482596999999,313.4479368,313.43176359999984,,,,,,,,,,,,,,,,,,,,,,,,,,,,,,,,,,,313.43527670000003,313.4479368,313.4479368,315.3318297999999,r,1.0,1.86781689999998,,,,,sub-211,1,stroop_test,59.9086153980995,
,,,,66.0,6.0,5.0,,,,,,,,,,,,,rot,yellow,g,0.0,g,1.0,0.9901534000000538,,,,,,,,,,5.0,6.0,66.0,3.0,315.3460213999999,,,,,,,,,,,,,,,,,315.3324531999999,316.54849620000005,317.3606628,317.34538699999985,,,,,,,,,,,,,,,,,,,,,,,,,,,,,,,,,,,317.3506849999999,317.3606628,317.3606628,318.3604378,g,1.0,0.9901534000000538,,,,,sub-211,1,stroop_test,59.9086153980995,
,,,,67.0,7.0,5.0,,,,,,,,,,,,,rot,red,r,1.0,r,1.0,1.15770590000011,,,,,,,,,,5.0,7.0,67.0,0.0,318.3764219,,,,,,,,,,,,,,,,,318.36067979999984,319.57578709999984,320.3914944999999,320.37659970000004,,,,,,,,,,,,,,,,,,,,,,,,,,,,,,,,,,,320.37736599999994,320.3914944999999,320.3914944999999,321.55864599999995,r,1.0,1.15770590000011,,,,,sub-211,1,stroop_test,59.9086153980995,
,,,,68.0,8.0,5.0,,,,,,,,,,,,,gelb,blue,b,0.0,b,1.0,0.91220589999989,,,,,,,,,,5.0,8.0,68.0,9.0,321.57372999999984,,,,,,,,,,,,,,,,,321.5590795999999,322.7726599,323.58822740000005,323.57207389999985,,,,,,,,,,,,,,,,,,,,,,,,,,,,,,,,,,,323.57412929999987,323.58822740000005,323.58822740000005,324.5050739999999,b,1.0,0.91220589999989,,,,,sub-211,1,stroop_test,59.9086153980995,
,,,,69.0,9.0,5.0,,,,,,,,,,,,,gelb,yellow,g,1.0,r,0.0,3.2225302000001648,,,,,,,,,,5.0,9.0,69.0,10.0,324.5209975999999,,,,,,,,,,,,,,,,,324.5053707,325.71978549999994,326.5190468999999,326.50604969999995,,,,,,,,,,,,,,,,,,,,,,,,,,,,,,,,,,,326.50630849999993,326.5190468999999,326.5190468999999,329.7505704,r,0.0,3.2225302000001648,,,,,sub-211,1,stroop_test,59.9086153980995,
,,,,70.0,10.0,5.0,,,,,,,,,,,,,blau,yellow,g,0.0,g,1.0,1.433373900000106,,,,,,,,,,5.0,10.0,70.0,7.0,329.7657677,,,,,,,,,,,,,,,,,329.75098579999985,330.56534650000003,331.36457399999995,331.34826739999994,,,,,,,,,,,,,,,,,,,,,,,,,,,,,,,,,,,331.3496806999999,331.36457399999995,331.36457399999995,332.8141833,g,1.0,1.433373900000106,,,,,sub-211,1,stroop_test,59.9086153980995,
,,,,71.0,11.0,5.0,,,,,,,,,,,,,rot,blue,b,0.0,b,1.0,0.9507774000001064,,,,,,,,,,5.0,11.0,71.0,2.0,332.8299817,,,,,,,,,,,,,,,,,332.8145715999999,333.17964859999984,333.9952424999999,333.97928,,,,,,,,,,,,,,,,,,,,,,,,,,,,,,,,,,,333.98085089999995,333.9952424999999,333.9952424999999,334.96316609999985,b,1.0,0.9507774000001064,,,,,sub-211,1,stroop_test,59.9086153980995,
,,,,72.0,0.0,6.0,,,,,,,,,,,,,gelb,red,r,0.0,r,1.0,0.8951141000000007,,,,,,,,,,6.0,0.0,72.0,8.0,334.9778153999998,,,,,,,,,,,,,,,,,334.96372670000005,335.776983,336.5926282999999,336.57640790000005,,,,,,,,,,,,,,,,,,,,,,,,,,,,,,,,,,,336.57778029999986,336.5926282999999,336.5926282999999,337.49352350000004,r,1.0,0.8951141000000007,,,,,sub-211,1,stroop_test,59.9086153980995,
,,,,73.0,1.0,6.0,,,,,,,,,,,,,gelb,yellow,g,1.0,g,1.0,1.2005128000000695,,,,,,,,,,6.0,1.0,73.0,11.0,337.5086572,,,,,,,,,,,,,,,,,337.4939887999999,337.6082862999999,338.4078264,338.3922613,,,,,,,,,,,,,,,,,,,,,,,,,,,,,,,,,,,338.3928644,338.4078264,338.4078264,339.62445089999983,g,1.0,1.2005128000000695,,,,,sub-211,1,stroop_test,59.9086153980995,
,,,,74.0,2.0,6.0,,,,,,,,,,,,,blau,red,r,0.0,r,1.0,0.7480080000000271,,,,,,,,,,6.0,2.0,74.0,4.0,339.64009169999986,,,,,,,,,,,,,,,,,339.62478409999994,339.98976459999994,340.78894990000003,340.7740113,,,,,,,,,,,,,,,,,,,,,,,,,,,,,,,,,,,340.7786925999999,340.78894990000003,340.78894990000003,341.53875500000004,r,1.0,0.7480080000000271,,,,,sub-211,1,stroop_test,59.9086153980995,
,,,,75.0,3.0,6.0,,,,,,,,,,,,,gelb,blue,b,0.0,b,1.0,0.7535550000000057,,,,,,,,,,6.0,3.0,75.0,9.0,341.5549722999999,,,,,,,,,,,,,,,,,341.53896599999985,341.8878685,342.6871140999999,342.67219669999986,,,,,,,,,,,,,,,,,,,,,,,,,,,,,,,,,,,342.6768201,342.6871140999999,342.6871140999999,343.4541923,b,1.0,0.7535550000000057,,,,,sub-211,1,stroop_test,59.9086153980995,
,,,,76.0,4.0,6.0,,,,,,,,,,,,,blau,yellow,g,0.0,g,1.0,1.2645614999998998,,,,,,,,,,6.0,4.0,76.0,7.0,343.47010899999987,,,,,,,,,,,,,,,,,343.45453640000005,343.5697035999999,344.36893310000005,344.35348499999986,,,,,,,,,,,,,,,,,,,,,,,,,,,,,,,,,,,344.35825269999987,344.36893310000005,344.36893310000005,345.6372291,g,1.0,1.2645614999998998,,,,,sub-211,1,stroop_test,59.9086153980995,
,,,,77.0,5.0,6.0,,,,,,,,,,,,,rot,yellow,g,0.0,g,1.0,0.6015904999999293,,,,,,,,,,6.0,5.0,77.0,3.0,345.6508801,,,,,,,,,,,,,,,,,345.6378454999999,346.0009018999999,346.8000276999999,346.78392689999987,,,,,,,,,,,,,,,,,,,,,,,,,,,,,,,,,,,346.7854929,346.8000276999999,346.8000276999999,347.4177202999999,g,1.0,0.6015904999999293,,,,,sub-211,1,stroop_test,59.9086153980995,
,,,,78.0,6.0,6.0,,,,,,,,,,,,,blau,blue,b,1.0,b,1.0,2.969429699999864,,,,,,,,,,6.0,6.0,78.0,5.0,347.43302359999984,,,,,,,,,,,,,,,,,347.4182111,347.53248039999994,348.33188189999987,348.3164420999999,,,,,,,,,,,,,,,,,,,,,,,,,,,,,,,,,,,348.3202177999999,348.33188189999987,348.33188189999987,351.3144978,b,1.0,2.969429699999864,,,,,sub-211,1,stroop_test,59.9086153980995,
,,,,79.0,7.0,6.0,,,,,,,,,,,,,rot,red,r,1.0,r,1.0,1.01536370000008,,,,,,,,,,6.0,7.0,79.0,1.0,351.3290342,,,,,,,,,,,,,,,,,351.31503439999983,351.6788538999999,352.4779954999999,352.4623133,,,,,,,,,,,,,,,,,,,,,,,,,,,,,,,,,,,352.4663037999999,352.4779954999999,352.4779954999999,353.4967539,r,1.0,1.01536370000008,,,,,sub-211,1,stroop_test,59.9086153980995,
,,,,80.0,8.0,6.0,,,,,,,,,,,,,gelb,yellow,g,1.0,g,1.0,0.782836800000041,,,,,,,,,,6.0,8.0,80.0,10.0,353.5106223,,,,,,,,,,,,,,,,,353.4971699,354.70942360000004,355.5085503,355.49310489999993,,,,,,,,,,,,,,,,,,,,,,,,,,,,,,,,,,,355.4969271,355.5085503,355.5085503,356.2956187,g,1.0,0.782836800000041,,,,,sub-211,1,stroop_test,59.9086153980995,
,,,,81.0,9.0,6.0,,,,,,,,,,,,,rot,blue,b,0.0,b,1.0,0.9484095999998772,,,,,,,,,,6.0,9.0,81.0,2.0,356.3078022,,,,,,,,,,,,,,,,,356.2961243999998,356.40762240000004,357.2067706999999,357.19103559999985,,,,,,,,,,,,,,,,,,,,,,,,,,,,,,,,,,,357.1935136,357.2067706999999,357.2067706999999,358.1590529,b,1.0,0.9484095999998772,,,,,sub-211,1,stroop_test,59.9086153980995,
,,,,82.0,10.0,6.0,,,,,,,,,,,,,blau,blue,b,1.0,b,1.0,0.6830863000000136,,,,,,,,,,6.0,10.0,82.0,6.0,358.1728077,,,,,,,,,,,,,,,,,358.1595668,358.52208410000003,359.32149159999994,359.3058099,,,,,,,,,,,,,,,,,,,,,,,,,,,,,,,,,,,359.30928849999987,359.32149159999994,359.32149159999994,360.0074732999999,b,1.0,0.6830863000000136,,,,,sub-211,1,stroop_test,59.9086153980995,
,,,,83.0,11.0,6.0,,,,,,,,,,,,,rot,red,r,1.0,r,1.0,0.6271876999999222,,,,,,,,,,6.0,11.0,83.0,0.0,360.0209714,,,,,,,,,,,,,,,,,360.00797909999983,360.3708394999999,361.16995870000005,361.15466849999984,,,,,,,,,,,,,,,,,,,,,,,,,,,,,,,,,,,361.1588764999999,361.16995870000005,361.16995870000005,361.8040039999999,r,1.0,0.6271876999999222,,,,,sub-211,1,stroop_test,59.9086153980995,
,,,,84.0,0.0,7.0,,,,,,,,,,,,,rot,blue,b,0.0,b,1.0,0.6588636000001316,,,,,,,,,,7.0,0.0,84.0,2.0,361.8192873999999,,,,,,,,,,,,,,,,,361.8044479999999,362.1689603,362.9683840999999,362.9522723,,,,,,,,,,,,,,,,,,,,,,,,,,,,,,,,,,,362.9527384999999,362.9683840999999,362.9683840999999,363.6346408,b,1.0,0.6588636000001316,,,,,sub-211,1,stroop_test,59.9086153980995,
,,,,85.0,1.0,7.0,,,,,,,,,,,,,blau,red,r,0.0,r,1.0,0.5155907000000752,,,,,,,,,,7.0,1.0,85.0,4.0,363.6507302,,,,,,,,,,,,,,,,,363.634857,363.9838955999999,364.7831772,364.7668371,,,,,,,,,,,,,,,,,,,,,,,,,,,,,,,,,,,364.7685988999999,364.7831772,364.7831772,365.3017106,r,1.0,0.5155907000000752,,,,,sub-211,1,stroop_test,59.9086153980995,
,,,,86.0,2.0,7.0,,,,,,,,,,,,,gelb,blue,b,0.0,b,1.0,0.5213508000001639,,,,,,,,,,7.0,2.0,86.0,9.0,365.3159996,,,,,,,,,,,,,,,,,365.3022217999999,365.4157725999999,366.2148768,366.1987913,,,,,,,,,,,,,,,,,,,,,,,,,,,,,,,,,,,366.2002181999999,366.2148768,366.2148768,366.74892179999983,b,1.0,0.5213508000001639,,,,,sub-211,1,stroop_test,59.9086153980995,
,,,,87.0,3.0,7.0,,,,,,,,,,,,,gelb,yellow,g,1.0,g,1.0,0.6298047000000224,,,,,,,,,,7.0,3.0,87.0,11.0,366.7648734,,,,,,,,,,,,,,,,,366.7492817,367.5639234,368.3633878999999,368.3478786999999,,,,,,,,,,,,,,,,,,,,,,,,,,,,,,,,,,,368.3485467,368.3633878999999,368.3633878999999,368.9965617,g,1.0,0.6298047000000224,,,,,sub-211,1,stroop_test,59.9086153980995,
,,,,88.0,4.0,7.0,,,,,,,,,,,,,rot,red,r,1.0,r,1.0,1.617218899999898,,,,,,,,,,7.0,4.0,88.0,1.0,369.0123362,,,,,,,,,,,,,,,,,368.9967789,369.0956812,369.8949952,369.8788173999999,,,,,,,,,,,,,,,,,,,,,,,,,,,,,,,,,,,369.8807781999999,369.8949952,369.8949952,371.5293893000001,r,1.0,1.617218899999898,,,,,sub-211,1,stroop_test,59.9086153980995,
,,,,89.0,5.0,7.0,,,,,,,,,,,,,rot,red,r,1.0,r,1.0,0.5241766999999982,,,,,,,,,,7.0,5.0,89.0,0.0,371.5433137999999,,,,,,,,,,,,,,,,,371.5299671,372.3425628,373.1422275,373.1256595,,,,,,,,,,,,,,,,,,,,,,,,,,,,,,,,,,,373.1260565999999,373.1422275,373.1422275,373.67678609999984,r,1.0,0.5241766999999982,,,,,sub-211,1,stroop_test,59.9086153980995,
,,,,90.0,6.0,7.0,,,,,,,,,,,,,gelb,red,r,0.0,r,1.0,1.1594930999999633,,,,,,,,,,7.0,6.0,90.0,8.0,373.6914305999999,,,,,,,,,,,,,,,,,373.6772802999999,374.8906124999999,375.7065158,375.6900668999999,,,,,,,,,,,,,,,,,,,,,,,,,,,,,,,,,,,375.6925434,375.7065158,375.7065158,376.8732587,r,1.0,1.1594930999999633,,,,,sub-211,1,stroop_test,59.9086153980995,
,,,,91.0,7.0,7.0,,,,,,,,,,,,,gelb,yellow,g,1.0,g,1.0,0.865091300000131,,,,,,,,,,7.0,7.0,91.0,10.0,376.88842609999983,,,,,,,,,,,,,,,,,376.8738358999999,376.9885238,377.80418569999983,377.7880774999999,,,,,,,,,,,,,,,,,,,,,,,,,,,,,,,,,,,377.788366,377.80418569999983,377.80418569999983,378.6718163999999,g,1.0,0.865091300000131,,,,,sub-211,1,stroop_test,59.9086153980995,
,,,,92.0,8.0,7.0,,,,,,,,,,,,,blau,yellow,g,0.0,g,1.0,0.849181900000076,,,,,,,,,,7.0,8.0,92.0,7.0,378.6870632999999,,,,,,,,,,,,,,,,,378.6721743000001,379.0365575999999,379.85256719999984,379.8358002,,,,,,,,,,,,,,,,,,,,,,,,,,,,,,,,,,,379.83742429999984,379.85256719999984,379.85256719999984,380.7045920000001,g,1.0,0.849181900000076,,,,,sub-211,1,stroop_test,59.9086153980995,
,,,,93.0,9.0,7.0,,,,,,,,,,,,,blau,blue,b,1.0,b,1.0,0.769277799999827,,,,,,,,,,7.0,9.0,93.0,5.0,380.71822309999993,,,,,,,,,,,,,,,,,380.7049253999999,381.916835,382.7164765,382.7013115999998,,,,,,,,,,,,,,,,,,,,,,,,,,,,,,,,,,,382.7020865,382.7164765,382.7164765,383.50163210000005,b,1.0,0.769277799999827,,,,,sub-211,1,stroop_test,59.9086153980995,
,,,,94.0,10.0,7.0,,,,,,,,,,,,,blau,blue,b,1.0,b,1.0,0.7390103000000181,,,,,,,,,,7.0,10.0,94.0,6.0,383.5157142000001,,,,,,,,,,,,,,,,,383.5022081,384.7149568,385.5302697,385.51396879999993,,,,,,,,,,,,,,,,,,,,,,,,,,,,,,,,,,,385.5142407999999,385.5302697,385.5302697,386.2819182999999,b,1.0,0.7390103000000181,,,,,sub-211,1,stroop_test,59.9086153980995,
,,,,95.0,11.0,7.0,,,,,,,,,,,,,rot,yellow,g,0.0,g,1.0,1.000960300000088,,,,,,,,,,7.0,11.0,95.0,3.0,386.2964262,,,,,,,,,,,,,,,,,386.2824974999999,387.0956985,387.8948550999999,387.8797666,,,,,,,,,,,,,,,,,,,,,,,,,,,,,,,,,,,387.8842967999999,387.8948550999999,387.8948550999999,388.9128458,g,1.0,1.000960300000088,,,,,sub-211,1,stroop_test,59.9086153980995,
,,,,96.0,0.0,8.0,,,,,,,,,,,,,gelb,blue,b,0.0,b,1.0,0.802266500000087,,,,,,,,,,8.0,0.0,96.0,9.0,388.9274711999999,,,,,,,,,,,,,,,,,388.91337909999993,389.2771072999999,390.07615309999983,390.061129,,,,,,,,,,,,,,,,,,,,,,,,,,,,,,,,,,,390.065188,390.07615309999983,390.07615309999983,390.89318719999983,b,1.0,0.802266500000087,,,,,sub-211,1,stroop_test,59.9086153980995,
,,,,97.0,1.0,8.0,,,,,,,,,,,,,rot,red,r,1.0,r,1.0,0.6819561999998314,,,,,,,,,,8.0,1.0,97.0,1.0,390.9085852999999,,,,,,,,,,,,,,,,,390.8936028999999,391.0087759000001,391.8082600999999,391.7925029999999,,,,,,,,,,,,,,,,,,,,,,,,,,,,,,,,,,,391.7966257000001,391.8082600999999,391.8082600999999,392.4939830999999,r,1.0,0.6819561999998314,,,,,sub-211,1,stroop_test,59.9086153980995,
,,,,98.0,2.0,8.0,,,,,,,,,,,,,gelb,yellow,g,1.0,g,1.0,0.7572413999998844,,,,,,,,,,8.0,2.0,98.0,11.0,392.5071518999998,,,,,,,,,,,,,,,,,392.4944553,393.3067087,394.1057309999999,394.0911787,,,,,,,,,,,,,,,,,,,,,,,,,,,,,,,,,,,394.0943656,394.1057309999999,394.1057309999999,394.8729271,g,1.0,0.7572413999998844,,,,,sub-211,1,stroop_test,59.9086153980995,
,,,,99.0,3.0,8.0,,,,,,,,,,,,,rot,yellow,g,0.0,g,1.0,0.6686340999999629,,,,,,,,,,8.0,3.0,99.0,3.0,394.88836619999984,,,,,,,,,,,,,,,,,394.8733811,395.2382264,396.0538569999999,396.037838,,,,,,,,,,,,,,,,,,,,,,,,,,,,,,,,,,,396.0397693,396.0538569999999,396.0538569999999,396.7387415999999,g,1.0,0.6686340999999629,,,,,sub-211,1,stroop_test,59.9086153980995,
,,,,100.0,4.0,8.0,,,,,,,,,,,,,blau,blue,b,1.0,b,1.0,1.0236442000000352,,,,,,,,,,8.0,4.0,100.0,5.0,396.7532925999999,,,,,,,,,,,,,,,,,396.7392823,397.9517572999998,398.7514521999999,398.7356336999999,,,,,,,,,,,,,,,,,,,,,,,,,,,,,,,,,,,398.7391897,398.7514521999999,398.7514521999999,399.7847127999999,b,1.0,1.0236442000000352,,,,,sub-211,1,stroop_test,59.9086153980995,
,,,,101.0,5.0,8.0,,,,,,,,,,,,,gelb,red,r,0.0,r,1.0,1.388793600000099,,,,,,,,,,8.0,5.0,101.0,8.0,399.8004899999999,,,,,,,,,,,,,,,,,399.7848892,400.5996091,401.3987233,401.3836501999999,,,,,,,,,,,,,,,,,,,,,,,,,,,,,,,,,,,401.3873401999999,401.3987233,401.3987233,402.7995346,r,1.0,1.388793600000099,,,,,sub-211,1,stroop_test,59.9086153980995,
,,,,102.0,6.0,8.0,,,,,,,,,,,,,rot,blue,b,0.0,b,1.0,1.2381098000000748,,,,,,,,,,8.0,6.0,102.0,2.0,402.8141188,,,,,,,,,,,,,,,,,402.7999903,403.613683,404.42953939999984,404.4131152,,,,,,,,,,,,,,,,,,,,,,,,,,,,,,,,,,,404.4155128,404.42953939999984,404.42953939999984,405.6801275999999,b,1.0,1.2381098000000748,,,,,sub-211,1,stroop_test,59.9086153980995,
,,,,103.0,7.0,8.0,,,,,,,,,,,,,blau,blue,b,1.0,b,1.0,0.5364254999999503,,,,,,,,,,8.0,7.0,103.0,6.0,405.6948774999999,,,,,,,,,,,,,,,,,405.6806683,406.8939066,407.6927983000001,407.6774985,,,,,,,,,,,,,,,,,,,,,,,,,,,,,,,,,,,407.6812164,407.6927983000001,407.6927983000001,408.2442581999999,b,1.0,0.5364254999999503,,,,,sub-211,1,stroop_test,59.9086153980995,
,,,,104.0,8.0,8.0,,,,,,,,,,,,,rot,red,r,1.0,r,1.0,0.983215599999994,,,,,,,,,,8.0,8.0,104.0,0.0,408.2592652999999,,,,,,,,,,,,,,,,,408.24470039999983,408.6084925,409.4080816999999,409.3924216,,,,,,,,,,,,,,,,,,,,,,,,,,,,,,,,,,,409.39617410000005,409.4080816999999,409.4080816999999,410.3952843,r,1.0,0.983215599999994,,,,,sub-211,1,stroop_test,59.9086153980995,
,,,,105.0,9.0,8.0,,,,,,,,,,,,,blau,yellow,g,0.0,g,1.0,0.6745074999998906,,,,,,,,,,8.0,9.0,105.0,7.0,410.4071225999999,,,,,,,,,,,,,,,,,410.3957619,410.75645639999993,411.5562157,411.5403873,,,,,,,,,,,,,,,,,,,,,,,,,,,,,,,,,,,411.5451097,411.5562157,411.5562157,412.2405219999998,g,1.0,0.6745074999998906,,,,,sub-211,1,stroop_test,59.9086153980995,
,,,,106.0,10.0,8.0,,,,,,,,,,,,,blau,red,r,0.0,r,1.0,1.064375299999938,,,,,,,,,,8.0,10.0,106.0,4.0,412.2556358,,,,,,,,,,,,,,,,,412.24099349999983,412.3553130999999,413.1544329999999,413.1395708,,,,,,,,,,,,,,,,,,,,,,,,,,,,,,,,,,,413.1404465999999,413.1544329999999,413.1544329999999,414.2222692,r,1.0,1.064375299999938,,,,,sub-211,1,stroop_test,59.9086153980995,
,,,,107.0,11.0,8.0,,,,,,,,,,,,,gelb,yellow,g,1.0,g,1.0,0.8073727000000872,,,,,,,,,,8.0,11.0,107.0,10.0,414.23693289999983,,,,,,,,,,,,,,,,,414.2227338,415.0358469999999,415.8352992,415.8189654,,,,,,,,,,,,,,,,,,,,,,,,,,,,,,,,,,,415.8208009999999,415.8352992,415.8352992,416.6531178999999,g,1.0,0.8073727000000872,,,,,sub-211,1,stroop_test,59.9086153980995,
,,,,108.0,0.0,9.0,,,,,,,,,,,,,rot,red,r,1.0,r,1.0,1.0469077999998715,,,,,,,,,,9.0,0.0,108.0,1.0,416.6677224999999,,,,,,,,,,,,,,,,,416.6536285,416.767914,417.5835921999999,417.5671049,,,,,,,,,,,,,,,,,,,,,,,,,,,,,,,,,,,417.5690884999999,417.5835921999999,417.5835921999999,418.6345827999999,r,1.0,1.0469077999998715,,,,,sub-211,1,stroop_test,59.9086153980995,
,,,,109.0,1.0,9.0,,,,,,,,,,,,,blau,yellow,g,0.0,g,1.0,1.0961687999999867,,,,,,,,,,9.0,1.0,109.0,7.0,418.6494631000001,,,,,,,,,,,,,,,,,418.63506399999983,418.7494388999999,419.5486388,419.5329829,,,,,,,,,,,,,,,,,,,,,,,,,,,,,,,,,,,419.53671999999983,419.5486388,419.5486388,420.6497923,g,1.0,1.0961687999999867,,,,,sub-211,1,stroop_test,59.9086153980995,
,,,,110.0,2.0,9.0,,,,,,,,,,,,,gelb,yellow,g,1.0,g,1.0,0.7069850999998835,,,,,,,,,,9.0,2.0,110.0,10.0,420.6643558999999,,,,,,,,,,,,,,,,,420.6502501,420.7643742999999,421.5802524999999,421.5640698,,,,,,,,,,,,,,,,,,,,,,,,,,,,,,,,,,,421.5654356999999,421.5802524999999,421.5802524999999,422.2981272,g,1.0,0.7069850999998835,,,,,sub-211,1,stroop_test,59.9086153980995,
,,,,111.0,3.0,9.0,,,,,,,,,,,,,rot,yellow,g,0.0,g,1.0,0.7942582999999104,,,,,,,,,,9.0,3.0,111.0,3.0,422.3126273999999,,,,,,,,,,,,,,,,,422.2986824,422.6623181,423.4614131999999,423.4457456,,,,,,,,,,,,,,,,,,,,,,,,,,,,,,,,,,,423.449382,423.4614131999999,423.4614131999999,424.2629989,g,1.0,0.7942582999999104,,,,,sub-211,1,stroop_test,59.9086153980995,
,,,,112.0,4.0,9.0,,,,,,,,,,,,,rot,blue,b,0.0,b,1.0,0.7807172999998784,,,,,,,,,,9.0,4.0,112.0,2.0,424.2773482999999,,,,,,,,,,,,,,,,,424.2635522000001,424.37728659999993,425.1765493,425.1605250999999,,,,,,,,,,,,,,,,,,,,,,,,,,,,,,,,,,,425.1609286,425.1765493,425.1765493,425.9609742,b,1.0,0.7807172999998784,,,,,sub-211,1,stroop_test,59.9086153980995,
,,,,113.0,5.0,9.0,,,,,,,,,,,,,blau,red,r,0.0,r,1.0,0.9545364000000518,,,,,,,,,,9.0,5.0,113.0,4.0,425.9760402,,,,,,,,,,,,,,,,,425.9613804999999,426.3255572000001,427.1247493999999,427.1097947999999,,,,,,,,,,,,,,,,,,,,,,,,,,,,,,,,,,,427.1153064,427.1247493999999,427.1247493999999,428.0910643,r,1.0,0.9545364000000518,,,,,sub-211,1,stroop_test,59.9086153980995,
,,,,114.0,6.0,9.0,,,,,,,,,,,,,gelb,yellow,g,1.0,g,1.0,0.6582347999999456,,,,,,,,,,9.0,6.0,114.0,11.0,428.1072952,,,,,,,,,,,,,,,,,428.0913045,428.19037089999983,428.9898269999999,428.9743275999999,,,,,,,,,,,,,,,,,,,,,,,,,,,,,,,,,,,428.9785483999999,428.9898269999999,428.9898269999999,429.6577805,g,1.0,0.6582347999999456,,,,,sub-211,1,stroop_test,59.9086153980995,
,,,,115.0,7.0,9.0,,,,,,,,,,,,,gelb,red,r,0.0,r,1.0,0.9208071000000472,,,,,,,,,,9.0,7.0,115.0,8.0,429.6726122999999,,,,,,,,,,,,,,,,,429.6582805000001,430.471378,431.2746161999999,431.2548907999999,,,,,,,,,,,,,,,,,,,,,,,,,,,,,,,,,,,431.2551547000001,431.2746161999999,431.2746161999999,432.2056553,r,1.0,0.9208071000000472,,,,,sub-211,1,stroop_test,59.9086153980995,
,,,,116.0,8.0,9.0,,,,,,,,,,,,,gelb,blue,b,0.0,b,1.0,0.7018574000001081,,,,,,,,,,9.0,8.0,116.0,9.0,432.2200046999999,,,,,,,,,,,,,,,,,432.2062513999999,432.5698270999999,433.3688496999998,433.3532952000001,,,,,,,,,,,,,,,,,,,,,,,,,,,,,,,,,,,433.3539430999999,433.3688496999998,433.3688496999998,434.0870717999999,b,1.0,0.7018574000001081,,,,,sub-211,1,stroop_test,59.9086153980995,
,,,,117.0,9.0,9.0,,,,,,,,,,,,,blau,blue,b,1.0,b,1.0,0.605489499999976,,,,,,,,,,9.0,9.0,117.0,6.0,434.1017285,,,,,,,,,,,,,,,,,434.0875968999999,434.20175169999993,435.0007805999999,434.9854126,,,,,,,,,,,,,,,,,,,,,,,,,,,,,,,,,,,434.9891372,435.0007805999999,435.0007805999999,435.6193125,b,1.0,0.605489499999976,,,,,sub-211,1,stroop_test,59.9086153980995,
,,,,118.0,10.0,9.0,,,,,,,,,,,,,blau,blue,b,1.0,b,1.0,0.621413000000075,,,,,,,,,,9.0,10.0,118.0,5.0,435.63353859999984,,,,,,,,,,,,,,,,,435.6199145999999,436.8326385999999,437.6314425999999,437.6166661,,,,,,,,,,,,,,,,,,,,,,,,,,,,,,,,,,,437.6174973,437.6314425999999,437.6314425999999,438.2654195999999,b,1.0,0.621413000000075,,,,,sub-211,1,stroop_test,59.9086153980995,
,,,,119.0,11.0,9.0,,,,,,,,,,,,,rot,red,r,1.0,r,1.0,0.5911556999999448,,,,,,,,,,9.0,11.0,119.0,0.0,438.2810359,,,,,,,,,,,,,,,,,438.2655852,438.6307870999999,439.4299024,439.4143036999999,,,,,,,,,,,,,,,,,,,,,,,,,,,,,,,,,,,439.4188236,439.4299024,439.4299024,440.0311827,r,1.0,0.5911556999999448,,,,,sub-211,1,stroop_test,59.9086153980995,
,,,,,,,,,,,,,,,,,,,,,,,,,,,,,,,,,,,,,,,,,,,,,,,,,,,,,,,,,,,,,,,,,,,,,,,,,,,,,,,,,,,,,,,,,,,,,,,,,,,,,,440.0314197,440.0462679999998,445.0420830000001,sub-211,1,stroop_test,59.9086153980995,
