direction,corrAns,randomInstr,practice_trials.thisRepN,practice_trials.thisTrialN,practice_trials.thisN,practice_trials.thisIndex,instr_trials.thisRepN,instr_trials.thisTrialN,instr_trials.thisN,instr_trials.thisIndex,test_trials.thisRepN,test_trials.thisTrialN,test_trials.thisN,test_trials.thisIndex,thisRow.t,notes,general_instruction.started,textGeneralInstr.started,respGeneralInstr.started,general_instruction.stopped,respGeneralInstr.keys,respGeneralInstr.rt,respGeneralInstr.duration,ITI.started,fixcross.started,fixcross.stopped,ITI.stopped,dots.started,backgroundDots.started,stimulusDots.started,respDots.started,dots.stopped,respDots.keys,respDots.corr,respDots.rt,respDots.duration,feedback.started,textFeedback.started,textFeedback.stopped,feedback.stopped,stimulusDots.stopped,info.started,textInfo.started,keyRespInfo.started,info.stopped,keyRespInfo.keys,keyRespInfo.rt,keyRespInfo.duration,test_instruction.started,textTestInstr.started,respTestInstr.started,test_instruction.stopped,respTestInstr.keys,respTestInstr.rt,respTestInstr.duration,random_instruction.started,textRandomInstr.started,respRandomInstr.started,random_instruction.stopped,respRandomInstr.keys,respRandomInstr.rt,respRandomInstr.duration,goodbye.started,textGoodbye.started,textGoodbye.stopped,goodbye.stopped,participant,session,expName,frameRate,Unnamed: 74
,,,,,,,,,,,,,,,,,0.0113132999977096,0.0168591000256128,0.0168591000256128,13.305103400023654,space,36.14904160000151,,,,,,,,,,,,,,,,,,,,,,,,,,,,,,,,,,,,,,,,,,,,,sub-004,1.0,random_dot,59.97746047328442,
right,right,,0.0,0.0,0.0,1.0,,,,,,,,,13.319314400025178,,,,,,,,,13.312255900003947,14.119524899986573,14.921089300012682,14.904204300022684,14.90424250002252,14.921089300012682,14.921089300012682,14.921089300012682,19.67268850002438,left,0.0,27.599530400009822,,19.673378699983004,19.685781900014263,20.18614260002505,20.170132600003853,,,,,,,,,,,,,,,,,,,,,,,,,,,sub-004,1.0,random_dot,59.97746047328442,
left,left,,0.0,1.0,1.0,0.0,,,,,,,,,20.18614260002505,,,,,,,,,20.170608300017197,20.28600089997053,21.0876909000217,21.070415100024547,21.07045160001144,21.0876909000217,21.0876909000217,21.0876909000217,23.12247609999031,right,0.0,24.89210960001219,,23.12294719996862,23.135708899993915,23.635808399994858,23.619955000001937,,,,,,,,,,,,,,,,,,,,,,,,,,,sub-004,1.0,random_dot,59.97746047328442,
left,left,,1.0,0.0,2.0,0.0,,,,,,,,,23.635808399994858,,,,,,,,,23.620385200018063,23.98588120000204,24.787999399995897,24.77005910000298,24.77008400001796,24.787999399995897,24.787999399995897,24.787999399995897,30.805327199981548,left,1.0,28.865538000012748,,30.805678899982013,30.81903939996846,31.319095699989703,31.3033697999781,29.77084890002152,,,,,,,,,,,,,,,,,,,,,,,,,,sub-004,1.0,random_dot,59.97746047328442,
right,right,,1.0,1.0,3.0,1.0,,,,,,,,,31.319095699989703,,,,,,,,,31.303859899984676,31.66951189999236,32.471017899981234,32.45319879997987,32.45322779996786,32.471017899981234,32.471017899981234,32.471017899981234,34.255567500018515,right,1.0,24.63250310003059,,34.25603260000935,34.269013300014194,34.76927759998944,34.75332650000928,,,,,,,,,,,,,,,,,,,,,,,,,,,sub-004,1.0,random_dot,59.97746047328442,
right,right,,2.0,0.0,4.0,1.0,,,,,,,,,34.76927759998944,,,,,,,,,34.75375299999723,35.11909430002561,35.9208745000069,35.90335719997529,35.90338490001159,35.9208745000069,35.9208745000069,35.9208745000069,39.906081499997526,left,0.0,26.834456900018267,,39.90638669999316,39.91922490001889,40.41918500000611,40.403011000016704,,,,,,,,,,,,,,,,,,,,,,,,,,,sub-004,1.0,random_dot,59.97746047328442,
left,left,,2.0,1.0,5.0,0.0,,,,,,,,,40.41918500000611,,,,,,,,,40.403398900001775,40.51903229998425,41.321052699990105,41.3035667000222,41.30360699997982,41.321052699990105,41.321052699990105,41.321052699990105,42.45540440001059,left,1.0,23.992353999987245,,42.45579019997968,42.46923829999287,42.96888840000611,42.95330729999114,,,,,,,,,,,,,,,,,,,,,,,,,,,sub-004,1.0,random_dot,59.97746047328442,
right,right,,3.0,0.0,6.0,1.0,,,,,,,,,42.96888840000611,,,,,,,,,42.9535545000108,43.76909760001581,44.57097310002428,44.55267820000881,44.55270320002455,44.57097310002428,44.57097310002428,44.57097310002428,45.33871729997918,right,1.0,23.62383920000866,,45.33916129998397,45.352573800017126,45.85238220001338,45.8359806999797,,,,,,,,,,,,,,,,,,,,,,,,,,,sub-004,1.0,random_dot,59.97746047328442,
left,left,,3.0,1.0,7.0,0.0,,,,,,,,,45.85238220001338,,,,,,,,,45.83634460001485,46.6528166999924,47.45423430000665,47.43681210000068,47.436844200012274,47.45423430000665,47.45423430000665,47.45423430000665,48.105367699987255,right,0.0,23.502107699983757,,48.10577359999297,48.11926230002428,48.61906330002239,48.60358719999204,,,,,,,,,,,,,,,,,,,,,,,,,,,sub-004,1.0,random_dot,59.97746047328442,
right,right,,4.0,0.0,8.0,1.0,,,,,,,,,48.61906330002239,,,,,,,,,48.6041437999811,48.96898669999791,49.7707095000078,49.75354260002496,49.75357609998901,49.7707095000078,49.7707095000078,49.7707095000078,51.60544399998616,right,1.0,24.68970689998241,,51.60590169997886,51.61894650000613,52.11882640002296,52.10350789997028,,,,,,,,,,,,,,,,,,,,,,,,,,,sub-004,1.0,random_dot,59.97746047328442,
left,left,,4.0,1.0,9.0,0.0,,,,,,,,,52.11882640002296,,,,,,,,,52.1040366999805,53.31900660000974,54.12069419998443,54.10292009997647,54.10294499999145,54.12069419998443,54.12069419998443,54.12069419998443,54.58833559998311,left,1.0,23.32806139998138,,54.58865190000506,54.60253239999293,55.10258710000198,55.08684060000815,,,,,,,,,,,,,,,,,,,,,,,,,,,sub-004,1.0,random_dot,59.97746047328442,
left,left,,5.0,0.0,10.0,0.0,,,,,,,,,55.10258710000198,,,,,,,,,55.08726539998315,55.90266439999687,56.70421830000123,56.6868474999792,56.68688280001516,56.70421830000123,56.70421830000123,56.70421830000123,57.22270370001206,right,0.0,23.37427689996548,,57.22318949998589,57.23551550001139,57.73568540002452,57.72025700000813,,,,,,,,,,,,,,,,,,,,,,,,,,,sub-004,1.0,random_dot,59.97746047328442,
right,right,,5.0,1.0,11.0,1.0,,,,,,,,,57.73568540002452,,,,,,,,,57.72077090002131,58.53583820001222,59.33772950002458,59.31997700000648,59.32001329999184,59.33772950002458,59.33772950002458,59.33772950002458,62.22199200000614,right,1.0,25.74584300001152,,62.222295099985786,62.23552180000115,62.735659199999645,62.72015820001252,,,,,,,,,,,,,,,,,,,,,,,,,,,sub-004,1.0,random_dot,59.97746047328442,
right,right,,6.0,0.0,12.0,1.0,,,,,,,,,62.735659199999645,,,,,,,,,62.72062829998322,63.935295399976894,64.73735640000086,64.71942069998477,64.71944559999974,64.73735640000086,64.73735640000086,64.73735640000086,69.65534589998424,right,1.0,27.76653299998725,,69.65580329997465,69.66887130000396,70.16872149996925,70.15247490000911,,,,,,,,,,,,,,,,,,,,,,,,,,,sub-004,1.0,random_dot,59.97746047328442,
left,left,,6.0,1.0,13.0,0.0,,,,,,,,,70.16872149996925,,,,,,,,,70.1527149999747,70.51880600000732,71.32054149999749,71.30269270000281,71.3027146999957,71.32054149999749,71.32054149999749,71.32054149999749,72.55530010000803,left,1.0,24.088479199970607,,72.55571079999208,72.56906180002261,73.06866180000361,73.0527336000232,,,,,,,,,,,,,,,,,,,,,,,,,,,sub-004,1.0,random_dot,59.97746047328442,
right,right,,7.0,0.0,14.0,1.0,,,,,,,,,73.06866180000361,,,,,,,,,73.05313640000531,74.26891619997332,75.07038460002514,75.0526340000215,75.05265199998394,75.07038460002514,75.07038460002514,75.07038460002514,77.18799379997654,left,0.0,24.971581999969203,,77.18826560000889,77.20271649997449,77.70237790001556,77.68725919997087,,,,,,,,,,,,,,,,,,,,,,,,,,,sub-004,1.0,random_dot,59.97746047328442,
left,left,,7.0,1.0,15.0,0.0,,,,,,,,,77.70237790001556,,,,,,,,,77.6878467000206,77.80241730000125,78.60426009999355,78.58646199997747,78.58649299998069,78.60426009999355,78.60426009999355,78.60426009999355,83.97221269999864,right,0.0,28.21958699997049,,83.97266490000766,83.98566279996885,84.48539460002212,84.46925939997891,83.58704100002069,,,,,,,,,,,,,,,,,,,,,,,,,,sub-004,1.0,random_dot,59.97746047328442,
left,left,,8.0,0.0,16.0,0.0,,,,,,,,,84.48539460002212,,,,,,,,,84.4695699000149,84.58540769998217,85.3870920999907,85.369770099991,85.3698048000224,85.3870920999907,85.3870920999907,85.3870920999907,87.48813010001322,left,1.0,24.957861799979582,,87.48858260002453,87.5019556999905,88.00212969997665,87.98592080001254,,,,,,,,,,,,,,,,,,,,,,,,,,,sub-004,1.0,random_dot,59.97746047328442,
right,right,,8.0,1.0,17.0,1.0,,,,,,,,,88.00212969997665,,,,,,,,,87.9863936000038,89.20217679999769,90.00367319997167,89.98602599999867,89.98605700000189,90.00367319997167,90.00367319997167,90.00367319997167,92.42192320001776,right,1.0,25.26566219999222,,92.42233919998398,92.43542390002403,92.93531099997928,92.91951039998094,,,,,,,,,,,,,,,,,,,,,,,,,,,sub-004,1.0,random_dot,59.97746047328442,
left,left,,9.0,0.0,18.0,0.0,,,,,,,,,92.93531099997928,,,,,,,,,92.91993929998716,93.03510779998032,93.83695879997686,93.81933959998425,93.81936949997908,93.83695879997686,93.83695879997686,93.83695879997686,96.93784289999168,left,1.0,25.956646000035107,,96.93818529997952,96.95184599998174,97.45193390001076,97.43591820000438,,,,,,,,,,,,,,,,,,,,,,,,,,,sub-004,1.0,random_dot,59.97746047328442,
right,right,,9.0,1.0,19.0,1.0,,,,,,,,,97.45193390001076,,,,,,,,,97.43625440000324,97.8022125000134,98.60351980000269,98.5861552999704,98.58618909999495,98.60351980000269,98.60351980000269,98.60351980000269,100.37196369998856,right,1.0,24.623879199963994,,100.37238770001568,100.38509539997904,100.88512749999065,100.86903750000056,,,,,,,,,,,,,,,,,,,,,,,,,,,sub-004,1.0,random_dot,59.97746047328442,
,,,,,,,,,,,,,,,,,,,,,,,,,,,,,,,,,,,,,,,,,,100.86911739996869,100.88512749999065,100.88512749999065,104.13713619997723,space,26.10700810002163,,,,,,,,,,,,,,,,,,,,sub-004,1.0,random_dot,59.97746047328442,
,,,,,,,,,,,,,,,,,,,,,,,,,,,,,,,,,,,,,,,,,,,,,,,,,104.1371895999764,104.1520074,104.1520074,109.03721909999147,space,27.73808460001601,,,,,,,,,,,,,sub-004,1.0,random_dot,59.97746047328442,
left,left,speed,,,,,0.0,0.0,0.0,1.0,0.0,0.0,0.0,0.0,111.18493869999656,,,,,,,,,111.17492010002024,111.53511679999065,112.33673560002352,112.31972490000771,112.31976959999884,112.33673560002352,112.33673560002352,112.33673560002352,113.22170850000111,left,1.0,23.746771599981003,,,,,,,,,,,,,,,,,,,,,109.04141549998894,109.0576706000138,109.0576706000138,111.16966880002292,space,24.96643770002993,,,,,,sub-004,1.0,random_dot,59.97746047328442,
right,right,speed,,,,,0.0,0.0,0.0,1.0,0.0,1.0,1.0,1.0,113.23512309999204,,,,,,,,,113.22262610000324,114.4351569999708,115.2369059000048,115.21928700001445,115.21931680000851,115.2369059000048,115.2369059000048,115.2369059000048,116.67146789998516,right,1.0,24.28551790001802,,,,,,,,,,,,,,,,,,,,,,,,,,,,,,,,sub-004,1.0,random_dot,59.97746047328442,
right,right,speed,,,,,0.0,0.0,0.0,1.0,1.0,0.0,2.0,1.0,116.68497409997508,,,,,,,,,116.67216830002144,117.03518810000968,117.84127959999024,117.8191058000084,117.81913000001803,117.84127959999024,117.84127959999024,117.84127959999024,121.48828009999124,right,1.0,26.49766130000353,,,,,,,,,,,,,,,,,,,,,,,,,,,,,,,,sub-004,1.0,random_dot,59.97746047328442,
left,left,speed,,,,,0.0,0.0,0.0,1.0,1.0,1.0,3.0,0.0,121.5016415999853,,,,,,,,,121.48902570002248,122.7018034000066,123.50334569998084,123.48651949997291,123.48655520001194,123.50334569998084,123.50334569998084,123.50334569998084,124.68854609999109,left,1.0,24.04647699999623,,,,,,,,,,,,,,,,,,,,,,,,,,,,,,,,sub-004,1.0,random_dot,59.97746047328442,
right,right,speed,,,,,0.0,0.0,0.0,1.0,2.0,0.0,4.0,1.0,124.70153129997198,,,,,,,,,124.68934789998455,124.80143809999572,125.60341129999142,125.5856660999707,125.5856933000032,125.60341129999142,125.60341129999142,125.60341129999142,127.80515819997528,right,1.0,25.05919980001636,,,,,,,,,,,,,,,,,,,,,,,,,,,,,,,,sub-004,1.0,random_dot,59.97746047328442,
left,left,speed,,,,,0.0,0.0,0.0,1.0,2.0,1.0,5.0,0.0,127.81821050000144,,,,,,,,,127.80608419998316,128.16827339999145,128.97001509997062,128.95230940001784,128.95232669997495,128.97001509997062,128.97001509997062,128.97001509997062,132.3219500000123,left,1.0,26.20080359996064,,,,,,,,,,,,,,,,,,,,,,,,,,,,,,,,sub-004,1.0,random_dot,59.97746047328442,
right,right,speed,,,,,0.0,0.0,0.0,1.0,3.0,0.0,6.0,1.0,132.33557330002077,,,,,,,,,132.32290239998838,133.5350354000111,134.33639020001283,134.31916259997524,134.3191917000222,134.33639020001283,134.33639020001283,134.33639020001283,135.42107410001336,right,1.0,23.93998750002356,,,,,,,,,,,,,,,,,,,,,,,,,,,,,,,,sub-004,1.0,random_dot,59.97746047328442,
left,left,speed,,,,,0.0,0.0,0.0,1.0,3.0,1.0,7.0,0.0,135.43494220002322,,,,,,,,,135.4216406000196,136.23509949998697,137.03684499999508,137.01920639997115,137.0192326999968,137.03684499999508,137.03684499999508,137.03684499999508,138.10506139998324,left,1.0,23.92993220000062,,,,,,,,,,,,,,,,,,,,,,,,,,,,,,,,sub-004,1.0,random_dot,59.97746047328442,
left,left,speed,,,,,0.0,0.0,0.0,1.0,4.0,0.0,8.0,0.0,138.11864369997056,,,,,,,,,138.1057359999977,138.9187521999702,139.71995910000987,139.7025120999897,139.70253860001685,139.71995910000987,139.71995910000987,139.71995910000987,140.5044404999935,left,1.0,23.640407300030347,,,,,,,,,,,,,,,,,,,,,,,,,,,,,,,,sub-004,1.0,random_dot,59.97746047328442,
right,right,speed,,,,,0.0,0.0,0.0,1.0,4.0,1.0,9.0,1.0,140.51822540001012,,,,,,,,,140.50504090002505,141.71825779997744,142.51996429997962,142.50270979997003,142.50274879997596,142.51996429997962,142.51996429997962,142.51996429997962,144.20499589998508,right,1.0,24.543935400026385,,,,,,,,,,,,,,,,,,,,,,,,,,,,,,,,sub-004,1.0,random_dot,59.97746047328442,
left,left,speed,,,,,0.0,0.0,0.0,1.0,5.0,0.0,10.0,0.0,144.21803699998418,,,,,,,,,144.2057911999873,144.3183486000053,145.11993769998662,145.1025148999761,145.1025450999732,145.11993769998662,145.11993769998662,145.11993769998662,147.00504329998512,left,1.0,24.74224980000872,,,,,,,,,,,,,,,,,,,,,,,,,,,,,,,,sub-004,1.0,random_dot,59.97746047328442,
right,right,speed,,,,,0.0,0.0,0.0,1.0,5.0,1.0,11.0,1.0,147.01814960001502,,,,,,,,,147.00581549998606,147.81816049996996,148.61992229998577,148.60229459998664,148.60232409997843,148.61992229998577,148.61992229998577,148.61992229998577,149.62157399998978,left,0.0,23.85199109994573,,,,,,,,,,,,,,,,,,,,,,,,,,,,,,,,sub-004,1.0,random_dot,59.97746047328442,
right,right,speed,,,,,0.0,0.0,0.0,1.0,6.0,0.0,12.0,1.0,149.63493940001354,,,,,,,,,149.62224469997454,149.9848238999839,150.78632760001346,150.76930440001888,150.76933390001068,150.78632760001346,150.78632760001346,150.78632760001346,153.17163539998,right,1.0,25.244660200027283,,,,,,,,,,,,,,,,,,,,,,,,,,,,,,,,sub-004,1.0,random_dot,59.97746047328442,
left,left,speed,,,,,0.0,0.0,0.0,1.0,6.0,1.0,13.0,0.0,153.18458250002004,,,,,,,,,153.17238810000708,153.98466299998108,154.7865891000256,154.76917400001548,154.7692098999978,154.7865891000256,154.7865891000256,154.7865891000256,157.5206284999731,left,1.0,25.59100670000771,,,,,,,,,,,,,,,,,,,,,,,,,,,,,,,,sub-004,1.0,random_dot,59.97746047328442,
left,left,speed,,,,,0.0,0.0,0.0,1.0,7.0,0.0,14.0,0.0,157.53488290001405,,,,,,,,,157.5211752000032,157.88481100002537,158.68642490002094,158.66860530001577,158.66862780001247,158.68642490002094,158.68642490002094,158.68642490002094,160.07142439996824,left,1.0,24.244851899973582,,,,,,,,,,,,,,,,,,,,,,,,,,,,,,,,sub-004,1.0,random_dot,59.97746047328442,
right,right,speed,,,,,0.0,0.0,0.0,1.0,7.0,1.0,15.0,1.0,160.08459949999815,,,,,,,,,160.07212249998702,160.88480579998577,161.6864007000113,161.6692517999909,161.66928839997854,161.6864007000113,161.6864007000113,161.6864007000113,167.52119130000938,left,0.0,28.68290509999497,,,,,,166.67007120000198,,,,,,,,,,,,,,,,,,,,,,,,,,sub-004,1.0,random_dot,59.97746047328442,
right,right,speed,,,,,0.0,0.0,0.0,1.0,8.0,0.0,16.0,1.0,167.53473389998544,,,,,,,,,167.52216829999816,168.33469260000857,169.13644869998097,169.1191088000196,169.1191359999939,169.13644869998097,169.13644869998097,169.13644869998097,173.07123990001855,right,1.0,26.79648389999056,,,,,,,,,,,,,,,,,,,,,,,,,,,,,,,,sub-004,1.0,random_dot,59.97746047328442,
left,left,speed,,,,,0.0,0.0,0.0,1.0,8.0,1.0,17.0,0.0,173.0846567999688,,,,,,,,,173.0719945000019,173.18463219999103,173.9861456999788,173.9691548999981,173.96919309999794,173.9861456999788,173.9861456999788,173.9861456999788,174.72151920001488,left,1.0,23.596971499966457,,,,,,,,,,,,,,,,,,,,,,,,,,,,,,,,sub-004,1.0,random_dot,59.97746047328442,
left,left,speed,,,,,0.0,0.0,0.0,1.0,9.0,0.0,18.0,0.0,174.73483209998813,,,,,,,,,174.72260999999708,175.53457040002104,176.3361845000181,176.3188918000087,176.31892529997276,176.3361845000181,176.3361845000181,176.3361845000181,177.8208777999971,left,1.0,24.3448602000135,,,,,,,,,,,,,,,,,,,,,,,,,,,,,,,,sub-004,1.0,random_dot,59.97746047328442,
right,right,speed,,,,,0.0,0.0,0.0,1.0,9.0,1.0,19.0,1.0,177.8344143999857,,,,,,,,,177.82151829998477,178.18463430000702,178.9863164999988,178.96884799998952,178.96888190001482,178.9863164999988,178.9863164999988,178.9863164999988,180.5708814000245,right,1.0,24.444466800021477,,,,,,,,,,,,,,,,,,,,,,,,,,,,,,,,sub-004,1.0,random_dot,59.97746047328442,
left,left,speed,,,,,0.0,0.0,0.0,1.0,10.0,0.0,20.0,0.0,180.5844268000219,,,,,,,,,180.57137099996908,180.68455060001,181.4861296999734,181.4688432000112,181.468876799976,181.4861296999734,181.4861296999734,181.4861296999734,183.10405069997068,left,1.0,24.470998500008136,,,,,,,,,,,,,,,,,,,,,,,,,,,,,,,,sub-004,1.0,random_dot,59.97746047328442,
right,right,speed,,,,,0.0,0.0,0.0,1.0,10.0,1.0,21.0,1.0,183.11766310001255,,,,,,,,,183.1047738000052,183.91781239997363,184.71956930001036,184.7021833999897,184.7022121999762,184.71956930001036,184.71956930001036,184.71956930001036,190.10388339997732,right,1.0,28.234398200002037,,,,,,189.70274779998,,,,,,,,,,,,,,,,,,,,,,,,,,sub-004,1.0,random_dot,59.97746047328442,
right,right,speed,,,,,0.0,0.0,0.0,1.0,11.0,0.0,22.0,1.0,190.11808169999856,,,,,,,,,190.10470660001735,190.9181678000023,191.71971490001303,191.7014178999816,191.70143479999388,191.71971490001303,191.71971490001303,191.71971490001303,193.53722210001436,left,0.0,24.67176900000777,,,,,,,,,,,,,,,,,,,,,,,,,,,,,,,,sub-004,1.0,random_dot,59.97746047328442,
left,left,speed,,,,,0.0,0.0,0.0,1.0,11.0,1.0,23.0,0.0,193.55122059996935,,,,,,,,,193.53804319998017,194.35127990000183,195.1527051000157,195.13534290000095,195.13536600000225,195.1527051000157,195.1527051000157,195.1527051000157,196.12144319998333,left,1.0,23.827080600021876,,,,,,,,,,,,,,,,,,,,,,,,,,,,,,,,sub-004,1.0,random_dot,59.97746047328442,
left,left,speed,,,,,0.0,0.0,0.0,1.0,12.0,0.0,24.0,0.0,196.13433159998385,,,,,,,,,196.12220199999865,197.3344976999797,198.13664159999465,198.1188661999768,198.11889719998,198.13664159999465,198.13664159999465,198.13664159999465,198.95378869998967,left,1.0,23.66971079999348,,,,,,,,,,,,,,,,,,,,,,,,,,,,,,,,sub-004,1.0,random_dot,59.97746047328442,
right,right,speed,,,,,0.0,0.0,0.0,1.0,12.0,1.0,25.0,1.0,198.9676705999882,,,,,,,,,198.9547071999987,199.76779810001608,200.5694121000124,200.55205930001105,200.55208819999825,200.5694121000124,200.5694121000124,200.5694121000124,202.72031599999173,left,0.0,25.007000099984,,,,,,,,,,,,,,,,,,,,,,,,,,,,,,,,sub-004,1.0,random_dot,59.97746047328442,
left,left,speed,,,,,0.0,0.0,0.0,1.0,13.0,0.0,26.0,0.0,202.7346080999705,,,,,,,,,202.72072240000125,203.0845391000039,203.88591599999927,203.86874439998064,203.86877649999224,203.88591599999927,203.88591599999927,203.88591599999927,204.63757730001817,left,1.0,23.604584100015927,,,,,,,,,,,,,,,,,,,,,,,,,,,,,,,,sub-004,1.0,random_dot,59.97746047328442,
right,right,speed,,,,,0.0,0.0,0.0,1.0,13.0,1.0,27.0,1.0,204.65081349998945,,,,,,,,,204.638467199984,205.45107629999984,206.2525372999953,206.2352860000101,206.23531540000116,206.2525372999953,206.2525372999953,206.2525372999953,207.78713589999825,left,0.0,24.388381900032982,,,,,,,,,,,,,,,,,,,,,,,,,,,,,,,,sub-004,1.0,random_dot,59.97746047328442,
left,left,speed,,,,,0.0,0.0,0.0,1.0,14.0,0.0,28.0,0.0,207.80083329998888,,,,,,,,,207.78773759998148,208.6008370000054,209.40288519999007,209.3851257999777,209.38515260000716,209.40288519999007,209.40288519999007,209.40288519999007,210.75388929998732,left,1.0,24.20215890003601,,,,,,,,,,,,,,,,,,,,,,,,,,,,,,,,sub-004,1.0,random_dot,59.97746047328442,
right,right,speed,,,,,0.0,0.0,0.0,1.0,14.0,1.0,29.0,1.0,210.7678246999858,,,,,,,,,210.75456279999344,210.86754750000543,211.6694403999718,211.6522492999793,211.65227590000725,211.6694403999718,211.6694403999718,211.6694403999718,213.67095559998413,left,0.0,24.85576539998874,,,,,,,,,,,,,,,,,,,,,,,,,,,,,,,,sub-004,1.0,random_dot,59.97746047328442,
left,left,speed,,,,,0.0,0.0,0.0,1.0,15.0,0.0,30.0,0.0,213.68412479996917,,,,,,,,,213.6717577999807,213.78410190000432,214.585831000004,214.568471000006,214.56850260001372,214.585831000004,214.585831000004,214.585831000004,215.9700524000218,left,1.0,24.236704100039788,,,,,,,,,,,,,,,,,,,,,,,,,,,,,,,,sub-004,1.0,random_dot,59.97746047328442,
right,right,speed,,,,,0.0,0.0,0.0,1.0,15.0,1.0,31.0,1.0,215.98444680002285,,,,,,,,,215.9708484999719,216.78420920000644,217.58616479998452,217.5683611999848,217.5683743999689,217.58616479998452,217.58616479998452,217.58616479998452,219.92099110002164,left,0.0,25.194145899964496,,,,,,,,,,,,,,,,,,,,,,,,,,,,,,,,sub-004,1.0,random_dot,59.97746047328442,
right,right,speed,,,,,0.0,0.0,0.0,1.0,16.0,0.0,32.0,1.0,219.93430439999796,,,,,,,,,219.92187720001675,221.1346559000085,221.93606879998697,221.918554999982,221.9186083999812,221.93606879998697,221.93606879998697,221.93606879998697,225.287760599982,right,1.0,26.204009299981408,,,,,,,,,,,,,,,,,,,,,,,,,,,,,,,,sub-004,1.0,random_dot,59.97746047328442,
left,left,speed,,,,,0.0,0.0,0.0,1.0,16.0,1.0,33.0,0.0,225.3006995000178,,,,,,,,,225.28853369998976,226.1008013000246,226.90228699997533,226.88516810000877,226.88520249997964,226.90228699997533,226.90228699997533,226.90228699997533,227.6200258000172,left,1.0,23.57513290003408,,,,,,,,,,,,,,,,,,,,,,,,,,,,,,,,sub-004,1.0,random_dot,59.97746047328442,
left,left,speed,,,,,0.0,0.0,0.0,1.0,17.0,0.0,34.0,0.0,227.63400849996836,,,,,,,,,227.6206529000192,228.83432289998743,229.63573320000432,229.6183921999764,229.6184276000131,229.63573320000432,229.63573320000432,229.63573320000432,230.4037080999697,left,1.0,23.63049760001013,,,,,,,,,,,,,,,,,,,,,,,,,,,,,,,,sub-004,1.0,random_dot,59.97746047328442,
right,right,speed,,,,,0.0,0.0,0.0,1.0,17.0,1.0,35.0,1.0,230.41743979998864,,,,,,,,,230.4043023000122,230.51751470001184,231.3191696999711,231.30143880000105,231.30147220002252,231.3191696999711,231.3191696999711,231.3191696999711,233.6206088999752,right,1.0,25.15696309995837,,,,,,,,,,,,,,,,,,,,,,,,,,,,,,,,sub-004,1.0,random_dot,59.97746047328442,
left,left,speed,,,,,0.0,0.0,0.0,1.0,18.0,0.0,36.0,0.0,233.63412349997088,,,,,,,,,233.62135390000185,233.9841559000197,234.78580890002195,234.7680750999716,234.7681033000117,234.78580890002195,234.78580890002195,234.78580890002195,235.5535547999898,left,1.0,23.62293310003588,,,,,,,,,,,,,,,,,,,,,,,,,,,,,,,,sub-004,1.0,random_dot,59.97746047328442,
right,right,speed,,,,,0.0,0.0,0.0,1.0,18.0,1.0,37.0,1.0,235.5675202999846,,,,,,,,,235.5542697000201,236.767516300024,237.56946470000548,237.55220149998783,237.5522250999929,237.56946470000548,237.56946470000548,237.56946470000548,239.604871699994,left,0.0,24.89791060000425,,,,,,,,,,,,,,,,,,,,,,,,,,,,,,,,sub-004,1.0,random_dot,59.97746047328442,
right,right,speed,,,,,0.0,0.0,0.0,1.0,19.0,0.0,38.0,1.0,239.61788380000507,,,,,,,,,239.60581169999205,239.71779829997104,240.51918100001055,240.50186580000445,240.5018967000069,240.51918100001055,240.51918100001055,240.51918100001055,242.1533248000196,left,0.0,24.48737649997929,,,,,,,,,,,,,,,,,,,,,,,,,,,,,,,,sub-004,1.0,random_dot,59.97746047328442,
left,left,speed,,,,,0.0,0.0,0.0,1.0,19.0,1.0,39.0,0.0,242.167359300016,,,,,,,,,242.1540354000172,242.9673302000156,243.769119900011,243.75168470002245,243.7517181999865,243.769119900011,243.769119900011,243.769119900011,245.1874946000171,left,1.0,24.27450120000867,,,,,,,,,,,,,,,,,,,,,,,,,,,,,,,,sub-004,1.0,random_dot,59.97746047328442,
right,right,speed,,,,,0.0,0.0,0.0,1.0,20.0,0.0,40.0,1.0,245.2005306999781,,,,,,,,,245.188093099976,246.00064689997816,246.8024956000154,246.78532139997697,246.785363700008,246.8024956000154,246.8024956000154,246.8024956000154,248.62051689997315,right,1.0,24.67279059998691,,,,,,,,,,,,,,,,,,,,,,,,,,,,,,,,sub-004,1.0,random_dot,59.97746047328442,
left,left,speed,,,,,0.0,0.0,0.0,1.0,20.0,1.0,41.0,0.0,248.63368059997447,,,,,,,,,248.62141490000067,248.7339575000224,249.5355477000121,249.51827250001952,249.51830870000413,249.5355477000121,249.5355477000121,249.5355477000121,252.43679870001503,left,1.0,25.764239599986468,,,,,,,,,,,,,,,,,,,,,,,,,,,,,,,,sub-004,1.0,random_dot,59.97746047328442,
left,left,speed,,,,,0.0,0.0,0.0,1.0,21.0,0.0,42.0,0.0,252.450569299981,,,,,,,,,252.4373299999861,253.65060809999704,254.4522624000092,254.43409609998344,254.4341119999881,254.4522624000092,254.4522624000092,254.4522624000092,255.3536357000121,left,1.0,23.755817400000524,,,,,,,,,,,,,,,,,,,,,,,,,,,,,,,,sub-004,1.0,random_dot,59.97746047328442,
right,right,speed,,,,,0.0,0.0,0.0,1.0,21.0,1.0,43.0,1.0,255.3672169999918,,,,,,,,,255.35436120000668,256.567744400003,257.36890040000435,257.3516276999726,257.3516653999686,257.36890040000435,257.36890040000435,257.36890040000435,261.5862031999859,right,1.0,27.06840839999495,,,,,,,,,,,,,,,,,,,,,,,,,,,,,,,,sub-004,1.0,random_dot,59.97746047328442,
left,left,speed,,,,,0.0,0.0,0.0,1.0,22.0,0.0,44.0,0.0,261.6005818999838,,,,,,,,,261.58671559998766,261.7004487999948,262.50202309997985,262.4847149999696,262.48474410001654,262.50202309997985,262.50202309997985,262.50202309997985,263.3367359000258,left,1.0,23.688592099992093,,,,,,,,,,,,,,,,,,,,,,,,,,,,,,,,sub-004,1.0,random_dot,59.97746047328442,
right,right,speed,,,,,0.0,0.0,0.0,1.0,22.0,1.0,45.0,1.0,263.3503625000012,,,,,,,,,263.3374296000111,263.4504509000108,264.2523378999904,264.23433220002335,264.2343518999987,264.2523378999904,264.2523378999904,264.2523378999904,266.55338960001245,left,0.0,25.149790499999654,,,,,,,,,,,,,,,,,,,,,,,,,,,,,,,,sub-004,1.0,random_dot,59.97746047328442,
left,left,speed,,,,,0.0,0.0,0.0,1.0,23.0,0.0,46.0,0.0,266.567083699978,,,,,,,,,266.5539020000142,267.7670997999958,268.5689042999875,268.5511139999726,268.55114019999746,268.5689042999875,268.5689042999875,268.5689042999875,269.2529526000144,left,1.0,23.538508300029207,,,,,,,,,,,,,,,,,,,,,,,,,,,,,,,,sub-004,1.0,random_dot,59.97746047328442,
right,right,speed,,,,,0.0,0.0,0.0,1.0,23.0,1.0,47.0,1.0,269.26712109998334,,,,,,,,,269.2535120000248,270.0674530999968,270.868768299988,270.85100949998014,270.851039799978,270.868768299988,270.868768299988,270.868768299988,276.2369267999893,right,1.0,28.228444599953946,,,,,,275.85226249997504,,,,,,,,,,,,,,,,,,,,,,,,,,sub-004,1.0,random_dot,59.97746047328442,
left,left,speed,,,,,0.0,0.0,0.0,1.0,24.0,0.0,48.0,0.0,276.25033100001747,,,,,,,,,276.2376299999887,276.6002525999793,277.40221450000536,277.38465530000394,277.3846854000003,277.40221450000536,277.40221450000536,277.40221450000536,278.4200842999853,left,1.0,23.870181799982674,,,,,,,,,,,,,,,,,,,,,,,,,,,,,,,,sub-004,1.0,random_dot,59.97746047328442,
right,right,speed,,,,,0.0,0.0,0.0,1.0,24.0,1.0,49.0,1.0,278.43360140000004,,,,,,,,,278.42078200000105,279.23365249997005,280.0356000000029,280.01775369996903,280.0177839000244,280.0356000000029,280.0356000000029,280.0356000000029,281.7872340999893,right,1.0,24.613890299980994,,,,,,,,,,,,,,,,,,,,,,,,,,,,,,,,sub-004,1.0,random_dot,59.97746047328442,
right,right,speed,,,,,0.0,0.0,0.0,1.0,25.0,0.0,50.0,1.0,281.8003887999803,,,,,,,,,281.78794549999293,282.150257900008,282.9517657000106,282.93454569997266,282.9345753000234,282.9517657000106,282.9517657000106,282.9517657000106,283.91950000001816,left,0.0,23.819022900017444,,,,,,,,,,,,,,,,,,,,,,,,,,,,,,,,sub-004,1.0,random_dot,59.97746047328442,
left,left,speed,,,,,0.0,0.0,0.0,1.0,25.0,1.0,51.0,0.0,283.9336377999862,,,,,,,,,283.9200076999841,285.13366150000365,285.93532270001015,285.9178487000172,285.9178630000097,285.93532270001015,285.93532270001015,285.93532270001015,286.6539563999977,left,1.0,23.570801299996678,,,,,,,,,,,,,,,,,,,,,,,,,,,,,,,,sub-004,1.0,random_dot,59.97746047328442,
right,right,speed,,,,,0.0,0.0,0.0,1.0,26.0,0.0,52.0,1.0,286.6671605000156,,,,,,,,,286.6549127000035,287.46725370001514,288.2690961000044,288.25176670000656,288.2517924999702,288.2690961000044,288.2690961000044,288.2690961000044,290.87087420001626,right,1.0,25.46058239997365,,,,,,,,,,,,,,,,,,,,,,,,,,,,,,,,sub-004,1.0,random_dot,59.97746047328442,
left,left,speed,,,,,0.0,0.0,0.0,1.0,26.0,1.0,53.0,0.0,290.883762500016,,,,,,,,,290.87187610002,290.98381449998124,291.78534910001326,291.76829649996944,291.76833089999855,291.78534910001326,291.78534910001326,291.78534910001326,292.853105999995,left,1.0,23.925416800018866,,,,,,,,,,,,,,,,,,,,,,,,,,,,,,,,sub-004,1.0,random_dot,59.97746047328442,
left,left,speed,,,,,0.0,0.0,0.0,1.0,27.0,0.0,54.0,0.0,292.866968700022,,,,,,,,,292.85380139999324,293.2171212999965,294.0186336999759,294.0011330000125,294.00116159999743,294.0186336999759,294.0186336999759,294.0186336999759,295.2031096999999,left,1.0,24.03862589999335,,,,,,,,,,,,,,,,,,,,,,,,,,,,,,,,sub-004,1.0,random_dot,59.97746047328442,
right,right,speed,,,,,0.0,0.0,0.0,1.0,27.0,1.0,55.0,1.0,295.216683799983,,,,,,,,,295.20376309996936,295.3170103000012,296.11889340000926,296.1009777999716,296.1010049000033,296.11889340000926,296.11889340000926,296.11889340000926,298.4366629999713,right,1.0,25.17418720002752,,,,,,,,,,,,,,,,,,,,,,,,,,,,,,,,sub-004,1.0,random_dot,59.97746047328442,
right,right,speed,,,,,0.0,0.0,0.0,1.0,28.0,0.0,56.0,1.0,298.4504077999736,,,,,,,,,298.43716999999015,298.79998630000046,299.60177070001373,299.5847869999707,299.58483130001696,299.60177070001373,299.60177070001373,299.60177070001373,301.6367768999771,right,1.0,24.89161280001281,,,,,,,,,,,,,,,,,,,,,,,,,,,,,,,,sub-004,1.0,random_dot,59.97746047328442,
left,left,speed,,,,,0.0,0.0,0.0,1.0,28.0,1.0,57.0,0.0,301.6499952999875,,,,,,,,,301.63756100001046,302.0001657999819,302.8018491999828,302.78454790002434,302.78457909997087,302.8018491999828,302.8018491999828,302.8018491999828,307.4201339000137,right,0.0,27.46942829998443,,,,,,,,,,,,,,,,,,,,,,,,,,,,,,,,sub-004,1.0,random_dot,59.97746047328442,
left,left,speed,,,,,0.0,0.0,0.0,1.0,29.0,0.0,58.0,0.0,307.4333621999831,,,,,,,,,307.4209548999788,308.2334613999701,309.03538999997545,309.01733449997846,309.01735239999834,309.03538999997545,309.03538999997545,309.03538999997545,312.11931460001506,right,0.0,25.93837849999545,,,,,,,,,,,,,,,,,,,,,,,,,,,,,,,,sub-004,1.0,random_dot,59.97746047328442,
right,right,speed,,,,,0.0,0.0,0.0,1.0,29.0,1.0,59.0,1.0,312.1333280999679,,,,,,,,,312.1198215999757,312.233729199972,313.03506660001585,313.0174927000189,313.01752340001985,313.03506660001585,313.03506660001585,313.03506660001585,316.30377669999143,left,0.0,26.126247499953024,,,,,,,,,,,,,,,,,,,,,,,,,,,,,,,,sub-004,1.0,random_dot,59.97746047328442,
,,speed,,,,,0.0,0.0,0.0,1.0,,,,,,,,,,,,,,,,,,,,,,,,,,,,,,,,,,,,,,,,,,,,,,,,,,,,,,,,,sub-004,1.0,random_dot,59.97746047328442,
left,left,accuracy,,,,,0.0,1.0,1.0,0.0,0.0,0.0,0.0,0.0,323.69998129998567,,,,,,,,,323.6908543999889,324.49999599996954,325.3015273999772,325.28412999998545,325.2841601999826,325.3015273999772,325.3015273999772,325.3015273999772,330.686133900017,left,1.0,28.23329739994369,,,,,,330.2847791999812,,,,,,,,,,,,,,,316.3046396999853,316.3169164999854,316.3169164999854,323.6852415999747,space,30.23032949998742,,,,,,sub-004,1.0,random_dot,59.97746047328442,
right,right,accuracy,,,,,0.0,1.0,1.0,0.0,0.0,1.0,1.0,1.0,330.699817500019,,,,,,,,,330.6869134000153,331.4999075999949,332.3025430999696,332.2843460000004,332.28436109999893,332.3025430999696,332.3025430999696,332.3025430999696,337.65290950000053,left,0.0,28.19790119997924,,,,,,337.28505309997126,,,,,,,,,,,,,,,,,,,,,,,,,,sub-004,1.0,random_dot,59.97746047328442,
left,left,accuracy,,,,,0.0,1.0,1.0,0.0,1.0,0.0,2.0,0.0,337.6663967000204,,,,,,,,,337.6536732999957,338.8664778000093,339.6681695000152,339.65072450001026,339.65075939998496,339.6681695000152,339.6681695000152,339.6681695000152,345.4028829999734,right,0.0,28.58913679997204,,,,,,344.6515655000112,,,,,,,,,,,,,,,,,,,,,,,,,,sub-004,1.0,random_dot,59.97746047328442,
right,right,accuracy,,,,,0.0,1.0,1.0,0.0,1.0,1.0,3.0,1.0,345.41645869996864,,,,,,,,,345.4035482999752,346.21646939998027,347.0183434999781,347.00077549996786,347.00080609996803,347.0183434999781,347.0183434999781,347.0183434999781,352.5183524999884,right,1.0,28.355710899981204,,,,,,352.00117040000623,,,,,,,,,,,,,,,,,,,,,,,,,,sub-004,1.0,random_dot,59.97746047328442,
right,right,accuracy,,,,,0.0,1.0,1.0,0.0,2.0,0.0,4.0,1.0,352.53287830000045,,,,,,,,,352.518859600008,353.7332570999861,354.53461179998703,354.51624580001226,354.5162607000093,354.53461179998703,354.53461179998703,354.53461179998703,359.9361836999888,right,1.0,28.26361349999206,,,,,,359.517982600024,,,,,,,,,,,,,,,,,,,,,,,,,,sub-004,1.0,random_dot,59.97746047328442,
left,left,accuracy,,,,,0.0,1.0,1.0,0.0,2.0,1.0,5.0,0.0,359.94952470000135,,,,,,,,,359.9369191000005,361.1496936000185,361.9513902000035,361.9339505999815,361.9339810999809,361.9513902000035,361.9513902000035,361.9513902000035,364.6524246999761,left,1.0,25.558252899965737,,,,,,,,,,,,,,,,,,,,,,,,,,,,,,,,sub-004,1.0,random_dot,59.97746047328442,
right,right,accuracy,,,,,0.0,1.0,1.0,0.0,3.0,0.0,6.0,1.0,364.6661922999774,,,,,,,,,364.65300539997406,365.01644839998335,365.8178969000001,365.8004139999976,365.80044680001447,365.8178969000001,365.8178969000001,365.8178969000001,368.46919969999,right,1.0,25.501307099999394,,,,,,,,,,,,,,,,,,,,,,,,,,,,,,,,sub-004,1.0,random_dot,59.97746047328442,
left,left,accuracy,,,,,0.0,1.0,1.0,0.0,3.0,1.0,7.0,0.0,368.4827559000114,,,,,,,,,368.4700614999747,369.6830208000029,370.4844823000021,370.46759229997406,370.4676245999872,370.4844823000021,370.4844823000021,370.4844823000021,371.4526877999888,left,1.0,23.81945920002181,,,,,,,,,,,,,,,,,,,,,,,,,,,,,,,,sub-004,1.0,random_dot,59.97746047328442,
right,right,accuracy,,,,,0.0,1.0,1.0,0.0,4.0,0.0,8.0,1.0,371.46614319999935,,,,,,,,,371.4534294999903,372.666151500016,373.4683172000223,373.4501979000052,373.45022759999847,373.4683172000223,373.4683172000223,373.4683172000223,379.2195342999767,left,0.0,28.602375800022852,,,,,,378.4509956000256,,,,,,,,,,,,,,,,,,,,,,,,,,sub-004,1.0,random_dot,59.97746047328442,
left,left,accuracy,,,,,0.0,1.0,1.0,0.0,4.0,1.0,9.0,0.0,379.2330069000018,,,,,,,,,379.22058449999895,379.5830598999746,380.3844737000181,380.3664000999997,380.3664239000064,380.3844737000181,380.3844737000181,380.3844737000181,385.5191618999816,left,1.0,27.995391400007065,,,,,,385.36763210000936,,,,,,,,,,,,,,,,,,,,,,,,,,sub-004,1.0,random_dot,59.97746047328442,
right,right,accuracy,,,,,0.0,1.0,1.0,0.0,5.0,0.0,10.0,1.0,385.5325300000259,,,,,,,,,385.5198131999932,385.8827950999839,386.6845158999786,386.6668538000085,386.66688460001023,386.6845158999786,386.6845158999786,386.6845158999786,392.1693578999839,left,0.0,28.34454849996837,,,,,,391.667712000024,,,,,,,,,,,,,,,,,,,,,,,,,,sub-004,1.0,random_dot,59.97746047328442,
left,left,accuracy,,,,,0.0,1.0,1.0,0.0,5.0,1.0,11.0,0.0,392.1828299000045,,,,,,,,,392.1701128999703,392.9827936000074,393.7843484000186,393.76677699998254,393.7668018999975,393.7843484000186,393.7843484000186,393.7843484000186,394.7191984999809,left,1.0,23.78638239996508,,,,,,,,,,,,,,,,,,,,,,,,,,,,,,,,sub-004,1.0,random_dot,59.97746047328442,
right,right,accuracy,,,,,0.0,1.0,1.0,0.0,6.0,0.0,12.0,1.0,394.7324446999701,,,,,,,,,394.7197363000014,395.5326441000216,396.3342663000221,396.3169649000047,396.3169919999782,396.3342663000221,396.3342663000221,396.3342663000221,398.5521231999737,left,0.0,25.071462199965023,,,,,,,,,,,,,,,,,,,,,,,,,,,,,,,,sub-004,1.0,random_dot,59.97746047328442,
left,left,accuracy,,,,,0.0,1.0,1.0,0.0,6.0,1.0,13.0,0.0,398.5658893000218,,,,,,,,,398.5527123999782,399.3659682999714,400.1674398999894,400.1501598000177,400.1501856999821,400.1674398999894,400.1674398999894,400.1674398999894,401.2856979999924,left,1.0,23.977799299987964,,,,,,,,,,,,,,,,,,,,,,,,,,,,,,,,sub-004,1.0,random_dot,59.97746047328442,
left,left,accuracy,,,,,0.0,1.0,1.0,0.0,7.0,0.0,14.0,0.0,401.2990982999909,,,,,,,,,401.2863798000035,402.49924440000905,403.3007544999709,403.2833159000147,403.2833406999707,403.3007544999709,403.3007544999709,403.3007544999709,404.7527034999802,left,1.0,24.302022599964403,,,,,,,,,,,,,,,,,,,,,,,,,,,,,,,,sub-004,1.0,random_dot,59.97746047328442,
right,right,accuracy,,,,,0.0,1.0,1.0,0.0,7.0,1.0,15.0,1.0,404.765808199998,,,,,,,,,404.7533460999839,405.9657560000196,406.7681691999896,406.7506164999795,406.7506506000064,406.7681691999896,406.7681691999896,406.7681691999896,412.0525106000132,right,1.0,28.133290399971884,,,,,,411.7510292999796,,,,,,,,,,,,,,,,,,,,,,,,,,sub-004,1.0,random_dot,59.97746047328442,
right,right,accuracy,,,,,0.0,1.0,1.0,0.0,8.0,0.0,16.0,1.0,412.0658246999956,,,,,,,,,412.0532054000069,412.8664737999789,413.66732519998914,413.650029100012,413.65005860000383,413.66732519998914,413.66732519998914,413.66732519998914,415.1854324999731,right,1.0,24.372589400038123,,,,,,,,,,,,,,,,,,,,,,,,,,,,,,,,sub-004,1.0,random_dot,59.97746047328442,
left,left,accuracy,,,,,0.0,1.0,1.0,0.0,8.0,1.0,17.0,0.0,415.1991157999728,,,,,,,,,415.1860559000052,415.2993627000251,416.1007357999915,416.08325019996846,416.0832729000249,416.1007357999915,416.1007357999915,416.1007357999915,418.4185161999776,left,1.0,25.17533169995295,,,,,,,,,,,,,,,,,,,,,,,,,,,,,,,,sub-004,1.0,random_dot,59.97746047328442,
left,left,accuracy,,,,,0.0,1.0,1.0,0.0,9.0,0.0,18.0,0.0,418.4324984999839,,,,,,,,,418.419240600022,419.2325219999766,420.03444329998456,420.0167154999799,420.01675289997365,420.03444329998456,420.03444329998456,420.03444329998456,424.2357877999893,left,1.0,27.05642189999344,,,,,,,,,,,,,,,,,,,,,,,,,,,,,,,,sub-004,1.0,random_dot,59.97746047328442,
right,right,accuracy,,,,,0.0,1.0,1.0,0.0,9.0,1.0,19.0,1.0,424.2493361000088,,,,,,,,,424.2364573000232,424.3490910999826,425.1505632000044,425.1333815000253,425.133408099995,425.1505632000044,425.1505632000044,425.1505632000044,427.48541159997694,right,1.0,25.19224689999828,,,,,,,,,,,,,,,,,,,,,,,,,,,,,,,,sub-004,1.0,random_dot,59.97746047328442,
right,right,accuracy,,,,,0.0,1.0,1.0,0.0,10.0,0.0,20.0,1.0,427.4990279999911,,,,,,,,,427.4860479999916,427.5989759999793,428.4007962999749,428.3833245999994,428.3833661000244,428.4007962999749,428.4007962999749,428.4007962999749,431.4520705000032,right,1.0,25.90086529997643,,,,,,,,,,,,,,,,,,,,,,,,,,,,,,,,sub-004,1.0,random_dot,59.97746047328442,
left,left,accuracy,,,,,0.0,1.0,1.0,0.0,10.0,1.0,21.0,0.0,431.46552819997305,,,,,,,,,431.452835300006,431.81591319997096,432.6172635999974,432.599510799977,432.5995358999935,432.6172635999974,432.6172635999974,432.6172635999974,434.6527483999962,left,1.0,24.89524719998008,,,,,,,,,,,,,,,,,,,,,,,,,,,,,,,,sub-004,1.0,random_dot,59.97746047328442,
right,right,accuracy,,,,,0.0,1.0,1.0,0.0,11.0,0.0,22.0,1.0,434.66602890001377,,,,,,,,,434.65361340000527,434.765853799996,435.5673178000143,435.5501974999788,435.55023569997866,435.5673178000143,435.5673178000143,435.5673178000143,440.8357823999832,right,1.0,28.127382299979217,,,,,,440.55062200000975,,,,,,,,,,,,,,,,,,,,,,,,,,sub-004,1.0,random_dot,59.97746047328442,
left,left,accuracy,,,,,0.0,1.0,1.0,0.0,11.0,1.0,23.0,0.0,440.8488408999983,,,,,,,,,440.8366455999785,441.19906620000256,442.0005601000157,441.9837592999684,441.9837876000093,442.0005601000157,442.0005601000157,442.0005601000157,442.8186131999828,left,1.0,23.667194199981168,,,,,,,,,,,,,,,,,,,,,,,,,,,,,,,,sub-004,1.0,random_dot,59.97746047328442,
left,left,accuracy,,,,,0.0,1.0,1.0,0.0,12.0,0.0,24.0,0.0,442.8323129999917,,,,,,,,,442.8193314999808,443.1820417999989,443.984181399981,443.9663168999832,443.9663411999936,443.984181399981,443.984181399981,443.984181399981,444.6018046999816,left,1.0,23.476696600031573,,,,,,,,,,,,,,,,,,,,,,,,,,,,,,,,sub-004,1.0,random_dot,59.97746047328442,
right,right,accuracy,,,,,0.0,1.0,1.0,0.0,12.0,1.0,25.0,1.0,444.6153440999915,,,,,,,,,444.6024134000181,445.41565480001736,446.21716830000514,446.1993466999848,446.1994176000008,446.21716830000514,446.21716830000514,446.21716830000514,448.4188867000048,right,1.0,25.05294160003541,,,,,,,,,,,,,,,,,,,,,,,,,,,,,,,,sub-004,1.0,random_dot,59.97746047328442,
right,right,accuracy,,,,,0.0,1.0,1.0,0.0,13.0,0.0,26.0,1.0,448.4322325999965,,,,,,,,,448.4194932000246,448.78236710000783,449.5839198000031,449.5667441000114,449.5667815000052,449.5839198000031,449.5839198000031,449.5839198000031,450.5187833000091,right,1.0,23.795405499986373,,,,,,,,,,,,,,,,,,,,,,,,,,,,,,,,sub-004,1.0,random_dot,59.97746047328442,
left,left,accuracy,,,,,0.0,1.0,1.0,0.0,13.0,1.0,27.0,0.0,450.5321447000024,,,,,,,,,450.5195160000003,450.8822761999909,451.6840702000191,451.6665221999865,451.6665580999688,451.6840702000191,451.6840702000191,451.6840702000191,453.7189345000079,left,1.0,24.89568040001905,,,,,,,,,,,,,,,,,,,,,,,,,,,,,,,,sub-004,1.0,random_dot,59.97746047328442,
right,right,accuracy,,,,,0.0,1.0,1.0,0.0,14.0,0.0,28.0,1.0,453.7332426999928,,,,,,,,,453.71955450001406,454.0822208999889,454.8839467000216,454.8665760000004,454.866608100012,454.8839467000216,454.8839467000216,454.8839467000216,457.45150520000607,right,1.0,25.418102899973743,,,,,,,,,,,,,,,,,,,,,,,,,,,,,,,,sub-004,1.0,random_dot,59.97746047328442,
left,left,accuracy,,,,,0.0,1.0,1.0,0.0,14.0,1.0,29.0,0.0,457.4655729000224,,,,,,,,,457.4521612999961,458.66545299999416,459.4671532000066,459.44961760001024,459.4496437999769,459.4671532000066,459.4671532000066,459.4671532000066,461.3690970999887,left,1.0,24.761662900040392,,,,,,,,,,,,,,,,,,,,,,,,,,,,,,,,sub-004,1.0,random_dot,59.97746047328442,
right,right,accuracy,,,,,0.0,1.0,1.0,0.0,15.0,0.0,30.0,1.0,461.3820681999787,,,,,,,,,461.3700129999779,461.4822773999768,462.2837530000252,462.2663213000051,462.2663532000152,462.2837530000252,462.2837530000252,462.2837530000252,463.5845074999961,right,1.0,24.15086350002093,,,,,,,,,,,,,,,,,,,,,,,,,,,,,,,,sub-004,1.0,random_dot,59.97746047328442,
left,left,accuracy,,,,,0.0,1.0,1.0,0.0,15.0,1.0,31.0,0.0,463.59870289999526,,,,,,,,,463.5849850000232,463.6988650999847,464.5005273999996,464.4824393999879,464.4824611999793,464.5005273999996,464.5005273999996,464.5005273999996,466.1516751999734,left,1.0,24.51351749995956,,,,,,,,,,,,,,,,,,,,,,,,,,,,,,,,sub-004,1.0,random_dot,59.97746047328442,
right,right,accuracy,,,,,0.0,1.0,1.0,0.0,16.0,0.0,32.0,1.0,466.165437299991,,,,,,,,,466.1521232000087,466.5153584000072,467.3173105000169,467.299826500006,467.2998632999952,467.3173105000169,467.3173105000169,467.3173105000169,469.2852956000133,right,1.0,24.82484580000164,,,,,,,,,,,,,,,,,,,,,,,,,,,,,,,,sub-004,1.0,random_dot,59.97746047328442,
left,left,accuracy,,,,,0.0,1.0,1.0,0.0,16.0,1.0,33.0,0.0,469.2989119999693,,,,,,,,,469.2861956999986,470.09868140000617,470.900303900009,470.8821967000258,470.8822139999829,470.900303900009,470.900303900009,470.900303900009,471.5687231000047,left,1.0,23.520764700020663,,,,,,,,,,,,,,,,,,,,,,,,,,,,,,,,sub-004,1.0,random_dot,59.97746047328442,
right,right,accuracy,,,,,0.0,1.0,1.0,0.0,17.0,0.0,34.0,1.0,471.5819147999864,,,,,,,,,471.5696831999812,472.7821440999978,473.58377440000186,473.5664293000009,473.5664658999885,473.58377440000186,473.58377440000186,473.58377440000186,474.31870900001377,right,1.0,23.594382799987216,,,,,,,,,,,,,,,,,,,,,,,,,,,,,,,,sub-004,1.0,random_dot,59.97746047328442,
left,left,accuracy,,,,,0.0,1.0,1.0,0.0,17.0,1.0,35.0,0.0,474.3319775999989,,,,,,,,,474.3194731000112,475.5319558000192,476.3336058999994,476.31643399997847,476.3164693000144,476.3336058999994,476.3336058999994,476.3336058999994,477.2188061000197,left,1.0,23.746202699956484,,,,,,,,,,,,,,,,,,,,,,,,,,,,,,,,sub-004,1.0,random_dot,59.97746047328442,
right,right,accuracy,,,,,0.0,1.0,1.0,0.0,18.0,0.0,36.0,1.0,477.2318649999797,,,,,,,,,477.2195472000167,477.332118100021,478.13374560000375,478.1164422999718,478.1164801999694,478.13374560000375,478.13374560000375,478.13374560000375,478.96821219997946,right,1.0,23.691926800005604,,,,,,,,,,,,,,,,,,,,,,,,,,,,,,,,sub-004,1.0,random_dot,59.97746047328442,
left,left,accuracy,,,,,0.0,1.0,1.0,0.0,18.0,1.0,37.0,0.0,478.98193220002577,,,,,,,,,478.9688770999783,479.0818790000049,479.88359599997057,479.865848299989,479.8658654000028,479.88359599997057,479.88359599997057,479.88359599997057,480.5365157999913,left,1.0,23.515543000015896,,,,,,,,,,,,,,,,,,,,,,,,,,,,,,,,sub-004,1.0,random_dot,59.97746047328442,
left,left,accuracy,,,,,0.0,1.0,1.0,0.0,19.0,0.0,38.0,0.0,480.5484362000134,,,,,,,,,480.5373917000252,481.3487031999976,482.150305600022,482.13296060002176,482.13299140002346,482.150305600022,482.150305600022,482.150305600022,482.9849623999908,left,1.0,23.69383410003502,,,,,,,,,,,,,,,,,,,,,,,,,,,,,,,,sub-004,1.0,random_dot,59.97746047328442,
right,right,accuracy,,,,,0.0,1.0,1.0,0.0,19.0,1.0,39.0,1.0,482.9986341000185,,,,,,,,,482.9854501999798,483.3484157000202,484.1503558999975,484.1327124999953,484.13274510001065,484.1503558999975,484.1503558999975,484.1503558999975,487.5686604999937,right,1.0,26.275076300022192,,,,,,,,,,,,,,,,,,,,,,,,,,,,,,,,sub-004,1.0,random_dot,59.97746047328442,
right,right,accuracy,,,,,0.0,1.0,1.0,0.0,20.0,0.0,40.0,1.0,487.5817645000061,,,,,,,,,487.5695562000037,487.93192920001457,488.7335648000008,488.7162122000009,488.7162414999912,488.7335648000008,488.7335648000008,488.7335648000008,495.76837770000566,right,1.0,29.884191099961757,,,,,,493.7169418999693,,,,,,,,,,,,,,,,,,,,,,,,,,sub-004,1.0,random_dot,59.97746047328442,
left,left,accuracy,,,,,0.0,1.0,1.0,0.0,20.0,1.0,41.0,0.0,495.78207880002446,,,,,,,,,495.7689616999705,496.5817386999842,497.3833917999873,497.3657648999943,497.3657910000184,497.3833917999873,497.3833917999873,497.3833917999873,498.1517744999728,left,1.0,23.61761440004921,,,,,,,,,,,,,,,,,,,,,,,,,,,,,,,,sub-004,1.0,random_dot,59.97746047328442,
right,right,accuracy,,,,,0.0,1.0,1.0,0.0,21.0,0.0,42.0,1.0,498.1652482000063,,,,,,,,,498.1523182999808,498.9657940000179,499.7672350999783,499.7496522999718,499.74968339997577,499.7672350999783,499.7672350999783,499.7672350999783,503.3850529000047,right,1.0,26.466135999944527,,,,,,,,,,,,,,,,,,,,,,,,,,,,,,,,sub-004,1.0,random_dot,59.97746047328442,
left,left,accuracy,,,,,0.0,1.0,1.0,0.0,21.0,1.0,43.0,0.0,503.3985149000073,,,,,,,,,503.38586540002143,504.1985074999975,505.0000154000009,504.9823732000077,504.98239800002193,505.0000154000009,505.0000154000009,505.0000154000009,505.85172360000433,left,1.0,23.706880900019318,,,,,,,,,,,,,,,,,,,,,,,,,,,,,,,,sub-004,1.0,random_dot,59.97746047328442,
left,left,accuracy,,,,,0.0,1.0,1.0,0.0,22.0,0.0,44.0,0.0,505.8651789000141,,,,,,,,,505.8525470999885,506.66527609998593,507.4669039999717,507.4491191999987,507.4491423,507.4669039999717,507.4669039999717,507.4669039999717,508.151769899996,left,1.0,23.53744770004414,,,,,,,,,,,,,,,,,,,,,,,,,,,,,,,,sub-004,1.0,random_dot,59.97746047328442,
right,right,accuracy,,,,,0.0,1.0,1.0,0.0,22.0,1.0,45.0,1.0,508.165061799984,,,,,,,,,508.15261839999584,508.2648693000083,509.0668155999738,509.0493782999693,509.0494168999721,509.0668155999738,509.0668155999738,509.0668155999738,510.30082070000935,left,0.0,24.089201499999035,,,,,,,,,,,,,,,,,,,,,,,,,,,,,,,,sub-004,1.0,random_dot,59.97746047328442,
left,left,accuracy,,,,,0.0,1.0,1.0,0.0,23.0,0.0,46.0,0.0,510.3148635000107,,,,,,,,,510.3013200999703,511.11501539999153,511.91667399997823,511.89938909997,511.8994211999816,511.91667399997823,511.91667399997823,511.91667399997823,513.1182305999682,left,1.0,24.05778019997524,,,,,,,,,,,,,,,,,,,,,,,,,,,,,,,,sub-004,1.0,random_dot,59.97746047328442,
right,right,accuracy,,,,,0.0,1.0,1.0,0.0,23.0,1.0,47.0,1.0,513.1317495999974,,,,,,,,,513.1190935000195,513.9316614000127,514.7335170999868,514.7160739999963,514.7161039999919,514.7335170999868,514.7335170999868,514.7335170999868,516.0848906000028,right,1.0,24.210435199958734,,,,,,,,,,,,,,,,,,,,,,,,,,,,,,,,sub-004,1.0,random_dot,59.97746047328442,
right,right,accuracy,,,,,0.0,1.0,1.0,0.0,24.0,0.0,48.0,1.0,516.0983633999713,,,,,,,,,516.0855710000033,516.4483214999782,517.2500120999757,517.2324920999818,517.232515199983,517.2500120999757,517.2500120999757,517.2500120999757,523.5181069999817,right,1.0,29.12241859995993,,,,,,522.2334656000021,,,,,,,,,,,,,,,,,,,,,,,,,,sub-004,1.0,random_dot,59.97746047328442,
left,left,accuracy,,,,,0.0,1.0,1.0,0.0,24.0,1.0,49.0,0.0,523.5316344000166,,,,,,,,,523.5190851999796,523.6322029000148,524.433284699975,524.415162099991,524.4151802000124,524.433284699975,524.433284699975,524.433284699975,525.3012566000107,left,1.0,23.72879209998064,,,,,,,,,,,,,,,,,,,,,,,,,,,,,,,,sub-004,1.0,random_dot,59.97746047328442,
left,left,accuracy,,,,,0.0,1.0,1.0,0.0,25.0,0.0,50.0,0.0,525.3147361999727,,,,,,,,,525.301886399975,525.6647927999729,526.466458800016,526.448948699981,526.4489623999689,526.466458800016,526.466458800016,526.466458800016,528.1684245999786,left,1.0,24.56146529997932,,,,,,,,,,,,,,,,,,,,,,,,,,,,,,,,sub-004,1.0,random_dot,59.97746047328442,
right,right,accuracy,,,,,0.0,1.0,1.0,0.0,25.0,1.0,51.0,1.0,528.1817422999884,,,,,,,,,528.1692952999729,528.2818826999865,529.0834749999922,529.0660211999784,529.0660561000113,529.0834749999922,529.0834749999922,529.0834749999922,533.3011642000056,right,1.0,27.073433400015347,,,,,,,,,,,,,,,,,,,,,,,,,,,,,,,,sub-004,1.0,random_dot,59.97746047328442,
right,right,accuracy,,,,,0.0,1.0,1.0,0.0,26.0,0.0,52.0,1.0,533.314726200013,,,,,,,,,533.3019420999917,533.4147842000239,534.2164534999756,534.1988316000206,534.1988595000003,534.2164534999756,534.2164534999756,534.2164534999756,539.567688399984,right,1.0,28.20934010000201,,,,,,539.199629699986,,,,,,,,,,,,,,,,,,,,,,,,,,sub-004,1.0,random_dot,59.97746047328442,
left,left,accuracy,,,,,0.0,1.0,1.0,0.0,26.0,1.0,53.0,0.0,539.5814200000023,,,,,,,,,539.5683108000085,540.7814445000258,541.5828610999743,541.5654194999952,541.5654502999969,541.5828610999743,541.5828610999743,541.5828610999743,542.5507584000006,left,1.0,23.815404499997385,,,,,,,,,,,,,,,,,,,,,,,,,,,,,,,,sub-004,1.0,random_dot,59.97746047328442,
right,right,accuracy,,,,,0.0,1.0,1.0,0.0,27.0,0.0,54.0,1.0,542.5646509000217,,,,,,,,,542.5512499000179,543.3647477999912,544.1665143999853,544.148653900018,544.1486802999862,544.1665143999853,544.1665143999853,544.1665143999853,545.534488699981,left,0.0,24.220559699984733,,,,,,,,,,,,,,,,,,,,,,,,,,,,,,,,sub-004,1.0,random_dot,59.97746047328442,
left,left,accuracy,,,,,0.0,1.0,1.0,0.0,27.0,1.0,55.0,0.0,545.5479265999747,,,,,,,,,545.5352975999704,545.8980000999873,546.6998078000033,546.6826312000048,546.6826625000103,546.6998078000033,546.6998078000033,546.6998078000033,547.6671872999868,left,1.0,23.820266299997456,,,,,,,,,,,,,,,,,,,,,,,,,,,,,,,,sub-004,1.0,random_dot,59.97746047328442,
right,right,accuracy,,,,,0.0,1.0,1.0,0.0,28.0,0.0,56.0,1.0,547.6814733999781,,,,,,,,,547.6677236999967,548.4813832999789,549.282853599987,549.2653740000096,549.2653992999694,549.282853599987,549.282853599987,549.282853599987,553.5843223999836,right,1.0,27.149493400007486,,,,,,,,,,,,,,,,,,,,,,,,,,,,,,,,sub-004,1.0,random_dot,59.97746047328442,
left,left,accuracy,,,,,0.0,1.0,1.0,0.0,28.0,1.0,57.0,0.0,553.5981346999761,,,,,,,,,553.5850154000218,554.7978979999898,555.5996660999954,555.5820744999801,555.5821036999696,555.5996660999954,555.5996660999954,555.5996660999954,556.9181314000161,left,1.0,24.17170259996783,,,,,,,,,,,,,,,,,,,,,,,,,,,,,,,,sub-004,1.0,random_dot,59.97746047328442,
left,left,accuracy,,,,,0.0,1.0,1.0,0.0,29.0,0.0,58.0,0.0,556.9313709000126,,,,,,,,,556.9190782000078,557.2819097000174,558.0831710000057,558.06564049999,558.0656736000092,558.0831710000057,558.0831710000057,558.0831710000057,560.0012251000153,left,1.0,24.77403279999271,,,,,,,,,,,,,,,,,,,,,,,,,,,,,,,,sub-004,1.0,random_dot,59.97746047328442,
right,right,accuracy,,,,,0.0,1.0,1.0,0.0,29.0,1.0,59.0,1.0,560.0145488000126,,,,,,,,,560.002069899987,560.365011100017,561.1661810000078,561.1481840999913,561.148200399999,561.1661810000078,561.1661810000078,561.1661810000078,563.2349284000229,right,1.0,24.931242900027428,,,,,,,,,,,,,,,,,,,,,,,,,,,,,,,,sub-004,1.0,random_dot,59.97746047328442,
,,accuracy,,,,,0.0,1.0,1.0,0.0,,,,,,,,,,,,,,,,,,,,,,,,,,,,,,,,,,,,,,,,,,,,,,,,,,,,,,,,,sub-004,1.0,random_dot,59.97746047328442,
,,,,,,,,,,,,,,,,,,,,,,,,,,,,,,,,,,,,,,,,,,,,,,,,,,,,,,,,,,,,,,,563.2354302000022,563.2478444000008,568.2480146000162,568.2317544000107,sub-004,,,,
