direction,corrAns,thisN,thisTrialN,thisRepN,respDots.keys,respDots.corr,respDots.rt,respDots.duration,randomInstr,respRandomInstr.keys,respRandomInstr.rt,respRandomInstr.duration,practice_trials.thisRepN,practice_trials.thisTrialN,practice_trials.thisN,practice_trials.thisIndex,instr_trials.thisRepN,instr_trials.thisTrialN,instr_trials.thisN,instr_trials.thisIndex,test_trials.thisRepN,test_trials.thisTrialN,test_trials.thisN,test_trials.thisIndex,thisRow.t,notes,general_instruction.started,textGeneralInstr.started,respGeneralInstr.started,general_instruction.stopped,respGeneralInstr.keys,respGeneralInstr.rt,respGeneralInstr.duration,ITI.started,fixcross.started,fixcross.stopped,ITI.stopped,dots.started,backgroundDots.started,stimulusDots.started,respDots.started,stimulusDots.stopped,dots.stopped,practice_trials.respDots.keys,practice_trials.respDots.corr,practice_trials.respDots.rt,practice_trials.respDots.duration,feedback.started,textFeedback.started,feedback.stopped,textFeedback.stopped,info.started,textInfo.started,keyRespInfo.started,info.stopped,keyRespInfo.keys,keyRespInfo.rt,keyRespInfo.duration,test_instruction.started,textTestInstr.started,respTestInstr.started,test_instruction.stopped,respTestInstr.keys,respTestInstr.rt,respTestInstr.duration,random_instruction.started,textRandomInstr.started,respRandomInstr.started,random_instruction.stopped,instr_trials.respRandomInstr.keys,instr_trials.respRandomInstr.rt,instr_trials.respRandomInstr.duration,test_trials.respDots.keys,test_trials.respDots.corr,test_trials.respDots.rt,test_trials.respDots.duration,goodbye.started,textGoodbye.started,textGoodbye.stopped,goodbye.stopped,participant,session,expName,frameRate,Unnamed: 88
,,,,,,,,,,,,,,,,,,,,,,,,,,,0.0096437920001335,0.0212062500067986,0.0212062500067986,62.11888841699693,space,62.09219912497792,,,,,,,,,,,,,,,,,,,,,,,,,,,,,,,,,,,,,,,,,,,,,,,,,sub-213,1,random_dot,119.69597222863972,
left,left,0.0,0.0,0.0,left,1.0,6.756023499998264,,,,,,0.0,0.0,0.0,0.0,,,,,,,,,62.15966508400743,,,,,,,,,62.14595158401062,62.2171937499952,63.02391300001182,63.00146470899927,63.002007625007536,63.02391300001182,63.02391300001182,63.02391300001182,68.00056045901147,69.78558037499897,left,1.0,6.756023499998264,,69.79343695900752,69.87829950000742,70.28996150000603,,,,,,,,,,,,,,,,,,,,,,,,,,,,,,,sub-213,1,random_dot,119.69597222863972,
right,right,1.0,1.0,0.0,left,0.0,4.046581875008997,,,,,,0.0,1.0,1.0,1.0,,,,,,,,,70.30067537500872,,,,,,,,,70.290456000017,71.0844264170155,71.87590650000493,71.86790179199306,71.86840387500706,71.87590650000493,71.87590650000493,71.87590650000493,,75.92621016700286,left,0.0,4.046581875008997,,75.93246149999322,75.9454026670137,76.43418616699637,,,,,,,,,,,,,,,,,,,,,,,,,,,,,,,sub-213,1,random_dot,119.69597222863972,
right,right,2.0,0.0,1.0,left,0.0,5.618266500008758,,,,,,1.0,0.0,2.0,1.0,,,,,,,,,76.4394177920185,,,,,,,,,76.43458404199919,77.22303604200715,78.0170218340063,78.00803212501341,78.00849054200808,78.0170218340063,78.0170218340063,78.0170218340063,83.0005576669937,83.6424076250114,left,0.0,5.618266500008758,,83.64252987501095,83.65075395899476,84.13502879199223,84.14086883401615,,,,,,,,,,,,,,,,,,,,,,,,,,,,,,sub-213,1,random_dot,119.69597222863972,
left,left,3.0,1.0,1.0,left,1.0,2.4018897080095485,,,,,,1.0,1.0,3.0,0.0,,,,,,,,,84.14086883401615,,,,,,,,,84.13542920901091,84.4905965840153,85.2835789170058,85.2753316250164,85.27589575000457,85.2835789170058,85.2835789170058,85.2835789170058,,87.6924921250029,left,1.0,2.4018897080095485,,87.69564254200668,87.70554287501727,88.18996899999911,88.20096499999636,,,,,,,,,,,,,,,,,,,,,,,,,,,,,,sub-213,1,random_dot,119.69597222863972,
right,right,4.0,0.0,2.0,right,1.0,1.4819921249873005,,,,,,2.0,0.0,4.0,1.0,,,,,,,,,88.20096499999636,,,,,,,,,88.19028004200663,89.39143254200462,90.19313408399466,90.18498575000558,90.18545054201968,90.19313408399466,90.19313408399466,90.19313408399466,,91.68596191701364,right,1.0,1.4819921249873005,,91.68607300001896,91.69182833400556,92.1849381249922,92.1905384590209,,,,,,,,,,,,,,,,,,,,,,,,,,,,,,sub-213,1,random_dot,119.69597222863972,
left,left,5.0,1.0,2.0,left,1.0,1.7749089999997525,,,,,,2.0,1.0,5.0,0.0,,,,,,,,,92.1905384590209,,,,,,,,,92.18534341701888,92.28444874999695,93.077142833994,93.06829712502076,93.06875437501004,93.077142833994,93.077142833994,93.077142833994,,94.85938141701628,left,1.0,1.7749089999997525,,94.85949308401904,94.8679662090144,95.35172199999217,95.3576054169971,,,,,,,,,,,,,,,,,,,,,,,,,,,,,,sub-213,1,random_dot,119.69597222863972,
right,right,6.0,0.0,3.0,right,1.0,1.2022900830197614,,,,,,3.0,0.0,6.0,1.0,,,,,,,,,95.3576054169971,,,,,,,,,95.3521063750086,96.15741287500714,96.95972379200975,96.95152108400362,96.95196716699866,96.95972379200975,96.95972379200975,96.95972379200975,,98.16903950000416,right,1.0,1.2022900830197614,,98.16915545900702,98.17768637501284,98.66869708400918,98.67451383400476,,,,,,,,,,,,,,,,,,,,,,,,,,,,,,sub-213,1,random_dot,119.69597222863972,
left,left,7.0,1.0,3.0,left,1.0,1.5752006669936236,,,,,,3.0,1.0,7.0,0.0,,,,,,,,,98.67451383400476,,,,,,,,,98.66909533401486,98.76775041699877,99.5592829590023,99.55173500001548,99.552196500008,99.5592829590023,99.5592829590023,99.5592829590023,,101.14630849999958,left,1.0,1.5752006669936236,,101.14641912499792,101.1530958749936,101.64170491701223,101.65095887501955,,,,,,,,,,,,,,,,,,,,,,,,,,,,,,sub-213,1,random_dot,119.69597222863972,
right,right,8.0,0.0,4.0,left,0.0,2.2346107920166105,,,,,,4.0,0.0,8.0,1.0,,,,,,,,,101.65095887501955,,,,,,,,,101.64208987500751,101.98998904202016,102.78411120901,102.77328633400612,102.77367320901249,102.78411120901,102.78411120901,102.78411120901,,105.02593674999662,left,0.0,2.2346107920166105,,105.0293774169986,105.03915608400712,105.52505954200753,105.53436383401277,,,,,,,,,,,,,,,,,,,,,,,,,,,,,,sub-213,1,random_dot,119.69597222863972,
left,left,9.0,1.0,4.0,left,1.0,1.3251965410017874,,,,,,4.0,1.0,9.0,0.0,,,,,,,,,105.53436383401277,,,,,,,,,105.5254571250116,105.62472824999712,106.42739016699488,106.4185602920188,106.41902800000388,106.42739016699488,106.42739016699488,106.42739016699488,,107.75941724999576,left,1.0,1.3251965410017874,,107.76256912501412,107.77264804200968,108.25710491699284,108.26795437501278,,,,,,,,,,,,,,,,,,,,,,,,,,,,,,sub-213,1,random_dot,119.69597222863972,
right,right,10.0,0.0,5.0,right,1.0,2.300025042000925,,,,,,5.0,0.0,10.0,1.0,,,,,,,,,108.26795437501278,,,,,,,,,108.25751054199644,108.60845141700702,109.41008525001234,109.40194412501296,109.4024005419924,109.41008525001234,109.41008525001234,109.41008525001234,,111.71963129201322,right,1.0,2.300025042000925,,111.71974800000316,111.72844974999316,112.21866641700036,112.2247048749996,,,,,,,,,,,,,,,,,,,,,,,,,,,,,,sub-213,1,random_dot,119.69597222863972,
left,left,11.0,1.0,5.0,left,1.0,1.060662332980428,,,,,,5.0,1.0,11.0,0.0,,,,,,,,,112.2247048749996,,,,,,,,,112.21904850000284,113.01802337501432,113.809962542,113.80191166701844,113.80238995901892,113.809962542,113.809962542,113.809962542,,114.87657929200212,left,1.0,1.060662332980428,,114.87669175001793,114.90101087500808,115.38486554200064,,,,,,,,,,,,,,,,,,,,,,,,,,,,,,,sub-213,1,random_dot,119.69597222863972,
right,right,12.0,0.0,6.0,right,1.0,0.7465159169805702,,,,,,6.0,0.0,12.0,1.0,,,,,,,,,115.39005220899708,,,,,,,,,115.38523991699913,115.72530937500414,116.51669150000087,116.50858637501368,116.50904433400136,116.51669150000087,116.51669150000087,116.51669150000087,,117.2693841670116,right,1.0,0.7465159169805702,,117.2695050839975,117.2781335840118,117.76859395901556,117.77427595900372,,,,,,,,,,,,,,,,,,,,,,,,,,,,,,sub-213,1,random_dot,119.69597222863972,
left,left,13.0,1.0,6.0,left,1.0,1.1171421670005657,,,,,,6.0,1.0,13.0,0.0,,,,,,,,,117.77427595900372,,,,,,,,,117.76899650000269,118.56810820900137,119.3605626670178,119.3522473750054,119.35281179199228,119.3605626670178,119.3605626670178,119.3605626670178,,120.48619595900529,left,1.0,1.1171421670005657,,120.48631179201766,120.49482112500118,120.98517358402025,120.99102895901888,,,,,,,,,,,,,,,,,,,,,,,,,,,,,,sub-213,1,random_dot,119.69597222863972,
left,left,14.0,0.0,7.0,right,0.0,0.9092625830089672,,,,,,7.0,0.0,14.0,0.0,,,,,,,,,120.99102895901888,,,,,,,,,120.98556995901164,121.78483954200055,122.57667108401074,122.56875425000908,122.56920687499225,122.57667108401074,122.57667108401074,122.57667108401074,,123.49329020900768,right,0.0,0.9092625830089672,,123.49639145901892,123.505927124992,123.99094395901191,124.0015003340086,,,,,,,,,,,,,,,,,,,,,,,,,,,,,,sub-213,1,random_dot,119.69597222863972,
right,right,15.0,1.0,7.0,right,1.0,1.5061991669936106,,,,,,7.0,1.0,15.0,1.0,,,,,,,,,124.0015003340086,,,,,,,,,123.9913608749921,124.7911498750036,125.59323362499708,125.58525166701293,125.585712125001,125.59323362499708,125.59323362499708,125.59323362499708,,127.1029590840044,right,1.0,1.5061991669936106,,127.1060890420049,127.11508579200016,127.60212395901908,127.60783062499831,,,,,,,,,,,,,,,,,,,,,,,,,,,,,,sub-213,1,random_dot,119.69597222863972,
left,left,16.0,0.0,8.0,right,0.0,1.5050477499898989,,,,,,8.0,0.0,16.0,0.0,,,,,,,,,127.60783062499831,,,,,,,,,127.60252337501151,128.80177975000697,129.5935122090159,129.58547033401555,129.58594054201967,129.5935122090159,129.5935122090159,129.5935122090159,,131.10311137500685,right,0.0,1.5050477499898989,,131.1062619590084,131.1152669590083,131.60236579200136,131.60826870900928,,,,,,,,,,,,,,,,,,,,,,,,,,,,,,sub-213,1,random_dot,119.69597222863972,
right,right,17.0,1.0,8.0,left,0.0,3.994330125016859,,,,,,8.0,1.0,17.0,1.0,,,,,,,,,131.60826870900928,,,,,,,,,131.60275195899885,131.7018975840183,132.49371654199786,132.4856838340056,132.48614491699846,132.49371654199786,132.49371654199786,132.49371654199786,,136.49376195902005,left,0.0,3.994330125016859,,136.4938738750061,136.5179421250068,137.0017332920106,,,,,,,,,,,,,,,,,,,,,,,,,,,,,,,sub-213,1,random_dot,119.69597222863972,
right,right,18.0,0.0,9.0,right,1.0,2.662625166994985,,,,,,9.0,0.0,18.0,1.0,,,,,,,,,137.00682833400788,,,,,,,,,137.00211495900294,137.34246158401947,138.1440392920049,138.1358681670099,138.1363337920047,138.1440392920049,138.1440392920049,138.1440392920049,,140.8104259170068,right,1.0,2.662625166994985,,140.81360774999484,140.82289666699944,141.3075874170172,141.31838149999385,,,,,,,,,,,,,,,,,,,,,,,,,,,,,,sub-213,1,random_dot,119.69597222863972,
left,left,19.0,1.0,9.0,right,0.0,1.5061781669792254,,,,,,9.0,1.0,19.0,0.0,,,,,,,,,141.31838149999385,,,,,,,,,141.3079078750161,142.50897954200627,143.30079266699613,143.2924076670024,143.2928935000091,143.30079266699613,143.30079266699613,143.30079266699613,,144.81058295900584,right,0.0,1.5061781669792254,,144.8139764170046,144.8233669170004,145.30780741700437,145.3179930000042,,,,,,,,,,,,,,,,,,,,,,,,,,,,,,sub-213,1,random_dot,119.69597222863972,
,,,,,,,,,,,,,,,,,,,,,,,,,,,,,,,,,,,,,,,,,,,,,,,,,,,,145.30798308399972,145.3179930000042,145.3179930000042,189.0046924590133,space,43.67616658299812,,,,,,,,,,,,,,,,,,,,,,,,sub-213,1,random_dot,119.69597222863972,
,,,,,,,,,,,,,,,,,,,,,,,,,,,,,,,,,,,,,,,,,,,,,,,,,,,,,,,,,,,189.00478137499888,189.0158164589957,189.0158164589957,190.6443500840105,space,1.6262530839885585,,,,,,,,,,,,,,,,,sub-213,1,random_dot,119.69597222863972,
left,left,0.0,0.0,0.0,left,1.0,4.105013958993368,,accuracy,space,5.066875582997454,,,,,,0.0,0.0,0.0,0.0,0.0,0.0,0.0,0.0,195.75909120900903,,,,,,,,,195.7508815000183,196.0927975840168,196.89482954199772,196.88676383401616,196.88725654201696,196.89482954199772,196.89482954199772,196.89482954199772,,201.00438320901597,,,,,,,,,,,,,,,,,,,,,,,190.66534383399997,190.6747371249949,190.6747371249949,195.74372312499327,space,5.066875582997454,,left,1.0,4.105013958993368,,,,,,sub-213,1,random_dot,119.69597222863972,
right,right,1.0,1.0,0.0,left,0.0,1.7356661669909954,,accuracy,space,5.066875582997454,,,,,,0.0,0.0,0.0,0.0,0.0,1.0,1.0,1.0,201.01294579199748,,,,,,,,,201.0048057090025,201.35297345899744,202.1452492090175,202.1368410419964,202.13734295900213,202.1452492090175,202.1452492090175,202.1452492090175,,203.8876981250069,,,,,,,,,,,,,,,,,,,,,,,,,,,,,,left,0.0,1.7356661669909954,,,,,,sub-213,1,random_dot,119.69597222863972,
right,right,2.0,0.0,1.0,right,1.0,1.1150985840067733,,accuracy,space,5.066875582997454,,,,,,0.0,0.0,0.0,0.0,1.0,0.0,2.0,1.0,203.8961630840204,,,,,,,,,203.8881187500083,204.68623595900132,205.4783806670166,205.47036904201377,205.47083808400205,205.4783806670166,205.4783806670166,205.4783806670166,,206.6041463750007,,,,,,,,,,,,,,,,,,,,,,,,,,,,,,right,1.0,1.1150985840067733,,,,,,sub-213,1,random_dot,119.69597222863972,
left,left,3.0,1.0,1.0,left,1.0,2.575177666993113,,accuracy,space,5.066875582997454,,,,,,0.0,0.0,0.0,0.0,1.0,1.0,3.0,0.0,206.60981770901708,,,,,,,,,206.6045650840097,206.69254716701107,207.4950235839933,207.48691170901293,207.48737537499983,207.4950235839933,207.4950235839933,207.4950235839933,,210.08080320901357,,,,,,,,,,,,,,,,,,,,,,,,,,,,,,left,1.0,2.575177666993113,,,,,,sub-213,1,random_dot,119.69597222863972,
left,left,4.0,0.0,2.0,right,0.0,1.1841717500064988,,accuracy,space,5.066875582997454,,,,,,0.0,0.0,0.0,0.0,2.0,0.0,4.0,0.0,210.10255116701592,,,,,,,,,210.08123170901672,210.17533100000583,210.9691611250164,210.9588294590067,210.9593817090208,210.9691611250164,210.9691611250164,210.9691611250164,,212.16402166700573,,,,,,,,,,,,,,,,,,,,,,,,,,,,,,right,0.0,1.1841717500064988,,,,,,sub-213,1,random_dot,119.69597222863972,
right,right,5.0,1.0,2.0,left,0.0,1.0183236669981852,,accuracy,space,5.066875582997454,,,,,,0.0,0.0,0.0,0.0,2.0,1.0,5.0,1.0,212.17013045900967,,,,,,,,,212.16443062500912,212.5087563340203,213.30249108400312,213.29315741700705,213.29361870899447,213.30249108400312,213.30249108400312,213.30249108400312,,214.3280843750108,,,,,,,,,,,,,,,,,,,,,,,,,,,,,,left,0.0,1.0183236669981852,,,,,,sub-213,1,random_dot,119.69597222863972,
right,right,6.0,0.0,3.0,right,1.0,0.8754432499990799,,accuracy,space,5.066875582997454,,,,,,0.0,0.0,0.0,0.0,3.0,0.0,6.0,1.0,214.3360993340029,,,,,,,,,214.32848608400676,215.126116792002,215.9285707920208,215.9204220419924,215.92088720900935,215.9285707920208,215.9285707920208,215.9285707920208,,216.81137433400727,,,,,,,,,,,,,,,,,,,,,,,,,,,,,,right,1.0,0.8754432499990799,,,,,,sub-213,1,random_dot,119.69597222863972,
left,left,7.0,1.0,3.0,left,1.0,1.5562600000121165,,accuracy,space,5.066875582997454,,,,,,0.0,0.0,0.0,0.0,3.0,1.0,7.0,0.0,216.81942858401453,,,,,,,,,216.81177041699996,217.60867370900812,218.4026703750133,218.3922876669967,218.39267454200308,218.4026703750133,218.4026703750133,218.4026703750133,,219.9615083340032,,,,,,,,,,,,,,,,,,,,,,,,,,,,,,left,1.0,1.5562600000121165,,,,,,sub-213,1,random_dot,119.69597222863972,
left,left,8.0,0.0,4.0,right,0.0,1.136567624984309,,accuracy,space,5.066875582997454,,,,,,0.0,0.0,0.0,0.0,4.0,0.0,8.0,0.0,219.97006541700105,,,,,,,,,219.96190441699585,220.31003625001176,221.1120579999988,221.1039141670044,221.1043865840184,221.1120579999988,221.1120579999988,221.1120579999988,,222.25460470901453,,,,,,,,,,,,,,,,,,,,,,,,,,,,,,right,0.0,1.136567624984309,,,,,,sub-213,1,random_dot,119.69597222863972,
right,right,9.0,1.0,4.0,left,0.0,2.6227448330027983,,accuracy,space,5.066875582997454,,,,,,0.0,0.0,0.0,0.0,4.0,1.0,9.0,1.0,222.26311266701669,,,,,,,,,222.2550188339956,222.35323475001496,223.1451380420185,223.13711495901225,223.13755483401476,223.1451380420185,223.1451380420185,223.1451380420185,,225.77083820902044,,,,,,,,,,,,,,,,,,,,,,,,,,,,,,left,0.0,2.6227448330027983,,,,,,sub-213,1,random_dot,119.69597222863972,
left,left,10.0,0.0,5.0,right,0.0,0.8249686670023948,,accuracy,space,5.066875582997454,,,,,,0.0,0.0,0.0,0.0,5.0,0.0,10.0,0.0,225.7794403340085,,,,,,,,,225.77123750001192,226.9699942090083,227.76250625000105,227.7543337499956,227.7548799170181,227.76250625000105,227.76250625000105,227.76250625000105,,228.5948365000077,,,,,,,,,,,,,,,,,,,,,,,,,,,,,,right,0.0,0.8249686670023948,,,,,,sub-213,1,random_dot,119.69597222863972,
right,right,11.0,1.0,5.0,left,0.0,1.183088416000828,,accuracy,space,5.066875582997454,,,,,,0.0,0.0,0.0,0.0,5.0,1.0,11.0,1.0,228.6028904170089,,,,,,,,,228.5952315420145,228.69327537500067,229.495276792004,229.4874555839924,229.48793987501995,229.495276792004,229.495276792004,229.495276792004,,230.6877101669961,,,,,,,,,,,,,,,,,,,,,,,,,,,,,,left,0.0,1.183088416000828,,,,,,sub-213,1,random_dot,119.69597222863972,
right,right,12.0,0.0,6.0,right,1.0,2.219453750003595,,accuracy,space,5.066875582997454,,,,,,0.0,0.0,0.0,0.0,6.0,0.0,12.0,1.0,230.6961102090136,,,,,,,,,230.6881176250172,231.02689387500868,231.8287324590201,231.8206762089976,231.8211227919965,231.8287324590201,231.8287324590201,231.8287324590201,,234.0546952089935,,,,,,,,,,,,,,,,,,,,,,,,,,,,,,right,1.0,2.219453750003595,,,,,,sub-213,1,random_dot,119.69597222863972,
left,left,13.0,1.0,6.0,left,1.0,0.6873170420003589,,accuracy,space,5.066875582997454,,,,,,0.0,0.0,0.0,0.0,6.0,1.0,13.0,0.0,234.0632269589987,,,,,,,,,234.05509879201415,234.84340420900844,235.64568275000784,235.63760470901616,235.63806783399195,235.64568275000784,235.64568275000784,235.64568275000784,,236.33789391699247,,,,,,,,,,,,,,,,,,,,,,,,,,,,,,left,1.0,0.6873170420003589,,,,,,sub-213,1,random_dot,119.69597222863972,
left,left,14.0,0.0,7.0,right,0.0,0.4755743329878896,,accuracy,space,5.066875582997454,,,,,,0.0,0.0,0.0,0.0,7.0,0.0,14.0,0.0,236.34597975001088,,,,,,,,,236.3383055840095,236.4367807499948,237.2284686670173,237.22068879200376,237.2211566250189,237.2284686670173,237.2284686670173,237.2284686670173,,237.7145312920038,,,,,,,,,,,,,,,,,,,,,,,,,,,,,,right,0.0,0.4755743329878896,,,,,,sub-213,1,random_dot,119.69597222863972,
right,right,15.0,1.0,7.0,right,1.0,0.9803710000123828,,accuracy,space,5.066875582997454,,,,,,0.0,0.0,0.0,0.0,7.0,1.0,15.0,1.0,237.72030229200027,,,,,,,,,237.71493666700556,237.80943445902085,238.60290054199868,238.59261125000197,238.5930905000132,238.60290054199868,238.60290054199868,238.60290054199868,,239.5880731670186,,,,,,,,,,,,,,,,,,,,,,,,,,,,,,right,1.0,0.9803710000123828,,,,,,sub-213,1,random_dot,119.69597222863972,
left,left,16.0,0.0,8.0,right,0.0,4.6692669589829165,,accuracy,space,5.066875582997454,,,,,,0.0,0.0,0.0,0.0,8.0,0.0,16.0,0.0,239.59655445901444,,,,,,,,,239.58849487500265,239.9369597090117,240.72846812501663,240.72081808399523,240.7212794170191,240.72846812501663,240.72846812501663,240.72846812501663,,245.40484441700391,,,,,,,,,,,,,,,,,,,,,,,,,,,,,,right,0.0,4.6692669589829165,,,,,,sub-213,1,random_dot,119.69597222863972,
right,right,17.0,1.0,8.0,left,0.0,0.8297257910016924,,accuracy,space,5.066875582997454,,,,,,0.0,0.0,0.0,0.0,8.0,1.0,17.0,1.0,245.4134462090151,,,,,,,,,245.40526195900748,246.60372124999407,247.3956255000085,247.3875810420141,247.3880551670154,247.3956255000085,247.3956255000085,247.3956255000085,,248.2279271669977,,,,,,,,,,,,,,,,,,,,,,,,,,,,,,left,0.0,0.8297257910016924,,,,,,sub-213,1,random_dot,119.69597222863972,
left,left,18.0,0.0,9.0,right,0.0,1.03123212500941,,accuracy,space,5.066875582997454,,,,,,0.0,0.0,0.0,0.0,9.0,0.0,18.0,0.0,248.2366900000197,,,,,,,,,248.22834775000229,249.4275285420008,250.22894854200425,250.22095141699535,250.22140262500037,250.22894854200425,250.22894854200425,250.22894854200425,,251.2624780420156,,,,,,,,,,,,,,,,,,,,,,,,,,,,,,right,0.0,1.03123212500941,,,,,,sub-213,1,random_dot,119.69597222863972,
right,right,19.0,1.0,9.0,left,0.0,1.01154329199926,,accuracy,space,5.066875582997454,,,,,,0.0,0.0,0.0,0.0,9.0,1.0,19.0,1.0,251.2867103750177,,,,,,,,,251.26288229200875,251.61034395900788,252.4124352920044,252.40436975000196,252.4048270000203,252.4124352920044,252.4124352920044,252.4124352920044,,253.42793758399785,,,,,,,,,,,,,,,,,,,,,,,,,,,,,,left,0.0,1.01154329199926,,,,,,sub-213,1,random_dot,119.69597222863972,
left,left,20.0,0.0,10.0,right,0.0,1.0470572079939302,,accuracy,space,5.066875582997454,,,,,,0.0,0.0,0.0,0.0,10.0,0.0,20.0,0.0,253.4363595000177,,,,,,,,,253.42833475000225,253.77715979199277,254.5699647919973,254.5603347090073,254.56081370901663,254.5699647919973,254.5699647919973,254.5699647919973,,255.6215962090064,,,,,,,,,,,,,,,,,,,,,,,,,,,,,,right,0.0,1.0470572079939302,,,,,,sub-213,1,random_dot,119.69597222863972,
right,right,21.0,1.0,10.0,right,1.0,1.3577561670099385,,accuracy,space,5.066875582997454,,,,,,0.0,0.0,0.0,0.0,10.0,1.0,21.0,1.0,255.6301860840176,,,,,,,,,255.62199933402007,255.72034895900288,256.512740709004,256.5045675839938,256.5050800839963,256.512740709004,256.512740709004,256.512740709004,,257.8727215419931,,,,,,,,,,,,,,,,,,,,,,,,,,,,,,right,1.0,1.3577561670099385,,,,,,sub-213,1,random_dot,119.69597222863972,
left,left,22.0,0.0,11.0,right,0.0,0.7451672500174027,,accuracy,space,5.066875582997454,,,,,,0.0,0.0,0.0,0.0,11.0,0.0,22.0,0.0,257.8809732090158,,,,,,,,,257.87316062499303,258.2205182500184,259.0124759169994,259.00442775001284,259.00490004199673,259.0124759169994,259.0124759169994,259.0124759169994,,259.76222258401685,,,,,,,,,,,,,,,,,,,,,,,,,,,,,,right,0.0,0.7451672500174027,,,,,,sub-213,1,random_dot,119.69597222863972,
right,right,23.0,1.0,11.0,right,1.0,0.9004780419927556,,accuracy,space,5.066875582997454,,,,,,0.0,0.0,0.0,0.0,11.0,1.0,23.0,1.0,259.770153999998,,,,,,,,,259.76263012501295,260.1104200000118,260.9033750840172,260.8942490000045,260.8947109589935,260.9033750840172,260.9033750840172,260.9033750840172,,261.80596445899573,,,,,,,,,,,,,,,,,,,,,,,,,,,,,,right,1.0,0.9004780419927556,,,,,,sub-213,1,random_dot,119.69597222863972,
left,left,24.0,0.0,12.0,right,0.0,1.9413251249934549,,accuracy,space,5.066875582997454,,,,,,0.0,0.0,0.0,0.0,12.0,0.0,24.0,0.0,261.8144052090065,,,,,,,,,261.8063666250091,263.00374379201094,263.7959620000038,263.7878786250076,263.7883512090193,263.7959620000038,263.7959620000038,263.7959620000038,,265.74954129199614,,,,,,,,,,,,,,,,,,,,,,,,,,,,,,right,0.0,1.9413251249934549,,,,,,sub-213,1,random_dot,119.69597222863972,
right,right,25.0,1.0,12.0,left,0.0,0.3839436670241412,,accuracy,space,5.066875582997454,,,,,,0.0,0.0,0.0,0.0,12.0,1.0,25.0,1.0,265.7559884590155,,,,,,,,,265.74997608401463,265.84273966701585,266.63681825000094,266.6263383339974,266.626802209008,266.63681825000094,266.63681825000094,266.63681825000094,,267.0326016670151,,,,,,,,,,,,,,,,,,,,,,,,,,,,,,left,0.0,0.3839436670241412,,,,,,sub-213,1,random_dot,119.69597222863972,
right,right,26.0,0.0,13.0,left,0.0,1.7203749580075964,,accuracy,space,5.066875582997454,,,,,,0.0,0.0,0.0,0.0,13.0,0.0,26.0,1.0,267.03933979201247,,,,,,,,,267.03302158400766,267.8270288750064,268.629456374998,268.6213950840174,268.6218582500005,268.629456374998,268.629456374998,268.629456374998,,270.3555729170039,,,,,,,,,,,,,,,,,,,,,,,,,,,,,,left,0.0,1.7203749580075964,,,,,,sub-213,1,random_dot,119.69597222863972,
left,left,27.0,1.0,13.0,left,1.0,1.2323422499757726,,accuracy,space,5.066875582997454,,,,,,0.0,0.0,0.0,0.0,13.0,1.0,27.0,0.0,270.3636652090063,,,,,,,,,270.3559789170104,271.1541164590162,271.94639166700654,271.93814974999987,271.9386470419995,271.94639166700654,271.94639166700654,271.94639166700654,,273.1889045420103,,,,,,,,,,,,,,,,,,,,,,,,,,,,,,left,1.0,1.2323422499757726,,,,,,sub-213,1,random_dot,119.69597222863972,
right,right,28.0,0.0,14.0,left,0.0,1.3582407500070983,,accuracy,space,5.066875582997454,,,,,,0.0,0.0,0.0,0.0,14.0,0.0,28.0,1.0,273.1973287090077,,,,,,,,,273.1893258750206,273.9876809590205,274.77971875001094,274.7713990000193,274.77186629199423,274.77971875001094,274.77971875001094,274.77971875001094,,276.1489370420168,,,,,,,,,,,,,,,,,,,,,,,,,,,,,,left,0.0,1.3582407500070983,,,,,,sub-213,1,random_dot,119.69597222863972,
left,left,29.0,1.0,14.0,left,1.0,0.9711099590058438,,accuracy,space,5.066875582997454,,,,,,0.0,0.0,0.0,0.0,14.0,1.0,29.0,0.0,276.17028912500245,,,,,,,,,276.1493620419933,276.943671459012,277.7368939589942,277.7265917090117,277.7270727920113,277.7368939589942,277.7368939589942,277.7368939589942,,278.7125014170015,,,,,,,,,,,,,,,,,,,,,,,,,,,,,,left,1.0,0.9711099590058438,,,,,,sub-213,1,random_dot,119.69597222863972,
left,left,30.0,0.0,15.0,right,0.0,2.444273625005735,,accuracy,space,5.066875582997454,,,,,,0.0,0.0,0.0,0.0,15.0,0.0,30.0,0.0,278.72064904199215,,,,,,,,,278.7129191250133,278.8096075000067,279.60363491700264,279.59320058400044,279.59366733400384,279.60363491700264,279.60363491700264,279.60363491700264,,282.05544458399527,,,,,,,,,,,,,,,,,,,,,,,,,,,,,,right,0.0,2.444273625005735,,,,,,sub-213,1,random_dot,119.69597222863972,
right,right,31.0,1.0,15.0,left,0.0,1.4750165410223417,,accuracy,space,5.066875582997454,,,,,,0.0,0.0,0.0,0.0,15.0,1.0,31.0,1.0,282.063853833999,,,,,,,,,282.05586608400336,282.15435837500263,282.9460164170014,282.9382689589984,282.93870829200023,282.9460164170014,282.9460164170014,282.9460164170014,,284.4330371670076,,,,,,,,,,,,,,,,,,,,,,,,,,,,,,left,0.0,1.4750165410223417,,,,,,sub-213,1,random_dot,119.69597222863972,
left,left,32.0,0.0,16.0,left,1.0,1.6444218329852447,,accuracy,space,5.066875582997454,,,,,,0.0,0.0,0.0,0.0,16.0,0.0,32.0,0.0,284.4391856669972,,,,,,,,,284.4334590420185,284.77763550000964,285.5802459590195,285.57190204199287,285.5724699590064,285.5802459590195,285.5802459590195,285.5802459590195,,287.2292721249978,,,,,,,,,,,,,,,,,,,,,,,,,,,,,,left,1.0,1.6444218329852447,,,,,,sub-213,1,random_dot,119.69597222863972,
right,right,33.0,1.0,16.0,left,0.0,2.0439311250229366,,accuracy,space,5.066875582997454,,,,,,0.0,0.0,0.0,0.0,16.0,1.0,33.0,1.0,287.2373438749928,,,,,,,,,287.22967608401086,287.3257292089984,288.1204242090171,288.11022616701666,288.1107071250153,288.1204242090171,288.1204242090171,288.1204242090171,,290.1725313340139,,,,,,,,,,,,,,,,,,,,,,,,,,,,,,left,0.0,2.0439311250229366,,,,,,sub-213,1,random_dot,119.69597222863972,
right,right,34.0,0.0,17.0,left,0.0,1.5102671669737902,,accuracy,space,5.066875582997454,,,,,,0.0,0.0,0.0,0.0,17.0,0.0,34.0,1.0,290.1807957919955,,,,,,,,,290.17295274999924,290.5211624999938,291.40286649999325,291.3052239170065,291.30572383399704,291.40286649999325,291.40286649999325,291.40286649999325,,292.9222440420126,,,,,,,,,,,,,,,,,,,,,,,,,,,,,,left,0.0,1.5102671669737902,,,,,,sub-213,1,random_dot,119.69597222863972,
left,left,35.0,1.0,17.0,right,0.0,0.533858208975289,,accuracy,space,5.066875582997454,,,,,,0.0,0.0,0.0,0.0,17.0,1.0,35.0,0.0,292.9287631670013,,,,,,,,,292.9225768750184,293.2613774590136,294.0634116670117,294.0551656250027,294.0556347499951,294.0634116670117,294.0634116670117,294.0634116670117,,294.60516050001024,,,,,,,,,,,,,,,,,,,,,,,,,,,,,,right,0.0,0.533858208975289,,,,,,sub-213,1,random_dot,119.69597222863972,
right,right,36.0,0.0,18.0,right,1.0,0.8163649170019198,,accuracy,space,5.066875582997454,,,,,,0.0,0.0,0.0,0.0,18.0,0.0,36.0,1.0,294.6132793340076,,,,,,,,,294.6055556249921,295.39530041700345,296.19708725000964,296.1887585000077,296.1893041669973,296.19708725000964,296.19708725000964,296.19708725000964,,297.0224046249932,,,,,,,,,,,,,,,,,,,,,,,,,,,,,,right,1.0,0.8163649170019198,,,,,,sub-213,1,random_dot,119.69597222863972,
left,left,37.0,1.0,18.0,right,0.0,0.6053736670000944,,accuracy,space,5.066875582997454,,,,,,0.0,0.0,0.0,0.0,18.0,1.0,37.0,0.0,297.0309654590092,,,,,,,,,297.02282404201105,297.37130858399905,298.16293391701765,298.15508762499667,298.15556300000753,298.16293391701765,298.16293391701765,298.16293391701765,,298.7725013750023,,,,,,,,,,,,,,,,,,,,,,,,,,,,,,right,0.0,0.6053736670000944,,,,,,sub-213,1,random_dot,119.69597222863972,
right,right,38.0,0.0,19.0,left,0.0,0.3407637920172419,,accuracy,space,5.066875582997454,,,,,,0.0,0.0,0.0,0.0,19.0,0.0,38.0,1.0,298.78081695901346,,,,,,,,,298.77292004201445,298.87153208401287,299.66338254199945,299.65528179201647,299.6558153750084,299.66338254199945,299.66338254199945,299.66338254199945,,300.0062583340041,,,,,,,,,,,,,,,,,,,,,,,,,,,,,,left,0.0,0.3407637920172419,,,,,,sub-213,1,random_dot,119.69597222863972,
left,left,39.0,1.0,19.0,right,0.0,0.9040517910034396,,accuracy,space,5.066875582997454,,,,,,0.0,0.0,0.0,0.0,19.0,1.0,39.0,0.0,300.014664834016,,,,,,,,,300.0066554170044,300.80459400001564,301.5965892499953,301.5885149590031,301.5889752499934,301.5965892499953,301.5965892499953,301.5965892499953,,302.5057629999937,,,,,,,,,,,,,,,,,,,,,,,,,,,,,,right,0.0,0.9040517910034396,,,,,,sub-213,1,random_dot,119.69597222863972,
right,right,40.0,0.0,20.0,right,1.0,0.65427808300592,,accuracy,space,5.066875582997454,,,,,,0.0,0.0,0.0,0.0,20.0,0.0,40.0,1.0,302.5139295000117,,,,,,,,,302.5061832090141,303.3046950419957,304.09732545900624,304.08889362501213,304.0894807500008,304.09732545900624,304.09732545900624,304.09732545900624,,304.7559039590124,,,,,,,,,,,,,,,,,,,,,,,,,,,,,,right,1.0,0.65427808300592,,,,,,sub-213,1,random_dot,119.69597222863972,
left,left,41.0,1.0,20.0,left,1.0,0.6416898749885149,,accuracy,space,5.066875582997454,,,,,,0.0,0.0,0.0,0.0,20.0,1.0,41.0,0.0,304.7642726250051,,,,,,,,,304.75632083401433,305.1047516670078,305.89638366701547,305.88856337501784,305.889040250011,305.89638366701547,305.89638366701547,305.89638366701547,,306.5504937090154,,,,,,,,,,,,,,,,,,,,,,,,,,,,,,left,1.0,0.6416898749885149,,,,,,sub-213,1,random_dot,119.69597222863972,
left,left,42.0,0.0,21.0,right,0.0,2.419596249994356,,accuracy,space,5.066875582997454,,,,,,0.0,0.0,0.0,0.0,21.0,0.0,42.0,0.0,306.55610404201434,,,,,,,,,306.5509048340027,306.64386066701263,307.4373830420081,307.42746775000705,307.42799954200746,307.4373830420081,307.4373830420081,307.4373830420081,,309.86313141701976,,,,,,,,,,,,,,,,,,,,,,,,,,,,,,right,0.0,2.419596249994356,,,,,,sub-213,1,random_dot,119.69597222863972,
right,right,43.0,1.0,21.0,right,1.0,0.4146154999907594,,accuracy,space,5.066875582997454,,,,,,0.0,0.0,0.0,0.0,21.0,1.0,43.0,1.0,309.8712709170068,,,,,,,,,309.8635287920188,311.061232542008,311.85419704200467,311.84465750001254,311.8451249590144,311.85419704200467,311.85419704200467,311.85419704200467,,312.27264870901126,,,,,,,,,,,,,,,,,,,,,,,,,,,,,,right,1.0,0.4146154999907594,,,,,,sub-213,1,random_dot,119.69597222863972,
right,right,44.0,0.0,22.0,right,1.0,3.0580984999833163,,accuracy,space,5.066875582997454,,,,,,0.0,0.0,0.0,0.0,22.0,0.0,44.0,1.0,312.281106792012,,,,,,,,,312.27306133401,313.0715130419994,313.8635252090171,313.8554007500061,313.8558585839928,313.8635252090171,313.8635252090171,313.8635252090171,,316.93226200001664,,,,,,,,,,,,,,,,,,,,,,,,,,,,,,right,1.0,3.0580984999833163,,,,,,sub-213,1,random_dot,119.69597222863972,
left,left,45.0,1.0,22.0,left,1.0,1.5746192919905295,,accuracy,space,5.066875582997454,,,,,,0.0,0.0,0.0,0.0,22.0,1.0,45.0,0.0,316.9378810840135,,,,,,,,,316.9326825000171,317.0282879169972,317.82100108399754,317.8116420840088,317.8121103339945,317.82100108399754,317.82100108399754,317.82100108399754,,319.4062292090093,,,,,,,,,,,,,,,,,,,,,,,,,,,,,,left,1.0,1.5746192919905295,,,,,,sub-213,1,random_dot,119.69597222863972,
left,left,46.0,0.0,23.0,right,0.0,0.2248139579896815,,accuracy,space,5.066875582997454,,,,,,0.0,0.0,0.0,0.0,23.0,0.0,46.0,0.0,319.41185554201365,,,,,,,,,319.4066392499953,320.60473770901444,321.3970519170107,321.3888722920092,321.38934887500363,321.3970519170107,321.3970519170107,321.3970519170107,,321.6322316250007,,,,,,,,,,,,,,,,,,,,,,,,,,,,,,right,0.0,0.2248139579896815,,,,,,sub-213,1,random_dot,119.69597222863972,
right,right,47.0,1.0,23.0,left,0.0,0.3923289999947883,,accuracy,space,5.066875582997454,,,,,,0.0,0.0,0.0,0.0,23.0,1.0,47.0,1.0,321.6376418340078,,,,,,,,,321.6326473749941,321.9782667499967,322.7710161670111,322.761524542002,322.76198537499295,322.7710161670111,322.7710161670111,322.7710161670111,,323.17303379200166,,,,,,,,,,,,,,,,,,,,,,,,,,,,,,left,0.0,0.3923289999947883,,,,,,sub-213,1,random_dot,119.69597222863972,
right,right,48.0,0.0,24.0,left,0.0,0.3004538749810308,,accuracy,space,5.066875582997454,,,,,,0.0,0.0,0.0,0.0,24.0,0.0,48.0,1.0,323.1814899590099,,,,,,,,,323.17344124999363,323.97163941699546,324.7635903340124,324.755571125017,324.7560311249981,324.7635903340124,324.7635903340124,324.7635903340124,,325.0729469170037,,,,,,,,,,,,,,,,,,,,,,,,,,,,,,left,0.0,0.3004538749810308,,,,,,sub-213,1,random_dot,119.69597222863972,
left,left,49.0,1.0,24.0,left,1.0,1.2432355000055395,,accuracy,space,5.066875582997454,,,,,,0.0,0.0,0.0,0.0,24.0,1.0,49.0,0.0,325.0811185420025,,,,,,,,,325.07335520899505,325.17215012499946,325.96329225000227,325.95550283399643,325.9559847089986,325.96329225000227,325.96329225000227,325.96329225000227,,327.2131815419998,,,,,,,,,,,,,,,,,,,,,,,,,,,,,,left,1.0,1.2432355000055395,,,,,,sub-213,1,random_dot,119.69597222863972,
right,right,50.0,0.0,25.0,left,0.0,0.8703627090144437,,accuracy,space,5.066875582997454,,,,,,0.0,0.0,0.0,0.0,25.0,0.0,50.0,1.0,327.2211543750018,,,,,,,,,327.2135710839939,327.31158129201503,328.11393166700145,328.1057781249983,328.10623666699394,328.11393166700145,328.11393166700145,328.11393166700145,,328.98994741699426,,,,,,,,,,,,,,,,,,,,,,,,,,,,,,left,0.0,0.8703627090144437,,,,,,sub-213,1,random_dot,119.69597222863972,
left,left,51.0,1.0,25.0,left,1.0,0.7192392080032732,,accuracy,space,5.066875582997454,,,,,,0.0,0.0,0.0,0.0,25.0,1.0,51.0,0.0,328.99826270900667,,,,,,,,,328.9903588340094,329.3385247090191,330.1307415420015,330.1225510420045,330.12301358400146,330.1307415420015,330.1307415420015,330.1307415420015,,330.8559238750022,,,,,,,,,,,,,,,,,,,,,,,,,,,,,,left,1.0,0.7192392080032732,,,,,,sub-213,1,random_dot,119.69597222863972,
left,left,52.0,0.0,26.0,left,1.0,1.15443100000266,,accuracy,space,5.066875582997454,,,,,,0.0,0.0,0.0,0.0,26.0,0.0,52.0,0.0,330.8643622499949,,,,,,,,,330.85632570899907,331.1948720420187,331.9975909170171,331.9893285839935,331.9898771670123,331.9975909170171,331.9975909170171,331.9975909170171,,333.1564987500024,,,,,,,,,,,,,,,,,,,,,,,,,,,,,,left,1.0,1.15443100000266,,,,,,sub-213,1,random_dot,119.69597222863972,
right,right,53.0,1.0,26.0,right,1.0,0.2789255419920664,,accuracy,space,5.066875582997454,,,,,,0.0,0.0,0.0,0.0,26.0,1.0,53.0,1.0,333.1648037499981,,,,,,,,,333.1569058340101,333.9551919590158,334.7476760839927,334.73932366701774,334.739865792013,334.7476760839927,334.7476760839927,334.7476760839927,,335.03039970900863,,,,,,,,,,,,,,,,,,,,,,,,,,,,,,right,1.0,0.2789255419920664,,,,,,sub-213,1,random_dot,119.69597222863972,
right,right,54.0,0.0,27.0,left,0.0,0.4623550830001477,,accuracy,space,5.066875582997454,,,,,,0.0,0.0,0.0,0.0,27.0,0.0,54.0,1.0,335.03871258400613,,,,,,,,,335.03081191700767,335.12719458399806,335.9212410839973,335.9108667090186,335.9113250420196,335.9212410839973,335.9212410839973,335.9212410839973,,336.38996316702105,,,,,,,,,,,,,,,,,,,,,,,,,,,,,,left,0.0,0.4623550830001477,,,,,,sub-213,1,random_dot,119.69597222863972,
left,left,55.0,1.0,27.0,left,1.0,0.7418794590048492,,accuracy,space,5.066875582997454,,,,,,0.0,0.0,0.0,0.0,27.0,1.0,55.0,0.0,336.3986342920107,,,,,,,,,336.39038712499314,336.7381177500065,337.53019304201007,337.52250237500994,337.5229458340036,337.53019304201007,337.53019304201007,337.53019304201007,,338.2745875840192,,,,,,,,,,,,,,,,,,,,,,,,,,,,,,left,1.0,0.7418794590048492,,,,,,sub-213,1,random_dot,119.69597222863972,
left,left,56.0,0.0,28.0,left,1.0,1.0481866249756422,,accuracy,space,5.066875582997454,,,,,,0.0,0.0,0.0,0.0,28.0,0.0,56.0,0.0,338.2827078750124,,,,,,,,,338.274997917004,338.371895334014,339.1640905420063,339.1559124170162,339.1563641669927,339.1640905420063,339.1640905420063,339.1640905420063,,340.2391661670117,,,,,,,,,,,,,,,,,,,,,,,,,,,,,,left,1.0,1.0481866249756422,,,,,,sub-213,1,random_dot,119.69597222863972,
right,right,57.0,1.0,28.0,right,1.0,0.2840964579954743,,accuracy,space,5.066875582997454,,,,,,0.0,0.0,0.0,0.0,28.0,1.0,57.0,1.0,340.2553389170207,,,,,,,,,340.2395649169921,341.42856324999593,342.22145441701286,342.21212625000044,342.2125940420083,342.22145441701286,342.22145441701286,342.22145441701286,,342.51600887501263,,,,,,,,,,,,,,,,,,,,,,,,,,,,,,right,1.0,0.2840964579954743,,,,,,sub-213,1,random_dot,119.69597222863972,
right,right,58.0,0.0,29.0,right,1.0,0.3053603330045007,,accuracy,space,5.066875582997454,,,,,,0.0,0.0,0.0,0.0,29.0,0.0,58.0,1.0,342.52144337500795,,,,,,,,,342.516410250013,343.31074908401933,344.1047357089992,344.09455500001786,344.09500962501625,344.1047357089992,344.1047357089992,344.1047357089992,,344.413655167009,,,,,,,,,,,,,,,,,,,,,,,,,,,,,,right,1.0,0.3053603330045007,,,,,,sub-213,1,random_dot,119.69597222863972,
left,left,59.0,1.0,29.0,left,1.0,0.9042638749815524,,accuracy,space,5.066875582997454,,,,,,0.0,0.0,0.0,0.0,29.0,1.0,59.0,0.0,344.422425124998,,,,,,,,,344.4140582090185,344.51178854200407,345.30469049999374,345.29625937499804,345.29680833400926,345.30469049999374,345.30469049999374,345.30469049999374,,346.21361770899966,,,,,,,,,,,,,,,,,,,,,,,,,,,,,,left,1.0,0.9042638749815524,,,,,,sub-213,1,random_dot,119.69597222863972,
,,0.0,0.0,0.0,,,,,accuracy,space,5.066875582997454,,,,,,0.0,0.0,0.0,0.0,,,,,,,,,,,,,,,,,,,,,,,,,,,,,,,,,,,,,,,,,,,,,,,,,,,,,,,,,,,,,sub-213,1,random_dot,119.69597222863972,
right,right,0.0,0.0,0.0,right,1.0,3.535664208000526,,speed,space,3.676831958000548,,,,,,0.0,1.0,1.0,1.0,0.0,0.0,0.0,1.0,349.93960216699634,,,,,,,,,349.9304202920175,350.2720797090151,351.0641832500114,351.05608954202035,351.0565696670092,351.0641832500114,351.0641832500114,351.0641832500114,,354.60679633400287,,,,,,,,,,,,,,,,,,,,,,,346.2282954590046,346.2366245000157,346.2366245000157,349.9236593749956,space,3.676831958000548,,right,1.0,3.535664208000526,,,,,,sub-213,1,random_dot,119.69597222863972,
left,left,1.0,1.0,0.0,right,0.0,1.1419642079854384,,speed,space,3.676831958000548,,,,,,0.0,1.0,1.0,1.0,0.0,1.0,1.0,0.0,354.61526787499315,,,,,,,,,354.6072160420008,354.70588937500725,355.4980244589969,355.4898795839981,355.4904507920146,355.4980244589969,355.4980244589969,355.4980244589969,,356.6475576249941,,,,,,,,,,,,,,,,,,,,,,,,,,,,,,right,0.0,1.1419642079854384,,,,,,sub-213,1,random_dot,119.69597222863972,
left,left,2.0,0.0,1.0,right,0.0,0.4645741670101415,,speed,space,3.676831958000548,,,,,,0.0,1.0,1.0,1.0,1.0,0.0,2.0,0.0,356.6718810420134,,,,,,,,,356.6479671249981,357.44551212500664,358.2385085420101,358.2290205419995,358.2294980000006,358.2385085420101,358.2385085420101,358.2385085420101,,358.7069284589961,,,,,,,,,,,,,,,,,,,,,,,,,,,,,,right,0.0,0.4645741670101415,,,,,,sub-213,1,random_dot,119.69597222863972,
right,right,3.0,1.0,1.0,right,1.0,0.3506105409760494,,speed,space,3.676831958000548,,,,,,0.0,1.0,1.0,1.0,1.0,1.0,3.0,1.0,358.71529466699576,,,,,,,,,358.7073361249932,359.4959544170124,360.2885921669949,360.2796446249995,360.28009983399534,360.2885921669949,360.2885921669949,360.2885921669949,,360.6512858339993,,,,,,,,,,,,,,,,,,,,,,,,,,,,,,right,1.0,0.3506105409760494,,,,,,sub-213,1,random_dot,119.69597222863972,
left,left,4.0,0.0,2.0,left,1.0,0.3261329579981975,,speed,space,3.676831958000548,,,,,,0.0,1.0,1.0,1.0,2.0,0.0,4.0,0.0,360.6575390420039,,,,,,,,,360.651701625,360.74762400001055,361.54860650000046,361.53982241702033,361.5404321250098,361.54860650000046,361.54860650000046,361.54860650000046,,361.8807015000202,,,,,,,,,,,,,,,,,,,,,,,,,,,,,,left,1.0,0.3261329579981975,,,,,,sub-213,1,random_dot,119.69597222863972,
right,right,5.0,1.0,2.0,left,0.0,0.2952709160163067,,speed,space,3.676831958000548,,,,,,0.0,1.0,1.0,1.0,2.0,1.0,5.0,1.0,361.88913804199547,,,,,,,,,361.8810944170109,361.9781406669936,362.7717359170201,362.76159570901655,362.7620756670076,362.7717359170201,362.7717359170201,362.7717359170201,,363.0731485839933,,,,,,,,,,,,,,,,,,,,,,,,,,,,,,left,0.0,0.2952709160163067,,,,,,sub-213,1,random_dot,119.69597222863972,
right,right,6.0,0.0,3.0,right,1.0,0.3025951670133509,,speed,space,3.676831958000548,,,,,,0.0,1.0,1.0,1.0,3.0,0.0,6.0,1.0,363.0816301669984,,,,,,,,,363.0735560420144,364.26194475000375,365.0543474169972,365.04627895899466,365.0467553750205,365.0543474169972,365.0543474169972,365.0543474169972,,365.3640087920066,,,,,,,,,,,,,,,,,,,,,,,,,,,,,,right,1.0,0.3025951670133509,,,,,,sub-213,1,random_dot,119.69597222863972,
left,left,7.0,1.0,3.0,left,1.0,0.3585850410163402,,speed,space,3.676831958000548,,,,,,0.0,1.0,1.0,1.0,3.0,1.0,7.0,0.0,365.3728395420185,,,,,,,,,365.3643997090112,365.712347334018,366.505234375014,366.4959962920111,366.4964564999973,366.505234375014,366.505234375014,366.505234375014,,366.87403758399887,,,,,,,,,,,,,,,,,,,,,,,,,,,,,,left,1.0,0.3585850410163402,,,,,,sub-213,1,random_dot,119.69597222863972,
right,right,8.0,0.0,4.0,left,0.0,0.3251072500133887,,speed,space,3.676831958000548,,,,,,0.0,1.0,1.0,1.0,4.0,0.0,8.0,1.0,366.87960504202056,,,,,,,,,366.8744362090074,367.2224171670096,368.0144437090202,368.0064114590059,368.0069364590163,368.0144437090202,368.0144437090202,368.0144437090202,,368.3502478339942,,,,,,,,,,,,,,,,,,,,,,,,,,,,,,left,0.0,0.3251072500133887,,,,,,sub-213,1,random_dot,119.69597222863972,
left,left,9.0,1.0,4.0,left,1.0,0.3464809999859426,,speed,space,3.676831958000548,,,,,,0.0,1.0,1.0,1.0,4.0,1.0,9.0,0.0,368.3719081669988,,,,,,,,,368.3506783340126,369.1462350840157,369.9474390000105,369.9396253339946,369.9400958339975,369.9474390000105,369.9474390000105,369.9474390000105,,370.2973397920141,,,,,,,,,,,,,,,,,,,,,,,,,,,,,,left,1.0,0.3464809999859426,,,,,,sub-213,1,random_dot,119.69597222863972,
right,right,10.0,0.0,5.0,right,1.0,0.2792167500010691,,speed,space,3.676831958000548,,,,,,0.0,1.0,1.0,1.0,5.0,0.0,10.0,1.0,370.3054584170168,,,,,,,,,370.2977351669979,371.4957412920194,372.2977768749988,372.2897181250155,372.2901758750086,372.2977768749988,372.2977768749988,372.2977768749988,,372.58086833401467,,,,,,,,,,,,,,,,,,,,,,,,,,,,,,right,1.0,0.2792167500010691,,,,,,sub-213,1,random_dot,119.69597222863972,
left,left,11.0,1.0,5.0,right,0.0,0.3148834160238039,,speed,space,3.676831958000548,,,,,,0.0,1.0,1.0,1.0,5.0,1.0,11.0,0.0,372.5888347500004,,,,,,,,,372.58127941700513,373.7794252920139,374.5811040000117,374.5731047090085,374.5735630840063,374.5811040000117,374.5811040000117,374.5811040000117,,374.8981697919953,,,,,,,,,,,,,,,,,,,,,,,,,,,,,,right,0.0,0.3148834160238039,,,,,,sub-213,1,random_dot,119.69597222863972,
right,right,12.0,0.0,6.0,right,1.0,2.2137550839979667,,speed,space,3.676831958000548,,,,,,0.0,1.0,1.0,1.0,6.0,0.0,12.0,1.0,374.92211716700695,,,,,,,,,374.89857641700655,374.9954184170056,375.7878666250035,375.7797781669942,375.7802377089975,375.7878666250035,375.7878666250035,375.7878666250035,,378.0074384170002,,,,,,,,,,,,,,,,,,,,,,,,,,,,,,right,1.0,2.2137550839979667,,,,,,sub-213,1,random_dot,119.69597222863972,
left,left,13.0,1.0,6.0,left,1.0,1.4487444999977015,,speed,space,3.676831958000548,,,,,,0.0,1.0,1.0,1.0,6.0,1.0,13.0,0.0,378.0156011670188,,,,,,,,,378.0078524170094,378.10578804201214,378.8981917920173,378.8900377090031,378.8904989169969,378.8981917920173,378.8981917920173,378.8981917920173,,380.3573506250104,,,,,,,,,,,,,,,,,,,,,,,,,,,,,,left,1.0,1.4487444999977015,,,,,,sub-213,1,random_dot,119.69597222863972,
right,right,14.0,0.0,7.0,left,0.0,1.4452095410088075,,speed,space,3.676831958000548,,,,,,0.0,1.0,1.0,1.0,7.0,0.0,14.0,1.0,380.3658432920056,,,,,,,,,380.3577674590051,381.15604233401245,381.9480840420001,381.9403404589975,381.9408632090199,381.9480840420001,381.9480840420001,381.9480840420001,,383.3973290839931,,,,,,,,,,,,,,,,,,,,,,,,,,,,,,left,0.0,1.4452095410088075,,,,,,sub-213,1,random_dot,119.69597222863972,
left,left,15.0,1.0,7.0,right,0.0,2.183777250000276,,speed,space,3.676831958000548,,,,,,0.0,1.0,1.0,1.0,7.0,1.0,15.0,0.0,383.40544591701473,,,,,,,,,383.3977192089951,384.1971311670204,384.9991842920135,384.9899880840094,384.99044408401824,384.9991842920135,384.9991842920135,384.9991842920135,,387.1907945419953,,,,,,,,,,,,,,,,,,,,,,,,,,,,,,right,0.0,2.183777250000276,,,,,,sub-213,1,random_dot,119.69597222863972,
right,right,16.0,0.0,8.0,right,1.0,1.899887916020816,,speed,space,3.676831958000548,,,,,,0.0,1.0,1.0,1.0,8.0,0.0,16.0,1.0,387.1992288750189,,,,,,,,,387.1912140420173,387.5397954999935,388.33179650001694,388.3234156249964,388.32390658400254,388.33179650001694,388.33179650001694,388.33179650001694,,390.2406811249966,,,,,,,,,,,,,,,,,,,,,,,,,,,,,,right,1.0,1.899887916020816,,,,,,sub-213,1,random_dot,119.69597222863972,
left,left,17.0,1.0,8.0,right,0.0,0.410069207980996,,speed,space,3.676831958000548,,,,,,0.0,1.0,1.0,1.0,8.0,1.0,17.0,0.0,390.2490680000046,,,,,,,,,390.241086583992,391.02959245900274,391.832135500008,391.8238242499938,391.8243901669921,391.832135500008,391.832135500008,391.832135500008,,392.24747187501634,,,,,,,,,,,,,,,,,,,,,,,,,,,,,,right,0.0,0.410069207980996,,,,,,sub-213,1,random_dot,119.69597222863972,
right,right,18.0,0.0,9.0,left,0.0,0.291640583978733,,speed,space,3.676831958000548,,,,,,0.0,1.0,1.0,1.0,9.0,0.0,18.0,1.0,392.255638083996,,,,,,,,,392.24788391700713,392.5958548340132,393.398604542017,393.39022145900526,393.390663875005,393.398604542017,393.398604542017,393.398604542017,,393.70124529200257,,,,,,,,,,,,,,,,,,,,,,,,,,,,,,left,0.0,0.291640583978733,,,,,,sub-213,1,random_dot,119.69597222863972,
left,left,19.0,1.0,9.0,left,1.0,0.3495217910094652,,speed,space,3.676831958000548,,,,,,0.0,1.0,1.0,1.0,9.0,1.0,19.0,0.0,393.7080183340004,,,,,,,,,393.7016469170048,394.0463821669982,394.84813162501086,394.84006683400366,394.8405251670047,394.84813162501086,394.84813162501086,394.84813162501086,,395.20752062500105,,,,,,,,,,,,,,,,,,,,,,,,,,,,,,left,1.0,0.3495217910094652,,,,,,sub-213,1,random_dot,119.69597222863972,
right,right,20.0,0.0,10.0,right,1.0,0.3614135420066304,,speed,space,3.676831958000548,,,,,,0.0,1.0,1.0,1.0,10.0,0.0,20.0,1.0,395.21594229200855,,,,,,,,,395.2079241250176,396.00631829199847,396.7981976250012,396.7901413750078,396.7906021249946,396.7981976250012,396.7981976250012,396.7981976250012,,397.1646102920058,,,,,,,,,,,,,,,,,,,,,,,,,,,,,,right,1.0,0.3614135420066304,,,,,,sub-213,1,random_dot,119.69597222863972,
left,left,21.0,1.0,10.0,right,0.0,1.279352374986047,,speed,space,3.676831958000548,,,,,,0.0,1.0,1.0,1.0,10.0,1.0,21.0,0.0,397.172679750016,,,,,,,,,397.1650044170092,397.5137010840117,398.3149330840097,398.3070024170156,398.3074482500088,398.3149330840097,398.3149330840097,398.3149330840097,,399.5979944170104,,,,,,,,,,,,,,,,,,,,,,,,,,,,,,right,0.0,1.279352374986047,,,,,,sub-213,1,random_dot,119.69597222863972,
right,right,22.0,0.0,11.0,right,1.0,1.0027592919941526,,speed,space,3.676831958000548,,,,,,0.0,1.0,1.0,1.0,11.0,0.0,22.0,1.0,399.6059562920127,,,,,,,,,399.5983928340138,399.9459194999945,400.73850654199487,400.73037500001374,400.7308353340195,400.73850654199487,400.73850654199487,400.73850654199487,,401.74805183400167,,,,,,,,,,,,,,,,,,,,,,,,,,,,,,right,1.0,1.0027592919941526,,,,,,sub-213,1,random_dot,119.69597222863972,
left,left,23.0,1.0,11.0,right,0.0,0.3450586670078337,,speed,space,3.676831958000548,,,,,,0.0,1.0,1.0,1.0,11.0,1.0,23.0,0.0,401.7560963750002,,,,,,,,,401.7484598750016,402.9462939170189,403.7391021249932,403.7299154170032,403.7303769999999,403.7391021249932,403.7391021249932,403.7391021249932,,404.0910720000102,,,,,,,,,,,,,,,,,,,,,,,,,,,,,,right,0.0,0.3450586670078337,,,,,,sub-213,1,random_dot,119.69597222863972,
right,right,24.0,0.0,12.0,right,1.0,0.8758764590020292,,speed,space,3.676831958000548,,,,,,0.0,1.0,1.0,1.0,12.0,0.0,24.0,1.0,404.0997056250053,,,,,,,,,404.0914716669941,404.1890683340025,404.9824881250097,404.9740534170123,404.9746222500107,404.9824881250097,404.9824881250097,404.9824881250097,,405.8644407920074,,,,,,,,,,,,,,,,,,,,,,,,,,,,,,right,1.0,0.8758764590020292,,,,,,sub-213,1,random_dot,119.69597222863972,
left,left,25.0,1.0,12.0,right,0.0,0.4392422499950044,,speed,space,3.676831958000548,,,,,,0.0,1.0,1.0,1.0,12.0,1.0,25.0,0.0,405.8728104170005,,,,,,,,,405.8648711249989,406.66369158402085,407.4648316670209,407.45703387502,407.4575092919986,407.4648316670209,407.4648316670209,407.4648316670209,,407.9076383750071,,,,,,,,,,,,,,,,,,,,,,,,,,,,,,right,0.0,0.4392422499950044,,,,,,sub-213,1,random_dot,119.69597222863972,
right,right,26.0,0.0,13.0,right,1.0,0.7257910829794127,,speed,space,3.676831958000548,,,,,,0.0,1.0,1.0,1.0,13.0,0.0,26.0,1.0,407.9162388750119,,,,,,,,,407.9080370000156,409.10661691700807,409.8989290840109,409.8905555840174,409.8910864999925,409.8989290840109,409.8989290840109,409.8989290840109,,410.6310645840131,,,,,,,,,,,,,,,,,,,,,,,,,,,,,,right,1.0,0.7257910829794127,,,,,,sub-213,1,random_dot,119.69597222863972,
left,left,27.0,1.0,13.0,right,0.0,0.6576534170017112,,speed,space,3.676831958000548,,,,,,0.0,1.0,1.0,1.0,13.0,1.0,27.0,0.0,410.6392639999976,,,,,,,,,410.6314642500074,411.8303300840198,412.6322527920129,412.6238431670063,412.6243767499982,412.6322527920129,412.6322527920129,412.6322527920129,,413.3019459170173,,,,,,,,,,,,,,,,,,,,,,,,,,,,,,right,0.0,0.6576534170017112,,,,,,sub-213,1,random_dot,119.69597222863972,
right,right,28.0,0.0,14.0,left,0.0,2.0331235000048764,,speed,space,3.676831958000548,,,,,,0.0,1.0,1.0,1.0,14.0,0.0,28.0,1.0,413.30812391699874,,,,,,,,,413.3023469170148,413.6466439590149,414.44889475000673,414.4405827090086,414.44108445901657,414.44889475000673,414.44889475000673,414.44889475000673,,416.4912481250067,,,,,,,,,,,,,,,,,,,,,,,,,,,,,,left,0.0,2.0331235000048764,,,,,,sub-213,1,random_dot,119.69597222863972,
left,left,29.0,1.0,14.0,right,0.0,0.5636454169871286,,speed,space,3.676831958000548,,,,,,0.0,1.0,1.0,1.0,14.0,1.0,29.0,0.0,416.4996008750168,,,,,,,,,416.4916736250161,417.2895472499949,418.0820650840178,418.0739557089983,418.0744767090073,418.0820650840178,418.0820650840178,418.0820650840178,,418.6482837499934,,,,,,,,,,,,,,,,,,,,,,,,,,,,,,right,0.0,0.5636454169871286,,,,,,sub-213,1,random_dot,119.69597222863972,
left,left,30.0,0.0,15.0,left,1.0,0.9011998330242932,,speed,space,3.676831958000548,,,,,,0.0,1.0,1.0,1.0,15.0,0.0,30.0,0.0,418.6569238340017,,,,,,,,,418.64869375000126,418.7470310000063,419.54844012501417,419.54064379201736,419.5411004170018,419.54844012501417,419.54844012501417,419.54844012501417,,420.45790579202,,,,,,,,,,,,,,,,,,,,,,,,,,,,,,left,1.0,0.9011998330242932,,,,,,sub-213,1,random_dot,119.69597222863972,
right,right,31.0,1.0,15.0,right,1.0,0.4749840419972315,,speed,space,3.676831958000548,,,,,,0.0,1.0,1.0,1.0,15.0,1.0,31.0,1.0,420.4665798750066,,,,,,,,,420.4583118750015,421.65681962500094,422.4493493339978,422.4408774170152,422.4413970420137,422.4493493339978,422.4493493339978,422.4493493339978,,422.9314229169977,,,,,,,,,,,,,,,,,,,,,,,,,,,,,,right,1.0,0.4749840419972315,,,,,,sub-213,1,random_dot,119.69597222863972,
right,right,32.0,0.0,16.0,right,1.0,0.5610873749828897,,speed,space,3.676831958000548,,,,,,0.0,1.0,1.0,1.0,16.0,0.0,32.0,1.0,422.9395984169969,,,,,,,,,422.93181949999416,423.73027754199575,424.5320151670021,424.52397429200937,424.5244210840028,424.5320151670021,424.5320151670021,424.5320151670021,,425.0981775840046,,,,,,,,,,,,,,,,,,,,,,,,,,,,,,right,1.0,0.5610873749828897,,,,,,sub-213,1,random_dot,119.69597222863972,
left,left,33.0,1.0,16.0,left,1.0,0.424488749995362,,speed,space,3.676831958000548,,,,,,0.0,1.0,1.0,1.0,16.0,1.0,33.0,0.0,425.1062822499953,,,,,,,,,425.0985825420066,425.1970468749933,425.998802792019,425.9907388339925,425.9911905839981,425.998802792019,425.998802792019,425.998802792019,,426.42543308401946,,,,,,,,,,,,,,,,,,,,,,,,,,,,,,left,1.0,0.424488749995362,,,,,,sub-213,1,random_dot,119.69597222863972,
right,right,34.0,0.0,17.0,right,1.0,0.5857459580001887,,speed,space,3.676831958000548,,,,,,0.0,1.0,1.0,1.0,17.0,0.0,34.0,1.0,426.4339633340133,,,,,,,,,426.425829875021,427.2234233750205,428.0152244170022,428.0074110419955,428.00786754200817,428.0152244170022,428.0152244170022,428.0152244170022,,428.6080974170181,,,,,,,,,,,,,,,,,,,,,,,,,,,,,,right,1.0,0.5857459580001887,,,,,,sub-213,1,random_dot,119.69597222863972,
left,left,35.0,1.0,17.0,right,0.0,0.6458455420215614,,speed,space,3.676831958000548,,,,,,0.0,1.0,1.0,1.0,17.0,1.0,35.0,0.0,428.6166789999989,,,,,,,,,428.608512375009,428.9567243750207,429.7488972500141,429.7409080840007,429.7414426250034,429.7488972500141,429.7488972500141,429.7488972500141,,430.3986403750023,,,,,,,,,,,,,,,,,,,,,,,,,,,,,,right,0.0,0.6458455420215614,,,,,,sub-213,1,random_dot,119.69597222863972,
left,left,36.0,0.0,18.0,right,0.0,0.3421565830067266,,speed,space,3.676831958000548,,,,,,0.0,1.0,1.0,1.0,18.0,0.0,36.0,0.0,430.4069935840089,,,,,,,,,430.39903125001,431.5963435840095,432.3896995419928,432.38074537500506,432.3812011670088,432.3896995419928,432.3896995419928,432.3896995419928,,432.7411184590019,,,,,,,,,,,,,,,,,,,,,,,,,,,,,,right,0.0,0.3421565830067266,,,,,,sub-213,1,random_dot,119.69597222863972,
right,right,37.0,1.0,18.0,right,1.0,1.8915191249980128,,speed,space,3.676831958000548,,,,,,0.0,1.0,1.0,1.0,18.0,1.0,37.0,1.0,432.7495510420122,,,,,,,,,432.74153316702,433.5306083339965,434.3319838750176,434.3241577500012,434.3246188340127,434.3319838750176,434.3319838750176,434.3319838750176,,436.2256352920085,,,,,,,,,,,,,,,,,,,,,,,,,,,,,,right,1.0,1.8915191249980128,,,,,,sub-213,1,random_dot,119.69597222863972,
right,right,38.0,0.0,19.0,right,1.0,0.6219637089816388,,speed,space,3.676831958000548,,,,,,0.0,1.0,1.0,1.0,19.0,0.0,38.0,1.0,436.2342765420035,,,,,,,,,436.2260445000138,437.4234648749989,438.21567191701615,438.2075761250162,438.2080227920087,438.21567191701615,438.21567191701615,438.21567191701615,,438.84157566700014,,,,,,,,,,,,,,,,,,,,,,,,,,,,,,right,1.0,0.6219637089816388,,,,,,sub-213,1,random_dot,119.69597222863972,
left,left,39.0,1.0,19.0,right,0.0,2.9915735840040725,,speed,space,3.676831958000548,,,,,,0.0,1.0,1.0,1.0,19.0,1.0,39.0,0.0,438.850047874992,,,,,,,,,438.8419958339946,439.6406942500034,440.43208479200257,440.4242240000167,440.4246596250159,440.43208479200257,440.43208479200257,440.43208479200257,,443.43573250001646,,,,,,,,,,,,,,,,,,,,,,,,,,,,,,right,0.0,2.9915735840040725,,,,,,sub-213,1,random_dot,119.69597222863972,
left,left,40.0,0.0,20.0,right,0.0,1.2369322500017006,,speed,space,3.676831958000548,,,,,,0.0,1.0,1.0,1.0,20.0,0.0,40.0,0.0,443.4419431670103,,,,,,,,,443.4361362089985,444.2292190000008,445.0231628750044,445.01429104199633,445.0147393750085,445.0231628750044,445.0231628750044,445.0231628750044,,446.2658162089938,,,,,,,,,,,,,,,,,,,,,,,,,,,,,,right,0.0,1.2369322500017006,,,,,,sub-213,1,random_dot,119.69597222863972,
right,right,41.0,1.0,20.0,right,1.0,2.9333777079882566,,speed,space,3.676831958000548,,,,,,0.0,1.0,1.0,1.0,20.0,1.0,41.0,1.0,446.2899178340158,,,,,,,,,446.2662034170062,446.36351016699336,447.1657471670187,447.1576983749983,447.15814395900816,447.1657471670187,447.1657471670187,447.1657471670187,,450.10862587500014,,,,,,,,,,,,,,,,,,,,,,,,,,,,,,right,1.0,2.9333777079882566,,,,,,sub-213,1,random_dot,119.69597222863972,
left,left,42.0,0.0,21.0,left,1.0,0.8311485839949455,,speed,space,3.676831958000548,,,,,,0.0,1.0,1.0,1.0,21.0,0.0,42.0,0.0,450.1172702090116,,,,,,,,,450.1090489170165,450.2070174590044,450.9987868750177,450.99121587499394,450.9916900419921,450.9987868750177,450.9987868750177,450.9987868750177,,451.8323842090031,,,,,,,,,,,,,,,,,,,,,,,,,,,,,,left,1.0,0.8311485839949455,,,,,,sub-213,1,random_dot,119.69597222863972,
right,right,43.0,1.0,21.0,left,0.0,0.5121263340115547,,speed,space,3.676831958000548,,,,,,0.0,1.0,1.0,1.0,21.0,1.0,43.0,1.0,451.856864292,,,,,,,,,451.83279316700646,452.1812787920062,452.982746624999,452.9745796250063,452.9750256669941,452.982746624999,452.982746624999,452.982746624999,,453.4996032920026,,,,,,,,,,,,,,,,,,,,,,,,,,,,,,left,0.0,0.5121263340115547,,,,,,sub-213,1,random_dot,119.69597222863972,
right,right,44.0,0.0,22.0,left,0.0,0.6751450829906389,,speed,space,3.676831958000548,,,,,,0.0,1.0,1.0,1.0,22.0,0.0,44.0,1.0,453.5235688750108,,,,,,,,,453.5000039169972,453.59749991699937,454.3898358340084,454.3812995000044,454.3817980840104,454.3898358340084,454.3898358340084,454.3898358340084,,455.0753807500005,,,,,,,,,,,,,,,,,,,,,,,,,,,,,,left,0.0,0.6751450829906389,,,,,,sub-213,1,random_dot,119.69597222863972,
left,left,45.0,1.0,22.0,left,1.0,0.6785959170083515,,speed,space,3.676831958000548,,,,,,0.0,1.0,1.0,1.0,22.0,1.0,45.0,0.0,455.0839786250144,,,,,,,,,455.0757999590133,455.17382483399706,455.9665559589921,455.9575532920135,455.958007209003,455.9665559589921,455.9665559589921,455.9665559589921,,456.6488384999975,,,,,,,,,,,,,,,,,,,,,,,,,,,,,,left,1.0,0.6785959170083515,,,,,,sub-213,1,random_dot,119.69597222863972,
left,left,46.0,0.0,23.0,left,1.0,0.6009658749972004,,speed,space,3.676831958000548,,,,,,0.0,1.0,1.0,1.0,23.0,0.0,46.0,0.0,456.65683070902014,,,,,,,,,456.649246792018,456.9971566250024,457.790043792018,457.7807621250104,457.7811981670093,457.790043792018,457.790043792018,457.790043792018,,458.4017005840142,,,,,,,,,,,,,,,,,,,,,,,,,,,,,,left,1.0,0.6009658749972004,,,,,,sub-213,1,random_dot,119.69597222863972,
right,right,47.0,1.0,23.0,right,1.0,1.258168582979124,,speed,space,3.676831958000548,,,,,,0.0,1.0,1.0,1.0,23.0,1.0,47.0,1.0,458.4074410000176,,,,,,,,,458.4021038339997,458.7467469999974,459.5400257089932,459.5297995840083,459.53024816699326,459.5400257089932,459.5400257089932,459.5400257089932,,460.8083076670009,,,,,,,,,,,,,,,,,,,,,,,,,,,,,,right,1.0,1.258168582979124,,,,,,sub-213,1,random_dot,119.69597222863972,
right,right,48.0,0.0,24.0,left,0.0,0.508281791000627,,speed,space,3.676831958000548,,,,,,0.0,1.0,1.0,1.0,24.0,0.0,48.0,1.0,460.81403095900896,,,,,,,,,460.80871912499424,460.9076997920056,461.699305999995,461.6912156250037,461.69167650002055,461.699305999995,461.699305999995,461.699305999995,,462.2183654170076,,,,,,,,,,,,,,,,,,,,,,,,,,,,,,left,0.0,0.508281791000627,,,,,,sub-213,1,random_dot,119.69597222863972,
left,left,49.0,1.0,24.0,right,0.0,0.562853332987288,,speed,space,3.676831958000548,,,,,,0.0,1.0,1.0,1.0,24.0,1.0,49.0,0.0,462.2241202500009,,,,,,,,,462.2187664590019,463.0139172920026,463.8159160420182,463.80785720900167,463.8083103749959,463.8159160420182,463.8159160420182,463.8159160420182,,464.382359500014,,,,,,,,,,,,,,,,,,,,,,,,,,,,,,right,0.0,0.562853332987288,,,,,,sub-213,1,random_dot,119.69597222863972,
left,left,50.0,0.0,25.0,left,1.0,1.3319665830058511,,speed,space,3.676831958000548,,,,,,0.0,1.0,1.0,1.0,25.0,0.0,50.0,0.0,464.4069231250032,,,,,,,,,464.38276008400135,464.4814174170024,465.2725922499958,465.2645077500201,465.2650029590004,465.2725922499958,465.2725922499958,465.2725922499958,,466.60875666700304,,,,,,,,,,,,,,,,,,,,,,,,,,,,,,left,1.0,1.3319665830058511,,,,,,sub-213,1,random_dot,119.69597222863972,
right,right,51.0,1.0,25.0,left,0.0,0.7818578750011511,,speed,space,3.676831958000548,,,,,,0.0,1.0,1.0,1.0,25.0,1.0,51.0,1.0,466.6172034170013,,,,,,,,,466.6091602499946,466.95742049999535,467.7488319170079,467.7410755419987,467.7415131670132,467.7488319170079,467.7488319170079,467.7488319170079,,468.5329750000092,,,,,,,,,,,,,,,,,,,,,,,,,,,,,,left,0.0,0.7818578750011511,,,,,,sub-213,1,random_dot,119.69597222863972,
left,left,52.0,0.0,26.0,right,0.0,0.416052665997995,,speed,space,3.676831958000548,,,,,,0.0,1.0,1.0,1.0,26.0,0.0,52.0,0.0,468.5571248750202,,,,,,,,,468.5333792500023,469.3314701250056,470.1325647920021,470.1248995420174,470.1253627499973,470.1325647920021,470.1325647920021,470.1325647920021,,470.559143874998,,,,,,,,,,,,,,,,,,,,,,,,,,,,,,right,0.0,0.416052665997995,,,,,,sub-213,1,random_dot,119.69597222863972,
right,right,53.0,1.0,26.0,right,1.0,0.5479114579793531,,speed,space,3.676831958000548,,,,,,0.0,1.0,1.0,1.0,26.0,1.0,53.0,1.0,470.56486533401767,,,,,,,,,470.5595604999981,471.3574352090072,472.1498853340163,472.1415296670166,472.1419836250134,472.1498853340163,472.1498853340163,472.1498853340163,,472.7247263340105,,,,,,,,,,,,,,,,,,,,,,,,,,,,,,right,1.0,0.5479114579793531,,,,,,sub-213,1,random_dot,119.69597222863972,
left,left,54.0,0.0,27.0,right,0.0,0.335285292007029,,speed,space,3.676831958000548,,,,,,0.0,1.0,1.0,1.0,27.0,0.0,54.0,0.0,472.7409021250205,,,,,,,,,472.7251214589924,473.91438912501326,474.71617012500064,474.708111459011,474.7085632090166,474.71617012500064,474.71617012500064,474.71617012500064,,475.0588710000157,,,,,,,,,,,,,,,,,,,,,,,,,,,,,,right,0.0,0.335285292007029,,,,,,sub-213,1,random_dot,119.69597222863972,
right,right,55.0,1.0,27.0,right,1.0,1.9503079169953708,,speed,space,3.676831958000548,,,,,,0.0,1.0,1.0,1.0,27.0,1.0,55.0,1.0,475.0673557090049,,,,,,,,,475.05927637501736,475.8577334170113,476.6503057090158,476.6416525420209,476.6421732089948,476.6503057090158,476.6503057090158,476.6503057090158,,478.6088913750136,,,,,,,,,,,,,,,,,,,,,,,,,,,,,,right,1.0,1.9503079169953708,,,,,,sub-213,1,random_dot,119.69597222863972,
right,right,56.0,0.0,28.0,left,0.0,1.4877267499978188,,speed,space,3.676831958000548,,,,,,0.0,1.0,1.0,1.0,28.0,0.0,56.0,1.0,478.6173398749961,,,,,,,,,478.6092906249978,479.39752679201774,480.2004620840016,480.1919946249982,480.19259116699686,480.2004620840016,480.2004620840016,480.2004620840016,,481.6922655420203,,,,,,,,,,,,,,,,,,,,,,,,,,,,,,left,0.0,1.4877267499978188,,,,,,sub-213,1,random_dot,119.69597222863972,
left,left,57.0,1.0,28.0,left,1.0,1.2749387089861557,,speed,space,3.676831958000548,,,,,,0.0,1.0,1.0,1.0,28.0,1.0,57.0,0.0,481.70087012500153,,,,,,,,,481.69268879201263,482.0410451670177,482.8337906670058,482.825321042008,482.8258560420072,482.8337906670058,482.8337906670058,482.8337906670058,,484.1159285000176,,,,,,,,,,,,,,,,,,,,,,,,,,,,,,left,1.0,1.2749387089861557,,,,,,sub-213,1,random_dot,119.69597222863972,
right,right,58.0,0.0,29.0,left,0.0,2.2412287080078386,,speed,space,3.676831958000548,,,,,,0.0,1.0,1.0,1.0,29.0,0.0,58.0,1.0,484.1239852920117,,,,,,,,,484.1163557500113,484.91417016700143,485.7072672920185,485.697718084004,485.69820337501005,485.7072672920185,485.7072672920185,485.7072672920185,,487.95889520901255,,,,,,,,,,,,,,,,,,,,,,,,,,,,,,left,0.0,2.2412287080078386,,,,,,sub-213,1,random_dot,119.69597222863972,
left,left,59.0,1.0,29.0,left,1.0,2.545047457999317,,speed,space,3.676831958000548,,,,,,0.0,1.0,1.0,1.0,29.0,1.0,59.0,0.0,487.9643085839925,,,,,,,,,487.9593052090204,488.29768937500194,489.0997980000102,489.0917407090019,489.0922111670079,489.0997980000102,489.0997980000102,489.0997980000102,,491.6494718750182,,,,,,,,,,,,,,,,,,,,,,,,,,,,,,left,1.0,2.545047457999317,,,,,,sub-213,1,random_dot,119.69597222863972,
,,1.0,1.0,0.0,,,,,speed,space,3.676831958000548,,,,,,0.0,1.0,1.0,1.0,,,,,,,,,,,,,,,,,,,,,,,,,,,,,,,,,,,,,,,,,,,,,,,,,,,,,,,,,,,,,sub-213,1,random_dot,119.69597222863972,
,,,,,,,,,,,,,,,,,,,,,,,,,,,,,,,,,,,,,,,,,,,,,,,,,,,,,,,,,,,,,,,,,,,,,,,,,,,,,491.6561293340055,491.6651391250198,496.6579910420114,496.6483471670072,sub-213,1,random_dot,119.69597222863972,
