direction,corrAns,randomInstr,practice_trials.thisRepN,practice_trials.thisTrialN,practice_trials.thisN,practice_trials.thisIndex,instr_trials.thisRepN,instr_trials.thisTrialN,instr_trials.thisN,instr_trials.thisIndex,test_trials.thisRepN,test_trials.thisTrialN,test_trials.thisN,test_trials.thisIndex,thisRow.t,notes,general_instruction.started,textGeneralInstr.started,respGeneralInstr.started,general_instruction.stopped,respGeneralInstr.keys,respGeneralInstr.rt,respGeneralInstr.duration,ITI.started,fixcross.started,fixcross.stopped,ITI.stopped,dots.started,backgroundDots.started,stimulusDots.started,respDots.started,stimulusDots.stopped,dots.stopped,respDots.keys,respDots.corr,respDots.rt,respDots.duration,feedback.started,textFeedback.started,feedback.stopped,textFeedback.stopped,info.started,textInfo.started,keyRespInfo.started,info.stopped,keyRespInfo.keys,keyRespInfo.rt,keyRespInfo.duration,test_instruction.started,textTestInstr.started,respTestInstr.started,test_instruction.stopped,respTestInstr.keys,respTestInstr.rt,respTestInstr.duration,random_instruction.started,textRandomInstr.started,respRandomInstr.started,random_instruction.stopped,respRandomInstr.keys,respRandomInstr.rt,respRandomInstr.duration,goodbye.started,textGoodbye.started,goodbye.stopped,participant,session,expName,frameRate,Unnamed: 73
,,,,,,,,,,,,,,,,,0.0042280999996364,0.0090110999999524,0.0090110999999524,86.99180639999986,space,101.33155570000008,,,,,,,,,,,,,,,,,,,,,,,,,,,,,,,,,,,,,,,,,,,,sub-102,1.0,random_dot,60.32363630879569,
left,left,,0.0,0.0,0.0,0.0,,,,,,,,,87.01093199999968,,,,,,,,,87.00625300000002,88.20500879999963,89.01092219999964,88.98926019999999,88.98930619999965,89.01092219999964,89.01092219999964,89.01092219999964,94.00300579999976,109.364282,right,0.0,34.71068190000051,,109.3663431,109.38135399999965,109.87673889999996,,,,,,,,,,,,,,,,,,,,,,,,,,sub-102,1.0,random_dot,60.32363630879569,
right,right,,0.0,1.0,1.0,1.0,,,,,,,,,109.8932218,,,,,,,,,109.87764639999978,110.67567289999988,111.4764753999998,111.46039239999982,111.46044959999972,111.4764753999998,111.4764753999998,111.4764753999998,116.47348399999964,117.2430304999998,left,0.0,20.12020560000019,,117.24411429999964,117.25547549999963,117.74063939999996,117.75537469999972,,,,,,,,,,,,,,,,,,,,,,,,,sub-102,1.0,random_dot,60.32363630879569,
right,right,,1.0,0.0,2.0,1.0,,,,,,,,,117.75537469999972,,,,,,,,,117.74166049999984,117.85540009999976,118.65589199999977,118.63965659999984,118.63971079999963,118.65589199999977,118.65589199999977,118.65589199999977,123.65297680000003,126.25469799999972,right,1.0,21.958283500000107,,126.25570459999972,126.2682289999998,126.76735449999978,,,,,,,,,,,,,,,,,,,,,,,,,,sub-102,1.0,random_dot,60.32363630879569,
left,left,,1.0,1.0,3.0,0.0,,,,,,,,,126.78380659999992,,,,,,,,,126.7683336,127.96643819999964,128.76708199999985,128.75076020000006,128.7508217999998,128.76708199999985,128.76708199999985,128.76708199999985,133.76431679999996,134.41592319999972,right,0.0,19.99989980000009,,134.4170565999998,134.4295957999998,134.91414110000005,134.92896810000002,,,,,,,,,,,,,,,,,,,,,,,,,sub-102,1.0,random_dot,60.32363630879569,
right,right,,2.0,0.0,4.0,1.0,,,,,,,,,134.92896810000002,,,,,,,,,134.9151106999998,135.02934069999992,135.82953799999996,135.8139486,135.8139957999997,135.82953799999996,135.82953799999996,135.82953799999996,140.82689039999968,143.02857779999977,right,1.0,21.550899200000003,,143.0295461999999,143.04124379999985,143.52581740000005,143.5409483999997,,,,,,,,,,,,,,,,,,,,,,,,,sub-102,1.0,random_dot,60.32363630879569,
left,left,,2.0,1.0,5.0,0.0,,,,,,,,,143.5409483999997,,,,,,,,,143.52676369999972,143.6409051999999,144.44147509999993,144.4254037999999,144.42545089999976,144.44147509999993,144.44147509999993,144.44147509999993,149.43873769999982,150.02412319999985,left,1.0,19.93673390000004,,150.0251088,150.03718779999963,150.52258249999977,150.53724250000005,,,,,,,,,,,,,,,,,,,,,,,,,sub-102,1.0,random_dot,60.32363630879569,
left,left,,3.0,0.0,6.0,0.0,,,,,,,,,150.53724250000005,,,,,,,,,150.5235333999999,151.73650759999964,152.53697349999993,152.52115989999993,152.5212032999998,152.53697349999993,152.53697349999993,152.53697349999993,157.53427659999988,158.15324389999978,left,1.0,19.97209980000025,,158.1543001,158.1662449999999,158.65135299999974,158.66613759999973,,,,,,,,,,,,,,,,,,,,,,,,,sub-102,1.0,random_dot,60.32363630879569,
right,right,,3.0,1.0,7.0,1.0,,,,,,,,,158.66613759999973,,,,,,,,,158.65230639999982,159.46589700000004,160.26607769999964,160.25002760000007,160.2500839999998,160.26607769999964,160.26607769999964,160.26607769999964,165.2632377,166.3483486,right,1.0,20.43777450000016,,166.34937179999997,166.36153839999997,166.84616079999978,166.86160649999965,,,,,,,,,,,,,,,,,,,,,,,,,sub-102,1.0,random_dot,60.32363630879569,
left,left,,4.0,0.0,8.0,0.0,,,,,,,,,166.86160649999965,,,,,,,,,166.8470239999997,166.96140349999996,167.7622240999999,167.7453292,167.74537199999986,167.7622240999999,167.7622240999999,167.7622240999999,172.75922450000007,173.96129969999993,left,1.0,20.552223700000013,,173.96244899999965,173.9739356,174.4591301999999,174.47374319999972,,,,,,,,,,,,,,,,,,,,,,,,,sub-102,1.0,random_dot,60.32363630879569,
right,right,,4.0,1.0,9.0,1.0,,,,,,,,,174.47374319999972,,,,,,,,,174.4599172999997,175.27344889999995,176.07386670000005,176.05748730000005,176.05752669999993,176.07386670000005,176.07386670000005,176.07386670000005,181.0715995999999,182.38976809999983,right,1.0,20.6666666000001,,182.39095849999967,182.40277949999967,182.8880141,182.90262839999968,,,,,,,,,,,,,,,,,,,,,,,,,sub-102,1.0,random_dot,60.32363630879569,
right,right,,5.0,0.0,10.0,1.0,,,,,,,,,182.90262839999968,,,,,,,,,182.88888,184.10262479999983,184.9193396000001,184.9028306,184.90288809999996,184.9193396000001,184.9193396000001,184.9193396000001,189.91659029999985,191.5688799,left,0.0,20.99819120000029,,191.56988159999992,191.58133689999977,192.0662966,192.0810631999998,,,,,,,,,,,,,,,,,,,,,,,,,sub-102,1.0,random_dot,60.32363630879569,
left,left,,5.0,1.0,11.0,0.0,,,,,,,,,192.0810631999998,,,,,,,,,192.06734129999995,193.28042629999985,194.08103409999967,194.0644087999999,194.0644890999997,194.08103409999967,194.08103409999967,194.08103409999967,199.07839879999983,199.8798440999999,left,1.0,20.15192240000033,,199.8807856999997,199.89328929999965,200.37801969999964,200.3932981999997,,,,,,,,,,,,,,,,,,,,,,,,,sub-102,1.0,random_dot,60.32363630879569,
right,right,,6.0,0.0,12.0,1.0,,,,,,,,,200.3932981999997,,,,,,,,,200.37897619999967,201.19262630000003,201.99317919999976,201.97687159999987,201.97691629999963,201.99317919999976,201.99317919999976,201.99317919999976,206.99037959999987,207.57579589999975,right,1.0,19.936898500000552,,207.5767696999997,207.58879869999964,208.07412399999976,208.08857229999967,,,,,,,,,,,,,,,,,,,,,,,,,sub-102,1.0,random_dot,60.32363630879569,
left,left,,6.0,1.0,13.0,0.0,,,,,,,,,208.08857229999967,,,,,,,,,208.07500679999976,209.2883880999998,210.08857369999987,210.07308599999988,210.07313179999983,210.08857369999987,210.08857369999987,210.08857369999987,215.08573449999997,215.7709215,right,0.0,20.039398299999903,,215.77176979999967,215.78433499999983,216.26913289999996,216.28444079999963,,,,,,,,,,,,,,,,,,,,,,,,,sub-102,1.0,random_dot,60.32363630879569,
left,left,,7.0,0.0,14.0,0.0,,,,,,,,,216.28444079999963,,,,,,,,,216.26997559999973,217.08390919999965,217.88425370000004,217.86791270000003,217.8679659999998,217.88425370000004,217.88425370000004,217.88425370000004,222.88143059999996,223.61735739999995,right,0.0,20.08474269999988,,223.61847969999965,223.6301303,224.1149307000001,224.12982299999976,,,,,,,,,,,,,,,,,,,,,,,,,sub-102,1.0,random_dot,60.32363630879569,
right,right,,7.0,1.0,15.0,1.0,,,,,,,,,224.12982299999976,,,,,,,,,224.11594719999997,224.9294405999999,225.72988110000009,225.7143520999998,225.71439979999968,225.72988110000009,225.72988110000009,225.72988110000009,230.7273327999997,231.17844539999987,right,1.0,19.80521770000041,,231.17925139999988,231.19241509999983,231.67784219999976,231.69247419999965,,,,,,,,,,,,,,,,,,,,,,,,,sub-102,1.0,random_dot,60.32363630879569,
left,left,,8.0,0.0,16.0,0.0,,,,,,,,,231.69247419999965,,,,,,,,,231.67874289999963,232.49218939999992,233.2924727,233.2764675999997,233.27652279999984,233.2924727,233.2924727,233.2924727,238.28935629999975,238.74257929999976,left,1.0,19.803062599999976,,238.7436964999997,238.75501630000008,239.2400376999999,239.2549316,,,,,,,,,,,,,,,,,,,,,,,,,sub-102,1.0,random_dot,60.32363630879569,
right,right,,8.0,1.0,17.0,1.0,,,,,,,,,239.2549316,,,,,,,,,239.2409359999997,240.4543924,241.2545839999998,241.238214,241.2382574999997,241.2545839999998,241.2545839999998,241.2545839999998,246.25206979999984,246.7042269999997,right,1.0,19.798880400000144,,246.7054177,246.71721519999983,247.20172239999965,247.2171506,,,,,,,,,,,,,,,,,,,,,,,,,sub-102,1.0,random_dot,60.32363630879569,
right,right,,9.0,0.0,18.0,1.0,,,,,,,,,247.2171506,,,,,,,,,247.2024060999997,248.01697079999985,248.81712500000003,248.80154649999983,248.8015974,248.81712500000003,248.81712500000003,248.81712500000003,253.81422789999988,254.41608899999983,left,0.0,19.94959800000015,,254.4168609999997,254.42948799999976,254.91362889999985,254.9293092999997,,,,,,,,,,,,,,,,,,,,,,,,,sub-102,1.0,random_dot,60.32363630879569,
left,left,,9.0,1.0,19.0,0.0,,,,,,,,,254.9293092999997,,,,,,,,,254.9143835,256.1287794,256.9291086999997,256.9131926,256.9132326999997,256.9291086999997,256.9291086999997,256.9291086999997,261.9264589999998,262.3957947999997,right,0.0,19.812673899999936,,262.3968660999999,262.4087755999999,262.8941811,262.9090504999999,,,,,,,,,,,,,,,,,,,,,,,,,sub-102,1.0,random_dot,60.32363630879569,
,,,,,,,,,,,,,,,,,,,,,,,,,,,,,,,,,,,,,,,,,,262.8943537,262.9090504999999,262.9090504999999,303.15462639999987,space,54.59118680000029,,,,,,,,,,,,,,,,,,,sub-102,1.0,random_dot,60.32363630879569,
,,,,,,,,,,,,,,,,,,,,,,,,,,,,,,,,,,,,,,,,,,,,,,,,,303.1547016999998,303.16995529999986,303.16995529999986,325.26021059999994,space,36.44120230000044,,,,,,,,,,,,sub-102,1.0,random_dot,60.32363630879569,
left,left,accuracy,,,,,0.0,0.0,0.0,0.0,0.0,0.0,0.0,0.0,335.23699469999974,,,,,,,,,335.2332973999996,336.03454409999995,336.8349347999997,336.8188683999997,336.8189232,336.8349347999997,336.8349347999997,336.8349347999997,341.8325974999998,342.60204840000006,right,0.0,20.126538099999834,,,,,,,,,,,,,,,,,,,,325.26806309999984,325.2906023999999,325.2906023999999,335.2233274,space,24.29200149999997,,,,,sub-102,1.0,random_dot,60.32363630879569,
right,right,accuracy,,,,,0.0,0.0,0.0,0.0,0.0,1.0,1.0,1.0,342.61448589999964,,,,,,,,,342.6043784999997,342.9643493999997,343.76447929999995,343.7483047999999,343.74833880000006,343.76447929999995,343.76447929999995,343.76447929999995,348.7620042999997,349.8473888999997,right,1.0,20.42886039999985,,,,,,,,,,,,,,,,,,,,,,,,,,,,,,sub-102,1.0,random_dot,60.32363630879569,
left,left,accuracy,,,,,0.0,0.0,0.0,0.0,1.0,0.0,2.0,0.0,349.86017809999976,,,,,,,,,349.8492855999998,350.21054609999965,351.01049509999984,350.99446869999974,350.99452189999965,351.01049509999984,351.01049509999984,351.01049509999984,356.00807050000003,356.6602287999999,left,1.0,20.001163700000237,,,,,,,,,,,,,,,,,,,,,,,,,,,,,,sub-102,1.0,random_dot,60.32363630879569,
right,right,accuracy,,,,,0.0,0.0,0.0,0.0,1.0,1.0,3.0,1.0,356.67330539999966,,,,,,,,,356.6620718999998,357.0230145999999,357.8233105999998,357.8074078999998,357.8074532999999,357.8233105999998,357.8233105999998,357.8233105999998,362.82083889999967,363.3895465999999,left,0.0,19.911722900000317,,,,,,,,,,,,,,,,,,,,,,,,,,,,,,sub-102,1.0,random_dot,60.32363630879569,
left,left,accuracy,,,,,0.0,0.0,0.0,0.0,2.0,0.0,4.0,0.0,363.4028043999997,,,,,,,,,363.3913989999997,364.6025949,365.4033898999997,365.3867235999997,365.3867544,365.4033898999997,365.4033898999997,365.4033898999997,370.4003009999997,370.7857730999999,right,0.0,19.730845800000225,,,,,,,,,,,,,,,,,,,,,,,,,,,,,,sub-102,1.0,random_dot,60.32363630879569,
right,right,accuracy,,,,,0.0,0.0,0.0,0.0,2.0,1.0,5.0,1.0,370.7990093999997,,,,,,,,,370.7875654,371.99822719999975,372.7988271999998,372.7825961999997,372.7826498999998,372.7988271999998,372.7988271999998,372.7988271999998,377.79599629999984,378.2495392000001,right,1.0,19.797203699999955,,,,,,,,,,,,,,,,,,,,,,,,,,,,,,sub-102,1.0,random_dot,60.32363630879569,
right,right,accuracy,,,,,0.0,0.0,0.0,0.0,3.0,0.0,6.0,1.0,378.26134120000006,,,,,,,,,378.2514326,378.6108727000001,379.41173899999967,379.3958407999999,379.3958849999999,379.41173899999967,379.41173899999967,379.41173899999967,384.4090065,385.5955583,left,0.0,20.54351730000008,,,,,,,,,,,,,,,,,,,,,,,,,,,,,,sub-102,1.0,random_dot,60.32363630879569,
left,left,accuracy,,,,,0.0,0.0,0.0,0.0,3.0,1.0,7.0,0.0,385.607356,,,,,,,,,385.5974348999998,385.95723629999975,386.7578598,386.7413288999997,386.7413806,386.7578598,386.7578598,386.7578598,391.7548620999996,392.7736636999998,right,0.0,20.36879500000032,,,,,,,,,,,,,,,,,,,,,,,,,,,,,,sub-102,1.0,random_dot,60.32363630879569,
left,left,accuracy,,,,,0.0,0.0,0.0,0.0,4.0,0.0,8.0,0.0,392.7865477,,,,,,,,,392.7755803999999,393.5864472999997,394.3868877,394.3704023999999,394.3704496999999,394.3868877,394.3868877,394.3868877,399.3839211,400.2037732999997,left,1.0,20.17680110000037,,,,,,,,,,,,,,,,,,,,,,,,,,,,,,sub-102,1.0,random_dot,60.32363630879569,
right,right,accuracy,,,,,0.0,0.0,0.0,0.0,4.0,1.0,9.0,1.0,400.2160271999997,,,,,,,,,400.2056041000001,401.0157463999999,401.8164124,401.8002158999998,401.80026640000006,401.8164124,401.8164124,401.8164124,406.8137279999996,407.3495512,left,0.0,19.88634970000021,,,,,,,,,,,,,,,,,,,,,,,,,,,,,,sub-102,1.0,random_dot,60.32363630879569,
right,right,accuracy,,,,,0.0,0.0,0.0,0.0,5.0,0.0,10.0,1.0,407.3619101999998,,,,,,,,,407.3510474,407.4618458,408.2626058000001,408.2460403999999,408.24609729999975,408.2626058000001,408.2626058000001,408.2626058000001,413.2599418,414.5126955999999,right,1.0,20.610036300000505,,,,,,,,,,,,,,,,,,,,,,,,,,,,,,sub-102,1.0,random_dot,60.32363630879569,
left,left,accuracy,,,,,0.0,0.0,0.0,0.0,5.0,1.0,11.0,0.0,414.52459180000005,,,,,,,,,414.5146024999999,414.6251487999998,415.425033,415.40918079999983,415.40922599999976,415.425033,415.425033,415.425033,420.4230561999998,420.9409329999999,left,1.0,19.86709539999993,,,,,,,,,,,,,,,,,,,,,,,,,,,,,,sub-102,1.0,random_dot,60.32363630879569,
right,right,accuracy,,,,,0.0,0.0,0.0,0.0,6.0,0.0,12.0,1.0,420.9546003,,,,,,,,,420.9427163,421.0545465,421.8550089999999,421.8390451999999,421.8390887000001,421.8550089999999,421.8550089999999,421.8550089999999,426.8521732999998,427.4720180999998,right,1.0,19.961508800000047,,,,,,,,,,,,,,,,,,,,,,,,,,,,,,sub-102,1.0,random_dot,60.32363630879569,
left,left,accuracy,,,,,0.0,0.0,0.0,0.0,6.0,1.0,13.0,0.0,427.4841268999999,,,,,,,,,427.4737437999997,427.834112,428.63451989999976,428.6189718999999,428.6190268,428.63451989999976,428.63451989999976,428.63451989999976,433.6316489999999,434.46753169999965,left,1.0,20.18997170000057,,,,,,,,,,,,,,,,,,,,,,,,,,,,,,sub-102,1.0,random_dot,60.32363630879569,
right,right,accuracy,,,,,0.0,0.0,0.0,0.0,7.0,0.0,14.0,1.0,434.4802431999997,,,,,,,,,434.46966939999993,435.27970479999976,436.0805495,436.0645468999997,436.06460769999967,436.0805495,436.0805495,436.0805495,441.07770059999984,441.4307749999998,right,1.0,19.709279900000183,,,,,,,,,,,,,,,,,,,,,,,,,,,,,,sub-102,1.0,random_dot,60.32363630879569,
left,left,accuracy,,,,,0.0,0.0,0.0,0.0,7.0,1.0,15.0,0.0,441.4431937,,,,,,,,,441.4322927999997,442.242792,443.04330290000007,443.0270059999998,443.0270507999999,443.04330290000007,443.04330290000007,443.04330290000007,448.0406398999999,449.192086,right,0.0,20.496796200000063,,,,,,,,,,,,,,,,,,,,,,,,,,,,,,sub-102,1.0,random_dot,60.32363630879569,
left,left,accuracy,,,,,0.0,0.0,0.0,0.0,8.0,0.0,16.0,0.0,449.2056387999996,,,,,,,,,449.1939408999997,450.4053079999999,451.2055114,451.1891983999999,451.1892438,451.2055114,451.2055114,451.2055114,456.2030663000001,456.6885649999999,left,1.0,19.84080459999996,,,,,,,,,,,,,,,,,,,,,,,,,,,,,,sub-102,1.0,random_dot,60.32363630879569,
right,right,accuracy,,,,,0.0,0.0,0.0,0.0,8.0,1.0,17.0,1.0,456.70130530000006,,,,,,,,,456.690552,456.80128650000006,457.6018036,457.5862617999997,457.58631879999984,457.6018036,457.6018036,457.6018036,462.5992941999998,463.0347256,right,1.0,19.781878700000107,,,,,,,,,,,,,,,,,,,,,,,,,,,,,,sub-102,1.0,random_dot,60.32363630879569,
left,left,accuracy,,,,,0.0,0.0,0.0,0.0,9.0,0.0,18.0,0.0,463.0475391999999,,,,,,,,,463.0367653999997,464.2472881999997,465.0479210999997,465.0315836,465.0316272999999,465.0479210999997,465.0479210999997,465.0479210999997,470.0455241999998,470.4641194999999,right,0.0,19.7640634000004,,,,,,,,,,,,,,,,,,,,,,,,,,,,,,sub-102,1.0,random_dot,60.32363630879569,
right,right,accuracy,,,,,0.0,0.0,0.0,0.0,9.0,1.0,19.0,1.0,470.4770917999999,,,,,,,,,470.4671060999999,470.82703569999967,471.6273246999999,471.6113031,471.6113636999999,471.6273246999999,471.6273246999999,471.6273246999999,476.62444639999967,477.1768044,left,0.0,19.90339940000013,,,,,,,,,,,,,,,,,,,,,,,,,,,,,,sub-102,1.0,random_dot,60.32363630879569,
left,left,accuracy,,,,,0.0,0.0,0.0,0.0,10.0,0.0,20.0,0.0,477.1902090999997,,,,,,,,,477.1785926999996,477.9895508999998,478.7902182999997,478.7741533999997,478.7742074999997,478.7902182999997,478.7902182999997,478.7902182999997,483.7879479999997,484.52247739999984,right,0.0,20.08721080000032,,,,,,,,,,,,,,,,,,,,,,,,,,,,,,sub-102,1.0,random_dot,60.32363630879569,
right,right,accuracy,,,,,0.0,0.0,0.0,0.0,10.0,1.0,21.0,1.0,484.53605549999975,,,,,,,,,484.52421,485.3360939999998,486.1363250999998,486.1208133,486.1208628999998,486.1363250999998,486.1363250999998,486.1363250999998,491.1333983,491.6864406999998,left,0.0,19.90157550000049,,,,,,,,,,,,,,,,,,,,,,,,,,,,,,sub-102,1.0,random_dot,60.32363630879569,
left,left,accuracy,,,,,0.0,0.0,0.0,0.0,11.0,0.0,22.0,0.0,491.6987968999997,,,,,,,,,491.6880848999999,492.8975676,493.6986115999998,493.6823769999996,493.6824139,493.6986115999998,493.6986115999998,493.6986115999998,498.69544709999946,499.0985303000002,left,1.0,19.75247279999985,,,,,,,,,,,,,,,,,,,,,,,,,,,,,,sub-102,1.0,random_dot,60.32363630879569,
right,right,accuracy,,,,,0.0,0.0,0.0,0.0,11.0,1.0,23.0,1.0,499.1113799,,,,,,,,,499.1003977999994,499.4612511999999,500.26174260000016,500.2457725999998,500.24582359999977,500.26174260000016,500.26174260000016,500.26174260000016,505.2591030999997,505.6606581000001,left,0.0,19.74994630000037,,,,,,,,,,,,,,,,,,,,,,,,,,,,,,sub-102,1.0,random_dot,60.32363630879569,
left,left,accuracy,,,,,0.0,0.0,0.0,0.0,12.0,0.0,24.0,0.0,505.6744662999995,,,,,,,,,505.6621303999996,506.4743287999995,507.2744599000002,507.2585385999996,507.2586156000002,507.2744599000002,507.2744599000002,507.2744599000002,512.2721452000001,512.6740187,right,0.0,19.75685590000012,,,,,,,,,,,,,,,,,,,,,,,,,,,,,,sub-102,1.0,random_dot,60.32363630879569,
right,right,accuracy,,,,,0.0,0.0,0.0,0.0,12.0,1.0,25.0,1.0,512.6871239999996,,,,,,,,,512.6759148999995,512.7872328999997,513.5873944999998,513.5719248,513.5719697999998,513.5873944999998,513.5873944999998,513.5873944999998,518.5849708000001,518.9876999000003,left,0.0,19.754505700000664,,,,,,,,,,,,,,,,,,,,,,,,,,,,,,sub-102,1.0,random_dot,60.32363630879569,
right,right,accuracy,,,,,0.0,0.0,0.0,0.0,13.0,0.0,26.0,1.0,519.0003363000001,,,,,,,,,518.9894935999996,519.7997817999999,520.6006063999998,520.5851115,520.5851605000003,520.6006063999998,520.6006063999998,520.6006063999998,525.5975341999997,526.2667927999996,left,0.0,20.013787900000352,,,,,,,,,,,,,,,,,,,,,,,,,,,,,,sub-102,1.0,random_dot,60.32363630879569,
left,left,accuracy,,,,,0.0,0.0,0.0,0.0,13.0,1.0,27.0,0.0,526.2794741000002,,,,,,,,,526.2685191999994,526.6296213999999,527.4300508000001,527.4138952999997,527.4139359999995,527.4300508000001,527.4300508000001,527.4300508000001,532.4272101000001,532.8471008000001,left,1.0,19.776951899999403,,,,,,,,,,,,,,,,,,,,,,,,,,,,,,sub-102,1.0,random_dot,60.32363630879569,
right,right,accuracy,,,,,0.0,0.0,0.0,0.0,14.0,0.0,28.0,1.0,532.8595384999994,,,,,,,,,532.8488339999999,533.2093481999996,534.0098025000002,533.9938025999995,533.9938462999994,534.0098025000002,534.0098025000002,534.0098025000002,539.0070037,539.4423406000001,right,1.0,19.780953500000575,,,,,,,,,,,,,,,,,,,,,,,,,,,,,,sub-102,1.0,random_dot,60.32363630879569,
left,left,accuracy,,,,,0.0,0.0,0.0,0.0,14.0,1.0,29.0,0.0,539.4558443000001,,,,,,,,,539.4442535000003,539.5557321000001,540.3562539,540.3397107999995,540.3397511999997,540.3562539,540.3562539,540.3562539,545.3537343000003,545.9895597,left,1.0,19.981425100000703,,,,,,,,,,,,,,,,,,,,,,,,,,,,,,sub-102,1.0,random_dot,60.32363630879569,
left,left,accuracy,,,,,0.0,0.0,0.0,0.0,15.0,0.0,30.0,0.0,546.0020934999998,,,,,,,,,545.9911854999996,546.1020664000002,546.9022499999996,546.8865260999996,546.8865706000001,546.9022499999996,546.9022499999996,546.9022499999996,551.9000795999996,552.3866051999998,left,1.0,19.84412370000064,,,,,,,,,,,,,,,,,,,,,,,,,,,,,,sub-102,1.0,random_dot,60.32363630879569,
right,right,accuracy,,,,,0.0,0.0,0.0,0.0,15.0,1.0,31.0,1.0,552.3985074999996,,,,,,,,,552.3882692000002,553.1978924999999,553.9984614999998,553.9831651999998,553.9832131999997,553.9984614999998,553.9984614999998,553.9984614999998,558.9960408000002,559.5648975999998,right,1.0,19.923229199999696,,,,,,,,,,,,,,,,,,,,,,,,,,,,,,sub-102,1.0,random_dot,60.32363630879569,
left,left,accuracy,,,,,0.0,0.0,0.0,0.0,16.0,0.0,32.0,0.0,559.5779897999996,,,,,,,,,559.5663639999998,559.9279429000003,560.7284505000002,560.7120568999994,560.7121102999995,560.7284505000002,560.7284505000002,560.7284505000002,565.7255459000003,566.1614936999999,right,0.0,19.77899330000037,,,,,,,,,,,,,,,,,,,,,,,,,,,,,,sub-102,1.0,random_dot,60.32363630879569,
right,right,accuracy,,,,,0.0,0.0,0.0,0.0,16.0,1.0,33.0,1.0,566.1742835999999,,,,,,,,,566.1633074999995,566.5242910000002,567.3245181999996,567.3091536999996,567.3092168999997,567.3245181999996,567.3245181999996,567.3245181999996,572.3220663999996,572.6907841999996,left,0.0,19.713288700000703,,,,,,,,,,,,,,,,,,,,,,,,,,,,,,sub-102,1.0,random_dot,60.32363630879569,
left,left,accuracy,,,,,0.0,0.0,0.0,0.0,17.0,0.0,34.0,0.0,572.7039202000001,,,,,,,,,572.6926808000003,573.9034804999997,574.7035774000001,574.6876848999996,574.6877266999995,574.7035774000001,574.7035774000001,574.7035774000001,579.7009500999998,580.2022303999997,right,0.0,19.85100280000097,,,,,,,,,,,,,,,,,,,,,,,,,,,,,,sub-102,1.0,random_dot,60.32363630879569,
right,right,accuracy,,,,,0.0,0.0,0.0,0.0,17.0,1.0,35.0,1.0,580.2165387,,,,,,,,,580.2038142999995,580.5663182000003,581.3667994000002,581.3505332,581.3505885,581.3667994000002,581.3667994000002,581.3667994000002,586.3641113999997,586.7992278999996,left,0.0,19.779421000000184,,,,,,,,,,,,,,,,,,,,,,,,,,,,,,sub-102,1.0,random_dot,60.32363630879569,
right,right,accuracy,,,,,0.0,0.0,0.0,0.0,18.0,0.0,36.0,1.0,586.8129924,,,,,,,,,586.8013943000001,588.0124955999995,588.8128677999998,588.7963531,588.7963948000001,588.8128677999998,588.8128677999998,588.8128677999998,593.8103774999995,594.2300344999999,right,1.0,19.762696300000243,,,,,,,,,,,,,,,,,,,,,,,,,,,,,,sub-102,1.0,random_dot,60.32363630879569,
left,left,accuracy,,,,,0.0,0.0,0.0,0.0,18.0,1.0,37.0,0.0,594.2425356999997,,,,,,,,,594.2317447999999,594.3421173000002,595.1427403000002,595.1261539000002,595.1262013,595.1427403000002,595.1427403000002,595.1427403000002,600.1397750000001,600.5763414999997,left,1.0,19.790079600000357,,,,,,,,,,,,,,,,,,,,,,,,,,,,,,sub-102,1.0,random_dot,60.32363630879569,
left,left,accuracy,,,,,0.0,0.0,0.0,0.0,19.0,0.0,38.0,0.0,600.5883327999995,,,,,,,,,600.5781992999996,600.9383829000003,601.7387180999999,601.7221681999995,601.7222024999996,601.7387180999999,601.7387180999999,601.7387180999999,606.7361675999996,607.2051212000001,left,1.0,19.82136530000025,,,,,,,,,,,,,,,,,,,,,,,,,,,,,,sub-102,1.0,random_dot,60.32363630879569,
right,right,accuracy,,,,,0.0,0.0,0.0,0.0,19.0,1.0,39.0,1.0,607.2182788999994,,,,,,,,,607.2073310000001,608.4178651999996,609.2182578999996,609.2020319999997,609.2020756999996,609.2182578999996,609.2182578999996,609.2182578999996,614.2156985999995,614.568522,right,1.0,19.702366500000608,,,,,,,,,,,,,,,,,,,,,,,,,,,,,,sub-102,1.0,random_dot,60.32363630879569,
left,left,accuracy,,,,,0.0,0.0,0.0,0.0,20.0,0.0,40.0,0.0,614.5808016999995,,,,,,,,,614.5705056000002,614.6805977999998,615.4814724000003,615.4659987,615.4660581000003,615.4814724000003,615.4814724000003,615.4814724000003,620.4782017000002,621.1635996999998,left,1.0,20.034978100000444,,,,,,,,,,,,,,,,,,,,,,,,,,,,,,sub-102,1.0,random_dot,60.32363630879569,
right,right,accuracy,,,,,0.0,0.0,0.0,0.0,20.0,1.0,41.0,1.0,621.1770616999997,,,,,,,,,621.1652062999997,621.2770052999999,622.0774188999999,622.0615752999997,622.0616231999998,622.0774188999999,622.0774188999999,622.0774188999999,627.0749770999996,627.5596590999999,right,1.0,19.83922210000037,,,,,,,,,,,,,,,,,,,,,,,,,,,,,,sub-102,1.0,random_dot,60.32363630879569,
left,left,accuracy,,,,,0.0,0.0,0.0,0.0,21.0,0.0,42.0,0.0,627.5736983000002,,,,,,,,,627.5612833,628.7731581000003,629.5733917000002,629.5581457000003,629.5581930000003,629.5733917000002,629.5733917000002,629.5733917000002,634.5705241999999,634.9393634000003,left,1.0,19.71450400000049,,,,,,,,,,,,,,,,,,,,,,,,,,,,,,sub-102,1.0,random_dot,60.32363630879569,
right,right,accuracy,,,,,0.0,0.0,0.0,0.0,21.0,1.0,43.0,1.0,634.9528802999998,,,,,,,,,634.9411172999994,635.3031342999998,636.1032265999997,636.0875112999997,636.0875762000001,636.1032265999997,636.1032265999997,636.1032265999997,641.1006376999999,641.4198167999998,left,0.0,19.6733406000003,,,,,,,,,,,,,,,,,,,,,,,,,,,,,,sub-102,1.0,random_dot,60.32363630879569,
right,right,accuracy,,,,,0.0,0.0,0.0,0.0,22.0,0.0,44.0,1.0,641.4328040999994,,,,,,,,,641.4218660000001,642.6318948000003,643.4328457999995,643.4162935999998,643.4163564999994,643.4328457999995,643.4328457999995,643.4328457999995,648.4304700999996,648.8490019999995,right,1.0,19.763873000000785,,,,,,,,,,,,,,,,,,,,,,,,,,,,,,sub-102,1.0,random_dot,60.32363630879569,
left,left,accuracy,,,,,0.0,0.0,0.0,0.0,22.0,1.0,45.0,0.0,648.8621791,,,,,,,,,648.8505295999998,648.9618742999996,649.7623852000002,649.7465276999997,649.7466232000002,649.7623852000002,649.7623852000002,649.7623852000002,654.7595469000003,655.4781821000001,right,0.0,20.06374930000038,,,,,,,,,,,,,,,,,,,,,,,,,,,,,,sub-102,1.0,random_dot,60.32363630879569,
right,right,accuracy,,,,,0.0,0.0,0.0,0.0,23.0,0.0,46.0,1.0,655.4916814000003,,,,,,,,,655.4804883000002,655.5917658000003,656.3924050999999,656.3757560999998,656.37581,656.3924050999999,656.3924050999999,656.3924050999999,661.3894189999996,661.7586650999997,left,0.0,19.71567750000031,,,,,,,,,,,,,,,,,,,,,,,,,,,,,,sub-102,1.0,random_dot,60.32363630879569,
left,left,accuracy,,,,,0.0,0.0,0.0,0.0,23.0,1.0,47.0,0.0,661.7717300999998,,,,,,,,,661.760135,662.5711833999999,663.3713135000003,663.3552999999997,663.3553480999994,663.3713135000003,663.3713135000003,663.3713135000003,668.3686623999997,668.7703005999997,right,0.0,19.754982600000403,,,,,,,,,,,,,,,,,,,,,,,,,,,,,,sub-102,1.0,random_dot,60.32363630879569,
left,left,accuracy,,,,,0.0,0.0,0.0,0.0,24.0,0.0,48.0,0.0,668.7841286999997,,,,,,,,,668.7719437999999,669.9835042,670.7841489999996,670.7673141,670.7673568999994,670.7841489999996,670.7841489999996,670.7841489999996,675.7816525000003,676.2662725999994,left,1.0,19.84205250000105,,,,,,,,,,,,,,,,,,,,,,,,,,,,,,sub-102,1.0,random_dot,60.32363630879569,
right,right,accuracy,,,,,0.0,0.0,0.0,0.0,24.0,1.0,49.0,1.0,676.2800173,,,,,,,,,676.2677707999997,677.0801397,677.8967306999998,677.881022,677.8810656,677.8967306999998,677.8967306999998,677.8967306999998,682.8941453000002,683.3130821,right,1.0,19.770603600000868,,,,,,,,,,,,,,,,,,,,,,,,,,,,,,sub-102,1.0,random_dot,60.32363630879569,
right,right,accuracy,,,,,0.0,0.0,0.0,0.0,25.0,0.0,50.0,1.0,683.3262005000001,,,,,,,,,683.3149716000003,683.4263587999999,684.2268047000002,684.2110207000001,684.2110655000001,684.2268047000002,684.2268047000002,684.2268047000002,689.2242286999995,690.4261314999999,right,1.0,20.55053870000029,,,,,,,,,,,,,,,,,,,,,,,,,,,,,,sub-102,1.0,random_dot,60.32363630879569,
left,left,accuracy,,,,,0.0,0.0,0.0,0.0,25.0,1.0,51.0,0.0,690.4389920999997,,,,,,,,,690.4277909999996,690.7887639999994,691.5890327000002,691.5731529999998,691.5732086000003,691.5890327000002,691.5890327000002,691.5890327000002,,695.9891722999996,left,1.0,18.74630049999996,,,,,,,,,,,,,,,,,,,,,,,,,,,,,,sub-102,1.0,random_dot,60.32363630879569,
right,right,accuracy,,,,,0.0,0.0,0.0,0.0,26.0,0.0,52.0,1.0,696.0027587,,,,,,,,,695.9910212,696.3524377999997,697.1530233999997,697.1365572999998,697.1366126999997,697.1530233999997,697.1530233999997,697.1530233999997,,700.0867686999995,right,1.0,17.288626900000054,,,,,,,,,,,,,,,,,,,,,,,,,,,,,,sub-102,1.0,random_dot,60.32363630879569,
left,left,accuracy,,,,,0.0,0.0,0.0,0.0,26.0,1.0,53.0,0.0,700.1004134,,,,,,,,,700.0886547999994,700.4500757000001,701.2507011000002,701.2340117999997,701.2340536999995,701.2507011000002,701.2507011000002,701.2507011000002,,704.3181407999996,left,1.0,17.42499350000071,,,,,,,,,,,,,,,,,,,,,,,,,,,,,,sub-102,1.0,random_dot,60.32363630879569,
left,left,accuracy,,,,,0.0,0.0,0.0,0.0,27.0,0.0,54.0,0.0,704.3313487999999,,,,,,,,,704.3198870000001,704.6810295999999,705.4818013999998,705.4657437999999,705.4657864999995,705.4818013999998,705.4818013999998,705.4818013999998,,708.1993368999997,left,1.0,17.069615700000213,,,,,,,,,,,,,,,,,,,,,,,,,,,,,,sub-102,1.0,random_dot,60.32363630879569,
right,right,accuracy,,,,,0.0,0.0,0.0,0.0,27.0,1.0,55.0,1.0,708.2123312999997,,,,,,,,,708.2012422000003,708.5624856,709.3628613999995,709.3465659999997,709.3466099000002,709.3628613999995,709.3628613999995,709.3628613999995,,712.1136524999997,right,1.0,17.102502699999604,,,,,,,,,,,,,,,,,,,,,,,,,,,,,,sub-102,1.0,random_dot,60.32363630879569,
right,right,accuracy,,,,,0.0,0.0,0.0,0.0,28.0,0.0,56.0,1.0,712.1267105000002,,,,,,,,,712.1154806,712.2269431999998,713.0278206999997,713.0109224000003,713.0109617000003,713.0278206999997,713.0278206999997,713.0278206999997,,716.8277609000002,right,1.0,18.15308269999969,,,,,,,,,,,,,,,,,,,,,,,,,,,,,,sub-102,1.0,random_dot,60.32363630879569,
left,left,accuracy,,,,,0.0,0.0,0.0,0.0,28.0,1.0,57.0,0.0,716.8412099000002,,,,,,,,,716.8295316999997,718.0406625999999,718.8409121999998,718.8247809999998,718.8248474999996,718.8409121999998,718.8409121999998,718.8409121999998,,720.9747112,left,1.0,16.490340800000013,,,,,,,,,,,,,,,,,,,,,,,,,,,,,,sub-102,1.0,random_dot,60.32363630879569,
left,left,accuracy,,,,,0.0,0.0,0.0,0.0,29.0,0.0,58.0,0.0,720.9889381999997,,,,,,,,,720.9762029999997,721.0890015999998,721.8891552,721.8733233999997,721.8733858999999,721.8891552,721.8891552,721.8891552,,725.4397664000003,left,1.0,17.89511670000047,,,,,,,,,,,,,,,,,,,,,,,,,,,,,,sub-102,1.0,random_dot,60.32363630879569,
right,right,accuracy,,,,,0.0,0.0,0.0,0.0,29.0,1.0,59.0,1.0,725.4528350999994,,,,,,,,,725.4416498999994,726.6525612999999,727.4529987999999,727.4365511999999,727.4365892999999,727.4529987999999,727.4529987999999,727.4529987999999,,729.3884403999996,right,1.0,16.28885199999968,,,,,,,,,,,,,,,,,,,,,,,,,,,,,,sub-102,1.0,random_dot,60.32363630879569,
,,accuracy,,,,,0.0,0.0,0.0,0.0,,,,,,,,,,,,,,,,,,,,,,,,,,,,,,,,,,,,,,,,,,,,,,,,,,,,,,,,sub-102,1.0,random_dot,60.32363630879569,
right,right,speed,,,,,0.0,1.0,1.0,1.0,0.0,0.0,0.0,1.0,735.1150903000002,,,,,,,,,735.1106930999999,735.4645798999995,736.2644415999998,736.2490141000003,736.2490833999996,736.2644415999998,736.2644415999998,736.2644415999998,,737.0662820000002,left,0.0,15.15677929999947,,,,,,,,,,,,,,,,,,,,729.3899319999996,729.4025805999995,729.4025805999995,735.0992239000002,space,20.053428299999723,,,,,sub-102,1.0,random_dot,60.32363630879569,
left,left,speed,,,,,0.0,1.0,1.0,1.0,0.0,1.0,1.0,0.0,737.0799264000002,,,,,,,,,737.0683715,737.4295667000001,738.2301254999998,738.2139809999994,738.2140238999996,738.2301254999998,738.2301254999998,738.2301254999998,,739.0984971000003,right,0.0,15.221793400000024,,,,,,,,,,,,,,,,,,,,,,,,,,,,,,sub-102,1.0,random_dot,60.32363630879569,
left,left,speed,,,,,0.0,1.0,1.0,1.0,1.0,0.0,2.0,0.0,739.1119066999995,,,,,,,,,739.1001430000001,739.4618248000002,740.2625659,740.2465012999996,740.2465354000001,740.2625659,740.2625659,740.2625659,,741.3143297000001,left,1.0,15.403348000000731,,,,,,,,,,,,,,,,,,,,,,,,,,,,,,sub-102,1.0,random_dot,60.32363630879569,
right,right,speed,,,,,0.0,1.0,1.0,1.0,1.0,1.0,3.0,1.0,741.3272229999998,,,,,,,,,741.3169788,742.1269441999998,742.927561,742.9112652999997,742.9113216999999,742.927561,742.927561,742.927561,,744.3956791999994,right,1.0,15.816224000000147,,,,,,,,,,,,,,,,,,,,,,,,,,,,,,sub-102,1.0,random_dot,60.32363630879569,
right,right,speed,,,,,0.0,1.0,1.0,1.0,2.0,0.0,4.0,1.0,744.4089661000003,,,,,,,,,744.3972661000003,744.5089221000003,745.3101689,745.2935636999996,745.2936180000002,745.3101689,745.3101689,745.3101689,,746.1612172,left,0.0,15.196503099999973,,,,,,,,,,,,,,,,,,,,,,,,,,,,,,sub-102,1.0,random_dot,60.32363630879569,
left,left,speed,,,,,0.0,1.0,1.0,1.0,2.0,1.0,5.0,0.0,746.1747954999996,,,,,,,,,746.1629784000002,746.5248809,747.3254734999996,747.3086294,747.3087092999999,747.3254734999996,747.3254734999996,747.3254734999996,,748.2103579,left,1.0,15.2346105000006,,,,,,,,,,,,,,,,,,,,,,,,,,,,,,sub-102,1.0,random_dot,60.32363630879569,
right,right,speed,,,,,0.0,1.0,1.0,1.0,3.0,0.0,6.0,1.0,748.223767,,,,,,,,,748.2132541999995,749.4231005999995,750.223622,750.2077397999997,750.2077894999998,750.223622,750.223622,750.223622,,751.0937564999999,right,1.0,15.22637399999985,,,,,,,,,,,,,,,,,,,,,,,,,,,,,,sub-102,1.0,random_dot,60.32363630879569,
left,left,speed,,,,,0.0,1.0,1.0,1.0,3.0,1.0,7.0,0.0,751.1054924999994,,,,,,,,,751.0953414999999,752.3049819000003,753.1053735999999,753.0888668000002,753.0889050000001,753.1053735999999,753.1053735999999,753.1053735999999,,754.4073782999999,left,1.0,15.648312300000724,,,,,,,,,,,,,,,,,,,,,,,,,,,,,,sub-102,1.0,random_dot,60.32363630879569,
left,left,speed,,,,,0.0,1.0,1.0,1.0,4.0,0.0,8.0,0.0,754.4200708000003,,,,,,,,,754.4091719000003,755.6196216000003,756.4200435999996,756.4040252999998,756.4040720999997,756.4200435999996,756.4200435999996,756.4200435999996,,757.5045936000001,right,0.0,15.442285500000253,,,,,,,,,,,,,,,,,,,,,,,,,,,,,,sub-102,1.0,random_dot,60.32363630879569,
right,right,speed,,,,,0.0,1.0,1.0,1.0,4.0,1.0,9.0,1.0,757.5188664000002,,,,,,,,,757.5065195000002,758.7183242999995,759.5187272999997,759.5022677000002,759.5023203999995,759.5187272999997,759.5187272999997,759.5187272999997,,760.9526928,right,1.0,15.79071070000009,,,,,,,,,,,,,,,,,,,,,,,,,,,,,,sub-102,1.0,random_dot,60.32363630879569,
right,right,speed,,,,,0.0,1.0,1.0,1.0,5.0,0.0,10.0,1.0,760.9667548000002,,,,,,,,,760.954252,761.7662859999996,762.5665929000002,762.5509207,762.5509692999999,762.5665929000002,762.5665929000002,762.5665929000002,,763.5688410999996,right,1.0,15.349070600000232,,,,,,,,,,,,,,,,,,,,,,,,,,,,,,sub-102,1.0,random_dot,60.32363630879569,
left,left,speed,,,,,0.0,1.0,1.0,1.0,5.0,1.0,11.0,0.0,763.5819024999996,,,,,,,,,763.5707698000001,764.7813350000001,765.5819068999995,765.5655804000003,765.5656238999995,765.5819068999995,765.5819068999995,765.5819068999995,,766.4002278000003,left,1.0,15.16404109999985,,,,,,,,,,,,,,,,,,,,,,,,,,,,,,sub-102,1.0,random_dot,60.32363630879569,
left,left,speed,,,,,0.0,1.0,1.0,1.0,6.0,0.0,12.0,0.0,766.4136444999999,,,,,,,,,766.4022457999995,766.7638739999998,767.5806644999998,767.5648750999994,767.5649182000002,767.5806644999998,767.5806644999998,767.5806644999998,,768.5492510999998,right,0.0,15.326040199999625,,,,,,,,,,,,,,,,,,,,,,,,,,,,,,sub-102,1.0,random_dot,60.32363630879569,
right,right,speed,,,,,0.0,1.0,1.0,1.0,6.0,1.0,13.0,1.0,768.5626320999995,,,,,,,,,768.5514266999994,768.6624065999999,769.4628703000003,769.4471110999998,769.4471529999996,769.4628703000003,769.4628703000003,769.4628703000003,,770.3986783999994,left,0.0,15.281787500000064,,,,,,,,,,,,,,,,,,,,,,,,,,,,,,sub-102,1.0,random_dot,60.32363630879569,
right,right,speed,,,,,0.0,1.0,1.0,1.0,7.0,0.0,14.0,1.0,770.4114362999994,,,,,,,,,770.4005735999995,771.2110886999994,772.0115928,771.9954406000002,771.9955035999997,772.0115928,772.0115928,772.0115928,,772.7641209999997,left,0.0,15.109348600000883,,,,,,,,,,,,,,,,,,,,,,,,,,,,,,sub-102,1.0,random_dot,60.32363630879569,
left,left,speed,,,,,0.0,1.0,1.0,1.0,7.0,1.0,15.0,0.0,772.7768603999998,,,,,,,,,772.7656628999998,772.8770058999994,773.6774212999994,773.6609235000001,773.6609676000003,773.6774212999994,773.6774212999994,773.6774212999994,,774.4627366,left,1.0,15.13286330000028,,,,,,,,,,,,,,,,,,,,,,,,,,,,,,sub-102,1.0,random_dot,60.32363630879569,
left,left,speed,,,,,0.0,1.0,1.0,1.0,8.0,0.0,16.0,0.0,774.4760437999998,,,,,,,,,774.4646342000001,775.6751535999997,776.4757188999997,776.4602215,776.4602737,776.4757188999997,776.4757188999997,776.4757188999997,,777.3112048999997,left,1.0,15.184400100000856,,,,,,,,,,,,,,,,,,,,,,,,,,,,,,sub-102,1.0,random_dot,60.32363630879569,
right,right,speed,,,,,0.0,1.0,1.0,1.0,8.0,1.0,17.0,1.0,777.3241733,,,,,,,,,777.3132964000001,778.5240234999997,779.3240909000001,779.3083068999999,779.3083808999995,779.3240909000001,779.3240909000001,779.3240909000001,,780.1929931999998,right,1.0,15.223675499999445,,,,,,,,,,,,,,,,,,,,,,,,,,,,,,sub-102,1.0,random_dot,60.32363630879569,
left,left,speed,,,,,0.0,1.0,1.0,1.0,9.0,0.0,18.0,0.0,780.2061872999998,,,,,,,,,780.1943782000003,780.3061567,781.1063695999997,781.0915256000003,781.0915690999996,781.1063695999997,781.1063695999997,781.1063695999997,,782.1417314999994,right,0.0,15.385054800000034,,,,,,,,,,,,,,,,,,,,,,,,,,,,,,sub-102,1.0,random_dot,60.32363630879569,
right,right,speed,,,,,0.0,1.0,1.0,1.0,9.0,1.0,19.0,1.0,782.1552308999994,,,,,,,,,782.1435684000003,782.5049807999999,783.3055405999999,783.2892379,783.2895267999997,783.3055405999999,783.3055405999999,783.3055405999999,,784.1752366999995,left,0.0,15.217269699999632,,,,,,,,,,,,,,,,,,,,,,,,,,,,,,sub-102,1.0,random_dot,60.32363630879569,
right,right,speed,,,,,0.0,1.0,1.0,1.0,10.0,0.0,20.0,1.0,784.1870245999994,,,,,,,,,784.1773471000001,785.3861430000002,786.1867987999999,786.1709907,786.1710295999997,786.1867987999999,786.1867987999999,786.1867987999999,,787.2234790999996,left,0.0,15.393449099999998,,,,,,,,,,,,,,,,,,,,,,,,,,,,,,sub-102,1.0,random_dot,60.32363630879569,
left,left,speed,,,,,0.0,1.0,1.0,1.0,10.0,1.0,21.0,0.0,787.2356392999995,,,,,,,,,787.2251473000001,787.3356417,788.1359151000001,788.1194837999997,788.1195247,788.1359151000001,788.1359151000001,788.1359151000001,,788.9210270999997,right,0.0,15.13613340000029,,,,,,,,,,,,,,,,,,,,,,,,,,,,,,sub-102,1.0,random_dot,60.32363630879569,
left,left,speed,,,,,0.0,1.0,1.0,1.0,11.0,0.0,22.0,0.0,788.9347999999995,,,,,,,,,788.9227121999998,790.1343204,790.9345621999996,790.9182668999997,790.9183221999997,790.9345621999996,790.9345621999996,790.9345621999996,,791.7704714999995,left,1.0,15.196180200000526,,,,,,,,,,,,,,,,,,,,,,,,,,,,,,sub-102,1.0,random_dot,60.32363630879569,
right,right,speed,,,,,0.0,1.0,1.0,1.0,11.0,1.0,23.0,1.0,791.7829632999997,,,,,,,,,791.7721544000001,792.9824787000002,793.7829406999995,793.7664964,793.7665534000002,793.7829406999995,793.7829406999995,793.7829406999995,,794.9188681,left,0.0,15.49585450000086,,,,,,,,,,,,,,,,,,,,,,,,,,,,,,sub-102,1.0,random_dot,60.32363630879569,
right,right,speed,,,,,0.0,1.0,1.0,1.0,12.0,0.0,24.0,1.0,794.9311456999999,,,,,,,,,794.9208386999994,795.0310746999999,795.8316431999997,795.8156210000002,795.8156581999997,795.8316431999997,795.8316431999997,795.8316431999997,,797.0334969999999,right,1.0,15.549847799999952,,,,,,,,,,,,,,,,,,,,,,,,,,,,,,sub-102,1.0,random_dot,60.32363630879569,
left,left,speed,,,,,0.0,1.0,1.0,1.0,12.0,1.0,25.0,0.0,797.0466080000001,,,,,,,,,797.0354160000002,798.2460982999996,799.0468220999996,799.0308952999999,799.0309473000002,799.0468220999996,799.0468220999996,799.0468220999996,,799.6818427000003,left,1.0,14.984602300000006,,,,,,,,,,,,,,,,,,,,,,,,,,,,,,sub-102,1.0,random_dot,60.32363630879569,
right,right,speed,,,,,0.0,1.0,1.0,1.0,13.0,0.0,26.0,1.0,799.6951469999999,,,,,,,,,799.6837576000003,800.8950036000001,801.6954386000002,801.6787829999998,801.6788381000001,801.6954386000002,801.6954386000002,801.6954386000002,,802.2486382000002,left,0.0,14.897601600000598,,,,,,,,,,,,,,,,,,,,,,,,,,,,,,sub-102,1.0,random_dot,60.32363630879569,
left,left,speed,,,,,0.0,1.0,1.0,1.0,13.0,1.0,27.0,0.0,802.2609741000001,,,,,,,,,802.2502886999996,802.3605023999994,803.1611085999998,803.1442245000003,803.1442603,803.1611085999998,803.1611085999998,803.1611085999998,,803.9791936999995,right,0.0,15.164768400000868,,,,,,,,,,,,,,,,,,,,,,,,,,,,,,sub-102,1.0,random_dot,60.32363630879569,
right,right,speed,,,,,0.0,1.0,1.0,1.0,14.0,0.0,28.0,1.0,803.9929889999999,,,,,,,,,803.9811134999995,804.0929272999997,804.8934987999996,804.8770898999996,804.8771505,804.8934987999996,804.8934987999996,804.8934987999996,,805.6617304999995,left,0.0,15.114170699999704,,,,,,,,,,,,,,,,,,,,,,,,,,,,,,sub-102,1.0,random_dot,60.32363630879569,
left,left,speed,,,,,0.0,1.0,1.0,1.0,14.0,1.0,29.0,0.0,805.6754352000003,,,,,,,,,805.6635486999999,805.7751735999996,806.5756299999998,806.5594337999996,806.5595422000001,806.5756299999998,806.5756299999998,806.5756299999998,,807.4611605999994,right,0.0,15.237361299999977,,,,,,,,,,,,,,,,,,,,,,,,,,,,,,sub-102,1.0,random_dot,60.32363630879569,
left,left,speed,,,,,0.0,1.0,1.0,1.0,15.0,0.0,30.0,0.0,807.4744104999995,,,,,,,,,807.4631182999997,807.8239749999998,808.6244898,808.6084245999996,808.6084790999998,808.6244898,808.6244898,808.6244898,,809.5934289000002,right,0.0,15.317376799999693,,,,,,,,,,,,,,,,,,,,,,,,,,,,,,sub-102,1.0,random_dot,60.32363630879569,
right,right,speed,,,,,0.0,1.0,1.0,1.0,15.0,1.0,31.0,1.0,809.6068228999998,,,,,,,,,809.5948008,809.9566021999995,810.7568341000001,810.7407298000003,810.7407910999996,810.7568341000001,810.7568341000001,810.7568341000001,,811.8094722000001,left,0.0,15.406602900000507,,,,,,,,,,,,,,,,,,,,,,,,,,,,,,sub-102,1.0,random_dot,60.32363630879569,
left,left,speed,,,,,0.0,1.0,1.0,1.0,16.0,0.0,32.0,0.0,811.8217871000002,,,,,,,,,811.8113204999995,813.0212623000002,813.8216591999994,813.8061733,813.8062170999997,813.8216591999994,813.8216591999994,813.8216591999994,,814.7405480000002,right,0.0,15.273918000000776,,,,,,,,,,,,,,,,,,,,,,,,,,,,,,sub-102,1.0,random_dot,60.32363630879569,
right,right,speed,,,,,0.0,1.0,1.0,1.0,16.0,1.0,33.0,1.0,814.7538301999998,,,,,,,,,814.7435123999999,815.1038248,815.9038573000003,815.8878988000001,815.8879403999995,815.9038573000003,815.9038573000003,815.9038573000003,,816.9053418999997,right,1.0,15.346972299999834,,,,,,,,,,,,,,,,,,,,,,,,,,,,,,sub-102,1.0,random_dot,60.32363630879569,
right,right,speed,,,,,0.0,1.0,1.0,1.0,17.0,0.0,34.0,1.0,816.9191743999995,,,,,,,,,816.9072478000003,818.1183276999996,818.9188786999998,818.9034332999995,818.9034873999994,818.9188786999998,818.9188786999998,818.9188786999998,,820.1537475999999,left,0.0,15.580859300000157,,,,,,,,,,,,,,,,,,,,,,,,,,,,,,sub-102,1.0,random_dot,60.32363630879569,
left,left,speed,,,,,0.0,1.0,1.0,1.0,17.0,1.0,35.0,0.0,820.1672107999998,,,,,,,,,820.1556895999997,821.3664175999997,822.1671123000001,822.1512489000002,822.1513027999995,822.1671123000001,822.1671123000001,822.1671123000001,,823.5025546000002,left,1.0,15.682464399999844,,,,,,,,,,,,,,,,,,,,,,,,,,,,,,sub-102,1.0,random_dot,60.32363630879569,
right,right,speed,,,,,0.0,1.0,1.0,1.0,18.0,0.0,36.0,1.0,823.5151168999996,,,,,,,,,823.5044565000003,823.8656328000002,824.6656397000002,824.6499540999998,824.6500031,824.6656397000002,824.6656397000002,824.6656397000002,,826.0173202000001,left,0.0,15.703320200000237,,,,,,,,,,,,,,,,,,,,,,,,,,,,,,sub-102,1.0,random_dot,60.32363630879569,
left,left,speed,,,,,0.0,1.0,1.0,1.0,18.0,1.0,37.0,0.0,826.0308963000002,,,,,,,,,826.0190052000003,826.1309555000003,826.9312794000002,826.9150118000002,826.9150746,826.9312794000002,826.9312794000002,826.9312794000002,,828.3650375000002,right,0.0,15.788906100000531,,,,,,,,,,,,,,,,,,,,,,,,,,,,,,sub-102,1.0,random_dot,60.32363630879569,
left,left,speed,,,,,0.0,1.0,1.0,1.0,19.0,0.0,38.0,0.0,828.3795828999996,,,,,,,,,828.3665300999996,829.5786685999997,830.3796204999994,830.3630649000002,830.3631146000002,830.3796204999994,830.3796204999994,830.3796204999994,,831.6478188999995,right,0.0,15.625385199999982,,,,,,,,,,,,,,,,,,,,,,,,,,,,,,sub-102,1.0,random_dot,60.32363630879569,
right,right,speed,,,,,0.0,1.0,1.0,1.0,19.0,1.0,39.0,1.0,831.6609250999995,,,,,,,,,831.6502749999995,832.8602821999998,833.6606209999995,833.6450893999995,833.6451408999997,833.6606209999995,833.6606209999995,833.6606209999995,,834.8638031999994,left,0.0,15.562360400000216,,,,,,,,,,,,,,,,,,,,,,,,,,,,,,sub-102,1.0,random_dot,60.32363630879569,
left,left,speed,,,,,0.0,1.0,1.0,1.0,20.0,0.0,40.0,0.0,834.8760121,,,,,,,,,834.8655310999998,835.6753526999996,836.4759956000003,836.459488,836.4595168000001,836.4759956000003,836.4759956000003,836.4759956000003,,838.9769501999995,left,1.0,16.848411299999498,,,,,,,,,,,,,,,,,,,,,,,,,,,,,,sub-102,1.0,random_dot,60.32363630879569,
right,right,speed,,,,,0.0,1.0,1.0,1.0,20.0,1.0,41.0,1.0,838.9903652999997,,,,,,,,,838.9786917999995,839.7899087999999,840.5903559000003,840.5741474000001,840.5741923999999,840.5903559000003,840.5903559000003,840.5903559000003,,841.6089365000003,right,1.0,15.36356540000088,,,,,,,,,,,,,,,,,,,,,,,,,,,,,,sub-102,1.0,random_dot,60.32363630879569,
left,left,speed,,,,,0.0,1.0,1.0,1.0,21.0,0.0,42.0,0.0,841.6220670999996,,,,,,,,,841.6107888000001,842.4219527,843.2220376999999,843.2062248999996,843.2062762999999,843.2220376999999,843.2220376999999,843.2220376999999,,844.1570005999997,left,1.0,15.281346600000688,,,,,,,,,,,,,,,,,,,,,,,,,,,,,,sub-102,1.0,random_dot,60.32363630879569,
right,right,speed,,,,,0.0,1.0,1.0,1.0,21.0,1.0,43.0,1.0,844.1707240999999,,,,,,,,,844.1589735000002,844.5208404999998,845.3376363000002,845.3218248999997,845.3218869999996,845.3376363000002,845.3376363000002,845.3376363000002,,846.4902577999997,right,1.0,15.502775300000394,,,,,,,,,,,,,,,,,,,,,,,,,,,,,,sub-102,1.0,random_dot,60.32363630879569,
left,left,speed,,,,,0.0,1.0,1.0,1.0,22.0,0.0,44.0,0.0,846.5025056999998,,,,,,,,,846.4920043999996,846.8524462,847.6529790999998,847.6372716000001,847.6373228999996,847.6529790999998,847.6529790999998,847.6529790999998,,848.7053887999996,right,0.0,15.409235099999933,,,,,,,,,,,,,,,,,,,,,,,,,,,,,,sub-102,1.0,random_dot,60.32363630879569,
right,right,speed,,,,,0.0,1.0,1.0,1.0,22.0,1.0,45.0,1.0,848.7182781999995,,,,,,,,,848.7071007999998,849.5176145,850.3186357,850.3019309999995,850.3019920000002,850.3186357,850.3186357,850.3186357,,851.2366526000001,left,0.0,15.264518300000418,,,,,,,,,,,,,,,,,,,,,,,,,,,,,,sub-102,1.0,random_dot,60.32363630879569,
left,left,speed,,,,,0.0,1.0,1.0,1.0,23.0,0.0,46.0,0.0,851.2502118999996,,,,,,,,,851.2384791999998,852.4494462999996,853.2500753999998,853.2337781000001,853.2338272000002,853.2500753999998,853.2500753999998,853.2500753999998,,854.1016850999999,left,1.0,15.205205500000377,,,,,,,,,,,,,,,,,,,,,,,,,,,,,,sub-102,1.0,random_dot,60.32363630879569,
right,right,speed,,,,,0.0,1.0,1.0,1.0,23.0,1.0,47.0,1.0,854.1153146000001,,,,,,,,,854.1035054999998,854.9150143000002,855.7153816999994,855.6996950999996,855.6997453999998,855.7153816999994,855.7153816999994,855.7153816999994,,856.8006464999994,left,0.0,15.435921000000237,,,,,,,,,,,,,,,,,,,,,,,,,,,,,,sub-102,1.0,random_dot,60.32363630879569,
left,left,speed,,,,,0.0,1.0,1.0,1.0,24.0,0.0,48.0,0.0,856.8138219999996,,,,,,,,,856.8022074999994,856.9137696000003,857.7143193999996,857.6975602999996,857.6976067,857.7143193999996,857.7143193999996,857.7143193999996,,858.9173248000002,left,1.0,15.547410600000148,,,,,,,,,,,,,,,,,,,,,,,,,,,,,,sub-102,1.0,random_dot,60.32363630879569,
right,right,speed,,,,,0.0,1.0,1.0,1.0,24.0,1.0,49.0,1.0,858.9294519999999,,,,,,,,,858.9189188999994,860.1286561000002,860.9292227000001,860.9133324,860.9133826000002,860.9292227000001,860.9292227000001,860.9292227000001,,861.5645178,right,1.0,14.988389899999676,,,,,,,,,,,,,,,,,,,,,,,,,,,,,,sub-102,1.0,random_dot,60.32363630879569,
left,left,speed,,,,,0.0,1.0,1.0,1.0,25.0,0.0,50.0,0.0,861.5777456999999,,,,,,,,,861.5663721999995,861.9276414000001,862.7281969999999,862.7119784000001,862.7120502000002,862.7281969999999,862.7281969999999,862.7281969999999,,863.5798675000001,right,0.0,15.21137540000018,,,,,,,,,,,,,,,,,,,,,,,,,,,,,,sub-102,1.0,random_dot,60.32363630879569,
right,right,speed,,,,,0.0,1.0,1.0,1.0,25.0,1.0,51.0,1.0,863.5931278000003,,,,,,,,,863.5814487000002,864.7926112999999,865.5935701000003,865.5770184999997,865.5771109000002,865.5935701000003,865.5935701000003,865.5935701000003,,866.3447105999999,left,0.0,15.098647900000287,,,,,,,,,,,,,,,,,,,,,,,,,,,,,,sub-102,1.0,random_dot,60.32363630879569,
right,right,speed,,,,,0.0,1.0,1.0,1.0,26.0,0.0,52.0,1.0,866.3584507,,,,,,,,,866.3463759000001,867.5580635000001,868.3582646999998,868.3420005000003,868.3420540000002,868.3582646999998,868.3582646999998,868.3582646999998,,869.1940273999994,left,0.0,15.193457800000033,,,,,,,,,,,,,,,,,,,,,,,,,,,,,,sub-102,1.0,random_dot,60.32363630879569,
left,left,speed,,,,,0.0,1.0,1.0,1.0,26.0,1.0,53.0,0.0,869.2068871999995,,,,,,,,,869.1957975999999,869.5564559999998,870.3570978000002,870.3414602999997,870.3415178,870.3570978000002,870.3570978000002,870.3570978000002,,871.1599387000001,right,0.0,15.16194220000034,,,,,,,,,,,,,,,,,,,,,,,,,,,,,,sub-102,1.0,random_dot,60.32363630879569,
right,right,speed,,,,,0.0,1.0,1.0,1.0,27.0,0.0,54.0,1.0,871.1725178000002,,,,,,,,,871.1616406999997,871.5224406000002,872.3231143999997,872.3074586999996,872.3075021,872.3231143999997,872.3231143999997,872.3231143999997,,873.3083672999996,left,0.0,15.344057300000712,,,,,,,,,,,,,,,,,,,,,,,,,,,,,,sub-102,1.0,random_dot,60.32363630879569,
left,left,speed,,,,,0.0,1.0,1.0,1.0,27.0,1.0,55.0,0.0,873.3213064999995,,,,,,,,,873.3100800999996,874.5207434999998,875.3215963999996,875.3048616000001,875.3049144000001,875.3215963999996,875.3215963999996,875.3215963999996,,875.8577666999995,left,1.0,14.881539400000293,,,,,,,,,,,,,,,,,,,,,,,,,,,,,,sub-102,1.0,random_dot,60.32363630879569,
left,left,speed,,,,,0.0,1.0,1.0,1.0,28.0,0.0,56.0,0.0,875.8700369000003,,,,,,,,,875.8604398000002,877.0691075999998,877.8700206999997,877.8536145000003,877.8536606000002,877.8700206999997,877.8700206999997,877.8700206999997,,878.8387130999995,right,0.0,15.32358960000056,,,,,,,,,,,,,,,,,,,,,,,,,,,,,,sub-102,1.0,random_dot,60.32363630879569,
right,right,speed,,,,,0.0,1.0,1.0,1.0,28.0,1.0,57.0,1.0,878.8514637000003,,,,,,,,,878.8405700999997,879.2016029000001,880.0019338999996,879.9856100000002,879.9856579000002,880.0019338999996,880.0019338999996,880.0019338999996,,881.0034628999997,left,0.0,15.346885800000564,,,,,,,,,,,,,,,,,,,,,,,,,,,,,,sub-102,1.0,random_dot,60.32363630879569,
right,right,speed,,,,,0.0,1.0,1.0,1.0,29.0,0.0,58.0,1.0,881.0169648999995,,,,,,,,,881.0051498999997,881.8167735000002,882.6175338999997,882.6019032999998,882.6019512999997,882.6175338999997,882.6175338999997,882.6175338999997,,883.3029978,left,0.0,15.034211600000162,,,,,,,,,,,,,,,,,,,,,,,,,,,,,,sub-102,1.0,random_dot,60.32363630879569,
left,left,speed,,,,,0.0,1.0,1.0,1.0,29.0,1.0,59.0,0.0,883.3156369000003,,,,,,,,,883.3047783999996,884.5150846000001,885.3163725999998,885.2995452999999,885.2995859999996,885.3163725999998,885.3163725999998,885.3163725999998,,886.6838930999998,right,0.0,15.72414800000024,,,,,,,,,,,,,,,,,,,,,,,,,,,,,,sub-102,1.0,random_dot,60.32363630879569,
,,speed,,,,,0.0,1.0,1.0,1.0,,,,,,,,,,,,,,,,,,,,,,,,,,,,,,,,,,,,,,,,,,,,,,,,,,,,,,,,sub-102,1.0,random_dot,60.32363630879569,
,,,,,,,,,,,,,,,,,,,,,,,,,,,,,,,,,,,,,,,,,,,,,,,,,,,,,,,,,,,,,,,886.6852567999999,886.6970249999999,891.6950544999995,sub-102,,,,
