wordCTK,colorCTK,corrAnsCTK,congruentCTK,thisN,thisTrialN,thisRepN,keyResp_CTK.keys,keyResp_CTK.corr,keyResp_CTK.rt,keyResp_CTK.duration,wordPractice,colorPractice,corrAnsPractice,congruentPractice,respPractice.keys,respPractice.corr,respPractice.rt,respPractice.duration,word,color,corrAns,congruent,keyResp_test_run.keys,keyResp_test_run.corr,keyResp_test_run.rt,keyResp_test_run.duration,trials_CTK.thisRepN,trials_CTK.thisTrialN,trials_CTK.thisN,trials_CTK.thisIndex,trials_practice.thisRepN,trials_practice.thisTrialN,trials_practice.thisN,trials_practice.thisIndex,trials_test.thisRepN,trials_test.thisTrialN,trials_test.thisN,trials_test.thisIndex,thisRow.t,notes,instruction.started,instr_text.started,instr_image.started,instr_resp.started,instruction.stopped,instr_resp.keys,instr_resp.rt,instr_resp.duration,instr_color_to_key.started,instr_ctk.started,resp_ctk.started,instr_color_to_key.stopped,resp_ctk.keys,resp_ctk.rt,resp_ctk.duration,ITI.started,fixcross.started,fixcross.stopped,ITI.stopped,color_to_key_run.started,stimulus_CTK.started,keyResp_CTK.started,color_to_key_run.stopped,trials_CTK.keyResp_CTK.keys,trials_CTK.keyResp_CTK.corr,trials_CTK.keyResp_CTK.rt,trials_CTK.keyResp_CTK.duration,instr_practice.started,instr_practice_text.started,instr_practice_resp.started,instr_practice.stopped,instr_practice_resp.keys,instr_practice_resp.rt,instr_practice_resp.duration,practice_run.started,stimulus_practice.started,respPractice.started,practice_run.stopped,trials_practice.respPractice.keys,trials_practice.respPractice.corr,trials_practice.respPractice.rt,trials_practice.respPractice.duration,feedback.started,textFeedback.started,textFeedback.stopped,feedback.stopped,instr_test.started,instr_test_text.started,instr_test_resp.started,instr_test.stopped,instr_test_resp.keys,instr_test_resp.rt,instr_test_resp.duration,test_run.started,stimulus_test_run.started,keyResp_test_run.started,test_run.stopped,trials_test.keyResp_test_run.keys,trials_test.keyResp_test_run.corr,trials_test.keyResp_test_run.rt,trials_test.keyResp_test_run.duration,goodbye.started,textGoodbye.started,goodbye.stopped,participant,session,expName,frameRate,Unnamed: 112
,,,,,,,,,,,,,,,,,,,,,,,,,,,,,,,,,,,,,,,,,0.0032583000138401,0.0471551001537591,0.0471551001537591,0.0471551001537591,3.8446796000935137,space,3.7631188000086695,,,,,,,,,,,,,,,,,,,,,,,,,,,,,,,,,,,,,,,,,,,,,,,,,,,,,,,,,,sub-187,1,stroop_test,60.10572600740172,
,,,,,,,,,,,,,,,,,,,,,,,,,,,,,,,,,,,,,,,,,,,,,,,,,3.8447267001029104,3.8502889999654144,3.8502889999654144,4.88496690010652,space,1.0240205000154674,,,,,,,,,,,,,,,,,,,,,,,,,,,,,,,,,,,,,,,,,,,,,,,,,,,sub-187,1,stroop_test,60.10572600740172,
test,blue,b,1.0,0.0,0.0,0.0,b,1.0,0.7168343001976609,,,,,,,,,,,,,,,,,,0.0,0.0,0.0,2.0,,,,,,,,,4.900555100059137,,,,,,,,,,,,,,,,,4.891103900037706,6.099721100181341,6.899157700128853,6.882900299970061,6.886868900153786,6.899157700128853,6.899157700128853,7.633207600098103,b,1.0,0.7168343001976609,,,,,,,,,,,,,,,,,,,,,,,,,,,,,,,,,,,,,,,sub-187,1,stroop_test,60.10572600740172,
test,red,r,1.0,1.0,1.0,0.0,r,1.0,0.888925899984315,,,,,,,,,,,,,,,,,,0.0,1.0,1.0,0.0,,,,,,,,,7.6485850000754,,,,,,,,,,,,,,,,,7.633516100002453,7.998308200156316,8.797932100016624,8.781880700029433,8.782421400072053,8.797932100016624,8.797932100016624,9.698718799976632,r,1.0,0.888925899984315,,,,,,,,,,,,,,,,,,,,,,,,,,,,,,,,,,,,,,,sub-187,1,stroop_test,60.10572600740172,
test,yellow,g,1.0,2.0,2.0,0.0,g,1.0,0.3925293998327106,,,,,,,,,,,,,,,,,,0.0,2.0,2.0,1.0,,,,,,,,,9.713945100083947,,,,,,,,,,,,,,,,,9.699061300139874,10.513489900156856,11.312993800034748,11.29694370017387,11.297484799986703,11.312993800034748,11.312993800034748,11.714019000064582,g,1.0,0.3925293998327106,,,,,,,,,,,,,,,,,,,,,,,,,,,,,,,,,,,,,,,sub-187,1,stroop_test,60.10572600740172,
test,yellow,g,1.0,3.0,0.0,1.0,g,1.0,0.5635417001321912,,,,,,,,,,,,,,,,,,1.0,0.0,3.0,1.0,,,,,,,,,11.729466099990532,,,,,,,,,,,,,,,,,11.714362900005654,12.079259200021625,12.878865299979225,12.86258740001358,12.862882800167426,12.878865299979225,12.878865299979225,13.446143600158392,g,1.0,0.5635417001321912,,,,,,,,,,,,,,,,,,,,,,,,,,,,,,,,,,,,,,,sub-187,1,stroop_test,60.10572600740172,
test,red,r,1.0,4.0,1.0,1.0,r,1.0,0.7234424001071602,,,,,,,,,,,,,,,,,,1.0,1.0,4.0,0.0,,,,,,,,,13.461819000076504,,,,,,,,,,,,,,,,,13.446434800047427,14.26135649997741,15.060692300088704,15.0445413000416,15.045082400087267,15.060692300088704,15.060692300088704,15.795189399970695,r,1.0,0.7234424001071602,,,,,,,,,,,,,,,,,,,,,,,,,,,,,,,,,,,,,,,sub-187,1,stroop_test,60.10572600740172,
test,blue,b,1.0,5.0,2.0,1.0,b,1.0,0.5679566999897361,,,,,,,,,,,,,,,,,,1.0,2.0,5.0,2.0,,,,,,,,,15.810281800106168,,,,,,,,,,,,,,,,,15.795566700166091,15.910193500109015,16.709793400019407,16.693958800053224,16.69456239999272,16.709793400019407,16.709793400019407,17.293761500157416,b,1.0,0.5679566999897361,,,,,,,,,,,,,,,,,,,,,,,,,,,,,,,,,,,,,,,sub-187,1,stroop_test,60.10572600740172,
test,red,r,1.0,6.0,0.0,2.0,r,1.0,0.6713862998876721,,,,,,,,,,,,,,,,,,2.0,0.0,6.0,0.0,,,,,,,,,17.309760800097138,,,,,,,,,,,,,,,,,17.29394490015693,17.659130100160837,18.458608400076628,18.44271100009792,18.44325829995796,18.458608400076628,18.458608400076628,19.14254910009913,r,1.0,0.6713862998876721,,,,,,,,,,,,,,,,,,,,,,,,,,,,,,,,,,,,,,,sub-187,1,stroop_test,60.10572600740172,
test,yellow,g,1.0,7.0,1.0,2.0,g,1.0,0.4490898000076413,,,,,,,,,,,,,,,,,,2.0,1.0,7.0,1.0,,,,,,,,,19.15838639996946,,,,,,,,,,,,,,,,,19.142778099980205,20.357451900141317,21.15698210010305,21.14107990008779,21.141628300072625,21.15698210010305,21.15698210010305,21.60823630006053,g,1.0,0.4490898000076413,,,,,,,,,,,,,,,,,,,,,,,,,,,,,,,,,,,,,,,sub-187,1,stroop_test,60.10572600740172,
test,blue,b,1.0,8.0,2.0,2.0,b,1.0,1.3146171001717448,,,,,,,,,,,,,,,,,,2.0,2.0,8.0,2.0,,,,,,,,,21.62331590009853,,,,,,,,,,,,,,,,,21.608608199981973,22.82261639996432,23.62212650012225,23.60618260013871,23.606678100069985,23.62212650012225,23.62212650012225,24.939265600172803,b,1.0,1.3146171001717448,,,,,,,,,,,,,,,,,,,,,,,,,,,,,,,,,,,,,,,sub-187,1,stroop_test,60.10572600740172,
test,yellow,g,1.0,9.0,0.0,3.0,g,1.0,0.6863170000724494,,,,,,,,,,,,,,,,,,3.0,0.0,9.0,1.0,,,,,,,,,24.954910200089216,,,,,,,,,,,,,,,,,24.93958220002241,25.304388200165704,26.10404750006273,26.088007900165398,26.08854979998432,26.10404750006273,26.10404750006273,26.80499990005046,g,1.0,0.6863170000724494,,,,,,,,,,,,,,,,,,,,,,,,,,,,,,,,,,,,,,,sub-187,1,stroop_test,60.10572600740172,
test,red,r,1.0,10.0,1.0,3.0,r,1.0,0.6803583998698741,,,,,,,,,,,,,,,,,,3.0,1.0,10.0,0.0,,,,,,,,,26.82014440000057,,,,,,,,,,,,,,,,,26.805375500116497,27.61970879998989,28.41926570003852,28.40362870017998,28.40429290011525,28.41926570003852,28.41926570003852,29.10377910011448,r,1.0,0.6803583998698741,,,,,,,,,,,,,,,,,,,,,,,,,,,,,,,,,,,,,,,sub-187,1,stroop_test,60.10572600740172,
test,blue,b,1.0,11.0,2.0,3.0,b,1.0,0.4972329000011086,,,,,,,,,,,,,,,,,,3.0,2.0,11.0,2.0,,,,,,,,,29.119033999973908,,,,,,,,,,,,,,,,,29.104211200028654,29.2189301000908,30.018290900159627,30.00231420015916,30.00279609998688,30.018290900159627,30.018290900159627,30.519206500146534,b,1.0,0.4972329000011086,,,,,,,,,,,,,,,,,,,,,,,,,,,,,,,,,,,,,,,sub-187,1,stroop_test,60.10572600740172,
,,,,,,,,,,,,,,,,,,,,,,,,,,,,,,,,,,,,,,,,,,,,,,,,,,,,,,,,,,,,,,,,,,,,30.519372000126168,30.53497499995865,30.53497499995865,32.43490520003252,space,1.887874000007287,,,,,,,,,,,,,,,,,,,,,,,,,,,,,,,,sub-187,1,stroop_test,60.10572600740172,
,,,,0.0,0.0,0.0,,,,,rot,yellow,g,0.0,g,1.0,0.7688644002191722,,,,,,,,,,,,,,0.0,0.0,0.0,3.0,,,,,32.4507331000641,,,,,,,,,,,,,,,,,32.44665120006539,32.55017930013128,33.3496165999677,33.33370489999652,,,,,,,,,,,,,,,,33.34125220007263,33.3496165999677,33.3496165999677,34.133761500008404,g,1.0,0.7688644002191722,,34.14143590000458,34.14942230004817,35.148624800145626,35.132537900004536,,,,,,,,,,,,,,,,,,,sub-187,1,stroop_test,60.10572600740172,
,,,,1.0,1.0,0.0,,,,,rot,red,r,1.0,r,1.0,0.7300712999422103,,,,,,,,,,,,,,0.0,1.0,1.0,1.0,,,,,35.148624800145626,,,,,,,,,,,,,,,,,35.13290080009028,35.24837419996038,36.04795900010504,36.031923400005326,,,,,,,,,,,,,,,,36.032490900019184,36.04795900010504,36.04795900010504,36.78212620015256,r,1.0,0.7300712999422103,,36.78272110014223,36.79753720015288,37.79679780011065,37.78104949998669,,,,,,,,,,,,,,,,,,,sub-187,1,stroop_test,60.10572600740172,
,,,,2.0,2.0,0.0,,,,,gelb,red,r,0.0,r,1.0,0.7744046999141574,,,,,,,,,,,,,,0.0,2.0,2.0,8.0,,,,,37.79679780011065,,,,,,,,,,,,,,,,,37.78140830015764,37.89676060015336,38.696706000017,38.68055100017227,,,,,,,,,,,,,,,,38.68645959999412,38.696706000017,38.696706000017,39.48060780018568,r,1.0,0.7744046999141574,,39.48119430011138,39.496015900047496,40.49534410005435,40.47937469999306,,,,,,,,,,,,,,,,,,,sub-187,1,stroop_test,60.10572600740172,
,,,,3.0,3.0,0.0,,,,,gelb,yellow,g,1.0,g,1.0,0.7758389001246542,,,,,,,,,,,,,,0.0,3.0,3.0,10.0,,,,,40.49534410005435,,,,,,,,,,,,,,,,,40.47967629996128,40.59538220008835,41.39461440010928,41.37861920008436,,,,,,,,,,,,,,,,41.37937460001558,41.39461440010928,41.39461440010928,42.179004200035706,g,1.0,0.7758389001246542,,42.179600700037554,42.19440850010142,43.193400599993765,43.17782720015384,,,,,,,,,,,,,,,,,,,sub-187,1,stroop_test,60.10572600740172,
,,,,4.0,4.0,0.0,,,,,rot,blue,b,0.0,b,1.0,0.7786355998832732,,,,,,,,,,,,,,0.0,4.0,4.0,2.0,,,,,43.193400599993765,,,,,,,,,,,,,,,,,43.17818180005997,43.99331320007332,44.79275320004672,44.77658580010757,,,,,,,,,,,,,,,,44.78020310006104,44.79275320004672,44.79275320004672,45.57673020008952,b,1.0,0.7786355998832732,,45.57723130006343,45.592326200101525,46.59161929995753,46.57561630010605,,,,,,,,,,,,,,,,,,,sub-187,1,stroop_test,60.10572600740172,
,,,,5.0,5.0,0.0,,,,,gelb,blue,b,0.0,b,1.0,1.0092864998150617,,,,,,,,,,,,,,0.0,5.0,5.0,9.0,,,,,46.59161929995753,,,,,,,,,,,,,,,,,46.57591680018231,47.390981800155714,48.19052110007033,48.17460040003061,,,,,,,,,,,,,,,,48.17793120001443,48.19052110007033,48.19052110007033,49.20800570002757,b,1.0,1.0092864998150617,,49.20852140011266,49.22315760003403,50.22248540003784,50.206671700114384,,,,,,,,,,,,,,,,,,,sub-187,1,stroop_test,60.10572600740172,
,,,,6.0,6.0,0.0,,,,,blau,yellow,g,0.0,g,1.0,0.9484064998105168,,,,,,,,,,,,,,0.0,6.0,6.0,7.0,,,,,50.22248540003784,,,,,,,,,,,,,,,,,50.20701490016654,50.32267750008032,51.12212299997918,51.10594100016169,,,,,,,,,,,,,,,,51.11149589996785,51.12212299997918,51.12212299997918,52.072514900006354,g,1.0,0.9484064998105168,,52.07304670009762,52.08811999997124,53.08769110008143,53.07146240002476,,,,,,,,,,,,,,,,,,,sub-187,1,stroop_test,60.10572600740172,
,,,,7.0,7.0,0.0,,,,,blau,red,r,0.0,r,1.0,1.9144872000906616,,,,,,,,,,,,,,0.0,7.0,7.0,4.0,,,,,53.08769110008143,,,,,,,,,,,,,,,,,53.071761399973184,53.43728050007485,54.23676940007135,54.22089050011709,,,,,,,,,,,,,,,,54.22144950018264,54.23676940007135,54.23676940007135,56.15352579997853,r,1.0,1.9144872000906616,,56.15404950012453,56.1691483000759,57.16838980000466,57.152500099968165,,,,,,,,,,,,,,,,,,,sub-187,1,stroop_test,60.10572600740172,
,,,,8.0,8.0,0.0,,,,,blau,blue,b,1.0,b,1.0,0.6022936999797821,,,,,,,,,,,,,,0.0,8.0,8.0,5.0,,,,,57.16838980000466,,,,,,,,,,,,,,,,,57.15280460007489,58.36751200002618,59.16726190014742,59.15123090008274,,,,,,,,,,,,,,,,59.15170100005344,59.16726190014742,59.16726190014742,59.78469540015794,b,1.0,0.6022936999797821,,59.78520900011063,59.80024650017731,60.79962920001708,60.78344130003825,,,,,,,,,,,,,,,,,,,sub-187,1,stroop_test,60.10572600740172,
,,,,9.0,9.0,0.0,,,,,blau,blue,b,1.0,g,0.0,0.793650500010699,,,,,,,,,,,,,,0.0,9.0,9.0,6.0,,,,,60.79962920001708,,,,,,,,,,,,,,,,,60.78373909997754,61.59912360017188,62.398491400061175,62.382671599974856,,,,,,,,,,,,,,,,62.38330400013365,62.398491400061175,62.398491400061175,63.19968269998208,g,0.0,0.793650500010699,,63.20534910005517,63.21482270001434,64.21417260007001,64.1982964000199,,,,,,,,,,,,,,,,,,,sub-187,1,stroop_test,60.10572600740172,
,,,,10.0,10.0,0.0,,,,,rot,red,r,1.0,r,1.0,1.2815958999563009,,,,,,,,,,,,,,0.0,10.0,10.0,0.0,,,,,64.21417260007001,,,,,,,,,,,,,,,,,64.19864240009338,64.31409810017794,65.11343100015074,65.09764890000224,,,,,,,,,,,,,,,,65.10099040018395,65.11343100015074,65.11343100015074,66.39708160003647,r,1.0,1.2815958999563009,,66.40072380006313,66.41268589999527,67.41211870010011,67.39616010012105,,,,,,,,,,,,,,,,,,,sub-187,1,stroop_test,60.10572600740172,
,,,,11.0,11.0,0.0,,,,,gelb,yellow,g,1.0,g,1.0,0.5513110999017954,,,,,,,,,,,,,,0.0,11.0,11.0,11.0,,,,,67.41211870010011,,,,,,,,,,,,,,,,,67.39647250017151,67.76168630016036,68.56153780012392,68.54554389999248,,,,,,,,,,,,,,,,68.54925230005756,68.56153780012392,68.56153780012392,69.12920940015465,g,1.0,0.5513110999017954,,69.12974200001918,69.14433669997379,70.14367540017702,70.12795880017802,,,,,,,,,,,,,,,,,,,sub-187,1,stroop_test,60.10572600740172,
,,,,12.0,0.0,1.0,,,,,rot,blue,b,0.0,b,1.0,1.893879499984905,,,,,,,,,,,,,,1.0,0.0,12.0,2.0,,,,,70.14367540017702,,,,,,,,,,,,,,,,,70.12826120015234,70.24384040012956,71.0433680000715,71.02721239998937,,,,,,,,,,,,,,,,71.03013349999674,71.0433680000715,71.0433680000715,72.94381329999305,b,1.0,1.893879499984905,,72.94454150018282,72.95870189997368,73.95820840005763,73.94220299995504,,,,,,,,,,,,,,,,,,,sub-187,1,stroop_test,60.10572600740172,
,,,,13.0,1.0,1.0,,,,,blau,yellow,g,0.0,g,1.0,0.6898823999799788,,,,,,,,,,,,,,1.0,1.0,13.0,7.0,,,,,73.95820840005763,,,,,,,,,,,,,,,,,73.94241650006734,74.0582026001066,74.85777919995598,74.84174460009672,,,,,,,,,,,,,,,,74.84653750015423,74.85777919995598,74.85777919995598,75.5584784001112,g,1.0,0.6898823999799788,,75.5591521000024,75.57400900009088,76.5732170001138,76.55776830017567,,,,,,,,,,,,,,,,,,,sub-187,1,stroop_test,60.10572600740172,
,,,,14.0,2.0,1.0,,,,,gelb,red,r,0.0,r,1.0,0.8409223000053316,,,,,,,,,,,,,,1.0,2.0,14.0,8.0,,,,,76.5732170001138,,,,,,,,,,,,,,,,,76.55823300010525,76.67326690000482,77.47286360012367,77.45648890011944,,,,,,,,,,,,,,,,77.4595902999863,77.47286360012367,77.47286360012367,78.32311680004932,r,1.0,0.8409223000053316,,78.32363900006749,78.33904870017432,79.33805390005,79.32216390012763,,,,,,,,,,,,,,,,,,,sub-187,1,stroop_test,60.10572600740172,
,,,,15.0,3.0,1.0,,,,,gelb,blue,b,0.0,b,1.0,1.0649088001810014,,,,,,,,,,,,,,1.0,3.0,15.0,9.0,,,,,79.33805390005,,,,,,,,,,,,,,,,,79.32262900006026,79.43807530007325,80.23777300002985,80.2215862001758,,,,,,,,,,,,,,,,80.22208520001732,80.23777300002985,80.23777300002985,81.304734100122,b,1.0,1.0649088001810014,,81.30528600001708,81.32027720008045,82.31971680000424,82.30387650011107,,,,,,,,,,,,,,,,,,,sub-187,1,stroop_test,60.10572600740172,
,,,,16.0,4.0,1.0,,,,,rot,yellow,g,0.0,g,1.0,0.6739667998626828,,,,,,,,,,,,,,1.0,4.0,16.0,3.0,,,,,82.31971680000424,,,,,,,,,,,,,,,,,82.30405440018512,82.41980170016177,83.2192861000076,83.20327010005713,,,,,,,,,,,,,,,,83.20591909997165,83.2192861000076,83.2192861000076,83.90335669997148,g,1.0,0.6739667998626828,,83.90381749998778,83.91864220006391,84.91821080003865,84.90198360010982,,,,,,,,,,,,,,,,,,,sub-187,1,stroop_test,60.10572600740172,
,,,,17.0,5.0,1.0,,,,,rot,red,r,1.0,r,1.0,0.5757140999194235,,,,,,,,,,,,,,1.0,5.0,17.0,0.0,,,,,84.91821080003865,,,,,,,,,,,,,,,,,84.90232630004175,85.0183067000471,85.81745219998993,85.80147469998337,,,,,,,,,,,,,,,,85.8019593001809,85.81745219998993,85.81745219998993,86.4015485001728,r,1.0,0.5757140999194235,,86.40200490015559,86.41756920004264,,87.41662809997797,,,,,,,,,,,,,,,,,,,sub-187,1,stroop_test,60.10572600740172,
,,,,18.0,6.0,1.0,,,,,blau,blue,b,1.0,b,1.0,0.5965603000950068,,,,,,,,,,,,,,1.0,6.0,18.0,6.0,,,,,87.43347020004876,,,,,,,,,,,,,,,,,87.41689530014992,87.51648150011897,88.31604359997436,88.30015150015242,,,,,,,,,,,,,,,,88.30316460016184,88.31604359997436,88.31604359997436,88.91677880007774,b,1.0,0.5965603000950068,,88.91728080017492,88.93251550011337,89.93157010013238,89.91562440013513,,,,,,,,,,,,,,,,,,,sub-187,1,stroop_test,60.10572600740172,
,,,,19.0,7.0,1.0,,,,,blau,blue,b,1.0,b,1.0,0.6740498000290245,,,,,,,,,,,,,,1.0,7.0,19.0,5.0,,,,,89.93157010013238,,,,,,,,,,,,,,,,,89.91591119999066,90.73141790018416,91.53097470011562,91.51455010008068,,,,,,,,,,,,,,,,91.5149648000952,91.53097470011562,91.53097470011562,92.2151055999566,b,1.0,0.6740498000290245,,92.21564670000224,92.23043130012228,93.22966499999166,93.21367099997588,,,,,,,,,,,,,,,,,,,sub-187,1,stroop_test,60.10572600740172,
,,,,20.0,8.0,1.0,,,,,rot,red,r,1.0,r,1.0,0.6636941998731345,,,,,,,,,,,,,,1.0,8.0,20.0,1.0,,,,,93.22966499999166,,,,,,,,,,,,,,,,,93.21398230013438,93.57944750017488,94.37907320004888,94.36307530011982,,,,,,,,,,,,,,,,94.36596870003268,94.37907320004888,94.37907320004888,95.04637890006416,r,1.0,0.6636941998731345,,95.04693070007488,95.06191670009866,96.0613985999953,96.04545350000262,,,,,,,,,,,,,,,,,,,sub-187,1,stroop_test,60.10572600740172,
,,,,21.0,9.0,1.0,,,,,gelb,yellow,g,1.0,g,1.0,0.5710148001089692,,,,,,,,,,,,,,1.0,9.0,21.0,11.0,,,,,96.0613985999953,,,,,,,,,,,,,,,,,96.04576740018092,96.1612572001759,96.96068280003963,96.94495710008778,,,,,,,,,,,,,,,,96.94893980002962,96.96068280003963,96.96068280003963,97.54511109995656,g,1.0,0.5710148001089692,,97.5456420001574,97.56036220001988,98.55991160008124,98.54370920010842,,,,,,,,,,,,,,,,,,,sub-187,1,stroop_test,60.10572600740172,
,,,,22.0,10.0,1.0,,,,,gelb,yellow,g,1.0,g,1.0,0.5430058999918401,,,,,,,,,,,,,,1.0,10.0,22.0,10.0,,,,,98.55991160008124,,,,,,,,,,,,,,,,,98.54403170011938,98.90987810003573,99.70913660014048,99.6929925000295,,,,,,,,,,,,,,,,99.69348250003532,99.70913660014048,99.70913660014048,100.25984570011497,g,1.0,0.5430058999918401,,100.26026800018737,100.27533280011266,101.27461430011316,101.25858850008808,,,,,,,,,,,,,,,,,,,sub-187,1,stroop_test,60.10572600740172,
,,,,23.0,11.0,1.0,,,,,blau,red,r,0.0,r,1.0,1.0321273999288678,,,,,,,,,,,,,,1.0,11.0,23.0,4.0,,,,,101.27461430011316,,,,,,,,,,,,,,,,,101.25891000009142,102.0744025001768,102.87376930005848,102.8578835001681,,,,,,,,,,,,,,,,102.86037040012889,102.87376930005848,102.87376930005848,103.90756650012918,r,1.0,1.0321273999288678,,103.9080038999673,103.92314940015784,104.92262880015188,104.90666700014845,,,,,,,,,,,,,,,,,,,sub-187,1,stroop_test,60.10572600740172,
,,,,,,,,,,,,,,,,,,,,,,,,,,,,,,,,,,,,,,,,,,,,,,,,,,,,,,,,,,,,,,,,,,,,,,,,,,,,,,,,,,,,,,,104.90677220001815,104.92262880015188,104.92262880015188,106.43971640011296,space,1.5087164000142366,,,,,,,,,,,,,sub-187,1,stroop_test,60.10572600740172,
,,,,0.0,0.0,0.0,,,,,,,,,,,,,blau,yellow,g,0.0,g,1.0,0.6163852999452502,,,,,,,,,,0.0,0.0,0.0,7.0,106.4548424000386,,,,,,,,,,,,,,,,,106.4504198001232,107.2543795001693,108.05402630008756,108.03801690018736,,,,,,,,,,,,,,,,,,,,,,,,,,,,,,,,,,,108.04070320003666,108.05402630008756,108.05402630008756,108.6716210001614,g,1.0,0.6163852999452502,,,,,sub-187,1,stroop_test,60.10572600740172,
,,,,1.0,1.0,0.0,,,,,,,,,,,,,blau,blue,b,1.0,b,1.0,0.5947910998947918,,,,,,,,,,0.0,1.0,1.0,6.0,108.68690400011836,,,,,,,,,,,,,,,,,108.67193930014037,109.03677320014684,109.83631510008126,109.8201019000262,,,,,,,,,,,,,,,,,,,,,,,,,,,,,,,,,,,109.820514800027,109.83631510008126,109.83631510008126,110.43710270011798,b,1.0,0.5947910998947918,,,,,sub-187,1,stroop_test,60.10572600740172,
,,,,2.0,2.0,0.0,,,,,,,,,,,,,blau,red,r,0.0,r,1.0,0.9806868000887334,,,,,,,,,,0.0,2.0,2.0,4.0,110.45258310018107,,,,,,,,,,,,,,,,,110.4373991000466,110.8022886000108,111.6021069001872,111.58604179997928,,,,,,,,,,,,,,,,,,,,,,,,,,,,,,,,,,,111.58642060006969,111.6021069001872,111.6021069001872,112.58562470017932,r,1.0,0.9806868000887334,,,,,sub-187,1,stroop_test,60.10572600740172,
,,,,3.0,3.0,0.0,,,,,,,,,,,,,gelb,red,r,0.0,r,1.0,0.6486102999188006,,,,,,,,,,0.0,3.0,3.0,8.0,112.60129570006391,,,,,,,,,,,,,,,,,112.5859691000078,112.95084740011951,113.75044620013796,113.73437550012022,,,,,,,,,,,,,,,,,,,,,,,,,,,,,,,,,,,113.73763370001689,113.75044620013796,113.75044620013796,114.4010395000223,r,1.0,0.6486102999188006,,,,,sub-187,1,stroop_test,60.10572600740172,
,,,,4.0,4.0,0.0,,,,,,,,,,,,,gelb,yellow,g,1.0,g,1.0,0.4797927001491189,,,,,,,,,,0.0,4.0,4.0,10.0,114.4168035001494,,,,,,,,,,,,,,,,,114.4013896000106,115.61614289996214,116.41550390003248,116.39947149995714,,,,,,,,,,,,,,,,,,,,,,,,,,,,,,,,,,,116.39999320008792,116.41550390003248,116.41550390003248,116.89981520012952,g,1.0,0.4797927001491189,,,,,sub-187,1,stroop_test,60.10572600740172,
,,,,5.0,5.0,0.0,,,,,,,,,,,,,rot,blue,b,0.0,b,1.0,0.5502367001026869,,,,,,,,,,0.0,5.0,5.0,2.0,116.9152542001102,,,,,,,,,,,,,,,,,116.90019830013624,117.7147294001188,118.51444070017897,118.4980521001853,,,,,,,,,,,,,,,,,,,,,,,,,,,,,,,,,,,118.50102109997532,118.51444070017897,118.51444070017897,119.08176099997944,b,1.0,0.5502367001026869,,,,,sub-187,1,stroop_test,60.10572600740172,
,,,,6.0,6.0,0.0,,,,,,,,,,,,,gelb,yellow,g,1.0,g,1.0,0.6056359000504017,,,,,,,,,,0.0,6.0,6.0,11.0,119.0973018000368,,,,,,,,,,,,,,,,,119.08214710000902,119.89665690017864,120.6961906000506,120.68022039998324,,,,,,,,,,,,,,,,,,,,,,,,,,,,,,,,,,,120.68302600015886,120.6961906000506,120.6961906000506,121.31375440000556,g,1.0,0.6056359000504017,,,,,sub-187,1,stroop_test,60.10572600740172,
,,,,7.0,7.0,0.0,,,,,,,,,,,,,blau,blue,b,1.0,b,1.0,0.6749591999687254,,,,,,,,,,0.0,7.0,7.0,5.0,121.32905940013006,,,,,,,,,,,,,,,,,121.31409420003185,122.52859100000931,123.327886500163,123.31185390008612,,,,,,,,,,,,,,,,,,,,,,,,,,,,,,,,,,,123.31501110014506,123.327886500163,123.327886500163,124.01220110012218,b,1.0,0.6749591999687254,,,,,sub-187,1,stroop_test,60.10572600740172,
,,,,8.0,8.0,0.0,,,,,,,,,,,,,rot,red,r,1.0,r,1.0,0.6490770000964403,,,,,,,,,,0.0,8.0,8.0,0.0,124.0274920000229,,,,,,,,,,,,,,,,,124.01257060002536,124.8268681000918,125.62647300004028,125.6106061001774,,,,,,,,,,,,,,,,,,,,,,,,,,,,,,,,,,,125.614172300091,125.62647300004028,125.62647300004028,126.27761490014382,r,1.0,0.6490770000964403,,,,,sub-187,1,stroop_test,60.10572600740172,
,,,,9.0,9.0,0.0,,,,,,,,,,,,,gelb,blue,b,0.0,b,1.0,0.9366128998808564,,,,,,,,,,0.0,9.0,9.0,9.0,126.29265820002183,,,,,,,,,,,,,,,,,126.27804260002448,126.64251830009744,127.44236810016446,127.4262951000128,,,,,,,,,,,,,,,,,,,,,,,,,,,,,,,,,,,127.42949889996088,127.44236810016446,127.44236810016446,128.3924730999861,b,1.0,0.9366128998808564,,,,,sub-187,1,stroop_test,60.10572600740172,
,,,,10.0,10.0,0.0,,,,,,,,,,,,,rot,yellow,g,0.0,g,1.0,0.8636364000849426,,,,,,,,,,0.0,10.0,10.0,3.0,128.40826840000227,,,,,,,,,,,,,,,,,128.39282390009612,129.2078182999976,130.00735960016027,129.9911776999943,,,,,,,,,,,,,,,,,,,,,,,,,,,,,,,,,,,129.99377489998005,130.00735960016027,130.00735960016027,130.8747056000866,g,1.0,0.8636364000849426,,,,,sub-187,1,stroop_test,60.10572600740172,
,,,,11.0,11.0,0.0,,,,,,,,,,,,,rot,red,r,1.0,r,1.0,0.6529941998887807,,,,,,,,,,0.0,11.0,11.0,1.0,130.8901549000293,,,,,,,,,,,,,,,,,130.87503130012192,131.23998529999517,132.0395176000893,132.0235405000858,,,,,,,,,,,,,,,,,,,,,,,,,,,,,,,,,,,132.02397340000607,132.0395176000893,132.0395176000893,132.7067972000223,r,1.0,0.6529941998887807,,,,,sub-187,1,stroop_test,60.10572600740172,
,,,,12.0,0.0,1.0,,,,,,,,,,,,,blau,blue,b,1.0,b,1.0,0.4419542998075485,,,,,,,,,,1.0,0.0,12.0,6.0,132.72236800007522,,,,,,,,,,,,,,,,,132.70712020015344,133.92159110005014,134.72091910010204,134.70481080003083,,,,,,,,,,,,,,,,,,,,,,,,,,,,,,,,,,,134.7078287999611,134.72091910010204,134.72091910010204,135.17216990003362,b,1.0,0.4419542998075485,,,,,sub-187,1,stroop_test,60.10572600740172,
,,,,13.0,1.0,1.0,,,,,,,,,,,,,rot,blue,b,0.0,r,0.0,0.94725209986791,,,,,,,,,,1.0,1.0,13.0,2.0,135.18741080001928,,,,,,,,,,,,,,,,,135.17252050014213,135.2877402000595,136.10365290008485,136.087320700055,,,,,,,,,,,,,,,,,,,,,,,,,,,,,,,,,,,136.09036500006914,136.10365290008485,136.10365290008485,137.05413369997405,r,0.0,0.94725209986791,,,,,sub-187,1,stroop_test,60.10572600740172,
,,,,14.0,2.0,1.0,,,,,,,,,,,,,gelb,yellow,g,1.0,g,1.0,0.6904440999496728,,,,,,,,,,1.0,2.0,14.0,10.0,137.06949530006386,,,,,,,,,,,,,,,,,137.05445370008238,137.4193597000558,138.21884350012988,138.20297019998543,,,,,,,,,,,,,,,,,,,,,,,,,,,,,,,,,,,138.2065516000148,138.21884350012988,138.21884350012988,138.9197162000928,g,1.0,0.6904440999496728,,,,,sub-187,1,stroop_test,60.10572600740172,
,,,,15.0,3.0,1.0,,,,,,,,,,,,,blau,yellow,g,0.0,g,1.0,0.859982900088653,,,,,,,,,,1.0,3.0,15.0,7.0,138.93520159996115,,,,,,,,,,,,,,,,,138.92008380009793,139.7347842999734,140.5342047000304,140.51808960014023,,,,,,,,,,,,,,,,,,,,,,,,,,,,,,,,,,,140.5207483000122,140.5342047000304,140.5342047000304,141.4016030000057,g,1.0,0.859982900088653,,,,,sub-187,1,stroop_test,60.10572600740172,
,,,,16.0,4.0,1.0,,,,,,,,,,,,,rot,yellow,g,0.0,g,1.0,0.9833015000913292,,,,,,,,,,1.0,4.0,16.0,3.0,141.4168306000065,,,,,,,,,,,,,,,,,141.40192870004103,142.21656760014594,143.01579120010138,142.99969410011545,,,,,,,,,,,,,,,,,,,,,,,,,,,,,,,,,,,143.00231380015612,143.01579120010138,143.01579120010138,144.0005563001614,g,1.0,0.9833015000913292,,,,,sub-187,1,stroop_test,60.10572600740172,
,,,,17.0,5.0,1.0,,,,,,,,,,,,,blau,blue,b,1.0,b,1.0,0.7448382000438869,,,,,,,,,,1.0,5.0,17.0,5.0,144.01529320003465,,,,,,,,,,,,,,,,,144.0008952000644,144.81488050008193,145.61434570001438,145.59815600002185,,,,,,,,,,,,,,,,,,,,,,,,,,,,,,,,,,,145.60110710002482,145.61434570001438,145.61434570001438,146.36510740011,b,1.0,0.7448382000438869,,,,,sub-187,1,stroop_test,60.10572600740172,
,,,,18.0,6.0,1.0,,,,,,,,,,,,,rot,red,r,1.0,r,1.0,0.8968477000016719,,,,,,,,,,1.0,6.0,18.0,1.0,146.38040340016596,,,,,,,,,,,,,,,,,146.36542110005394,146.73018090007827,147.53013790003024,147.51389460009523,,,,,,,,,,,,,,,,,,,,,,,,,,,,,,,,,,,147.5166293999646,147.53013790003024,147.53013790003024,148.4305654000491,r,1.0,0.8968477000016719,,,,,sub-187,1,stroop_test,60.10572600740172,
,,,,19.0,7.0,1.0,,,,,,,,,,,,,rot,red,r,1.0,r,1.0,0.7148196999914944,,,,,,,,,,1.0,7.0,19.0,0.0,148.44583109999076,,,,,,,,,,,,,,,,,148.43090090015903,149.24538010009564,150.04484910005704,150.02912000007927,,,,,,,,,,,,,,,,,,,,,,,,,,,,,,,,,,,150.0295824999921,150.04484910005704,150.04484910005704,150.76208550017327,r,1.0,0.7148196999914944,,,,,sub-187,1,stroop_test,60.10572600740172,
,,,,20.0,8.0,1.0,,,,,,,,,,,,,gelb,blue,b,0.0,b,1.0,1.0287365999538451,,,,,,,,,,1.0,8.0,20.0,9.0,150.77784790005535,,,,,,,,,,,,,,,,,150.76238840003498,151.12762459996156,151.92736109998077,151.9110942000989,,,,,,,,,,,,,,,,,,,,,,,,,,,,,,,,,,,151.9143479000777,151.92736109998077,151.92736109998077,152.96113930013962,b,1.0,1.0287365999538451,,,,,sub-187,1,stroop_test,60.10572600740172,
,,,,21.0,9.0,1.0,,,,,,,,,,,,,blau,red,r,0.0,r,1.0,0.94193709990941,,,,,,,,,,1.0,9.0,21.0,4.0,152.97659390000626,,,,,,,,,,,,,,,,,152.9614920001477,153.07634970010258,153.87600710010156,153.86011100001633,,,,,,,,,,,,,,,,,,,,,,,,,,,,,,,,,,,153.86351890000515,153.87600710010156,153.87600710010156,154.82658220012672,r,1.0,0.94193709990941,,,,,sub-187,1,stroop_test,60.10572600740172,
,,,,22.0,10.0,1.0,,,,,,,,,,,,,gelb,yellow,g,1.0,g,1.0,0.6909054999705404,,,,,,,,,,1.0,10.0,22.0,11.0,154.8420653999783,,,,,,,,,,,,,,,,,154.8269256001804,155.641515100142,156.44097430002876,156.42501990008168,,,,,,,,,,,,,,,,,,,,,,,,,,,,,,,,,,,156.42796230013482,156.44097430002876,156.44097430002876,157.1415448000189,g,1.0,0.6909054999705404,,,,,sub-187,1,stroop_test,60.10572600740172,
,,,,23.0,11.0,1.0,,,,,,,,,,,,,gelb,red,r,0.0,r,1.0,0.9634420999791472,,,,,,,,,,1.0,11.0,23.0,8.0,157.15737859997898,,,,,,,,,,,,,,,,,157.14187370007858,157.2571440001484,158.0568844000809,158.04093320015818,,,,,,,,,,,,,,,,,,,,,,,,,,,,,,,,,,,158.04142090003006,158.0568844000809,158.0568844000809,159.02408240013756,r,1.0,0.9634420999791472,,,,,sub-187,1,stroop_test,60.10572600740172,
,,,,24.0,0.0,2.0,,,,,,,,,,,,,blau,blue,b,1.0,b,1.0,0.7581344000063837,,,,,,,,,,2.0,0.0,24.0,6.0,159.03936140006408,,,,,,,,,,,,,,,,,159.02443670015782,160.23886410007253,161.03821300016716,161.0221973999869,,,,,,,,,,,,,,,,,,,,,,,,,,,,,,,,,,,161.02490240009502,161.03821300016716,161.03821300016716,161.80559270014055,b,1.0,0.7581344000063837,,,,,sub-187,1,stroop_test,60.10572600740172,
,,,,25.0,1.0,2.0,,,,,,,,,,,,,rot,yellow,g,0.0,g,1.0,0.9234313000924884,,,,,,,,,,2.0,1.0,25.0,3.0,161.8210688000545,,,,,,,,,,,,,,,,,161.80592950014398,161.92096840008162,162.7204871000722,162.70441900007427,,,,,,,,,,,,,,,,,,,,,,,,,,,,,,,,,,,162.7071079001762,162.7204871000722,162.7204871000722,163.65425380016677,g,1.0,0.9234313000924884,,,,,sub-187,1,stroop_test,60.10572600740172,
,,,,26.0,2.0,2.0,,,,,,,,,,,,,gelb,blue,b,0.0,b,1.0,0.6137916999869049,,,,,,,,,,2.0,2.0,26.0,9.0,163.6701007001102,,,,,,,,,,,,,,,,,163.65459370007738,164.4693860001862,165.26916370005347,165.25281660002656,,,,,,,,,,,,,,,,,,,,,,,,,,,,,,,,,,,165.2558902001474,165.26916370005347,165.26916370005347,165.88665610016324,b,1.0,0.6137916999869049,,,,,sub-187,1,stroop_test,60.10572600740172,
,,,,27.0,3.0,2.0,,,,,,,,,,,,,gelb,yellow,g,1.0,g,1.0,0.6170133999548852,,,,,,,,,,2.0,3.0,27.0,11.0,165.90181170008145,,,,,,,,,,,,,,,,,165.8869807999581,166.70154849998653,167.50086280005053,167.48480820003897,,,,,,,,,,,,,,,,,,,,,,,,,,,,,,,,,,,167.4853261001408,167.50086280005053,167.50086280005053,168.13516220008023,g,1.0,0.6170133999548852,,,,,sub-187,1,stroop_test,60.10572600740172,
,,,,28.0,4.0,2.0,,,,,,,,,,,,,blau,blue,b,1.0,b,1.0,0.6155530998948961,,,,,,,,,,2.0,4.0,28.0,5.0,168.15056590014137,,,,,,,,,,,,,,,,,168.1355308999773,168.9499533001799,169.74952380009927,169.7335246000439,,,,,,,,,,,,,,,,,,,,,,,,,,,,,,,,,,,169.73654330009597,169.74952380009927,169.74952380009927,170.36740560014732,b,1.0,0.6155530998948961,,,,,sub-187,1,stroop_test,60.10572600740172,
,,,,29.0,5.0,2.0,,,,,,,,,,,,,gelb,red,r,0.0,r,1.0,1.0023326000664383,,,,,,,,,,2.0,5.0,29.0,8.0,170.38239630009048,,,,,,,,,,,,,,,,,170.36777480016465,171.18183930008672,171.98174199997447,171.96547619998455,,,,,,,,,,,,,,,,,,,,,,,,,,,,,,,,,,,171.9695953000337,171.98174199997447,171.98174199997447,172.99853650014848,r,1.0,1.0023326000664383,,,,,sub-187,1,stroop_test,60.10572600740172,
,,,,30.0,6.0,2.0,,,,,,,,,,,,,blau,yellow,g,0.0,g,1.0,0.8964852001518011,,,,,,,,,,2.0,6.0,30.0,7.0,173.01431350014172,,,,,,,,,,,,,,,,,172.99874139996246,173.8138027000241,174.61318760016002,174.5973644000478,,,,,,,,,,,,,,,,,,,,,,,,,,,,,,,,,,,174.60066410014406,174.61318760016002,174.61318760016002,175.5139030001592,g,1.0,0.8964852001518011,,,,,sub-187,1,stroop_test,60.10572600740172,
,,,,31.0,7.0,2.0,,,,,,,,,,,,,rot,red,r,1.0,r,1.0,0.7188628998119384,,,,,,,,,,2.0,7.0,31.0,0.0,175.52944620000198,,,,,,,,,,,,,,,,,175.51426189998165,176.72869040002115,177.52831379999407,177.5121555000078,,,,,,,,,,,,,,,,,,,,,,,,,,,,,,,,,,,177.51488360017538,177.52831379999407,177.52831379999407,178.26242270017974,r,1.0,0.7188628998119384,,,,,sub-187,1,stroop_test,60.10572600740172,
,,,,32.0,8.0,2.0,,,,,,,,,,,,,rot,blue,b,0.0,b,1.0,0.6943894999567419,,,,,,,,,,2.0,8.0,32.0,2.0,178.2776395000983,,,,,,,,,,,,,,,,,178.26276180008426,178.6273280000314,179.4271383001469,179.4110044001136,,,,,,,,,,,,,,,,,,,,,,,,,,,,,,,,,,,179.4115033999551,179.4271383001469,179.4271383001469,180.1278592001181,b,1.0,0.6943894999567419,,,,,sub-187,1,stroop_test,60.10572600740172,
,,,,33.0,9.0,2.0,,,,,,,,,,,,,blau,red,r,0.0,r,1.0,1.4113036000635475,,,,,,,,,,2.0,9.0,33.0,4.0,180.14314010017551,,,,,,,,,,,,,,,,,180.1282218999695,180.4930086999666,181.29245900013484,181.2765645000618,,,,,,,,,,,,,,,,,,,,,,,,,,,,,,,,,,,181.2799009999726,181.29245900013484,181.29245900013484,182.7093334000092,r,1.0,1.4113036000635475,,,,,sub-187,1,stroop_test,60.10572600740172,
,,,,34.0,10.0,2.0,,,,,,,,,,,,,gelb,yellow,g,1.0,g,1.0,0.4653551001101732,,,,,,,,,,2.0,10.0,34.0,10.0,182.7248376000207,,,,,,,,,,,,,,,,,182.709682200104,183.0749026001431,183.87419630005024,183.85832450003363,,,,,,,,,,,,,,,,,,,,,,,,,,,,,,,,,,,183.86180890002288,183.87419630005024,183.87419630005024,184.34175410005264,g,1.0,0.4653551001101732,,,,,sub-187,1,stroop_test,60.10572600740172,
,,,,35.0,11.0,2.0,,,,,,,,,,,,,rot,red,r,1.0,r,1.0,0.6819088000338525,,,,,,,,,,2.0,11.0,35.0,1.0,184.35739809996448,,,,,,,,,,,,,,,,,184.34210640005767,184.70728290011172,185.50652220007032,185.4906349000521,,,,,,,,,,,,,,,,,,,,,,,,,,,,,,,,,,,185.49389010015875,185.50652220007032,185.50652220007032,186.19074500002895,r,1.0,0.6819088000338525,,,,,sub-187,1,stroop_test,60.10572600740172,
,,,,36.0,0.0,3.0,,,,,,,,,,,,,gelb,yellow,g,1.0,g,1.0,0.6639029998332262,,,,,,,,,,3.0,0.0,36.0,11.0,186.20630019996315,,,,,,,,,,,,,,,,,186.19112750003117,187.00565330008976,187.80539570003748,187.7893674999941,,,,,,,,,,,,,,,,,,,,,,,,,,,,,,,,,,,187.79311139998023,187.80539570003748,187.80539570003748,188.4731448001694,g,1.0,0.6639029998332262,,,,,sub-187,1,stroop_test,60.10572600740172,
,,,,37.0,1.0,3.0,,,,,,,,,,,,,rot,yellow,g,0.0,g,1.0,0.9915241000708191,,,,,,,,,,3.0,1.0,37.0,3.0,188.4879926999565,,,,,,,,,,,,,,,,,188.47354200016707,188.83779860008508,189.6375979001168,189.62152849999256,,,,,,,,,,,,,,,,,,,,,,,,,,,,,,,,,,,189.62519549997523,189.6375979001168,189.6375979001168,190.63808179995976,g,1.0,0.9915241000708191,,,,,sub-187,1,stroop_test,60.10572600740172,
,,,,38.0,2.0,3.0,,,,,,,,,,,,,blau,blue,b,1.0,b,1.0,0.6833838999737054,,,,,,,,,,3.0,2.0,38.0,5.0,190.65337559999895,,,,,,,,,,,,,,,,,190.6384793999605,191.4530381001532,192.2524912999943,192.2366319000721,,,,,,,,,,,,,,,,,,,,,,,,,,,,,,,,,,,192.240065400023,192.2524912999943,192.2524912999943,192.9368841999676,b,1.0,0.6833838999737054,,,,,sub-187,1,stroop_test,60.10572600740172,
,,,,39.0,3.0,3.0,,,,,,,,,,,,,rot,red,r,1.0,r,1.0,0.9707635999657214,,,,,,,,,,3.0,3.0,39.0,1.0,192.95220310008156,,,,,,,,,,,,,,,,,192.9371291999705,193.75158670009117,194.55122290016152,194.53500770009123,,,,,,,,,,,,,,,,,,,,,,,,,,,,,,,,,,,194.5379652001429,194.55122290016152,194.55122290016152,195.53509070002477,r,1.0,0.9707635999657214,,,,,sub-187,1,stroop_test,60.10572600740172,
,,,,40.0,4.0,3.0,,,,,,,,,,,,,gelb,yellow,g,1.0,g,1.0,0.6050138000864536,,,,,,,,,,3.0,4.0,40.0,10.0,195.55044460017237,,,,,,,,,,,,,,,,,195.5354369000997,195.6504118000157,196.4501173000317,196.43386070011184,,,,,,,,,,,,,,,,,,,,,,,,,,,,,,,,,,,196.4373683000449,196.4501173000317,196.4501173000317,197.0672117001377,g,1.0,0.6050138000864536,,,,,sub-187,1,stroop_test,60.10572600740172,
,,,,41.0,5.0,3.0,,,,,,,,,,,,,blau,yellow,g,0.0,g,1.0,1.028333600144833,,,,,,,,,,3.0,5.0,41.0,7.0,197.0827337000519,,,,,,,,,,,,,,,,,197.0675616001245,197.4326471001841,198.23229550011456,198.2161997000221,,,,,,,,,,,,,,,,,,,,,,,,,,,,,,,,,,,198.21931069996208,198.23229550011456,198.23229550011456,199.26602930016816,g,1.0,1.028333600144833,,,,,sub-187,1,stroop_test,60.10572600740172,
,,,,42.0,6.0,3.0,,,,,,,,,,,,,gelb,blue,b,0.0,b,1.0,0.8788948999717832,,,,,,,,,,3.0,6.0,42.0,9.0,199.28162200003865,,,,,,,,,,,,,,,,,199.26639830018397,200.4807235000189,201.2804299001582,201.2642451999709,,,,,,,,,,,,,,,,,,,,,,,,,,,,,,,,,,,201.2680071000941,201.2804299001582,201.2804299001582,202.1644735001028,b,1.0,0.8788948999717832,,,,,sub-187,1,stroop_test,60.10572600740172,
,,,,43.0,7.0,3.0,,,,,,,,,,,,,blau,red,r,0.0,r,1.0,1.3610000000335276,,,,,,,,,,3.0,7.0,43.0,4.0,202.1796183001716,,,,,,,,,,,,,,,,,202.16483699996024,202.2797222000081,203.0793387000449,203.06306570000012,,,,,,,,,,,,,,,,,,,,,,,,,,,,,,,,,,,203.0661109001376,203.0793387000449,203.0793387000449,204.4463953000959,r,1.0,1.3610000000335276,,,,,sub-187,1,stroop_test,60.10572600740172,
,,,,44.0,8.0,3.0,,,,,,,,,,,,,blau,blue,b,1.0,b,1.0,0.5956934001296759,,,,,,,,,,3.0,8.0,44.0,6.0,204.46144190011543,,,,,,,,,,,,,,,,,204.44675760017708,205.6609837000724,206.4603862001095,206.44443579996005,,,,,,,,,,,,,,,,,,,,,,,,,,,,,,,,,,,206.4449234001804,206.4603862001095,206.4603862001095,207.06140630017035,b,1.0,0.5956934001296759,,,,,sub-187,1,stroop_test,60.10572600740172,
,,,,45.0,9.0,3.0,,,,,,,,,,,,,rot,red,r,1.0,r,1.0,0.6459125999826938,,,,,,,,,,3.0,9.0,45.0,0.0,207.07681880006567,,,,,,,,,,,,,,,,,207.0617788000964,207.87634680001065,208.6758749000728,208.65968760009852,,,,,,,,,,,,,,,,,,,,,,,,,,,,,,,,,,,208.66338509996424,208.6758749000728,208.6758749000728,209.3265727001708,r,1.0,0.6459125999826938,,,,,sub-187,1,stroop_test,60.10572600740172,
,,,,46.0,10.0,3.0,,,,,,,,,,,,,rot,blue,b,0.0,b,1.0,0.7837367998436093,,,,,,,,,,3.0,10.0,46.0,2.0,209.3421514001675,,,,,,,,,,,,,,,,,209.3269520001486,210.5412330001127,211.34076360007748,211.3249459001236,,,,,,,,,,,,,,,,,,,,,,,,,,,,,,,,,,,211.3254456999712,211.34076360007748,211.34076360007748,212.1415023000445,b,1.0,0.7837367998436093,,,,,sub-187,1,stroop_test,60.10572600740172,
,,,,47.0,11.0,3.0,,,,,,,,,,,,,gelb,red,r,0.0,r,1.0,0.836828799918294,,,,,,,,,,3.0,11.0,47.0,8.0,212.15702050016264,,,,,,,,,,,,,,,,,212.1418724001851,212.95654659997672,213.7559567000717,213.74014420015737,,,,,,,,,,,,,,,,,,,,,,,,,,,,,,,,,,,213.7436334001832,213.7559567000717,213.7559567000717,214.60678200004625,r,1.0,0.836828799918294,,,,,sub-187,1,stroop_test,60.10572600740172,
,,,,48.0,0.0,4.0,,,,,,,,,,,,,blau,blue,b,1.0,b,1.0,0.9597823000513016,,,,,,,,,,4.0,0.0,48.0,5.0,214.6220737001859,,,,,,,,,,,,,,,,,214.6071459001396,215.821285400074,216.6208065999672,216.6049133001361,,,,,,,,,,,,,,,,,,,,,,,,,,,,,,,,,,,216.60822030017152,216.6208065999672,216.6208065999672,217.5883639000822,b,1.0,0.9597823000513016,,,,,sub-187,1,stroop_test,60.10572600740172,
,,,,49.0,1.0,4.0,,,,,,,,,,,,,rot,red,r,1.0,r,1.0,0.9342099002096802,,,,,,,,,,4.0,1.0,49.0,1.0,217.60352620016783,,,,,,,,,,,,,,,,,217.5887639001012,217.953325800132,218.7530301001389,218.73732850002125,,,,,,,,,,,,,,,,,,,,,,,,,,,,,,,,,,,218.74137430009432,218.7530301001389,218.7530301001389,219.70338600012477,r,1.0,0.9342099002096802,,,,,sub-187,1,stroop_test,60.10572600740172,
,,,,50.0,2.0,4.0,,,,,,,,,,,,,gelb,red,r,0.0,r,1.0,0.8563721999526024,,,,,,,,,,4.0,2.0,50.0,8.0,219.7188784000464,,,,,,,,,,,,,,,,,219.7037452000659,219.8189103000332,220.6183736000676,220.6024963001255,,,,,,,,,,,,,,,,,,,,,,,,,,,,,,,,,,,220.60544449999,220.6183736000676,220.6183736000676,221.48591740010303,r,1.0,0.8563721999526024,,,,,sub-187,1,stroop_test,60.10572600740172,
,,,,51.0,3.0,4.0,,,,,,,,,,,,,gelb,blue,b,0.0,b,1.0,0.5790519998408854,,,,,,,,,,4.0,3.0,51.0,9.0,221.50130910007283,,,,,,,,,,,,,,,,,221.48623020015657,222.30079540004957,223.1004646001384,223.0845101999585,,,,,,,,,,,,,,,,,,,,,,,,,,,,,,,,,,,223.0850647999905,223.1004646001384,223.1004646001384,223.68477430008352,b,1.0,0.5790519998408854,,,,,sub-187,1,stroop_test,60.10572600740172,
,,,,52.0,4.0,4.0,,,,,,,,,,,,,rot,blue,b,0.0,b,1.0,1.0308901998214424,,,,,,,,,,4.0,4.0,52.0,2.0,223.69996250001716,,,,,,,,,,,,,,,,,223.68516850005835,224.04959179996516,224.8492587001529,224.83333960012533,,,,,,,,,,,,,,,,,,,,,,,,,,,,,,,,,,,224.8366121000145,224.8492587001529,224.8492587001529,225.88294819998555,b,1.0,1.0308901998214424,,,,,sub-187,1,stroop_test,60.10572600740172,
,,,,53.0,5.0,4.0,,,,,,,,,,,,,rot,yellow,g,0.0,g,1.0,0.4798979999031871,,,,,,,,,,4.0,5.0,53.0,3.0,225.8984552000184,,,,,,,,,,,,,,,,,225.88326640008017,227.09774690005,227.8972577999812,227.8813070000615,,,,,,,,,,,,,,,,,,,,,,,,,,,,,,,,,,,227.8818014001008,227.8972577999812,227.8972577999812,228.38164150016385,g,1.0,0.4798979999031871,,,,,sub-187,1,stroop_test,60.10572600740172,
,,,,54.0,6.0,4.0,,,,,,,,,,,,,gelb,yellow,g,1.0,g,1.0,0.4117395000066608,,,,,,,,,,4.0,6.0,54.0,11.0,228.3969348999672,,,,,,,,,,,,,,,,,228.38200570014305,229.1965710001532,229.99600460007787,229.98016869998537,,,,,,,,,,,,,,,,,,,,,,,,,,,,,,,,,,,229.98454770003443,229.99600460007787,229.99600460007787,230.4138377001509,g,1.0,0.4117395000066608,,,,,sub-187,1,stroop_test,60.10572600740172,
,,,,55.0,7.0,4.0,,,,,,,,,,,,,gelb,yellow,g,1.0,g,1.0,0.5148557000793517,,,,,,,,,,4.0,7.0,55.0,10.0,230.42931430018507,,,,,,,,,,,,,,,,,230.4142393001821,230.77886600000784,231.57859440008176,231.56249060016123,,,,,,,,,,,,,,,,,,,,,,,,,,,,,,,,,,,231.5630493001081,231.57859440008176,231.57859440008176,232.09629090013917,g,1.0,0.5148557000793517,,,,,sub-187,1,stroop_test,60.10572600740172,
,,,,56.0,8.0,4.0,,,,,,,,,,,,,blau,yellow,g,0.0,g,1.0,0.9511468999553472,,,,,,,,,,4.0,8.0,56.0,7.0,232.11153580015525,,,,,,,,,,,,,,,,,232.096689700149,232.21129860007204,233.01083669997752,232.99497340014204,,,,,,,,,,,,,,,,,,,,,,,,,,,,,,,,,,,232.99822790012692,233.01083669997752,233.01083669997752,233.9782792001497,g,1.0,0.9511468999553472,,,,,sub-187,1,stroop_test,60.10572600740172,
,,,,57.0,9.0,4.0,,,,,,,,,,,,,blau,blue,b,1.0,b,1.0,0.673935400089249,,,,,,,,,,4.0,9.0,57.0,6.0,233.99349620006976,,,,,,,,,,,,,,,,,233.9786800001748,234.0934944001492,234.89300510007888,234.87716690008529,,,,,,,,,,,,,,,,,,,,,,,,,,,,,,,,,,,234.87769970018417,234.89300510007888,234.89300510007888,235.5773497000337,b,1.0,0.673935400089249,,,,,sub-187,1,stroop_test,60.10572600740172,
,,,,58.0,10.0,4.0,,,,,,,,,,,,,blau,red,r,0.0,r,1.0,0.7918193999212235,,,,,,,,,,4.0,10.0,58.0,4.0,235.59272069996223,,,,,,,,,,,,,,,,,235.57772810012105,236.79180380003527,237.5912983999588,237.57551450002936,,,,,,,,,,,,,,,,,,,,,,,,,,,,,,,,,,,237.5760627000127,237.5912983999588,237.5912983999588,238.39207220007663,r,1.0,0.7918193999212235,,,,,sub-187,1,stroop_test,60.10572600740172,
,,,,59.0,11.0,4.0,,,,,,,,,,,,,rot,red,r,1.0,r,1.0,0.4206236000172794,,,,,,,,,,4.0,11.0,59.0,0.0,238.40751709998585,,,,,,,,,,,,,,,,,238.39233239996247,238.75732680014332,239.55706500005908,239.5410068000201,,,,,,,,,,,,,,,,,,,,,,,,,,,,,,,,,,,239.5438588000834,239.55706500005908,239.55706500005908,239.9910234999843,r,1.0,0.4206236000172794,,,,,sub-187,1,stroop_test,60.10572600740172,
,,,,60.0,0.0,5.0,,,,,,,,,,,,,gelb,blue,b,0.0,b,1.0,0.6320826001465321,,,,,,,,,,5.0,0.0,60.0,9.0,240.0067229999695,,,,,,,,,,,,,,,,,239.99138070014305,241.20603860006668,242.00532010011372,241.98936980008148,,,,,,,,,,,,,,,,,,,,,,,,,,,,,,,,,,,241.99306550016627,242.00532010011372,242.00532010011372,242.63949339999817,b,1.0,0.6320826001465321,,,,,sub-187,1,stroop_test,60.10572600740172,
,,,,61.0,1.0,5.0,,,,,,,,,,,,,rot,red,r,1.0,r,1.0,0.6616503000259399,,,,,,,,,,5.0,1.0,61.0,1.0,242.65483660018072,,,,,,,,,,,,,,,,,242.6398634000216,243.45438570016995,244.2540429001674,244.2381965999957,,,,,,,,,,,,,,,,,,,,,,,,,,,,,,,,,,,244.2411824001465,244.2540429001674,244.2540429001674,244.9218364001717,r,1.0,0.6616503000259399,,,,,sub-187,1,stroop_test,60.10572600740172,
,,,,62.0,2.0,5.0,,,,,,,,,,,,,blau,yellow,g,0.0,g,1.0,0.805220999987796,,,,,,,,,,5.0,2.0,62.0,7.0,244.9370165001601,,,,,,,,,,,,,,,,,244.9221958999988,245.73660230007957,246.5359555000905,246.52005610009653,,,,,,,,,,,,,,,,,,,,,,,,,,,,,,,,,,,246.52242010016928,246.5359555000905,246.5359555000905,247.35370000009425,g,1.0,0.805220999987796,,,,,sub-187,1,stroop_test,60.10572600740172,
,,,,63.0,3.0,5.0,,,,,,,,,,,,,blau,red,r,0.0,r,1.0,1.0131252000574025,,,,,,,,,,5.0,3.0,63.0,4.0,247.36872010002844,,,,,,,,,,,,,,,,,247.35411830013615,247.4687455999665,248.268175000092,248.25231260014695,,,,,,,,,,,,,,,,,,,,,,,,,,,,,,,,,,,248.25281820003875,248.268175000092,248.268175000092,249.2858313000761,r,1.0,1.0131252000574025,,,,,sub-187,1,stroop_test,60.10572600740172,
,,,,64.0,4.0,5.0,,,,,,,,,,,,,gelb,red,r,0.0,r,1.0,0.586890900041908,,,,,,,,,,5.0,4.0,64.0,8.0,249.30083580012436,,,,,,,,,,,,,,,,,249.286327800015,249.400824100012,250.20024020015265,250.18437750008889,,,,,,,,,,,,,,,,,,,,,,,,,,,,,,,,,,,250.18862679996528,250.20024020015265,250.20024020015265,250.8012141000945,r,1.0,0.586890900041908,,,,,sub-187,1,stroop_test,60.10572600740172,
,,,,65.0,5.0,5.0,,,,,,,,,,,,,gelb,yellow,g,1.0,g,1.0,0.6853012000210583,,,,,,,,,,5.0,5.0,65.0,11.0,250.81662759999745,,,,,,,,,,,,,,,,,250.80154700018463,251.61611880012788,252.41577380010855,252.39970199996608,,,,,,,,,,,,,,,,,,,,,,,,,,,,,,,,,,,252.40020569995977,252.41577380010855,252.41577380010855,253.11634050006975,g,1.0,0.6853012000210583,,,,,sub-187,1,stroop_test,60.10572600740172,
,,,,66.0,6.0,5.0,,,,,,,,,,,,,rot,red,r,1.0,r,1.0,0.6105377001222223,,,,,,,,,,5.0,6.0,66.0,0.0,253.13212580000985,,,,,,,,,,,,,,,,,253.1166866000276,253.4818403001409,254.28141090017743,254.26540930010376,,,,,,,,,,,,,,,,,,,,,,,,,,,,,,,,,,,254.267104000086,254.28141090017743,254.28141090017743,254.89854920003563,r,1.0,0.6105377001222223,,,,,sub-187,1,stroop_test,60.10572600740172,
,,,,67.0,7.0,5.0,,,,,,,,,,,,,blau,blue,b,1.0,b,1.0,0.7691858999896795,,,,,,,,,,5.0,7.0,67.0,5.0,254.9140798000153,,,,,,,,,,,,,,,,,254.89885830017735,256.1137590999715,256.9128310000524,256.89688779995777,,,,,,,,,,,,,,,,,,,,,,,,,,,,,,,,,,,256.8997865000274,256.9128310000524,256.9128310000524,257.697162500117,b,1.0,0.7691858999896795,,,,,sub-187,1,stroop_test,60.10572600740172,
,,,,68.0,8.0,5.0,,,,,,,,,,,,,gelb,yellow,g,1.0,g,1.0,1.0783778000622988,,,,,,,,,,5.0,8.0,68.0,10.0,257.71233510016464,,,,,,,,,,,,,,,,,257.69750800007023,258.5118875000626,259.3116469001397,259.2956222000066,,,,,,,,,,,,,,,,,,,,,,,,,,,,,,,,,,,259.3006154000759,259.3116469001397,259.3116469001397,260.39550710003823,g,1.0,1.0783778000622988,,,,,sub-187,1,stroop_test,60.10572600740172,
,,,,69.0,9.0,5.0,,,,,,,,,,,,,blau,blue,b,1.0,b,1.0,1.421493000118062,,,,,,,,,,5.0,9.0,69.0,6.0,260.4109279999975,,,,,,,,,,,,,,,,,260.3958876000252,260.5109063000418,261.31050670007244,261.29438930004835,,,,,,,,,,,,,,,,,,,,,,,,,,,,,,,,,,,261.298508600099,261.31050670007244,261.31050670007244,262.7441371001769,b,1.0,1.421493000118062,,,,,sub-187,1,stroop_test,60.10572600740172,
,,,,70.0,10.0,5.0,,,,,,,,,,,,,rot,blue,b,0.0,b,1.0,1.5482538000214845,,,,,,,,,,5.0,10.0,70.0,2.0,262.7593504001852,,,,,,,,,,,,,,,,,262.7445002000313,263.5588698000647,264.3582574001048,264.342553100083,,,,,,,,,,,,,,,,,,,,,,,,,,,,,,,,,,,264.34552350011654,264.3582574001048,264.3582574001048,265.9084433000535,b,1.0,1.5482538000214845,,,,,sub-187,1,stroop_test,60.10572600740172,
,,,,71.0,11.0,5.0,,,,,,,,,,,,,rot,yellow,g,0.0,g,1.0,0.7783526000566781,,,,,,,,,,5.0,11.0,71.0,3.0,265.9240455001127,,,,,,,,,,,,,,,,,265.9087948000524,266.00757000013255,266.8068629000336,266.7907567000948,,,,,,,,,,,,,,,,,,,,,,,,,,,,,,,,,,,266.79129389999434,266.8068629000336,266.8068629000336,267.591025199974,g,1.0,0.7783526000566781,,,,,sub-187,1,stroop_test,60.10572600740172,
,,,,72.0,0.0,6.0,,,,,,,,,,,,,rot,blue,b,0.0,r,0.0,0.7755966000258923,,,,,,,,,,6.0,0.0,72.0,2.0,267.6062646000646,,,,,,,,,,,,,,,,,267.5913723001722,267.7062748000026,268.5060495999642,268.4896989001427,,,,,,,,,,,,,,,,,,,,,,,,,,,,,,,,,,,268.4901577001437,268.5060495999642,268.5060495999642,269.29010950005613,r,0.0,0.7755966000258923,,,,,sub-187,1,stroop_test,60.10572600740172,
,,,,73.0,1.0,6.0,,,,,,,,,,,,,gelb,yellow,g,1.0,g,1.0,0.7619900999125093,,,,,,,,,,6.0,1.0,73.0,11.0,269.3054979001172,,,,,,,,,,,,,,,,,269.2904884000309,270.5045867001172,271.3041155000683,271.2883974001743,,,,,,,,,,,,,,,,,,,,,,,,,,,,,,,,,,,271.2928965999745,271.3041155000683,271.3041155000683,272.0718900000211,g,1.0,0.7619900999125093,,,,,sub-187,1,stroop_test,60.10572600740172,
,,,,74.0,2.0,6.0,,,,,,,,,,,,,rot,red,r,1.0,r,1.0,0.6681041000410914,,,,,,,,,,6.0,2.0,74.0,0.0,272.0869098000694,,,,,,,,,,,,,,,,,272.0722670000978,273.2861628001556,274.0856809001416,274.0697159001138,,,,,,,,,,,,,,,,,,,,,,,,,,,,,,,,,,,274.0726638000924,274.0856809001416,274.0856809001416,274.76997460005805,r,1.0,0.6681041000410914,,,,,sub-187,1,stroop_test,60.10572600740172,
,,,,75.0,3.0,6.0,,,,,,,,,,,,,gelb,yellow,g,1.0,g,1.0,0.5665823000017554,,,,,,,,,,6.0,3.0,75.0,10.0,274.7852634000592,,,,,,,,,,,,,,,,,274.77030780003406,275.135106000118,275.93457829998806,275.918719700072,,,,,,,,,,,,,,,,,,,,,,,,,,,,,,,,,,,275.9225870000664,275.93457829998806,275.93457829998806,276.5023493000772,g,1.0,0.5665823000017554,,,,,sub-187,1,stroop_test,60.10572600740172,
,,,,76.0,4.0,6.0,,,,,,,,,,,,,blau,blue,b,1.0,b,1.0,0.5729907001368701,,,,,,,,,,6.0,4.0,76.0,5.0,276.51775550004095,,,,,,,,,,,,,,,,,276.50265779998153,277.717103500152,278.51639740006067,278.5005028001033,,,,,,,,,,,,,,,,,,,,,,,,,,,,,,,,,,,278.5039008001331,278.51639740006067,278.51639740006067,279.1010332000442,b,1.0,0.5729907001368701,,,,,sub-187,1,stroop_test,60.10572600740172,
,,,,77.0,5.0,6.0,,,,,,,,,,,,,blau,red,r,0.0,r,1.0,0.8677047998644412,,,,,,,,,,6.0,5.0,77.0,4.0,279.11610440001823,,,,,,,,,,,,,,,,,279.101456400007,280.3153444000054,281.1147460001521,281.09873139997944,,,,,,,,,,,,,,,,,,,,,,,,,,,,,,,,,,,281.09917509998195,281.1147460001521,281.1147460001521,281.998789699981,r,1.0,0.8677047998644412,,,,,sub-187,1,stroop_test,60.10572600740172,
,,,,78.0,6.0,6.0,,,,,,,,,,,,,gelb,red,r,0.0,r,1.0,1.0319626999553293,,,,,,,,,,6.0,6.0,78.0,8.0,282.0141622000374,,,,,,,,,,,,,,,,,281.9991554999724,282.11430390016176,282.9136592000723,282.8977471999824,,,,,,,,,,,,,,,,,,,,,,,,,,,,,,,,,,,282.9013044000603,282.9136592000723,282.9136592000723,283.94768720003776,r,1.0,1.0319626999553293,,,,,sub-187,1,stroop_test,60.10572600740172,
,,,,79.0,7.0,6.0,,,,,,,,,,,,,blau,blue,b,1.0,b,1.0,0.669938099803403,,,,,,,,,,6.0,7.0,79.0,6.0,283.96295960014686,,,,,,,,,,,,,,,,,283.94805130013265,284.31277520000003,285.112291400088,285.0963376001455,,,,,,,,,,,,,,,,,,,,,,,,,,,,,,,,,,,285.0994917000644,285.112291400088,285.112291400088,285.79677759995684,b,1.0,0.669938099803403,,,,,sub-187,1,stroop_test,60.10572600740172,
,,,,80.0,8.0,6.0,,,,,,,,,,,,,rot,yellow,g,0.0,g,1.0,0.9063761001452804,,,,,,,,,,6.0,8.0,80.0,3.0,285.8119101000484,,,,,,,,,,,,,,,,,285.7972470000386,287.0113361000549,287.8106825000141,287.79485530010425,,,,,,,,,,,,,,,,,,,,,,,,,,,,,,,,,,,287.798447499983,287.8106825000141,287.8106825000141,288.727757900022,g,1.0,0.9063761001452804,,,,,sub-187,1,stroop_test,60.10572600740172,
,,,,81.0,9.0,6.0,,,,,,,,,,,,,gelb,blue,b,0.0,b,1.0,0.9965318001341076,,,,,,,,,,6.0,9.0,81.0,9.0,288.74363519996405,,,,,,,,,,,,,,,,,288.72807019995525,289.54293530015275,290.3426721000578,290.3266724999994,,,,,,,,,,,,,,,,,,,,,,,,,,,,,,,,,,,290.3305102000013,290.3426721000578,290.3426721000578,291.3431107001379,b,1.0,0.9965318001341076,,,,,sub-187,1,stroop_test,60.10572600740172,
,,,,82.0,10.0,6.0,,,,,,,,,,,,,rot,red,r,1.0,r,1.0,1.7637115998659283,,,,,,,,,,6.0,10.0,82.0,1.0,291.3586234000977,,,,,,,,,,,,,,,,,291.3434833001811,291.45844250009395,292.2582078000996,292.2418629000895,,,,,,,,,,,,,,,,,,,,,,,,,,,,,,,,,,,292.2450874999631,292.2582078000996,292.2582078000996,294.0249954001047,r,1.0,1.7637115998659283,,,,,sub-187,1,stroop_test,60.10572600740172,
,,,,83.0,11.0,6.0,,,,,,,,,,,,,blau,yellow,g,0.0,g,1.0,0.9236989000346512,,,,,,,,,,6.0,11.0,83.0,7.0,294.0401745000854,,,,,,,,,,,,,,,,,294.0253575001843,294.1401303000748,294.9396941000596,294.92385719995946,,,,,,,,,,,,,,,,,,,,,,,,,,,,,,,,,,,294.9268604000099,294.9396941000596,294.9396941000596,295.8737796000205,g,1.0,0.9236989000346512,,,,,sub-187,1,stroop_test,60.10572600740172,
,,,,84.0,0.0,7.0,,,,,,,,,,,,,blau,red,r,0.0,r,1.0,0.967293499968946,,,,,,,,,,7.0,0.0,84.0,4.0,295.88908029999584,,,,,,,,,,,,,,,,,295.8741472000256,296.68868690007366,297.4880981000606,297.47211490012705,,,,,,,,,,,,,,,,,,,,,,,,,,,,,,,,,,,297.47261890000664,297.4880981000606,297.4880981000606,298.4719817000441,r,1.0,0.967293499968946,,,,,sub-187,1,stroop_test,60.10572600740172,
,,,,85.0,1.0,7.0,,,,,,,,,,,,,blau,blue,b,1.0,b,1.0,0.610266299918294,,,,,,,,,,7.0,1.0,85.0,5.0,298.4876584000885,,,,,,,,,,,,,,,,,298.4723535000812,298.8373623001389,299.6367695000954,299.6208625000436,,,,,,,,,,,,,,,,,,,,,,,,,,,,,,,,,,,299.6213899999857,299.6367695000954,299.6367695000954,300.2546341000125,b,1.0,0.610266299918294,,,,,sub-187,1,stroop_test,60.10572600740172,
,,,,86.0,2.0,7.0,,,,,,,,,,,,,blau,blue,b,1.0,b,1.0,0.4992015000898391,,,,,,,,,,7.0,2.0,86.0,6.0,300.26964549999684,,,,,,,,,,,,,,,,,300.2550680001732,300.6200374001637,301.43564980011433,301.41958030010574,,,,,,,,,,,,,,,,,,,,,,,,,,,,,,,,,,,301.420023099985,301.43564980011433,301.43564980011433,301.9366878999863,b,1.0,0.4992015000898391,,,,,sub-187,1,stroop_test,60.10572600740172,
,,,,87.0,3.0,7.0,,,,,,,,,,,,,rot,red,r,1.0,r,1.0,0.6447377000004053,,,,,,,,,,7.0,3.0,87.0,1.0,301.95195340015925,,,,,,,,,,,,,,,,,301.93703470006585,302.05219250009395,302.85149949998595,302.8356103000697,,,,,,,,,,,,,,,,,,,,,,,,,,,,,,,,,,,302.83883470017463,302.85149949998595,302.85149949998595,303.5025547000114,r,1.0,0.6447377000004053,,,,,sub-187,1,stroop_test,60.10572600740172,
,,,,88.0,4.0,7.0,,,,,,,,,,,,,rot,blue,b,0.0,b,1.0,1.0937996001448482,,,,,,,,,,7.0,4.0,88.0,2.0,303.5178625001572,,,,,,,,,,,,,,,,,303.5027662999928,303.8674723999575,304.6671442000661,304.6513833999634,,,,,,,,,,,,,,,,,,,,,,,,,,,,,,,,,,,304.65191190014593,304.6671442000661,304.6671442000661,305.76744990004227,b,1.0,1.0937996001448482,,,,,sub-187,1,stroop_test,60.10572600740172,
,,,,89.0,5.0,7.0,,,,,,,,,,,,,blau,yellow,g,0.0,g,1.0,0.8814493000973016,,,,,,,,,,7.0,5.0,89.0,7.0,305.7832516001072,,,,,,,,,,,,,,,,,305.76784300012514,306.13333290000446,306.9324940000661,306.91634440002963,,,,,,,,,,,,,,,,,,,,,,,,,,,,,,,,,,,306.91923950007185,306.9324940000661,306.9324940000661,307.8164264999796,g,1.0,0.8814493000973016,,,,,sub-187,1,stroop_test,60.10572600740172,
,,,,90.0,6.0,7.0,,,,,,,,,,,,,rot,yellow,g,0.0,g,1.0,0.4121561001520604,,,,,,,,,,7.0,6.0,90.0,3.0,307.8319507001433,,,,,,,,,,,,,,,,,307.8167243001517,308.6312883000355,309.430992500158,309.4149591999594,,,,,,,,,,,,,,,,,,,,,,,,,,,,,,,,,,,309.418978900183,309.430992500158,309.430992500158,309.8492475000676,g,1.0,0.4121561001520604,,,,,sub-187,1,stroop_test,60.10572600740172,
,,,,91.0,7.0,7.0,,,,,,,,,,,,,gelb,yellow,g,1.0,g,1.0,0.4061224998440593,,,,,,,,,,7.0,7.0,91.0,11.0,309.8639436999801,,,,,,,,,,,,,,,,,309.84991770004854,310.2135135000572,311.0130494001787,310.9968236000277,,,,,,,,,,,,,,,,,,,,,,,,,,,,,,,,,,,310.99929639999755,311.0130494001787,311.0130494001787,311.4311206000857,g,1.0,0.4061224998440593,,,,,sub-187,1,stroop_test,60.10572600740172,
,,,,92.0,8.0,7.0,,,,,,,,,,,,,gelb,yellow,g,1.0,g,1.0,0.576702100224793,,,,,,,,,,7.0,8.0,92.0,10.0,311.44629530003294,,,,,,,,,,,,,,,,,311.4316114000976,312.6455729000736,313.4449871000834,313.4291014999617,,,,,,,,,,,,,,,,,,,,,,,,,,,,,,,,,,,313.4296294001397,313.4449871000834,313.4449871000834,314.02942200005054,g,1.0,0.576702100224793,,,,,sub-187,1,stroop_test,60.10572600740172,
,,,,93.0,9.0,7.0,,,,,,,,,,,,,rot,red,r,1.0,r,1.0,0.7113379999063909,,,,,,,,,,7.0,9.0,93.0,0.0,314.0448092999868,,,,,,,,,,,,,,,,,314.0298681999557,314.1445916001685,314.9440658001695,314.928236000007,,,,,,,,,,,,,,,,,,,,,,,,,,,,,,,,,,,314.9320068999659,314.9440658001695,314.9440658001695,315.6621338000987,r,1.0,0.7113379999063909,,,,,sub-187,1,stroop_test,60.10572600740172,
,,,,94.0,10.0,7.0,,,,,,,,,,,,,gelb,red,r,0.0,r,1.0,0.4718138000462204,,,,,,,,,,7.0,10.0,94.0,8.0,315.6771520001348,,,,,,,,,,,,,,,,,315.6623547000345,316.476184300147,317.27647839998826,317.2599896001629,,,,,,,,,,,,,,,,,,,,,,,,,,,,,,,,,,,317.2619928000495,317.27647839998826,317.27647839998826,317.7606569000054,r,1.0,0.4718138000462204,,,,,sub-187,1,stroop_test,60.10572600740172,
,,,,95.0,11.0,7.0,,,,,,,,,,,,,gelb,blue,b,0.0,b,1.0,0.5461951999459416,,,,,,,,,,7.0,11.0,95.0,9.0,317.7757068001665,,,,,,,,,,,,,,,,,317.76112459995784,318.12570370011963,318.92503860010765,318.90870849997737,,,,,,,,,,,,,,,,,,,,,,,,,,,,,,,,,,,318.9091082001105,318.92503860010765,318.92503860010765,319.476271700114,b,1.0,0.5461951999459416,,,,,sub-187,1,stroop_test,60.10572600740172,
,,,,96.0,0.0,8.0,,,,,,,,,,,,,gelb,yellow,g,1.0,g,1.0,0.8292459999211133,,,,,,,,,,8.0,0.0,96.0,10.0,319.4914155001752,,,,,,,,,,,,,,,,,319.47674449998885,319.5912725001108,320.390811300138,320.3749428000301,,,,,,,,,,,,,,,,,,,,,,,,,,,,,,,,,,,320.3755471000913,320.390811300138,320.390811300138,321.22485790005885,g,1.0,0.8292459999211133,,,,,sub-187,1,stroop_test,60.10572600740172,
,,,,97.0,1.0,8.0,,,,,,,,,,,,,rot,red,r,1.0,r,1.0,1.299183199880645,,,,,,,,,,8.0,1.0,97.0,1.0,321.2402321000118,,,,,,,,,,,,,,,,,321.22525939997286,322.0397314000875,322.83943230006844,322.82331160013564,,,,,,,,,,,,,,,,,,,,,,,,,,,,,,,,,,,322.82649260014296,322.83943230006844,322.83943230006844,324.140026899986,r,1.0,1.299183199880645,,,,,sub-187,1,stroop_test,60.10572600740172,
,,,,98.0,2.0,8.0,,,,,,,,,,,,,blau,blue,b,1.0,b,1.0,0.6209341001231223,,,,,,,,,,8.0,2.0,98.0,5.0,324.1550575001165,,,,,,,,,,,,,,,,,324.1403914000839,324.95466040004976,325.75432060007006,325.738082600059,,,,,,,,,,,,,,,,,,,,,,,,,,,,,,,,,,,325.7398010999896,325.75432060007006,325.75432060007006,326.38917029998265,b,1.0,0.6209341001231223,,,,,sub-187,1,stroop_test,60.10572600740172,
,,,,99.0,3.0,8.0,,,,,,,,,,,,,blau,blue,b,1.0,b,1.0,0.6253559000324458,,,,,,,,,,8.0,3.0,99.0,6.0,326.4037810000591,,,,,,,,,,,,,,,,,326.38974010013044,327.60306690004654,328.402568400139,328.3865895001218,,,,,,,,,,,,,,,,,,,,,,,,,,,,,,,,,,,328.38711580005474,328.402568400139,328.402568400139,329.0370980000589,b,1.0,0.6253559000324458,,,,,sub-187,1,stroop_test,60.10572600740172,
,,,,100.0,4.0,8.0,,,,,,,,,,,,,rot,yellow,g,0.0,g,1.0,0.8182240000460297,,,,,,,,,,8.0,4.0,100.0,3.0,329.05206910008565,,,,,,,,,,,,,,,,,329.03750120010227,329.40192029997706,330.20139810000546,330.185479799984,,,,,,,,,,,,,,,,,,,,,,,,,,,,,,,,,,,330.1887404001318,330.20139810000546,330.20139810000546,331.0356988001149,g,1.0,0.8182240000460297,,,,,sub-187,1,stroop_test,60.10572600740172,
,,,,101.0,5.0,8.0,,,,,,,,,,,,,gelb,blue,b,0.0,b,1.0,1.2602238999679685,,,,,,,,,,8.0,5.0,101.0,9.0,331.0510517000221,,,,,,,,,,,,,,,,,331.0360952001065,331.8503623001743,332.6499809001107,332.6340235001408,,,,,,,,,,,,,,,,,,,,,,,,,,,,,,,,,,,332.6385757001117,332.6499809001107,332.6499809001107,333.91687420010567,b,1.0,1.2602238999679685,,,,,sub-187,1,stroop_test,60.10572600740172,
,,,,102.0,6.0,8.0,,,,,,,,,,,,,blau,red,r,0.0,r,1.0,0.602473699953407,,,,,,,,,,8.0,6.0,102.0,4.0,333.9326541000046,,,,,,,,,,,,,,,,,333.91720849997364,334.7319599001203,335.5317345999647,335.5157737999689,,,,,,,,,,,,,,,,,,,,,,,,,,,,,,,,,,,335.5193942000624,335.5317345999647,335.5317345999647,336.14897350012325,r,1.0,0.602473699953407,,,,,sub-187,1,stroop_test,60.10572600740172,
,,,,103.0,7.0,8.0,,,,,,,,,,,,,rot,red,r,1.0,r,1.0,0.6829329000320286,,,,,,,,,,8.0,7.0,103.0,0.0,336.16464870003983,,,,,,,,,,,,,,,,,336.14925470016897,336.26448799995705,337.0644777000416,337.0477656000294,,,,,,,,,,,,,,,,,,,,,,,,,,,,,,,,,,,337.0497363000177,337.0644777000416,337.0644777000416,337.7486477000639,r,1.0,0.6829329000320286,,,,,sub-187,1,stroop_test,60.10572600740172,
,,,,104.0,8.0,8.0,,,,,,,,,,,,,rot,blue,b,0.0,b,1.0,0.7730828998610377,,,,,,,,,,8.0,8.0,104.0,2.0,337.76379080000333,,,,,,,,,,,,,,,,,337.7489529000595,338.1133718001656,338.91291130008176,338.8969527001027,,,,,,,,,,,,,,,,,,,,,,,,,,,,,,,,,,,338.897438300075,338.91291130008176,338.91291130008176,339.6970179001801,b,1.0,0.7730828998610377,,,,,sub-187,1,stroop_test,60.10572600740172,
,,,,105.0,9.0,8.0,,,,,,,,,,,,,gelb,yellow,g,1.0,g,1.0,0.5261195998173207,,,,,,,,,,8.0,9.0,105.0,11.0,339.71248200000264,,,,,,,,,,,,,,,,,339.6973794000223,340.511823900044,341.31215779995546,341.29569609998725,,,,,,,,,,,,,,,,,,,,,,,,,,,,,,,,,,,341.2993611001875,341.31215779995546,341.31215779995546,341.8456489001401,g,1.0,0.5261195998173207,,,,,sub-187,1,stroop_test,60.10572600740172,
,,,,106.0,10.0,8.0,,,,,,,,,,,,,gelb,red,r,0.0,r,1.0,0.7094748998060822,,,,,,,,,,8.0,10.0,106.0,8.0,341.8610924000386,,,,,,,,,,,,,,,,,341.8459616000764,342.2107919000555,343.01034900010563,342.9942834000103,,,,,,,,,,,,,,,,,,,,,,,,,,,,,,,,,,,342.9947667999659,343.01034900010563,343.01034900010563,343.727589200018,r,1.0,0.7094748998060822,,,,,sub-187,1,stroop_test,60.10572600740172,
,,,,107.0,11.0,8.0,,,,,,,,,,,,,blau,yellow,g,0.0,g,1.0,1.3144833000842482,,,,,,,,,,8.0,11.0,107.0,7.0,343.7430257999804,,,,,,,,,,,,,,,,,343.72794220014475,344.94239580002613,345.742194800172,345.72596010006964,,,,,,,,,,,,,,,,,,,,,,,,,,,,,,,,,,,345.7296774999704,345.742194800172,345.742194800172,347.0592610000167,g,1.0,1.3144833000842482,,,,,sub-187,1,stroop_test,60.10572600740172,
,,,,108.0,0.0,9.0,,,,,,,,,,,,,gelb,red,r,0.0,r,1.0,0.7168244000058621,,,,,,,,,,9.0,0.0,108.0,8.0,347.07441470003687,,,,,,,,,,,,,,,,,347.05960840010084,347.4243725000415,348.22395390016027,348.2079845999833,,,,,,,,,,,,,,,,,,,,,,,,,,,,,,,,,,,348.21134479995817,348.22395390016027,348.22395390016027,348.95762110012583,r,1.0,0.7168244000058621,,,,,sub-187,1,stroop_test,60.10572600740172,
,,,,109.0,1.0,9.0,,,,,,,,,,,,,blau,yellow,g,0.0,g,1.0,0.7104462999850512,,,,,,,,,,9.0,1.0,109.0,7.0,348.9731795000844,,,,,,,,,,,,,,,,,348.9579811000731,350.1725002999883,350.9722369001247,350.9563125001732,,,,,,,,,,,,,,,,,,,,,,,,,,,,,,,,,,,350.958892500028,350.9722369001247,350.9722369001247,351.68948330008425,g,1.0,0.7104462999850512,,,,,sub-187,1,stroop_test,60.10572600740172,
,,,,110.0,2.0,9.0,,,,,,,,,,,,,rot,red,r,1.0,r,1.0,0.7122867999132723,,,,,,,,,,9.0,2.0,110.0,1.0,351.70496880006976,,,,,,,,,,,,,,,,,351.6898174001836,352.90423520002514,353.70392980007455,353.68763600010425,,,,,,,,,,,,,,,,,,,,,,,,,,,,,,,,,,,353.6903372001834,353.70392980007455,353.70392980007455,354.421223500045,r,1.0,0.7122867999132723,,,,,sub-187,1,stroop_test,60.10572600740172,
,,,,111.0,3.0,9.0,,,,,,,,,,,,,blau,blue,b,1.0,b,1.0,1.352597399847582,,,,,,,,,,9.0,3.0,111.0,6.0,354.4365896000527,,,,,,,,,,,,,,,,,354.42155280010775,354.5364212000277,355.33640670008026,355.32003090018407,,,,,,,,,,,,,,,,,,,,,,,,,,,,,,,,,,,355.3228354000021,355.33640670008026,355.33640670008026,356.7035860000178,b,1.0,1.352597399847582,,,,,sub-187,1,stroop_test,60.10572600740172,
,,,,112.0,4.0,9.0,,,,,,,,,,,,,rot,yellow,g,0.0,g,1.0,0.6650375998578966,,,,,,,,,,9.0,4.0,112.0,3.0,356.71842440008186,,,,,,,,,,,,,,,,,356.7039034001064,357.06858010008,357.868096700171,357.8519483001437,,,,,,,,,,,,,,,,,,,,,,,,,,,,,,,,,,,357.8546753001865,357.868096700171,357.868096700171,358.5354433001485,g,1.0,0.6650375998578966,,,,,sub-187,1,stroop_test,60.10572600740172,
,,,,113.0,5.0,9.0,,,,,,,,,,,,,gelb,yellow,g,1.0,g,1.0,0.6943463999778032,,,,,,,,,,9.0,5.0,113.0,11.0,358.550790600013,,,,,,,,,,,,,,,,,358.5357594001107,358.65059199999087,359.45053549995646,359.43432060000487,,,,,,,,,,,,,,,,,,,,,,,,,,,,,,,,,,,359.43806700012647,359.45053549995646,359.45053549995646,360.1509563999716,g,1.0,0.6943463999778032,,,,,sub-187,1,stroop_test,60.10572600740172,
,,,,114.0,6.0,9.0,,,,,,,,,,,,,rot,blue,b,0.0,b,1.0,0.6192332999780774,,,,,,,,,,9.0,6.0,114.0,2.0,360.1669040999841,,,,,,,,,,,,,,,,,360.1512025000993,360.2664558000397,361.0660602999851,361.0502012001816,,,,,,,,,,,,,,,,,,,,,,,,,,,,,,,,,,,361.0532796001062,361.0660602999851,361.0660602999851,361.7001281999983,b,1.0,0.6192332999780774,,,,,sub-187,1,stroop_test,60.10572600740172,
,,,,115.0,7.0,9.0,,,,,,,,,,,,,gelb,blue,b,0.0,b,1.0,0.548685299931094,,,,,,,,,,9.0,7.0,115.0,9.0,361.71546200010926,,,,,,,,,,,,,,,,,361.7005062000826,361.815564500168,362.6149099001195,362.5990653999616,,,,,,,,,,,,,,,,,,,,,,,,,,,,,,,,,,,362.60215799999423,362.6149099001195,362.6149099001195,363.1655611000024,b,1.0,0.548685299931094,,,,,sub-187,1,stroop_test,60.10572600740172,
,,,,116.0,8.0,9.0,,,,,,,,,,,,,rot,red,r,1.0,r,1.0,0.5874946000985801,,,,,,,,,,9.0,8.0,116.0,0.0,363.1811638001818,,,,,,,,,,,,,,,,,363.1658853001427,363.9807969001122,364.7802322001662,364.76445000013337,,,,,,,,,,,,,,,,,,,,,,,,,,,,,,,,,,,364.7681860001758,364.7802322001662,364.7802322001662,365.3812278001569,r,1.0,0.5874946000985801,,,,,sub-187,1,stroop_test,60.10572600740172,
,,,,117.0,9.0,9.0,,,,,,,,,,,,,gelb,yellow,g,1.0,g,1.0,0.7655891000758857,,,,,,,,,,9.0,9.0,117.0,10.0,365.3967663999647,,,,,,,,,,,,,,,,,365.3814387000166,365.4966135001741,366.2961621000432,366.2801948999986,,,,,,,,,,,,,,,,,,,,,,,,,,,,,,,,,,,366.2833997001872,366.2961621000432,366.2961621000432,367.0636156001128,g,1.0,0.7655891000758857,,,,,sub-187,1,stroop_test,60.10572600740172,
,,,,118.0,10.0,9.0,,,,,,,,,,,,,blau,blue,b,1.0,b,1.0,0.6646931001450866,,,,,,,,,,9.0,10.0,118.0,5.0,367.07874300004914,,,,,,,,,,,,,,,,,367.0639690000098,367.878428200027,368.678317300044,368.6617994001135,,,,,,,,,,,,,,,,,,,,,,,,,,,,,,,,,,,368.6647324000951,368.678317300044,368.678317300044,369.34583350014873,b,1.0,0.6646931001450866,,,,,sub-187,1,stroop_test,60.10572600740172,
,,,,119.0,11.0,9.0,,,,,,,,,,,,,blau,red,r,0.0,r,1.0,1.1009989001322538,,,,,,,,,,9.0,11.0,119.0,4.0,369.36104890005663,,,,,,,,,,,,,,,,,369.3461565000471,369.7106185001321,370.510038100183,370.493994000135,,,,,,,,,,,,,,,,,,,,,,,,,,,,,,,,,,,370.49445280013606,370.510038100183,370.510038100183,371.6272577000782,r,1.0,1.1009989001322538,,,,,sub-187,1,stroop_test,60.10572600740172,
,,,,,,,,,,,,,,,,,,,,,,,,,,,,,,,,,,,,,,,,,,,,,,,,,,,,,,,,,,,,,,,,,,,,,,,,,,,,,,,,,,,,,,,,,,,,,,,,,,,,,,371.6274272999726,371.6430204999633,376.63989170012064,sub-187,1,stroop_test,60.10572600740172,
