direction,corrAns,thisN,thisTrialN,thisRepN,respDots.keys,respDots.corr,respDots.rt,respDots.duration,randomInstr,respRandomInstr.keys,respRandomInstr.rt,respRandomInstr.duration,practice_trials.thisRepN,practice_trials.thisTrialN,practice_trials.thisN,practice_trials.thisIndex,instr_trials.thisRepN,instr_trials.thisTrialN,instr_trials.thisN,instr_trials.thisIndex,test_trials.thisRepN,test_trials.thisTrialN,test_trials.thisN,test_trials.thisIndex,thisRow.t,notes,general_instruction.started,textGeneralInstr.started,respGeneralInstr.started,general_instruction.stopped,respGeneralInstr.keys,respGeneralInstr.rt,respGeneralInstr.duration,ITI.started,fixcross.started,fixcross.stopped,ITI.stopped,dots.started,backgroundDots.started,stimulusDots.started,respDots.started,stimulusDots.stopped,dots.stopped,practice_trials.respDots.keys,practice_trials.respDots.corr,practice_trials.respDots.rt,practice_trials.respDots.duration,feedback.started,textFeedback.started,feedback.stopped,textFeedback.stopped,info.started,textInfo.started,keyRespInfo.started,info.stopped,keyRespInfo.keys,keyRespInfo.rt,keyRespInfo.duration,test_instruction.started,textTestInstr.started,respTestInstr.started,test_instruction.stopped,respTestInstr.keys,respTestInstr.rt,respTestInstr.duration,random_instruction.started,textRandomInstr.started,respRandomInstr.started,random_instruction.stopped,instr_trials.respRandomInstr.keys,instr_trials.respRandomInstr.rt,instr_trials.respRandomInstr.duration,test_trials.respDots.keys,test_trials.respDots.corr,test_trials.respDots.rt,test_trials.respDots.duration,goodbye.started,textGoodbye.started,textGoodbye.stopped,goodbye.stopped,participant,session,expName,frameRate,Unnamed: 88
,,,,,,,,,,,,,,,,,,,,,,,,,,,0.0192241129999501,0.0313687009999057,0.0313687009999057,25.048234109999957,space,24.996586496999956,,,,,,,,,,,,,,,,,,,,,,,,,,,,,,,,,,,,,,,,,,,,,,,,,sub-142,1,random_dot,,
right,right,0.0,0.0,0.0,right,1.0,14.398044906999983,,,,,,0.0,0.0,0.0,1.0,,,,,,,,,25.08588737999992,,,,,,,,,25.058625742000004,26.243966527,27.064324450999948,27.03793112799997,27.038281088999952,27.064324450999948,27.064324450999948,27.064324450999948,32.026487084999985,41.47257311199997,right,1.0,14.398044906999983,,41.478230585000006,41.490795327,41.97578554699999,,,,,,,,,,,,,,,,,,,,,,,,,,,,,,,sub-142,1,random_dot,,
left,left,1.0,1.0,0.0,right,0.0,7.976061659999914,,,,,,0.0,1.0,1.0,0.0,,,,,,,,,41.98720175299991,,,,,,,,,41.97608268900001,42.770620562999966,43.56127675899995,43.554701242999954,43.555041416999984,43.56127675899995,43.56127675899995,43.56127675899995,48.54299252399994,51.53960821699991,right,0.0,7.976061659999914,,51.54363230399997,51.55018350799992,52.03820006799992,52.04331600899991,,,,,,,,,,,,,,,,,,,,,,,,,,,,,,sub-142,1,random_dot,,
left,left,2.0,0.0,1.0,left,1.0,5.556697301999975,,,,,,1.0,0.0,2.0,0.0,,,,,,,,,52.04331600899991,,,,,,,,,52.03848692499992,52.837451175999945,53.628075395,53.62145591199999,53.621795229999975,53.628075395,53.628075395,53.628075395,58.609651966,59.18890758099997,left,1.0,5.556697301999975,,59.19115714999998,59.197714658,59.68827440899997,59.69324317499991,,,,,,,,,,,,,,,,,,,,,,,,,,,,,,sub-142,1,random_dot,,
right,right,3.0,1.0,1.0,right,1.0,5.338915116999942,,,,,,1.0,1.0,3.0,1.0,,,,,,,,,59.69324317499991,,,,,,,,,59.68855843199992,60.887555217,61.67815404299995,61.671557087,61.671894447,61.67815404299995,61.67815404299995,61.67815404299995,66.66005730099994,67.02185181300001,right,1.0,5.338915116999942,,67.02193887299995,67.02810709899995,67.52149311599999,67.52658211099993,,,,,,,,,,,,,,,,,,,,,,,,,,,,,,sub-142,1,random_dot,,
left,left,4.0,0.0,2.0,right,0.0,6.516521603999991,,,,,,2.0,0.0,4.0,0.0,,,,,,,,,67.52658211099993,,,,,,,,,67.52177465399996,68.32080435,69.111349142,69.10465522899995,69.1049877559999,69.111349142,69.111349142,69.111349142,74.09337143899995,75.639133657,right,0.0,6.516521603999991,,75.64142962400001,75.64824270899999,76.138268789,76.14341856699991,,,,,,,,,,,,,,,,,,,,,,,,,,,,,,sub-142,1,random_dot,,
right,right,5.0,1.0,2.0,right,1.0,5.409444169000039,,,,,,2.0,1.0,5.0,1.0,,,,,,,,,76.14341856699991,,,,,,,,,76.13855548799995,76.48744349399999,77.27715325399993,77.27105411999992,77.27131528299992,77.27715325399993,77.27715325399993,77.27715325399993,82.26000140099995,82.68871298299996,right,1.0,5.409444169000039,,82.69102188,82.69735149299993,83.18837015499992,83.193229266,,,,,,,,,,,,,,,,,,,,,,,,,,,,,,sub-142,1,random_dot,,
left,left,6.0,0.0,3.0,left,1.0,5.588554962999979,,,,,,3.0,0.0,6.0,0.0,,,,,,,,,83.193229266,,,,,,,,,83.18865755399997,83.98763091399996,84.77839194699993,84.77187961899995,84.77221471799999,84.77839194699993,84.77839194699993,84.77839194699993,89.77089895299991,90.37227864299996,left,1.0,5.588554962999979,,90.372366501,90.37820263999993,90.87167203899992,90.8767632979999,,,,,,,,,,,,,,,,,,,,,,,,,,,,,,sub-142,1,random_dot,,
right,right,7.0,1.0,3.0,left,0.0,5.627898436999999,,,,,,3.0,1.0,7.0,1.0,,,,,,,,,90.8767632979999,,,,,,,,,90.871954941,91.22101806699992,92.01033090299995,92.00445857499994,92.00473127499993,92.01033090299995,92.01033090299995,92.01033090299995,96.99364793799998,97.64488907999998,left,0.0,5.627898436999999,,97.64737875899992,97.654257713,98.13845097399997,98.14350668299994,,,,,,,,,,,,,,,,,,,,,,,,,,,,,,sub-142,1,random_dot,,
right,right,8.0,0.0,4.0,left,0.0,2.3845992809999643,,,,,,4.0,0.0,8.0,1.0,,,,,,,,,98.14350668299994,,,,,,,,,98.13873962399998,98.94300790199998,99.737659688,99.72708401599994,99.72741539599996,99.737659688,99.737659688,99.737659688,,102.129339189,left,0.0,2.3845992809999643,,102.1294471729999,102.13752330499996,102.62194403,102.62712546,,,,,,,,,,,,,,,,,,,,,,,,,,,,,,sub-142,1,random_dot,,
left,left,9.0,1.0,4.0,left,1.0,2.5787945060000084,,,,,,4.0,1.0,9.0,0.0,,,,,,,,,102.62712546,,,,,,,,,102.62223248399994,103.42632742499995,104.22107567599994,104.21042855899998,104.21076337199996,104.22107567599994,104.22107567599994,104.22107567599994,,106.805830237,left,1.0,2.5787945060000084,,106.8083563639999,106.81489959399994,107.305236669,107.31035951499996,,,,,,,,,,,,,,,,,,,,,,,,,,,,,,sub-142,1,random_dot,,
left,left,10.0,0.0,5.0,right,0.0,0.9427242840000644,,,,,,5.0,0.0,10.0,0.0,,,,,,,,,107.31035951499996,,,,,,,,,107.30552409299992,108.10448918299994,108.89510605399994,108.88845888799996,108.888796008,108.89510605399994,108.89510605399994,108.89510605399994,,109.83965989299998,right,0.0,0.9427242840000644,,109.84221901399997,109.848694206,110.338520496,110.34341342599998,,,,,,,,,,,,,,,,,,,,,,,,,,,,,,sub-142,1,random_dot,,
right,right,11.0,1.0,5.0,right,1.0,0.3541178229999104,,,,,,5.0,1.0,11.0,1.0,,,,,,,,,110.34341342599998,,,,,,,,,110.33881104699992,110.68776895999996,111.47854412599996,111.47186072299996,111.47219762999998,111.47854412599996,111.47854412599996,111.47854412599996,,111.83874916599996,right,1.0,0.3541178229999104,,111.84095348799995,111.84729875999994,112.338571827,112.34343353299994,,,,,,,,,,,,,,,,,,,,,,,,,,,,,,sub-142,1,random_dot,,
left,left,12.0,0.0,6.0,left,1.0,4.722930692999967,,,,,,6.0,0.0,12.0,0.0,,,,,,,,,112.34343353299994,,,,,,,,,112.3388539849999,112.68771639299996,113.47857766899996,113.47196480799994,113.47230155799993,113.47857766899996,113.47857766899996,113.47857766899996,,118.205497013,left,1.0,4.722930692999967,,118.20558379399996,118.21142329399991,118.70495838399997,118.7094135829999,,,,,,,,,,,,,,,,,,,,,,,,,,,,,,sub-142,1,random_dot,,
right,right,13.0,1.0,6.0,left,0.0,8.996951819999936,,,,,,6.0,1.0,13.0,1.0,,,,,,,,,118.7094135829999,,,,,,,,,118.70521786999996,119.05431597299992,119.845451625,119.8383433539999,119.83868007499996,119.845451625,119.845451625,119.845451625,124.826867558,128.84522368699993,left,0.0,8.996951819999936,,128.84748023499992,128.854145753,129.33883475099992,129.34371255199994,,,,,,,,,,,,,,,,,,,,,,,,,,,,,,sub-142,1,random_dot,,
right,right,14.0,0.0,7.0,left,0.0,5.573795100999973,,,,,,7.0,0.0,14.0,1.0,,,,,,,,,129.34371255199994,,,,,,,,,129.33912613299992,130.143638593,130.937893444,130.927252478,130.92758268699993,130.937893444,130.937893444,130.937893444,135.92138867899996,136.52294742499998,left,0.0,5.573795100999973,,136.52305188699995,136.528999397,137.02216144299996,137.02704937599992,,,,,,,,,,,,,,,,,,,,,,,,,,,,,,sub-142,1,random_dot,,
left,left,15.0,1.0,7.0,right,0.0,6.694450140999948,,,,,,7.0,1.0,15.0,0.0,,,,,,,,,137.02704937599992,,,,,,,,,137.02246658799993,138.22140275899994,139.01221150599997,139.00565768499996,139.005996224,139.01221150599997,139.01221150599997,139.01221150599997,143.99406615499993,145.7121412639999,right,0.0,6.694450140999948,,145.71222710199993,145.721396853,146.20551372199998,146.210637539,,,,,,,,,,,,,,,,,,,,,,,,,,,,,,sub-142,1,random_dot,,
right,right,16.0,0.0,8.0,right,1.0,0.3136694569999463,,,,,,8.0,0.0,16.0,1.0,,,,,,,,,146.210637539,,,,,,,,,146.20579526699998,147.40975412699993,148.20476161299996,148.1937716829999,148.1941109139999,148.20476161299996,148.20476161299996,148.20476161299996,,148.52258685099991,right,1.0,0.3136694569999463,,148.52486955199993,148.53146467499994,149.02221072399993,149.02714864199993,,,,,,,,,,,,,,,,,,,,,,,,,,,,,,sub-142,1,random_dot,,
left,left,17.0,1.0,8.0,left,1.0,0.8067849389999537,,,,,,8.0,1.0,17.0,0.0,,,,,,,,,149.02714864199993,,,,,,,,,149.02249966399995,149.121537913,149.912039597,149.9054534889999,149.90579290999997,149.912039597,149.912039597,149.912039597,,150.72263019699994,left,1.0,0.8067849389999537,,150.722725697,150.72863350799992,151.22227011099994,151.2270809439999,,,,,,,,,,,,,,,,,,,,,,,,,,,,,,sub-142,1,random_dot,,
right,right,18.0,0.0,9.0,left,0.0,3.045596492999948,,,,,,9.0,0.0,18.0,1.0,,,,,,,,,151.2270809439999,,,,,,,,,151.222553598,152.42163219499992,153.211995237,153.20541096699992,153.205747653,153.211995237,153.211995237,153.211995237,,156.26347049899994,left,0.0,3.045596492999948,,156.26594956199995,156.2896783719999,156.77162725999997,,,,,,,,,,,,,,,,,,,,,,,,,,,,,,,sub-142,1,random_dot,,
left,left,19.0,1.0,9.0,left,1.0,0.2667255730000306,,,,,,9.0,1.0,19.0,0.0,,,,,,,,,156.77679393699998,,,,,,,,,156.77194517599992,156.85987026499993,157.654707584,157.64406467499998,157.64439981399994,157.654707584,157.654707584,157.654707584,,157.92332991699993,left,1.0,0.2667255730000306,,157.92559321499994,157.93190478999998,158.42250997099995,158.42911769299997,,,,,,,,,,,,,,,,,,,,,,,,,,,,,,sub-142,1,random_dot,,
,,,,,,,,,,,,,,,,,,,,,,,,,,,,,,,,,,,,,,,,,,,,,,,,,,,,158.42262809199997,158.42911769299997,158.42911769299997,170.62290197599998,space,12.183577742000011,,,,,,,,,,,,,,,,,,,,,,,,sub-142,1,random_dot,,
,,,,,,,,,,,,,,,,,,,,,,,,,,,,,,,,,,,,,,,,,,,,,,,,,,,,,,,,,,,170.62295643099992,170.63094771299996,170.63094771299996,172.33940213199992,space,1.703465317999985,,,,,,,,,,,,,,,,,sub-142,1,random_dot,,
left,left,0.0,0.0,0.0,right,0.0,5.713728614000047,,accuracy,space,5.223583079999912,,,,,,0.0,0.0,0.0,0.0,0.0,0.0,0.0,0.0,177.60157746899995,,,,,,,,,177.59502984099993,177.93810696999992,178.72809481399997,178.72183120599993,178.72214183799997,178.72809481399997,178.72809481399997,178.72809481399997,183.711096551,184.445483256,,,,,,,,,,,,,,,,,,,,,,,172.35496289499997,172.36499530899994,172.36499530899994,177.5904290819999,space,5.223583079999912,,right,0.0,5.713728614000047,,,,,,sub-142,1,random_dot,,
right,right,1.0,1.0,0.0,right,1.0,7.3379797529999,,accuracy,space,5.223583079999912,,,,,,0.0,0.0,0.0,0.0,0.0,1.0,1.0,1.0,184.45489414099995,,,,,,,,,184.4457679489999,185.243461682,186.038301846,186.02734366099992,186.0276810869999,186.038301846,186.038301846,186.038301846,191.021380713,193.37784617699992,,,,,,,,,,,,,,,,,,,,,,,,,,,,,,right,1.0,7.3379797529999,,,,,,sub-142,1,random_dot,,
right,right,2.0,0.0,1.0,right,1.0,6.742464334000033,,accuracy,space,5.223583079999912,,,,,,0.0,0.0,0.0,0.0,1.0,0.0,2.0,1.0,193.38801557599996,,,,,,,,,193.37815003899996,193.471570336,194.26230896999996,194.255674527,194.256013609,194.26230896999996,194.26230896999996,194.26230896999996,199.244393328,201.006774157,,,,,,,,,,,,,,,,,,,,,,,,,,,,,,right,1.0,6.742464334000033,,,,,,sub-142,1,random_dot,,
left,left,3.0,1.0,1.0,left,1.0,3.801133459000084,,accuracy,space,5.223583079999912,,,,,,0.0,0.0,0.0,0.0,1.0,1.0,3.0,0.0,201.01288573399995,,,,,,,,,201.00714797,201.105167488,201.89558331599997,201.88896472499997,201.889306112,201.89558331599997,201.89558331599997,201.89558331599997,,205.706073382,,,,,,,,,,,,,,,,,,,,,,,,,,,,,,left,1.0,3.801133459000084,,,,,,sub-142,1,random_dot,,
left,left,4.0,0.0,2.0,right,0.0,7.204399335999938,,accuracy,space,5.223583079999912,,,,,,0.0,0.0,0.0,0.0,2.0,0.0,4.0,0.0,205.71206590499992,,,,,,,,,205.706360701,206.89393351899992,207.68832617,207.67779593699996,207.678125961,207.68832617,207.68832617,207.68832617,212.67176484999996,214.89588615999992,,,,,,,,,,,,,,,,,,,,,,,,,,,,,,right,0.0,7.204399335999938,,,,,,sub-142,1,random_dot,,
right,right,5.0,1.0,2.0,left,0.0,8.982476436999946,,accuracy,space,5.223583079999912,,,,,,0.0,0.0,0.0,0.0,2.0,1.0,5.0,1.0,214.9048725959999,,,,,,,,,214.896207969,214.993794428,215.788524392,215.77786543799996,215.778197685,215.788524392,215.788524392,215.788524392,220.7716559559999,224.773182015,,,,,,,,,,,,,,,,,,,,,,,,,,,,,,left,0.0,8.982476436999946,,,,,,sub-142,1,random_dot,,
left,left,6.0,0.0,3.0,right,0.0,4.965017516999978,,accuracy,space,5.223583079999912,,,,,,0.0,0.0,0.0,0.0,3.0,0.0,6.0,0.0,224.779160823,,,,,,,,,224.77348696299987,225.9719414419999,226.76246032599988,226.755952555,226.75629757699997,226.76246032599988,226.76246032599988,226.76246032599988,,231.73011256899983,,,,,,,,,,,,,,,,,,,,,,,,,,,,,,right,0.0,4.965017516999978,,,,,,sub-142,1,random_dot,,
right,right,7.0,1.0,3.0,left,0.0,5.336509022999962,,accuracy,space,5.223583079999912,,,,,,0.0,0.0,0.0,0.0,3.0,1.0,7.0,1.0,231.738340096,,,,,,,,,231.7304135100001,232.52703940399988,233.32202326399988,233.311466633,233.31180574099997,233.32202326399988,233.32202326399988,233.32202326399988,238.30520824799987,238.662432543,,,,,,,,,,,,,,,,,,,,,,,,,,,,,,left,0.0,5.336509022999962,,,,,,sub-142,1,random_dot,,
right,right,8.0,0.0,4.0,right,1.0,5.744498672999953,,accuracy,space,5.223583079999912,,,,,,0.0,0.0,0.0,0.0,4.0,0.0,8.0,1.0,238.67180350099989,,,,,,,,,238.66271782499985,239.860360271,240.65532826799995,240.644322615,240.64460106899992,240.65532826799995,240.65532826799995,240.65532826799995,245.63876021099983,246.40692100799996,,,,,,,,,,,,,,,,,,,,,,,,,,,,,,right,1.0,5.744498672999953,,,,,,sub-142,1,random_dot,,
left,left,9.0,1.0,4.0,right,0.0,5.050036512000133,,accuracy,space,5.223583079999912,,,,,,0.0,0.0,0.0,0.0,4.0,1.0,9.0,0.0,246.41290823500003,,,,,,,,,246.40723258899996,247.605290901,248.3959398489999,248.389311163,248.389652481,248.3959398489999,248.3959398489999,248.3959398489999,253.378281408,253.45720975299992,,,,,,,,,,,,,,,,,,,,,,,,,,,,,,right,0.0,5.050036512000133,,,,,,sub-142,1,random_dot,,
left,left,10.0,0.0,5.0,left,1.0,6.342468789999884,,accuracy,space,5.223583079999912,,,,,,0.0,0.0,0.0,0.0,5.0,0.0,10.0,0.0,253.46326264999996,,,,,,,,,253.457508966,253.80535771299992,254.59601571300004,254.58941032300004,254.58975113299996,254.59601571300004,254.59601571300004,254.59601571300004,259.5779872339999,260.94052568300003,,,,,,,,,,,,,,,,,,,,,,,,,,,,,,left,1.0,6.342468789999884,,,,,,sub-142,1,random_dot,,
right,right,11.0,1.0,5.0,right,1.0,9.732209740999906,,accuracy,space,5.223583079999912,,,,,,0.0,0.0,0.0,0.0,5.0,1.0,11.0,1.0,260.9465489689999,,,,,,,,,260.94088309799986,262.1388169019999,262.929200824,262.922616113,262.922938165,262.929200824,262.929200824,262.929200824,267.911558496,272.66297588399993,,,,,,,,,,,,,,,,,,,,,,,,,,,,,,right,1.0,9.732209740999906,,,,,,sub-142,1,random_dot,,
left,left,12.0,0.0,6.0,right,0.0,3.4995525350000207,,accuracy,space,5.223583079999912,,,,,,0.0,0.0,0.0,0.0,6.0,0.0,12.0,0.0,272.67210715500005,,,,,,,,,272.663363208,272.76086789400006,273.55550462299993,273.54460224700006,273.544943205,273.55550462299993,273.55550462299993,273.55550462299993,,277.05702230299994,,,,,,,,,,,,,,,,,,,,,,,,,,,,,,right,0.0,3.4995525350000207,,,,,,sub-142,1,random_dot,,
right,right,13.0,1.0,6.0,left,0.0,6.10002256100006,,accuracy,space,5.223583079999912,,,,,,0.0,0.0,0.0,0.0,6.0,1.0,13.0,1.0,277.0629872719999,,,,,,,,,277.05731869400006,277.40557345,278.1962463079999,278.18950129099994,278.189837032,278.1962463079999,278.1962463079999,278.1962463079999,283.178186459,284.3076441559999,,,,,,,,,,,,,,,,,,,,,,,,,,,,,,left,0.0,6.10002256100006,,,,,,sub-142,1,random_dot,,
left,left,14.0,0.0,7.0,left,1.0,7.782512986000029,,accuracy,space,5.223583079999912,,,,,,0.0,0.0,0.0,0.0,7.0,0.0,14.0,0.0,284.31383765099986,,,,,,,,,284.307965708,284.4057195529999,285.196166964,285.1895367479999,285.1898747959999,285.196166964,285.196166964,285.196166964,290.178426618,292.98043369800007,,,,,,,,,,,,,,,,,,,,,,,,,,,,,,left,1.0,7.782512986000029,,,,,,sub-142,1,random_dot,,
right,right,15.0,1.0,7.0,right,1.0,4.461959870000101,,accuracy,space,5.223583079999912,,,,,,0.0,0.0,0.0,0.0,7.0,1.0,15.0,1.0,292.98889820399995,,,,,,,,,292.9807484759999,293.7777125749999,294.57236110100007,294.56127704000005,294.56163123299984,294.57236110100007,294.57236110100007,294.57236110100007,,299.04004690099987,,,,,,,,,,,,,,,,,,,,,,,,,,,,,,right,1.0,4.461959870000101,,,,,,sub-142,1,random_dot,,
left,left,16.0,0.0,8.0,right,0.0,2.8507708370000278,,accuracy,space,5.223583079999912,,,,,,0.0,0.0,0.0,0.0,8.0,0.0,16.0,0.0,299.046022518,,,,,,,,,299.04034145499986,299.3890514289999,300.179814199,300.17307960799985,300.173582741,300.179814199,300.179814199,300.179814199,,303.03983481499995,,,,,,,,,,,,,,,,,,,,,,,,,,,,,,right,0.0,2.8507708370000278,,,,,,sub-142,1,random_dot,,
right,right,17.0,1.0,8.0,right,1.0,3.3903579000000263,,accuracy,space,5.223583079999912,,,,,,0.0,0.0,0.0,0.0,8.0,1.0,17.0,1.0,303.045600896,,,,,,,,,303.040121711,303.12758616899987,303.92213944499986,303.9112495669999,303.91155092500003,303.92213944499986,303.92213944499986,303.92213944499986,,307.31450614000005,,,,,,,,,,,,,,,,,,,,,,,,,,,,,,right,1.0,3.3903579000000263,,,,,,sub-142,1,random_dot,,
right,right,18.0,0.0,9.0,left,0.0,2.682902044999992,,accuracy,space,5.223583079999912,,,,,,0.0,0.0,0.0,0.0,9.0,0.0,18.0,1.0,307.3221383089999,,,,,,,,,307.314807642,308.51086963800003,309.3056649339999,309.29468714899986,309.29502337200006,309.3056649339999,309.3056649339999,309.3056649339999,,311.99038925700006,,,,,,,,,,,,,,,,,,,,,,,,,,,,,,left,0.0,2.682902044999992,,,,,,sub-142,1,random_dot,,
left,left,19.0,1.0,9.0,right,0.0,7.542447911999943,,accuracy,space,5.223583079999912,,,,,,0.0,0.0,0.0,0.0,9.0,1.0,19.0,0.0,311.9965074689999,,,,,,,,,311.99070234600003,312.33897597199984,313.1299636829999,313.1233542709999,313.123695067,313.1299636829999,313.1299636829999,313.1299636829999,318.1119019559999,320.674545781,,,,,,,,,,,,,,,,,,,,,,,,,,,,,,right,0.0,7.542447911999943,,,,,,sub-142,1,random_dot,,
left,left,20.0,0.0,10.0,right,0.0,13.840021060000026,,accuracy,space,5.223583079999912,,,,,,0.0,0.0,0.0,0.0,10.0,0.0,20.0,0.0,320.68052228299985,,,,,,,,,320.6748925059999,321.02247772300007,321.81360178,321.8066085349999,321.806950725,321.81360178,321.81360178,321.81360178,326.795105833,335.6572882139999,,,,,,,,,,,,,,,,,,,,,,,,,,,,,,right,0.0,13.840021060000026,,,,,,sub-142,1,random_dot,,
right,right,21.0,1.0,10.0,right,1.0,1.5354947509999874,,accuracy,space,5.223583079999912,,,,,,0.0,0.0,0.0,0.0,10.0,1.0,21.0,1.0,335.6635160369999,,,,,,,,,335.6576396979999,336.0060870059999,336.79654071899995,336.78972967899995,336.79006756399986,336.79654071899995,336.79654071899995,336.79654071899995,,338.34062248600003,,,,,,,,,,,,,,,,,,,,,,,,,,,,,,right,1.0,1.5354947509999874,,,,,,sub-142,1,random_dot,,
right,right,22.0,0.0,11.0,left,0.0,1.756849730000113,,accuracy,space,5.223583079999912,,,,,,0.0,0.0,0.0,0.0,11.0,0.0,22.0,1.0,338.34670153,,,,,,,,,338.34089884399987,338.439181065,339.229603326,339.2231028409999,339.223435791,339.229603326,339.229603326,339.229603326,,340.99038380599995,,,,,,,,,,,,,,,,,,,,,,,,,,,,,,left,0.0,1.756849730000113,,,,,,sub-142,1,random_dot,,
left,left,23.0,1.0,11.0,left,1.0,0.3756998300000305,,accuracy,space,5.223583079999912,,,,,,0.0,0.0,0.0,0.0,11.0,1.0,23.0,0.0,340.996221826,,,,,,,,,340.99067874,342.189267276,342.97986693100006,342.97317338900007,342.9735160089999,342.97986693100006,342.97986693100006,342.97986693100006,,343.357250841,,,,,,,,,,,,,,,,,,,,,,,,,,,,,,left,1.0,0.3756998300000305,,,,,,sub-142,1,random_dot,,
right,right,24.0,0.0,12.0,left,0.0,0.5151626859999396,,accuracy,space,5.223583079999912,,,,,,0.0,0.0,0.0,0.0,12.0,0.0,24.0,1.0,343.36328282,,,,,,,,,343.35756296599993,343.45576780600004,344.246362117,344.23979589500004,344.240072605,344.246362117,344.246362117,344.246362117,,344.763844353,,,,,,,,,,,,,,,,,,,,,,,,,,,,,,left,0.0,0.5151626859999396,,,,,,sub-142,1,random_dot,,
left,left,25.0,1.0,12.0,left,1.0,1.6908389340001122,,accuracy,space,5.223583079999912,,,,,,0.0,0.0,0.0,0.0,12.0,1.0,25.0,0.0,344.772286402,,,,,,,,,344.7641377289999,345.110934883,345.90587181499995,345.894814752,345.8951612579999,345.90587181499995,345.90587181499995,345.90587181499995,,347.60784430700005,,,,,,,,,,,,,,,,,,,,,,,,,,,,,,left,1.0,1.6908389340001122,,,,,,sub-142,1,random_dot,,
right,right,26.0,0.0,13.0,left,0.0,5.647747093000135,,accuracy,space,5.223583079999912,,,,,,0.0,0.0,0.0,0.0,13.0,0.0,26.0,1.0,347.614235301,,,,,,,,,347.60820518800006,347.7059494329999,348.49677570699987,348.48998780400007,348.4903233969999,348.49677570699987,348.49677570699987,348.49677570699987,353.47846072799985,354.14642799800004,,,,,,,,,,,,,,,,,,,,,,,,,,,,,,left,0.0,5.647747093000135,,,,,,sub-142,1,random_dot,,
left,left,27.0,1.0,13.0,right,0.0,5.726429169000085,,accuracy,space,5.223583079999912,,,,,,0.0,0.0,0.0,0.0,13.0,1.0,27.0,0.0,354.15583491100006,,,,,,,,,354.1467313169999,354.24466969499986,355.0393988149999,355.02866403400003,355.028942425,355.0393988149999,355.0393988149999,355.0393988149999,360.0226781829999,360.7738379489999,,,,,,,,,,,,,,,,,,,,,,,,,,,,,,right,0.0,5.726429169000085,,,,,,sub-142,1,random_dot,,
right,right,28.0,0.0,14.0,right,1.0,0.2923568310000064,,accuracy,space,5.223583079999912,,,,,,0.0,0.0,0.0,0.0,14.0,0.0,28.0,1.0,360.7796661109999,,,,,,,,,360.77412625500006,361.9723562259999,362.763487236,362.756751381,362.7570871339999,362.763487236,362.763487236,362.763487236,,363.057801556,,,,,,,,,,,,,,,,,,,,,,,,,,,,,,right,1.0,0.2923568310000064,,,,,,sub-142,1,random_dot,,
left,left,29.0,1.0,14.0,right,0.0,,,accuracy,space,5.223583079999912,,,,,,0.0,0.0,0.0,0.0,14.0,1.0,29.0,0.0,363.06379430900006,,,,,,,,,363.058100361,363.855992801,364.64638932899993,364.640107665,364.640508662,364.64638932899993,364.64638932899993,364.64638932899993,,364.824003212,,,,,,,,,,,,,,,,,,,,,,,,,,,,,,right,0.0,,,,,,,sub-142,1,random_dot,,
right,right,30.0,0.0,15.0,right,1.0,1.296246106999888,,accuracy,space,5.223583079999912,,,,,,0.0,0.0,0.0,0.0,15.0,0.0,30.0,1.0,364.8290363809999,,,,,,,,,364.824287427,365.17253704199993,365.96316633800006,365.956606232,365.9569457979999,365.96316633800006,365.96316633800006,365.96316633800006,,367.2638637299999,,,,,,,,,,,,,,,,,,,,,,,,,,,,,,right,1.0,1.296246106999888,,,,,,sub-142,1,random_dot,,
left,left,31.0,1.0,15.0,right,0.0,6.472502413000029,,accuracy,space,5.223583079999912,,,,,,0.0,0.0,0.0,0.0,15.0,1.0,31.0,0.0,367.2726875429999,,,,,,,,,367.2641488889999,367.611139371,368.406009624,368.3953901059999,368.3957243489999,368.406009624,368.406009624,368.406009624,373.3893716129999,374.880123226,,,,,,,,,,,,,,,,,,,,,,,,,,,,,,right,0.0,6.472502413000029,,,,,,sub-142,1,random_dot,,
right,right,32.0,0.0,16.0,left,0.0,3.2758992570002192,,accuracy,space,5.223583079999912,,,,,,0.0,0.0,0.0,0.0,16.0,0.0,32.0,1.0,374.8891084709999,,,,,,,,,374.88045178900006,375.2278871409999,376.022748565,376.012296553,376.01263526899993,376.022748565,376.022748565,376.022748565,,379.3073439939999,,,,,,,,,,,,,,,,,,,,,,,,,,,,,,left,0.0,3.2758992570002192,,,,,,sub-142,1,random_dot,,
left,left,33.0,1.0,16.0,left,1.0,5.112840301999995,,accuracy,space,5.223583079999912,,,,,,0.0,0.0,0.0,0.0,16.0,1.0,33.0,0.0,379.313414432,,,,,,,,,379.307639418,380.1059549039999,380.89681846100007,380.890125576,380.89048675,380.89681846100007,380.89681846100007,380.89681846100007,385.878637976,386.013426726,,,,,,,,,,,,,,,,,,,,,,,,,,,,,,left,1.0,5.112840301999995,,,,,,sub-142,1,random_dot,,
right,right,34.0,0.0,17.0,right,1.0,5.89545258000021,,accuracy,space,5.223583079999912,,,,,,0.0,0.0,0.0,0.0,17.0,0.0,34.0,1.0,386.0225130449999,,,,,,,,,386.01372248100006,386.361451253,387.156252899,387.14542723599993,387.1457081629999,387.156252899,387.156252899,387.156252899,392.139548832,393.05735518000006,,,,,,,,,,,,,,,,,,,,,,,,,,,,,,right,1.0,5.89545258000021,,,,,,sub-142,1,random_dot,,
left,left,35.0,1.0,17.0,right,0.0,3.851675913000008,,accuracy,space,5.223583079999912,,,,,,0.0,0.0,0.0,0.0,17.0,1.0,35.0,0.0,393.0633713309999,,,,,,,,,393.057662257,393.15618094,393.94705024,393.940259216,393.940597281,393.94705024,393.94705024,393.94705024,,397.807409154,,,,,,,,,,,,,,,,,,,,,,,,,,,,,,right,0.0,3.851675913000008,,,,,,sub-142,1,random_dot,,
left,left,36.0,0.0,18.0,left,1.0,1.7710803780000788,,accuracy,space,5.223583079999912,,,,,,0.0,0.0,0.0,0.0,18.0,0.0,36.0,0.0,397.813351949,,,,,,,,,397.807705593,397.9059853879999,398.6967602049999,398.6902800630001,398.69061445400007,398.6967602049999,398.6967602049999,398.6967602049999,,400.4737115749999,,,,,,,,,,,,,,,,,,,,,,,,,,,,,,left,1.0,1.7710803780000788,,,,,,sub-142,1,random_dot,,
right,right,37.0,1.0,18.0,right,1.0,1.8577346260001375,,accuracy,space,5.223583079999912,,,,,,0.0,0.0,0.0,0.0,18.0,1.0,37.0,1.0,400.479457019,,,,,,,,,400.473987893,400.811629887,401.606099699,401.5952587489999,401.595565911,401.606099699,401.606099699,401.606099699,,403.474750735,,,,,,,,,,,,,,,,,,,,,,,,,,,,,,right,1.0,1.8577346260001375,,,,,,sub-142,1,random_dot,,
right,right,38.0,0.0,19.0,left,0.0,1.1658712309999828,,accuracy,space,5.223583079999912,,,,,,0.0,0.0,0.0,0.0,19.0,0.0,38.0,1.0,403.4812401009999,,,,,,,,,403.4751097419999,404.272688665,405.0635409859999,405.056945762,405.057293438,405.0635409859999,405.0635409859999,405.0635409859999,,406.2310103699999,,,,,,,,,,,,,,,,,,,,,,,,,,,,,,left,0.0,1.1658712309999828,,,,,,sub-142,1,random_dot,,
left,left,39.0,1.0,19.0,right,0.0,1.4217500709999058,,accuracy,space,5.223583079999912,,,,,,0.0,0.0,0.0,0.0,19.0,1.0,39.0,0.0,406.239151155,,,,,,,,,406.231333773,406.3281148169999,407.123025161,407.1121913550001,407.1124747659999,407.123025161,407.123025161,407.123025161,,408.5476915269999,,,,,,,,,,,,,,,,,,,,,,,,,,,,,,right,0.0,1.4217500709999058,,,,,,sub-142,1,random_dot,,
right,right,40.0,0.0,20.0,right,1.0,1.0472077809999971,,accuracy,space,5.223583079999912,,,,,,0.0,0.0,0.0,0.0,20.0,0.0,40.0,1.0,408.556208407,,,,,,,,,408.547971211,408.8945145539999,409.689251648,409.6777384899999,409.677994254,409.689251648,409.689251648,409.689251648,,410.740856275,,,,,,,,,,,,,,,,,,,,,,,,,,,,,,right,1.0,1.0472077809999971,,,,,,sub-142,1,random_dot,,
left,left,41.0,1.0,20.0,right,0.0,5.372646957999905,,accuracy,space,5.223583079999912,,,,,,0.0,0.0,0.0,0.0,20.0,1.0,41.0,0.0,410.7468526299999,,,,,,,,,410.7411624259999,411.5395731849999,412.3299857729999,412.323348224,412.32368685000006,412.3299857729999,412.3299857729999,412.3299857729999,417.3125534379999,417.7076321560001,,,,,,,,,,,,,,,,,,,,,,,,,,,,,,right,0.0,5.372646957999905,,,,,,sub-142,1,random_dot,,
left,left,42.0,0.0,21.0,left,1.0,0.9263057460000256,,accuracy,space,5.223583079999912,,,,,,0.0,0.0,0.0,0.0,21.0,0.0,42.0,0.0,417.71350567700006,,,,,,,,,417.70793871,418.05634762599993,418.846734669,418.8402222499999,418.84054929700005,418.846734669,418.846734669,418.846734669,,419.775111982,,,,,,,,,,,,,,,,,,,,,,,,,,,,,,left,1.0,0.9263057460000256,,,,,,sub-142,1,random_dot,,
right,right,43.0,1.0,21.0,right,1.0,0.9353561469999933,,accuracy,space,5.223583079999912,,,,,,0.0,0.0,0.0,0.0,21.0,1.0,43.0,1.0,419.781146,,,,,,,,,419.7755105229999,419.8728842129999,420.663619146,420.6569285589999,420.6572676189999,420.663619146,420.663619146,420.663619146,,421.6077194980001,,,,,,,,,,,,,,,,,,,,,,,,,,,,,,right,1.0,0.9353561469999933,,,,,,sub-142,1,random_dot,,
left,left,44.0,0.0,22.0,left,1.0,1.7995815399999628,,accuracy,space,5.223583079999912,,,,,,0.0,0.0,0.0,0.0,22.0,0.0,44.0,0.0,421.6137384849999,,,,,,,,,421.6080204519999,421.706354677,422.496996842,422.490198643,422.49054094100006,422.496996842,422.496996842,422.496996842,,424.298608926,,,,,,,,,,,,,,,,,,,,,,,,,,,,,,left,1.0,1.7995815399999628,,,,,,sub-142,1,random_dot,,
right,right,45.0,1.0,22.0,right,1.0,2.070294790000162,,accuracy,space,5.223583079999912,,,,,,0.0,0.0,0.0,0.0,22.0,1.0,45.0,1.0,424.30605267300007,,,,,,,,,424.298926402,425.0947078269999,425.889679356,425.8787437859999,425.879082699,425.889679356,425.889679356,425.889679356,,427.964286097,,,,,,,,,,,,,,,,,,,,,,,,,,,,,,right,1.0,2.070294790000162,,,,,,sub-142,1,random_dot,,
right,right,46.0,0.0,23.0,right,1.0,2.4216665689998536,,accuracy,space,5.223583079999912,,,,,,0.0,0.0,0.0,0.0,23.0,0.0,46.0,1.0,427.9731165379999,,,,,,,,,427.964566312,428.7616710319999,429.5562733530001,429.545739749,429.54607279900006,429.5562733530001,429.5562733530001,429.5562733530001,,431.981386834,,,,,,,,,,,,,,,,,,,,,,,,,,,,,,right,1.0,2.4216665689998536,,,,,,sub-142,1,random_dot,,
left,left,47.0,1.0,23.0,left,1.0,2.203617174000101,,accuracy,space,5.223583079999912,,,,,,0.0,0.0,0.0,0.0,23.0,1.0,47.0,0.0,431.989324979,,,,,,,,,431.98167916400007,432.32809847,433.1228999349999,433.1124567889999,433.112794379,433.1228999349999,433.1228999349999,433.1228999349999,,435.3306113480001,,,,,,,,,,,,,,,,,,,,,,,,,,,,,,left,1.0,2.203617174000101,,,,,,sub-142,1,random_dot,,
left,left,48.0,0.0,24.0,left,1.0,3.749918559999969,,accuracy,space,5.223583079999912,,,,,,0.0,0.0,0.0,0.0,24.0,0.0,48.0,0.0,435.339339316,,,,,,,,,435.3308966069999,435.4284841879999,436.2231399329999,436.2121993399999,436.2125061059999,436.2231399329999,436.2231399329999,436.2231399329999,,439.9749815519999,,,,,,,,,,,,,,,,,,,,,,,,,,,,,,left,1.0,3.749918559999969,,,,,,sub-142,1,random_dot,,
right,right,49.0,1.0,24.0,left,0.0,5.150619660000075,,accuracy,space,5.223583079999912,,,,,,0.0,0.0,0.0,0.0,24.0,1.0,49.0,1.0,439.9809247829999,,,,,,,,,439.975274742,440.32316241500007,441.113450496,441.106885144,441.107226226,441.113450496,441.113450496,441.113450496,446.095602055,446.2748769329999,,,,,,,,,,,,,,,,,,,,,,,,,,,,,,left,0.0,5.150619660000075,,,,,,sub-142,1,random_dot,,
right,right,50.0,0.0,25.0,right,1.0,2.002291174999982,,accuracy,space,5.223583079999912,,,,,,0.0,0.0,0.0,0.0,25.0,0.0,50.0,1.0,446.282096749,,,,,,,,,446.27525729700005,447.473189458,448.263732008,448.2571218349999,448.257459054,448.263732008,448.263732008,448.263732008,,450.27429566699993,,,,,,,,,,,,,,,,,,,,,,,,,,,,,,right,1.0,2.002291174999982,,,,,,sub-142,1,random_dot,,
left,left,51.0,1.0,25.0,left,1.0,1.0246366540000054,,accuracy,space,5.223583079999912,,,,,,0.0,0.0,0.0,0.0,25.0,1.0,51.0,0.0,450.28023165700006,,,,,,,,,450.274586947,450.372918649,451.163962633,451.1574818649999,451.157833835,451.163962633,451.163962633,451.163962633,,452.191051946,,,,,,,,,,,,,,,,,,,,,,,,,,,,,,left,1.0,1.0246366540000054,,,,,,sub-142,1,random_dot,,
left,left,52.0,0.0,26.0,right,0.0,0.7173853020001388,,accuracy,space,5.223583079999912,,,,,,0.0,0.0,0.0,0.0,26.0,0.0,52.0,0.0,452.1968565099999,,,,,,,,,452.1913389280001,452.289919178,453.08046351100006,453.0735873839999,453.0739324239999,453.08046351100006,453.08046351100006,453.08046351100006,,453.808304747,,,,,,,,,,,,,,,,,,,,,,,,,,,,,,right,0.0,0.7173853020001388,,,,,,sub-142,1,random_dot,,
right,right,53.0,1.0,26.0,left,0.0,1.2890628059999472,,accuracy,space,5.223583079999912,,,,,,0.0,0.0,0.0,0.0,26.0,1.0,53.0,1.0,453.8144353089999,,,,,,,,,453.8086595509999,454.6064812279999,455.39705399700006,455.390519387,455.390856837,455.39705399700006,455.39705399700006,455.39705399700006,,456.6909908139999,,,,,,,,,,,,,,,,,,,,,,,,,,,,,,left,0.0,1.2890628059999472,,,,,,sub-142,1,random_dot,,
right,right,54.0,0.0,27.0,left,0.0,1.185214002000066,,accuracy,space,5.223583079999912,,,,,,0.0,0.0,0.0,0.0,27.0,0.0,54.0,1.0,456.697000531,,,,,,,,,456.69128314,457.03976695000006,457.8306731369999,457.823985686,457.8243259609999,457.8306731369999,457.8306731369999,457.8306731369999,,459.02480152499993,,,,,,,,,,,,,,,,,,,,,,,,,,,,,,left,0.0,1.185214002000066,,,,,,sub-142,1,random_dot,,
left,left,55.0,1.0,27.0,right,0.0,0.7663343690001057,,accuracy,space,5.223583079999912,,,,,,0.0,0.0,0.0,0.0,27.0,1.0,55.0,0.0,459.030636904,,,,,,,,,459.02509212,459.123103784,459.9136321399999,459.90705598,459.9073393849999,459.9136321399999,459.9136321399999,459.9136321399999,,460.6819123089999,,,,,,,,,,,,,,,,,,,,,,,,,,,,,,right,0.0,0.7663343690001057,,,,,,sub-142,1,random_dot,,
right,right,56.0,0.0,28.0,left,0.0,0.7456805419999455,,accuracy,space,5.223583079999912,,,,,,0.0,0.0,0.0,0.0,28.0,0.0,56.0,1.0,460.6894739269999,,,,,,,,,460.682212513,460.778631877,461.57336566999993,461.5625445179999,461.5628811909999,461.57336566999993,461.57336566999993,461.57336566999993,,462.3242244179999,,,,,,,,,,,,,,,,,,,,,,,,,,,,,,left,0.0,0.7456805419999455,,,,,,sub-142,1,random_dot,,
left,left,57.0,1.0,28.0,left,1.0,2.65220599700001,,accuracy,space,5.223583079999912,,,,,,0.0,0.0,0.0,0.0,28.0,1.0,57.0,0.0,462.3301915499999,,,,,,,,,462.324514679,462.6619193219999,463.4564105550001,463.44569705999993,463.446029215,463.4564105550001,463.4564105550001,463.4564105550001,,466.11437187799993,,,,,,,,,,,,,,,,,,,,,,,,,,,,,,left,1.0,2.65220599700001,,,,,,sub-142,1,random_dot,,
left,left,58.0,0.0,29.0,right,0.0,5.828233128999955,,accuracy,space,5.223583079999912,,,,,,0.0,0.0,0.0,0.0,29.0,0.0,58.0,0.0,466.123015527,,,,,,,,,466.114642671,466.911492705,467.7064511609999,467.6955507149999,467.695859985,467.7064511609999,467.7064511609999,467.7064511609999,472.689763271,473.5415598309999,,,,,,,,,,,,,,,,,,,,,,,,,,,,,,right,0.0,5.828233128999955,,,,,,sub-142,1,random_dot,,
right,right,59.0,1.0,29.0,right,1.0,4.288655500999994,,accuracy,space,5.223583079999912,,,,,,0.0,0.0,0.0,0.0,29.0,1.0,59.0,1.0,473.547536494,,,,,,,,,473.5418641219999,474.339967379,475.1308013119999,475.1243146320001,475.1246496659999,475.1308013119999,475.1308013119999,475.1308013119999,,479.42440126,,,,,,,,,,,,,,,,,,,,,,,,,,,,,,right,1.0,4.288655500999994,,,,,,sub-142,1,random_dot,,
,,0.0,0.0,0.0,,,,,accuracy,space,5.223583079999912,,,,,,0.0,0.0,0.0,0.0,,,,,,,,,,,,,,,,,,,,,,,,,,,,,,,,,,,,,,,,,,,,,,,,,,,,,,,,,,,,,sub-142,1,random_dot,,
right,right,0.0,0.0,0.0,right,1.0,0.879382360000136,,speed,space,6.872003771999971,,,,,,0.0,1.0,1.0,1.0,0.0,0.0,0.0,1.0,486.336110965,,,,,,,,,486.329694476,486.6733471329999,487.4639266029999,487.4573896669999,487.457750285,487.4639266029999,487.4639266029999,487.4639266029999,,488.347709182,,,,,,,,,,,,,,,,,,,,,,,479.434600178,479.4431512199999,479.4431512199999,486.3246979369999,space,6.872003771999971,,right,1.0,0.879382360000136,,,,,,sub-142,1,random_dot,,
left,left,1.0,1.0,0.0,right,0.0,0.7430119169998761,,speed,space,6.872003771999971,,,,,,0.0,1.0,1.0,1.0,0.0,1.0,1.0,0.0,488.3563127749999,,,,,,,,,488.347983208,488.4452104049999,489.2400875809999,489.22939713000005,489.229732649,489.2400875809999,489.2400875809999,489.2400875809999,,489.9918051089999,,,,,,,,,,,,,,,,,,,,,,,,,,,,,,right,0.0,0.7430119169998761,,,,,,sub-142,1,random_dot,,
left,left,2.0,0.0,1.0,left,1.0,0.8112256039999011,,speed,space,6.872003771999971,,,,,,0.0,1.0,1.0,1.0,1.0,0.0,2.0,0.0,489.9978487369999,,,,,,,,,489.9921581639999,490.090215384,490.880291788,490.87384361,490.874171141,490.880291788,490.880291788,490.880291788,,491.6982080159999,,,,,,,,,,,,,,,,,,,,,,,,,,,,,,left,1.0,0.8112256039999011,,,,,,sub-142,1,random_dot,,
right,right,3.0,1.0,1.0,right,1.0,0.5817301750000752,,speed,space,6.872003771999971,,,,,,0.0,1.0,1.0,1.0,1.0,1.0,3.0,1.0,491.706607935,,,,,,,,,491.698479661,492.895363851,493.69007409000005,493.67926013300007,493.679594624,493.69007409000005,493.69007409000005,493.69007409000005,,494.2747763329999,,,,,,,,,,,,,,,,,,,,,,,,,,,,,,right,1.0,0.5817301750000752,,,,,,sub-142,1,random_dot,,
right,right,4.0,0.0,2.0,left,0.0,0.5258154340001511,,speed,space,6.872003771999971,,,,,,0.0,1.0,1.0,1.0,2.0,0.0,4.0,1.0,494.280509896,,,,,,,,,494.275055542,495.4735479219999,496.2641511689999,496.2575951280001,496.2579374949999,496.2641511689999,496.2641511689999,496.2641511689999,,496.7918696879999,,,,,,,,,,,,,,,,,,,,,,,,,,,,,,left,0.0,0.5258154340001511,,,,,,sub-142,1,random_dot,,
left,left,5.0,1.0,2.0,right,0.0,0.9230791239999688,,speed,space,6.872003771999971,,,,,,0.0,1.0,1.0,1.0,2.0,1.0,5.0,0.0,496.797777147,,,,,,,,,496.792167735,496.889829901,497.6804985879999,497.67391377600006,497.674247232,497.6804985879999,497.6804985879999,497.6804985879999,,498.607996045,,,,,,,,,,,,,,,,,,,,,,,,,,,,,,right,0.0,0.9230791239999688,,,,,,sub-142,1,random_dot,,
left,left,6.0,0.0,3.0,right,0.0,0.9470409929999732,,speed,space,6.872003771999971,,,,,,0.0,1.0,1.0,1.0,3.0,0.0,6.0,0.0,498.6140393129999,,,,,,,,,498.6082852949999,499.806679669,500.597775537,500.59088805400006,500.59122942,500.597775537,500.597775537,500.597775537,,501.5481593939999,,,,,,,,,,,,,,,,,,,,,,,,,,,,,,right,0.0,0.9470409929999732,,,,,,sub-142,1,random_dot,,
right,right,7.0,1.0,3.0,right,1.0,1.2862914279999131,,speed,space,6.872003771999971,,,,,,0.0,1.0,1.0,1.0,3.0,1.0,7.0,1.0,501.5567311309999,,,,,,,,,501.5484777310001,501.895351918,502.6898446319999,502.679307229,502.679651256,502.6898446319999,502.6898446319999,502.6898446319999,,503.9820079050001,,,,,,,,,,,,,,,,,,,,,,,,,,,,,,right,1.0,1.2862914279999131,,,,,,sub-142,1,random_dot,,
right,right,8.0,0.0,4.0,right,1.0,1.076400018999948,,speed,space,6.872003771999971,,,,,,0.0,1.0,1.0,1.0,4.0,0.0,8.0,1.0,503.98986277,,,,,,,,,503.98235974,505.178487912,505.973273162,505.962601551,505.962939135,505.973273162,505.973273162,505.973273162,,507.057975469,,,,,,,,,,,,,,,,,,,,,,,,,,,,,,right,1.0,1.076400018999948,,,,,,sub-142,1,random_dot,,
left,left,9.0,1.0,4.0,right,0.0,1.2400687699998798,,speed,space,6.872003771999971,,,,,,0.0,1.0,1.0,1.0,4.0,1.0,9.0,0.0,507.06390342300006,,,,,,,,,507.0582655369999,507.856894437,508.647408436,508.6407654089999,508.64111507100006,508.647408436,508.647408436,508.647408436,,509.8914954909999,,,,,,,,,,,,,,,,,,,,,,,,,,,,,,right,0.0,1.2400687699998798,,,,,,sub-142,1,random_dot,,
left,left,10.0,0.0,5.0,right,0.0,2.1570740459999342,,speed,space,6.872003771999971,,,,,,0.0,1.0,1.0,1.0,5.0,0.0,10.0,0.0,509.897459154,,,,,,,,,509.89178469600006,511.0900482709999,511.8808331129999,511.8741810909999,511.874521561,511.8808331129999,511.8808331129999,511.8808331129999,,514.0413279879999,,,,,,,,,,,,,,,,,,,,,,,,,,,,,,right,0.0,2.1570740459999342,,,,,,sub-142,1,random_dot,,
right,right,11.0,1.0,5.0,left,0.0,1.4787936729999274,,speed,space,6.872003771999971,,,,,,0.0,1.0,1.0,1.0,5.0,1.0,11.0,1.0,514.0474189049999,,,,,,,,,514.041611846,514.840246238,515.6307636829999,515.624426477,515.624760769,515.6307636829999,515.6307636829999,515.6307636829999,,517.11498381,,,,,,,,,,,,,,,,,,,,,,,,,,,,,,left,0.0,1.4787936729999274,,,,,,sub-142,1,random_dot,,
left,left,12.0,0.0,6.0,left,1.0,0.7654681179999443,,speed,space,6.872003771999971,,,,,,0.0,1.0,1.0,1.0,6.0,0.0,12.0,0.0,517.123661827,,,,,,,,,517.1152543549999,517.461718393,518.2568741069999,518.246014178,518.2463548839999,518.2568741069999,518.2568741069999,518.2568741069999,,519.024852215,,,,,,,,,,,,,,,,,,,,,,,,,,,,,,left,1.0,0.7654681179999443,,,,,,sub-142,1,random_dot,,
right,right,13.0,1.0,6.0,right,1.0,0.7018101319999914,,speed,space,6.872003771999971,,,,,,0.0,1.0,1.0,1.0,6.0,1.0,13.0,1.0,519.0307698409999,,,,,,,,,519.0251409769999,519.123393627,519.914513386,519.9077472219999,519.908087736,519.914513386,519.914513386,519.914513386,,520.6248590309999,,,,,,,,,,,,,,,,,,,,,,,,,,,,,,right,1.0,0.7018101319999914,,,,,,sub-142,1,random_dot,,
left,left,14.0,0.0,7.0,left,1.0,1.0712386440000046,,speed,space,6.872003771999971,,,,,,0.0,1.0,1.0,1.0,7.0,0.0,14.0,0.0,520.6310022349999,,,,,,,,,520.625143625,520.7236059950001,521.5140684329999,521.507415561,521.5077731629999,521.5140684329999,521.5140684329999,521.5140684329999,,522.591265497,,,,,,,,,,,,,,,,,,,,,,,,,,,,,,left,1.0,1.0712386440000046,,,,,,sub-142,1,random_dot,,
right,right,15.0,1.0,7.0,left,0.0,0.6979976739999074,,speed,space,6.872003771999971,,,,,,0.0,1.0,1.0,1.0,7.0,1.0,15.0,1.0,522.5972175320001,,,,,,,,,522.591555622,522.9402521279999,523.7308425179999,523.724317319,523.7246566389999,523.7308425179999,523.7308425179999,523.7308425179999,,524.4316575390001,,,,,,,,,,,,,,,,,,,,,,,,,,,,,,left,0.0,0.6979976739999074,,,,,,sub-142,1,random_dot,,
left,left,16.0,0.0,8.0,left,1.0,0.8332161309999719,,speed,space,6.872003771999971,,,,,,0.0,1.0,1.0,1.0,8.0,0.0,16.0,0.0,524.4399006470001,,,,,,,,,524.431945583,525.2289178859999,526.023688583,526.012932133,526.0132667979999,526.023688583,526.023688583,526.023688583,,526.8585170229999,,,,,,,,,,,,,,,,,,,,,,,,,,,,,,left,1.0,0.8332161309999719,,,,,,sub-142,1,random_dot,,
right,right,17.0,1.0,8.0,right,1.0,0.5358363989998907,,speed,space,6.872003771999971,,,,,,0.0,1.0,1.0,1.0,8.0,1.0,17.0,1.0,526.8644298239999,,,,,,,,,526.858813137,527.65689142,528.4474452939999,528.4410090050001,528.4413485069999,528.4474452939999,528.4474452939999,528.4474452939999,,528.9913330039999,,,,,,,,,,,,,,,,,,,,,,,,,,,,,,right,1.0,0.5358363989998907,,,,,,sub-142,1,random_dot,,
right,right,18.0,0.0,9.0,left,0.0,1.0167778649999946,,speed,space,6.872003771999971,,,,,,0.0,1.0,1.0,1.0,9.0,0.0,18.0,1.0,528.99731283,,,,,,,,,528.99162232,529.3403783249998,530.130183047,530.124012382,530.1243224949999,530.130183047,530.130183047,530.130183047,,531.148715802,,,,,,,,,,,,,,,,,,,,,,,,,,,,,,left,0.0,1.0167778649999946,,,,,,sub-142,1,random_dot,,
left,left,19.0,1.0,9.0,left,1.0,2.1403929859998243,,speed,space,6.872003771999971,,,,,,0.0,1.0,1.0,1.0,9.0,1.0,19.0,0.0,531.156719807,,,,,,,,,531.149013168,531.9454518549999,532.7401933219999,532.7297216229999,532.730055195,532.7401933219999,532.7401933219999,532.7401933219999,,534.882147407,,,,,,,,,,,,,,,,,,,,,,,,,,,,,,left,1.0,2.1403929859998243,,,,,,sub-142,1,random_dot,,
left,left,20.0,0.0,10.0,right,0.0,2.210722677999911,,speed,space,6.872003771999971,,,,,,0.0,1.0,1.0,1.0,10.0,0.0,20.0,0.0,534.889909474,,,,,,,,,534.882458909,535.2289215779999,536.0235954489999,536.012988811,536.013326369,536.0235954489999,536.0235954489999,536.0235954489999,,538.2416257129998,,,,,,,,,,,,,,,,,,,,,,,,,,,,,,right,0.0,2.210722677999911,,,,,,sub-142,1,random_dot,,
right,right,21.0,1.0,10.0,left,0.0,0.7810714639999787,,speed,space,6.872003771999971,,,,,,0.0,1.0,1.0,1.0,10.0,1.0,21.0,1.0,538.247453271,,,,,,,,,538.241920363,538.3403588229999,539.130994485,539.1244282789999,539.1247629949999,539.130994485,539.130994485,539.130994485,,539.9146590729999,,,,,,,,,,,,,,,,,,,,,,,,,,,,,,left,0.0,0.7810714639999787,,,,,,sub-142,1,random_dot,,
right,right,22.0,0.0,11.0,left,0.0,3.649407174000089,,speed,space,6.872003771999971,,,,,,0.0,1.0,1.0,1.0,11.0,0.0,22.0,1.0,539.923423487,,,,,,,,,539.9149641669999,541.1120635130001,541.9069177019999,541.8960263209999,541.8963616009999,541.9069177019999,541.9069177019999,541.9069177019999,,545.558300933,,,,,,,,,,,,,,,,,,,,,,,,,,,,,,left,0.0,3.649407174000089,,,,,,sub-142,1,random_dot,,
left,left,23.0,1.0,11.0,right,0.0,2.3625778179998638,,speed,space,6.872003771999971,,,,,,0.0,1.0,1.0,1.0,11.0,1.0,23.0,0.0,545.564321332,,,,,,,,,545.558610108,546.3570603119999,547.1473752679999,547.141171324,547.141451638,547.1473752679999,547.1473752679999,547.1473752679999,,549.5158196549999,,,,,,,,,,,,,,,,,,,,,,,,,,,,,,right,0.0,2.3625778179998638,,,,,,sub-142,1,random_dot,,
left,left,24.0,0.0,12.0,right,0.0,1.3618862069999975,,speed,space,6.872003771999971,,,,,,0.0,1.0,1.0,1.0,12.0,0.0,24.0,0.0,549.5237669640001,,,,,,,,,549.5161460719999,549.612116006,550.4070534959999,550.396127367,550.396465327,550.4070534959999,550.4070534959999,550.4070534959999,,551.7755621229999,,,,,,,,,,,,,,,,,,,,,,,,,,,,,,right,0.0,1.3618862069999975,,,,,,sub-142,1,random_dot,,
right,right,25.0,1.0,12.0,right,1.0,0.6420934660000057,,speed,space,6.872003771999971,,,,,,0.0,1.0,1.0,1.0,12.0,1.0,25.0,1.0,551.7818696929999,,,,,,,,,551.775869325,551.873601711,552.664225836,552.6577584919999,552.6581043799999,552.664225836,552.664225836,552.664225836,,553.3084522659999,,,,,,,,,,,,,,,,,,,,,,,,,,,,,,right,1.0,0.6420934660000057,,,,,,sub-142,1,random_dot,,
left,left,26.0,0.0,13.0,left,1.0,0.8328842369999165,,speed,space,6.872003771999971,,,,,,0.0,1.0,1.0,1.0,13.0,0.0,26.0,0.0,553.314484797,,,,,,,,,553.308755886,553.6571563749999,554.447608054,554.44101277,554.4413497759999,554.447608054,554.447608054,554.447608054,,555.2823644309999,,,,,,,,,,,,,,,,,,,,,,,,,,,,,,left,1.0,0.8328842369999165,,,,,,sub-142,1,random_dot,,
right,right,27.0,1.0,13.0,right,1.0,0.870681703999935,,speed,space,6.872003771999971,,,,,,0.0,1.0,1.0,1.0,13.0,1.0,27.0,1.0,555.2901895349999,,,,,,,,,555.282653584,555.3791911139999,556.1737561790001,556.163039111,556.163372258,556.1737561790001,556.1737561790001,556.1737561790001,,557.048565887,,,,,,,,,,,,,,,,,,,,,,,,,,,,,,right,1.0,0.870681703999935,,,,,,sub-142,1,random_dot,,
left,left,28.0,0.0,14.0,left,1.0,2.912396895999791,,speed,space,6.872003771999971,,,,,,0.0,1.0,1.0,1.0,14.0,0.0,28.0,0.0,557.0568873309999,,,,,,,,,557.0488569629999,557.1457794089999,557.9403799929999,557.9296823749999,557.9300186410001,557.9403799929999,557.9403799929999,557.9403799929999,,560.858301855,,,,,,,,,,,,,,,,,,,,,,,,,,,,,,left,1.0,2.912396895999791,,,,,,sub-142,1,random_dot,,
right,right,29.0,1.0,14.0,right,1.0,1.0473269920000805,,speed,space,6.872003771999971,,,,,,0.0,1.0,1.0,1.0,14.0,1.0,29.0,1.0,560.864192238,,,,,,,,,560.858603136,561.2071157089999,561.9976931619999,561.9911004569999,561.991436347,561.9976931619999,561.9976931619999,561.9976931619999,,563.0478756569998,,,,,,,,,,,,,,,,,,,,,,,,,,,,,,right,1.0,1.0473269920000805,,,,,,sub-142,1,random_dot,,
left,left,30.0,0.0,15.0,right,0.0,2.5247493920001034,,speed,space,6.872003771999971,,,,,,0.0,1.0,1.0,1.0,15.0,0.0,30.0,0.0,563.056716328,,,,,,,,,563.0481439969999,564.245568064,565.040400937,565.0297201010001,565.0299978159999,565.040400937,565.040400937,565.040400937,,567.575060913,,,,,,,,,,,,,,,,,,,,,,,,,,,,,,right,0.0,2.5247493920001034,,,,,,sub-142,1,random_dot,,
right,right,31.0,1.0,15.0,left,0.0,1.4201156589999755,,speed,space,6.872003771999971,,,,,,0.0,1.0,1.0,1.0,15.0,1.0,31.0,1.0,567.580829368,,,,,,,,,567.5753385379999,567.923848913,568.71474205,568.707964103,568.7083047669998,568.71474205,568.71474205,568.71474205,,570.1417766689999,,,,,,,,,,,,,,,,,,,,,,,,,,,,,,left,0.0,1.4201156589999755,,,,,,sub-142,1,random_dot,,
right,right,32.0,0.0,16.0,right,1.0,2.0527306989999943,,speed,space,6.872003771999971,,,,,,0.0,1.0,1.0,1.0,16.0,0.0,32.0,1.0,570.1476045530001,,,,,,,,,570.142068672,570.240293159,571.031470631,571.0246987759999,571.0250424989999,571.031470631,571.031470631,571.031470631,,573.0915683759999,,,,,,,,,,,,,,,,,,,,,,,,,,,,,,right,1.0,2.0527306989999943,,,,,,sub-142,1,random_dot,,
left,left,33.0,1.0,16.0,right,0.0,0.9630694850000054,,speed,space,6.872003771999971,,,,,,0.0,1.0,1.0,1.0,16.0,1.0,33.0,0.0,573.09734508,,,,,,,,,573.091864703,574.290605679,575.081302563,575.074492625,575.074826216,575.081302563,575.081302563,575.081302563,,576.0482514939999,,,,,,,,,,,,,,,,,,,,,,,,,,,,,,right,0.0,0.9630694850000054,,,,,,sub-142,1,random_dot,,
right,right,34.0,0.0,17.0,right,1.0,2.7026197830000456,,speed,space,6.872003771999971,,,,,,0.0,1.0,1.0,1.0,17.0,0.0,34.0,1.0,576.0568407199999,,,,,,,,,576.048536218,576.3954187219999,577.1905420779999,577.179665565,577.1800046779999,577.1905420779999,577.1905420779999,577.1905420779999,,579.8986962839999,,,,,,,,,,,,,,,,,,,,,,,,,,,,,,right,1.0,2.7026197830000456,,,,,,sub-142,1,random_dot,,
left,left,35.0,1.0,17.0,right,0.0,3.8036632569999256,,speed,space,6.872003771999971,,,,,,0.0,1.0,1.0,1.0,17.0,1.0,35.0,0.0,579.9068894749998,,,,,,,,,579.8989672289999,580.6955770049999,581.490439191,581.4788832029999,581.4791564719999,581.490439191,581.490439191,581.490439191,,585.2984250709999,,,,,,,,,,,,,,,,,,,,,,,,,,,,,,right,0.0,3.8036632569999256,,,,,,sub-142,1,random_dot,,
right,right,36.0,0.0,18.0,left,0.0,2.2389672599999813,,speed,space,6.872003771999971,,,,,,0.0,1.0,1.0,1.0,18.0,0.0,36.0,1.0,585.307082455,,,,,,,,,585.2987052829999,585.395487237,586.190648643,586.180380427,586.180726303,586.190648643,586.190648643,586.190648643,,588.4319436409999,,,,,,,,,,,,,,,,,,,,,,,,,,,,,,left,0.0,2.2389672599999813,,,,,,sub-142,1,random_dot,,
left,left,37.0,1.0,18.0,left,1.0,13.277000691000012,,speed,space,6.872003771999971,,,,,,0.0,1.0,1.0,1.0,18.0,1.0,37.0,0.0,588.4402160489999,,,,,,,,,588.4322156819999,589.629127705,590.4239497809999,590.413530392,590.413864981,590.4239497809999,590.4239497809999,590.4239497809999,595.4074277899999,603.70888363,,,,,,,,,,,,,,,,,,,,,,,,,,,,,,left,1.0,13.277000691000012,,,,,,sub-142,1,random_dot,,
right,right,38.0,0.0,19.0,left,0.0,2.282247094000013,,speed,space,6.872003771999971,,,,,,0.0,1.0,1.0,1.0,19.0,0.0,38.0,1.0,603.714860633,,,,,,,,,603.709173794,604.507139458,605.298184493,605.291460941,605.291801869,605.298184493,605.298184493,605.298184493,,607.582014135,,,,,,,,,,,,,,,,,,,,,,,,,,,,,,left,0.0,2.282247094000013,,,,,,sub-142,1,random_dot,,
left,left,39.0,1.0,19.0,right,0.0,2.0921020329999465,,speed,space,6.872003771999971,,,,,,0.0,1.0,1.0,1.0,19.0,1.0,39.0,0.0,607.5904235190001,,,,,,,,,607.5823138119999,608.778212897,609.574223485,609.5635774919999,609.5639125299999,609.574223485,609.574223485,609.574223485,,611.675665578,,,,,,,,,,,,,,,,,,,,,,,,,,,,,,right,0.0,2.0921020329999465,,,,,,sub-142,1,random_dot,,
right,right,40.0,0.0,20.0,right,1.0,2.827925647000029,,speed,space,6.872003771999971,,,,,,0.0,1.0,1.0,1.0,20.0,0.0,40.0,1.0,611.681590462,,,,,,,,,611.6759421869999,611.7741944289999,612.5647747840001,612.5581284929999,612.558463884,612.5647747840001,612.5647747840001,612.5647747840001,,615.398998846,,,,,,,,,,,,,,,,,,,,,,,,,,,,,,right,1.0,2.827925647000029,,,,,,sub-142,1,random_dot,,
left,left,41.0,1.0,20.0,right,0.0,1.6191962070001864,,speed,space,6.872003771999971,,,,,,0.0,1.0,1.0,1.0,20.0,1.0,41.0,0.0,615.4070721159999,,,,,,,,,615.3992691809999,616.195856237,616.990636019,616.980085591,616.980419279,616.990636019,616.990636019,616.990636019,,618.615493974,,,,,,,,,,,,,,,,,,,,,,,,,,,,,,right,0.0,1.6191962070001864,,,,,,sub-142,1,random_dot,,
right,right,42.0,0.0,21.0,right,1.0,5.454494253000121,,speed,space,6.872003771999971,,,,,,0.0,1.0,1.0,1.0,21.0,0.0,42.0,1.0,618.6238517289999,,,,,,,,,618.615769324,619.412467029,620.2073742719999,620.196721112,620.1970532129999,620.2073742719999,620.2073742719999,620.2073742719999,625.190825039,625.664890693,,,,,,,,,,,,,,,,,,,,,,,,,,,,,,right,1.0,5.454494253000121,,,,,,sub-142,1,random_dot,,
left,left,43.0,1.0,21.0,right,0.0,5.506330768999987,,speed,space,6.872003771999971,,,,,,0.0,1.0,1.0,1.0,21.0,1.0,43.0,0.0,625.673878697,,,,,,,,,625.6651792769999,625.762948633,626.5573848039999,626.546490192,626.5467701579998,626.5573848039999,626.5573848039999,626.5573848039999,631.540914031,632.06544168,,,,,,,,,,,,,,,,,,,,,,,,,,,,,,right,0.0,5.506330768999987,,,,,,sub-142,1,random_dot,,
left,left,44.0,0.0,22.0,right,0.0,2.7635397540000213,,speed,space,6.872003771999971,,,,,,0.0,1.0,1.0,1.0,22.0,0.0,44.0,0.0,632.073933335,,,,,,,,,632.0657520099999,632.4128203509999,633.2074287549999,633.1967058129999,633.1970462310001,633.2074287549999,633.2074287549999,633.2074287549999,,635.975601999,,,,,,,,,,,,,,,,,,,,,,,,,,,,,,right,0.0,2.7635397540000213,,,,,,sub-142,1,random_dot,,
right,right,45.0,1.0,22.0,right,1.0,1.0120462610000232,,speed,space,6.872003771999971,,,,,,0.0,1.0,1.0,1.0,22.0,1.0,45.0,1.0,635.981449592,,,,,,,,,635.9758928019999,636.7742474019999,637.5648861709999,637.558248365,637.5585869399999,637.5648861709999,637.5648861709999,637.5648861709999,,638.58232286,,,,,,,,,,,,,,,,,,,,,,,,,,,,,,right,1.0,1.0120462610000232,,,,,,sub-142,1,random_dot,,
right,right,46.0,0.0,23.0,left,0.0,4.316753786000163,,speed,space,6.872003771999971,,,,,,0.0,1.0,1.0,1.0,23.0,0.0,46.0,1.0,638.5907853029998,,,,,,,,,638.5826091869999,639.3793499230001,640.1740651069999,640.163860827,640.1641973149999,640.1740651069999,640.1740651069999,640.1740651069999,,644.4924266779999,,,,,,,,,,,,,,,,,,,,,,,,,,,,,,left,0.0,4.316753786000163,,,,,,sub-142,1,random_dot,,
left,left,47.0,1.0,23.0,left,1.0,0.8709208549998948,,speed,space,6.872003771999971,,,,,,0.0,1.0,1.0,1.0,23.0,1.0,47.0,0.0,644.4990381999999,,,,,,,,,644.492726249,645.2910445059999,646.081537198,646.0748901249999,646.0752335959999,646.081537198,646.081537198,646.081537198,,646.9589817179999,,,,,,,,,,,,,,,,,,,,,,,,,,,,,,left,1.0,0.8709208549998948,,,,,,sub-142,1,random_dot,,
left,left,48.0,0.0,24.0,right,0.0,2.5209711350000816,,speed,space,6.872003771999971,,,,,,0.0,1.0,1.0,1.0,24.0,0.0,48.0,0.0,646.965221313,,,,,,,,,646.9593129729999,648.1575608850001,648.948742844,648.9418643679999,648.9422067539999,648.948742844,648.948742844,648.948742844,,651.4755099399999,,,,,,,,,,,,,,,,,,,,,,,,,,,,,,right,0.0,2.5209711350000816,,,,,,sub-142,1,random_dot,,
right,right,49.0,1.0,24.0,right,1.0,2.409693743999924,,speed,space,6.872003771999971,,,,,,0.0,1.0,1.0,1.0,24.0,1.0,49.0,1.0,651.4813461009999,,,,,,,,,651.4758014399999,652.6745787079999,653.464671766,653.458196611,653.4585570639999,653.464671766,653.464671766,653.464671766,,655.8760362359999,,,,,,,,,,,,,,,,,,,,,,,,,,,,,,right,1.0,2.409693743999924,,,,,,sub-142,1,random_dot,,
right,right,50.0,0.0,25.0,right,1.0,0.9328173450001032,,speed,space,6.872003771999971,,,,,,0.0,1.0,1.0,1.0,25.0,0.0,50.0,1.0,655.8821092629998,,,,,,,,,655.876335763,657.074497565,657.8649440719998,657.858494931,657.858775621,657.8649440719998,657.8649440719998,657.8649440719998,,658.7993581829999,,,,,,,,,,,,,,,,,,,,,,,,,,,,,,right,1.0,0.9328173450001032,,,,,,sub-142,1,random_dot,,
left,left,51.0,1.0,25.0,right,0.0,4.224816726999961,,speed,space,6.872003771999971,,,,,,0.0,1.0,1.0,1.0,25.0,1.0,51.0,0.0,658.8075722169999,,,,,,,,,658.799661063,659.1465011359999,659.940952342,659.9304869529999,659.9308171309999,659.940952342,659.940952342,659.940952342,,664.1762659849999,,,,,,,,,,,,,,,,,,,,,,,,,,,,,,right,0.0,4.224816726999961,,,,,,sub-142,1,random_dot,,
right,right,52.0,0.0,26.0,left,0.0,7.433841910999945,,speed,space,6.872003771999971,,,,,,0.0,1.0,1.0,1.0,26.0,0.0,52.0,1.0,664.182502912,,,,,,,,,664.176624639,664.2741733799999,665.064895966,665.0584445,665.0588247139999,665.064895966,665.064895966,665.064895966,670.047181206,672.509598012,,,,,,,,,,,,,,,,,,,,,,,,,,,,,,left,0.0,7.433841910999945,,,,,,sub-142,1,random_dot,,
left,left,53.0,1.0,26.0,right,0.0,0.3211851400001251,,speed,space,6.872003771999971,,,,,,0.0,1.0,1.0,1.0,26.0,1.0,53.0,0.0,672.5161512479999,,,,,,,,,672.5099721049999,673.307634432,674.0972519100001,674.091294518,674.0915587519999,674.0972519100001,674.0972519100001,674.0972519100001,,674.425564617,,,,,,,,,,,,,,,,,,,,,,,,,,,,,,right,0.0,0.3211851400001251,,,,,,sub-142,1,random_dot,,
left,left,54.0,0.0,27.0,right,0.0,0.7962915769999199,,speed,space,6.872003771999971,,,,,,0.0,1.0,1.0,1.0,27.0,0.0,54.0,0.0,674.4314125789999,,,,,,,,,674.425842162,674.7745052129999,675.5652120119998,675.5583682659999,675.558708492,675.5652120119998,675.5652120119998,675.5652120119998,,676.36572366,,,,,,,,,,,,,,,,,,,,,,,,,,,,,,right,0.0,0.7962915769999199,,,,,,sub-142,1,random_dot,,
right,right,55.0,1.0,27.0,right,1.0,0.642827349999834,,speed,space,6.872003771999971,,,,,,0.0,1.0,1.0,1.0,27.0,1.0,55.0,1.0,676.374245301,,,,,,,,,676.3659971719999,676.7128820519999,677.5077688839999,677.4970834769999,677.497419259,677.5077688839999,677.5077688839999,677.5077688839999,,678.15925619,,,,,,,,,,,,,,,,,,,,,,,,,,,,,,right,1.0,0.642827349999834,,,,,,sub-142,1,random_dot,,
left,left,56.0,0.0,28.0,right,0.0,1.992971936999993,,speed,space,6.872003771999971,,,,,,0.0,1.0,1.0,1.0,28.0,0.0,56.0,0.0,678.165402434,,,,,,,,,678.159550586,679.3577143129999,680.148217078,680.1418055909999,680.1421422839999,680.148217078,680.148217078,680.148217078,,682.1430920779999,,,,,,,,,,,,,,,,,,,,,,,,,,,,,,right,0.0,1.992971936999993,,,,,,sub-142,1,random_dot,,
right,right,57.0,1.0,28.0,right,1.0,1.7513393879999055,,speed,space,6.872003771999971,,,,,,0.0,1.0,1.0,1.0,28.0,1.0,57.0,1.0,682.149103814,,,,,,,,,682.1433902649999,682.941265055,683.7319064139999,683.7252759989999,683.7256280899999,683.7319064139999,683.7319064139999,683.7319064139999,,685.4925893679999,,,,,,,,,,,,,,,,,,,,,,,,,,,,,,right,1.0,1.7513393879999055,,,,,,sub-142,1,random_dot,,
left,left,58.0,0.0,29.0,left,1.0,0.6135678279999865,,speed,space,6.872003771999971,,,,,,0.0,1.0,1.0,1.0,29.0,0.0,58.0,0.0,685.4984686369999,,,,,,,,,685.492876365,686.2913756599999,687.0817504689999,687.0752198149999,687.075553803,687.0817504689999,687.0817504689999,687.0817504689999,,687.6990812409999,,,,,,,,,,,,,,,,,,,,,,,,,,,,,,left,1.0,0.6135678279999865,,,,,,sub-142,1,random_dot,,
right,right,59.0,1.0,29.0,right,1.0,0.9804199659999996,,speed,space,6.872003771999971,,,,,,0.0,1.0,1.0,1.0,29.0,1.0,59.0,1.0,687.707600967,,,,,,,,,687.6993464299999,688.49642662,689.2913073249999,689.2804677269999,689.2808028029999,689.2913073249999,689.2913073249999,689.2913073249999,,690.2757631039999,,,,,,,,,,,,,,,,,,,,,,,,,,,,,,right,1.0,0.9804199659999996,,,,,,sub-142,1,random_dot,,
,,1.0,1.0,0.0,,,,,speed,space,6.872003771999971,,,,,,0.0,1.0,1.0,1.0,,,,,,,,,,,,,,,,,,,,,,,,,,,,,,,,,,,,,,,,,,,,,,,,,,,,,,,,,,,,,sub-142,1,random_dot,,
,,,,,,,,,,,,,,,,,,,,,,,,,,,,,,,,,,,,,,,,,,,,,,,,,,,,,,,,,,,,,,,,,,,,,,,,,,,,,690.279898822,690.287183718,695.2795039149999,695.275247085,sub-142,1,random_dot,,
