wordCTK,colorCTK,corrAnsCTK,congruentCTK,thisN,thisTrialN,thisRepN,keyResp_CTK.keys,keyResp_CTK.corr,keyResp_CTK.rt,keyResp_CTK.duration,wordPractice,colorPractice,corrAnsPractice,congruentPractice,respPractice.keys,respPractice.corr,respPractice.rt,respPractice.duration,word,color,corrAns,congruent,keyResp_test_run.keys,keyResp_test_run.corr,keyResp_test_run.rt,keyResp_test_run.duration,trials_CTK.thisRepN,trials_CTK.thisTrialN,trials_CTK.thisN,trials_CTK.thisIndex,trials_practice.thisRepN,trials_practice.thisTrialN,trials_practice.thisN,trials_practice.thisIndex,trials_test.thisRepN,trials_test.thisTrialN,trials_test.thisN,trials_test.thisIndex,thisRow.t,notes,instruction.started,instr_text.started,instr_image.started,instr_resp.started,instruction.stopped,instr_resp.keys,instr_resp.rt,instr_resp.duration,instr_color_to_key.started,instr_ctk.started,resp_ctk.started,instr_color_to_key.stopped,resp_ctk.keys,resp_ctk.rt,resp_ctk.duration,ITI.started,fixcross.started,fixcross.stopped,ITI.stopped,color_to_key_run.started,stimulus_CTK.started,keyResp_CTK.started,color_to_key_run.stopped,trials_CTK.keyResp_CTK.keys,trials_CTK.keyResp_CTK.corr,trials_CTK.keyResp_CTK.rt,trials_CTK.keyResp_CTK.duration,instr_practice.started,instr_practice_text.started,instr_practice_resp.started,instr_practice.stopped,instr_practice_resp.keys,instr_practice_resp.rt,instr_practice_resp.duration,practice_run.started,stimulus_practice.started,respPractice.started,practice_run.stopped,trials_practice.respPractice.keys,trials_practice.respPractice.corr,trials_practice.respPractice.rt,trials_practice.respPractice.duration,feedback.started,textFeedback.started,feedback.stopped,textFeedback.stopped,instr_test.started,instr_test_text.started,instr_test_resp.started,instr_test.stopped,instr_test_resp.keys,instr_test_resp.rt,instr_test_resp.duration,test_run.started,stimulus_test_run.started,keyResp_test_run.started,test_run.stopped,trials_test.keyResp_test_run.keys,trials_test.keyResp_test_run.corr,trials_test.keyResp_test_run.rt,trials_test.keyResp_test_run.duration,goodbye.started,textGoodbye.started,textGoodbye.stopped,goodbye.stopped,participant,session,date,expName,psychopyVersion,frameRate,expStart
,,,,,,,,,,,,,,,,,,,,,,,,,,,,,,,,,,,,,,,,,0.001666,0.0489869,0.0489869,0.0489869,35.5583445,space,35.4987295,None,,,,,,,,,,,,,,,,,,,,,,,,,,,,,,,,,,,,,,,,,,,,,,,,,,,,,,,,,,sub-010,1,2025-03-13_13h25.45.472,stroop_test,04.02.2024,60.0891483,2025-03-13 13h26.01.198274 +0100
,,,,,,,,,,,,,,,,,,,,,,,,,,,,,,,,,,,,,,,,,,,,,,,,,35.5584594,35.5724844,35.5724844,40.0751344,space,4.4896806,None,,,,,,,,,,,,,,,,,,,,,,,,,,,,,,,,,,,,,,,,,,,,,,,,,,,sub-010,1,2025-03-13_13h25.45.472,stroop_test,04.02.2024,60.0891483,2025-03-13 13h26.01.198274 +0100
test,yellow,g,1,0,0,0,g,1,2.2836592,None,,,,,,,,,,,,,,,,,0,0,0,1,,,,,,,,,40.0953246,,,,,,,,,,,,,,,,,40.0920003,40.1888714,40.994345,40.9738772,40.9873715,40.994345,40.994345,43.2915877,g,1,2.2836592,None,,,,,,,,,,,,,,,,,,,,,,,,,,,,,,,,,,,,,,,sub-010,1,2025-03-13_13h25.45.472,stroop_test,04.02.2024,60.0891483,2025-03-13 13h26.01.198274 +0100
test,red,r,1,1,1,0,b,0,0.6426869,None,,,,,,,,,,,,,,,,,0,1,1,0,,,,,,,,,43.3051918,,,,,,,,,,,,,,,,,43.2922507,44.505498,45.3055679,45.2896306,45.2905287,45.3055679,45.3055679,45.9583042,b,0,0.6426869,None,,,,,,,,,,,,,,,,,,,,,,,,,,,,,,,,,,,,,,,sub-010,1,2025-03-13_13h25.45.472,stroop_test,04.02.2024,60.0891483,2025-03-13 13h26.01.198274 +0100
test,blue,b,1,2,2,0,b,1,1.6866287,None,,,,,,,,,,,,,,,,,0,2,2,2,,,,,,,,,45.9716248,,,,,,,,,,,,,,,,,45.9589053,46.3220623,47.1217876,47.107555,47.1085631,47.1217876,47.1217876,48.8246677,b,1,1.6866287,None,,,,,,,,,,,,,,,,,,,,,,,,,,,,,,,,,,,,,,,sub-010,1,2025-03-13_13h25.45.472,stroop_test,04.02.2024,60.0891483,2025-03-13 13h26.01.198274 +0100
test,red,r,1,3,0,1,r,1,1.1553949,None,,,,,,,,,,,,,,,,,1,0,3,0,,,,,,,,,48.8381577,,,,,,,,,,,,,,,,,48.8254505,49.6387096,50.4384026,50.4237448,50.4249034,50.4384026,50.4384026,51.6076516,r,1,1.1553949,None,,,,,,,,,,,,,,,,,,,,,,,,,,,,,,,,,,,,,,,sub-010,1,2025-03-13_13h25.45.472,stroop_test,04.02.2024,60.0891483,2025-03-13 13h26.01.198274 +0100
test,yellow,g,1,4,1,1,g,1,0.6597345,None,,,,,,,,,,,,,,,,,1,1,4,1,,,,,,,,,51.6212178,,,,,,,,,,,,,,,,,51.6083334,51.7217131,52.5215098,52.5063531,52.5073842,52.5215098,52.5215098,53.1913058,g,1,0.6597345,None,,,,,,,,,,,,,,,,,,,,,,,,,,,,,,,,,,,,,,,sub-010,1,2025-03-13_13h25.45.472,stroop_test,04.02.2024,60.0891483,2025-03-13 13h26.01.198274 +0100
test,blue,b,1,5,2,1,b,1,1.1206159,None,,,,,,,,,,,,,,,,,1,2,5,2,,,,,,,,,53.205077,,,,,,,,,,,,,,,,,53.1919065,53.3052132,54.1049284,54.0902398,54.0911705,54.1049284,54.1049284,55.2400821,b,1,1.1206159,None,,,,,,,,,,,,,,,,,,,,,,,,,,,,,,,,,,,,,,,sub-010,1,2025-03-13_13h25.45.472,stroop_test,04.02.2024,60.0891483,2025-03-13 13h26.01.198274 +0100
test,yellow,g,1,6,0,2,g,1,1.5398701,None,,,,,,,,,,,,,,,,,2,0,6,1,,,,,,,,,55.2545955,,,,,,,,,,,,,,,,,55.2405097,55.6047683,56.4048537,56.3894166,56.3903606,56.4048537,56.4048537,57.9567031,g,1,1.5398701,None,,,,,,,,,,,,,,,,,,,,,,,,,,,,,,,,,,,,,,,sub-010,1,2025-03-13_13h25.45.472,stroop_test,04.02.2024,60.0891483,2025-03-13 13h26.01.198274 +0100
test,blue,b,1,7,1,2,r,0,0.7931542,None,,,,,,,,,,,,,,,,,2,1,7,2,,,,,,,,,57.9713777,,,,,,,,,,,,,,,,,57.9572663,58.3214444,59.1216553,59.1070579,59.1078975,59.1216553,59.1216553,59.9228393,r,0,0.7931542,None,,,,,,,,,,,,,,,,,,,,,,,,,,,,,,,,,,,,,,,sub-010,1,2025-03-13_13h25.45.472,stroop_test,04.02.2024,60.0891483,2025-03-13 13h26.01.198274 +0100
test,red,r,1,8,2,2,b,0,1.0576409,None,,,,,,,,,,,,,,,,,2,2,8,0,,,,,,,,,59.9380079,,,,,,,,,,,,,,,,,59.9232805,60.7379832,61.5377737,61.5219399,61.5225902,61.5377737,61.5377737,62.6066389,b,0,1.0576409,None,,,,,,,,,,,,,,,,,,,,,,,,,,,,,,,,,,,,,,,sub-010,1,2025-03-13_13h25.45.472,stroop_test,04.02.2024,60.0891483,2025-03-13 13h26.01.198274 +0100
test,red,r,1,9,0,3,r,1,1.119024,None,,,,,,,,,,,,,,,,,3,0,9,0,,,,,,,,,62.6209555,,,,,,,,,,,,,,,,,62.6071343,63.8213429,64.6213202,64.6059217,64.6068384,64.6213202,64.6213202,65.756874,r,1,1.119024,None,,,,,,,,,,,,,,,,,,,,,,,,,,,,,,,,,,,,,,,sub-010,1,2025-03-13_13h25.45.472,stroop_test,04.02.2024,60.0891483,2025-03-13 13h26.01.198274 +0100
test,yellow,g,1,10,1,3,g,1,2.0968731,None,,,,,,,,,,,,,,,,,3,1,10,1,,,,,,,,,65.7710635,,,,,,,,,,,,,,,,,65.7575782,66.9709213,67.7710326,67.755833,67.7568187,67.7710326,67.7710326,69.8717032,g,1,2.0968731,None,,,,,,,,,,,,,,,,,,,,,,,,,,,,,,,,,,,,,,,sub-010,1,2025-03-13_13h25.45.472,stroop_test,04.02.2024,60.0891483,2025-03-13 13h26.01.198274 +0100
test,blue,b,1,11,2,3,b,1,1.6874567,None,,,,,,,,,,,,,,,,,3,2,11,2,,,,,,,,,69.8869101,,,,,,,,,,,,,,,,,69.8720273,70.2207271,71.0209255,71.0056831,71.0066791,71.0209255,71.0209255,72.7237047,b,1,1.6874567,None,,,,,,,,,,,,,,,,,,,,,,,,,,,,,,,,,,,,,,,sub-010,1,2025-03-13_13h25.45.472,stroop_test,04.02.2024,60.0891483,2025-03-13 13h26.01.198274 +0100
,,,,,,,,,,,,,,,,,,,,,,,,,,,,,,,,,,,,,,,,,,,,,,,,,,,,,,,,,,,,,,,,,,,,72.7239822,72.7370749,72.7370749,74.7062138,space,1.9607218,None,,,,,,,,,,,,,,,,,,,,,,,,,,,,,,,,sub-010,1,2025-03-13_13h25.45.472,stroop_test,04.02.2024,60.0891483,2025-03-13 13h26.01.198274 +0100
,,,,0,0,0,,,,,rot,blue,b,0,r,0,0.9769487,None,,,,,,,,,,,,,0,0,0,2,,,,,74.723296,,,,,,,,,,,,,,,,,74.7202883,75.0704753,75.8754913,75.8558162,,,,,,,,,,,,,,,,75.8684831,75.8754913,75.8754913,76.8568231,r,0,0.9769487,None,76.8738505,76.8820458,77.8708064,,,,,,,,,,,,,,,,,,,,,sub-010,1,2025-03-13_13h25.45.472,stroop_test,04.02.2024,60.0891483,2025-03-13 13h26.01.198274 +0100
,,,,1,1,0,,,,,blau,red,r,0,b,0,1.2188669,None,,,,,,,,,,,,,0,1,1,4,,,,,77.8870068,,,,,,,,,,,,,,,,,77.8715586,78.220564,79.0236275,79.005318,,,,,,,,,,,,,,,,79.0166351,79.0236275,79.0236275,80.2555941,b,0,1.2188669,None,80.2565251,80.2701639,81.2551097,81.2703404,,,,,,,,,,,,,,,,,,,,sub-010,1,2025-03-13_13h25.45.472,stroop_test,04.02.2024,60.0891483,2025-03-13 13h26.01.198274 +0100
,,,,2,2,0,,,,,blau,blue,b,1,b,1,3.6490917,None,,,,,,,,,,,,,0,2,2,6,,,,,81.2703404,,,,,,,,,,,,,,,,,81.2558058,82.070183,82.8702109,82.8550336,,,,,,,,,,,,,,,,82.8558919,82.8702109,82.8702109,86.5232667,b,1,3.6490917,None,86.5349437,86.5420435,87.5372012,,,,,,,,,,,,,,,,,,,,,sub-010,1,2025-03-13_13h25.45.472,stroop_test,04.02.2024,60.0891483,2025-03-13 13h26.01.198274 +0100
,,,,3,3,0,,,,,rot,red,r,1,r,1,0.8639493,None,,,,,,,,,,,,,0,3,3,0,,,,,87.5533365,,,,,,,,,,,,,,,,,87.5380214,87.6365775,88.4362241,88.4209108,,,,,,,,,,,,,,,,88.4262074,88.4362241,88.4362241,89.30594,r,1,0.8639493,None,89.3073353,89.3195832,90.3048296,90.3198582,,,,,,,,,,,,,,,,,,,,sub-010,1,2025-03-13_13h25.45.472,stroop_test,04.02.2024,60.0891483,2025-03-13 13h26.01.198274 +0100
,,,,4,4,0,,,,,gelb,red,r,0,r,1,1.2826447,None,,,,,,,,,,,,,0,4,4,8,,,,,90.3198582,,,,,,,,,,,,,,,,,90.3056883,90.4199306,91.219366,91.2038475,,,,,,,,,,,,,,,,91.2089639,91.219366,91.219366,92.5063617,r,1,1.2826447,None,92.5073414,92.5192763,93.504416,93.519736,,,,,,,,,,,,,,,,,,,,sub-010,1,2025-03-13_13h25.45.472,stroop_test,04.02.2024,60.0891483,2025-03-13 13h26.01.198274 +0100
,,,,5,5,0,,,,,blau,blue,b,1,b,1,0.8683938,None,,,,,,,,,,,,,0,5,5,5,,,,,93.519736,,,,,,,,,,,,,,,,,93.5049978,94.719658,95.519228,95.5042662,,,,,,,,,,,,,,,,95.511452,95.519228,95.519228,96.4043091,b,1,0.8683938,None,96.4051917,96.419003,97.4043128,97.4193306,,,,,,,,,,,,,,,,,,,,sub-010,1,2025-03-13_13h25.45.472,stroop_test,04.02.2024,60.0891483,2025-03-13 13h26.01.198274 +0100
,,,,6,6,0,,,,,gelb,yellow,g,1,g,1,2.4806266,None,,,,,,,,,,,,,0,6,6,11,,,,,97.4193306,,,,,,,,,,,,,,,,,97.4051564,98.6194899,99.4188796,99.4040817,,,,,,,,,,,,,,,,99.4109174,99.4188796,99.4188796,101.9057687,g,1,2.4806266,None,101.9069066,101.9189532,102.9037739,102.9193362,,,,,,,,,,,,,,,,,,,,sub-010,1,2025-03-13_13h25.45.472,stroop_test,04.02.2024,60.0891483,2025-03-13 13h26.01.198274 +0100
,,,,7,7,0,,,,,rot,yellow,g,0,g,1,1.4529854,None,,,,,,,,,,,,,0,7,7,3,,,,,102.9193362,,,,,,,,,,,,,,,,,102.9044181,104.1191267,104.9187751,104.9037735,,,,,,,,,,,,,,,,104.9100231,104.9187751,104.9187751,106.3882147,g,1,1.4529854,None,106.3892708,106.4019691,107.3868302,107.402454,,,,,,,,,,,,,,,,,,,,sub-010,1,2025-03-13_13h25.45.472,stroop_test,04.02.2024,60.0891483,2025-03-13 13h26.01.198274 +0100
,,,,8,8,0,,,,,gelb,blue,b,0,b,1,2.6754665,None,,,,,,,,,,,,,0,8,8,9,,,,,107.402454,,,,,,,,,,,,,,,,,107.3874555,107.7520796,108.5518876,108.5363495,,,,,,,,,,,,,,,,108.5405847,108.5518876,108.5518876,111.238151,b,1,2.6754665,None,111.239125,111.2521511,112.2365601,112.2519742,,,,,,,,,,,,,,,,,,,,sub-010,1,2025-03-13_13h25.45.472,stroop_test,04.02.2024,60.0891483,2025-03-13 13h26.01.198274 +0100
,,,,9,9,0,,,,,blau,yellow,g,0,g,1,2.7299188,None,,,,,,,,,,,,,0,9,9,7,,,,,112.2519742,,,,,,,,,,,,,,,,,112.2371297,113.0520626,113.8516526,113.8365636,,,,,,,,,,,,,,,,113.8437797,113.8516526,113.8516526,116.5871067,g,1,2.7299188,None,116.5879855,116.601501,117.5867466,117.602006,,,,,,,,,,,,,,,,,,,,sub-010,1,2025-03-13_13h25.45.472,stroop_test,04.02.2024,60.0891483,2025-03-13 13h26.01.198274 +0100
,,,,10,10,0,,,,,rot,red,r,1,r,1,0.8275288,None,,,,,,,,,,,,,0,10,10,1,,,,,117.602006,,,,,,,,,,,,,,,,,117.587441,118.4016583,119.2017704,119.1864547,,,,,,,,,,,,,,,,119.1924477,119.2017704,119.2017704,120.0372485,r,1,0.8275288,None,120.0379821,120.0516172,121.0360216,121.0513298,,,,,,,,,,,,,,,,,,,,sub-010,1,2025-03-13_13h25.45.472,stroop_test,04.02.2024,60.0891483,2025-03-13 13h26.01.198274 +0100
,,,,11,11,0,,,,,gelb,yellow,g,1,g,1,1.5844739,None,,,,,,,,,,,,,0,11,11,10,,,,,121.0513298,,,,,,,,,,,,,,,,,121.0366975,121.1515027,121.9512337,121.9354315,,,,,,,,,,,,,,,,121.9401736,121.9512337,121.9512337,123.5385683,g,1,1.5844739,None,123.5394504,123.5512134,124.5363258,124.5514253,,,,,,,,,,,,,,,,,,,,sub-010,1,2025-03-13_13h25.45.472,stroop_test,04.02.2024,60.0891483,2025-03-13 13h26.01.198274 +0100
,,,,12,0,1,,,,,rot,blue,b,0,b,1,1.6570564,None,,,,,,,,,,,,,1,0,12,2,,,,,124.5514253,,,,,,,,,,,,,,,,,124.5373263,125.7514913,126.5509237,126.5355015,,,,,,,,,,,,,,,,126.5404973,126.5509237,126.5509237,128.2189783,b,1,1.6570564,None,128.21935,128.2342152,129.2182736,129.2341222,,,,,,,,,,,,,,,,,,,,sub-010,1,2025-03-13_13h25.45.472,stroop_test,04.02.2024,60.0891483,2025-03-13 13h26.01.198274 +0100
,,,,13,1,1,,,,,blau,yellow,g,0,g,1,1.211945,None,,,,,,,,,,,,,1,1,13,7,,,,,129.2341222,,,,,,,,,,,,,,,,,129.2187168,130.0332111,130.83345,130.8186571,,,,,,,,,,,,,,,,130.8250386,130.83345,130.83345,132.0537276,g,1,1.211945,None,132.0550611,132.0668528,133.0516432,133.0669631,,,,,,,,,,,,,,,,,,,,sub-010,1,2025-03-13_13h25.45.472,stroop_test,04.02.2024,60.0891483,2025-03-13 13h26.01.198274 +0100
,,,,14,2,1,,,,,gelb,red,r,0,r,1,0.5493305,None,,,,,,,,,,,,,1,2,14,8,,,,,133.0669631,,,,,,,,,,,,,,,,,133.0522881,133.167178,133.9669106,133.9519528,,,,,,,,,,,,,,,,133.9594392,133.9669106,133.9669106,134.5205619,r,1,0.5493305,None,134.5215792,134.5332391,135.5184577,135.5332951,,,,,,,,,,,,,,,,,,,,sub-010,1,2025-03-13_13h25.45.472,stroop_test,04.02.2024,60.0891483,2025-03-13 13h26.01.198274 +0100
,,,,15,3,1,,,,,blau,blue,b,1,b,1,0.6636215,None,,,,,,,,,,,,,1,3,15,6,,,,,135.5332951,,,,,,,,,,,,,,,,,135.5190551,136.3339273,137.1336088,137.1185794,,,,,,,,,,,,,,,,137.1247999,137.1336088,137.1336088,137.8028219,b,1,0.6636215,None,137.8038266,137.8169245,138.8020334,138.8168222,,,,,,,,,,,,,,,,,,,,sub-010,1,2025-03-13_13h25.45.472,stroop_test,04.02.2024,60.0891483,2025-03-13 13h26.01.198274 +0100
,,,,16,4,1,,,,,gelb,yellow,g,1,g,1,0.5169107,None,,,,,,,,,,,,,1,4,16,11,,,,,138.8168222,,,,,,,,,,,,,,,,,138.8026655,139.6172139,140.4164737,140.4016739,,,,,,,,,,,,,,,,140.4081414,140.4164737,140.4164737,140.9372672,g,1,0.5169107,None,140.9386074,140.9500271,141.9344871,141.9500035,,,,,,,,,,,,,,,,,,,,sub-010,1,2025-03-13_13h25.45.472,stroop_test,04.02.2024,60.0891483,2025-03-13 13h26.01.198274 +0100
,,,,17,5,1,,,,,rot,red,r,1,r,1,0.4521884,None,,,,,,,,,,,,,1,5,17,0,,,,,141.9500035,,,,,,,,,,,,,,,,,141.9349387,142.0508633,142.8501289,142.8350135,,,,,,,,,,,,,,,,142.8427574,142.8501289,142.8501289,143.3196423,r,1,0.4521884,None,143.3207566,143.3341342,144.3184491,144.3336738,,,,,,,,,,,,,,,,,,,,sub-010,1,2025-03-13_13h25.45.472,stroop_test,04.02.2024,60.0891483,2025-03-13 13h26.01.198274 +0100
,,,,18,6,1,,,,,gelb,yellow,g,1,g,1,0.3521758,None,,,,,,,,,,,,,1,6,18,10,,,,,144.3336738,,,,,,,,,,,,,,,,,144.3191844,144.4330233,145.2339471,145.2181208,,,,,,,,,,,,,,,,145.2254542,145.2339471,145.2339471,145.6029718,g,1,0.3521758,None,145.6039388,145.6169481,146.60202,146.6165758,,,,,,,,,,,,,,,,,,,,sub-010,1,2025-03-13_13h25.45.472,stroop_test,04.02.2024,60.0891483,2025-03-13 13h26.01.198274 +0100
,,,,19,7,1,,,,,blau,blue,b,1,b,1,2.4909378,None,,,,,,,,,,,,,1,7,19,5,,,,,146.6165758,,,,,,,,,,,,,,,,,146.6025557,147.8169833,148.6165302,148.6018139,,,,,,,,,,,,,,,,148.6085257,148.6165302,148.6165302,151.1194336,b,1,2.4909378,None,151.1205635,151.1330625,152.1180772,152.1335769,,,,,,,,,,,,,,,,,,,,sub-010,1,2025-03-13_13h25.45.472,stroop_test,04.02.2024,60.0891483,2025-03-13 13h26.01.198274 +0100
,,,,20,8,1,,,,,rot,red,r,1,r,1,0.4990979,None,,,,,,,,,,,,,1,8,20,1,,,,,152.1335769,,,,,,,,,,,,,,,,,152.1188809,152.9335503,153.7333011,153.7182807,,,,,,,,,,,,,,,,153.723957,153.7333011,153.7333011,154.2366785,r,1,0.4990979,None,154.237687,154.2497193,155.2341428,155.249321,,,,,,,,,,,,,,,,,,,,sub-010,1,2025-03-13_13h25.45.472,stroop_test,04.02.2024,60.0891483,2025-03-13 13h26.01.198274 +0100
,,,,21,9,1,,,,,rot,yellow,g,0,g,1,0.6840078,None,,,,,,,,,,,,,1,9,21,3,,,,,155.249321,,,,,,,,,,,,,,,,,155.2344945,156.049766,156.8494657,156.8343933,,,,,,,,,,,,,,,,156.8353655,156.8494657,156.8494657,157.5503882,g,1,0.6840078,None,157.5509127,157.5660131,158.5510647,158.5662938,,,,,,,,,,,,,,,,,,,,sub-010,1,2025-03-13_13h25.45.472,stroop_test,04.02.2024,60.0891483,2025-03-13 13h26.01.198274 +0100
,,,,22,10,1,,,,,gelb,blue,b,0,b,1,1.5112969,None,,,,,,,,,,,,,1,10,22,9,,,,,158.5662938,,,,,,,,,,,,,,,,,158.5516199,158.8996883,159.6995425,159.6840946,,,,,,,,,,,,,,,,159.6919521,159.6995425,159.6995425,161.2171326,b,1,1.5112969,None,161.217632,161.2324827,162.2174677,162.2328811,,,,,,,,,,,,,,,,,,,,sub-010,1,2025-03-13_13h25.45.472,stroop_test,04.02.2024,60.0891483,2025-03-13 13h26.01.198274 +0100
,,,,23,11,1,,,,,blau,red,r,0,r,1,1.4266904,None,,,,,,,,,,,,,1,11,23,4,,,,,162.2328811,,,,,,,,,,,,,,,,,162.2184294,162.5826956,163.3822127,163.3676632,,,,,,,,,,,,,,,,163.3749521,163.3822127,163.3822127,164.8176049,r,1,1.4266904,None,164.818291,164.8323702,165.8172206,165.8323752,,,,,,,,,,,,,,,,,,,,sub-010,1,2025-03-13_13h25.45.472,stroop_test,04.02.2024,60.0891483,2025-03-13 13h26.01.198274 +0100
,,,,,,,,,,,,,,,,,,,,,,,,,,,,,,,,,,,,,,,,,,,,,,,,,,,,,,,,,,,,,,,,,,,,,,,,,,,,,,,,,,,,,,,165.8175329,165.8323752,165.8323752,171.3827822,space,5.5428316,None,,,,,,,,,,,,,sub-010,1,2025-03-13_13h25.45.472,stroop_test,04.02.2024,60.0891483,2025-03-13 13h26.01.198274 +0100
,,,,0,0,0,,,,,,,,,,,,,blau,blue,b,1,b,1,0.6325612,None,,,,,,,,,0,0,0,6,171.398467,,,,,,,,,,,,,,,,,171.3921219,172.198403,172.9988936,172.9836959,,,,,,,,,,,,,,,,,,,,,,,,,,,,,,,,,,,172.9910256,172.9988936,172.9988936,173.6356598,b,1,0.6325612,None,,,,,sub-010,1,2025-03-13_13h25.45.472,stroop_test,04.02.2024,60.0891483,2025-03-13 13h26.01.198274 +0100
,,,,1,1,0,,,,,,,,,,,,,gelb,red,r,0,g,0,1.2853636,None,,,,,,,,,0,1,1,8,173.6487088,,,,,,,,,,,,,,,,,173.63641,173.9988371,174.7983817,174.7828487,,,,,,,,,,,,,,,,,,,,,,,,,,,,,,,,,,,174.7915136,174.7983817,174.7983817,176.1003789,g,0,1.2853636,None,,,,,sub-010,1,2025-03-13_13h25.45.472,stroop_test,04.02.2024,60.0891483,2025-03-13 13h26.01.198274 +0100
,,,,2,2,0,,,,,,,,,,,,,blau,blue,b,1,b,1,0.6470552,None,,,,,,,,,0,2,2,5,176.1143903,,,,,,,,,,,,,,,,,176.1011618,176.2143416,177.0153704,176.9994885,,,,,,,,,,,,,,,,,,,,,,,,,,,,,,,,,,,177.0071117,177.0153704,177.0153704,177.6657285,b,1,0.6470552,None,,,,,sub-010,1,2025-03-13_13h25.45.472,stroop_test,04.02.2024,60.0891483,2025-03-13 13h26.01.198274 +0100
,,,,3,3,0,,,,,,,,,,,,,rot,red,r,1,r,1,0.3787776,None,,,,,,,,,0,3,3,1,177.6810427,,,,,,,,,,,,,,,,,177.6659831,178.031506,178.8312033,178.8153528,,,,,,,,,,,,,,,,,,,,,,,,,,,,,,,,,,,178.8192671,178.8312033,178.8312033,179.2157572,r,1,0.3787776,None,,,,,sub-010,1,2025-03-13_13h25.45.472,stroop_test,04.02.2024,60.0891483,2025-03-13 13h26.01.198274 +0100
,,,,4,4,0,,,,,,,,,,,,,gelb,yellow,g,1,g,1,0.406185,None,,,,,,,,,0,4,4,11,179.2308648,,,,,,,,,,,,,,,,,179.2161639,179.3309897,180.1317452,180.116168,,,,,,,,,,,,,,,,,,,,,,,,,,,,,,,,,,,180.1231887,180.1317452,180.1317452,180.5507368,g,1,0.406185,None,,,,,sub-010,1,2025-03-13_13h25.45.472,stroop_test,04.02.2024,60.0891483,2025-03-13 13h26.01.198274 +0100
,,,,5,5,0,,,,,,,,,,,,,blau,yellow,g,0,g,1,0.7539476,None,,,,,,,,,0,5,5,7,180.5651915,,,,,,,,,,,,,,,,,180.5513726,181.3653239,182.1647365,182.1494238,,,,,,,,,,,,,,,,,,,,,,,,,,,,,,,,,,,182.1550175,182.1647365,182.1647365,182.9338059,g,1,0.7539476,None,,,,,sub-010,1,2025-03-13_13h25.45.472,stroop_test,04.02.2024,60.0891483,2025-03-13 13h26.01.198274 +0100
,,,,6,6,0,,,,,,,,,,,,,gelb,yellow,g,1,g,1,0.5985656,None,,,,,,,,,0,6,6,10,182.9482568,,,,,,,,,,,,,,,,,182.9346493,184.148491,184.9502608,184.9331139,,,,,,,,,,,,,,,,,,,,,,,,,,,,,,,,,,,184.9408812,184.9502608,184.9502608,185.5517384,g,1,0.5985656,None,,,,,sub-010,1,2025-03-13_13h25.45.472,stroop_test,04.02.2024,60.0891483,2025-03-13 13h26.01.198274 +0100
,,,,7,7,0,,,,,,,,,,,,,gelb,blue,b,0,b,1,0.6346923,None,,,,,,,,,0,7,7,9,185.5649398,,,,,,,,,,,,,,,,,185.5524641,185.664967,186.4650555,186.4495601,,,,,,,,,,,,,,,,,,,,,,,,,,,,,,,,,,,186.4505126,186.4650555,186.4650555,187.1172347,b,1,0.6346923,None,,,,,sub-010,1,2025-03-13_13h25.45.472,stroop_test,04.02.2024,60.0891483,2025-03-13 13h26.01.198274 +0100
,,,,8,8,0,,,,,,,,,,,,,rot,blue,b,0,g,0,0.5470079,None,,,,,,,,,0,8,8,2,187.1315263,,,,,,,,,,,,,,,,,187.1180743,187.4814254,188.2814245,188.2663415,,,,,,,,,,,,,,,,,,,,,,,,,,,,,,,,,,,188.2726768,188.2814245,188.2814245,188.8344717,g,0,0.5470079,None,,,,,sub-010,1,2025-03-13_13h25.45.472,stroop_test,04.02.2024,60.0891483,2025-03-13 13h26.01.198274 +0100
,,,,9,9,0,,,,,,,,,,,,,blau,red,r,0,r,1,0.6292565,None,,,,,,,,,0,9,9,4,188.8478103,,,,,,,,,,,,,,,,,188.8355156,189.1981815,189.9977496,189.9829935,,,,,,,,,,,,,,,,,,,,,,,,,,,,,,,,,,,189.9901543,189.9977496,189.9977496,190.6343876,r,1,0.6292565,None,,,,,sub-010,1,2025-03-13_13h25.45.472,stroop_test,04.02.2024,60.0891483,2025-03-13 13h26.01.198274 +0100
,,,,10,10,0,,,,,,,,,,,,,rot,yellow,g,0,g,1,0.4074899,None,,,,,,,,,0,10,10,3,190.6478061,,,,,,,,,,,,,,,,,190.635408,190.7481393,191.5480353,191.5329518,,,,,,,,,,,,,,,,,,,,,,,,,,,,,,,,,,,191.5383075,191.5480353,191.5480353,191.967007,g,1,0.4074899,None,,,,,sub-010,1,2025-03-13_13h25.45.472,stroop_test,04.02.2024,60.0891483,2025-03-13 13h26.01.198274 +0100
,,,,11,11,0,,,,,,,,,,,,,rot,red,r,1,g,0,0.5112232,None,,,,,,,,,0,11,11,0,191.9811008,,,,,,,,,,,,,,,,,191.9676815,192.0812399,192.881272,192.8657081,,,,,,,,,,,,,,,,,,,,,,,,,,,,,,,,,,,192.866455,192.881272,192.881272,193.3999194,g,0,0.5112232,None,,,,,sub-010,1,2025-03-13_13h25.45.472,stroop_test,04.02.2024,60.0891483,2025-03-13 13h26.01.198274 +0100
,,,,12,0,1,,,,,,,,,,,,,rot,blue,b,0,g,0,0.9663675,None,,,,,,,,,1,0,12,2,193.4146491,,,,,,,,,,,,,,,,,193.4005388,193.5145097,194.3146156,194.2996306,,,,,,,,,,,,,,,,,,,,,,,,,,,,,,,,,,,194.3004652,194.3146156,194.3146156,195.2842595,g,0,0.9663675,None,,,,,sub-010,1,2025-03-13_13h25.45.472,stroop_test,04.02.2024,60.0891483,2025-03-13 13h26.01.198274 +0100
,,,,13,1,1,,,,,,,,,,,,,blau,blue,b,1,b,1,0.7540187,None,,,,,,,,,1,1,13,6,195.2974031,,,,,,,,,,,,,,,,,195.2849255,195.3976401,196.199431,196.1825008,,,,,,,,,,,,,,,,,,,,,,,,,,,,,,,,,,,196.1908572,196.199431,196.199431,196.9671312,b,1,0.7540187,None,,,,,sub-010,1,2025-03-13_13h25.45.472,stroop_test,04.02.2024,60.0891483,2025-03-13 13h26.01.198274 +0100
,,,,14,2,1,,,,,,,,,,,,,blau,yellow,g,0,g,1,0.843137,None,,,,,,,,,1,2,14,7,196.9809916,,,,,,,,,,,,,,,,,196.9678663,197.7810182,198.5811303,198.5657351,,,,,,,,,,,,,,,,,,,,,,,,,,,,,,,,,,,198.5666273,198.5811303,198.5811303,199.4338287,g,1,0.843137,None,,,,,sub-010,1,2025-03-13_13h25.45.472,stroop_test,04.02.2024,60.0891483,2025-03-13 13h26.01.198274 +0100
,,,,15,3,1,,,,,,,,,,,,,rot,red,r,1,r,1,0.5183846,None,,,,,,,,,1,3,15,1,199.4471039,,,,,,,,,,,,,,,,,199.4347422,200.2475064,201.0472642,201.0325515,,,,,,,,,,,,,,,,,,,,,,,,,,,,,,,,,,,201.0390223,201.0472642,201.0472642,201.5832421,r,1,0.5183846,None,,,,,sub-010,1,2025-03-13_13h25.45.472,stroop_test,04.02.2024,60.0891483,2025-03-13 13h26.01.198274 +0100
,,,,16,4,1,,,,,,,,,,,,,gelb,blue,b,0,b,1,2.4041826,None,,,,,,,,,1,4,16,9,201.5973027,,,,,,,,,,,,,,,,,201.5839636,201.9475281,202.7477329,202.7322492,,,,,,,,,,,,,,,,,,,,,,,,,,,,,,,,,,,202.740066,202.7477329,202.7477329,205.1660915,b,1,2.4041826,None,,,,,sub-010,1,2025-03-13_13h25.45.472,stroop_test,04.02.2024,60.0891483,2025-03-13 13h26.01.198274 +0100
,,,,17,5,1,,,,,,,,,,,,,blau,red,r,0,r,1,1.5916419,None,,,,,,,,,1,5,17,4,205.1802455,,,,,,,,,,,,,,,,,205.1667344,205.280525,206.0877473,206.0654027,,,,,,,,,,,,,,,,,,,,,,,,,,,,,,,,,,,206.0722545,206.0877473,206.0877473,207.6840435,r,1,1.5916419,None,,,,,sub-010,1,2025-03-13_13h25.45.472,stroop_test,04.02.2024,60.0891483,2025-03-13 13h26.01.198274 +0100
,,,,18,6,1,,,,,,,,,,,,,rot,red,r,1,r,1,0.5401076,None,,,,,,,,,1,6,18,0,207.6970568,,,,,,,,,,,,,,,,,207.6850391,208.497154,209.2966956,209.282145,,,,,,,,,,,,,,,,,,,,,,,,,,,,,,,,,,,209.2876973,209.2966956,209.2966956,209.8490008,r,1,0.5401076,None,,,,,sub-010,1,2025-03-13_13h25.45.472,stroop_test,04.02.2024,60.0891483,2025-03-13 13h26.01.198274 +0100
,,,,19,7,1,,,,,,,,,,,,,blau,blue,b,1,b,1,0.5559914,None,,,,,,,,,1,7,19,5,209.8635702,,,,,,,,,,,,,,,,,209.8496509,210.2138404,211.0133808,210.9973374,,,,,,,,,,,,,,,,,,,,,,,,,,,,,,,,,,,211.0006892,211.0133808,211.0133808,211.5815317,b,1,0.5559914,None,,,,,sub-010,1,2025-03-13_13h25.45.472,stroop_test,04.02.2024,60.0891483,2025-03-13 13h26.01.198274 +0100
,,,,20,8,1,,,,,,,,,,,,,gelb,yellow,g,1,g,1,4.1850419,None,,,,,,,,,1,8,20,10,211.597049,,,,,,,,,,,,,,,,,211.5820815,212.3972358,213.196558,213.1816912,,,,,,,,,,,,,,,,,,,,,,,,,,,,,,,,,,,213.1896228,213.196558,213.196558,217.3979599,g,1,4.1850419,None,,,,,sub-010,1,2025-03-13_13h25.45.472,stroop_test,04.02.2024,60.0891483,2025-03-13 13h26.01.198274 +0100
,,,,21,9,1,,,,,,,,,,,,,gelb,red,r,0,r,1,1.3249661,None,,,,,,,,,1,9,21,8,217.4123753,,,,,,,,,,,,,,,,,217.3986763,218.6124382,219.4122611,219.3977611,,,,,,,,,,,,,,,,,,,,,,,,,,,,,,,,,,,219.398638,219.4122611,219.4122611,220.7480558,r,1,1.3249661,None,,,,,sub-010,1,2025-03-13_13h25.45.472,stroop_test,04.02.2024,60.0891483,2025-03-13 13h26.01.198274 +0100
,,,,22,10,1,,,,,,,,,,,,,rot,yellow,g,0,g,1,2.4432056,None,,,,,,,,,1,10,22,3,220.7622722,,,,,,,,,,,,,,,,,220.7487353,221.5623032,222.3624164,222.3474353,,,,,,,,,,,,,,,,,,,,,,,,,,,,,,,,,,,222.3538684,222.3624164,222.3624164,224.8128685,g,1,2.4432056,None,,,,,sub-010,1,2025-03-13_13h25.45.472,stroop_test,04.02.2024,60.0891483,2025-03-13 13h26.01.198274 +0100
,,,,23,11,1,,,,,,,,,,,,,gelb,yellow,g,1,g,1,0.796645,None,,,,,,,,,1,11,23,11,224.8283375,,,,,,,,,,,,,,,,,224.8131384,225.1624009,225.9622168,225.9472728,,,,,,,,,,,,,,,,,,,,,,,,,,,,,,,,,,,225.9547573,225.9622168,225.9622168,226.7647367,g,1,0.796645,None,,,,,sub-010,1,2025-03-13_13h25.45.472,stroop_test,04.02.2024,60.0891483,2025-03-13 13h26.01.198274 +0100
,,,,24,0,2,,,,,,,,,,,,,blau,yellow,g,0,g,1,0.6144707,None,,,,,,,,,2,0,24,7,226.7785006,,,,,,,,,,,,,,,,,226.765486,227.1287266,227.9281149,227.913298,,,,,,,,,,,,,,,,,,,,,,,,,,,,,,,,,,,227.9189218,227.9281149,227.9281149,228.5479813,g,1,0.6144707,None,,,,,sub-010,1,2025-03-13_13h25.45.472,stroop_test,04.02.2024,60.0891483,2025-03-13 13h26.01.198274 +0100
,,,,25,1,2,,,,,,,,,,,,,gelb,red,r,0,r,1,0.5884658,None,,,,,,,,,2,1,25,8,228.561911,,,,,,,,,,,,,,,,,228.548862,228.6616966,229.4624948,229.4464522,,,,,,,,,,,,,,,,,,,,,,,,,,,,,,,,,,,229.4532022,229.4624948,229.4624948,230.0639729,r,1,0.5884658,None,,,,,sub-010,1,2025-03-13_13h25.45.472,stroop_test,04.02.2024,60.0891483,2025-03-13 13h26.01.198274 +0100
,,,,26,2,2,,,,,,,,,,,,,rot,red,r,1,r,1,0.5768964,None,,,,,,,,,2,2,26,1,230.0783797,,,,,,,,,,,,,,,,,230.0645444,231.2787197,232.0782383,232.0635116,,,,,,,,,,,,,,,,,,,,,,,,,,,,,,,,,,,232.0700876,232.0782383,232.0782383,232.6642939,r,1,0.5768964,None,,,,,sub-010,1,2025-03-13_13h25.45.472,stroop_test,04.02.2024,60.0891483,2025-03-13 13h26.01.198274 +0100
,,,,27,3,2,,,,,,,,,,,,,blau,blue,b,1,b,1,0.7458126,None,,,,,,,,,2,3,27,6,232.6782942,,,,,,,,,,,,,,,,,232.6650481,233.0282619,233.828082,233.8126029,,,,,,,,,,,,,,,,,,,,,,,,,,,,,,,,,,,233.8189162,233.828082,233.828082,234.5796954,b,1,0.7458126,None,,,,,sub-010,1,2025-03-13_13h25.45.472,stroop_test,04.02.2024,60.0891483,2025-03-13 13h26.01.198274 +0100
,,,,28,4,2,,,,,,,,,,,,,blau,red,r,0,b,0,2.3528409,None,,,,,,,,,2,4,28,4,234.5949414,,,,,,,,,,,,,,,,,234.5800915,235.7949242,236.594749,236.5799682,,,,,,,,,,,,,,,,,,,,,,,,,,,,,,,,,,,236.5809696,236.594749,236.594749,238.9637372,b,0,2.3528409,None,,,,,sub-010,1,2025-03-13_13h25.45.472,stroop_test,04.02.2024,60.0891483,2025-03-13 13h26.01.198274 +0100
,,,,29,5,2,,,,,,,,,,,,,rot,blue,b,0,b,1,1.6716693,None,,,,,,,,,2,5,29,2,238.9783191,,,,,,,,,,,,,,,,,238.964429,240.1781623,240.9782542,240.9628536,,,,,,,,,,,,,,,,,,,,,,,,,,,,,,,,,,,240.968984,240.9782542,240.9782542,242.6639453,b,1,1.6716693,None,,,,,sub-010,1,2025-03-13_13h25.45.472,stroop_test,04.02.2024,60.0891483,2025-03-13 13h26.01.198274 +0100
,,,,30,6,2,,,,,,,,,,,,,rot,red,r,1,r,1,0.487463,None,,,,,,,,,2,6,30,0,242.6785245,,,,,,,,,,,,,,,,,242.6647078,243.878667,244.6788716,244.6630683,,,,,,,,,,,,,,,,,,,,,,,,,,,,,,,,,,,244.6639165,244.6788716,244.6788716,245.180977,r,1,0.487463,None,,,,,sub-010,1,2025-03-13_13h25.45.472,stroop_test,04.02.2024,60.0891483,2025-03-13 13h26.01.198274 +0100
,,,,31,7,2,,,,,,,,,,,,,gelb,yellow,g,1,g,1,0.6828687,None,,,,,,,,,2,7,31,11,245.194979,,,,,,,,,,,,,,,,,245.1818274,246.3953607,247.1980806,247.1819704,,,,,,,,,,,,,,,,,,,,,,,,,,,,,,,,,,,247.1890112,247.1980806,247.1980806,247.8962944,g,1,0.6828687,None,,,,,sub-010,1,2025-03-13_13h25.45.472,stroop_test,04.02.2024,60.0891483,2025-03-13 13h26.01.198274 +0100
,,,,32,8,2,,,,,,,,,,,,,rot,yellow,g,0,g,1,0.8846616,None,,,,,,,,,2,8,32,3,247.9116913,,,,,,,,,,,,,,,,,247.8967884,248.0118233,248.813459,248.798608,,,,,,,,,,,,,,,,,,,,,,,,,,,,,,,,,,,248.8062068,248.813459,248.813459,249.7134561,g,1,0.8846616,None,,,,,sub-010,1,2025-03-13_13h25.45.472,stroop_test,04.02.2024,60.0891483,2025-03-13 13h26.01.198274 +0100
,,,,33,9,2,,,,,,,,,,,,,gelb,blue,b,0,b,1,0.7704432,None,,,,,,,,,2,9,33,9,249.7278326,,,,,,,,,,,,,,,,,249.7140147,250.9280086,251.7291407,251.713001,,,,,,,,,,,,,,,,,,,,,,,,,,,,,,,,,,,251.7202579,251.7291407,251.7291407,252.5129029,b,1,0.7704432,None,,,,,sub-010,1,2025-03-13_13h25.45.472,stroop_test,04.02.2024,60.0891483,2025-03-13 13h26.01.198274 +0100
,,,,34,10,2,,,,,,,,,,,,,gelb,yellow,g,1,g,1,0.561095,None,,,,,,,,,2,10,34,10,252.5273748,,,,,,,,,,,,,,,,,252.5134346,252.6272463,253.4268715,253.4111375,,,,,,,,,,,,,,,,,,,,,,,,,,,,,,,,,,,253.4115181,253.4268715,253.4268715,253.9962293,g,1,0.561095,None,,,,,sub-010,1,2025-03-13_13h25.45.472,stroop_test,04.02.2024,60.0891483,2025-03-13 13h26.01.198274 +0100
,,,,35,11,2,,,,,,,,,,,,,blau,blue,b,1,b,1,0.8099827,None,,,,,,,,,2,11,35,5,254.010537,,,,,,,,,,,,,,,,,253.9968124,254.3602321,255.1603316,255.1458033,,,,,,,,,,,,,,,,,,,,,,,,,,,,,,,,,,,255.1526018,255.1603316,255.1603316,255.9793739,b,1,0.8099827,None,,,,,sub-010,1,2025-03-13_13h25.45.472,stroop_test,04.02.2024,60.0891483,2025-03-13 13h26.01.198274 +0100
,,,,36,0,3,,,,,,,,,,,,,blau,blue,b,1,b,1,0.4817367,None,,,,,,,,,3,0,36,5,255.993586,,,,,,,,,,,,,,,,,255.9798938,257.1935803,257.9941334,257.9792756,,,,,,,,,,,,,,,,,,,,,,,,,,,,,,,,,,,257.9802049,257.9941334,257.9941334,258.4798358,b,1,0.4817367,None,,,,,sub-010,1,2025-03-13_13h25.45.472,stroop_test,04.02.2024,60.0891483,2025-03-13 13h26.01.198274 +0100
,,,,37,1,3,,,,,,,,,,,,,gelb,red,r,0,r,1,0.6801328,None,,,,,,,,,3,1,37,8,258.494026,,,,,,,,,,,,,,,,,258.4806556,258.5941034,259.3948815,259.3799909,,,,,,,,,,,,,,,,,,,,,,,,,,,,,,,,,,,259.3886049,259.3948815,259.3948815,260.08059,r,1,0.6801328,None,,,,,sub-010,1,2025-03-13_13h25.45.472,stroop_test,04.02.2024,60.0891483,2025-03-13 13h26.01.198274 +0100
,,,,38,2,3,,,,,,,,,,,,,blau,yellow,g,0,g,1,0.880803,None,,,,,,,,,3,2,38,7,260.0936828,,,,,,,,,,,,,,,,,260.0812937,261.2940856,262.0939805,262.0782314,,,,,,,,,,,,,,,,,,,,,,,,,,,,,,,,,,,262.0827735,262.0939805,262.0939805,262.9787777,g,1,0.880803,None,,,,,sub-010,1,2025-03-13_13h25.45.472,stroop_test,04.02.2024,60.0891483,2025-03-13 13h26.01.198274 +0100
,,,,39,3,3,,,,,,,,,,,,,blau,blue,b,1,b,1,0.6666536,None,,,,,,,,,3,3,39,6,262.9938894,,,,,,,,,,,,,,,,,262.9791345,263.3276351,264.1273919,264.1124971,,,,,,,,,,,,,,,,,,,,,,,,,,,,,,,,,,,264.1133869,264.1273919,264.1273919,264.7970355,b,1,0.6666536,None,,,,,sub-010,1,2025-03-13_13h25.45.472,stroop_test,04.02.2024,60.0891483,2025-03-13 13h26.01.198274 +0100
,,,,40,4,3,,,,,,,,,,,,,blau,red,r,0,r,1,0.6909745,None,,,,,,,,,3,4,40,4,264.8104764,,,,,,,,,,,,,,,,,264.7978385,264.9111156,265.71096,265.6958477,,,,,,,,,,,,,,,,,,,,,,,,,,,,,,,,,,,265.6967248,265.71096,265.71096,266.4136132,r,1,0.6909745,None,,,,,sub-010,1,2025-03-13_13h25.45.472,stroop_test,04.02.2024,60.0891483,2025-03-13 13h26.01.198274 +0100
,,,,41,5,3,,,,,,,,,,,,,rot,yellow,g,0,g,1,0.6795606,None,,,,,,,,,3,5,41,3,266.4273415,,,,,,,,,,,,,,,,,266.41417,267.2280321,268.0430597,268.0281191,,,,,,,,,,,,,,,,,,,,,,,,,,,,,,,,,,,268.0338678,268.0430597,268.0430597,268.7292361,g,1,0.6795606,None,,,,,sub-010,1,2025-03-13_13h25.45.472,stroop_test,04.02.2024,60.0891483,2025-03-13 13h26.01.198274 +0100
,,,,42,6,3,,,,,,,,,,,,,gelb,blue,b,0,b,1,2.6646799,None,,,,,,,,,3,6,42,9,268.7427676,,,,,,,,,,,,,,,,,268.7304064,268.842945,269.6479546,269.6283062,,,,,,,,,,,,,,,,,,,,,,,,,,,,,,,,,,,269.6342719,269.6479546,269.6479546,272.3286175,b,1,2.6646799,None,,,,,sub-010,1,2025-03-13_13h25.45.472,stroop_test,04.02.2024,60.0891483,2025-03-13 13h26.01.198274 +0100
,,,,43,7,3,,,,,,,,,,,,,rot,red,r,1,r,1,0.4449478,None,,,,,,,,,3,7,43,1,272.3432505,,,,,,,,,,,,,,,,,272.3292842,273.5438007,274.3434438,274.3291843,,,,,,,,,,,,,,,,,,,,,,,,,,,,,,,,,,,274.3361273,274.3434438,274.3434438,274.7957652,r,1,0.4449478,None,,,,,sub-010,1,2025-03-13_13h25.45.472,stroop_test,04.02.2024,60.0891483,2025-03-13 13h26.01.198274 +0100
,,,,44,8,3,,,,,,,,,,,,,rot,red,r,1,r,1,0.5223939,None,,,,,,,,,3,8,44,0,274.8099195,,,,,,,,,,,,,,,,,274.7966547,275.160497,275.9593934,275.9448602,,,,,,,,,,,,,,,,,,,,,,,,,,,,,,,,,,,275.9457899,275.9593934,275.9593934,276.4944881,r,1,0.5223939,None,,,,,sub-010,1,2025-03-13_13h25.45.472,stroop_test,04.02.2024,60.0891483,2025-03-13 13h26.01.198274 +0100
,,,,45,9,3,,,,,,,,,,,,,gelb,yellow,g,1,g,1,1.518097,None,,,,,,,,,3,9,45,11,276.5091546,,,,,,,,,,,,,,,,,276.4950393,277.7102664,278.5094254,278.4942004,,,,,,,,,,,,,,,,,,,,,,,,,,,,,,,,,,,278.5014199,278.5094254,278.5094254,280.0452969,g,1,1.518097,None,,,,,sub-010,1,2025-03-13_13h25.45.472,stroop_test,04.02.2024,60.0891483,2025-03-13 13h26.01.198274 +0100
,,,,46,10,3,,,,,,,,,,,,,gelb,yellow,g,1,g,1,0.6012641,None,,,,,,,,,3,10,46,10,280.0591768,,,,,,,,,,,,,,,,,280.0462923,280.4102926,281.2098666,281.1943387,,,,,,,,,,,,,,,,,,,,,,,,,,,,,,,,,,,281.1951316,281.2098666,281.2098666,281.8278047,g,1,0.6012641,None,,,,,sub-010,1,2025-03-13_13h25.45.472,stroop_test,04.02.2024,60.0891483,2025-03-13 13h26.01.198274 +0100
,,,,47,11,3,,,,,,,,,,,,,rot,blue,b,0,b,1,1.7541097,None,,,,,,,,,3,11,47,2,281.8428776,,,,,,,,,,,,,,,,,281.8286506,281.9430999,282.7430251,282.7281837,,,,,,,,,,,,,,,,,,,,,,,,,,,,,,,,,,,282.734927,282.7430251,282.7430251,284.5120288,b,1,1.7541097,None,,,,,sub-010,1,2025-03-13_13h25.45.472,stroop_test,04.02.2024,60.0891483,2025-03-13 13h26.01.198274 +0100
,,,,48,0,4,,,,,,,,,,,,,rot,yellow,g,0,g,1,1.1205491,None,,,,,,,,,4,0,48,3,284.5255032,,,,,,,,,,,,,,,,,284.5129758,284.6255653,285.4256898,285.4111555,,,,,,,,,,,,,,,,,,,,,,,,,,,,,,,,,,,285.4125035,285.4256898,285.4256898,286.5615096,g,1,1.1205491,None,,,,,sub-010,1,2025-03-13_13h25.45.472,stroop_test,04.02.2024,60.0891483,2025-03-13 13h26.01.198274 +0100
,,,,49,1,4,,,,,,,,,,,,,blau,blue,b,1,b,1,0.8837419,None,,,,,,,,,4,1,49,5,286.5756662,,,,,,,,,,,,,,,,,286.5621959,286.676195,287.4757396,287.4610342,,,,,,,,,,,,,,,,,,,,,,,,,,,,,,,,,,,287.46954,287.4757396,287.4757396,288.3634945,b,1,0.8837419,None,,,,,sub-010,1,2025-03-13_13h25.45.472,stroop_test,04.02.2024,60.0891483,2025-03-13 13h26.01.198274 +0100
,,,,50,2,4,,,,,,,,,,,,,blau,yellow,g,0,g,1,0.8524178,None,,,,,,,,,4,2,50,7,288.3752502,,,,,,,,,,,,,,,,,288.3645087,288.7250161,289.5256263,289.5109935,,,,,,,,,,,,,,,,,,,,,,,,,,,,,,,,,,,289.512074,289.5256263,289.5256263,290.3948048,g,1,0.8524178,None,,,,,sub-010,1,2025-03-13_13h25.45.472,stroop_test,04.02.2024,60.0891483,2025-03-13 13h26.01.198274 +0100
,,,,51,3,4,,,,,,,,,,,,,blau,red,r,0,r,1,0.7245322,None,,,,,,,,,4,3,51,4,290.4088409,,,,,,,,,,,,,,,,,290.3957184,290.5088919,291.3083561,291.2933481,,,,,,,,,,,,,,,,,,,,,,,,,,,,,,,,,,,291.2938166,291.3083561,291.3083561,292.0439939,r,1,0.7245322,None,,,,,sub-010,1,2025-03-13_13h25.45.472,stroop_test,04.02.2024,60.0891483,2025-03-13 13h26.01.198274 +0100
,,,,52,4,4,,,,,,,,,,,,,rot,blue,b,0,b,1,1.0523388,None,,,,,,,,,4,4,52,2,292.0583074,,,,,,,,,,,,,,,,,292.0446871,292.4082848,293.2085723,293.193789,,,,,,,,,,,,,,,,,,,,,,,,,,,,,,,,,,,293.2004595,293.2085723,293.2085723,294.277434,b,1,1.0523388,None,,,,,sub-010,1,2025-03-13_13h25.45.472,stroop_test,04.02.2024,60.0891483,2025-03-13 13h26.01.198274 +0100
,,,,53,5,4,,,,,,,,,,,,,rot,red,r,1,r,1,0.7324183,None,,,,,,,,,4,5,53,0,294.2918198,,,,,,,,,,,,,,,,,294.2780709,294.3919954,295.1918081,295.1766943,,,,,,,,,,,,,,,,,,,,,,,,,,,,,,,,,,,295.1777883,295.1918081,295.1918081,295.9301699,r,1,0.7324183,None,,,,,sub-010,1,2025-03-13_13h25.45.472,stroop_test,04.02.2024,60.0891483,2025-03-13 13h26.01.198274 +0100
,,,,54,6,4,,,,,,,,,,,,,gelb,red,r,0,r,1,1.3098675,None,,,,,,,,,4,6,54,8,295.9423245,,,,,,,,,,,,,,,,,295.9310894,297.142304,297.9416941,297.9268201,,,,,,,,,,,,,,,,,,,,,,,,,,,,,,,,,,,297.934392,297.9416941,297.9416941,299.2615778,r,1,1.3098675,None,,,,,sub-010,1,2025-03-13_13h25.45.472,stroop_test,04.02.2024,60.0891483,2025-03-13 13h26.01.198274 +0100
,,,,55,7,4,,,,,,,,,,,,,gelb,blue,b,0,b,1,2.1623358,None,,,,,,,,,4,7,55,9,299.2757038,,,,,,,,,,,,,,,,,299.2623934,300.0758221,300.8757204,300.8600243,,,,,,,,,,,,,,,,,,,,,,,,,,,,,,,,,,,300.8606306,300.8757204,300.8757204,303.0453735,b,1,2.1623358,None,,,,,sub-010,1,2025-03-13_13h25.45.472,stroop_test,04.02.2024,60.0891483,2025-03-13 13h26.01.198274 +0100
,,,,56,8,4,,,,,,,,,,,,,rot,red,r,1,r,1,0.5685304,None,,,,,,,,,4,8,56,1,303.0586035,,,,,,,,,,,,,,,,,303.0458429,303.1590116,303.9745017,303.9593729,,,,,,,,,,,,,,,,,,,,,,,,,,,,,,,,,,,303.9641674,303.9745017,303.9745017,304.5459056,r,1,0.5685304,None,,,,,sub-010,1,2025-03-13_13h25.45.472,stroop_test,04.02.2024,60.0891483,2025-03-13 13h26.01.198274 +0100
,,,,57,9,4,,,,,,,,,,,,,gelb,yellow,g,1,g,1,0.407171,None,,,,,,,,,4,9,57,10,304.5576664,,,,,,,,,,,,,,,,,304.5466107,305.358485,306.1591658,306.1433226,,,,,,,,,,,,,,,,,,,,,,,,,,,,,,,,,,,306.1516946,306.1591658,306.1591658,306.5770745,g,1,0.407171,None,,,,,sub-010,1,2025-03-13_13h25.45.472,stroop_test,04.02.2024,60.0891483,2025-03-13 13h26.01.198274 +0100
,,,,58,10,4,,,,,,,,,,,,,blau,blue,b,1,b,1,0.3972697,None,,,,,,,,,4,10,58,6,306.5914447,,,,,,,,,,,,,,,,,306.5778903,306.6911624,307.4962394,307.4773468,,,,,,,,,,,,,,,,,,,,,,,,,,,,,,,,,,,307.484525,307.4962394,307.4962394,307.9097004,b,1,0.3972697,None,,,,,sub-010,1,2025-03-13_13h25.45.472,stroop_test,04.02.2024,60.0891483,2025-03-13 13h26.01.198274 +0100
,,,,59,11,4,,,,,,,,,,,,,gelb,yellow,g,1,g,1,1.0040781,None,,,,,,,,,4,11,59,11,307.9249379,,,,,,,,,,,,,,,,,307.9103056,308.7243001,309.5241313,309.5098124,,,,,,,,,,,,,,,,,,,,,,,,,,,,,,,,,,,309.5159036,309.5241313,309.5241313,310.5442144,g,1,1.0040781,None,,,,,sub-010,1,2025-03-13_13h25.45.472,stroop_test,04.02.2024,60.0891483,2025-03-13 13h26.01.198274 +0100
,,,,60,0,5,,,,,,,,,,,,,blau,blue,b,1,b,1,0.8412663,None,,,,,,,,,5,0,60,5,310.557967,,,,,,,,,,,,,,,,,310.5450409,311.7575127,312.5575925,312.5427872,,,,,,,,,,,,,,,,,,,,,,,,,,,,,,,,,,,312.5502795,312.5575925,312.5575925,313.410435,b,1,0.8412663,None,,,,,sub-010,1,2025-03-13_13h25.45.472,stroop_test,04.02.2024,60.0891483,2025-03-13 13h26.01.198274 +0100
,,,,61,1,5,,,,,,,,,,,,,blau,red,r,0,r,1,0.9004245,None,,,,,,,,,5,1,61,4,313.4244475,,,,,,,,,,,,,,,,,313.4110703,313.7744162,314.5742998,314.559481,,,,,,,,,,,,,,,,,,,,,,,,,,,,,,,,,,,314.5602091,314.5742998,314.5742998,315.4785242,r,1,0.9004245,None,,,,,sub-010,1,2025-03-13_13h25.45.472,stroop_test,04.02.2024,60.0891483,2025-03-13 13h26.01.198274 +0100
,,,,62,2,5,,,,,,,,,,,,,gelb,yellow,g,1,g,1,0.4365241,None,,,,,,,,,5,2,62,10,315.4906048,,,,,,,,,,,,,,,,,315.4791033,316.6906784,317.4910798,317.4757049,,,,,,,,,,,,,,,,,,,,,,,,,,,,,,,,,,,317.4808841,317.4910798,317.4910798,317.9439916,g,1,0.4365241,None,,,,,sub-010,1,2025-03-13_13h25.45.472,stroop_test,04.02.2024,60.0891483,2025-03-13 13h26.01.198274 +0100
,,,,63,3,5,,,,,,,,,,,,,blau,blue,b,1,b,1,0.5180128,None,,,,,,,,,5,3,63,6,317.9570496,,,,,,,,,,,,,,,,,317.9444687,318.0572185,318.8569786,318.8422953,,,,,,,,,,,,,,,,,,,,,,,,,,,,,,,,,,,318.847116,318.8569786,318.8569786,319.3781185,b,1,0.5180128,None,,,,,sub-010,1,2025-03-13_13h25.45.472,stroop_test,04.02.2024,60.0891483,2025-03-13 13h26.01.198274 +0100
,,,,64,4,5,,,,,,,,,,,,,rot,red,r,1,r,1,0.3890267,None,,,,,,,,,5,4,64,1,319.3905549,,,,,,,,,,,,,,,,,319.378867,319.7404162,320.5401908,320.5253519,,,,,,,,,,,,,,,,,,,,,,,,,,,,,,,,,,,320.5297918,320.5401908,320.5401908,320.9422583,r,1,0.3890267,None,,,,,sub-010,1,2025-03-13_13h25.45.472,stroop_test,04.02.2024,60.0891483,2025-03-13 13h26.01.198274 +0100
,,,,65,5,5,,,,,,,,,,,,,gelb,red,r,0,r,1,0.5860357,None,,,,,,,,,5,5,65,8,320.9571348,,,,,,,,,,,,,,,,,320.942567,321.7568318,322.5567896,322.5415945,,,,,,,,,,,,,,,,,,,,,,,,,,,,,,,,,,,322.5472463,322.5567896,322.5567896,323.1595524,r,1,0.5860357,None,,,,,sub-010,1,2025-03-13_13h25.45.472,stroop_test,04.02.2024,60.0891483,2025-03-13 13h26.01.198274 +0100
,,,,66,6,5,,,,,,,,,,,,,rot,yellow,g,0,g,1,0.5435559,None,,,,,,,,,5,6,66,3,323.1739927,,,,,,,,,,,,,,,,,323.1601713,323.9735538,324.7736146,324.758676,,,,,,,,,,,,,,,,,,,,,,,,,,,,,,,,,,,324.7621695,324.7736146,324.7736146,325.3266506,g,1,0.5435559,None,,,,,sub-010,1,2025-03-13_13h25.45.472,stroop_test,04.02.2024,60.0891483,2025-03-13 13h26.01.198274 +0100
,,,,67,7,5,,,,,,,,,,,,,gelb,blue,b,0,b,1,0.4006778,None,,,,,,,,,5,7,67,9,325.3401703,,,,,,,,,,,,,,,,,325.3270642,325.6904426,326.4900991,326.475131,,,,,,,,,,,,,,,,,,,,,,,,,,,,,,,,,,,326.4814787,326.4900991,326.4900991,326.8936809,b,1,0.4006778,None,,,,,sub-010,1,2025-03-13_13h25.45.472,stroop_test,04.02.2024,60.0891483,2025-03-13 13h26.01.198274 +0100
,,,,68,8,5,,,,,,,,,,,,,rot,red,r,1,r,1,0.5465638,None,,,,,,,,,5,8,68,0,326.9067196,,,,,,,,,,,,,,,,,326.8943145,327.2571325,328.0565651,328.0412056,,,,,,,,,,,,,,,,,,,,,,,,,,,,,,,,,,,328.0458081,328.0565651,328.0565651,328.60969,r,1,0.5465638,None,,,,,sub-010,1,2025-03-13_13h25.45.472,stroop_test,04.02.2024,60.0891483,2025-03-13 13h26.01.198274 +0100
,,,,69,9,5,,,,,,,,,,,,,rot,blue,b,0,b,1,0.8559564,None,,,,,,,,,5,9,69,2,328.6232111,,,,,,,,,,,,,,,,,328.6105366,329.8233251,330.6230658,330.6077039,,,,,,,,,,,,,,,,,,,,,,,,,,,,,,,,,,,330.6081682,330.6230658,330.6230658,331.4923914,b,1,0.8559564,None,,,,,sub-010,1,2025-03-13_13h25.45.472,stroop_test,04.02.2024,60.0891483,2025-03-13 13h26.01.198274 +0100
,,,,70,10,5,,,,,,,,,,,,,blau,yellow,g,0,g,1,0.6925866,None,,,,,,,,,5,10,70,7,331.5066635,,,,,,,,,,,,,,,,,331.4929175,332.7066351,333.5062446,333.4910197,,,,,,,,,,,,,,,,,,,,,,,,,,,,,,,,,,,333.4976441,333.5062446,333.5062446,334.2094931,g,1,0.6925866,None,,,,,sub-010,1,2025-03-13_13h25.45.472,stroop_test,04.02.2024,60.0891483,2025-03-13 13h26.01.198274 +0100
,,,,71,11,5,,,,,,,,,,,,,gelb,yellow,g,1,g,1,0.7655174,None,,,,,,,,,5,11,71,11,334.2233308,,,,,,,,,,,,,,,,,334.2101402,334.3229735,335.1230569,335.1076236,,,,,,,,,,,,,,,,,,,,,,,,,,,,,,,,,,,335.1123346,335.1230569,335.1230569,335.8920908,g,1,0.7655174,None,,,,,sub-010,1,2025-03-13_13h25.45.472,stroop_test,04.02.2024,60.0891483,2025-03-13 13h26.01.198274 +0100
,,,,72,0,6,,,,,,,,,,,,,rot,red,r,1,r,1,0.526614,None,,,,,,,,,6,0,72,1,335.9059586,,,,,,,,,,,,,,,,,335.8925403,336.7064035,337.5062228,337.4912407,,,,,,,,,,,,,,,,,,,,,,,,,,,,,,,,,,,337.4982042,337.5062228,337.5062228,338.0415317,r,1,0.526614,None,,,,,sub-010,1,2025-03-13_13h25.45.472,stroop_test,04.02.2024,60.0891483,2025-03-13 13h26.01.198274 +0100
,,,,73,1,6,,,,,,,,,,,,,blau,yellow,g,0,g,1,0.4763642,None,,,,,,,,,6,1,73,7,338.0564705,,,,,,,,,,,,,,,,,338.0423633,339.2562213,340.0561751,340.0414242,,,,,,,,,,,,,,,,,,,,,,,,,,,,,,,,,,,340.0470236,340.0561751,340.0561751,340.5421744,g,1,0.4763642,None,,,,,sub-010,1,2025-03-13_13h25.45.472,stroop_test,04.02.2024,60.0891483,2025-03-13 13h26.01.198274 +0100
,,,,74,2,6,,,,,,,,,,,,,gelb,yellow,g,1,g,1,0.7256589,None,,,,,,,,,6,2,74,10,340.5557422,,,,,,,,,,,,,,,,,340.5425521,341.3561635,342.1563707,342.1411922,,,,,,,,,,,,,,,,,,,,,,,,,,,,,,,,,,,342.1470659,342.1563707,342.1563707,342.8924982,g,1,0.7256589,None,,,,,sub-010,1,2025-03-13_13h25.45.472,stroop_test,04.02.2024,60.0891483,2025-03-13 13h26.01.198274 +0100
,,,,75,3,6,,,,,,,,,,,,,rot,red,r,1,r,1,0.529705,None,,,,,,,,,6,3,75,0,342.9063606,,,,,,,,,,,,,,,,,342.8930966,343.7061394,344.5057592,344.4911348,,,,,,,,,,,,,,,,,,,,,,,,,,,,,,,,,,,344.4968304,344.5057592,344.5057592,345.0423065,r,1,0.529705,None,,,,,sub-010,1,2025-03-13_13h25.45.472,stroop_test,04.02.2024,60.0891483,2025-03-13 13h26.01.198274 +0100
,,,,76,4,6,,,,,,,,,,,,,rot,blue,b,0,b,1,0.5926408,None,,,,,,,,,6,4,76,2,345.0565617,,,,,,,,,,,,,,,,,345.0430291,345.1558143,345.9559291,345.9410954,,,,,,,,,,,,,,,,,,,,,,,,,,,,,,,,,,,345.9420743,345.9559291,345.9559291,346.558792,b,1,0.5926408,None,,,,,sub-010,1,2025-03-13_13h25.45.472,stroop_test,04.02.2024,60.0891483,2025-03-13 13h26.01.198274 +0100
,,,,77,5,6,,,,,,,,,,,,,blau,blue,b,1,b,1,0.7015057,None,,,,,,,,,6,5,77,6,346.5726776,,,,,,,,,,,,,,,,,346.5592062,347.3725781,348.1722088,348.1567744,,,,,,,,,,,,,,,,,,,,,,,,,,,,,,,,,,,348.163475,348.1722088,348.1722088,348.8904711,b,1,0.7015057,None,,,,,sub-010,1,2025-03-13_13h25.45.472,stroop_test,04.02.2024,60.0891483,2025-03-13 13h26.01.198274 +0100
,,,,78,6,6,,,,,,,,,,,,,blau,red,r,0,r,1,0.4450752,None,,,,,,,,,6,6,78,4,348.9054009,,,,,,,,,,,,,,,,,348.8909379,349.2556357,350.0560546,350.0401287,,,,,,,,,,,,,,,,,,,,,,,,,,,,,,,,,,,350.0409845,350.0560546,350.0560546,350.5085877,r,1,0.4450752,None,,,,,sub-010,1,2025-03-13_13h25.45.472,stroop_test,04.02.2024,60.0891483,2025-03-13 13h26.01.198274 +0100
,,,,79,7,6,,,,,,,,,,,,,blau,blue,b,1,b,1,0.394055,None,,,,,,,,,6,7,79,5,350.5220012,,,,,,,,,,,,,,,,,350.5092496,351.3225739,352.1219076,352.1067077,,,,,,,,,,,,,,,,,,,,,,,,,,,,,,,,,,,352.1072739,352.1219076,352.1219076,352.5234212,b,1,0.394055,None,,,,,sub-010,1,2025-03-13_13h25.45.472,stroop_test,04.02.2024,60.0891483,2025-03-13 13h26.01.198274 +0100
,,,,80,8,6,,,,,,,,,,,,,rot,yellow,g,0,g,1,0.3919131,None,,,,,,,,,6,8,80,3,352.5383369,,,,,,,,,,,,,,,,,352.5240265,353.7389297,354.5388176,354.5235114,,,,,,,,,,,,,,,,,,,,,,,,,,,,,,,,,,,354.528261,354.5388176,354.5388176,354.9409757,g,1,0.3919131,None,,,,,sub-010,1,2025-03-13_13h25.45.472,stroop_test,04.02.2024,60.0891483,2025-03-13 13h26.01.198274 +0100
,,,,81,9,6,,,,,,,,,,,,,gelb,yellow,g,1,g,1,0.5958564,None,,,,,,,,,6,9,81,11,354.9557744,,,,,,,,,,,,,,,,,354.9416621,356.1551641,356.9549644,356.9404757,,,,,,,,,,,,,,,,,,,,,,,,,,,,,,,,,,,356.9461688,356.9549644,356.9549644,357.5588865,g,1,0.5958564,None,,,,,sub-010,1,2025-03-13_13h25.45.472,stroop_test,04.02.2024,60.0891483,2025-03-13 13h26.01.198274 +0100
,,,,82,10,6,,,,,,,,,,,,,gelb,red,r,0,r,1,0.6418165,None,,,,,,,,,6,10,82,8,357.5715801,,,,,,,,,,,,,,,,,357.5593684,357.9222253,358.7217832,358.7063873,,,,,,,,,,,,,,,,,,,,,,,,,,,,,,,,,,,358.7069977,358.7217832,358.7217832,359.3742189,r,1,0.6418165,None,,,,,sub-010,1,2025-03-13_13h25.45.472,stroop_test,04.02.2024,60.0891483,2025-03-13 13h26.01.198274 +0100
,,,,83,11,6,,,,,,,,,,,,,gelb,blue,b,0,b,1,0.8392497,None,,,,,,,,,6,11,83,9,359.3886147,,,,,,,,,,,,,,,,,359.3747786,359.4885769,360.2884284,360.2729009,,,,,,,,,,,,,,,,,,,,,,,,,,,,,,,,,,,360.273494,360.2884284,360.2884284,361.1402744,b,1,0.8392497,None,,,,,sub-010,1,2025-03-13_13h25.45.472,stroop_test,04.02.2024,60.0891483,2025-03-13 13h26.01.198274 +0100
,,,,84,0,7,,,,,,,,,,,,,blau,blue,b,1,b,1,0.8863955,None,,,,,,,,,7,0,84,5,361.1550518,,,,,,,,,,,,,,,,,361.1409276,362.3550656,363.1553404,363.1398595,,,,,,,,,,,,,,,,,,,,,,,,,,,,,,,,,,,363.1447892,363.1553404,363.1553404,364.0567442,b,1,0.8863955,None,,,,,sub-010,1,2025-03-13_13h25.45.472,stroop_test,04.02.2024,60.0891483,2025-03-13 13h26.01.198274 +0100
,,,,85,1,7,,,,,,,,,,,,,rot,yellow,g,0,g,1,2.3785147,None,,,,,,,,,7,1,85,3,364.071075,,,,,,,,,,,,,,,,,364.0572636,364.171885,364.9713201,364.9562862,,,,,,,,,,,,,,,,,,,,,,,,,,,,,,,,,,,364.9610007,364.9713201,364.9713201,367.3575329,g,1,2.3785147,None,,,,,sub-010,1,2025-03-13_13h25.45.472,stroop_test,04.02.2024,60.0891483,2025-03-13 13h26.01.198274 +0100
,,,,86,2,7,,,,,,,,,,,,,gelb,yellow,g,1,g,1,1.0273213,None,,,,,,,,,7,2,86,11,367.3716089,,,,,,,,,,,,,,,,,367.3579486,367.4717215,368.2710368,368.2559478,,,,,,,,,,,,,,,,,,,,,,,,,,,,,,,,,,,368.2622124,368.2710368,368.2710368,369.3072966,g,1,1.0273213,None,,,,,sub-010,1,2025-03-13_13h25.45.472,stroop_test,04.02.2024,60.0891483,2025-03-13 13h26.01.198274 +0100
,,,,87,3,7,,,,,,,,,,,,,gelb,blue,b,0,b,1,0.9417782,None,,,,,,,,,7,3,87,9,369.3211032,,,,,,,,,,,,,,,,,369.3079612,370.1215018,370.921089,370.9063303,,,,,,,,,,,,,,,,,,,,,,,,,,,,,,,,,,,370.9073277,370.921089,370.921089,371.8725559,b,1,0.9417782,None,,,,,sub-010,1,2025-03-13_13h25.45.472,stroop_test,04.02.2024,60.0891483,2025-03-13 13h26.01.198274 +0100
,,,,88,4,7,,,,,,,,,,,,,blau,blue,b,1,b,1,0.8168535,None,,,,,,,,,7,4,88,6,371.8880627,,,,,,,,,,,,,,,,,371.8728584,373.0874252,373.8876583,373.8722988,,,,,,,,,,,,,,,,,,,,,,,,,,,,,,,,,,,373.8768977,373.8876583,373.8876583,374.7085584,b,1,0.8168535,None,,,,,sub-010,1,2025-03-13_13h25.45.472,stroop_test,04.02.2024,60.0891483,2025-03-13 13h26.01.198274 +0100
,,,,89,5,7,,,,,,,,,,,,,rot,red,r,1,r,1,1.248684,None,,,,,,,,,7,5,89,0,374.7211411,,,,,,,,,,,,,,,,,374.7094321,375.9210248,376.721528,376.7059217,,,,,,,,,,,,,,,,,,,,,,,,,,,,,,,,,,,376.7116821,376.721528,376.721528,377.9744383,r,1,1.248684,None,,,,,sub-010,1,2025-03-13_13h25.45.472,stroop_test,04.02.2024,60.0891483,2025-03-13 13h26.01.198274 +0100
,,,,90,6,7,,,,,,,,,,,,,blau,yellow,g,0,g,1,1.1498762,None,,,,,,,,,7,6,90,7,377.9876664,,,,,,,,,,,,,,,,,377.9752627,378.7873833,379.5901732,379.5734604,,,,,,,,,,,,,,,,,,,,,,,,,,,,,,,,,,,379.5821855,379.5901732,379.5901732,380.7559315,g,1,1.1498762,None,,,,,sub-010,1,2025-03-13_13h25.45.472,stroop_test,04.02.2024,60.0891483,2025-03-13 13h26.01.198274 +0100
,,,,91,7,7,,,,,,,,,,,,,rot,blue,b,0,b,1,0.6705834,None,,,,,,,,,7,7,91,2,380.7705641,,,,,,,,,,,,,,,,,380.756313,381.970931,382.7707066,382.755573,,,,,,,,,,,,,,,,,,,,,,,,,,,,,,,,,,,382.7614784,382.7707066,382.7707066,383.4565274,b,1,0.6705834,None,,,,,sub-010,1,2025-03-13_13h25.45.472,stroop_test,04.02.2024,60.0891483,2025-03-13 13h26.01.198274 +0100
,,,,92,8,7,,,,,,,,,,,,,rot,red,r,1,r,1,0.5082652,None,,,,,,,,,7,8,92,1,383.4708292,,,,,,,,,,,,,,,,,383.4576062,383.8203896,384.6209088,384.6061266,,,,,,,,,,,,,,,,,,,,,,,,,,,,,,,,,,,384.6074459,384.6209088,384.6209088,385.1398639,r,1,0.5082652,None,,,,,sub-010,1,2025-03-13_13h25.45.472,stroop_test,04.02.2024,60.0891483,2025-03-13 13h26.01.198274 +0100
,,,,93,9,7,,,,,,,,,,,,,gelb,red,r,0,r,1,0.651356,None,,,,,,,,,7,9,93,8,385.1541137,,,,,,,,,,,,,,,,,385.1408155,385.503626,386.3033334,386.2887711,,,,,,,,,,,,,,,,,,,,,,,,,,,,,,,,,,,386.2954309,386.3033334,386.3033334,386.9571483,r,1,0.651356,None,,,,,sub-010,1,2025-03-13_13h25.45.472,stroop_test,04.02.2024,60.0891483,2025-03-13 13h26.01.198274 +0100
,,,,94,10,7,,,,,,,,,,,,,blau,red,r,0,r,1,0.58431,None,,,,,,,,,7,10,94,4,386.9703698,,,,,,,,,,,,,,,,,386.958122,388.1701147,388.9701994,388.9552444,,,,,,,,,,,,,,,,,,,,,,,,,,,,,,,,,,,388.9618749,388.9701994,388.9701994,389.5728886,r,1,0.58431,None,,,,,sub-010,1,2025-03-13_13h25.45.472,stroop_test,04.02.2024,60.0891483,2025-03-13 13h26.01.198274 +0100
,,,,95,11,7,,,,,,,,,,,,,gelb,yellow,g,1,g,1,0.3705981,None,,,,,,,,,7,11,95,10,389.5867329,,,,,,,,,,,,,,,,,389.5733678,390.7870253,391.5918415,391.5709296,,,,,,,,,,,,,,,,,,,,,,,,,,,,,,,,,,,391.5763698,391.5918415,391.5918415,391.9724641,g,1,0.3705981,None,,,,,sub-010,1,2025-03-13_13h25.45.472,stroop_test,04.02.2024,60.0891483,2025-03-13 13h26.01.198274 +0100
,,,,96,0,8,,,,,,,,,,,,,blau,blue,b,1,b,1,0.4945917,None,,,,,,,,,8,0,96,5,391.9867647,,,,,,,,,,,,,,,,,391.9734663,392.3374274,393.1370263,393.1222175,,,,,,,,,,,,,,,,,,,,,,,,,,,,,,,,,,,393.1290505,393.1370263,393.1370263,393.638993,b,1,0.4945917,None,,,,,sub-010,1,2025-03-13_13h25.45.472,stroop_test,04.02.2024,60.0891483,2025-03-13 13h26.01.198274 +0100
,,,,97,1,8,,,,,,,,,,,,,blau,blue,b,1,b,1,0.4423827,None,,,,,,,,,8,1,97,6,393.6536485,,,,,,,,,,,,,,,,,393.6395191,394.8541108,395.6532361,395.6389634,,,,,,,,,,,,,,,,,,,,,,,,,,,,,,,,,,,395.6398515,395.6532361,395.6532361,396.1039278,b,1,0.4423827,None,,,,,sub-010,1,2025-03-13_13h25.45.472,stroop_test,04.02.2024,60.0891483,2025-03-13 13h26.01.198274 +0100
,,,,98,2,8,,,,,,,,,,,,,rot,red,r,1,r,1,0.4833197,None,,,,,,,,,8,2,98,1,396.1195699,,,,,,,,,,,,,,,,,396.1041908,396.9034202,397.7032019,397.6886303,,,,,,,,,,,,,,,,,,,,,,,,,,,,,,,,,,,397.6946894,397.7032019,397.7032019,398.1903932,r,1,0.4833197,None,,,,,sub-010,1,2025-03-13_13h25.45.472,stroop_test,04.02.2024,60.0891483,2025-03-13 13h26.01.198274 +0100
,,,,99,3,8,,,,,,,,,,,,,rot,blue,b,0,b,1,0.4519364,None,,,,,,,,,8,3,99,2,398.2031018,,,,,,,,,,,,,,,,,398.1910375,399.403431,400.2035503,400.1873693,,,,,,,,,,,,,,,,,,,,,,,,,,,,,,,,,,,400.187896,400.2035503,400.2035503,400.6719667,b,1,0.4519364,None,,,,,sub-010,1,2025-03-13_13h25.45.472,stroop_test,04.02.2024,60.0891483,2025-03-13 13h26.01.198274 +0100
,,,,100,4,8,,,,,,,,,,,,,gelb,blue,b,0,b,1,0.7036112,None,,,,,,,,,8,4,100,9,400.6869596,,,,,,,,,,,,,,,,,400.6726154,401.8869921,402.6866109,402.6710508,,,,,,,,,,,,,,,,,,,,,,,,,,,,,,,,,,,402.6774991,402.6866109,402.6866109,403.4054687,b,1,0.7036112,None,,,,,sub-010,1,2025-03-13_13h25.45.472,stroop_test,04.02.2024,60.0891483,2025-03-13 13h26.01.198274 +0100
,,,,101,5,8,,,,,,,,,,,,,blau,yellow,g,0,g,1,0.4042804,None,,,,,,,,,8,5,101,7,403.4201237,,,,,,,,,,,,,,,,,403.4060368,404.2206417,405.0199653,405.0049453,,,,,,,,,,,,,,,,,,,,,,,,,,,,,,,,,,,405.0125031,405.0199653,405.0199653,405.4399652,g,1,0.4042804,None,,,,,sub-010,1,2025-03-13_13h25.45.472,stroop_test,04.02.2024,60.0891483,2025-03-13 13h26.01.198274 +0100
,,,,102,6,8,,,,,,,,,,,,,rot,red,r,1,r,1,0.3958206,None,,,,,,,,,8,6,102,0,405.4534909,,,,,,,,,,,,,,,,,405.4405816,406.6532356,407.4531987,407.4385368,,,,,,,,,,,,,,,,,,,,,,,,,,,,,,,,,,,407.4441611,407.4531987,407.4531987,407.8551168,r,1,0.3958206,None,,,,,sub-010,1,2025-03-13_13h25.45.472,stroop_test,04.02.2024,60.0891483,2025-03-13 13h26.01.198274 +0100
,,,,103,7,8,,,,,,,,,,,,,gelb,red,r,0,g,0,0.4039109,None,,,,,,,,,8,7,103,8,407.8691115,,,,,,,,,,,,,,,,,407.8556904,408.6694559,409.4752314,409.4549598,,,,,,,,,,,,,,,,,,,,,,,,,,,,,,,,,,,409.4638251,409.4752314,409.4752314,409.8886653,g,0,0.4039109,None,,,,,sub-010,1,2025-03-13_13h25.45.472,stroop_test,04.02.2024,60.0891483,2025-03-13 13h26.01.198274 +0100
,,,,104,8,8,,,,,,,,,,,,,blau,red,r,0,r,1,0.3942521,None,,,,,,,,,8,8,104,4,409.9026044,,,,,,,,,,,,,,,,,409.8893299,410.7026385,411.5047299,411.4876152,,,,,,,,,,,,,,,,,,,,,,,,,,,,,,,,,,,411.4933251,411.5047299,411.5047299,411.9058544,r,1,0.3942521,None,,,,,sub-010,1,2025-03-13_13h25.45.472,stroop_test,04.02.2024,60.0891483,2025-03-13 13h26.01.198274 +0100
,,,,105,9,8,,,,,,,,,,,,,gelb,yellow,g,1,b,0,0.0503085,None,,,,,,,,,8,9,105,11,411.9191389,,,,,,,,,,,,,,,,,411.9065328,412.019335,412.8191404,412.8037364,,,,,,,,,,,,,,,,,,,,,,,,,,,,,,,,,,,412.8096284,412.8191404,412.8191404,412.8735426,b,0,0.0503085,None,,,,,sub-010,1,2025-03-13_13h25.45.472,stroop_test,04.02.2024,60.0891483,2025-03-13 13h26.01.198274 +0100
,,,,106,10,8,,,,,,,,,,,,,rot,yellow,g,0,g,1,0.6069688,None,,,,,,,,,8,10,106,3,412.8857236,,,,,,,,,,,,,,,,,412.8741822,413.6865918,414.4860267,414.4713514,,,,,,,,,,,,,,,,,,,,,,,,,,,,,,,,,,,414.477879,414.4860267,414.4860267,415.105481,g,1,0.6069688,None,,,,,sub-010,1,2025-03-13_13h25.45.472,stroop_test,04.02.2024,60.0891483,2025-03-13 13h26.01.198274 +0100
,,,,107,11,8,,,,,,,,,,,,,gelb,yellow,g,1,g,1,0.4702994,None,,,,,,,,,8,11,107,10,415.1197297,,,,,,,,,,,,,,,,,415.1063828,415.4700954,416.2911471,416.2717289,,,,,,,,,,,,,,,,,,,,,,,,,,,,,,,,,,,416.2807376,416.2911471,416.2911471,416.7716137,g,1,0.4702994,None,,,,,sub-010,1,2025-03-13_13h25.45.472,stroop_test,04.02.2024,60.0891483,2025-03-13 13h26.01.198274 +0100
,,,,108,0,9,,,,,,,,,,,,,blau,yellow,g,0,g,1,0.4696167,None,,,,,,,,,9,0,108,7,416.7857882,,,,,,,,,,,,,,,,,416.7721208,417.5854946,418.3860848,418.3697864,,,,,,,,,,,,,,,,,,,,,,,,,,,,,,,,,,,418.3751037,418.3860848,418.3860848,418.8700152,g,1,0.4696167,None,,,,,sub-010,1,2025-03-13_13h25.45.472,stroop_test,04.02.2024,60.0891483,2025-03-13 13h26.01.198274 +0100
,,,,109,1,9,,,,,,,,,,,,,blau,blue,b,1,b,1,0.6343816,None,,,,,,,,,9,1,109,6,418.8855129,,,,,,,,,,,,,,,,,418.8703187,419.2356109,420.0354591,420.020965,,,,,,,,,,,,,,,,,,,,,,,,,,,,,,,,,,,420.022307,420.0354591,420.0354591,420.6730456,b,1,0.6343816,None,,,,,sub-010,1,2025-03-13_13h25.45.472,stroop_test,04.02.2024,60.0891483,2025-03-13 13h26.01.198274 +0100
,,,,110,2,9,,,,,,,,,,,,,blau,blue,b,1,b,1,1.2951679,None,,,,,,,,,9,2,110,5,420.6856832,,,,,,,,,,,,,,,,,420.6736386,421.8858253,422.6860055,422.6706398,,,,,,,,,,,,,,,,,,,,,,,,,,,,,,,,,,,422.6719504,422.6860055,422.6860055,423.9892326,b,1,1.2951679,None,,,,,sub-010,1,2025-03-13_13h25.45.472,stroop_test,04.02.2024,60.0891483,2025-03-13 13h26.01.198274 +0100
,,,,111,3,9,,,,,,,,,,,,,rot,red,r,1,r,1,0.3993911,None,,,,,,,,,9,3,111,1,424.0024995,,,,,,,,,,,,,,,,,423.9898276,424.8026402,425.6023168,425.5872245,,,,,,,,,,,,,,,,,,,,,,,,,,,,,,,,,,,425.5926215,425.6023168,425.6023168,426.0065785,r,1,0.3993911,None,,,,,sub-010,1,2025-03-13_13h25.45.472,stroop_test,04.02.2024,60.0891483,2025-03-13 13h26.01.198274 +0100
,,,,112,4,9,,,,,,,,,,,,,gelb,blue,b,0,g,0,0.4017558,None,,,,,,,,,9,4,112,9,426.0194037,,,,,,,,,,,,,,,,,426.0072091,426.819231,427.6187645,427.6039889,,,,,,,,,,,,,,,,,,,,,,,,,,,,,,,,,,,427.6116803,427.6187645,427.6187645,428.0237358,g,0,0.4017558,None,,,,,sub-010,1,2025-03-13_13h25.45.472,stroop_test,04.02.2024,60.0891483,2025-03-13 13h26.01.198274 +0100
,,,,113,5,9,,,,,,,,,,,,,gelb,yellow,g,1,g,1,0.8447063,None,,,,,,,,,9,5,113,10,428.0346893,,,,,,,,,,,,,,,,,428.0241679,429.2351645,430.035172,430.0199269,,,,,,,,,,,,,,,,,,,,,,,,,,,,,,,,,,,430.0220813,430.035172,430.035172,430.8864439,g,1,0.8447063,None,,,,,sub-010,1,2025-03-13_13h25.45.472,stroop_test,04.02.2024,60.0891483,2025-03-13 13h26.01.198274 +0100
,,,,114,6,9,,,,,,,,,,,,,gelb,red,r,0,r,1,0.4673853,None,,,,,,,,,9,6,114,8,430.9017211,,,,,,,,,,,,,,,,,430.886842,431.7013995,432.501405,432.4870042,,,,,,,,,,,,,,,,,,,,,,,,,,,,,,,,,,,432.4879576,432.501405,432.501405,432.9723104,r,1,0.4673853,None,,,,,sub-010,1,2025-03-13_13h25.45.472,stroop_test,04.02.2024,60.0891483,2025-03-13 13h26.01.198274 +0100
,,,,115,7,9,,,,,,,,,,,,,rot,blue,b,0,b,1,0.4743946,None,,,,,,,,,9,7,115,2,432.9851396,,,,,,,,,,,,,,,,,432.9732573,434.1848585,434.984752,434.9699177,,,,,,,,,,,,,,,,,,,,,,,,,,,,,,,,,,,434.9768434,434.984752,434.984752,435.4712619,b,1,0.4743946,None,,,,,sub-010,1,2025-03-13_13h25.45.472,stroop_test,04.02.2024,60.0891483,2025-03-13 13h26.01.198274 +0100
,,,,116,8,9,,,,,,,,,,,,,blau,red,r,0,b,0,0.1019708,None,,,,,,,,,9,8,116,4,435.4848044,,,,,,,,,,,,,,,,,435.471979,435.584839,436.3845935,436.3696217,,,,,,,,,,,,,,,,,,,,,,,,,,,,,,,,,,,436.3774839,436.3845935,436.3845935,436.5065917,b,0,0.1019708,None,,,,,sub-010,1,2025-03-13_13h25.45.472,stroop_test,04.02.2024,60.0891483,2025-03-13 13h26.01.198274 +0100
,,,,117,9,9,,,,,,,,,,,,,gelb,yellow,g,1,g,1,0.5958399,None,,,,,,,,,9,9,117,11,436.5184658,,,,,,,,,,,,,,,,,436.5072525,436.617895,437.4179512,437.4027501,,,,,,,,,,,,,,,,,,,,,,,,,,,,,,,,,,,437.408445,437.4179512,437.4179512,438.0197096,g,1,0.5958399,None,,,,,sub-010,1,2025-03-13_13h25.45.472,stroop_test,04.02.2024,60.0891483,2025-03-13 13h26.01.198274 +0100
,,,,118,10,9,,,,,,,,,,,,,rot,yellow,g,0,g,1,0.5935854,None,,,,,,,,,9,10,118,3,438.0345728,,,,,,,,,,,,,,,,,438.0201484,438.1345468,438.9342967,438.9193916,,,,,,,,,,,,,,,,,,,,,,,,,,,,,,,,,,,438.9242291,438.9342967,438.9342967,439.5369139,g,1,0.5935854,None,,,,,sub-010,1,2025-03-13_13h25.45.472,stroop_test,04.02.2024,60.0891483,2025-03-13 13h26.01.198274 +0100
,,,,119,11,9,,,,,,,,,,,,,rot,red,r,1,r,1,0.4509762,None,,,,,,,,,9,11,119,0,439.5510152,,,,,,,,,,,,,,,,,439.5374018,440.3509389,441.1508965,441.1354291,,,,,,,,,,,,,,,,,,,,,,,,,,,,,,,,,,,441.1362261,441.1508965,441.1508965,441.6061102,r,1,0.4509762,None,,,,,sub-010,1,2025-03-13_13h25.45.472,stroop_test,04.02.2024,60.0891483,2025-03-13 13h26.01.198274 +0100
,,,,,,,,,,,,,,,,,,,,,,,,,,,,,,,,,,,,,,,,,,,,,,,,,,,,,,,,,,,,,,,,,,,,,,,,,,,,,,,,,,,,,,,,,,,,,,,,,,,,,,441.6064829,441.6174609,446.6181023,446.6028855,sub-010,1,2025-03-13_13h25.45.472,stroop_test,04.02.2024,60.0891483,2025-03-13 13h26.01.198274 +0100
