direction,corrAns,thisN,thisTrialN,thisRepN,respDots.keys,respDots.corr,respDots.rt,respDots.duration,randomInstr,respRandomInstr.keys,respRandomInstr.rt,respRandomInstr.duration,practice_trials.thisRepN,practice_trials.thisTrialN,practice_trials.thisN,practice_trials.thisIndex,instr_trials.thisRepN,instr_trials.thisTrialN,instr_trials.thisN,instr_trials.thisIndex,test_trials.thisRepN,test_trials.thisTrialN,test_trials.thisN,test_trials.thisIndex,thisRow.t,notes,general_instruction.started,textGeneralInstr.started,respGeneralInstr.started,general_instruction.stopped,respGeneralInstr.keys,respGeneralInstr.rt,respGeneralInstr.duration,ITI.started,fixcross.started,fixcross.stopped,ITI.stopped,dots.started,backgroundDots.started,stimulusDots.started,respDots.started,dots.stopped,practice_trials.respDots.keys,practice_trials.respDots.corr,practice_trials.respDots.rt,practice_trials.respDots.duration,feedback.started,textFeedback.started,textFeedback.stopped,feedback.stopped,stimulusDots.stopped,info.started,textInfo.started,keyRespInfo.started,info.stopped,keyRespInfo.keys,keyRespInfo.rt,keyRespInfo.duration,test_instruction.started,textTestInstr.started,respTestInstr.started,test_instruction.stopped,respTestInstr.keys,respTestInstr.rt,respTestInstr.duration,random_instruction.started,textRandomInstr.started,respRandomInstr.started,random_instruction.stopped,instr_trials.respRandomInstr.keys,instr_trials.respRandomInstr.rt,instr_trials.respRandomInstr.duration,test_trials.respDots.keys,test_trials.respDots.corr,test_trials.respDots.rt,test_trials.respDots.duration,goodbye.started,textGoodbye.started,goodbye.stopped,participant,session,expName,frameRate,Unnamed: 87
,,,,,,,,,,,,,,,,,,,,,,,,,,,0.0033249999396502,0.0083898000884801,0.0083898000884801,11.996447900077328,space,11.971440399996936,,,,,,,,,,,,,,,,,,,,,,,,,,,,,,,,,,,,,,,,,,,,,,,,sub-228,1,random_dot,60.05753508127867,
right,right,0.0,0.0,0.0,right,1.0,1.3146466999314723,,,,,,0.0,0.0,0.0,1.0,,,,,,,,,12.020926600089297,,,,,,,,,12.016035800101236,12.107920200098306,13.028566400054842,12.892375800060108,12.892692799912766,13.028566400054842,13.028566400054842,13.028566400054842,14.350816800026225,right,1.0,1.3146466999314723,,14.358082900056615,14.365108800120652,14.867190000135452,14.851156499935314,,,,,,,,,,,,,,,,,,,,,,,,,,,,,,sub-228,1,random_dot,60.05753508127867,
left,left,1.0,1.0,0.0,left,1.0,1.770635300083086,,,,,,0.0,1.0,1.0,0.0,,,,,,,,,14.867190000135452,,,,,,,,,14.851418500067666,14.950959800044076,15.751846899976954,15.736251499969512,15.736571999965236,15.751846899976954,15.751846899976954,15.751846899976954,17.539019800024107,left,1.0,1.770635300083086,,17.539112499915063,17.554615499917418,18.055590100120757,18.03937010001391,,,,,,,,,,,,,,,,,,,,,,,,,,,,,,sub-228,1,random_dot,60.05753508127867,
left,left,2.0,0.0,1.0,right,0.0,1.6645116000436246,,,,,,1.0,0.0,2.0,0.0,,,,,,,,,18.055590100120757,,,,,,,,,18.03962940000929,19.240951200015843,20.041576999938115,20.025723099941388,20.026039800141007,20.041576999938115,20.041576999938115,20.041576999938115,21.711687200004235,right,0.0,1.6645116000436246,,21.716885100118816,21.726125200046223,22.228149800095707,22.211951199918985,,,,,,,,,,,,,,,,,,,,,,,,,,,,,,sub-228,1,random_dot,60.05753508127867,
right,right,3.0,1.0,1.0,right,1.0,1.036008199909702,,,,,,1.0,1.0,3.0,1.0,,,,,,,,,22.228149800095707,,,,,,,,,22.21227309992537,23.012559399940077,23.813789499923587,23.798543100012463,23.79892640002072,23.813789499923587,23.813789499923587,23.813789499923587,24.866628299932927,right,1.0,1.036008199909702,,24.86919609992765,24.882465800037608,25.38198360009119,25.36633970006369,,,,,,,,,,,,,,,,,,,,,,,,,,,,,,sub-228,1,random_dot,60.05753508127867,
left,left,4.0,0.0,2.0,left,1.0,1.218483200063929,,,,,,2.0,0.0,4.0,0.0,,,,,,,,,25.38198360009119,,,,,,,,,25.366662499960512,25.467277500079945,26.268459199927747,26.251881700009108,26.252255799947307,26.268459199927747,26.268459199927747,26.268459199927747,27.488483699969947,left,1.0,1.218483200063929,,27.4885982000269,27.50296219997108,28.003630900057036,27.988234299933534,,,,,,,,,,,,,,,,,,,,,,,,,,,,,,sub-228,1,random_dot,60.05753508127867,
right,right,5.0,1.0,2.0,right,1.0,0.7524703999515623,,,,,,2.0,1.0,5.0,1.0,,,,,,,,,28.003630900057036,,,,,,,,,27.98849679995328,29.18932290002704,29.99037229991518,29.974520799936727,29.97490320005454,29.99037229991518,29.99037229991518,29.99037229991518,30.758469799999148,right,1.0,0.7524703999515623,,30.758579600136727,30.773581400047988,31.27460450003855,31.258984999964014,,,,,,,,,,,,,,,,,,,,,,,,,,,,,,sub-228,1,random_dot,60.05753508127867,
right,right,6.0,0.0,3.0,right,1.0,1.1399121000431478,,,,,,3.0,0.0,6.0,1.0,,,,,,,,,31.27460450003855,,,,,,,,,31.259340499993414,32.460750200087205,33.26172890001908,33.24580650008284,33.24611770012416,33.26172890001908,33.26172890001908,33.26172890001908,34.41443850006908,right,1.0,1.1399121000431478,,34.414551299996674,34.42998360004276,34.93076099990867,34.91514419997111,,,,,,,,,,,,,,,,,,,,,,,,,,,,,,sub-228,1,random_dot,60.05753508127867,
left,left,7.0,1.0,3.0,left,1.0,0.7491467001382262,,,,,,3.0,1.0,7.0,0.0,,,,,,,,,34.93076099990867,,,,,,,,,34.91540600010194,35.01509220013395,35.81622810009867,35.79970950004645,35.80007850006223,35.81622810009867,35.81622810009867,35.81622810009867,36.56794540002011,left,1.0,0.7491467001382262,,36.568059999961406,36.583006999921054,37.08393299998716,37.0680537999142,,,,,,,,,,,,,,,,,,,,,,,,,,,,,,sub-228,1,random_dot,60.05753508127867,
left,left,8.0,0.0,4.0,left,1.0,1.8037187000736596,,,,,,4.0,0.0,8.0,0.0,,,,,,,,,37.08393299998716,,,,,,,,,37.0683113001287,37.41810739994981,38.2195077999495,38.203710000030696,38.20402209996246,38.2195077999495,38.2195077999495,38.2195077999495,40.03955899993889,left,1.0,1.8037187000736596,,40.039674300001934,40.054394599981606,40.5560695999302,40.54018110013567,,,,,,,,,,,,,,,,,,,,,,,,,,,,,,sub-228,1,random_dot,60.05753508127867,
right,right,9.0,1.0,4.0,right,1.0,0.8650346000213176,,,,,,4.0,1.0,9.0,1.0,,,,,,,,,40.5560695999302,,,,,,,,,40.54047180013731,40.89020889997482,41.69114400004037,41.67531149997376,41.67561800009571,41.69114400004037,41.69114400004037,41.69114400004037,42.56020039995201,right,1.0,0.8650346000213176,,42.560290500056,42.57536870008335,43.07656319998205,43.06078940001317,,,,,,,,,,,,,,,,,,,,,,,,,,,,,,sub-228,1,random_dot,60.05753508127867,
right,right,10.0,0.0,5.0,right,1.0,0.7703956000041217,,,,,,5.0,0.0,10.0,1.0,,,,,,,,,43.07656319998205,,,,,,,,,43.06110780010931,44.261968200095,45.06358049996197,45.04763510008343,45.04800910013728,45.06358049996197,45.06358049996197,45.06358049996197,45.84929460007697,right,1.0,0.7703956000041217,,45.8494071001187,45.86312850005925,46.36530279996805,46.34927210002206,,,,,,,,,,,,,,,,,,,,,,,,,,,,,,sub-228,1,random_dot,60.05753508127867,
left,left,11.0,1.0,5.0,left,1.0,1.4851812000852078,,,,,,5.0,1.0,11.0,0.0,,,,,,,,,46.36530279996805,,,,,,,,,46.34959469991736,46.44861220009625,47.24921040004119,47.23337689996697,47.23368700011633,47.24921040004119,47.24921040004119,47.24921040004119,48.73691219999455,left,1.0,1.4851812000852078,,48.737002100097016,48.75183869991452,49.25292790005915,49.23700720001944,,,,,,,,,,,,,,,,,,,,,,,,,,,,,,sub-228,1,random_dot,60.05753508127867,
right,right,12.0,0.0,6.0,right,1.0,0.5912611000239849,,,,,,6.0,0.0,12.0,1.0,,,,,,,,,49.25292790005915,,,,,,,,,49.23727359995246,50.438449800014496,51.23831870011054,51.22182739991695,51.22210899996571,51.23831870011054,51.23831870011054,51.23831870011054,51.84150590002537,right,1.0,0.5912611000239849,,51.84162540012039,51.85663280007429,,52.34183910000138,,,,,,,,,,,,,,,,,,,,,,,,,,,,,,sub-228,1,random_dot,60.05753508127867,
left,left,13.0,1.0,6.0,right,0.0,0.6566344001330435,,,,,,6.0,1.0,13.0,0.0,,,,,,,,,52.35747190006077,,,,,,,,,52.34220580011606,52.44096449995413,53.24273960012943,53.22659799992107,53.226906300056726,53.24273960012943,53.24273960012943,53.24273960012943,53.91175039997324,right,0.0,0.6566344001330435,,53.91374300001189,53.925523000070825,54.42765800002962,54.4117433000356,,,,,,,,,,,,,,,,,,,,,,,,,,,,,,sub-228,1,random_dot,60.05753508127867,
left,left,14.0,0.0,7.0,left,1.0,5.263019799953327,,,,,,7.0,0.0,14.0,0.0,,,,,,,,,54.42765800002962,,,,,,,,,54.41200669994578,54.77822610014118,55.57991169998422,55.56249950011261,55.562886300031096,55.57991169998422,55.57991169998422,55.57991169998422,60.85457139997743,left,1.0,5.263019799953327,,60.85656960005872,60.86957639991306,,61.35485010012053,60.57052360009402,,,,,,,,,,,,,,,,,,,,,,,,,,,,,sub-228,1,random_dot,60.05753508127867,
right,right,15.0,1.0,7.0,right,1.0,0.8402014998719096,,,,,,7.0,1.0,15.0,1.0,,,,,,,,,61.37142190011218,,,,,,,,,61.35519669996575,61.704505499918014,62.50642800005153,62.49074329994619,62.49113600002602,62.50642800005153,62.50642800005153,62.50642800005153,63.35900279995985,right,1.0,0.8402014998719096,,63.35909570008516,63.37342100008391,63.87434360012412,63.858933500014246,,,,,,,,,,,,,,,,,,,,,,,,,,,,,,sub-228,1,random_dot,60.05753508127867,
left,left,16.0,0.0,8.0,left,1.0,0.7481686000246555,,,,,,8.0,0.0,16.0,0.0,,,,,,,,,63.87434360012412,,,,,,,,,63.85924690007232,64.20922149997205,65.01026739994995,64.9940655999817,64.99439220014028,65.01026739994995,65.01026739994995,65.01026739994995,65.76242480007932,left,1.0,0.7481686000246555,,65.76251729996875,65.77683570003137,66.27847780007869,66.26247980003245,,,,,,,,,,,,,,,,,,,,,,,,,,,,,,sub-228,1,random_dot,60.05753508127867,
right,right,17.0,1.0,8.0,right,1.0,0.5024652001447976,,,,,,8.0,1.0,17.0,1.0,,,,,,,,,66.27847780007869,,,,,,,,,66.26273899991065,67.06326090008952,67.8644898000639,67.84865840012208,67.84896839992143,67.8644898000639,67.8644898000639,67.8644898000639,68.38270130008459,right,1.0,0.5024652001447976,,68.38279499998316,68.39764250000007,68.89927599998191,68.8833081999328,,,,,,,,,,,,,,,,,,,,,,,,,,,,,,sub-228,1,random_dot,60.05753508127867,
left,left,18.0,0.0,9.0,right,0.0,0.5752273998223245,,,,,,9.0,0.0,18.0,0.0,,,,,,,,,68.89927599998191,,,,,,,,,68.88356500002556,70.08435139991343,70.88568380009383,70.86905060010031,70.86935870000161,70.88568380009383,70.88568380009383,70.88568380009383,71.47121300012805,right,0.0,0.5752273998223245,,71.47349820006639,71.48580219992436,71.98645789991133,71.97023970005102,,,,,,,,,,,,,,,,,,,,,,,,,,,,,,sub-228,1,random_dot,60.05753508127867,
right,right,19.0,1.0,9.0,right,1.0,0.7176754998508841,,,,,,9.0,1.0,19.0,1.0,,,,,,,,,71.98645789991133,,,,,,,,,71.97052150010131,72.32095369999297,73.12279470008798,73.1067258999683,73.10703770001419,73.12279470008798,73.12279470008798,73.12279470008798,73.84168209997006,right,1.0,0.7176754998508841,,73.84370590001345,73.85610889992677,74.35757019999437,74.34191359998658,,,,,,,,,,,,,,,,,,,,,,,,,,,,,,sub-228,1,random_dot,60.05753508127867,
,,,,,,,,,,,,,,,,,,,,,,,,,,,,,,,,,,,,,,,,,,,,,,,,,,,,74.34204789996147,74.35757019999437,74.35757019999437,77.34556549997069,space,2.977534799836576,,,,,,,,,,,,,,,,,,,,,,,sub-228,1,random_dot,60.05753508127867,
,,,,,,,,,,,,,,,,,,,,,,,,,,,,,,,,,,,,,,,,,,,,,,,,,,,,,,,,,,,77.34562400006689,77.36234090011567,77.36234090011567,78.74816170008853,space,1.374325499869883,,,,,,,,,,,,,,,,sub-228,1,random_dot,60.05753508127867,
left,left,0.0,0.0,0.0,left,1.0,1.3242650998290628,,speed,space,5.093855400104076,,,,,,0.0,0.0,0.0,1.0,0.0,0.0,0.0,0.0,83.91214130003937,,,,,,,,,83.90242579998448,84.69621989992447,85.4972055000253,85.48114940011874,85.48153019999154,85.4972055000253,85.4972055000253,85.4972055000253,86.8336175000295,,,,,,,,,,,,,,,,,,,,,,,,78.78024320001714,78.78515679994598,78.78515679994598,83.89672720013186,space,5.093855400104076,,left,1.0,1.3242650998290628,,,,,sub-228,1,random_dot,60.05753508127867,
right,right,1.0,1.0,0.0,right,1.0,0.7197592998854816,,speed,space,5.093855400104076,,,,,,0.0,0.0,0.0,1.0,0.0,1.0,1.0,1.0,86.84934620000422,,,,,,,,,86.83399530011229,88.03553749993443,88.83648089994676,88.82062819995917,88.82095220009796,88.83648089994676,88.83648089994676,88.83648089994676,89.57221090001985,,,,,,,,,,,,,,,,,,,,,,,,,,,,,,,right,1.0,0.7197592998854816,,,,,sub-228,1,random_dot,60.05753508127867,
left,left,2.0,0.0,1.0,left,1.0,1.2378057998139411,,speed,space,5.093855400104076,,,,,,0.0,0.0,0.0,1.0,1.0,0.0,2.0,0.0,89.58672409993596,,,,,,,,,89.57252179994248,89.93803899991326,90.73906560009344,90.7236508000642,90.72407240001483,90.73906560009344,90.73906560009344,90.73906560009344,91.99198479996994,,,,,,,,,,,,,,,,,,,,,,,,,,,,,,,left,1.0,1.2378057998139411,,,,,sub-228,1,random_dot,60.05753508127867,
right,right,3.0,1.0,1.0,right,1.0,0.6119528999552131,,speed,space,5.093855400104076,,,,,,0.0,0.0,0.0,1.0,1.0,1.0,3.0,1.0,92.0070106999483,,,,,,,,,91.99237990006804,92.79171280004084,93.5940906999167,93.57792710000648,93.5783303999342,93.5940906999167,93.5940906999167,93.5940906999167,94.21257610013708,,,,,,,,,,,,,,,,,,,,,,,,,,,,,,,right,1.0,0.6119528999552131,,,,,sub-228,1,random_dot,60.05753508127867,
right,right,4.0,0.0,2.0,left,0.0,1.7202395999338478,,speed,space,5.093855400104076,,,,,,0.0,0.0,0.0,1.0,2.0,0.0,4.0,1.0,94.2275626999326,,,,,,,,,94.21297220000996,95.41262650000864,96.21422860003076,96.1982589000836,96.1986344999168,96.21422860003076,96.21422860003076,96.21422860003076,97.95015830011108,,,,,,,,,,,,,,,,,,,,,,,,,,,,,,,left,0.0,1.7202395999338478,,,,,sub-228,1,random_dot,60.05753508127867,
left,left,5.0,1.0,2.0,left,1.0,1.387820400064811,,speed,space,5.093855400104076,,,,,,0.0,0.0,0.0,1.0,2.0,1.0,5.0,0.0,97.9661105000414,,,,,,,,,97.95052459998988,98.7509264999535,99.55286070005968,99.53686009999365,99.5372401000932,99.55286070005968,99.55286070005968,99.55286070005968,100.95632819994351,,,,,,,,,,,,,,,,,,,,,,,,,,,,,,,left,1.0,1.387820400064811,,,,,sub-228,1,random_dot,60.05753508127867,
left,left,6.0,0.0,3.0,left,1.0,1.0158301000483334,,speed,space,5.093855400104076,,,,,,0.0,0.0,0.0,1.0,3.0,0.0,6.0,0.0,100.97170670004562,,,,,,,,,100.95673119998536,101.30518410005608,102.10684500006028,102.0908792000264,102.0912524999585,102.10684500006028,102.10684500006028,102.10684500006028,103.12579030008057,,,,,,,,,,,,,,,,,,,,,,,,,,,,,,,left,1.0,1.0158301000483334,,,,,sub-228,1,random_dot,60.05753508127867,
right,right,7.0,1.0,3.0,right,1.0,0.6895983999129385,,speed,space,5.093855400104076,,,,,,0.0,0.0,0.0,1.0,3.0,1.0,7.0,1.0,103.14147230004892,,,,,,,,,103.12618650007062,103.24098609993234,104.04302380001172,104.02692790003492,104.02731469995342,104.04302380001172,104.04302380001172,104.04302380001172,104.74473310005853,,,,,,,,,,,,,,,,,,,,,,,,,,,,,,,right,1.0,0.6895983999129385,,,,,sub-228,1,random_dot,60.05753508127867,
left,left,8.0,0.0,4.0,left,1.0,0.8746582998428494,,speed,space,5.093855400104076,,,,,,0.0,0.0,0.0,1.0,4.0,0.0,8.0,0.0,104.76028829999268,,,,,,,,,104.74513890012167,105.09402339998633,105.89524989994244,105.87942310003564,105.87973270006478,105.89524989994244,105.89524989994244,105.89524989994244,106.781958400039,,,,,,,,,,,,,,,,,,,,,,,,,,,,,,,left,1.0,0.8746582998428494,,,,,sub-228,1,random_dot,60.05753508127867,
right,right,9.0,1.0,4.0,right,1.0,0.7572520000394434,,speed,space,5.093855400104076,,,,,,0.0,0.0,0.0,1.0,4.0,1.0,9.0,1.0,106.7968049000483,,,,,,,,,106.7823606999591,107.14720449992456,107.94881650013848,107.93288550013676,107.9332471000962,107.94881650013848,107.94881650013848,107.94881650013848,108.71815009997226,,,,,,,,,,,,,,,,,,,,,,,,,,,,,,,right,1.0,0.7572520000394434,,,,,sub-228,1,random_dot,60.05753508127867,
right,right,10.0,0.0,5.0,right,1.0,1.802324399817735,,speed,space,5.093855400104076,,,,,,0.0,0.0,0.0,1.0,5.0,0.0,10.0,1.0,108.73369790008292,,,,,,,,,108.71849290002136,109.0838599000126,109.88583000004292,109.86898040003145,109.86929049994797,109.88583000004292,109.88583000004292,109.88583000004292,111.68968520010822,,,,,,,,,,,,,,,,,,,,,,,,,,,,,,,right,1.0,1.802324399817735,,,,,sub-228,1,random_dot,60.05753508127867,
left,left,11.0,1.0,5.0,left,1.0,0.7102081999182701,,speed,space,5.093855400104076,,,,,,0.0,0.0,0.0,1.0,5.0,1.0,11.0,0.0,111.7047633000184,,,,,,,,,111.69010120001622,112.88990820012988,113.69092190009542,113.67541370005348,113.67579489992931,113.69092190009542,113.69092190009542,113.69092190009542,114.41026040003636,,,,,,,,,,,,,,,,,,,,,,,,,,,,,,,left,1.0,0.7102081999182701,,,,,sub-228,1,random_dot,60.05753508127867,
right,right,12.0,0.0,6.0,right,1.0,0.6980110998265445,,speed,space,5.093855400104076,,,,,,0.0,0.0,0.0,1.0,6.0,0.0,12.0,1.0,114.425205900101,,,,,,,,,114.41066300007516,115.61040850006977,116.4118715999648,116.3960315999575,116.39641990000382,116.4118715999648,116.4118715999648,116.4118715999648,117.11448220000602,,,,,,,,,,,,,,,,,,,,,,,,,,,,,,,right,1.0,0.6980110998265445,,,,,sub-228,1,random_dot,60.05753508127867,
left,left,13.0,1.0,6.0,left,1.0,0.7145027001388371,,speed,space,5.093855400104076,,,,,,0.0,0.0,0.0,1.0,6.0,1.0,13.0,0.0,117.12940290011466,,,,,,,,,117.11479369993322,117.48031780007295,118.28120610001496,118.2659316000063,118.2663211999461,118.28120610001496,118.28120610001496,118.28120610001496,118.99903440009804,,,,,,,,,,,,,,,,,,,,,,,,,,,,,,,left,1.0,0.7145027001388371,,,,,sub-228,1,random_dot,60.05753508127867,
left,left,14.0,0.0,7.0,right,0.0,0.6338601000607014,,speed,space,5.093855400104076,,,,,,0.0,0.0,0.0,1.0,7.0,0.0,14.0,0.0,119.0148138999939,,,,,,,,,118.9993078999687,120.20109320012853,121.00210730009712,120.98600900010206,120.98632339993492,121.00210730009712,121.00210730009712,121.00210730009712,121.63813600013964,,,,,,,,,,,,,,,,,,,,,,,,,,,,,,,right,0.0,0.6338601000607014,,,,,sub-228,1,random_dot,60.05753508127867,
right,right,15.0,1.0,7.0,right,1.0,0.7204346000216901,,speed,space,5.093855400104076,,,,,,0.0,0.0,0.0,1.0,7.0,1.0,15.0,1.0,121.65202479995789,,,,,,,,,121.63844799995422,121.98645630013198,122.78739039995708,122.77229130011985,122.77263729996048,122.78739039995708,122.78739039995708,122.78739039995708,123.5231840000488,,,,,,,,,,,,,,,,,,,,,,,,,,,,,,,right,1.0,0.7204346000216901,,,,,sub-228,1,random_dot,60.05753508127867,
right,right,16.0,0.0,8.0,right,1.0,0.7245095998514444,,speed,space,5.093855400104076,,,,,,0.0,0.0,0.0,1.0,8.0,0.0,16.0,1.0,123.53915750002488,,,,,,,,,123.52349780010992,123.8729151999578,124.67447590013036,124.65874630003236,124.65909230010584,124.67447590013036,124.67447590013036,124.67447590013036,125.4100387999788,,,,,,,,,,,,,,,,,,,,,,,,,,,,,,,right,1.0,0.7245095998514444,,,,,sub-228,1,random_dot,60.05753508127867,
left,left,17.0,1.0,8.0,left,1.0,0.7876813998445868,,speed,space,5.093855400104076,,,,,,0.0,0.0,0.0,1.0,8.0,1.0,17.0,0.0,125.42508909991012,,,,,,,,,125.41034850012512,126.61048580007628,127.41177750006318,127.39593160012735,127.39624819997698,127.41177750006318,127.41177750006318,127.41177750006318,128.21309720003046,,,,,,,,,,,,,,,,,,,,,,,,,,,,,,,left,1.0,0.7876813998445868,,,,,sub-228,1,random_dot,60.05753508127867,
left,left,18.0,0.0,9.0,left,1.0,0.909294000128284,,speed,space,5.093855400104076,,,,,,0.0,0.0,0.0,1.0,9.0,0.0,18.0,0.0,128.2286024999339,,,,,,,,,128.21338799991645,129.41407490009442,130.21523510012776,130.19912940007634,130.19952940009534,130.21523510012776,130.21523510012776,130.21523510012776,131.13486260012724,,,,,,,,,,,,,,,,,,,,,,,,,,,,,,,left,1.0,0.909294000128284,,,,,sub-228,1,random_dot,60.05753508127867,
right,right,19.0,1.0,9.0,right,1.0,0.7177401999942958,,speed,space,5.093855400104076,,,,,,0.0,0.0,0.0,1.0,9.0,1.0,19.0,1.0,131.1505887999665,,,,,,,,,131.13517819996923,131.4837647001259,132.28633860009722,132.26929419999942,132.26960620004684,132.28633860009722,132.28633860009722,132.28633860009722,133.00540879997425,,,,,,,,,,,,,,,,,,,,,,,,,,,,,,,right,1.0,0.7177401999942958,,,,,sub-228,1,random_dot,60.05753508127867,
right,right,20.0,0.0,10.0,left,0.0,2.0019928999245167,,speed,space,5.093855400104076,,,,,,0.0,0.0,0.0,1.0,10.0,0.0,20.0,1.0,133.02031300007366,,,,,,,,,133.00571910012513,133.80480089993216,134.60584550001658,134.59010719996877,134.5904127000831,134.60584550001658,134.60584550001658,134.60584550001658,136.61002940009348,,,,,,,,,,,,,,,,,,,,,,,,,,,,,,,left,0.0,2.0019928999245167,,,,,sub-228,1,random_dot,60.05753508127867,
left,left,21.0,1.0,10.0,left,1.0,1.4221702001523226,,speed,space,5.093855400104076,,,,,,0.0,0.0,0.0,1.0,10.0,1.0,21.0,0.0,136.6247008999344,,,,,,,,,136.61034130002372,137.40924310008995,138.2118113001343,138.19566680002026,138.19598109996878,138.2118113001343,138.2118113001343,138.2118113001343,139.6476853999775,,,,,,,,,,,,,,,,,,,,,,,,,,,,,,,left,1.0,1.4221702001523226,,,,,sub-228,1,random_dot,60.05753508127867,
left,left,22.0,0.0,11.0,right,0.0,0.6426055999472737,,speed,space,5.093855400104076,,,,,,0.0,0.0,0.0,1.0,11.0,0.0,22.0,0.0,139.66335680009797,,,,,,,,,139.64801130001433,140.44826010009274,141.24892150005326,141.23352180002257,141.2338300999254,141.24892150005326,141.24892150005326,141.24892150005326,141.90141950012185,,,,,,,,,,,,,,,,,,,,,,,,,,,,,,,right,0.0,0.6426055999472737,,,,,sub-228,1,random_dot,60.05753508127867,
right,right,23.0,1.0,11.0,right,1.0,0.6942054000683129,,speed,space,5.093855400104076,,,,,,0.0,0.0,0.0,1.0,11.0,1.0,23.0,1.0,141.91644520009868,,,,,,,,,141.90175259998068,143.10121469991282,143.90370559995063,143.88809629995376,143.8884225001093,143.90370559995063,143.90370559995063,143.90370559995063,144.60545070003718,,,,,,,,,,,,,,,,,,,,,,,,,,,,,,,right,1.0,0.6942054000683129,,,,,sub-228,1,random_dot,60.05753508127867,
right,right,24.0,0.0,12.0,right,1.0,0.9844613999594004,,speed,space,5.093855400104076,,,,,,0.0,0.0,0.0,1.0,12.0,0.0,24.0,1.0,144.62040999997407,,,,,,,,,144.60575970006175,144.70444309990853,145.5057242999319,145.49041799991392,145.49074549996294,145.5057242999319,145.5057242999319,145.5057242999319,146.49196620006114,,,,,,,,,,,,,,,,,,,,,,,,,,,,,,,right,1.0,0.9844613999594004,,,,,sub-228,1,random_dot,60.05753508127867,
left,left,25.0,1.0,12.0,left,1.0,0.889671300072223,,speed,space,5.093855400104076,,,,,,0.0,0.0,0.0,1.0,12.0,1.0,25.0,0.0,146.50678290007636,,,,,,,,,146.49229319998994,147.69236700003967,148.49431740003638,148.47802549996413,148.47840270004235,148.49431740003638,148.49431740003638,148.49431740003638,149.39536849991418,,,,,,,,,,,,,,,,,,,,,,,,,,,,,,,left,1.0,0.889671300072223,,,,,sub-228,1,random_dot,60.05753508127867,
right,right,26.0,0.0,13.0,right,1.0,0.5595039001200348,,speed,space,5.093855400104076,,,,,,0.0,0.0,0.0,1.0,13.0,0.0,26.0,1.0,149.41140579991043,,,,,,,,,149.39576660003513,150.1964779999107,150.99737300002016,150.98240029998124,150.98277030000463,150.99737300002016,150.99737300002016,150.99737300002016,151.56661370000802,,,,,,,,,,,,,,,,,,,,,,,,,,,,,,,right,1.0,0.5595039001200348,,,,,sub-228,1,random_dot,60.05753508127867,
left,left,27.0,1.0,13.0,left,1.0,0.678557800129056,,speed,space,5.093855400104076,,,,,,0.0,0.0,0.0,1.0,13.0,1.0,27.0,0.0,151.5821446001064,,,,,,,,,151.56701020011678,152.76715450012125,153.56801240006462,153.55209010001272,153.55240250006318,153.56801240006462,153.56801240006462,153.56801240006462,154.25449039996602,,,,,,,,,,,,,,,,,,,,,,,,,,,,,,,left,1.0,0.678557800129056,,,,,sub-228,1,random_dot,60.05753508127867,
right,right,28.0,0.0,14.0,right,1.0,0.7247361999470741,,speed,space,5.093855400104076,,,,,,0.0,0.0,0.0,1.0,14.0,0.0,28.0,1.0,154.26883310009725,,,,,,,,,154.25489430013113,154.61977340001613,155.42150510009378,155.4050626999233,155.40538490004838,155.42150510009378,155.42150510009378,155.42150510009378,156.15742449997924,,,,,,,,,,,,,,,,,,,,,,,,,,,,,,,right,1.0,0.7247361999470741,,,,,sub-228,1,random_dot,60.05753508127867,
left,left,29.0,1.0,14.0,left,1.0,0.924077000003308,,speed,space,5.093855400104076,,,,,,0.0,0.0,0.0,1.0,14.0,1.0,29.0,0.0,156.1712070000358,,,,,,,,,156.15782560012303,156.9567506001331,157.75803130003624,157.7419944999274,157.74237539991736,157.75803130003624,157.75803130003624,157.75803130003624,158.69372639991343,,,,,,,,,,,,,,,,,,,,,,,,,,,,,,,left,1.0,0.924077000003308,,,,,sub-228,1,random_dot,60.05753508127867,
right,right,30.0,0.0,15.0,right,1.0,0.6291922000236809,,speed,space,5.093855400104076,,,,,,0.0,0.0,0.0,1.0,15.0,0.0,30.0,1.0,158.7082778001204,,,,,,,,,158.6941287999507,159.4931195999961,160.29457870009355,160.278938600095,160.27931310003623,160.29457870009355,160.29457870009355,160.29457870009355,160.93030679994263,,,,,,,,,,,,,,,,,,,,,,,,,,,,,,,right,1.0,0.6291922000236809,,,,,sub-228,1,random_dot,60.05753508127867,
left,left,31.0,1.0,15.0,left,1.0,0.633980899816379,,speed,space,5.093855400104076,,,,,,0.0,0.0,0.0,1.0,15.0,1.0,31.0,0.0,160.94497289997526,,,,,,,,,160.93073899997398,161.27885379991494,162.08102699997835,162.06544889998622,162.06583030009642,162.08102699997835,162.08102699997835,162.08102699997835,162.7165294000879,,,,,,,,,,,,,,,,,,,,,,,,,,,,,,,left,1.0,0.633980899816379,,,,,sub-228,1,random_dot,60.05753508127867,
left,left,32.0,0.0,16.0,left,1.0,0.8510481999255717,,speed,space,5.093855400104076,,,,,,0.0,0.0,0.0,1.0,16.0,0.0,32.0,0.0,162.73127460014075,,,,,,,,,162.71697470010258,162.831659700023,163.63390680006705,163.6179359999951,163.6182884001173,163.63390680006705,163.63390680006705,163.63390680006705,164.48669799999334,,,,,,,,,,,,,,,,,,,,,,,,,,,,,,,left,1.0,0.8510481999255717,,,,,sub-228,1,random_dot,60.05753508127867,
right,right,33.0,1.0,16.0,right,1.0,0.674044500105083,,speed,space,5.093855400104076,,,,,,0.0,0.0,0.0,1.0,16.0,1.0,33.0,1.0,164.50068449997343,,,,,,,,,164.48712639999576,165.3022352999542,166.10364879993722,166.08757050009444,166.08794130012393,166.10364879993722,166.10364879993722,166.10364879993722,166.78904159995727,,,,,,,,,,,,,,,,,,,,,,,,,,,,,,,right,1.0,0.674044500105083,,,,,sub-228,1,random_dot,60.05753508127867,
left,left,34.0,0.0,17.0,left,1.0,0.7180661999154836,,speed,space,5.093855400104076,,,,,,0.0,0.0,0.0,1.0,17.0,0.0,34.0,0.0,166.80401670001447,,,,,,,,,166.78944250009954,167.99018459999934,168.79150389996357,168.77610579994507,168.77642229991034,168.79150389996357,168.79150389996357,168.79150389996357,169.51090639992617,,,,,,,,,,,,,,,,,,,,,,,,,,,,,,,left,1.0,0.7180661999154836,,,,,sub-228,1,random_dot,60.05753508127867,
right,right,35.0,1.0,17.0,right,1.0,1.165394799783826,,speed,space,5.093855400104076,,,,,,0.0,0.0,0.0,1.0,17.0,1.0,35.0,1.0,169.524947399972,,,,,,,,,169.5112254000269,169.87673999997787,170.67760229995474,170.66128879995085,170.66170089994557,170.67760229995474,170.67760229995474,170.67760229995474,171.84773369994946,,,,,,,,,,,,,,,,,,,,,,,,,,,,,,,right,1.0,1.165394799783826,,,,,sub-228,1,random_dot,60.05753508127867,
left,left,36.0,0.0,18.0,left,1.0,1.1202998000662774,,speed,space,5.093855400104076,,,,,,0.0,0.0,0.0,1.0,18.0,0.0,36.0,0.0,171.862698599929,,,,,,,,,171.84813649998978,173.04839559993707,173.84812940005213,173.8317180001177,173.8320041000843,173.84812940005213,173.84812940005213,173.84812940005213,174.9841432000976,,,,,,,,,,,,,,,,,,,,,,,,,,,,,,,left,1.0,1.1202998000662774,,,,,sub-228,1,random_dot,60.05753508127867,
right,right,37.0,1.0,18.0,right,1.0,0.8728660000488162,,speed,space,5.093855400104076,,,,,,0.0,0.0,0.0,1.0,18.0,1.0,37.0,1.0,175.00019649998285,,,,,,,,,174.98451410001144,175.08485800004564,175.88555349991657,175.86997430003248,175.87028659996577,175.88555349991657,175.88555349991657,175.88555349991657,176.7710522999987,,,,,,,,,,,,,,,,,,,,,,,,,,,,,,,right,1.0,0.8728660000488162,,,,,sub-228,1,random_dot,60.05753508127867,
left,left,38.0,0.0,19.0,left,1.0,0.6339508001692593,,speed,space,5.093855400104076,,,,,,0.0,0.0,0.0,1.0,19.0,0.0,38.0,0.0,176.78672270011157,,,,,,,,,176.7714478999842,177.97196140000597,178.77349660010077,178.75695049995556,178.75732590002008,178.77349660010077,178.77349660010077,178.77349660010077,179.4089162000455,,,,,,,,,,,,,,,,,,,,,,,,,,,,,,,left,1.0,0.6339508001692593,,,,,sub-228,1,random_dot,60.05753508127867,
right,right,39.0,1.0,19.0,right,1.0,0.8025905000977218,,speed,space,5.093855400104076,,,,,,0.0,0.0,0.0,1.0,19.0,1.0,39.0,1.0,179.42305060010403,,,,,,,,,179.40931629994884,179.75790959992446,180.5601143001113,180.54363230010492,180.5439458999317,180.5601143001113,180.5601143001113,180.5601143001113,181.37874209997244,,,,,,,,,,,,,,,,,,,,,,,,,,,,,,,right,1.0,0.8025905000977218,,,,,sub-228,1,random_dot,60.05753508127867,
right,right,40.0,0.0,20.0,right,1.0,1.2370957999955865,,speed,space,5.093855400104076,,,,,,0.0,0.0,0.0,1.0,20.0,0.0,40.0,1.0,181.39407790009864,,,,,,,,,181.3791356000584,182.57796099991535,183.3794323001057,183.3634627999272,183.3638329000678,183.3794323001057,183.3794323001057,183.3794323001057,184.63307179999535,,,,,,,,,,,,,,,,,,,,,,,,,,,,,,,right,1.0,1.2370957999955865,,,,,sub-228,1,random_dot,60.05753508127867,
left,left,41.0,1.0,20.0,right,0.0,0.6887877001427114,,speed,space,5.093855400104076,,,,,,0.0,0.0,0.0,1.0,20.0,1.0,41.0,0.0,184.6478743001353,,,,,,,,,184.63339029997587,184.73243420012292,185.53378410008736,185.5176141001284,185.51792440004647,185.53378410008736,185.53378410008736,185.53378410008736,186.23575090011585,,,,,,,,,,,,,,,,,,,,,,,,,,,,,,,right,0.0,0.6887877001427114,,,,,sub-228,1,random_dot,60.05753508127867,
left,left,42.0,0.0,21.0,left,1.0,1.0674543001223356,,speed,space,5.093855400104076,,,,,,0.0,0.0,0.0,1.0,21.0,0.0,42.0,0.0,186.25040189991705,,,,,,,,,186.23606269992888,186.33478010003452,187.1360194000881,187.1199431999121,187.12025490007363,187.1360194000881,187.1360194000881,187.1360194000881,188.20536720007655,,,,,,,,,,,,,,,,,,,,,,,,,,,,,,,left,1.0,1.0674543001223356,,,,,sub-228,1,random_dot,60.05753508127867,
right,right,43.0,1.0,21.0,right,1.0,0.697648499859497,,speed,space,5.093855400104076,,,,,,0.0,0.0,0.0,1.0,21.0,1.0,43.0,1.0,188.2213135000784,,,,,,,,,188.20567460008897,188.5551167000085,189.35616199998185,189.34001779998653,189.3403253001161,189.35616199998185,189.35616199998185,189.35616199998185,190.0584223999176,,,,,,,,,,,,,,,,,,,,,,,,,,,,,,,right,1.0,0.697648499859497,,,,,sub-228,1,random_dot,60.05753508127867,
right,right,44.0,0.0,22.0,right,1.0,0.825019899988547,,speed,space,5.093855400104076,,,,,,0.0,0.0,0.0,1.0,22.0,0.0,44.0,1.0,190.0731520999689,,,,,,,,,190.05897179991007,190.8579021000769,191.6598732999992,191.64341030013748,191.64372469997036,191.6598732999992,191.6598732999992,191.6598732999992,192.49560020002536,,,,,,,,,,,,,,,,,,,,,,,,,,,,,,,right,1.0,0.825019899988547,,,,,sub-228,1,random_dot,60.05753508127867,
left,left,45.0,1.0,22.0,left,1.0,1.2205010000616312,,speed,space,5.093855400104076,,,,,,0.0,0.0,0.0,1.0,22.0,1.0,45.0,0.0,192.5105127999559,,,,,,,,,192.49602379999124,193.6953012000304,194.49795079999603,194.4811885999516,194.4815627001226,194.49795079999603,194.49795079999603,194.49795079999603,195.7327422001399,,,,,,,,,,,,,,,,,,,,,,,,,,,,,,,left,1.0,1.2205010000616312,,,,,sub-228,1,random_dot,60.05753508127867,
right,right,46.0,0.0,23.0,right,1.0,0.5383413000963628,,speed,space,5.093855400104076,,,,,,0.0,0.0,0.0,1.0,23.0,0.0,46.0,1.0,195.7496575000696,,,,,,,,,195.733019300038,196.93396609998308,197.7356455000117,197.7196698000189,197.72004120005292,197.7356455000117,197.7356455000117,197.7356455000117,198.2867928999476,,,,,,,,,,,,,,,,,,,,,,,,,,,,,,,right,1.0,0.5383413000963628,,,,,sub-228,1,random_dot,60.05753508127867,
left,left,47.0,1.0,23.0,left,1.0,0.6487822998315096,,speed,space,5.093855400104076,,,,,,0.0,0.0,0.0,1.0,23.0,1.0,47.0,0.0,198.3021076000296,,,,,,,,,198.28719830000773,198.38575570005924,199.18833769997585,199.17207149998285,199.1724124001339,199.18833769997585,199.18833769997585,199.18833769997585,199.8398541000206,,,,,,,,,,,,,,,,,,,,,,,,,,,,,,,left,1.0,0.6487822998315096,,,,,sub-228,1,random_dot,60.05753508127867,
right,right,48.0,0.0,24.0,right,1.0,0.9223164001014084,,speed,space,5.093855400104076,,,,,,0.0,0.0,0.0,1.0,24.0,0.0,48.0,1.0,199.85439520003277,,,,,,,,,199.8401661999524,199.93917619995773,200.74042899999768,200.7244526001159,200.7248255999293,200.74042899999768,200.74042899999768,200.74042899999768,201.6761604999192,,,,,,,,,,,,,,,,,,,,,,,,,,,,,,,right,1.0,0.9223164001014084,,,,,sub-228,1,random_dot,60.05753508127867,
left,left,49.0,1.0,24.0,left,1.0,1.053511600010097,,speed,space,5.093855400104076,,,,,,0.0,0.0,0.0,1.0,24.0,1.0,49.0,0.0,201.69158290000632,,,,,,,,,201.6764748999849,201.7749372001272,202.5764516000636,202.55923060001803,202.559515299974,202.5764516000636,202.5764516000636,202.5764516000636,203.6459880999755,,,,,,,,,,,,,,,,,,,,,,,,,,,,,,,left,1.0,1.053511600010097,,,,,sub-228,1,random_dot,60.05753508127867,
left,left,50.0,0.0,25.0,left,1.0,0.9923177000600844,,speed,space,5.093855400104076,,,,,,0.0,0.0,0.0,1.0,25.0,0.0,50.0,0.0,203.6610918000806,,,,,,,,,203.646302399924,204.8463993999176,205.64776859991247,205.6318705000449,205.6322341000196,205.64776859991247,205.64776859991247,205.64776859991247,206.6497685001232,,,,,,,,,,,,,,,,,,,,,,,,,,,,,,,left,1.0,0.9923177000600844,,,,,sub-228,1,random_dot,60.05753508127867,
right,right,51.0,1.0,25.0,right,1.0,0.5840598000213504,,speed,space,5.093855400104076,,,,,,0.0,0.0,0.0,1.0,25.0,1.0,51.0,1.0,206.66601380007344,,,,,,,,,206.65012330003083,206.9993720999919,207.80080129997805,207.78474160004407,207.7850532999728,207.80080129997805,207.80080129997805,207.80080129997805,208.38594780000855,,,,,,,,,,,,,,,,,,,,,,,,,,,,,,,right,1.0,0.5840598000213504,,,,,sub-228,1,random_dot,60.05753508127867,
right,right,52.0,0.0,26.0,right,1.0,1.249662900110707,,speed,space,5.093855400104076,,,,,,0.0,0.0,0.0,1.0,26.0,0.0,52.0,1.0,208.40090210014023,,,,,,,,,208.38626100006516,208.48490580008365,209.28644310007803,209.27060350007375,209.27091600000855,209.28644310007803,209.28644310007803,209.28644310007803,210.53921089996584,,,,,,,,,,,,,,,,,,,,,,,,,,,,,,,right,1.0,1.249662900110707,,,,,sub-228,1,random_dot,60.05753508127867,
left,left,53.0,1.0,26.0,left,1.0,0.5499328000005335,,speed,space,5.093855400104076,,,,,,0.0,0.0,0.0,1.0,26.0,1.0,53.0,0.0,210.5543647001032,,,,,,,,,210.53952130000107,211.7395413001068,212.5414653001353,212.5252002000343,212.52556210011244,212.5414653001353,212.5414653001353,212.5414653001353,213.09273510007188,,,,,,,,,,,,,,,,,,,,,,,,,,,,,,,left,1.0,0.5499328000005335,,,,,sub-228,1,random_dot,60.05753508127867,
left,left,54.0,0.0,27.0,left,1.0,1.049549899995327,,speed,space,5.093855400104076,,,,,,0.0,0.0,0.0,1.0,27.0,0.0,54.0,0.0,213.10792350000705,,,,,,,,,213.09304439998232,213.19214610010383,213.9940818999894,213.9771628000308,213.97753500007093,213.9940818999894,213.9940818999894,213.9940818999894,215.04606720013544,,,,,,,,,,,,,,,,,,,,,,,,,,,,,,,left,1.0,1.049549899995327,,,,,sub-228,1,random_dot,60.05753508127867,
right,right,55.0,1.0,27.0,right,1.0,0.6438365001231432,,speed,space,5.093855400104076,,,,,,0.0,0.0,0.0,1.0,27.0,1.0,55.0,1.0,215.0608755000867,,,,,,,,,215.0464650001377,215.16189879993908,215.96364680002443,215.9474768000655,215.94785490003412,215.96364680002443,215.96364680002443,215.96364680002443,216.6152401000727,,,,,,,,,,,,,,,,,,,,,,,,,,,,,,,right,1.0,0.6438365001231432,,,,,sub-228,1,random_dot,60.05753508127867,
left,left,56.0,0.0,28.0,left,1.0,0.5416168000083417,,speed,space,5.093855400104076,,,,,,0.0,0.0,0.0,1.0,28.0,0.0,56.0,0.0,216.6304216000717,,,,,,,,,216.6156405999791,216.71447360003367,217.5157332001254,217.4996708999388,217.50004569999876,217.5157332001254,217.5157332001254,217.5157332001254,218.0678213001229,,,,,,,,,,,,,,,,,,,,,,,,,,,,,,,left,1.0,0.5416168000083417,,,,,sub-228,1,random_dot,60.05753508127867,
right,right,57.0,1.0,28.0,right,1.0,0.5787919000722468,,speed,space,5.093855400104076,,,,,,0.0,0.0,0.0,1.0,28.0,1.0,57.0,1.0,218.08211420010772,,,,,,,,,218.0682210000232,218.86761720012876,219.66913930000737,219.6529486000072,219.6532622000668,219.66913930000737,219.66913930000737,219.66913930000737,220.2543321999256,,,,,,,,,,,,,,,,,,,,,,,,,,,,,,,right,1.0,0.5787919000722468,,,,,sub-228,1,random_dot,60.05753508127867,
left,left,58.0,0.0,29.0,left,1.0,0.531169599853456,,speed,space,5.093855400104076,,,,,,0.0,0.0,0.0,1.0,29.0,0.0,58.0,0.0,220.26899640006013,,,,,,,,,220.254735799972,221.453969999915,222.25625770003532,222.24016029993072,222.24057430005632,222.25625770003532,222.25625770003532,222.25625770003532,222.79122540005483,,,,,,,,,,,,,,,,,,,,,,,,,,,,,,,left,1.0,0.531169599853456,,,,,sub-228,1,random_dot,60.05753508127867,
right,right,59.0,1.0,29.0,right,1.0,0.804954799823463,,speed,space,5.093855400104076,,,,,,0.0,0.0,0.0,1.0,29.0,1.0,59.0,1.0,222.80614660005085,,,,,,,,,222.79162209993228,223.5915369000286,224.3927798001096,224.37590690003708,224.3763244000729,224.3927798001096,224.3927798001096,224.3927798001096,225.21205170010217,,,,,,,,,,,,,,,,,,,,,,,,,,,,,,,right,1.0,0.804954799823463,,,,,sub-228,1,random_dot,60.05753508127867,
,,0.0,0.0,0.0,,,,,speed,space,5.093855400104076,,,,,,0.0,0.0,0.0,1.0,,,,,,,,,,,,,,,,,,,,,,,,,,,,,,,,,,,,,,,,,,,,,,,,,,,,,,,,,,,,sub-228,1,random_dot,60.05753508127867,
right,right,0.0,0.0,0.0,right,1.0,0.697389000095427,,accuracy,space,4.506430699955672,,,,,,0.0,1.0,1.0,0.0,0.0,0.0,0.0,1.0,229.7495075999759,,,,,,,,,229.7411498001311,230.53544800006784,231.33644809992984,231.32064720010385,231.32102479995228,231.33644809992984,231.33644809992984,231.33644809992984,232.03838889999315,,,,,,,,,,,,,,,,,,,,,,,,225.22394199995324,225.2274881999474,225.2274881999474,229.7351553000044,space,4.506430699955672,,right,1.0,0.697389000095427,,,,,sub-228,1,random_dot,60.05753508127867,
left,left,1.0,1.0,0.0,left,1.0,0.7695518000982702,,accuracy,space,4.506430699955672,,,,,,0.0,1.0,1.0,0.0,0.0,1.0,1.0,0.0,232.0533511000685,,,,,,,,,232.03879390005025,232.8381509999745,233.6400969000533,233.62379830004647,233.62417019996792,233.6400969000533,233.6400969000533,233.6400969000533,234.4257901001256,,,,,,,,,,,,,,,,,,,,,,,,,,,,,,,left,1.0,0.7695518000982702,,,,,sub-228,1,random_dot,60.05753508127867,
right,right,2.0,0.0,1.0,right,1.0,1.0905486999545246,,accuracy,space,4.506430699955672,,,,,,0.0,1.0,1.0,0.0,1.0,0.0,2.0,1.0,234.44125510007143,,,,,,,,,234.42610380006957,234.79058920009996,235.59349810006097,235.5766533999704,235.57704790006392,235.59349810006097,235.59349810006097,235.59349810006097,236.69579869997688,,,,,,,,,,,,,,,,,,,,,,,,,,,,,,,right,1.0,1.0905486999545246,,,,,sub-228,1,random_dot,60.05753508127867,
left,left,3.0,1.0,1.0,left,1.0,1.223653299966827,,accuracy,space,4.506430699955672,,,,,,0.0,1.0,1.0,0.0,1.0,1.0,3.0,0.0,236.71072209998965,,,,,,,,,236.69619460008107,237.04577809991315,237.845822900068,237.8297143001109,237.8301035000477,237.845822900068,237.845822900068,237.845822900068,239.082807000028,,,,,,,,,,,,,,,,,,,,,,,,,,,,,,,left,1.0,1.223653299966827,,,,,sub-228,1,random_dot,60.05753508127867,
left,left,4.0,0.0,2.0,left,1.0,1.0307990999426693,,accuracy,space,4.506430699955672,,,,,,0.0,1.0,1.0,0.0,2.0,0.0,4.0,0.0,239.0984740999993,,,,,,,,,239.0832092000637,239.4325228000525,240.2337357001379,240.2174180999864,240.2177997999825,240.2337357001379,240.2337357001379,240.2337357001379,241.269524600124,,,,,,,,,,,,,,,,,,,,,,,,,,,,,,,left,1.0,1.0307990999426693,,,,,sub-228,1,random_dot,60.05753508127867,
right,right,5.0,1.0,2.0,right,1.0,1.1768016999121755,,accuracy,space,4.506430699955672,,,,,,0.0,1.0,1.0,0.0,2.0,1.0,5.0,1.0,241.28504390013404,,,,,,,,,241.2699287000578,241.61822280008343,242.42047929996625,242.40420030010864,242.4045238001272,242.42047929996625,242.42047929996625,242.42047929996625,243.60581919993277,,,,,,,,,,,,,,,,,,,,,,,,,,,,,,,right,1.0,1.1768016999121755,,,,,sub-228,1,random_dot,60.05753508127867,
right,right,6.0,0.0,3.0,right,1.0,3.859474000055343,,accuracy,space,4.506430699955672,,,,,,0.0,1.0,1.0,0.0,3.0,0.0,6.0,1.0,243.62120430008508,,,,,,,,,243.60621599992737,243.7052893000655,244.5065599000081,244.49032460013404,244.49063659994863,244.5065599000081,244.5065599000081,244.5065599000081,248.3802620000206,,,,,,,,,,,,,,,,,,,,,,,,,,,,,,,right,1.0,3.859474000055343,,,,,sub-228,1,random_dot,60.05753508127867,
left,left,7.0,1.0,3.0,left,1.0,0.7350105999503285,,accuracy,space,4.506430699955672,,,,,,0.0,1.0,1.0,0.0,3.0,1.0,7.0,0.0,248.39486490003765,,,,,,,,,248.3805740999524,249.18045470002107,249.9819201999344,249.9659982000012,249.9663100000471,249.9819201999344,249.9819201999344,249.9819201999344,250.73286440013908,,,,,,,,,,,,,,,,,,,,,,,,,,,,,,,left,1.0,0.7350105999503285,,,,,sub-228,1,random_dot,60.05753508127867,
left,left,8.0,0.0,4.0,left,1.0,2.5378086999990046,,accuracy,space,4.506430699955672,,,,,,0.0,1.0,1.0,0.0,4.0,0.0,8.0,0.0,250.74841260001995,,,,,,,,,250.73318270011805,250.8328891999554,251.63449249998664,251.6184904000256,251.61881599994376,251.63449249998664,251.63449249998664,251.63449249998664,254.18845140002668,,,,,,,,,,,,,,,,,,,,,,,,,,,,,,,left,1.0,2.5378086999990046,,,,,sub-228,1,random_dot,60.05753508127867,
right,right,9.0,1.0,4.0,right,1.0,1.2277920001652092,,accuracy,space,4.506430699955672,,,,,,0.0,1.0,1.0,0.0,4.0,1.0,9.0,1.0,254.2038311001379,,,,,,,,,254.1887151000556,254.9893799999263,255.79028529999775,255.7747605999466,255.7751050000079,255.79028529999775,255.79028529999775,255.79028529999775,257.0261876001023,,,,,,,,,,,,,,,,,,,,,,,,,,,,,,,right,1.0,1.2277920001652092,,,,,sub-228,1,random_dot,60.05753508127867,
right,right,10.0,0.0,5.0,right,1.0,1.1082054998259991,,accuracy,space,4.506430699955672,,,,,,0.0,1.0,1.0,0.0,5.0,0.0,10.0,1.0,257.0422535999678,,,,,,,,,257.026494699996,258.227001799969,259.0289674999658,259.013020100072,259.0133676000405,259.0289674999658,259.0289674999658,259.0289674999658,260.147558900062,,,,,,,,,,,,,,,,,,,,,,,,,,,,,,,right,1.0,1.1082054998259991,,,,,sub-228,1,random_dot,60.05753508127867,
left,left,11.0,1.0,5.0,left,1.0,0.7856080001220107,,accuracy,space,4.506430699955672,,,,,,0.0,1.0,1.0,0.0,5.0,1.0,11.0,0.0,260.1629031000193,,,,,,,,,260.14787290012464,260.24761550012045,261.04774569999427,261.03158570011146,261.0318877999671,261.04774569999427,261.04774569999427,261.04774569999427,261.8344292999245,,,,,,,,,,,,,,,,,,,,,,,,,,,,,,,left,1.0,0.7856080001220107,,,,,sub-228,1,random_dot,60.05753508127867,
right,right,12.0,0.0,6.0,right,1.0,0.6242068000137806,,accuracy,space,4.506430699955672,,,,,,0.0,1.0,1.0,0.0,6.0,0.0,12.0,1.0,261.84898760006763,,,,,,,,,261.83474100008607,262.63333240011707,263.4356654000003,263.4194970000535,263.4198553999886,263.4356654000003,263.4356654000003,263.4356654000003,264.07060940004885,,,,,,,,,,,,,,,,,,,,,,,,,,,,,,,right,1.0,0.6242068000137806,,,,,sub-228,1,random_dot,60.05753508127867,
left,left,13.0,1.0,6.0,left,1.0,0.8413795998785645,,accuracy,space,4.506430699955672,,,,,,0.0,1.0,1.0,0.0,6.0,1.0,13.0,0.0,264.0864818999544,,,,,,,,,264.0709448000416,265.2714307999704,266.07289530010894,266.0569037999958,266.0572150000371,266.07289530010894,266.07289530010894,266.07289530010894,266.9256096999161,,,,,,,,,,,,,,,,,,,,,,,,,,,,,,,left,1.0,0.8413795998785645,,,,,sub-228,1,random_dot,60.05753508127867,
right,right,14.0,0.0,7.0,right,1.0,0.7009888999164104,,accuracy,space,4.506430699955672,,,,,,0.0,1.0,1.0,0.0,7.0,0.0,14.0,1.0,266.9398994001094,,,,,,,,,266.92600769991986,268.12610440002754,268.92733040009625,268.9106090001296,268.910988900112,268.92733040009625,268.92733040009625,268.92733040009625,269.6298130999785,,,,,,,,,,,,,,,,,,,,,,,,,,,,,,,right,1.0,0.7009888999164104,,,,,sub-228,1,random_dot,60.05753508127867,
left,left,15.0,1.0,7.0,left,1.0,0.6634019000921398,,accuracy,space,4.506430699955672,,,,,,0.0,1.0,1.0,0.0,7.0,1.0,15.0,0.0,269.6454352999572,,,,,,,,,269.6302064000629,270.8300304000732,271.63065490010194,271.6151618999429,271.61547360010445,271.63065490010194,271.63065490010194,271.63065490010194,272.3003867000807,,,,,,,,,,,,,,,,,,,,,,,,,,,,,,,left,1.0,0.6634019000921398,,,,,sub-228,1,random_dot,60.05753508127867,
left,left,16.0,0.0,8.0,right,0.0,1.1667208999861032,,accuracy,space,4.506430699955672,,,,,,0.0,1.0,1.0,0.0,8.0,0.0,16.0,0.0,272.31578000006266,,,,,,,,,272.3007000000216,272.41508279996924,273.21646089991555,273.20050889998674,273.2008217999246,273.21646089991555,273.21646089991555,273.21646089991555,274.38630060013384,,,,,,,,,,,,,,,,,,,,,,,,,,,,,,,right,0.0,1.1667208999861032,,,,,sub-228,1,random_dot,60.05753508127867,
right,right,17.0,1.0,8.0,right,1.0,1.5997214999515563,,accuracy,space,4.506430699955672,,,,,,0.0,1.0,1.0,0.0,8.0,1.0,17.0,1.0,274.40106009994633,,,,,,,,,274.3866117999424,275.5871351000387,276.3882907999214,276.37302580010146,276.37333580013365,276.3882907999214,276.3882907999214,276.3882907999214,277.9918770999648,,,,,,,,,,,,,,,,,,,,,,,,,,,,,,,right,1.0,1.5997214999515563,,,,,sub-228,1,random_dot,60.05753508127867,
right,right,18.0,0.0,9.0,right,1.0,0.7192273999098688,,accuracy,space,4.506430699955672,,,,,,0.0,1.0,1.0,0.0,9.0,0.0,18.0,1.0,278.00702250003815,,,,,,,,,277.9921904001385,278.34145059995353,279.14161269995384,279.1267905000132,279.1271597999148,279.14161269995384,279.14161269995384,279.14161269995384,279.861910100095,,,,,,,,,,,,,,,,,,,,,,,,,,,,,,,right,1.0,0.7192273999098688,,,,,sub-228,1,random_dot,60.05753508127867,
left,left,19.0,1.0,9.0,left,1.0,1.0620476000476629,,accuracy,space,4.506430699955672,,,,,,0.0,1.0,1.0,0.0,9.0,1.0,19.0,0.0,279.877272099955,,,,,,,,,279.86231070011854,279.9774464999791,280.7787882001139,280.7627767000813,280.76315349992365,280.7787882001139,280.7787882001139,280.7787882001139,281.84833190008067,,,,,,,,,,,,,,,,,,,,,,,,,,,,,,,left,1.0,1.0620476000476629,,,,,sub-228,1,random_dot,60.05753508127867,
left,left,20.0,0.0,10.0,left,1.0,0.9689840998034924,,accuracy,space,4.506430699955672,,,,,,0.0,1.0,1.0,0.0,10.0,0.0,20.0,0.0,281.8636352999601,,,,,,,,,281.8486504000612,281.9632353000343,282.7640404999256,282.7477156999521,282.7480574999936,282.7640404999256,282.7640404999256,282.7640404999256,283.73445739992894,,,,,,,,,,,,,,,,,,,,,,,,,,,,,,,left,1.0,0.9689840998034924,,,,,sub-228,1,random_dot,60.05753508127867,
right,right,21.0,1.0,10.0,right,1.0,0.6892195001710206,,accuracy,space,4.506430699955672,,,,,,0.0,1.0,1.0,0.0,10.0,1.0,21.0,1.0,283.7487375000492,,,,,,,,,283.73476919997483,284.9347256999463,285.7366309000645,285.7204742000904,285.72078759991564,285.7366309000645,285.7366309000645,285.7366309000645,286.4386324000079,,,,,,,,,,,,,,,,,,,,,,,,,,,,,,,right,1.0,0.6892195001710206,,,,,sub-228,1,random_dot,60.05753508127867,
left,left,22.0,0.0,11.0,left,1.0,0.6593305999413133,,accuracy,space,4.506430699955672,,,,,,0.0,1.0,1.0,0.0,11.0,0.0,22.0,0.0,286.45326260011643,,,,,,,,,286.4390271999873,286.8045783000998,287.6060488000512,287.59004910010844,287.59036160004325,287.6060488000512,287.6060488000512,287.6060488000512,288.2748380000703,,,,,,,,,,,,,,,,,,,,,,,,,,,,,,,left,1.0,0.6593305999413133,,,,,sub-228,1,random_dot,60.05753508127867,
right,right,23.0,1.0,11.0,right,1.0,0.6154769998975098,,accuracy,space,4.506430699955672,,,,,,0.0,1.0,1.0,0.0,11.0,1.0,23.0,1.0,288.2899044000078,,,,,,,,,288.2752380000893,288.6406205999665,289.4416688999627,289.4247117000632,289.42499949992634,289.4416688999627,289.4416688999627,289.4416688999627,290.0602585999295,,,,,,,,,,,,,,,,,,,,,,,,,,,,,,,right,1.0,0.6154769998975098,,,,,sub-228,1,random_dot,60.05753508127867,
right,right,24.0,0.0,12.0,right,1.0,0.5967775001190603,,accuracy,space,4.506430699955672,,,,,,0.0,1.0,1.0,0.0,12.0,0.0,24.0,1.0,290.0747897999827,,,,,,,,,290.0605753001292,291.2599033000879,292.0618473999202,292.0460812000092,292.0464042001404,292.0618473999202,292.0618473999202,292.0618473999202,292.66400879994035,,,,,,,,,,,,,,,,,,,,,,,,,,,,,,,right,1.0,0.5967775001190603,,,,,sub-228,1,random_dot,60.05753508127867,
left,left,25.0,1.0,12.0,left,1.0,0.5785802998580039,,accuracy,space,4.506430699955672,,,,,,0.0,1.0,1.0,0.0,12.0,1.0,25.0,0.0,292.6789090000093,,,,,,,,,292.6644292001147,293.4636015999131,294.2657323000021,294.2495204999577,294.24989460012875,294.2657323000021,294.2657323000021,294.2657323000021,294.85084259998985,,,,,,,,,,,,,,,,,,,,,,,,,,,,,,,left,1.0,0.5785802998580039,,,,,sub-228,1,random_dot,60.05753508127867,
right,right,26.0,0.0,13.0,right,1.0,1.2319104000926018,,accuracy,space,4.506430699955672,,,,,,0.0,1.0,1.0,0.0,13.0,0.0,26.0,1.0,294.866863100091,,,,,,,,,294.8511600999627,294.9655496000778,295.76798110012896,295.75205729994923,295.75236520008184,295.76798110012896,295.76798110012896,295.76798110012896,297.00381070002913,,,,,,,,,,,,,,,,,,,,,,,,,,,,,,,right,1.0,1.2319104000926018,,,,,sub-228,1,random_dot,60.05753508127867,
left,left,27.0,1.0,13.0,left,1.0,0.7839979999698699,,accuracy,space,4.506430699955672,,,,,,0.0,1.0,1.0,0.0,13.0,1.0,27.0,0.0,297.01869420008734,,,,,,,,,297.0042077000253,297.3532859000843,298.1550779999234,298.1392431000713,298.1396359000355,298.1550779999234,298.1550779999234,298.1550779999234,298.94023780012503,,,,,,,,,,,,,,,,,,,,,,,,,,,,,,,left,1.0,0.7839979999698699,,,,,sub-228,1,random_dot,60.05753508127867,
left,left,28.0,0.0,14.0,left,1.0,0.780486699892208,,accuracy,space,4.506430699955672,,,,,,0.0,1.0,1.0,0.0,14.0,0.0,28.0,0.0,298.95612119999714,,,,,,,,,298.9406483999919,299.74043289991096,300.541810200084,300.52554469997995,300.5259171000216,300.541810200084,300.541810200084,300.541810200084,301.3273610000033,,,,,,,,,,,,,,,,,,,,,,,,,,,,,,,left,1.0,0.780486699892208,,,,,sub-228,1,random_dot,60.05753508127867,
right,right,29.0,1.0,14.0,right,1.0,0.7583981999196112,,accuracy,space,4.506430699955672,,,,,,0.0,1.0,1.0,0.0,14.0,1.0,29.0,1.0,301.3429175999481,,,,,,,,,301.32775830011815,302.1268293999601,302.92888369993307,302.91311420011334,302.913493399974,302.92888369993307,302.92888369993307,302.92888369993307,303.69736180012114,,,,,,,,,,,,,,,,,,,,,,,,,,,,,,,right,1.0,0.7583981999196112,,,,,sub-228,1,random_dot,60.05753508127867,
right,right,30.0,0.0,15.0,left,0.0,2.3199297001119703,,accuracy,space,4.506430699955672,,,,,,0.0,1.0,1.0,0.0,15.0,0.0,30.0,1.0,303.7134223999456,,,,,,,,,303.6977572001051,304.8991400001105,305.700036900118,305.68400679994375,305.68436999991536,305.700036900118,305.700036900118,305.700036900118,308.0214617000893,,,,,,,,,,,,,,,,,,,,,,,,,,,,,,,left,0.0,2.3199297001119703,,,,,sub-228,1,random_dot,60.05753508127867,
left,left,31.0,1.0,15.0,left,1.0,0.799321600003168,,accuracy,space,4.506430699955672,,,,,,0.0,1.0,1.0,0.0,15.0,1.0,31.0,0.0,308.03610799997114,,,,,,,,,308.0217754000332,308.82030540006235,309.6223494000733,309.6070646001026,309.6074054001365,309.6223494000733,309.6223494000733,309.6223494000733,310.4248198000714,,,,,,,,,,,,,,,,,,,,,,,,,,,,,,,left,1.0,0.799321600003168,,,,,sub-228,1,random_dot,60.05753508127867,
left,left,32.0,0.0,16.0,left,1.0,0.6246561000589281,,accuracy,space,4.506430699955672,,,,,,0.0,1.0,1.0,0.0,16.0,0.0,32.0,0.0,310.4404436000623,,,,,,,,,310.42512860009447,311.6249558001291,312.42642119992524,312.4110107999295,312.4113265001215,312.42642119992524,312.42642119992524,312.42642119992524,313.06206990010105,,,,,,,,,,,,,,,,,,,,,,,,,,,,,,,left,1.0,0.6246561000589281,,,,,sub-228,1,random_dot,60.05753508127867,
right,right,33.0,1.0,16.0,right,1.0,0.5140898001845926,,accuracy,space,4.506430699955672,,,,,,0.0,1.0,1.0,0.0,16.0,1.0,33.0,1.0,313.07665219996125,,,,,,,,,313.0624067999888,314.2616978001315,315.0637737000361,315.0478018000722,315.0481120001059,315.0637737000361,315.0637737000361,315.0637737000361,315.5824965001084,,,,,,,,,,,,,,,,,,,,,,,,,,,,,,,right,1.0,0.5140898001845926,,,,,sub-228,1,random_dot,60.05753508127867,
right,right,34.0,0.0,17.0,left,0.0,0.8832772001624107,,accuracy,space,4.506430699955672,,,,,,0.0,1.0,1.0,0.0,17.0,0.0,34.0,1.0,315.5970443000552,,,,,,,,,315.58280929992907,316.3829495999962,317.1839552000165,317.16809849999845,317.1684141000733,317.1839552000165,317.1839552000165,317.1839552000165,318.06874969997443,,,,,,,,,,,,,,,,,,,,,,,,,,,,,,,left,0.0,0.8832772001624107,,,,,sub-228,1,random_dot,60.05753508127867,
left,left,35.0,1.0,17.0,right,0.0,1.36052650003694,,accuracy,space,4.506430699955672,,,,,,0.0,1.0,1.0,0.0,17.0,1.0,35.0,0.0,318.0846768999472,,,,,,,,,318.06902260007337,319.2706184000708,320.07189140003175,320.05516059999354,320.0554712000303,320.07189140003175,320.07189140003175,320.07189140003175,321.44154009991325,,,,,,,,,,,,,,,,,,,,,,,,,,,,,,,right,0.0,1.36052650003694,,,,,sub-228,1,random_dot,60.05753508127867,
left,left,36.0,0.0,18.0,right,0.0,0.754892900120467,,accuracy,space,4.506430699955672,,,,,,0.0,1.0,1.0,0.0,18.0,0.0,36.0,0.0,321.4571472001262,,,,,,,,,321.4418550999835,322.6422951000277,323.44332380010746,323.42731199995615,323.4277168000117,323.44332380010746,323.44332380010746,323.44332380010746,324.21197229996324,,,,,,,,,,,,,,,,,,,,,,,,,,,,,,,right,0.0,0.754892900120467,,,,,sub-228,1,random_dot,60.05753508127867,
right,right,37.0,1.0,18.0,left,0.0,0.5538470998872072,,accuracy,space,4.506430699955672,,,,,,0.0,1.0,1.0,0.0,18.0,1.0,37.0,1.0,324.2275084001012,,,,,,,,,324.2123013001401,324.31162180006504,325.1125137999188,325.0974934999831,325.09782169992104,325.1125137999188,325.1125137999188,325.1125137999188,325.68087409995496,,,,,,,,,,,,,,,,,,,,,,,,,,,,,,,left,0.0,0.5538470998872072,,,,,sub-228,1,random_dot,60.05753508127867,
left,left,38.0,0.0,19.0,left,1.0,0.9632113999687136,,accuracy,space,4.506430699955672,,,,,,0.0,1.0,1.0,0.0,19.0,0.0,38.0,0.0,325.696970900055,,,,,,,,,325.68118620011955,326.48142069997266,327.283048100071,327.26634930004366,327.2666571000591,327.283048100071,327.283048100071,327.283048100071,328.2516870999243,,,,,,,,,,,,,,,,,,,,,,,,,,,,,,,left,1.0,0.9632113999687136,,,,,sub-228,1,random_dot,60.05753508127867,
right,right,39.0,1.0,19.0,left,0.0,1.046402100007981,,accuracy,space,4.506430699955672,,,,,,0.0,1.0,1.0,0.0,19.0,1.0,39.0,1.0,328.26758909993805,,,,,,,,,328.25209189997986,328.3670008999761,329.16840380011126,329.1525791999884,329.1528906999156,329.16840380011126,329.16840380011126,329.16840380011126,330.22102509997785,,,,,,,,,,,,,,,,,,,,,,,,,,,,,,,left,0.0,1.046402100007981,,,,,sub-228,1,random_dot,60.05753508127867,
right,right,40.0,0.0,20.0,right,1.0,1.4292059999424964,,accuracy,space,4.506430699955672,,,,,,0.0,1.0,1.0,0.0,20.0,0.0,40.0,1.0,330.23586590006016,,,,,,,,,330.2213344001211,331.42245470010675,332.22381320013665,332.2075728001073,332.20789090008475,332.22381320013665,332.22381320013665,332.22381320013665,333.6601555000525,,,,,,,,,,,,,,,,,,,,,,,,,,,,,,,right,1.0,1.4292059999424964,,,,,sub-228,1,random_dot,60.05753508127867,
left,left,41.0,1.0,20.0,left,1.0,0.6497899000532925,,accuracy,space,4.506430699955672,,,,,,0.0,1.0,1.0,0.0,20.0,1.0,41.0,0.0,333.67463909997605,,,,,,,,,333.6604673000984,333.7757677999325,334.5763032999821,334.5599130000919,334.5602611999493,334.5763032999821,334.5763032999821,334.5763032999821,335.2288540999871,,,,,,,,,,,,,,,,,,,,,,,,,,,,,,,left,1.0,0.6497899000532925,,,,,sub-228,1,random_dot,60.05753508127867,
left,left,42.0,0.0,21.0,left,1.0,0.7139340001158416,,accuracy,space,4.506430699955672,,,,,,0.0,1.0,1.0,0.0,21.0,0.0,42.0,0.0,335.24368999991566,,,,,,,,,335.22920519998297,336.4288795001339,337.2313147999812,337.214872200042,337.2151868001092,337.2313147999812,337.2313147999812,337.2313147999812,337.9498008999508,,,,,,,,,,,,,,,,,,,,,,,,,,,,,,,left,1.0,0.7139340001158416,,,,,sub-228,1,random_dot,60.05753508127867,
right,right,43.0,1.0,21.0,right,1.0,2.546636300161481,,accuracy,space,4.506430699955672,,,,,,0.0,1.0,1.0,0.0,21.0,1.0,43.0,1.0,337.9643045000266,,,,,,,,,337.95011000009254,339.1510079000145,339.95083609991707,339.9358872999437,339.93620470003225,339.95083609991707,339.95083609991707,339.95083609991707,342.506561400136,,,,,,,,,,,,,,,,,,,,,,,,,,,,,,,right,1.0,2.546636300161481,,,,,sub-228,1,random_dot,60.05753508127867,
right,right,44.0,0.0,22.0,left,0.0,0.913898500148207,,accuracy,space,4.506430699955672,,,,,,0.0,1.0,1.0,0.0,22.0,0.0,44.0,1.0,342.5213820999488,,,,,,,,,342.50696690008044,343.3068448000122,344.10749080008827,344.09095200011507,344.09129999997094,344.10749080008827,344.10749080008827,344.10749080008827,345.0265741001349,,,,,,,,,,,,,,,,,,,,,,,,,,,,,,,left,0.0,0.913898500148207,,,,,sub-228,1,random_dot,60.05753508127867,
left,left,45.0,1.0,22.0,left,1.0,1.8991442997939885,,accuracy,space,4.506430699955672,,,,,,0.0,1.0,1.0,0.0,22.0,1.0,45.0,0.0,345.0422010999173,,,,,,,,,345.0269337000791,345.827390700113,346.62861840007827,346.6127941000741,346.6131666000001,346.62861840007827,346.62861840007827,346.62861840007827,348.5326845000964,,,,,,,,,,,,,,,,,,,,,,,,,,,,,,,left,1.0,1.8991442997939885,,,,,sub-228,1,random_dot,60.05753508127867,
left,left,46.0,0.0,23.0,left,1.0,1.6351950999815017,,accuracy,space,4.506430699955672,,,,,,0.0,1.0,1.0,0.0,23.0,0.0,46.0,0.0,348.5472458000295,,,,,,,,,348.5330040000845,348.882063300116,349.6834062000271,349.66688839998096,349.6672616000287,349.6834062000271,349.6834062000271,349.6834062000271,351.32043369999155,,,,,,,,,,,,,,,,,,,,,,,,,,,,,,,left,1.0,1.6351950999815017,,,,,sub-228,1,random_dot,60.05753508127867,
right,right,47.0,1.0,23.0,right,1.0,2.641072199912742,,accuracy,space,4.506430699955672,,,,,,0.0,1.0,1.0,0.0,23.0,1.0,47.0,1.0,351.3355777999386,,,,,,,,,351.3207507999614,351.68523159995675,352.4876701999456,352.4704503999092,352.47080469992943,352.4876701999456,352.4876701999456,352.4876701999456,355.14341289992444,,,,,,,,,,,,,,,,,,,,,,,,,,,,,,,right,1.0,2.641072199912742,,,,,sub-228,1,random_dot,60.05753508127867,
left,left,48.0,0.0,24.0,left,1.0,2.561217699898407,,accuracy,space,4.506430699955672,,,,,,0.0,1.0,1.0,0.0,24.0,0.0,48.0,0.0,355.1575364000164,,,,,,,,,355.1437262000982,355.509098400129,356.3098866001237,356.29400429991074,356.29438180010766,356.3098866001237,356.3098866001237,356.3098866001237,358.8821068999823,,,,,,,,,,,,,,,,,,,,,,,,,,,,,,,left,1.0,2.561217699898407,,,,,sub-228,1,random_dot,60.05753508127867,
right,right,49.0,1.0,24.0,right,1.0,3.797107200138271,,accuracy,space,4.506430699955672,,,,,,0.0,1.0,1.0,0.0,24.0,1.0,49.0,1.0,358.8970169001259,,,,,,,,,358.88250680011697,358.9810450000223,359.78175520012155,359.76611720002256,359.76648489991203,359.78175520012155,359.78175520012155,359.78175520012155,363.5891634,,,,,,,,,,,,,,,,,,,,,,,,,,,,,,,right,1.0,3.797107200138271,,,,,sub-228,1,random_dot,60.05753508127867,
right,right,50.0,0.0,25.0,right,1.0,1.5107670000288635,,accuracy,space,4.506430699955672,,,,,,0.0,1.0,1.0,0.0,25.0,0.0,50.0,1.0,363.6043613001239,,,,,,,,,363.5895644000266,364.38908260012977,365.1901493000332,365.17434290004894,365.1746587001253,365.1901493000332,365.1901493000332,365.1901493000332,366.7101892000064,,,,,,,,,,,,,,,,,,,,,,,,,,,,,,,right,1.0,1.5107670000288635,,,,,sub-228,1,random_dot,60.05753508127867,
left,left,51.0,1.0,25.0,left,1.0,1.6467071999795737,,accuracy,space,4.506430699955672,,,,,,0.0,1.0,1.0,0.0,25.0,1.0,51.0,0.0,366.7249541000929,,,,,,,,,366.7105864000041,367.5104032000527,368.3115094001405,368.2953808000311,368.2957870999817,368.3115094001405,368.3115094001405,368.3115094001405,369.9648742999416,,,,,,,,,,,,,,,,,,,,,,,,,,,,,,,left,1.0,1.6467071999795737,,,,,sub-228,1,random_dot,60.05753508127867,
right,right,52.0,0.0,26.0,right,1.0,0.988799300044775,,accuracy,space,4.506430699955672,,,,,,0.0,1.0,1.0,0.0,26.0,0.0,52.0,1.0,369.98009860003367,,,,,,,,,369.9652778001037,371.1652744000312,371.9662434000056,371.95022020000033,371.9505060999654,371.9662434000056,371.9662434000056,371.9662434000056,372.9688085000962,,,,,,,,,,,,,,,,,,,,,,,,,,,,,,,right,1.0,0.988799300044775,,,,,sub-228,1,random_dot,60.05753508127867,
left,left,53.0,1.0,26.0,left,1.0,0.7007673000916839,,accuracy,space,4.506430699955672,,,,,,0.0,1.0,1.0,0.0,26.0,1.0,53.0,0.0,372.9841668000445,,,,,,,,,372.9691699000541,374.16956369997934,374.9718059001025,374.9562554000877,374.956726900069,374.9718059001025,374.9718059001025,374.9718059001025,375.67418530001305,,,,,,,,,,,,,,,,,,,,,,,,,,,,,,,left,1.0,0.7007673000916839,,,,,sub-228,1,random_dot,60.05753508127867,
left,left,54.0,0.0,27.0,left,1.0,1.7160699001979085,,accuracy,space,4.506430699955672,,,,,,0.0,1.0,1.0,0.0,27.0,0.0,54.0,0.0,375.6895725999493,,,,,,,,,375.67449810006656,376.0399512001313,376.8416059000883,376.82518359995447,376.8255644999445,376.8416059000883,376.8416059000883,376.8416059000883,378.562094300054,,,,,,,,,,,,,,,,,,,,,,,,,,,,,,,left,1.0,1.7160699001979085,,,,,sub-228,1,random_dot,60.05753508127867,
right,right,55.0,1.0,27.0,right,1.0,0.7365860000718385,,accuracy,space,4.506430699955672,,,,,,0.0,1.0,1.0,0.0,27.0,1.0,55.0,1.0,378.576417400036,,,,,,,,,378.5624059000984,378.6768579001073,379.4790233999957,379.4626275999472,379.4629695001058,379.4790233999957,379.4790233999957,379.4790233999957,380.23020910006016,,,,,,,,,,,,,,,,,,,,,,,,,,,,,,,right,1.0,0.7365860000718385,,,,,sub-228,1,random_dot,60.05753508127867,
left,left,56.0,0.0,28.0,left,1.0,0.8149691999424249,,accuracy,space,4.506430699955672,,,,,,0.0,1.0,1.0,0.0,28.0,0.0,56.0,0.0,380.2462780999485,,,,,,,,,380.2305199999828,380.3297133001033,381.131274699932,381.11559440009296,381.1159195001237,381.131274699932,381.131274699932,381.131274699932,381.9495399000589,,,,,,,,,,,,,,,,,,,,,,,,,,,,,,,left,1.0,0.8149691999424249,,,,,sub-228,1,random_dot,60.05753508127867,
right,right,57.0,1.0,28.0,right,1.0,0.919593899976462,,accuracy,space,4.506430699955672,,,,,,0.0,1.0,1.0,0.0,28.0,1.0,57.0,1.0,381.9648750000633,,,,,,,,,381.9498550000135,383.1508889000397,383.9523062000517,383.9363311999477,383.9366395000834,383.9523062000517,383.9523062000517,383.9523062000517,384.8873995000031,,,,,,,,,,,,,,,,,,,,,,,,,,,,,,,right,1.0,0.919593899976462,,,,,sub-228,1,random_dot,60.05753508127867,
left,left,58.0,0.0,29.0,left,1.0,0.8379343999549747,,accuracy,space,4.506430699955672,,,,,,0.0,1.0,1.0,0.0,29.0,0.0,58.0,0.0,384.90349910012446,,,,,,,,,384.8876666999422,384.9871098001022,385.7882725999225,385.7729998999275,385.7733744001016,385.7882725999225,385.7882725999225,385.7882725999225,386.6394609999843,,,,,,,,,,,,,,,,,,,,,,,,,,,,,,,left,1.0,0.8379343999549747,,,,,sub-228,1,random_dot,60.05753508127867,
right,right,59.0,1.0,29.0,right,1.0,1.1394200001377612,,accuracy,space,4.506430699955672,,,,,,0.0,1.0,1.0,0.0,29.0,1.0,59.0,1.0,386.6561849000864,,,,,,,,,386.63974220003,386.7394510000013,387.5401310001034,387.52551910001785,387.5258317999542,387.5401310001034,387.5401310001034,387.5401310001034,388.6936500999145,,,,,,,,,,,,,,,,,,,,,,,,,,,,,,,right,1.0,1.1394200001377612,,,,,sub-228,1,random_dot,60.05753508127867,
,,1.0,1.0,0.0,,,,,accuracy,space,4.506430699955672,,,,,,0.0,1.0,1.0,0.0,,,,,,,,,,,,,,,,,,,,,,,,,,,,,,,,,,,,,,,,,,,,,,,,,,,,,,,,,,,,sub-228,1,random_dot,60.05753508127867,
,,,,,,,,,,,,,,,,,,,,,,,,,,,,,,,,,,,,,,,,,,,,,,,,,,,,,,,,,,,,,,,,,,,,,,,,,,,,,388.698437999934,388.7089732999448,393.7006755999755,sub-228,1,random_dot,60.05753508127867,
