direction,corrAns,randomInstr,practice_trials.thisRepN,practice_trials.thisTrialN,practice_trials.thisN,practice_trials.thisIndex,instr_trials.thisRepN,instr_trials.thisTrialN,instr_trials.thisN,instr_trials.thisIndex,test_trials.thisRepN,test_trials.thisTrialN,test_trials.thisN,test_trials.thisIndex,thisRow.t,notes,general_instruction.started,textGeneralInstr.started,respGeneralInstr.started,general_instruction.stopped,respGeneralInstr.keys,respGeneralInstr.rt,respGeneralInstr.duration,ITI.started,fixcross.started,fixcross.stopped,ITI.stopped,dots.started,backgroundDots.started,stimulusDots.started,respDots.started,stimulusDots.stopped,dots.stopped,respDots.keys,respDots.corr,respDots.rt,respDots.duration,feedback.started,textFeedback.started,feedback.stopped,textFeedback.stopped,info.started,textInfo.started,keyRespInfo.started,info.stopped,keyRespInfo.keys,keyRespInfo.rt,keyRespInfo.duration,test_instruction.started,textTestInstr.started,respTestInstr.started,test_instruction.stopped,respTestInstr.keys,respTestInstr.rt,respTestInstr.duration,random_instruction.started,textRandomInstr.started,respRandomInstr.started,random_instruction.stopped,respRandomInstr.keys,respRandomInstr.rt,respRandomInstr.duration,goodbye.started,textGoodbye.started,goodbye.stopped,participant,session
,,,,,,,,,,,,,,,,,0.047046,0.0635338,0.0635338,22.0831403,space,48.6231006,None,,,,,,,,,,,,,,,,,,,,,,,,,,,,,,,,,,,,,,,,,,,sub-152,1
right,right,,0,0,0,1,,,,,,,,,22.1277345,,,,,,,,,22.110119,22.4440734,23.2459469,23.227754,23.2277975,23.2459469,23.2459469,23.2459469,28.2427174,37.5032565,left,0,40.8610576,None,37.5124766,37.5473428,38.0138445,,,,,,,,,,,,,,,,,,,,,,,,,,sub-152,1
left,left,,0,1,1,0,,,,,,,,,38.0303389,,,,,,,,,38.0146421,38.8130126,39.6290834,39.6136956,39.6137396,39.6290834,39.6290834,39.6290834,44.6244216,48.3396397,left,1,35.3223194,None,48.3407314,48.3712656,48.8542728,,,,,,,,,,,,,,,,,,,,,,,,,,sub-152,1
right,right,,1,0,2,1,,,,,,,,,48.8707061,,,,,,,,,48.8550505,50.0530618,50.8525823,50.8365753,50.8366174,50.8525823,50.8525823,50.8525823,55.8478884,56.6325828,right,1,32.3933832,None,56.6337417,56.6474228,57.1311205,57.1470314,,,,,,,,,,,,,,,,,,,,,,,,,sub-152,1
left,left,,1,1,3,0,,,,,,,,,57.1470314,,,,,,,,,57.1319424,57.4964834,58.2960769,58.2811385,58.2811821,58.2960769,58.2960769,58.2960769,63.2914575,65.9898448,right,0,34.3082579,None,65.9906044,66.0053943,66.4895464,66.5052544,,,,,,,,,,,,,,,,,,,,,,,,,sub-152,1
right,right,,2,0,4,1,,,,,,,,,66.5052544,,,,,,,,,66.4903178,67.3044316,68.1037329,68.0886576,68.0887056,68.1037329,68.1037329,68.1037329,73.0993294,79.3289322,right,1,37.83792,None,79.3300306,79.3445448,79.8307506,79.8463717,,,,,,,,,,,,,,,,,,,,,,,,,sub-152,1
left,left,,2,1,5,0,,,,,,,,,79.8463717,,,,,,,,,79.8315215,80.1798926,80.9962211,80.9791712,80.9791974,80.9962211,80.9962211,80.9962211,85.9918196,88.6250654,left,1,34.2457564,None,88.6261524,88.6388455,89.1226246,89.1381331,,,,,,,,,,,,,,,,,,,,,,,,,sub-152,1
right,right,,3,0,6,1,,,,,,,,,89.1381331,,,,,,,,,89.1233988,89.4878042,90.2881015,90.2714825,90.271525,90.2881015,90.2881015,90.2881015,95.2836172,97.4499292,right,1,33.7716566,None,97.4510107,97.4643921,97.9482032,97.963693,,,,,,,,,,,,,,,,,,,,,,,,,sub-152,1
left,left,,3,1,7,0,,,,,,,,,97.963693,,,,,,,,,97.9489775,99.1627132,99.96283,99.9466307,99.9466731,99.96283,99.96283,99.96283,104.9584543,107.9742927,right,0,34.6266547,None,107.975531,108.0019998,108.4851014,,,,,,,,,,,,,,,,,,,,,,,,,,sub-152,1
right,right,,4,0,8,1,,,,,,,,,108.5014043,,,,,,,,,108.4858779,108.8344,109.7835439,109.7702158,109.7702646,109.7835439,109.7835439,109.7835439,114.7796036,118.8273336,left,0,35.6459849,None,118.8284164,118.8425205,119.326278,119.3420146,,,,,,,,,,,,,,,,,,,,,,,,,sub-152,1
left,left,,4,1,9,0,,,,,,,,,119.3420146,,,,,,,,,119.3270482,119.4417379,120.2410865,120.2254248,120.2254667,120.2410865,120.2410865,120.2410865,125.2404356,125.9249507,right,0,32.2877888,None,125.9260464,125.9393114,126.4229615,126.4386469,,,,,,,,,,,,,,,,,,,,,,,,,sub-152,1
left,left,,5,0,10,0,,,,,,,,,126.4386469,,,,,,,,,126.4237273,126.5388232,127.3387325,127.3224961,127.3225394,127.3387325,127.3387325,127.3387325,132.3341684,133.0194496,left,1,32.2929618,None,133.0205349,133.0464809,133.5302108,,,,,,,,,,,,,,,,,,,,,,,,,,sub-152,1
right,right,,5,1,11,1,,,,,,,,,133.5460841,,,,,,,,,133.5313276,133.6292532,134.4285195,134.4131799,134.4132209,134.4285195,134.4285195,134.4285195,139.4243338,140.1088441,left,0,32.2851011,None,140.1099404,140.1237836,140.610933,140.6261495,,,,,,,,,,,,,,,,,,,,,,,,,sub-152,1
right,right,,6,0,12,1,,,,,,,,,140.6261495,,,,,,,,,140.6121817,140.959059,141.7593842,141.7433262,141.7433698,141.7593842,141.7593842,141.7593842,146.75484,147.6392882,right,1,32.4932983,None,147.6403871,147.6668695,148.1501442,,,,,,,,,,,,,,,,,,,,,,,,,,sub-152,1
left,left,,6,1,13,0,,,,,,,,,148.1663958,,,,,,,,,148.1509108,148.9492079,149.7483668,149.7328637,149.7329046,149.7483668,149.7483668,149.7483668,154.7439573,155.311801,left,1,32.1660455,None,155.3128822,155.3270088,155.8107147,155.8263217,,,,,,,,,,,,,,,,,,,,,,,,,sub-152,1
left,left,,7,0,14,0,,,,,,,,,155.8263217,,,,,,,,,155.8114873,156.175968,156.9916296,156.9762553,156.9762895,156.9916296,156.9916296,156.9916296,161.9876384,163.0050873,right,0,32.6268828,None,163.0061694,163.0203087,163.5063763,,,,,,,,,,,,,,,,,,,,,,,,,,sub-152,1
right,right,,7,1,15,1,,,,,,,,,163.5227317,,,,,,,,,163.507153,164.305079,165.1054258,165.0893569,165.0894005,165.1054258,165.1054258,165.1054258,170.1008947,170.8358688,right,1,32.3369702,None,170.8369521,170.8639645,171.3461362,,,,,,,,,,,,,,,,,,,,,,,,,,sub-152,1
left,left,,8,0,16,0,,,,,,,,,171.3626673,,,,,,,,,171.3469114,171.695842,172.49498,172.4792694,172.4793116,172.49498,172.49498,172.49498,177.4906617,180.2900926,left,1,34.4001255,None,180.291163,180.3052365,180.7894615,180.8042909,,,,,,,,,,,,,,,,,,,,,,,,,sub-152,1
right,right,,8,1,17,1,,,,,,,,,180.8042909,,,,,,,,,180.7902363,182.0027197,182.8025491,182.7868689,182.786912,182.8025491,182.8025491,182.8025491,187.7980827,188.7005403,right,1,32.5071089,None,188.7022369,188.7148759,189.2011825,189.216395,,,,,,,,,,,,,,,,,,,,,,,,,sub-152,1
left,left,,9,0,18,0,,,,,,,,,189.216395,,,,,,,,,189.2019414,189.3164353,190.1166306,190.1000229,190.1000655,190.1166306,190.1166306,190.1166306,195.1124708,195.6966977,left,1,32.1864139,None,195.6977681,195.7107538,196.1946288,196.2102865,,,,,,,,,,,,,,,,,,,,,,,,,sub-152,1
right,right,,9,1,19,1,,,,,,,,,196.2102865,,,,,,,,,196.1953951,196.3102897,197.1104846,197.0942138,197.0942555,197.1104846,197.1104846,197.1104846,202.1059729,202.673948,right,1,32.1775432,None,202.675031,202.6882662,203.1720338,203.1887358,,,,,,,,,,,,,,,,,,,,,,,,,sub-152,1
,,,,,,,,,,,,,,,,,,,,,,,,,,,,,,,,,,,,,,,,,,203.1721593,203.1887358,203.1887358,206.4364414,space,29.8594483,None,,,,,,,,,,,,,,,,,,sub-152,1
,,,,,,,,,,,,,,,,,,,,,,,,,,,,,,,,,,,,,,,,,,,,,,,,,206.436516,206.4519215,206.4519215,217.6603152,space,37.8169975,None,,,,,,,,,,,sub-152,1
left,left,accuracy,,,,,0,0,0,0,0,0,0,0,224.1830251,,,,,,,,,224.1651225,225.3644845,226.1643755,226.1486971,226.1487445,226.1643755,226.1643755,226.1643755,231.16389,235.0457384,left,1,35.4946142,None,,,,,,,,,,,,,,,,,,,217.6688702,217.7212708,217.7212708,224.1510211,space,33.0310718,None,,,,sub-152,1
right,right,accuracy,,,,,0,0,0,0,0,1,1,1,235.0594007,,,,,,,,,235.0484396,235.409065,236.2096156,236.1926836,236.192724,236.2096156,236.2096156,236.2096156,241.205264,241.8899294,right,1,32.2965674,None,,,,,,,,,,,,,,,,,,,,,,,,,,,,,sub-152,1
left,left,accuracy,,,,,0,0,0,0,1,0,2,0,241.9032586,,,,,,,,,241.8921587,242.0031738,242.8036716,242.7870813,242.7871221,242.8036716,242.8036716,242.8036716,247.7989455,248.1837063,left,1,31.9878699,None,,,,,,,,,,,,,,,,,,,,,,,,,,,,,sub-152,1
right,right,accuracy,,,,,0,0,0,0,1,1,3,1,248.1980191,,,,,,,,,248.1858729,249.3970494,250.2136138,250.1972988,250.197341,250.2136138,250.2136138,250.2136138,255.2091229,255.6774677,right,1,32.076385,None,,,,,,,,,,,,,,,,,,,,,,,,,,,,,sub-152,1
right,right,accuracy,,,,,0,0,0,0,2,0,4,1,255.6910874,,,,,,,,,255.6796612,256.4907335,257.3073361,257.2911187,257.2911598,257.3073361,257.3073361,257.3073361,262.2990688,262.6004359,right,1,31.9046645,None,,,,,,,,,,,,,,,,,,,,,,,,,,,,,sub-152,1
left,left,accuracy,,,,,0,0,0,0,2,1,5,0,262.6154362,,,,,,,,,262.6025926,263.4146099,264.2139812,264.1985678,264.1986128,264.2139812,264.2139812,264.2139812,269.2093758,269.6444047,left,1,32.033962,None,,,,,,,,,,,,,,,,,,,,,,,,,,,,,sub-152,1
left,left,accuracy,,,,,0,0,0,0,3,0,6,0,269.6593495,,,,,,,,,269.6465689,270.8581623,271.6573585,271.6421488,271.6421908,271.6573585,271.6573585,271.6573585,276.6530198,277.1547347,left,1,32.1026484,None,,,,,,,,,,,,,,,,,,,,,,,,,,,,,sub-152,1
right,right,accuracy,,,,,0,0,0,0,3,1,7,1,277.1695744,,,,,,,,,277.1569062,277.5194019,278.3349756,278.3192358,278.3192787,278.3349756,278.3349756,278.3349756,283.3346406,283.7358525,right,1,32.003045,None,,,,,,,,,,,,,,,,,,,,,,,,,,,,,sub-152,1
right,right,accuracy,,,,,0,0,0,0,4,0,8,1,283.7497363,,,,,,,,,283.7380197,283.8500671,284.6664619,284.6499161,284.6499576,284.6664619,284.6664619,284.6664619,289.6583228,291.6414813,right,1,33.5868782,None,,,,,,,,,,,,,,,,,,,,,,,,,,,,,sub-152,1
left,left,accuracy,,,,,0,0,0,0,4,1,9,0,291.656507,,,,,,,,,291.6436984,291.7564237,292.5556279,292.5400639,292.5401056,292.5556279,292.5556279,292.5556279,297.5551176,298.056707,left,1,32.1172653,None,,,,,,,,,,,,,,,,,,,,,,,,,,,,,sub-152,1
left,left,accuracy,,,,,0,0,0,0,5,0,10,0,298.070702,,,,,,,,,298.058864,298.4200416,299.2203541,299.203677,299.2037186,299.2203541,299.2203541,299.2203541,304.2158471,304.6009389,left,1,31.9953485,None,,,,,,,,,,,,,,,,,,,,,,,,,,,,,sub-152,1
right,right,accuracy,,,,,0,0,0,0,5,1,11,1,304.6150614,,,,,,,,,304.6031628,304.9642217,305.7645705,305.7481423,305.748187,305.7645705,305.7645705,305.7645705,310.7600434,311.3614478,left,0,32.1995459,None,,,,,,,,,,,,,,,,,,,,,,,,,,,,,sub-152,1
left,left,accuracy,,,,,0,0,0,0,6,0,12,0,311.3771284,,,,,,,,,311.3636578,312.5745963,313.3745536,313.3583296,313.3583701,313.3745536,313.3745536,313.3745536,318.366094,318.7845466,left,1,32.0227275,None,,,,,,,,,,,,,,,,,,,,,,,,,,,,,sub-152,1
right,right,accuracy,,,,,0,0,0,0,6,1,13,1,318.7995089,,,,,,,,,318.7869605,319.9980673,320.7977843,320.7826716,320.7827168,320.7977843,320.7977843,320.7977843,325.7929588,326.2442955,right,1,32.0542608,None,,,,,,,,,,,,,,,,,,,,,,,,,,,,,sub-152,1
left,left,accuracy,,,,,0,0,0,0,7,0,14,0,326.2595232,,,,,,,,,326.2464764,326.6089698,327.4082038,327.3929549,327.3929962,327.4082038,327.4082038,327.4082038,332.4039418,332.7554747,left,1,31.9623053,None,,,,,,,,,,,,,,,,,,,,,,,,,,,,,sub-152,1
right,right,accuracy,,,,,0,0,0,0,7,1,15,1,332.7702308,,,,,,,,,332.7576765,333.1198341,333.9190723,333.9038844,333.903926,333.9190723,333.9190723,333.9190723,338.9188562,339.2533449,right,1,31.9469476,None,,,,,,,,,,,,,,,,,,,,,,,,,,,,,sub-152,1
right,right,accuracy,,,,,0,0,0,0,8,0,16,1,339.2673476,,,,,,,,,339.2555188,339.6170588,340.4173547,340.4007165,340.4007595,340.4173547,340.4173547,340.4173547,345.4131932,346.3807287,left,0,32.5701307,None,,,,,,,,,,,,,,,,,,,,,,,,,,,,,sub-152,1
left,left,accuracy,,,,,0,0,0,0,8,1,17,0,346.3943376,,,,,,,,,346.3829377,346.4943141,347.2945745,347.2779595,347.2780016,347.2945745,347.2945745,347.2945745,352.2901866,352.9246244,left,1,32.2422424,None,,,,,,,,,,,,,,,,,,,,,,,,,,,,,sub-152,1
left,left,accuracy,,,,,0,0,0,0,9,0,18,0,352.9386069,,,,,,,,,352.9268201,353.0391609,353.8388305,353.82251,353.8225514,353.8388305,353.8388305,353.8388305,358.8343101,359.3358965,right,0,32.0989291,None,,,,,,,,,,,,,,,,,,,,,,,,,,,,,sub-152,1
right,right,accuracy,,,,,0,0,0,0,9,1,19,1,359.349585,,,,,,,,,359.3380566,360.1489699,360.9491672,360.9325755,360.9326162,360.9491672,360.9491672,360.9491672,365.9409907,366.6920899,right,1,32.3550011,None,,,,,,,,,,,,,,,,,,,,,,,,,,,,,sub-152,1
right,right,accuracy,,,,,0,0,0,0,10,0,20,1,366.7068151,,,,,,,,,366.6942919,366.8067196,367.6062236,367.5903721,367.5904153,367.6062236,367.6062236,367.6062236,372.6023393,373.336001,right,1,32.3435287,None,,,,,,,,,,,,,,,,,,,,,,,,,,,,,sub-152,1
left,left,accuracy,,,,,0,0,0,0,10,1,21,0,373.3509633,,,,,,,,,373.3381831,374.1502404,374.9495785,374.9339281,374.9339692,374.9495785,374.9495785,374.9495785,379.9450538,380.5963631,right,0,32.2571387,None,,,,,,,,,,,,,,,,,,,,,,,,,,,,,sub-152,1
left,left,accuracy,,,,,0,0,0,0,11,0,22,0,380.6111996,,,,,,,,,380.5985185,381.4113172,382.2264855,382.2108909,382.2109328,382.2264855,382.2264855,382.2264855,387.2220205,388.2395815,right,0,32.6179866,None,,,,,,,,,,,,,,,,,,,,,,,,,,,,,sub-152,1
right,right,accuracy,,,,,0,0,0,0,11,1,23,1,388.2545779,,,,,,,,,388.2417343,389.4537287,390.2533665,390.2381412,390.2381856,390.2533665,390.2533665,390.2533665,395.2524569,395.803682,right,1,32.1625616,None,,,,,,,,,,,,,,,,,,,,,,,,,,,,,sub-152,1
left,left,accuracy,,,,,0,0,0,0,12,0,24,0,395.8176298,,,,,,,,,395.8058475,396.1671847,396.9674362,396.9511074,396.9511528,396.9674362,396.9674362,396.9674362,401.9629394,402.6474761,left,1,32.2837092,None,,,,,,,,,,,,,,,,,,,,,,,,,,,,,sub-152,1
right,right,accuracy,,,,,0,0,0,0,12,1,25,1,402.6616925,,,,,,,,,402.6496464,403.4610726,404.2775661,404.2614806,404.261521,404.2775661,404.2775661,404.2775661,409.2731253,410.5571662,right,1,32.8937848,None,,,,,,,,,,,,,,,,,,,,,,,,,,,,,sub-152,1
right,right,accuracy,,,,,0,0,0,0,13,0,26,1,410.5710771,,,,,,,,,410.5593389,411.3705119,412.1706192,412.1544522,412.1544943,412.1706192,412.1706192,412.1706192,417.1622757,417.6137077,right,1,32.0548412,None,,,,,,,,,,,,,,,,,,,,,,,,,,,,,sub-152,1
left,left,accuracy,,,,,0,0,0,0,13,1,27,0,417.6285895,,,,,,,,,417.6158882,417.9783191,418.7775505,418.7619356,418.7619769,418.7775505,418.7775505,418.7775505,423.7730682,424.4582553,left,1,32.293395,None,,,,,,,,,,,,,,,,,,,,,,,,,,,,,sub-152,1
right,right,accuracy,,,,,0,0,0,0,14,0,28,1,424.472636,,,,,,,,,424.4604555,425.6717464,426.4873874,426.4719397,426.4719832,426.4873874,426.4873874,426.4873874,431.4830172,432.616943,right,1,32.7309823,None,,,,,,,,,,,,,,,,,,,,,,,,,,,,,sub-152,1
left,left,accuracy,,,,,0,0,0,0,14,1,29,0,432.6322669,,,,,,,,,432.6191016,432.9817492,433.7816844,433.7654765,433.7655237,433.7816844,433.7816844,433.7816844,438.7766042,439.2446505,left,1,32.0778006,None,,,,,,,,,,,,,,,,,,,,,,,,,,,,,sub-152,1
right,right,accuracy,,,,,0,0,0,0,15,0,30,1,439.2596474,,,,,,,,,439.2468394,440.0587801,440.8580046,440.8424078,440.8424493,440.8580046,440.8580046,440.8580046,445.853665,446.804712,right,1,32.5529666,None,,,,,,,,,,,,,,,,,,,,,,,,,,,,,sub-152,1
left,left,accuracy,,,,,0,0,0,0,15,1,31,0,446.8194061,,,,,,,,,446.8068797,446.9193632,447.7186229,447.7031998,447.7032406,447.7186229,447.7186229,447.7186229,452.7143523,453.0492277,left,1,31.934254,None,,,,,,,,,,,,,,,,,,,,,,,,,,,,,sub-152,1
right,right,accuracy,,,,,0,0,0,0,16,0,32,1,453.063938,,,,,,,,,453.0513759,454.2629011,455.0623276,455.0472701,455.0473163,455.0623276,455.0623276,455.0623276,,457.195356,right,1,28.7438962,None,,,,,,,,,,,,,,,,,,,,,,,,,,,,,sub-152,1
left,left,accuracy,,,,,0,0,0,0,16,1,33,0,457.2102864,,,,,,,,,457.1975417,458.0095119,458.8088685,458.7931714,458.7932141,458.8088685,458.8088685,458.8088685,,460.2430948,left,1,28.0463202,None,,,,,,,,,,,,,,,,,,,,,,,,,,,,,sub-152,1
right,right,accuracy,,,,,0,0,0,0,17,0,34,1,460.2579896,,,,,,,,,460.2452689,461.0569864,461.8561332,461.8404843,461.8405264,461.8561332,461.8561332,461.8561332,,462.82294,right,1,27.575685,None,,,,,,,,,,,,,,,,,,,,,,,,,,,,,sub-152,1
left,left,accuracy,,,,,0,0,0,0,17,1,35,0,462.8386998,,,,,,,,,462.8242662,463.6379411,464.4370611,464.4217666,464.4218095,464.4370611,464.4370611,464.4370611,,465.1381656,left,1,27.3024149,None,,,,,,,,,,,,,,,,,,,,,,,,,,,,,sub-152,1
right,right,accuracy,,,,,0,0,0,0,18,0,36,1,465.1546156,,,,,,,,,465.1403275,465.5030044,466.3026147,466.2870362,466.2870786,466.3026147,466.3026147,466.3026147,,466.920216,right,1,27.2337683,None,,,,,,,,,,,,,,,,,,,,,,,,,,,,,sub-152,1
left,left,accuracy,,,,,0,0,0,0,18,1,37,0,466.9352423,,,,,,,,,466.9223764,467.7343703,468.5336395,468.5180732,468.5181205,468.5336395,468.5336395,468.5336395,,469.7675233,left,1,27.8422325,None,,,,,,,,,,,,,,,,,,,,,,,,,,,,,sub-152,1
right,right,accuracy,,,,,0,0,0,0,19,0,38,1,469.7823704,,,,,,,,,469.7690028,469.8823131,470.6816867,470.6660812,470.6661218,470.6816867,470.6816867,470.6816867,,471.3162847,right,1,27.2466778,None,,,,,,,,,,,,,,,,,,,,,,,,,,,,,sub-152,1
left,left,accuracy,,,,,0,0,0,0,19,1,39,0,471.3312707,,,,,,,,,471.318481,472.5300862,473.3293954,473.3138153,473.3138568,473.3293954,473.3293954,473.3293954,,474.2971106,left,1,27.5801226,None,,,,,,,,,,,,,,,,,,,,,,,,,,,,,sub-152,1
left,left,accuracy,,,,,0,0,0,0,20,0,40,0,474.3126587,,,,,,,,,474.2992837,474.6615437,475.461073,475.445205,475.4452471,475.461073,475.461073,475.461073,,476.3955964,left,1,27.5413896,None,,,,,,,,,,,,,,,,,,,,,,,,,,,,,sub-152,1
right,right,accuracy,,,,,0,0,0,0,20,1,41,1,476.4103443,,,,,,,,,476.3977606,476.5099416,477.3093465,477.2936778,477.2937341,477.3093465,477.3093465,477.3093465,,477.9931419,right,1,27.288696,None,,,,,,,,,,,,,,,,,,,,,,,,,,,,,sub-152,1
right,right,accuracy,,,,,0,0,0,0,21,0,42,1,478.0081311,,,,,,,,,477.9944717,478.3582974,479.1575467,479.1425685,479.1426136,479.1575467,479.1575467,479.1575467,,479.8762106,right,1,27.3352487,None,,,,,,,,,,,,,,,,,,,,,,,,,,,,,sub-152,1
left,left,accuracy,,,,,0,0,0,0,21,1,43,0,479.8903072,,,,,,,,,479.8783477,480.2403749,481.0560919,481.0403158,481.0403585,481.0560919,481.0560919,481.0560919,,481.7902982,left,1,27.3411103,None,,,,,,,,,,,,,,,,,,,,,,,,,,,,,sub-152,1
left,left,accuracy,,,,,0,0,0,0,22,0,44,0,481.8051975,,,,,,,,,481.7925434,483.0043991,483.8204658,483.8045219,483.8045636,483.8204658,483.8204658,483.8204658,,484.7371038,left,1,27.5265334,None,,,,,,,,,,,,,,,,,,,,,,,,,,,,,sub-152,1
right,right,accuracy,,,,,0,0,0,0,22,1,45,1,484.7525396,,,,,,,,,484.7384118,485.1025062,485.9016162,485.8860464,485.8860973,485.9016162,485.9016162,485.9016162,,486.5528441,right,1,27.2538829,None,,,,,,,,,,,,,,,,,,,,,,,,,,,,,sub-152,1
left,left,accuracy,,,,,0,0,0,0,23,0,46,0,486.568216,,,,,,,,,486.5549918,487.766631,488.5664373,488.5502942,488.5503394,488.5664373,488.5664373,488.5664373,,489.2681988,left,1,27.3185959,None,,,,,,,,,,,,,,,,,,,,,,,,,,,,,sub-152,1
right,right,accuracy,,,,,0,0,0,0,23,1,47,1,489.2819097,,,,,,,,,489.2705531,489.6318415,490.4314173,490.4152892,490.4153318,490.4314173,490.4314173,490.4314173,,491.1825259,right,1,27.3558122,None,,,,,,,,,,,,,,,,,,,,,,,,,,,,,sub-152,1
left,left,accuracy,,,,,0,0,0,0,24,0,48,0,491.1975283,,,,,,,,,491.1850378,491.5466949,492.3459301,492.3305061,492.3305504,492.3459301,492.3459301,492.3459301,,492.9138276,left,1,27.1754488,None,,,,,,,,,,,,,,,,,,,,,,,,,,,,,sub-152,1
right,right,accuracy,,,,,0,0,0,0,24,1,49,1,492.9287821,,,,,,,,,492.915973,494.1272651,494.9270312,494.9112811,494.9113201,494.9270312,494.9270312,494.9270312,,495.5284399,right,1,27.2068469,None,,,,,,,,,,,,,,,,,,,,,,,,,,,,,sub-152,1
right,right,accuracy,,,,,0,0,0,0,25,0,50,1,495.5432976,,,,,,,,,495.5307023,495.8928903,496.6921066,496.6766574,496.6766999,496.6921066,496.6921066,496.6921066,501.6880267,501.7398091,right,1,31.6577875,None,,,,,,,,,,,,,,,,,,,,,,,,,,,,,sub-152,1
left,left,accuracy,,,,,0,0,0,0,25,1,51,0,501.7542751,,,,,,,,,501.7419729,502.5536192,503.3528965,503.337301,503.3373427,503.3528965,503.3528965,503.3528965,,504.4872028,left,1,27.7397206,None,,,,,,,,,,,,,,,,,,,,,,,,,,,,,sub-152,1
left,left,accuracy,,,,,0,0,0,0,26,0,52,0,504.5018862,,,,,,,,,504.4893426,504.6020507,505.4015012,505.3854518,505.3854937,505.4015012,505.4015012,505.4015012,,507.2345377,left,1,28.4420896,None,,,,,,,,,,,,,,,,,,,,,,,,,,,,,sub-152,1
right,right,accuracy,,,,,0,0,0,0,26,1,53,1,507.2496713,,,,,,,,,507.2366917,507.5991783,508.3984342,508.382845,508.3828886,508.3984342,508.3984342,508.3984342,513.3940652,513.8287026,right,1,32.0359542,None,,,,,,,,,,,,,,,,,,,,,,,,,,,,,sub-152,1
right,right,accuracy,,,,,0,0,0,0,27,0,54,1,513.8437133,,,,,,,,,513.8308647,514.6428771,515.442261,515.4266367,515.4266815,515.442261,515.442261,515.442261,,516.4934656,right,1,27.6632714,None,,,,,,,,,,,,,,,,,,,,,,,,,,,,,sub-152,1
left,left,accuracy,,,,,0,0,0,0,27,1,55,0,516.5079404,,,,,,,,,516.4956099,517.3073508,518.1064714,518.0909713,518.0910143,518.1064714,518.1064714,518.1064714,,521.3553278,left,1,29.8549744,None,,,,,,,,,,,,,,,,,,,,,,,,,,,,,sub-152,1
left,left,accuracy,,,,,0,0,0,0,28,0,56,0,521.3703634,,,,,,,,,521.3574767,521.470262,522.2694306,522.2540953,522.2541592,522.2694306,522.2694306,522.2694306,,522.9379265,left,1,27.2797835,None,,,,,,,,,,,,,,,,,,,,,,,,,,,,,sub-152,1
right,right,accuracy,,,,,0,0,0,0,28,1,57,1,522.9526771,,,,,,,,,522.9401514,523.0520301,523.8516005,523.836167,523.8362124,523.8516005,523.8516005,523.8516005,,527.8499599,right,1,30.6089399,None,,,,,,,,,,,,,,,,,,,,,,,,,,,,,sub-152,1
right,right,accuracy,,,,,0,0,0,0,29,0,58,1,527.8647961,,,,,,,,,527.8523416,528.2143569,529.0131426,528.998397,528.9984499,529.0131426,529.0131426,529.0131426,,530.1474887,right,1,27.7431615,None,,,,,,,,,,,,,,,,,,,,,,,,,,,,,sub-152,1
left,left,accuracy,,,,,0,0,0,0,29,1,59,0,530.162703,,,,,,,,,530.1496535,531.3627291,532.1781195,532.1620919,532.1621344,532.1781195,532.1781195,532.1781195,537.1769611,538.6942608,left,1,33.122778,None,,,,,,,,,,,,,,,,,,,,,,,,,,,,,sub-152,1
,,accuracy,,,,,0,0,0,0,,,,,,,,,,,,,,,,,,,,,,,,,,,,,,,,,,,,,,,,,,,,,,,,,,,,,,,,sub-152,1
left,left,speed,,,,,0,1,1,1,0,0,0,0,544.0672165,,,,,,,,,544.0502781,544.1501996,544.9496061,544.9344812,544.9345292,544.9496061,544.9496061,544.9496061,,545.7505075,left,1,27.4133793,None,,,,,,,,,,,,,,,,,,,538.6962558,538.7214841,538.7214841,544.0353637,space,31.9237552,None,,,,sub-152,1
right,right,speed,,,,,0,1,1,1,0,1,1,1,545.7650698,,,,,,,,,545.752689,545.865165,546.6646151,546.6491391,546.6491838,546.6646151,546.6646151,546.6646151,,547.3815279,right,1,27.3326135,None,,,,,,,,,,,,,,,,,,,,,,,,,,,,,sub-152,1
right,right,speed,,,,,0,1,1,1,1,0,2,1,547.39686,,,,,,,,,547.3829317,548.1967355,548.9962799,548.9807568,548.9808049,548.9962799,548.9962799,548.9962799,,549.5971101,right,1,27.2052731,None,,,,,,,,,,,,,,,,,,,,,,,,,,,,,sub-152,1
left,left,speed,,,,,0,1,1,1,1,1,3,0,549.6120211,,,,,,,,,549.5992516,550.411889,551.2123636,551.1952946,551.1953344,551.2123636,551.2123636,551.2123636,,551.8785416,left,1,27.2817029,None,,,,,,,,,,,,,,,,,,,,,,,,,,,,,sub-152,1
right,right,speed,,,,,0,1,1,1,2,0,4,1,551.8933651,,,,,,,,,551.8806897,552.2432971,553.0423958,553.0270774,553.0271195,553.0423958,553.0423958,553.0423958,,553.5603296,right,1,27.1218013,None,,,,,,,,,,,,,,,,,,,,,,,,,,,,,sub-152,1
left,left,speed,,,,,0,1,1,1,2,1,5,0,553.5756121,,,,,,,,,553.5625035,554.3744865,555.1739148,555.1583397,555.1583878,555.1739148,555.1739148,555.1739148,,555.7457488,left,1,27.1762098,None,,,,,,,,,,,,,,,,,,,,,,,,,,,,,sub-152,1
left,left,speed,,,,,0,1,1,1,3,0,6,0,555.7599021,,,,,,,,,555.7479058,555.8597274,556.6599331,556.6433298,556.6433752,556.6599331,556.6599331,556.6599331,,557.3777046,right,0,27.3336196,None,,,,,,,,,,,,,,,,,,,,,,,,,,,,,sub-152,1
right,right,speed,,,,,0,1,1,1,3,1,7,1,557.3914397,,,,,,,,,557.3798712,557.7415301,558.541476,558.5251966,558.5252379,558.541476,558.541476,558.541476,,559.259539,right,1,27.3219104,None,,,,,,,,,,,,,,,,,,,,,,,,,,,,,sub-152,1
right,right,speed,,,,,0,1,1,1,4,0,8,1,559.2731184,,,,,,,,,559.2616894,559.6227953,560.4236189,560.4065228,560.4065645,560.4236189,560.4236189,560.4236189,,561.0909567,right,1,27.2741892,None,,,,,,,,,,,,,,,,,,,,,,,,,,,,,sub-152,1
left,left,speed,,,,,0,1,1,1,4,1,9,0,561.1054276,,,,,,,,,561.0931264,561.9042331,562.7044919,562.6878879,562.6879303,562.7044919,562.7044919,562.7044919,,563.2726242,left,1,27.1716281,None,,,,,,,,,,,,,,,,,,,,,,,,,,,,,sub-152,1
right,right,speed,,,,,0,1,1,1,5,0,10,1,563.2867605,,,,,,,,,563.2748386,563.386808,564.1864638,564.1702412,564.1702817,564.1864638,564.1864638,564.1864638,,564.7871468,right,1,27.2092083,None,,,,,,,,,,,,,,,,,,,,,,,,,,,,,sub-152,1
left,left,speed,,,,,0,1,1,1,5,1,11,0,564.8015738,,,,,,,,,564.7885784,565.6009327,566.4011443,566.3845997,566.3846424,566.4011443,566.4011443,566.4011443,,567.1196956,left,1,27.3261373,None,,,,,,,,,,,,,,,,,,,,,,,,,,,,,sub-152,1
left,left,speed,,,,,0,1,1,1,6,0,12,0,567.1329449,,,,,,,,,567.121859,567.2332927,568.0497444,568.0332798,568.0333223,568.0497444,568.0497444,568.0497444,,569.4668687,right,0,28.0245796,None,,,,,,,,,,,,,,,,,,,,,,,,,,,,,sub-152,1
right,right,speed,,,,,0,1,1,1,6,1,13,1,569.4810366,,,,,,,,,569.4690168,570.2802411,571.0804278,571.0638788,571.0639232,571.0804278,571.0804278,571.0804278,,572.0647467,right,1,27.5959271,None,,,,,,,,,,,,,,,,,,,,,,,,,,,,,sub-152,1
left,left,speed,,,,,0,1,1,1,7,0,14,0,572.0788031,,,,,,,,,572.0669028,572.1787678,572.9953433,572.9788052,572.9788481,572.9953433,572.9953433,572.9953433,,574.3420389,right,0,27.9487334,None,,,,,,,,,,,,,,,,,,,,,,,,,,,,,sub-152,1
right,right,speed,,,,,0,1,1,1,7,1,15,1,574.3570529,,,,,,,,,574.3442441,575.1563164,575.9554469,575.9400491,575.9400925,575.9554469,575.9554469,575.9554469,,576.5235386,right,1,27.1753924,None,,,,,,,,,,,,,,,,,,,,,,,,,,,,,sub-152,1
left,left,speed,,,,,0,1,1,1,8,0,16,0,576.5384997,,,,,,,,,576.5257213,576.6382499,577.4377623,577.4222976,577.4223403,577.4377623,577.4377623,577.4377623,,578.0723142,left,1,27.2393788,None,,,,,,,,,,,,,,,,,,,,,,,,,,,,,sub-152,1
right,right,speed,,,,,0,1,1,1,8,1,17,1,578.08715,,,,,,,,,578.0744475,578.8862587,579.6859019,579.6698927,579.6699342,579.6859019,579.6859019,579.6859019,,580.2542781,right,1,27.1697548,None,,,,,,,,,,,,,,,,,,,,,,,,,,,,,sub-152,1
right,right,speed,,,,,0,1,1,1,9,0,18,1,580.2683531,,,,,,,,,580.2564612,580.3683323,581.1674894,581.1523188,581.1523607,581.1674894,581.1674894,581.1674894,,582.7516689,right,1,28.1950784,None,,,,,,,,,,,,,,,,,,,,,,,,,,,,,sub-152,1
left,left,speed,,,,,0,1,1,1,9,1,19,0,582.7663659,,,,,,,,,582.7538169,583.5654124,584.3812895,584.3656574,584.3656944,584.3812895,584.3812895,584.3812895,,584.982677,left,1,27.2154721,None,,,,,,,,,,,,,,,,,,,,,,,,,,,,,sub-152,1
right,right,speed,,,,,0,1,1,1,10,0,20,1,584.9976356,,,,,,,,,584.9848547,585.3473366,586.1466155,586.1308522,586.1308944,586.1466155,586.1466155,586.1466155,,586.7643152,right,1,27.2257628,None,,,,,,,,,,,,,,,,,,,,,,,,,,,,,sub-152,1
left,left,speed,,,,,0,1,1,1,10,1,21,0,586.779256,,,,,,,,,586.7664636,587.9782198,588.7779016,588.761941,588.7619922,588.7779016,588.7779016,588.7779016,,589.3952735,left,1,27.2244522,None,,,,,,,,,,,,,,,,,,,,,,,,,,,,,sub-152,1
right,right,speed,,,,,0,1,1,1,11,0,22,1,589.4102187,,,,,,,,,589.3974283,589.510354,590.3259461,590.3099959,590.3100229,590.3259461,590.3259461,590.3259461,,591.0439127,right,1,27.3304067,None,,,,,,,,,,,,,,,,,,,,,,,,,,,,,sub-152,1
left,left,speed,,,,,0,1,1,1,11,1,23,0,591.0588817,,,,,,,,,591.0461469,591.8581432,592.6575792,592.6418539,592.6418956,592.6575792,592.6575792,592.6575792,,593.2755268,left,1,27.2293802,None,,,,,,,,,,,,,,,,,,,,,,,,,,,,,sub-152,1
left,left,speed,,,,,0,1,1,1,12,0,24,0,593.2905824,,,,,,,,,593.277702,593.6400322,594.4391461,594.4235473,594.4235902,594.4391461,594.4391461,594.4391461,,595.3235164,left,1,27.4872217,None,,,,,,,,,,,,,,,,,,,,,,,,,,,,,sub-152,1
right,right,speed,,,,,0,1,1,1,12,1,25,1,595.3385499,,,,,,,,,595.3256843,595.437893,596.2375672,596.2221724,596.2222158,596.2375672,596.2375672,596.2375672,,596.9721253,right,1,27.3487249,None,,,,,,,,,,,,,,,,,,,,,,,,,,,,,sub-152,1
right,right,speed,,,,,0,1,1,1,13,0,26,1,596.9869029,,,,,,,,,596.9742724,598.1862896,599.0017392,598.9862049,598.9862471,599.0017392,599.0017392,599.0017392,,600.1026591,right,1,27.7134034,None,,,,,,,,,,,,,,,,,,,,,,,,,,,,,sub-152,1
left,left,speed,,,,,0,1,1,1,13,1,27,0,600.1174447,,,,,,,,,600.1048149,600.9167789,601.716262,601.7004293,601.7004723,601.716262,601.716262,601.716262,,602.517572,left,1,27.407944,None,,,,,,,,,,,,,,,,,,,,,,,,,,,,,sub-152,1
left,left,speed,,,,,0,1,1,1,14,0,28,0,602.5320718,,,,,,,,,602.5197336,603.3313325,604.1305562,604.1149784,604.1150213,604.1305562,604.1305562,604.1305562,,604.6987281,left,1,27.1789282,None,,,,,,,,,,,,,,,,,,,,,,,,,,,,,sub-152,1
right,right,speed,,,,,0,1,1,1,14,1,29,1,604.7134583,,,,,,,,,604.7008779,604.8133944,605.6122758,605.5970494,605.5970949,605.6122758,605.6122758,605.6122758,,606.3973287,right,1,27.3982833,None,,,,,,,,,,,,,,,,,,,,,,,,,,,,,sub-152,1
left,left,speed,,,,,0,1,1,1,15,0,30,0,606.412208,,,,,,,,,606.3994873,606.7617109,607.5610364,607.5454756,607.5455173,607.5610364,607.5610364,607.5610364,,608.1455416,left,1,27.1991679,None,,,,,,,,,,,,,,,,,,,,,,,,,,,,,sub-152,1
right,right,speed,,,,,0,1,1,1,15,1,31,1,608.1603882,,,,,,,,,608.147686,609.3593029,610.15883,610.1433892,610.143436,610.15883,610.15883,610.15883,,610.7424579,right,1,27.200563,None,,,,,,,,,,,,,,,,,,,,,,,,,,,,,sub-152,1
right,right,speed,,,,,0,1,1,1,16,0,32,1,610.7577017,,,,,,,,,610.7437819,611.9570288,612.7562841,612.7408659,612.7409084,612.7562841,612.7562841,612.7562841,,613.4076631,right,1,27.2638322,None,,,,,,,,,,,,,,,,,,,,,,,,,,,,,sub-152,1
left,left,speed,,,,,0,1,1,1,16,1,33,0,613.4225404,,,,,,,,,613.4098082,613.5223226,614.3215992,614.3060956,614.306138,614.3215992,614.3215992,614.3215992,,614.8719588,left,1,27.1560895,None,,,,,,,,,,,,,,,,,,,,,,,,,,,,,sub-152,1
left,left,speed,,,,,0,1,1,1,17,0,34,0,614.8876114,,,,,,,,,614.8733297,615.2374776,616.0529887,616.0370732,616.0371293,616.0529887,616.0529887,616.0529887,,616.6214619,right,0,27.1700879,None,,,,,,,,,,,,,,,,,,,,,,,,,,,,,sub-152,1
right,right,speed,,,,,0,1,1,1,17,1,35,1,616.6366275,,,,,,,,,616.6236097,617.835135,618.6344577,618.6190309,618.6190731,618.6344577,618.6344577,618.6344577,,619.4360357,right,1,27.4118804,None,,,,,,,,,,,,,,,,,,,,,,,,,,,,,sub-152,1
left,left,speed,,,,,0,1,1,1,18,0,36,0,619.4504709,,,,,,,,,619.4382292,619.8001247,620.5994002,620.5836897,620.5837316,620.5994002,620.5994002,620.5994002,,621.3176378,left,1,27.3202527,None,,,,,,,,,,,,,,,,,,,,,,,,,,,,,sub-152,1
right,right,speed,,,,,0,1,1,1,18,1,37,1,621.3320626,,,,,,,,,621.3197872,621.6820388,622.4811419,622.4654956,622.4655529,622.4811419,622.4811419,622.4811419,,623.2820524,right,1,27.4036681,None,,,,,,,,,,,,,,,,,,,,,,,,,,,,,sub-152,1
right,right,speed,,,,,0,1,1,1,19,0,38,1,623.2970368,,,,,,,,,623.2843307,623.6472433,624.4460058,624.4309226,624.4309852,624.4460058,624.4460058,624.4460058,,625.3302329,right,1,27.4932307,None,,,,,,,,,,,,,,,,,,,,,,,,,,,,,sub-152,1
left,left,speed,,,,,0,1,1,1,19,1,39,0,625.3454428,,,,,,,,,625.3323813,626.5444532,627.343427,627.3283185,627.3283609,627.343427,627.343427,627.343427,,628.3944898,right,0,27.6531901,None,,,,,,,,,,,,,,,,,,,,,,,,,,,,,sub-152,1
right,right,speed,,,,,0,1,1,1,20,0,40,1,628.4092653,,,,,,,,,628.3966515,628.5091001,629.3083405,629.2927619,629.2928079,629.3083405,629.3083405,629.3083405,,630.0760671,right,1,27.3715065,None,,,,,,,,,,,,,,,,,,,,,,,,,,,,,sub-152,1
left,left,speed,,,,,0,1,1,1,20,1,41,0,630.091075,,,,,,,,,630.0782291,630.4413244,631.2566483,631.2410526,631.2410952,631.2566483,631.2566483,631.2566483,,631.8247412,left,1,27.1796229,None,,,,,,,,,,,,,,,,,,,,,,,,,,,,,sub-152,1
left,left,speed,,,,,0,1,1,1,21,0,42,0,631.8394824,,,,,,,,,631.8268913,632.6388642,633.438029,633.4226114,633.4226546,633.438029,633.438029,633.438029,,634.8220783,left,1,27.9961394,None,,,,,,,,,,,,,,,,,,,,,,,,,,,,,sub-152,1
right,right,speed,,,,,0,1,1,1,21,1,43,1,634.8370619,,,,,,,,,634.8243643,635.1865785,635.9860256,635.9700871,635.9701287,635.9860256,635.9860256,635.9860256,,636.7034815,right,1,27.3211556,None,,,,,,,,,,,,,,,,,,,,,,,,,,,,,sub-152,1
right,right,speed,,,,,0,1,1,1,22,0,44,1,636.7186803,,,,,,,,,636.7056357,637.9177874,638.7333934,638.7180288,638.7180717,638.7333934,638.7333934,638.7333934,,639.4678959,right,1,27.347229,None,,,,,,,,,,,,,,,,,,,,,,,,,,,,,sub-152,1
left,left,speed,,,,,0,1,1,1,22,1,45,0,639.482801,,,,,,,,,639.4700796,640.2821638,641.0812912,641.0659935,641.0660348,641.0812912,641.0812912,641.0812912,,641.7030205,left,1,27.2315997,None,,,,,,,,,,,,,,,,,,,,,,,,,,,,,sub-152,1
right,right,speed,,,,,0,1,1,1,23,0,46,1,641.717014,,,,,,,,,641.7051512,641.8171334,642.6172739,642.6007361,642.6007793,642.6172739,642.6172739,642.6172739,,643.1685654,right,1,27.162458,None,,,,,,,,,,,,,,,,,,,,,,,,,,,,,sub-152,1
left,left,speed,,,,,0,1,1,1,23,1,47,0,643.1823806,,,,,,,,,643.1707346,643.2844859,644.0992935,644.0829772,644.0830183,644.0992935,644.0992935,644.0992935,,644.9500634,left,1,27.4644099,None,,,,,,,,,,,,,,,,,,,,,,,,,,,,,sub-152,1
right,right,speed,,,,,0,1,1,1,24,0,48,1,644.9650644,,,,,,,,,644.951388,645.0641207,645.8645591,645.8478825,645.8479227,645.8645591,645.8645591,645.8645591,,646.4152921,right,1,27.167639,None,,,,,,,,,,,,,,,,,,,,,,,,,,,,,sub-152,1
left,left,speed,,,,,0,1,1,1,24,1,49,0,646.4294934,,,,,,,,,646.4166181,646.779522,647.5795705,647.5630149,647.5630606,647.5795705,647.5795705,647.5795705,,648.1977433,left,1,27.2233863,None,,,,,,,,,,,,,,,,,,,,,,,,,,,,,sub-152,1
right,right,speed,,,,,0,1,1,1,25,0,50,1,648.2114409,,,,,,,,,648.1999305,648.311228,649.1115277,649.0951061,649.0951483,649.1115277,649.1115277,649.1115277,,649.8127421,right,1,27.3078485,None,,,,,,,,,,,,,,,,,,,,,,,,,,,,,sub-152,1
left,left,speed,,,,,0,1,1,1,25,1,51,0,649.8265522,,,,,,,,,649.814932,650.1763271,650.9765665,650.9599605,650.9600025,650.9765665,650.9765665,650.9765665,,651.6942781,left,1,27.3270619,None,,,,,,,,,,,,,,,,,,,,,,,,,,,,,sub-152,1
right,right,speed,,,,,0,1,1,1,26,0,52,1,651.7088829,,,,,,,,,651.6964543,652.9072387,653.7075014,653.690852,653.6908947,653.7075014,653.7075014,653.7075014,,654.3421563,right,1,27.2387554,None,,,,,,,,,,,,,,,,,,,,,,,,,,,,,sub-152,1
left,left,speed,,,,,0,1,1,1,26,1,53,0,654.3558811,,,,,,,,,654.3443914,655.1552661,655.9555364,655.9389511,655.9389934,655.9555364,655.9555364,655.9555364,,656.456842,left,1,27.1088636,None,,,,,,,,,,,,,,,,,,,,,,,,,,,,,sub-152,1
left,left,speed,,,,,0,1,1,1,27,0,54,0,656.4708137,,,,,,,,,656.4589759,657.2701561,658.0702774,658.0537306,658.0537723,658.0702774,658.0702774,658.0702774,,658.7218268,right,0,27.2679673,None,,,,,,,,,,,,,,,,,,,,,,,,,,,,,sub-152,1
right,right,speed,,,,,0,1,1,1,27,1,55,1,658.7353136,,,,,,,,,658.7239913,658.8352738,659.6355763,659.6189156,659.6189577,659.6355763,659.6355763,659.6355763,,660.7530956,right,1,27.7312488,None,,,,,,,,,,,,,,,,,,,,,,,,,,,,,sub-152,1
left,left,speed,,,,,0,1,1,1,28,0,56,0,660.7669666,,,,,,,,,660.7563882,661.1165656,661.916941,661.9005682,661.9006125,661.916941,661.916941,661.916941,,662.951122,right,0,27.6397214,None,,,,,,,,,,,,,,,,,,,,,,,,,,,,,sub-152,1
right,right,speed,,,,,0,1,1,1,28,1,57,1,662.9652833,,,,,,,,,662.9532974,663.7645465,664.5645204,664.5479553,664.5479964,664.5645204,664.5645204,664.5645204,,665.2154349,right,1,27.2607256,None,,,,,,,,,,,,,,,,,,,,,,,,,,,,,sub-152,1
right,right,speed,,,,,0,1,1,1,29,0,58,1,665.2301669,,,,,,,,,665.2169097,665.5793637,666.379627,666.363012,666.3630548,666.379627,666.379627,666.379627,,667.1808537,right,1,27.4146278,None,,,,,,,,,,,,,,,,,,,,,,,,,,,,,sub-152,1
left,left,speed,,,,,0,1,1,1,29,1,59,0,667.1945396,,,,,,,,,667.1830225,667.5446704,668.3605789,668.3445835,668.3446261,668.3605789,668.3605789,668.3605789,,670.1113601,right,0,28.3598239,None,,,,,,,,,,,,,,,,,,,,,,,,,,,,,sub-152,1
,,speed,,,,,0,1,1,1,,,,,,,,,,,,,,,,,,,,,,,,,,,,,,,,,,,,,,,,,,,,,,,,,,,,,,,,sub-152,1
,,,,,,,,,,,,,,,,,,,,,,,,,,,,,,,,,,,,,,,,,,,,,,,,,,,,,,,,,,,,,,,670.1129656,670.1254491,675.1213571,,
