direction,corrAns,thisN,thisTrialN,thisRepN,respDots.keys,respDots.corr,respDots.rt,respDots.duration,randomInstr,respRandomInstr.keys,respRandomInstr.rt,respRandomInstr.duration,practice_trials.thisRepN,practice_trials.thisTrialN,practice_trials.thisN,practice_trials.thisIndex,instr_trials.thisRepN,instr_trials.thisTrialN,instr_trials.thisN,instr_trials.thisIndex,test_trials.thisRepN,test_trials.thisTrialN,test_trials.thisN,test_trials.thisIndex,thisRow.t,notes,general_instruction.started,textGeneralInstr.started,respGeneralInstr.started,general_instruction.stopped,respGeneralInstr.keys,respGeneralInstr.rt,respGeneralInstr.duration,ITI.started,fixcross.started,fixcross.stopped,ITI.stopped,dots.started,backgroundDots.started,stimulusDots.started,respDots.started,stimulusDots.stopped,dots.stopped,practice_trials.respDots.keys,practice_trials.respDots.corr,practice_trials.respDots.rt,practice_trials.respDots.duration,feedback.started,textFeedback.started,feedback.stopped,textFeedback.stopped,info.started,textInfo.started,keyRespInfo.started,info.stopped,keyRespInfo.keys,keyRespInfo.rt,keyRespInfo.duration,test_instruction.started,textTestInstr.started,respTestInstr.started,test_instruction.stopped,respTestInstr.keys,respTestInstr.rt,respTestInstr.duration,random_instruction.started,textRandomInstr.started,respRandomInstr.started,random_instruction.stopped,instr_trials.respRandomInstr.keys,instr_trials.respRandomInstr.rt,instr_trials.respRandomInstr.duration,test_trials.respDots.keys,test_trials.respDots.corr,test_trials.respDots.rt,test_trials.respDots.duration,goodbye.started,textGoodbye.started,textGoodbye.stopped,goodbye.stopped,participant,session,expName,frameRate,Unnamed: 88
,,,,,,,,,,,,,,,,,,,,,,,,,,,0.0131280829955358,0.0289016250171698,0.0289016250171698,26.34496508300072,space,26.272616041998845,,,,,,,,,,,,,,,,,,,,,,,,,,,,,,,,,,,,,,,,,,,,,,,,,sub-143,1,random_dot,118.73805196770482,
left,left,0.0,0.0,0.0,left,1.0,12.985529541998403,,,,,,0.0,0.0,0.0,0.0,,,,,,,,,26.384935500012944,,,,,,,,,26.36646758299321,27.143574917019578,27.946902625000803,27.92991570799495,27.930442250013584,27.946902625000803,27.946902625000803,27.946902625000803,32.92406725001638,40.94278541702079,left,1.0,12.985529541998403,,40.950965833006194,41.04655370800174,41.44644533301471,,,,,,,,,,,,,,,,,,,,,,,,,,,,,,,sub-143,1,random_dot,118.73805196770482,
right,right,1.0,1.0,0.0,right,1.0,6.485820333007723,,,,,,0.0,1.0,1.0,1.0,,,,,,,,,41.45774145799805,,,,,,,,,41.4469226670044,41.54112208299921,42.33394470802159,42.325171667005634,42.32574650002061,42.33394470802159,42.33394470802159,42.33394470802159,47.32437241700245,48.82637275001616,right,1.0,6.485820333007723,,48.82651829201495,48.837697042006766,49.32522029199754,49.33111141700647,,,,,,,,,,,,,,,,,,,,,,,,,,,,,,sub-143,1,random_dot,118.73805196770482,
right,right,2.0,0.0,1.0,left,0.0,5.89629012500518,,,,,,1.0,0.0,2.0,1.0,,,,,,,,,49.33111141700647,,,,,,,,,49.32562483299989,50.12462533300277,50.91695750001236,50.90865933301393,50.909138292016,50.91695750001236,50.91695750001236,50.91695750001236,55.907809249998536,56.81629925000016,left,0.0,5.89629012500518,,56.82195337500889,56.83051258299383,57.31401120801456,57.32481487499899,,,,,,,,,,,,,,,,,,,,,,,,,,,,,,sub-143,1,random_dot,118.73805196770482,
left,left,3.0,1.0,1.0,right,0.0,5.952202583983308,,,,,,1.0,1.0,3.0,0.0,,,,,,,,,57.32481487499899,,,,,,,,,57.3144698330143,58.11406108300434,58.906704124994576,58.89856262502144,58.899090249993606,58.906704124994576,58.906704124994576,58.906704124994576,63.89159270800883,64.86503112499486,right,0.0,5.952202583983308,,64.86514545799582,64.87480241700541,65.35921170801157,65.36478862501099,,,,,,,,,,,,,,,,,,,,,,,,,,,,,,sub-143,1,random_dot,118.73805196770482,
left,left,4.0,0.0,2.0,left,1.0,5.781118125014473,,,,,,2.0,0.0,4.0,0.0,,,,,,,,,65.36478862501099,,,,,,,,,65.35966162499972,66.16480470800889,66.95702345800237,66.94883891701465,66.9493210829969,66.95702345800237,66.95702345800237,66.95702345800237,71.94161150002037,72.74367912500747,left,1.0,5.781118125014473,,72.74693037499674,72.75597758300137,73.2427495830052,73.24851333300467,,,,,,,,,,,,,,,,,,,,,,,,,,,,,,sub-143,1,random_dot,118.73805196770482,
right,right,5.0,1.0,2.0,left,0.0,6.531750416004797,,,,,,2.0,1.0,5.0,1.0,,,,,,,,,73.24851333300467,,,,,,,,,73.24314116701134,74.44188679201761,75.23473533301149,75.22607554201386,75.22665029199561,75.23473533301149,75.23473533301149,75.23473533301149,80.22536958300043,81.77775858301902,left,0.0,6.531750416004797,,81.7811924580019,81.80386045802152,82.28066583300824,,,,,,,,,,,,,,,,,,,,,,,,,,,,,,,sub-143,1,random_dot,118.73805196770482,
right,right,6.0,0.0,3.0,left,0.0,5.893597624992253,,,,,,3.0,0.0,6.0,1.0,,,,,,,,,82.29216350000934,,,,,,,,,82.28111383301439,83.47563541700947,84.26753454201389,84.2594677080051,84.25995066700852,84.26753454201389,84.26753454201389,84.26753454201389,89.24788595800055,90.1679167500115,left,0.0,5.893597624992253,,90.16805841700987,90.17691529201691,90.66488554200625,90.67576179199386,,,,,,,,,,,,,,,,,,,,,,,,,,,,,,sub-143,1,random_dot,118.73805196770482,
left,left,7.0,1.0,3.0,left,1.0,5.166853333008476,,,,,,3.0,1.0,7.0,0.0,,,,,,,,,90.67576179199386,,,,,,,,,90.66528825002024,91.46561025001574,92.26803649999783,92.25979250000093,92.2602749170037,92.26803649999783,92.26803649999783,92.26803649999783,97.2590384579962,97.44446466700174,left,1.0,5.166853333008476,,97.44791991700184,97.45708316701348,97.94346574999508,97.94983800000044,,,,,,,,,,,,,,,,,,,,,,,,,,,,,,sub-143,1,random_dot,118.73805196770482,
left,left,8.0,0.0,4.0,right,0.0,5.524443667003652,,,,,,4.0,0.0,8.0,0.0,,,,,,,,,97.94983800000044,,,,,,,,,97.94393966702046,98.04271079201136,98.83555725001496,98.8267657920078,98.82736520800972,98.83555725001496,98.83555725001496,98.83555725001496,103.82604066701606,104.3674358749995,right,0.0,5.524443667003652,,104.37102254200728,104.37947275000624,104.86584341700654,104.8761543330038,,,,,,,,,,,,,,,,,,,,,,,,,,,,,,sub-143,1,random_dot,118.73805196770482,
right,right,9.0,1.0,4.0,left,0.0,4.742334958020365,,,,,,4.0,1.0,9.0,1.0,,,,,,,,,104.8761543330038,,,,,,,,,104.86622300001908,106.06526558301994,106.85913820800488,106.84974299999884,106.85025029201644,106.85913820800488,106.85913820800488,106.85913820800488,,111.61105758300982,left,0.0,4.742334958020365,,111.61117591700167,111.61928733301464,112.11053383300896,112.11636558300232,,,,,,,,,,,,,,,,,,,,,,,,,,,,,,sub-143,1,random_dot,118.73805196770482,
right,right,10.0,0.0,5.0,left,0.0,0.9256345000176224,,,,,,5.0,0.0,10.0,1.0,,,,,,,,,112.11636558300232,,,,,,,,,112.11094933300046,113.30979858300998,114.10167270799866,114.09359950001816,114.09407529199962,114.10167270799866,114.10167270799866,114.10167270799866,,115.0344005000079,left,0.0,0.9256345000176224,,115.03451012499865,115.0426439580042,115.52713708300143,115.53350691701053,,,,,,,,,,,,,,,,,,,,,,,,,,,,,,sub-143,1,random_dot,118.73805196770482,
left,left,11.0,1.0,5.0,left,1.0,1.4173967079841532,,,,,,5.0,1.0,11.0,0.0,,,,,,,,,115.53350691701053,,,,,,,,,115.52760704199318,115.88279100001093,116.67582125001354,116.6661282920104,116.66665637501865,116.67582125001354,116.67582125001354,116.67582125001354,,118.09566137500224,left,1.0,1.4173967079841532,,118.09934154199436,118.10829270799876,118.59368975000687,118.59919883302064,,,,,,,,,,,,,,,,,,,,,,,,,,,,,,sub-143,1,random_dot,118.73805196770482,
left,left,12.0,0.0,6.0,left,1.0,2.960050458990736,,,,,,6.0,0.0,12.0,0.0,,,,,,,,,118.59919883302064,,,,,,,,,118.5940859580005,119.79329000000143,120.5854786669952,120.57722033301252,120.57769850001203,120.5854786669952,120.5854786669952,120.5854786669952,,123.55163995799376,left,1.0,2.960050458990736,,123.55175458299344,123.56047616701107,124.04406733301585,124.04942312501952,,,,,,,,,,,,,,,,,,,,,,,,,,,,,,sub-143,1,random_dot,118.73805196770482,
right,right,13.0,1.0,6.0,right,1.0,2.2391214160015807,,,,,,6.0,1.0,13.0,1.0,,,,,,,,,124.04942312501952,,,,,,,,,124.04448795801729,124.14990554199905,124.9428464170196,124.93307116700451,124.93357133300742,124.9428464170196,124.9428464170196,124.9428464170196,,127.1846448330034,right,1.0,2.2391214160015807,,127.18475787501666,127.19317641700036,127.67740120799864,127.68327191701974,,,,,,,,,,,,,,,,,,,,,,,,,,,,,,sub-143,1,random_dot,118.73805196770482,
left,left,14.0,0.0,7.0,left,1.0,1.5236774170189165,,,,,,7.0,0.0,14.0,0.0,,,,,,,,,127.68327191701974,,,,,,,,,127.67784479199328,128.48333741701208,129.27627304202178,129.2664511250041,129.2669154170144,129.27627304202178,129.27627304202178,129.27627304202178,,130.80214554199483,left,1.0,1.5236774170189165,,130.80225224999597,130.82652029200108,131.31032641700585,,,,,,,,,,,,,,,,,,,,,,,,,,,,,,,sub-143,1,random_dot,118.73805196770482,
right,right,15.0,1.0,7.0,right,1.0,1.8580630000215024,,,,,,7.0,1.0,15.0,1.0,,,,,,,,,131.31716645800043,,,,,,,,,131.31070220799302,132.10006191700813,132.90216033300385,132.89417508299812,132.8946413749945,132.90216033300385,132.90216033300385,132.90216033300385,,134.7623107919935,right,1.0,1.8580630000215024,,134.76242891701986,134.7708079580043,135.26092083301046,135.26668875000905,,,,,,,,,,,,,,,,,,,,,,,,,,,,,,sub-143,1,random_dot,118.73805196770482,
left,left,16.0,0.0,8.0,right,0.0,1.4916182919987475,,,,,,8.0,0.0,16.0,0.0,,,,,,,,,135.26668875000905,,,,,,,,,135.26130191699485,135.61012629201286,136.402278708003,136.39441050001187,136.39487966700108,136.402278708003,136.402278708003,136.402278708003,,137.90331562500796,right,0.0,1.4916182919987475,,137.90639087499585,137.91444029202103,138.3997059170215,138.4105494999967,,,,,,,,,,,,,,,,,,,,,,,,,,,,,,sub-143,1,random_dot,118.73805196770482,
right,right,17.0,1.0,8.0,left,0.0,4.370523791993037,,,,,,8.0,1.0,17.0,1.0,,,,,,,,,138.4105494999967,,,,,,,,,138.4000924169959,139.2003802919935,139.99333729202044,139.98400633301935,139.98448225000175,139.99333729202044,139.99333729202044,139.99333729202044,,144.36866795801325,left,0.0,4.370523791993037,,144.3687800000189,144.37744283300708,144.86132975001237,144.86710850000964,,,,,,,,,,,,,,,,,,,,,,,,,,,,,,sub-143,1,random_dot,118.73805196770482,
right,right,18.0,0.0,9.0,right,1.0,1.8208282499981576,,,,,,9.0,0.0,18.0,1.0,,,,,,,,,144.86710850000964,,,,,,,,,144.8617078330135,145.21736574999522,146.02005079199444,146.01162629202008,146.0122121250024,146.02005079199444,146.02005079199444,146.02005079199444,,147.84562150001875,right,1.0,1.8208282499981576,,147.84874950000085,147.85731004201807,148.3445292079996,148.35033437501988,,,,,,,,,,,,,,,,,,,,,,,,,,,,,,sub-143,1,random_dot,118.73805196770482,
left,left,19.0,1.0,9.0,right,0.0,2.602201832982246,,,,,,9.0,1.0,19.0,0.0,,,,,,,,,148.35033437501988,,,,,,,,,148.34495450000395,148.6941478330118,149.4868454170064,149.47801245801384,149.4786575830076,149.4868454170064,149.4868454170064,149.4868454170064,,152.09571070800305,right,0.0,2.602201832982246,,152.0989065419999,152.10774354200112,152.5948252500093,152.60209929200937,,,,,,,,,,,,,,,,,,,,,,,,,,,,,,sub-143,1,random_dot,118.73805196770482,
,,,,,,,,,,,,,,,,,,,,,,,,,,,,,,,,,,,,,,,,,,,,,,,,,,,,152.59498054199503,152.60209929200937,152.60209929200937,156.3516261250188,space,3.7439158750057686,,,,,,,,,,,,,,,,,,,,,,,,sub-143,1,random_dot,118.73805196770482,
,,,,,,,,,,,,,,,,,,,,,,,,,,,,,,,,,,,,,,,,,,,,,,,,,,,,,,,,,,,156.35171012501814,156.36285179201514,156.36285179201514,162.35730808301014,space,5.982175209006527,,,,,,,,,,,,,,,,,sub-143,1,random_dot,118.73805196770482,
right,right,0.0,0.0,0.0,left,0.0,1.069369791977806,,speed,space,2.1828098749974743,,,,,,0.0,0.0,0.0,1.0,0.0,0.0,0.0,1.0,164.58553733301233,,,,,,,,,164.57702520801104,164.66724541701842,165.46057433300302,165.45028520800406,165.4507709580066,165.46057433300302,165.46057433300302,165.46057433300302,,166.53602225001669,,,,,,,,,,,,,,,,,,,,,,,162.37749120799708,162.3841750420106,162.3841750420106,164.56909341699793,space,2.1828098749974743,,left,0.0,1.069369791977806,,,,,,sub-143,1,random_dot,118.73805196770482,
left,left,1.0,1.0,0.0,left,1.0,2.3288413750124164,,speed,space,2.1828098749974743,,,,,,0.0,0.0,0.0,1.0,0.0,1.0,1.0,0.0,166.54400470800465,,,,,,,,,166.5364298330096,166.63776120799594,167.43751370802056,167.4289261670201,167.42952608299674,167.43751370802056,167.43751370802056,167.43751370802056,,169.7693532500125,,,,,,,,,,,,,,,,,,,,,,,,,,,,,,left,1.0,2.3288413750124164,,,,,,sub-143,1,random_dot,118.73805196770482,
right,right,2.0,0.0,1.0,right,1.0,1.1300307089986743,,speed,space,2.1828098749974743,,,,,,0.0,0.0,0.0,1.0,1.0,0.0,2.0,1.0,169.7773573330196,,,,,,,,,169.76975170799415,170.5680469580111,171.3707992080017,171.36227633300587,171.36286850000033,171.3707992080017,171.3707992080017,171.3707992080017,,172.50378354199347,,,,,,,,,,,,,,,,,,,,,,,,,,,,,,right,1.0,1.1300307089986743,,,,,,sub-143,1,random_dot,118.73805196770482,
left,left,3.0,1.0,1.0,right,0.0,1.955587707983796,,speed,space,2.1828098749974743,,,,,,0.0,0.0,0.0,1.0,1.0,1.0,3.0,0.0,172.52774262501043,,,,,,,,,172.50417650002055,173.30144395801472,174.1032904169988,174.09529774999828,174.09577379201073,174.1032904169988,174.1032904169988,174.1032904169988,,176.06286479200935,,,,,,,,,,,,,,,,,,,,,,,,,,,,,,right,0.0,1.955587707983796,,,,,,sub-143,1,random_dot,118.73805196770482,
right,right,4.0,0.0,2.0,right,1.0,3.641233249974903,,speed,space,2.1828098749974743,,,,,,0.0,0.0,0.0,1.0,2.0,0.0,4.0,1.0,176.07120133301942,,,,,,,,,176.06328362500062,176.86156829202082,177.65369450001162,177.64557087499998,177.64609145800932,177.65369450001162,177.65369450001162,177.65369450001162,,181.30689779200475,,,,,,,,,,,,,,,,,,,,,,,,,,,,,,right,1.0,3.641233249974903,,,,,,sub-143,1,random_dot,118.73805196770482,
left,left,5.0,1.0,2.0,left,1.0,1.567707666021306,,speed,space,2.1828098749974743,,,,,,0.0,0.0,0.0,1.0,2.0,1.0,5.0,0.0,181.31319808299304,,,,,,,,,181.3073015419941,181.6517199999944,182.44437225,182.43524491699645,182.435753208003,182.44437225,182.44437225,182.44437225,,184.0197532500024,,,,,,,,,,,,,,,,,,,,,,,,,,,,,,left,1.0,1.567707666021306,,,,,,sub-143,1,random_dot,118.73805196770482,
left,left,6.0,0.0,3.0,left,1.0,1.2582164170162289,,speed,space,2.1828098749974743,,,,,,0.0,0.0,0.0,1.0,3.0,0.0,6.0,0.0,184.02793608300271,,,,,,,,,184.02015312502044,184.8185605829931,185.6199814580032,185.61226654201164,185.61274766700808,185.6199814580032,185.6199814580032,185.6199814580032,,186.8807184580073,,,,,,,,,,,,,,,,,,,,,,,,,,,,,,left,1.0,1.2582164170162289,,,,,,sub-143,1,random_dot,118.73805196770482,
right,right,7.0,1.0,3.0,left,0.0,2.068642792000901,,speed,space,2.1828098749974743,,,,,,0.0,0.0,0.0,1.0,3.0,1.0,7.0,1.0,186.88902699999744,,,,,,,,,186.8812025829975,187.22831712500192,188.02060545800487,188.0125616250152,188.013022041996,188.02060545800487,188.02060545800487,188.02060545800487,,190.0965708750009,,,,,,,,,,,,,,,,,,,,,,,,,,,,,,left,0.0,2.068642792000901,,,,,,sub-143,1,random_dot,118.73805196770482,
left,left,8.0,0.0,4.0,right,0.0,1.1811959170154296,,speed,space,2.1828098749974743,,,,,,0.0,0.0,0.0,1.0,4.0,0.0,8.0,0.0,190.10494333301904,,,,,,,,,190.0969783750188,191.2952476250066,192.08741041700705,192.07925208300003,192.0797494580038,192.08741041700705,192.08741041700705,192.08741041700705,,193.27067270799307,,,,,,,,,,,,,,,,,,,,,,,,,,,,,,right,0.0,1.1811959170154296,,,,,,sub-143,1,random_dot,118.73805196770482,
right,right,9.0,1.0,4.0,right,1.0,1.0393856659939047,,speed,space,2.1828098749974743,,,,,,0.0,0.0,0.0,1.0,4.0,1.0,9.0,1.0,193.29490529201576,,,,,,,,,193.2710797080072,194.0683237920166,194.8605752080039,194.8530210830213,194.85347649999312,194.8605752080039,194.8605752080039,194.8605752080039,,195.9048854580033,,,,,,,,,,,,,,,,,,,,,,,,,,,,,,right,1.0,1.0393856659939047,,,,,,sub-143,1,random_dot,118.73805196770482,
right,right,10.0,0.0,5.0,left,0.0,3.166807375004282,,speed,space,2.1828098749974743,,,,,,0.0,0.0,0.0,1.0,5.0,0.0,10.0,1.0,195.91358225001025,,,,,,,,,195.90529454199716,196.25162766702124,197.05481733300255,197.04630533300224,197.04692354201688,197.05481733300255,197.05481733300255,197.05481733300255,,200.2301807500189,,,,,,,,,,,,,,,,,,,,,,,,,,,,,,left,0.0,3.166807375004282,,,,,,sub-143,1,random_dot,118.73805196770482,
left,left,11.0,1.0,5.0,left,1.0,2.8944576250214595,,speed,space,2.1828098749974743,,,,,,0.0,0.0,0.0,1.0,5.0,1.0,11.0,0.0,200.2386679580086,,,,,,,,,200.2306056249945,201.0287689170218,201.82097412500295,201.8127824169933,201.8133247920196,201.82097412500295,201.82097412500295,201.82097412500295,,204.72034150001127,,,,,,,,,,,,,,,,,,,,,,,,,,,,,,left,1.0,2.8944576250214595,,,,,,sub-143,1,random_dot,118.73805196770482,
right,right,12.0,0.0,6.0,left,0.0,2.4740502909990028,,speed,space,2.1828098749974743,,,,,,0.0,0.0,0.0,1.0,6.0,0.0,12.0,1.0,204.72854229199584,,,,,,,,,204.72074225000688,205.51893420799752,206.3212929170113,206.31301566699403,206.3134684580145,206.3212929170113,206.3212929170113,206.3212929170113,,208.79743283300195,,,,,,,,,,,,,,,,,,,,,,,,,,,,,,left,0.0,2.4740502909990028,,,,,,sub-143,1,random_dot,118.73805196770482,
left,left,13.0,1.0,6.0,right,0.0,0.9411568750219884,,speed,space,2.1828098749974743,,,,,,0.0,0.0,0.0,1.0,6.0,1.0,13.0,0.0,208.80309433300863,,,,,,,,,208.79783158301143,209.99582937499508,210.78787250001915,210.7797260830121,210.7802335830056,210.78787250001915,210.78787250001915,210.78787250001915,,211.7310899170116,,,,,,,,,,,,,,,,,,,,,,,,,,,,,,right,0.0,0.9411568750219884,,,,,,sub-143,1,random_dot,118.73805196770482,
left,left,14.0,0.0,7.0,left,1.0,0.7697135419875849,,speed,space,2.1828098749974743,,,,,,0.0,0.0,0.0,1.0,7.0,0.0,14.0,0.0,211.7370573329972,,,,,,,,,211.73150037499727,212.9289584170037,213.7219066669932,213.71349033300064,213.71403395800732,213.7219066669932,213.7219066669932,213.7219066669932,,214.49725933300212,,,,,,,,,,,,,,,,,,,,,,,,,,,,,,left,1.0,0.7697135419875849,,,,,,sub-143,1,random_dot,118.73805196770482,
right,right,15.0,1.0,7.0,right,1.0,0.8003219999955036,,speed,space,2.1828098749974743,,,,,,0.0,0.0,0.0,1.0,7.0,1.0,15.0,1.0,214.5055672500166,,,,,,,,,214.49766391702,214.8459468749934,215.6376429579977,215.62988700001733,215.6303511669976,215.6376429579977,215.6376429579977,215.6376429579977,,216.44722237501992,,,,,,,,,,,,,,,,,,,,,,,,,,,,,,right,1.0,0.8003219999955036,,,,,,sub-143,1,random_dot,118.73805196770482,
left,left,16.0,0.0,8.0,left,1.0,0.5247939999972004,,speed,space,2.1828098749974743,,,,,,0.0,0.0,0.0,1.0,8.0,0.0,16.0,0.0,216.45544637501007,,,,,,,,,216.44765108299907,216.79615279199788,217.58821245800937,217.580105208006,217.5806487080117,217.58821245800937,217.58821245800937,217.58821245800937,,218.12079758301843,,,,,,,,,,,,,,,,,,,,,,,,,,,,,,left,1.0,0.5247939999972004,,,,,,sub-143,1,random_dot,118.73805196770482,
right,right,17.0,1.0,8.0,right,1.0,1.3307010419957803,,speed,space,2.1828098749974743,,,,,,0.0,0.0,0.0,1.0,8.0,1.0,17.0,1.0,218.12871675001225,,,,,,,,,218.12118912499864,219.3189136669971,220.1212840829976,220.1133121669991,220.11378958300335,220.1212840829976,220.1212840829976,220.1212840829976,,221.4543584579951,,,,,,,,,,,,,,,,,,,,,,,,,,,,,,right,1.0,1.3307010419957803,,,,,,sub-143,1,random_dot,118.73805196770482,
right,right,18.0,0.0,9.0,left,0.0,2.3580115829827264,,speed,space,2.1828098749974743,,,,,,0.0,0.0,0.0,1.0,9.0,0.0,18.0,1.0,221.4621817500156,,,,,,,,,221.4547525420203,221.55282616699697,222.35471616699945,222.34662995801773,222.3471007920161,222.35471616699945,222.35471616699945,222.35471616699945,,224.7216015419981,,,,,,,,,,,,,,,,,,,,,,,,,,,,,,left,0.0,2.3580115829827264,,,,,,sub-143,1,random_dot,118.73805196770482,
left,left,19.0,1.0,9.0,left,1.0,1.6605792919872329,,speed,space,2.1828098749974743,,,,,,0.0,0.0,0.0,1.0,9.0,1.0,19.0,0.0,224.7297712920117,,,,,,,,,224.72199250000995,225.518857957999,226.3116905420029,226.303136750008,226.30369795800647,226.3116905420029,226.3116905420029,226.3116905420029,,227.9807117920136,,,,,,,,,,,,,,,,,,,,,,,,,,,,,,left,1.0,1.6605792919872329,,,,,,sub-143,1,random_dot,118.73805196770482,
left,left,20.0,0.0,10.0,right,0.0,1.6359734580037184,,speed,space,2.1828098749974743,,,,,,0.0,0.0,0.0,1.0,10.0,0.0,20.0,0.0,227.9891866669932,,,,,,,,,227.98112937499536,228.07965787500143,228.8722713330062,228.86374983302085,228.864381833002,228.8722713330062,228.8722713330062,228.8722713330062,,230.5142303330067,,,,,,,,,,,,,,,,,,,,,,,,,,,,,,right,0.0,1.6359734580037184,,,,,,sub-143,1,random_dot,118.73805196770482,
right,right,21.0,1.0,10.0,right,1.0,1.786398916010512,,speed,space,2.1828098749974743,,,,,,0.0,0.0,0.0,1.0,10.0,1.0,21.0,1.0,230.52250791701957,,,,,,,,,230.5146515830129,231.7130584999977,232.5056764170004,232.49691229200107,232.49737683299463,232.5056764170004,232.5056764170004,232.5056764170004,,234.29768474999585,,,,,,,,,,,,,,,,,,,,,,,,,,,,,,right,1.0,1.786398916010512,,,,,,sub-143,1,random_dot,118.73805196770482,
left,left,22.0,0.0,11.0,right,0.0,2.0796452079957817,,speed,space,2.1828098749974743,,,,,,0.0,0.0,0.0,1.0,11.0,0.0,22.0,0.0,234.30617366702063,,,,,,,,,234.2980997080158,234.64636995800535,235.43798204199996,235.43024479201995,235.4307297920168,235.43798204199996,235.43798204199996,235.43798204199996,,237.5212818330037,,,,,,,,,,,,,,,,,,,,,,,,,,,,,,right,0.0,2.0796452079957817,,,,,,sub-143,1,random_dot,118.73805196770482,
right,right,23.0,1.0,11.0,right,1.0,1.719193124998128,,speed,space,2.1828098749974743,,,,,,0.0,0.0,0.0,1.0,11.0,1.0,23.0,1.0,237.5295756669948,,,,,,,,,237.5216896250204,238.31993041699752,239.11261108299368,239.10341612499903,239.1039064170036,239.11261108299368,239.11261108299368,239.11261108299368,,240.83803949999856,,,,,,,,,,,,,,,,,,,,,,,,,,,,,,right,1.0,1.719193124998128,,,,,,sub-143,1,random_dot,118.73805196770482,
right,right,24.0,0.0,12.0,right,1.0,4.135151541995583,,speed,space,2.1828098749974743,,,,,,0.0,0.0,0.0,1.0,12.0,0.0,24.0,1.0,240.84606170799816,,,,,,,,,240.83845429201028,242.03634633301408,242.83901525000687,242.8306009999942,242.8311011250189,242.83901525000687,242.83901525000687,242.83901525000687,,246.9817406249931,,,,,,,,,,,,,,,,,,,,,,,,,,,,,,right,1.0,4.135151541995583,,,,,,sub-143,1,random_dot,118.73805196770482,
left,left,25.0,1.0,12.0,left,1.0,5.680135708011221,,speed,space,2.1828098749974743,,,,,,0.0,0.0,0.0,1.0,12.0,1.0,25.0,0.0,246.99069016700375,,,,,,,,,246.98218862499925,248.1802205000131,248.9720479579992,248.964044458,248.96452312500327,248.9720479579992,248.9720479579992,248.9720479579992,253.9522500000021,254.6547699579969,,,,,,,,,,,,,,,,,,,,,,,,,,,,,,left,1.0,5.680135708011221,,,,,,sub-143,1,random_dot,118.73805196770482,
left,left,26.0,0.0,13.0,left,1.0,2.525239667011192,,speed,space,2.1828098749974743,,,,,,0.0,0.0,0.0,1.0,13.0,0.0,26.0,0.0,254.66302116701263,,,,,,,,,254.655193292012,254.7556767500064,255.5553502920084,255.5475751250051,255.54805387501256,255.5553502920084,255.5553502920084,255.5553502920084,,258.0895854170085,,,,,,,,,,,,,,,,,,,,,,,,,,,,,,left,1.0,2.525239667011192,,,,,,sub-143,1,random_dot,118.73805196770482,
right,right,27.0,1.0,13.0,right,1.0,1.16014466600609,,speed,space,2.1828098749974743,,,,,,0.0,0.0,0.0,1.0,13.0,1.0,27.0,1.0,258.11326833302155,,,,,,,,,258.08997783300583,259.2871737079986,260.0793615000148,260.071206624998,260.0717064579949,260.0793615000148,260.0793615000148,260.0793615000148,,261.2485063330096,,,,,,,,,,,,,,,,,,,,,,,,,,,,,,right,1.0,1.16014466600609,,,,,,sub-143,1,random_dot,118.73805196770482,
left,left,28.0,0.0,14.0,left,1.0,1.1924476250133011,,speed,space,2.1828098749974743,,,,,,0.0,0.0,0.0,1.0,14.0,0.0,28.0,0.0,261.2565265830199,,,,,,,,,261.2489134170173,261.59716254202067,262.3892055420147,262.3811840830021,262.38165129200206,262.3892055420147,262.3892055420147,262.3892055420147,,263.5888914579991,,,,,,,,,,,,,,,,,,,,,,,,,,,,,,left,1.0,1.1924476250133011,,,,,,sub-143,1,random_dot,118.73805196770482,
right,right,29.0,1.0,14.0,right,1.0,0.7885619160078932,,speed,space,2.1828098749974743,,,,,,0.0,0.0,0.0,1.0,14.0,1.0,29.0,1.0,263.59684716700576,,,,,,,,,263.58929462500964,263.9366244999983,264.73003162501846,264.7198335000139,264.7203486250073,264.73003162501846,264.73003162501846,264.73003162501846,,265.5224187920103,,,,,,,,,,,,,,,,,,,,,,,,,,,,,,right,1.0,0.7885619160078932,,,,,,sub-143,1,random_dot,118.73805196770482,
left,left,30.0,0.0,15.0,left,1.0,0.7011782079935074,,speed,space,2.1828098749974743,,,,,,0.0,0.0,0.0,1.0,15.0,0.0,30.0,0.0,265.5302814170136,,,,,,,,,265.52281270801905,266.72015425001155,267.52241050000885,267.5147630420106,267.5152175000112,267.52241050000885,267.52241050000885,267.52241050000885,,268.2321208330104,,,,,,,,,,,,,,,,,,,,,,,,,,,,,,left,1.0,0.7011782079935074,,,,,,sub-143,1,random_dot,118.73805196770482,
right,right,31.0,1.0,15.0,right,1.0,0.6922992909967434,,speed,space,2.1828098749974743,,,,,,0.0,0.0,0.0,1.0,15.0,1.0,31.0,1.0,268.2404270830157,,,,,,,,,268.23254970801645,269.0307960830105,269.8229750000173,269.81481454201275,269.8153353749949,269.8229750000173,269.8229750000173,269.8229750000173,,270.5221890830144,,,,,,,,,,,,,,,,,,,,,,,,,,,,,,right,1.0,0.6922992909967434,,,,,,sub-143,1,random_dot,118.73805196770482,
left,left,32.0,0.0,16.0,left,1.0,2.8193367089843377,,speed,space,2.1828098749974743,,,,,,0.0,0.0,0.0,1.0,16.0,0.0,32.0,0.0,270.5303404169972,,,,,,,,,270.5225889580033,270.8695633750176,271.6635572499945,271.6532815420069,271.6537780830113,271.6635572499945,271.6635572499945,271.6635572499945,,274.4890686250001,,,,,,,,,,,,,,,,,,,,,,,,,,,,,,left,1.0,2.8193367089843377,,,,,,sub-143,1,random_dot,118.73805196770482,
right,right,33.0,1.0,16.0,right,1.0,1.5161186250043102,,speed,space,2.1828098749974743,,,,,,0.0,0.0,0.0,1.0,16.0,1.0,33.0,1.0,274.4971160000132,,,,,,,,,274.48947125001,275.6873780830065,276.4891601249983,276.4814220830158,276.4818897499936,276.4891601249983,276.4891601249983,276.4891601249983,,278.0154082500085,,,,,,,,,,,,,,,,,,,,,,,,,,,,,,right,1.0,1.5161186250043102,,,,,,sub-143,1,random_dot,118.73805196770482,
left,left,34.0,0.0,17.0,right,0.0,1.7440573339990806,,speed,space,2.1828098749974743,,,,,,0.0,0.0,0.0,1.0,17.0,0.0,34.0,0.0,278.0237884579983,,,,,,,,,278.01580304201343,278.3639855000074,279.1562606249936,279.1481583749992,279.1486442500027,279.1562606249936,279.1562606249936,279.1562606249936,,280.9058705829957,,,,,,,,,,,,,,,,,,,,,,,,,,,,,,right,0.0,1.7440573339990806,,,,,,sub-143,1,random_dot,118.73805196770482,
right,right,35.0,1.0,17.0,left,0.0,1.1972494999936316,,speed,space,2.1828098749974743,,,,,,0.0,0.0,0.0,1.0,17.0,1.0,35.0,1.0,280.9138432080217,,,,,,,,,280.90626604200224,282.10433366699726,282.90664000000106,282.89854066699627,282.8990077500057,282.90664000000106,282.90664000000106,282.90664000000106,,284.10614558300585,,,,,,,,,,,,,,,,,,,,,,,,,,,,,,left,0.0,1.1972494999936316,,,,,,sub-143,1,random_dot,118.73805196770482,
left,left,36.0,0.0,18.0,left,1.0,2.4107782499922905,,speed,space,2.1828098749974743,,,,,,0.0,0.0,0.0,1.0,18.0,0.0,36.0,0.0,284.11403450000216,,,,,,,,,284.10653808299685,284.454110916995,285.2570730000152,285.24867354199523,285.24924941701465,285.2570730000152,285.2570730000152,285.2570730000152,,287.67278208301286,,,,,,,,,,,,,,,,,,,,,,,,,,,,,,left,1.0,2.4107782499922905,,,,,,sub-143,1,random_dot,118.73805196770482,
right,right,37.0,1.0,18.0,left,0.0,3.379198082984658,,speed,space,2.1828098749974743,,,,,,0.0,0.0,0.0,1.0,18.0,1.0,37.0,1.0,287.6808246250148,,,,,,,,,287.67319362499984,288.0208659170021,288.8140453750093,288.80464870799915,288.8051506250049,288.8140453750093,288.8140453750093,288.8140453750093,,292.19923995801946,,,,,,,,,,,,,,,,,,,,,,,,,,,,,,left,0.0,3.379198082984658,,,,,,sub-143,1,random_dot,118.73805196770482,
right,right,38.0,0.0,19.0,left,0.0,3.218897458020365,,speed,space,2.1828098749974743,,,,,,0.0,0.0,0.0,1.0,19.0,0.0,38.0,1.0,292.20760254201014,,,,,,,,,292.1996463749965,292.99814283300657,293.790165583021,293.78213787500863,293.78260416700505,293.790165583021,293.790165583021,293.790165583021,,297.01605295800255,,,,,,,,,,,,,,,,,,,,,,,,,,,,,,left,0.0,3.218897458020365,,,,,,sub-143,1,random_dot,118.73805196770482,
left,left,39.0,1.0,19.0,left,1.0,3.699847999989288,,speed,space,2.1828098749974743,,,,,,0.0,0.0,0.0,1.0,19.0,1.0,39.0,0.0,297.0246342080063,,,,,,,,,297.01647058301023,297.1148005000141,297.9067482080136,297.8987342500186,297.8992200829962,297.9067482080136,297.9067482080136,297.9067482080136,,301.61615754201193,,,,,,,,,,,,,,,,,,,,,,,,,,,,,,left,1.0,3.699847999989288,,,,,,sub-143,1,random_dot,118.73805196770482,
left,left,40.0,0.0,20.0,left,1.0,5.5424235840037,,speed,space,2.1828098749974743,,,,,,0.0,0.0,0.0,1.0,20.0,0.0,40.0,0.0,301.6246254580037,,,,,,,,,301.6165766250051,301.9648853749968,302.75706870801514,302.74904845800484,302.7495503750106,302.75706870801514,302.75706870801514,302.75706870801514,307.7484603750054,308.30667266700766,,,,,,,,,,,,,,,,,,,,,,,,,,,,,,left,1.0,5.5424235840037,,,,,,sub-143,1,random_dot,118.73805196770482,
right,right,41.0,1.0,20.0,right,1.0,3.997840041993186,,speed,space,2.1828098749974743,,,,,,0.0,0.0,0.0,1.0,20.0,1.0,41.0,1.0,308.33139870801824,,,,,,,,,308.3072011670156,308.654669917014,309.4570538330008,309.4489779580035,309.4494577080186,309.4570538330008,309.4570538330008,309.4570538330008,,313.4571610419953,,,,,,,,,,,,,,,,,,,,,,,,,,,,,,right,1.0,3.997840041993186,,,,,,sub-143,1,random_dot,118.73805196770482,
right,right,42.0,0.0,21.0,right,1.0,2.186934375000419,,speed,space,2.1828098749974743,,,,,,0.0,0.0,0.0,1.0,21.0,0.0,42.0,1.0,313.46561291700345,,,,,,,,,313.4575649170147,314.25529358300264,315.0570538750035,315.0491767500061,315.0496502080059,315.0570538750035,315.0570538750035,315.0570538750035,,317.2501029169944,,,,,,,,,,,,,,,,,,,,,,,,,,,,,,right,1.0,2.186934375000419,,,,,,sub-143,1,random_dot,118.73805196770482,
left,left,43.0,1.0,21.0,right,0.0,2.2582404160057195,,speed,space,2.1828098749974743,,,,,,0.0,0.0,0.0,1.0,21.0,1.0,43.0,0.0,317.258694292017,,,,,,,,,317.25057324999943,317.59874975000275,318.3914622500015,318.3830862500181,318.3836312080093,318.3914622500015,318.3914622500015,318.3914622500015,,320.65685929200845,,,,,,,,,,,,,,,,,,,,,,,,,,,,,,right,0.0,2.2582404160057195,,,,,,sub-143,1,random_dot,118.73805196770482,
left,left,44.0,0.0,22.0,right,0.0,2.29467149998527,,speed,space,2.1828098749974743,,,,,,0.0,0.0,0.0,1.0,22.0,0.0,44.0,0.0,320.66483191700536,,,,,,,,,320.6572527080134,321.4550952920108,322.25823916701484,322.249719458021,322.25026829200215,322.25823916701484,322.25823916701484,322.25823916701484,,324.55683545800275,,,,,,,,,,,,,,,,,,,,,,,,,,,,,,right,0.0,2.29467149998527,,,,,,sub-143,1,random_dot,118.73805196770482,
right,right,45.0,1.0,22.0,right,1.0,1.005398665991379,,speed,space,2.1828098749974743,,,,,,0.0,0.0,0.0,1.0,22.0,1.0,45.0,1.0,324.5648384170199,,,,,,,,,324.55724216700764,325.7557225420024,326.5572439579992,326.5494535420148,326.5499111250101,326.5572439579992,326.5572439579992,326.5572439579992,,327.5671521250042,,,,,,,,,,,,,,,,,,,,,,,,,,,,,,right,1.0,1.005398665991379,,,,,,sub-143,1,random_dot,118.73805196770482,
right,right,46.0,0.0,23.0,right,1.0,5.558175790996756,,speed,space,2.1828098749974743,,,,,,0.0,0.0,0.0,1.0,23.0,0.0,46.0,1.0,327.5759935420065,,,,,,,,,327.56764841699624,328.76541129199904,329.55782533300226,329.54973179200897,329.550281792006,329.55782533300226,329.55782533300226,329.55782533300226,334.5491084580135,335.1183756670216,,,,,,,,,,,,,,,,,,,,,,,,,,,,,,right,1.0,5.558175790996756,,,,,,sub-143,1,random_dot,118.73805196770482,
left,left,47.0,1.0,23.0,left,1.0,3.483406625018688,,speed,space,2.1828098749974743,,,,,,0.0,0.0,0.0,1.0,23.0,1.0,47.0,0.0,335.1265940000012,,,,,,,,,335.1188170000096,335.9159068330191,336.7078611670004,336.69982395801344,336.70030283302185,336.7078611670004,336.7078611670004,336.7078611670004,,340.2006436670199,,,,,,,,,,,,,,,,,,,,,,,,,,,,,,left,1.0,3.483406625018688,,,,,,sub-143,1,random_dot,118.73805196770482,
left,left,48.0,0.0,24.0,left,1.0,1.5471987920172978,,speed,space,2.1828098749974743,,,,,,0.0,0.0,0.0,1.0,24.0,0.0,48.0,0.0,340.2089706250117,,,,,,,,,340.2010497500014,340.99941800002125,341.791238292004,341.7831272500043,341.7835874580196,341.791238292004,341.791238292004,341.791238292004,,343.3411075000185,,,,,,,,,,,,,,,,,,,,,,,,,,,,,,left,1.0,1.5471987920172978,,,,,,sub-143,1,random_dot,118.73805196770482,
right,right,49.0,1.0,24.0,left,0.0,1.8304889589780944,,speed,space,2.1828098749974743,,,,,,0.0,0.0,0.0,1.0,24.0,1.0,49.0,1.0,343.34903604199644,,,,,,,,,343.3414997080108,344.1394701249956,344.9408795000054,344.93311337500927,344.93357741701766,344.9408795000054,344.9408795000054,344.9408795000054,,346.7749260000128,,,,,,,,,,,,,,,,,,,,,,,,,,,,,,left,0.0,1.8304889589780944,,,,,,sub-143,1,random_dot,118.73805196770482,
right,right,50.0,0.0,25.0,right,1.0,1.8253627920057625,,speed,space,2.1828098749974743,,,,,,0.0,0.0,0.0,1.0,25.0,0.0,50.0,1.0,346.7825745830196,,,,,,,,,346.7753167500196,347.5719295000017,348.3655877500132,348.35531070799334,348.3557956250152,348.3655877500132,348.3655877500132,348.3655877500132,,350.20090358299785,,,,,,,,,,,,,,,,,,,,,,,,,,,,,,right,1.0,1.8253627920057625,,,,,,sub-143,1,random_dot,118.73805196770482,
left,left,51.0,1.0,25.0,left,1.0,2.8461323750088923,,speed,space,2.1828098749974743,,,,,,0.0,0.0,0.0,1.0,25.0,1.0,51.0,0.0,350.20940066699404,,,,,,,,,350.20131416700315,351.39970654199715,352.19235995801864,352.18391504199826,352.18447570799617,352.19235995801864,352.19235995801864,352.19235995801864,,355.0418309170054,,,,,,,,,,,,,,,,,,,,,,,,,,,,,,left,1.0,2.8461323750088923,,,,,,sub-143,1,random_dot,118.73805196770482,
right,right,52.0,0.0,26.0,left,0.0,2.6862148749933112,,speed,space,2.1828098749974743,,,,,,0.0,0.0,0.0,1.0,26.0,0.0,52.0,1.0,355.06597541700467,,,,,,,,,355.0422243750072,356.23929637501715,357.0325253329938,357.02317908301484,357.02371845801827,357.0325253329938,357.0325253329938,357.0325253329938,,359.7249493749987,,,,,,,,,,,,,,,,,,,,,,,,,,,,,,left,0.0,2.6862148749933112,,,,,,sub-143,1,random_dot,118.73805196770482,
left,left,53.0,1.0,26.0,right,0.0,2.2269119170086924,,speed,space,2.1828098749974743,,,,,,0.0,0.0,0.0,1.0,26.0,1.0,53.0,0.0,359.73290225001983,,,,,,,,,359.72534274999634,360.5230295000074,361.31543462499394,361.3072465830192,361.3077475420141,361.31543462499394,361.31543462499394,361.31543462499394,,363.55129166701226,,,,,,,,,,,,,,,,,,,,,,,,,,,,,,right,0.0,2.2269119170086924,,,,,,sub-143,1,random_dot,118.73805196770482,
left,left,54.0,0.0,27.0,left,1.0,1.7599560410017148,,speed,space,2.1828098749974743,,,,,,0.0,0.0,0.0,1.0,27.0,0.0,54.0,0.0,363.5592694579973,,,,,,,,,363.5517302080116,363.8997405830014,364.69221629199455,364.6839185419958,364.6843965419976,364.69221629199455,364.69221629199455,364.69221629199455,,366.4582395420002,,,,,,,,,,,,,,,,,,,,,,,,,,,,,,left,1.0,1.7599560410017148,,,,,,sub-143,1,random_dot,118.73805196770482,
right,right,55.0,1.0,27.0,left,0.0,1.3733384580118582,,speed,space,2.1828098749974743,,,,,,0.0,0.0,0.0,1.0,27.0,1.0,55.0,1.0,366.46623449999606,,,,,,,,,366.45863312500296,367.65641329201753,368.448690833,368.4405324170075,368.441021458013,368.448690833,368.448690833,368.448690833,,369.82497708301526,,,,,,,,,,,,,,,,,,,,,,,,,,,,,,left,0.0,1.3733384580118582,,,,,,sub-143,1,random_dot,118.73805196770482,
left,left,56.0,0.0,28.0,left,1.0,1.798480291996384,,speed,space,2.1828098749974743,,,,,,0.0,0.0,0.0,1.0,28.0,0.0,56.0,0.0,369.8329765830131,,,,,,,,,369.82536037502,370.173236667004,370.9753914170142,370.96749616699526,370.9679752500088,370.9753914170142,370.9753914170142,370.9753914170142,,372.7758029999968,,,,,,,,,,,,,,,,,,,,,,,,,,,,,,left,1.0,1.798480291996384,,,,,,sub-143,1,random_dot,118.73805196770482,
right,right,57.0,1.0,28.0,left,0.0,1.0963312920066528,,speed,space,2.1828098749974743,,,,,,0.0,0.0,0.0,1.0,28.0,1.0,57.0,1.0,372.799700167001,,,,,,,,,372.7762031250168,372.8735524580116,373.6757916670176,373.667544625001,373.6681175419944,373.6757916670176,373.6757916670176,373.6757916670176,,374.7757456249965,,,,,,,,,,,,,,,,,,,,,,,,,,,,,,left,0.0,1.0963312920066528,,,,,,sub-143,1,random_dot,118.73805196770482,
left,left,58.0,0.0,29.0,right,0.0,1.7510138749785256,,speed,space,2.1828098749974743,,,,,,0.0,0.0,0.0,1.0,29.0,0.0,58.0,0.0,374.7997698750114,,,,,,,,,374.7761400419986,375.9737894580176,376.76648583300994,376.7572260830202,376.7577212080069,376.76648583300994,376.76648583300994,376.76648583300994,,378.52549516700674,,,,,,,,,,,,,,,,,,,,,,,,,,,,,,right,0.0,1.7510138749785256,,,,,,sub-143,1,random_dot,118.73805196770482,
right,right,59.0,1.0,29.0,right,1.0,1.5921249579987489,,speed,space,2.1828098749974743,,,,,,0.0,0.0,0.0,1.0,29.0,1.0,59.0,1.0,378.53345987500506,,,,,,,,,378.5258889170073,378.6242027080152,379.42617008299567,379.41788054199424,379.4184316669998,379.42617008299567,379.42617008299567,379.42617008299567,,381.02560816699406,,,,,,,,,,,,,,,,,,,,,,,,,,,,,,right,1.0,1.5921249579987489,,,,,,sub-143,1,random_dot,118.73805196770482,
,,0.0,0.0,0.0,,,,,speed,space,2.1828098749974743,,,,,,0.0,0.0,0.0,1.0,,,,,,,,,,,,,,,,,,,,,,,,,,,,,,,,,,,,,,,,,,,,,,,,,,,,,,,,,,,,,sub-143,1,random_dot,118.73805196770482,
right,right,0.0,0.0,0.0,left,0.0,3.3988532919902354,,accuracy,space,3.041571584006306,,,,,,0.0,1.0,1.0,0.0,0.0,0.0,0.0,1.0,384.118842166994,,,,,,,,,384.1102015420038,384.4506068330084,385.24243066701456,385.23455845800345,385.235038792016,385.24243066701456,385.24243066701456,385.24243066701456,,388.6519060000137,,,,,,,,,,,,,,,,,,,,,,,381.0426940000034,381.05062633301714,381.05062633301714,384.10218275000807,space,3.041571584006306,,left,0.0,3.3988532919902354,,,,,,sub-143,1,random_dot,118.73805196770482,
left,left,1.0,1.0,0.0,right,0.0,5.398138624994317,,accuracy,space,3.041571584006306,,,,,,0.0,1.0,1.0,0.0,0.0,1.0,1.0,0.0,388.6602742499963,,,,,,,,,388.6523100420018,389.0004561670066,389.7928209580132,389.784727708,389.7852794580104,389.7928209580132,389.7928209580132,389.7928209580132,394.78401945802034,395.2019264170085,,,,,,,,,,,,,,,,,,,,,,,,,,,,,,right,0.0,5.398138624994317,,,,,,sub-143,1,random_dot,118.73805196770482,
left,left,2.0,0.0,1.0,left,1.0,2.724452166003175,,accuracy,space,3.041571584006306,,,,,,0.0,1.0,1.0,0.0,1.0,0.0,2.0,0.0,395.2068327080051,,,,,,,,,395.2023880830093,395.5509362920129,396.3432588330179,396.3350162499992,396.3355665419949,396.3432588330179,396.3432588330179,396.3432588330179,,399.0756270420097,,,,,,,,,,,,,,,,,,,,,,,,,,,,,,left,1.0,2.724452166003175,,,,,,sub-143,1,random_dot,118.73805196770482,
right,right,3.0,1.0,1.0,right,1.0,2.48417983300169,,accuracy,space,3.041571584006306,,,,,,0.0,1.0,1.0,0.0,1.0,1.0,3.0,1.0,399.0836204170191,,,,,,,,,399.0760224169935,399.8729067920067,400.66704691702034,400.6568543750036,400.657314333017,400.66704691702034,400.66704691702034,400.66704691702034,,403.1603404580092,,,,,,,,,,,,,,,,,,,,,,,,,,,,,,right,1.0,2.48417983300169,,,,,,sub-143,1,random_dot,118.73805196770482,
right,right,4.0,0.0,2.0,right,1.0,3.379065000015544,,accuracy,space,3.041571584006306,,,,,,0.0,1.0,1.0,0.0,2.0,0.0,4.0,1.0,403.1840094170184,,,,,,,,,403.1607471250172,403.9579147500044,404.75937029201305,404.7515835420054,404.7520435420156,404.75937029201305,404.75937029201305,404.75937029201305,,408.1429592500208,,,,,,,,,,,,,,,,,,,,,,,,,,,,,,right,1.0,3.379065000015544,,,,,,sub-143,1,random_dot,118.73805196770482,
left,left,5.0,1.0,2.0,left,1.0,3.044882417016197,,accuracy,space,3.041571584006306,,,,,,0.0,1.0,1.0,0.0,2.0,1.0,5.0,0.0,408.1515042500105,,,,,,,,,408.1433593330148,408.24154750001617,409.04311975001474,409.0350432080159,409.0355115419952,409.04311975001474,409.04311975001474,409.04311975001474,,412.0929855830036,,,,,,,,,,,,,,,,,,,,,,,,,,,,,,left,1.0,3.044882417016197,,,,,,sub-143,1,random_dot,118.73805196770482,
right,right,6.0,0.0,3.0,right,1.0,2.764226125000277,,accuracy,space,3.041571584006306,,,,,,0.0,1.0,1.0,0.0,3.0,0.0,6.0,1.0,412.10145691700745,,,,,,,,,412.0935042500205,412.44132875002106,413.24302704201546,413.2353277500079,413.2357798750163,413.24302704201546,413.24302704201546,413.24302704201546,,416.0095196250186,,,,,,,,,,,,,,,,,,,,,,,,,,,,,,right,1.0,2.764226125000277,,,,,,sub-143,1,random_dot,118.73805196770482,
left,left,7.0,1.0,3.0,left,1.0,1.8990877500036727,,accuracy,space,3.041571584006306,,,,,,0.0,1.0,1.0,0.0,3.0,1.0,7.0,0.0,416.0174301670049,,,,,,,,,416.0099085000111,416.1086928750156,416.9099591250124,416.9020015420101,416.9024731249956,416.9099591250124,416.9099591250124,416.9099591250124,,418.8196674580104,,,,,,,,,,,,,,,,,,,,,,,,,,,,,,left,1.0,1.8990877500036727,,,,,,sub-143,1,random_dot,118.73805196770482,
right,right,8.0,0.0,4.0,right,1.0,1.8673362499976065,,accuracy,space,3.041571584006306,,,,,,0.0,1.0,1.0,0.0,4.0,0.0,8.0,1.0,418.82788516700384,,,,,,,,,418.8200757919985,418.9178947500186,419.7096842500032,419.70195941699785,419.70242045799387,419.7096842500032,419.7096842500032,419.7096842500032,,421.5861077920126,,,,,,,,,,,,,,,,,,,,,,,,,,,,,,right,1.0,1.8673362499976065,,,,,,sub-143,1,random_dot,118.73805196770482,
left,left,9.0,1.0,4.0,left,1.0,2.3000960419885814,,accuracy,space,3.041571584006306,,,,,,0.0,1.0,1.0,0.0,4.0,1.0,9.0,0.0,421.594370833016,,,,,,,,,421.5865311670059,422.7847606250143,423.57657183299307,423.56858950000606,423.5690988750139,423.57657183299307,423.57657183299307,423.57657183299307,,425.8864374580153,,,,,,,,,,,,,,,,,,,,,,,,,,,,,,left,1.0,2.3000960419885814,,,,,,sub-143,1,random_dot,118.73805196770482,
right,right,10.0,0.0,5.0,left,0.0,1.8634455839928703,,accuracy,space,3.041571584006306,,,,,,0.0,1.0,1.0,0.0,5.0,0.0,10.0,1.0,425.8948887500155,,,,,,,,,425.8868582500145,425.985222917021,426.7772382500116,426.7688964169938,426.7694293750101,426.7772382500116,426.7772382500116,426.7772382500116,,428.6436340000073,,,,,,,,,,,,,,,,,,,,,,,,,,,,,,left,0.0,1.8634455839928703,,,,,,sub-143,1,random_dot,118.73805196770482,
left,left,11.0,1.0,5.0,right,0.0,1.698034875007579,,accuracy,space,3.041571584006306,,,,,,0.0,1.0,1.0,0.0,5.0,1.0,11.0,0.0,428.6521302500041,,,,,,,,,428.6440377919935,429.841612624994,430.643639707996,430.6359210830124,430.63640204200055,430.643639707996,430.643639707996,430.643639707996,,432.3437595830183,,,,,,,,,,,,,,,,,,,,,,,,,,,,,,right,0.0,1.698034875007579,,,,,,sub-143,1,random_dot,118.73805196770482,
right,right,12.0,0.0,6.0,left,0.0,2.097777459013741,,accuracy,space,3.041571584006306,,,,,,0.0,1.0,1.0,0.0,6.0,0.0,12.0,1.0,432.35207850000006,,,,,,,,,432.344159625005,433.1418012500217,433.93466354199336,433.9252804580028,433.92576179199386,433.93466354199336,433.93466354199336,433.93466354199336,,436.0364966670168,,,,,,,,,,,,,,,,,,,,,,,,,,,,,,left,0.0,2.097777459013741,,,,,,sub-143,1,random_dot,118.73805196770482,
left,left,13.0,1.0,6.0,right,0.0,3.825256582989823,,accuracy,space,3.041571584006306,,,,,,0.0,1.0,1.0,0.0,6.0,1.0,13.0,0.0,436.0447106670181,,,,,,,,,436.036898958002,436.1352847499948,436.927138375002,436.91910866700346,436.91957641701447,436.927138375002,436.927138375002,436.927138375002,,440.7601184170053,,,,,,,,,,,,,,,,,,,,,,,,,,,,,,right,0.0,3.825256582989823,,,,,,sub-143,1,random_dot,118.73805196770482,
right,right,14.0,0.0,7.0,right,1.0,3.805295958009083,,accuracy,space,3.041571584006306,,,,,,0.0,1.0,1.0,0.0,7.0,0.0,14.0,1.0,440.7682827500103,,,,,,,,,440.76050550001673,440.85870012501255,441.6514911669947,441.6423732080148,441.64284020802006,441.6514911669947,441.6514911669947,441.6514911669947,,445.4602427500067,,,,,,,,,,,,,,,,,,,,,,,,,,,,,,right,1.0,3.805295958009083,,,,,,sub-143,1,random_dot,118.73805196770482,
left,left,15.0,1.0,7.0,right,0.0,2.41087150000385,,accuracy,space,3.041571584006306,,,,,,0.0,1.0,1.0,0.0,7.0,1.0,15.0,0.0,445.4685292080103,,,,,,,,,445.4606327920046,445.55840574999456,446.3610397080192,446.3528258750157,446.3532926670159,446.3610397080192,446.3610397080192,446.3610397080192,,448.77717437502,,,,,,,,,,,,,,,,,,,,,,,,,,,,,,right,0.0,2.41087150000385,,,,,,sub-143,1,random_dot,118.73805196770482,
left,left,16.0,0.0,8.0,left,1.0,3.870904582989169,,accuracy,space,3.041571584006306,,,,,,0.0,1.0,1.0,0.0,8.0,0.0,16.0,0.0,448.7850955000031,,,,,,,,,448.7775863750139,449.1252717919997,449.91833987500286,449.9084054169944,449.90887512499467,449.91833987500286,449.91833987500286,449.91833987500286,,453.79398437502095,,,,,,,,,,,,,,,,,,,,,,,,,,,,,,left,1.0,3.870904582989169,,,,,,sub-143,1,random_dot,118.73805196770482,
right,right,17.0,1.0,8.0,right,1.0,5.317150333983591,,accuracy,space,3.041571584006306,,,,,,0.0,1.0,1.0,0.0,8.0,1.0,17.0,1.0,453.80236858301214,,,,,,,,,453.7943870000017,454.9923066670017,455.7852748330042,455.7756590830104,455.7761277499958,455.7852748330042,455.7852748330042,455.7852748330042,460.7689243330096,461.1049748749938,,,,,,,,,,,,,,,,,,,,,,,,,,,,,,right,1.0,5.317150333983591,,,,,,sub-143,1,random_dot,118.73805196770482,
right,right,18.0,0.0,9.0,left,0.0,3.854847042006441,,accuracy,space,3.041571584006306,,,,,,0.0,1.0,1.0,0.0,9.0,0.0,18.0,1.0,461.1136010000191,,,,,,,,,461.1055230000056,461.4527034579951,462.2449830420082,462.2368268330174,462.2373743750213,462.2449830420082,462.2449830420082,462.2449830420082,,466.10399100001086,,,,,,,,,,,,,,,,,,,,,,,,,,,,,,left,0.0,3.854847042006441,,,,,,sub-143,1,random_dot,118.73805196770482,
left,left,19.0,1.0,9.0,right,0.0,2.2833595419942867,,accuracy,space,3.041571584006306,,,,,,0.0,1.0,1.0,0.0,9.0,1.0,19.0,0.0,466.1122960000066,,,,,,,,,466.10441029199865,466.2024666670186,466.99491754200426,466.9866727920016,466.9871672500158,466.99491754200426,466.99491754200426,466.99491754200426,,469.28746670801775,,,,,,,,,,,,,,,,,,,,,,,,,,,,,,right,0.0,2.2833595419942867,,,,,,sub-143,1,random_dot,118.73805196770482,
left,left,20.0,0.0,10.0,right,0.0,2.8458839579834603,,accuracy,space,3.041571584006306,,,,,,0.0,1.0,1.0,0.0,10.0,0.0,20.0,0.0,469.29579750000266,,,,,,,,,469.2878587080049,469.3860487920174,470.17807695802185,470.1700956670102,470.1705755830044,470.17807695802185,470.17807695802185,470.17807695802185,,473.02836229201057,,,,,,,,,,,,,,,,,,,,,,,,,,,,,,right,0.0,2.8458839579834603,,,,,,sub-143,1,random_dot,118.73805196770482,
right,right,21.0,1.0,10.0,right,1.0,5.19588220800506,,accuracy,space,3.041571584006306,,,,,,0.0,1.0,1.0,0.0,10.0,1.0,21.0,1.0,473.0525914580212,,,,,,,,,473.02874783301377,474.2262080000073,475.02851891700993,475.0203461670026,475.02079791700817,475.02851891700993,475.02851891700993,475.02851891700993,480.0197360830207,480.2274502920045,,,,,,,,,,,,,,,,,,,,,,,,,,,,,,right,1.0,5.19588220800506,,,,,,sub-143,1,random_dot,118.73805196770482,
right,right,22.0,0.0,11.0,left,0.0,2.445637208991684,,accuracy,space,3.041571584006306,,,,,,0.0,1.0,1.0,0.0,11.0,0.0,22.0,1.0,480.2354280000145,,,,,,,,,480.22785429199575,481.0267241249967,481.8195075000112,481.8101526249957,481.8106646249944,481.8195075000112,481.8195075000112,481.8195075000112,,484.2711468329944,,,,,,,,,,,,,,,,,,,,,,,,,,,,,,left,0.0,2.445637208991684,,,,,,sub-143,1,random_dot,118.73805196770482,
left,left,23.0,1.0,11.0,left,1.0,5.045518250000896,,accuracy,space,3.041571584006306,,,,,,0.0,1.0,1.0,0.0,11.0,1.0,23.0,0.0,484.2795803330082,,,,,,,,,484.27158029199927,485.46999775001314,486.26255104201846,486.2537843330065,486.2542528329941,486.26255104201846,486.26255104201846,486.26255104201846,491.2428209170175,491.3119456249988,,,,,,,,,,,,,,,,,,,,,,,,,,,,,,left,1.0,5.045518250000896,,,,,,sub-143,1,random_dot,118.73805196770482,
right,right,24.0,0.0,12.0,right,1.0,5.50849270800245,,accuracy,space,3.041571584006306,,,,,,0.0,1.0,1.0,0.0,12.0,0.0,24.0,1.0,491.3220041670138,,,,,,,,,491.31261600001017,492.11104862499633,492.9120333750034,492.90409404199454,492.90454725001473,492.9120333750034,492.9120333750034,492.9120333750034,497.89229770802194,498.4232388749952,,,,,,,,,,,,,,,,,,,,,,,,,,,,,,right,1.0,5.50849270800245,,,,,,sub-143,1,random_dot,118.73805196770482,
left,left,25.0,1.0,12.0,right,0.0,3.416784500004724,,accuracy,space,3.041571584006306,,,,,,0.0,1.0,1.0,0.0,12.0,1.0,25.0,0.0,498.4315907919954,,,,,,,,,498.4237832500076,498.52035100001376,499.3134730000165,499.304363208008,499.3048881250143,499.3134730000165,499.3134730000165,499.3134730000165,,502.73840083301184,,,,,,,,,,,,,,,,,,,,,,,,,,,,,,right,0.0,3.416784500004724,,,,,,sub-143,1,random_dot,118.73805196770482,
right,right,26.0,0.0,13.0,left,0.0,3.049536541977432,,accuracy,space,3.041571584006306,,,,,,0.0,1.0,1.0,0.0,13.0,0.0,26.0,1.0,502.7467585419945,,,,,,,,,502.73881125001935,502.8365597499942,503.62870129200746,503.6209332080034,503.62138749999576,503.62870129200746,503.62870129200746,503.62870129200746,,506.68825491701136,,,,,,,,,,,,,,,,,,,,,,,,,,,,,,left,0.0,3.049536541977432,,,,,,sub-143,1,random_dot,118.73805196770482,
left,left,27.0,1.0,13.0,right,0.0,3.4536096670199186,,accuracy,space,3.041571584006306,,,,,,0.0,1.0,1.0,0.0,13.0,1.0,27.0,0.0,506.696541250014,,,,,,,,,506.6886575829994,506.7871366670006,507.5791146249976,507.5711308750033,507.5715840829944,507.5791146249976,507.5791146249976,507.5791146249976,,511.0390102920064,,,,,,,,,,,,,,,,,,,,,,,,,,,,,,right,0.0,3.4536096670199186,,,,,,sub-143,1,random_dot,118.73805196770482,
right,right,28.0,0.0,14.0,left,0.0,5.069207082997309,,accuracy,space,3.041571584006306,,,,,,0.0,1.0,1.0,0.0,14.0,0.0,28.0,1.0,511.04755400001886,,,,,,,,,511.0394633329997,511.1372582080076,511.929231667018,511.9212152920081,511.9216799999994,511.929231667018,511.929231667018,511.929231667018,516.9094589170127,517.0063065830036,,,,,,,,,,,,,,,,,,,,,,,,,,,,,,left,0.0,5.069207082997309,,,,,,sub-143,1,random_dot,118.73805196770482,
left,left,29.0,1.0,14.0,right,0.0,5.364325208007358,,accuracy,space,3.041571584006306,,,,,,0.0,1.0,1.0,0.0,14.0,1.0,29.0,0.0,517.0151940000069,,,,,,,,,517.0068331670191,517.8041452920006,518.5962044580083,518.5880367080099,518.5885224580124,518.5962044580083,518.5962044580083,518.5962044580083,523.5762793330068,523.9632409170154,,,,,,,,,,,,,,,,,,,,,,,,,,,,,,right,0.0,5.364325208007358,,,,,,sub-143,1,random_dot,118.73805196770482,
left,left,30.0,0.0,15.0,left,1.0,4.1255296250164974,,accuracy,space,3.041571584006306,,,,,,0.0,1.0,1.0,0.0,15.0,0.0,30.0,0.0,523.9727758330118,,,,,,,,,523.9639451669937,525.1605132080149,525.9538877920131,525.9443927920074,525.9448684999952,525.9538877920131,525.9538877920131,525.9538877920131,,530.0889839169977,,,,,,,,,,,,,,,,,,,,,,,,,,,,,,left,1.0,4.1255296250164974,,,,,,sub-143,1,random_dot,118.73805196770482,
right,right,31.0,1.0,15.0,right,1.0,4.5911044999957085,,accuracy,space,3.041571584006306,,,,,,0.0,1.0,1.0,0.0,15.0,1.0,31.0,1.0,530.0974659580097,,,,,,,,,530.0894015830127,530.8878086250043,531.6796477080206,531.671639542008,531.6721154169936,531.6796477080206,531.6796477080206,531.6796477080206,,536.2732410000172,,,,,,,,,,,,,,,,,,,,,,,,,,,,,,right,1.0,4.5911044999957085,,,,,,sub-143,1,random_dot,118.73805196770482,
left,left,32.0,0.0,16.0,left,1.0,2.385452375019668,,accuracy,space,3.041571584006306,,,,,,0.0,1.0,1.0,0.0,16.0,0.0,32.0,0.0,536.2818459169939,,,,,,,,,536.2737170420005,537.0713870830077,537.8647342920012,537.855383667018,537.855999249994,537.8647342920012,537.8647342920012,537.8647342920012,,540.2560131250066,,,,,,,,,,,,,,,,,,,,,,,,,,,,,,left,1.0,2.385452375019668,,,,,,sub-143,1,random_dot,118.73805196770482,
right,right,33.0,1.0,16.0,right,1.0,5.48594937499729,,accuracy,space,3.041571584006306,,,,,,0.0,1.0,1.0,0.0,16.0,1.0,33.0,1.0,540.2644458330178,,,,,,,,,540.2564381250122,541.4548328329984,542.2473731670179,542.2389357920038,542.2394673750096,542.2473731670179,542.2473731670179,542.2473731670179,547.2379493330081,547.7401170420053,,,,,,,,,,,,,,,,,,,,,,,,,,,,,,right,1.0,5.48594937499729,,,,,,sub-143,1,random_dot,118.73805196770482,
left,left,34.0,0.0,17.0,left,1.0,12.19116116699297,,accuracy,space,3.041571584006306,,,,,,0.0,1.0,1.0,0.0,17.0,0.0,34.0,0.0,547.748718250019,,,,,,,,,547.7406157920195,548.9381652919983,549.7304849170032,549.7223685420176,549.7229146250174,549.7304849170032,549.7304849170032,549.7304849170032,554.7215340000112,561.9242322079954,,,,,,,,,,,,,,,,,,,,,,,,,,,,,,left,1.0,12.19116116699297,,,,,,sub-143,1,random_dot,118.73805196770482,
right,right,35.0,1.0,17.0,right,1.0,6.374911916005658,,accuracy,space,3.041571584006306,,,,,,0.0,1.0,1.0,0.0,17.0,1.0,35.0,1.0,561.9328062919958,,,,,,,,,561.9247900829941,562.2720909579948,563.0639390000142,563.055935167009,563.0564189580036,563.0639390000142,563.0639390000142,563.0639390000142,568.0439365000057,569.4414059999981,,,,,,,,,,,,,,,,,,,,,,,,,,,,,,right,1.0,6.374911916005658,,,,,,sub-143,1,random_dot,118.73805196770482,
left,left,36.0,0.0,18.0,right,0.0,5.3714948749984615,,accuracy,space,3.041571584006306,,,,,,0.0,1.0,1.0,0.0,18.0,0.0,36.0,0.0,569.4499474170152,,,,,,,,,569.441949583008,569.5388493330101,570.3314208330121,570.3228570420179,570.3234837500204,570.3314208330121,570.3314208330121,570.3314208330121,575.3114182919962,575.7071502080071,,,,,,,,,,,,,,,,,,,,,,,,,,,,,,right,0.0,5.3714948749984615,,,,,,sub-143,1,random_dot,118.73805196770482,
right,right,37.0,1.0,18.0,left,0.0,5.334664083988173,,accuracy,space,3.041571584006306,,,,,,0.0,1.0,1.0,0.0,18.0,1.0,37.0,1.0,575.7157987920218,,,,,,,,,575.7076699580066,575.8054182500055,576.5974836249952,576.589560583001,576.5900200830074,576.5974836249952,576.5974836249952,576.5974836249952,581.5779444999935,581.9408926670149,,,,,,,,,,,,,,,,,,,,,,,,,,,,,,left,0.0,5.334664083988173,,,,,,sub-143,1,random_dot,118.73805196770482,
right,right,38.0,0.0,19.0,left,0.0,7.828774207999231,,accuracy,space,3.041571584006306,,,,,,0.0,1.0,1.0,0.0,19.0,0.0,38.0,1.0,581.9500236670137,,,,,,,,,581.941532124998,582.7392875830119,583.5312323330145,583.5230675420025,583.5235356250196,583.5312323330145,583.5312323330145,583.5312323330145,588.5112840420043,591.3646398750134,,,,,,,,,,,,,,,,,,,,,,,,,,,,,,left,0.0,7.828774207999231,,,,,,sub-143,1,random_dot,118.73805196770482,
left,left,39.0,1.0,19.0,right,0.0,5.426604458014481,,accuracy,space,3.041571584006306,,,,,,0.0,1.0,1.0,0.0,19.0,1.0,39.0,0.0,591.3890970000066,,,,,,,,,591.3650564580166,592.1626728330157,592.9647812079929,592.9566642080026,592.9571415829996,592.9647812079929,592.9647812079929,592.9647812079929,597.955984708009,598.3974670419993,,,,,,,,,,,,,,,,,,,,,,,,,,,,,,right,0.0,5.426604458014481,,,,,,sub-143,1,random_dot,118.73805196770482,
left,left,40.0,0.0,20.0,left,1.0,3.3582994579919614,,accuracy,space,3.041571584006306,,,,,,0.0,1.0,1.0,0.0,20.0,0.0,40.0,0.0,598.4054763750173,,,,,,,,,598.3978968750162,599.5964953750081,600.3991599169967,600.3905587079935,600.3911745420191,600.3991599169967,600.3991599169967,600.3991599169967,,603.7644329169998,,,,,,,,,,,,,,,,,,,,,,,,,,,,,,left,1.0,3.3582994579919614,,,,,,sub-143,1,random_dot,118.73805196770482,
right,right,41.0,1.0,20.0,right,1.0,2.652806583006168,,accuracy,space,3.041571584006306,,,,,,0.0,1.0,1.0,0.0,20.0,1.0,41.0,1.0,603.7724263330165,,,,,,,,,603.7648331670207,604.5630479170068,605.3559949170158,605.3469687920006,605.3474624580122,605.3559949170158,605.3559949170158,605.3559949170158,,608.014820750017,,,,,,,,,,,,,,,,,,,,,,,,,,,,,,right,1.0,2.652806583006168,,,,,,sub-143,1,random_dot,118.73805196770482,
right,right,42.0,0.0,21.0,left,0.0,5.784729750012048,,accuracy,space,3.041571584006306,,,,,,0.0,1.0,1.0,0.0,21.0,0.0,42.0,1.0,608.023273208004,,,,,,,,,608.015217542008,608.8133510420157,609.6059620830056,609.5967060000112,609.5971929999941,609.6059620830056,609.6059620830056,609.6059620830056,614.5901097920141,615.3935565419961,,,,,,,,,,,,,,,,,,,,,,,,,,,,,,left,0.0,5.784729750012048,,,,,,sub-143,1,random_dot,118.73805196770482,
left,left,43.0,1.0,21.0,right,0.0,5.375115541013656,,accuracy,space,3.041571584006306,,,,,,0.0,1.0,1.0,0.0,21.0,1.0,43.0,0.0,615.4021942499967,,,,,,,,,615.3941119170049,616.19011520801,616.9821590830106,616.9739819999959,616.9744741250179,616.9821590830106,616.9821590830106,616.9821590830106,621.962204875017,622.3598286250199,,,,,,,,,,,,,,,,,,,,,,,,,,,,,,right,0.0,5.375115541013656,,,,,,sub-143,1,random_dot,118.73805196770482,
right,right,44.0,0.0,22.0,left,0.0,3.3748189579928294,,accuracy,space,3.041571584006306,,,,,,0.0,1.0,1.0,0.0,22.0,0.0,44.0,1.0,622.3679174580029,,,,,,,,,622.3602552920056,623.1569955000014,623.9500929170172,623.9410820420017,623.9416905420076,623.9500929170172,623.9500929170172,623.9500929170172,,627.332162250008,,,,,,,,,,,,,,,,,,,,,,,,,,,,,,left,0.0,3.3748189579928294,,,,,,sub-143,1,random_dot,118.73805196770482,
left,left,45.0,1.0,22.0,left,1.0,3.734356834000209,,accuracy,space,3.041571584006306,,,,,,0.0,1.0,1.0,0.0,22.0,1.0,45.0,0.0,627.3403823330009,,,,,,,,,627.3325814169948,628.130885999999,628.9326417499979,628.9244909170084,628.9249841670098,628.9326417499979,628.9326417499979,628.9326417499979,,632.6753524579981,,,,,,,,,,,,,,,,,,,,,,,,,,,,,,left,1.0,3.734356834000209,,,,,,sub-143,1,random_dot,118.73805196770482,
left,left,46.0,0.0,23.0,right,0.0,3.088098500011256,,accuracy,space,3.041571584006306,,,,,,0.0,1.0,1.0,0.0,23.0,0.0,46.0,0.0,632.6839912919968,,,,,,,,,632.6757676670095,632.7739595000166,633.5661608749942,633.557912542019,633.5584782499936,633.5661608749942,633.5661608749942,633.5661608749942,,636.6584289169987,,,,,,,,,,,,,,,,,,,,,,,,,,,,,,right,0.0,3.088098500011256,,,,,,sub-143,1,random_dot,118.73805196770482,
right,right,47.0,1.0,23.0,left,0.0,4.792008791002445,,accuracy,space,3.041571584006306,,,,,,0.0,1.0,1.0,0.0,23.0,1.0,47.0,1.0,636.6666179580207,,,,,,,,,636.6588409579999,637.8573865420185,638.6495070829988,638.6413316249964,638.6418586670188,638.6495070829988,638.6495070829988,638.6495070829988,,643.4493970829935,,,,,,,,,,,,,,,,,,,,,,,,,,,,,,left,0.0,4.792008791002445,,,,,,sub-143,1,random_dot,118.73805196770482,
left,left,48.0,0.0,24.0,left,1.0,3.378527416003635,,accuracy,space,3.041571584006306,,,,,,0.0,1.0,1.0,0.0,24.0,0.0,48.0,0.0,643.4577723749971,,,,,,,,,643.4497871250205,643.7973163750139,644.6004518750124,644.5917874580191,644.5923990420124,644.6004518750124,644.6004518750124,644.6004518750124,,647.9825297920033,,,,,,,,,,,,,,,,,,,,,,,,,,,,,,left,1.0,3.378527416003635,,,,,,sub-143,1,random_dot,118.73805196770482,
right,right,49.0,1.0,24.0,right,1.0,3.576717792020645,,accuracy,space,3.041571584006306,,,,,,0.0,1.0,1.0,0.0,24.0,1.0,49.0,1.0,647.9905408750055,,,,,,,,,647.9829265419976,648.7811339170148,649.582847542013,649.5748467500089,649.5753039580013,649.582847542013,649.582847542013,649.582847542013,,653.1657713750028,,,,,,,,,,,,,,,,,,,,,,,,,,,,,,right,1.0,3.576717792020645,,,,,,sub-143,1,random_dot,118.73805196770482,
left,left,50.0,0.0,25.0,left,1.0,2.827163832989754,,accuracy,space,3.041571584006306,,,,,,0.0,1.0,1.0,0.0,25.0,0.0,50.0,0.0,653.1739859170048,,,,,,,,,653.1661886670045,653.5140110829961,654.3166322500037,654.3084820829972,654.3089495830063,654.3166322500037,654.3166322500037,654.3166322500037,,657.1494951670174,,,,,,,,,,,,,,,,,,,,,,,,,,,,,,left,1.0,2.827163832989754,,,,,,sub-143,1,random_dot,118.73805196770482,
right,right,51.0,1.0,25.0,right,1.0,2.392074749979656,,accuracy,space,3.041571584006306,,,,,,0.0,1.0,1.0,0.0,25.0,1.0,51.0,1.0,657.1574996669951,,,,,,,,,657.1498900000006,657.2476567919948,658.0498412080051,658.0417992080038,658.0422682500212,658.0498412080051,658.0498412080051,658.0498412080051,,660.4491285830154,,,,,,,,,,,,,,,,,,,,,,,,,,,,,,right,1.0,2.392074749979656,,,,,,sub-143,1,random_dot,118.73805196770482,
right,right,52.0,0.0,26.0,left,0.0,8.161946832988178,,accuracy,space,3.041571584006306,,,,,,0.0,1.0,1.0,0.0,26.0,0.0,52.0,1.0,660.4573942080024,,,,,,,,,660.4495421670144,660.7975336670061,661.5907311670016,661.5804479579965,661.5809292500198,661.5907311670016,661.5907311670016,661.5907311670016,666.5746564170113,669.7596475000028,,,,,,,,,,,,,,,,,,,,,,,,,,,,,,left,0.0,8.161946832988178,,,,,,sub-143,1,random_dot,118.73805196770482,
left,left,53.0,1.0,26.0,right,0.0,4.796134000003804,,accuracy,space,3.041571584006306,,,,,,0.0,1.0,1.0,0.0,26.0,1.0,53.0,0.0,669.7677226670203,,,,,,,,,669.7600887920125,669.8581641670025,670.6503597919946,670.6422382919991,670.6427090420038,670.6503597919946,670.6503597919946,670.6503597919946,,675.4499226250045,,,,,,,,,,,,,,,,,,,,,,,,,,,,,,right,0.0,4.796134000003804,,,,,,sub-143,1,random_dot,118.73805196770482,
right,right,54.0,0.0,27.0,right,1.0,3.02003529202193,,accuracy,space,3.041571584006306,,,,,,0.0,1.0,1.0,0.0,27.0,0.0,54.0,1.0,675.4580254169996,,,,,,,,,675.4503175830177,675.7976194999937,676.5911133750051,676.5813127500005,676.5817974170204,676.5911133750051,676.5911133750051,676.5911133750051,,679.6164053750108,,,,,,,,,,,,,,,,,,,,,,,,,,,,,,right,1.0,3.02003529202193,,,,,,sub-143,1,random_dot,118.73805196770482,
left,left,55.0,1.0,27.0,right,0.0,5.184098291996634,,accuracy,space,3.041571584006306,,,,,,0.0,1.0,1.0,0.0,27.0,1.0,55.0,0.0,679.6243982080196,,,,,,,,,679.6168064170051,680.8140622079954,681.6079770420038,681.5985927919974,681.5991621249996,681.6079770420038,681.6079770420038,681.6079770420038,686.5919728750014,686.7949427920103,,,,,,,,,,,,,,,,,,,,,,,,,,,,,,right,0.0,5.184098291996634,,,,,,sub-143,1,random_dot,118.73805196770482,
right,right,56.0,0.0,28.0,left,0.0,4.989060249994509,,accuracy,space,3.041571584006306,,,,,,0.0,1.0,1.0,0.0,28.0,0.0,56.0,1.0,686.804057625006,,,,,,,,,686.7954969170096,687.9918918750191,688.7840699170192,688.7759783329966,688.7764916250017,688.7840699170192,688.7840699170192,688.7840699170192,693.7752158330113,693.7768757500162,,,,,,,,,,,,,,,,,,,,,,,,,,,,,,left,0.0,4.989060249994509,,,,,,sub-143,1,random_dot,118.73805196770482,
left,left,57.0,1.0,28.0,left,1.0,4.94152595900232,,accuracy,space,3.041571584006306,,,,,,0.0,1.0,1.0,0.0,28.0,1.0,57.0,0.0,693.785172917007,,,,,,,,,693.777290041995,694.1255417079956,694.9175002080156,694.9094965000113,694.9099554170098,694.9175002080156,694.9175002080156,694.9175002080156,,699.8678822920192,,,,,,,,,,,,,,,,,,,,,,,,,,,,,,left,1.0,4.94152595900232,,,,,,sub-143,1,random_dot,118.73805196770482,
left,left,58.0,0.0,29.0,left,1.0,5.984407082985854,,accuracy,space,3.041571584006306,,,,,,0.0,1.0,1.0,0.0,29.0,0.0,58.0,0.0,699.8759912920068,,,,,,,,,699.8682747080165,701.0654309170204,701.8585118750052,701.8492395000067,701.8497098750086,701.8585118750052,701.8585118750052,701.8585118750052,706.842388250021,707.8514330830076,,,,,,,,,,,,,,,,,,,,,,,,,,,,,,left,1.0,5.984407082985854,,,,,,sub-143,1,random_dot,118.73805196770482,
right,right,59.0,1.0,29.0,right,1.0,2.903610707988264,,accuracy,space,3.041571584006306,,,,,,0.0,1.0,1.0,0.0,29.0,1.0,59.0,1.0,707.8594162079971,,,,,,,,,707.8518501250073,708.6484806670051,709.4419703330204,709.4317395830003,709.4322498330148,709.4419703330204,709.4419703330204,709.4419703330204,,712.3510809580039,,,,,,,,,,,,,,,,,,,,,,,,,,,,,,right,1.0,2.903610707988264,,,,,,sub-143,1,random_dot,118.73805196770482,
,,1.0,1.0,0.0,,,,,accuracy,space,3.041571584006306,,,,,,0.0,1.0,1.0,0.0,,,,,,,,,,,,,,,,,,,,,,,,,,,,,,,,,,,,,,,,,,,,,,,,,,,,,,,,,,,,,sub-143,1,random_dot,118.73805196770482,
,,,,,,,,,,,,,,,,,,,,,,,,,,,,,,,,,,,,,,,,,,,,,,,,,,,,,,,,,,,,,,,,,,,,,,,,,,,,,712.3573047080135,712.3659108749998,717.3594860830053,717.3504502919968,sub-143,1,random_dot,118.73805196770482,
