direction,corrAns,thisN,thisTrialN,thisRepN,respDots.keys,respDots.corr,respDots.rt,respDots.duration,randomInstr,respRandomInstr.keys,respRandomInstr.rt,respRandomInstr.duration,practice_trials.thisRepN,practice_trials.thisTrialN,practice_trials.thisN,practice_trials.thisIndex,instr_trials.thisRepN,instr_trials.thisTrialN,instr_trials.thisN,instr_trials.thisIndex,test_trials.thisRepN,test_trials.thisTrialN,test_trials.thisN,test_trials.thisIndex,thisRow.t,notes,general_instruction.started,textGeneralInstr.started,respGeneralInstr.started,general_instruction.stopped,respGeneralInstr.keys,respGeneralInstr.rt,respGeneralInstr.duration,ITI.started,fixcross.started,fixcross.stopped,ITI.stopped,dots.started,backgroundDots.started,stimulusDots.started,respDots.started,dots.stopped,practice_trials.respDots.keys,practice_trials.respDots.corr,practice_trials.respDots.rt,practice_trials.respDots.duration,feedback.started,textFeedback.started,feedback.stopped,stimulusDots.stopped,textFeedback.stopped,info.started,textInfo.started,keyRespInfo.started,info.stopped,keyRespInfo.keys,keyRespInfo.rt,keyRespInfo.duration,test_instruction.started,textTestInstr.started,respTestInstr.started,test_instruction.stopped,respTestInstr.keys,respTestInstr.rt,respTestInstr.duration,random_instruction.started,textRandomInstr.started,respRandomInstr.started,random_instruction.stopped,instr_trials.respRandomInstr.keys,instr_trials.respRandomInstr.rt,instr_trials.respRandomInstr.duration,test_trials.respDots.keys,test_trials.respDots.corr,test_trials.respDots.rt,test_trials.respDots.duration,goodbye.started,textGoodbye.started,textGoodbye.stopped,goodbye.stopped,participant,session,expName,frameRate,Unnamed: 88
,,,,,,,,,,,,,,,,,,,,,,,,,,,0.0092005420010536,0.0220151669927872,0.0220151669927872,2.2530227079987526,space,2.0764688749914058,,,,,,,,,,,,,,,,,,,,,,,,,,,,,,,,,,,,,,,,,,,,,,,,,sub-023,1,random_dot,121.32492841877117,
left,left,0.0,0.0,0.0,right,0.0,4.628003874968272,,,,,,0.0,0.0,0.0,0.0,,,,,,,,,2.2871577920159325,,,,,,,,,2.2743918750202283,3.454346625017933,4.253836082993075,4.239530583028682,4.240118917019572,4.253836082993075,4.253836082993075,4.253836082993075,8.884606792009436,right,0.0,4.628003874968272,,8.8917345420341,9.013464041985571,9.389656957995612,,,,,,,,,,,,,,,,,,,,,,,,,,,,,,,,sub-023,1,random_dot,121.32492841877117,
right,right,1.0,1.0,0.0,left,0.0,5.710121500014793,,,,,,0.0,1.0,1.0,1.0,,,,,,,,,9.400514582986943,,,,,,,,,9.390230750024784,9.4741090000025,10.276697875000536,10.267479458008893,10.268021667026916,10.276697875000536,10.276697875000536,10.276697875000536,15.991685374989174,left,0.0,5.710121500014793,,15.991873708029743,16.004219333000947,16.490695292013697,15.256183166988194,16.500710542022716,,,,,,,,,,,,,,,,,,,,,,,,,,,,,,sub-023,1,random_dot,121.32492841877117,
right,right,2.0,0.0,1.0,right,1.0,1.3866940840380266,,,,,,1.0,0.0,2.0,1.0,,,,,,,,,16.500710542022716,,,,,,,,,16.49115445802454,17.690852708008606,18.493153457995504,18.4844693330233,18.485094667004887,18.493153457995504,18.493153457995504,18.493153457995504,19.885201167024206,right,1.0,1.3866940840380266,,19.890393082983792,19.89758658298524,20.38441379199503,,20.39023645798443,,,,,,,,,,,,,,,,,,,,,,,,,,,,,,sub-023,1,random_dot,121.32492841877117,
left,left,3.0,1.0,1.0,left,1.0,1.9583253329619763,,,,,,1.0,1.0,3.0,0.0,,,,,,,,,20.39023645798443,,,,,,,,,20.384911832981743,21.17456066701561,21.96744508302072,21.9573739169864,21.957950917014387,21.96744508302072,21.96744508302072,21.96744508302072,23.93496520799817,left,1.0,1.9583253329619763,,23.935087624995504,23.94301774998894,24.434833500010427,,24.44047816703096,,,,,,,,,,,,,,,,,,,,,,,,,,,,,,sub-023,1,random_dot,121.32492841877117,
left,left,4.0,0.0,2.0,right,0.0,2.685267209017184,,,,,,2.0,0.0,4.0,0.0,,,,,,,,,24.44047816703096,,,,,,,,,24.43536620802479,25.625656499993056,26.4269561250112,26.41830695798853,26.419003541988783,26.4269561250112,26.4269561250112,26.4269561250112,29.118506583035924,right,0.0,2.685267209017184,,29.120965750014875,29.127824958006386,29.61828824999975,,29.623751832987185,,,,,,,,,,,,,,,,,,,,,,,,,,,,,,sub-023,1,random_dot,121.32492841877117,
right,right,5.0,1.0,2.0,left,0.0,2.16161504102638,,,,,,2.0,1.0,5.0,1.0,,,,,,,,,29.623751832987185,,,,,,,,,29.618779000011276,29.95819133298937,30.75074383302126,30.741263833013363,30.74184495798545,30.75074383302126,30.75074383302126,30.75074383302126,32.91801145800855,left,0.0,2.16161504102638,,32.91807958303252,32.92457233299501,33.407707042002585,,33.41811129200505,,,,,,,,,,,,,,,,,,,,,,,,,,,,,,sub-023,1,random_dot,121.32492841877117,
right,right,6.0,0.0,3.0,left,0.0,1.644928166992031,,,,,,3.0,0.0,6.0,1.0,,,,,,,,,33.41811129200505,,,,,,,,,33.40818629198475,33.75920791702811,34.560641666990705,34.5520284579834,34.552718791994266,34.560641666990705,34.560641666990705,34.560641666990705,36.209155125019606,left,0.0,1.644928166992031,,36.209302917006426,36.21773712499999,36.7020386250224,,36.7081611250178,,,,,,,,,,,,,,,,,,,,,,,,,,,,,,sub-023,1,random_dot,121.32492841877117,
left,left,7.0,1.0,3.0,right,0.0,1.7212732919724658,,,,,,3.0,1.0,7.0,0.0,,,,,,,,,36.7081611250178,,,,,,,,,36.702611916989554,36.806696249987,37.601217332994565,37.5914878330077,37.592119749984704,37.601217332994565,37.601217332994565,37.601217332994565,39.32592408300843,right,0.0,1.7212732919724658,,39.32605808298104,39.33444512501592,39.81886450003367,,39.82516912498977,,,,,,,,,,,,,,,,,,,,,,,,,,,,,,sub-023,1,random_dot,121.32492841877117,
left,left,8.0,0.0,4.0,right,0.0,1.5657614580122754,,,,,,4.0,0.0,8.0,0.0,,,,,,,,,39.82516912498977,,,,,,,,,39.8195100830053,41.02549020800507,41.81786829198245,41.808496750018094,41.80907883303007,41.81786829198245,41.81786829198245,41.81786829198245,43.386252249998506,right,0.0,1.5657614580122754,,43.38639654201688,43.39219112502178,43.875447375001386,,43.88534650002839,,,,,,,,,,,,,,,,,,,,,,,,,,,,,,sub-023,1,random_dot,121.32492841877117,
right,right,9.0,1.0,4.0,left,0.0,2.6593753329943866,,,,,,4.0,1.0,9.0,1.0,,,,,,,,,43.88534650002839,,,,,,,,,43.87594937498216,45.07615641702432,45.87733658298384,45.869083416997455,45.869689624989405,45.87733658298384,45.87733658298384,45.87733658298384,48.54328116698889,left,0.0,2.6593753329943866,,48.54341320798267,48.55145029199775,49.0358230000129,,49.04163125000196,,,,,,,,,,,,,,,,,,,,,,,,,,,,,,sub-023,1,random_dot,121.32492841877117,
right,right,10.0,0.0,5.0,left,0.0,3.0510746670188382,,,,,,5.0,0.0,10.0,1.0,,,,,,,,,49.04163125000196,,,,,,,,,49.03632804198424,49.392238957982045,50.184566124982666,50.17591733299196,50.17657554202015,50.184566124982666,50.184566124982666,50.184566124982666,53.24341262498638,left,0.0,3.0510746670188382,,53.243478875025176,53.25170075002825,53.7360444579972,,53.74138299998594,,,,,,,,,,,,,,,,,,,,,,,,,,,,,,sub-023,1,random_dot,121.32492841877117,
left,left,11.0,1.0,5.0,right,0.0,1.1516895410022698,,,,,,5.0,1.0,11.0,0.0,,,,,,,,,53.74138299998594,,,,,,,,,53.73651941702701,54.091237624990754,54.88516129198251,54.87495583301643,54.875581875036005,54.88516129198251,54.88516129198251,54.88516129198251,56.04329395800596,right,0.0,1.1516895410022698,,56.04343083302956,56.05176854203455,56.5360362920328,,56.54190675000427,,,,,,,,,,,,,,,,,,,,,,,,,,,,,,sub-023,1,random_dot,121.32492841877117,
right,right,12.0,0.0,6.0,right,1.0,1.406036000000313,,,,,,6.0,0.0,12.0,1.0,,,,,,,,,56.54190675000427,,,,,,,,,56.536585916997865,57.34303570800694,58.14576179202413,58.1364520000061,58.13720925000962,58.14576179202413,58.14576179202413,58.14576179202413,59.55370779201621,right,1.0,1.406036000000313,,59.55668587499531,59.56334954203339,60.0529772079899,,60.05879837501561,,,,,,,,,,,,,,,,,,,,,,,,,,,,,,sub-023,1,random_dot,121.32492841877117,
left,left,13.0,1.0,6.0,left,1.0,3.89761758298846,,,,,,6.0,1.0,13.0,0.0,,,,,,,,,60.05879837501561,,,,,,,,,60.05348162498558,60.84328100003768,61.64516429201467,61.63638662500307,61.63701562501956,61.64516429201467,61.64516429201467,61.64516429201467,65.55386579199694,left,1.0,3.89761758298846,,65.55400891700992,65.56223366700578,66.05324245803058,,66.05934820801485,,,,,,,,,,,,,,,,,,,,,,,,,,,,,,sub-023,1,random_dot,121.32492841877117,
right,right,14.0,0.0,7.0,right,1.0,5.290390791953541,,,,,,7.0,0.0,14.0,1.0,,,,,,,,,66.05934820801485,,,,,,,,,66.05378800001927,67.24366320803529,68.03498520801077,68.02640741702635,68.02704458299559,68.03498520801077,68.03498520801077,68.03498520801077,73.32744800002547,right,1.0,5.290390791953541,,73.32763054198585,73.33619254198857,73.82003387500299,73.0198107920005,73.82592558301985,,,,,,,,,,,,,,,,,,,,,,,,,,,,,,sub-023,1,random_dot,121.32492841877117,
left,left,15.0,1.0,7.0,left,1.0,3.465566291997675,,,,,,7.0,1.0,15.0,0.0,,,,,,,,,73.82592558301985,,,,,,,,,73.8206936250208,74.17631041700952,74.96940425003413,74.95914120803354,74.9597614579834,74.96940425003413,74.96940425003413,74.96940425003413,78.43779904203257,left,1.0,3.465566291997675,,78.43794416700257,78.44641075003892,78.93708804203197,,78.94292179198237,,,,,,,,,,,,,,,,,,,,,,,,,,,,,,sub-023,1,random_dot,121.32492841877117,
right,right,16.0,0.0,8.0,right,1.0,2.869491166959051,,,,,,8.0,0.0,16.0,1.0,,,,,,,,,78.94292179198237,,,,,,,,,78.93759808299365,79.02679700002773,79.82892104203347,79.82033183303429,79.82094616699032,79.82892104203347,79.82892104203347,79.82892104203347,82.70457233302295,right,1.0,2.869491166959051,,82.7047182500246,82.71210183302173,83.20407820801483,,83.20975237502716,,,,,,,,,,,,,,,,,,,,,,,,,,,,,,sub-023,1,random_dot,121.32492841877117,
left,left,17.0,1.0,8.0,right,0.0,3.1383397910394706,,,,,,8.0,1.0,17.0,0.0,,,,,,,,,83.20975237502716,,,,,,,,,83.2045087920269,84.39425954199396,85.19580879202113,85.18737054202938,85.18796270800522,85.19580879202113,85.19580879202113,85.19580879202113,88.33764241699828,right,0.0,3.1383397910394706,,88.3405465830001,88.34757162502501,88.837313792028,,88.84376516699558,,,,,,,,,,,,,,,,,,,,,,,,,,,,,,sub-023,1,random_dot,121.32492841877117,
right,right,18.0,0.0,9.0,right,1.0,3.713437416998204,,,,,,9.0,0.0,18.0,1.0,,,,,,,,,88.84376516699558,,,,,,,,,88.83798954199301,90.02708829200128,90.81986516702456,90.8097130000242,90.81030374998228,90.81986516702456,90.81986516702456,90.81986516702456,94.538168625033,right,1.0,3.713437416998204,,94.54269725002814,94.55127304198686,95.03755262499908,,95.04335724998964,,,,,,,,,,,,,,,,,,,,,,,,,,,,,,sub-023,1,random_dot,121.32492841877117,
left,left,19.0,1.0,9.0,right,0.0,4.511913708993234,,,,,,9.0,1.0,19.0,0.0,,,,,,,,,95.04335724998964,,,,,,,,,95.03802545799408,95.12806979200104,95.92930795799477,95.92109562503174,95.92168775002938,95.92930795799477,95.92930795799477,95.92930795799477,100.44553995801834,right,0.0,4.511913708993234,,100.44843420799587,100.45579337503295,100.943145792,,100.9537199580227,,,,,,,,,,,,,,,,,,,,,,,,,,,,,,sub-023,1,random_dot,121.32492841877117,
,,,,,,,,,,,,,,,,,,,,,,,,,,,,,,,,,,,,,,,,,,,,,,,,,,,,100.94334491703194,100.9537199580227,100.9537199580227,105.9953109580092,space,5.03701395803364,,,,,,,,,,,,,,,,,,,,,,,,sub-023,1,random_dot,121.32492841877117,
,,,,,,,,,,,,,,,,,,,,,,,,,,,,,,,,,,,,,,,,,,,,,,,,,,,,,,,,,,,105.99542258301516,106.00949620798929,106.00949620798929,107.3725440420094,space,1.3562514170189388,,,,,,,,,,,,,,,,,sub-023,1,random_dot,121.32492841877117,
right,right,0.0,0.0,0.0,right,1.0,1.0777937499806285,,speed,space,0.7727928750100546,,,,,,0.0,0.0,0.0,1.0,0.0,0.0,0.0,1.0,108.20791008300148,,,,,,,,,108.19867458299268,108.98775108298288,109.77992462500696,109.77127608301817,109.77182120800715,109.77992462500696,109.77992462500696,109.77992462500696,110.86050399998204,,,,,,,,,,,,,,,,,,,,,,,,107.39531720802188,107.4040490000043,107.4040490000043,108.1895329169929,space,0.7727928750100546,,right,1.0,1.0777937499806285,,,,,,sub-023,1,random_dot,121.32492841877117,
left,left,1.0,1.0,0.0,right,0.0,1.6480566670070402,,speed,space,0.7727928750100546,,,,,,0.0,0.0,0.0,1.0,0.0,1.0,1.0,0.0,110.8706721669878,,,,,,,,,110.86094350001076,112.05469820799772,112.84692966699367,112.83829970803345,112.83889633300714,112.84692966699367,112.84692966699367,112.84692966699367,114.50580141699174,,,,,,,,,,,,,,,,,,,,,,,,,,,,,,,right,0.0,1.6480566670070402,,,,,,sub-023,1,random_dot,121.32492841877117,
left,left,2.0,0.0,1.0,right,0.0,1.5222563340212218,,speed,space,0.7727928750100546,,,,,,0.0,0.0,0.0,1.0,1.0,0.0,2.0,0.0,114.51291112502804,,,,,,,,,114.50630083301805,115.30559995799558,116.09665587503696,116.08848999999464,116.08901362499456,116.09665587503696,116.09665587503696,116.09665587503696,117.6224093750352,,,,,,,,,,,,,,,,,,,,,,,,,,,,,,,right,0.0,1.5222563340212218,,,,,,sub-023,1,random_dot,121.32492841877117,
right,right,3.0,1.0,1.0,left,0.0,1.5484220830257982,,speed,space,0.7727928750100546,,,,,,0.0,0.0,0.0,1.0,1.0,1.0,3.0,1.0,117.6313360420172,,,,,,,,,117.62294291699072,117.9624690419878,118.76353024999844,118.7550886250101,118.75569741701474,118.76353024999844,118.76353024999844,118.76353024999844,120.32285300001968,,,,,,,,,,,,,,,,,,,,,,,,,,,,,,,left,0.0,1.5484220830257982,,,,,,sub-023,1,random_dot,121.32492841877117,
left,left,4.0,0.0,2.0,left,1.0,3.3217547920066863,,speed,space,0.7727928750100546,,,,,,0.0,0.0,0.0,1.0,2.0,0.0,4.0,0.0,120.33006574999308,,,,,,,,,120.3233720830176,121.5215141249937,122.31330275000072,122.30544920801184,122.30597791698528,122.31330275000072,122.31330275000072,122.31330275000072,125.63935487502022,,,,,,,,,,,,,,,,,,,,,,,,,,,,,,,left,1.0,3.3217547920066863,,,,,,sub-023,1,random_dot,121.32492841877117,
right,right,5.0,1.0,2.0,right,1.0,2.593740417039953,,speed,space,0.7727928750100546,,,,,,0.0,0.0,0.0,1.0,2.0,1.0,5.0,1.0,125.64775504200952,,,,,,,,,125.6398562079994,125.97930354200072,126.7803082499886,126.772320958029,126.77288187498924,126.7803082499886,126.7803082499886,126.7803082499886,129.3779265420162,,,,,,,,,,,,,,,,,,,,,,,,,,,,,,,right,1.0,2.593740417039953,,,,,,sub-023,1,random_dot,121.32492841877117,
right,right,6.0,0.0,3.0,left,0.0,3.2292062080232427,,speed,space,0.7727928750100546,,,,,,0.0,0.0,0.0,1.0,3.0,0.0,6.0,1.0,129.38811137498124,,,,,,,,,129.37839125003666,129.7221880420111,130.51439487503376,130.50576249998994,130.5063783749938,130.51439487503376,130.51439487503376,130.51439487503376,133.74711420800304,,,,,,,,,,,,,,,,,,,,,,,,,,,,,,,left,0.0,3.2292062080232427,,,,,,sub-023,1,random_dot,121.32492841877117,
left,left,7.0,1.0,3.0,right,0.0,4.31286204099888,,speed,space,0.7727928750100546,,,,,,0.0,0.0,0.0,1.0,3.0,1.0,7.0,0.0,133.7546818330302,,,,,,,,,133.74756695801625,133.8461575420224,134.64808133302722,134.6396562079899,134.6402431250317,134.64808133302722,134.64808133302722,134.64808133302722,138.96350862499094,,,,,,,,,,,,,,,,,,,,,,,,,,,,,,,right,0.0,4.31286204099888,,,,,,sub-023,1,random_dot,121.32492841877117,
right,right,8.0,0.0,4.0,right,1.0,4.8502132089925,,speed,space,0.7727928750100546,,,,,,0.0,0.0,0.0,1.0,4.0,0.0,8.0,1.0,138.97201650001807,,,,,,,,,138.96400983299827,139.7628856250085,140.56488058302784,140.55613487499068,140.55675487499684,140.56488058302784,140.56488058302784,140.56488058302784,145.42262900003698,,,,,,,,,,,,,,,,,,,,,,,,,,,,,,,right,1.0,4.8502132089925,,,,,,sub-023,1,random_dot,121.32492841877117,
left,left,9.0,1.0,4.0,right,0.0,2.3197395829483867,,speed,space,0.7727928750100546,,,,,,0.0,0.0,0.0,1.0,4.0,1.0,9.0,0.0,145.4293702080031,,,,,,,,,145.4231211669976,146.21406933298567,147.0154015829903,147.00657854200108,147.00727195799118,147.0154015829903,147.0154015829903,147.0154015829903,149.3402635829989,,,,,,,,,,,,,,,,,,,,,,,,,,,,,,,right,0.0,2.3197395829483867,,,,,,sub-023,1,random_dot,121.32492841877117,
right,right,10.0,0.0,5.0,left,0.0,1.9710382919874971,,speed,space,0.7727928750100546,,,,,,0.0,0.0,0.0,1.0,5.0,0.0,10.0,1.0,149.3481909169932,,,,,,,,,149.3407784170122,149.6794816670008,150.47225991700543,150.46220200002426,150.4627800420276,150.47225991700543,150.47225991700543,150.47225991700543,152.44813970802352,,,,,,,,,,,,,,,,,,,,,,,,,,,,,,,left,0.0,1.9710382919874971,,,,,,sub-023,1,random_dot,121.32492841877117,
left,left,11.0,1.0,5.0,left,1.0,4.676637790980749,,speed,space,0.7727928750100546,,,,,,0.0,0.0,0.0,1.0,5.0,1.0,11.0,0.0,152.4555715000024,,,,,,,,,152.44861408299766,153.246321832994,154.03907350002555,154.0292806670186,154.02985450002598,154.03907350002555,154.03907350002555,154.03907350002555,158.72411941702012,,,,,,,,,,,,,,,,,,,,,,,,,,,,,,,left,1.0,4.676637790980749,,,,,,sub-023,1,random_dot,121.32492841877117,
right,right,12.0,0.0,6.0,right,1.0,3.4290971659938805,,speed,space,0.7727928750100546,,,,,,0.0,0.0,0.0,1.0,6.0,0.0,12.0,1.0,158.7327183749876,,,,,,,,,158.72463175002486,158.81309212499764,159.60598020802718,159.59647033299552,159.59702874999493,159.60598020802718,159.60598020802718,159.60598020802718,163.04096370801562,,,,,,,,,,,,,,,,,,,,,,,,,,,,,,,right,1.0,3.4290971659938805,,,,,,sub-023,1,random_dot,121.32492841877117,
left,left,13.0,1.0,6.0,left,1.0,1.301048083987553,,speed,space,0.7727928750100546,,,,,,0.0,0.0,0.0,1.0,6.0,1.0,13.0,0.0,163.04957087500952,,,,,,,,,163.04150983301224,163.38024858303834,164.1822177080321,164.17372737498954,164.17433733301004,164.1822177080321,164.1822177080321,164.1822177080321,165.4912997080246,,,,,,,,,,,,,,,,,,,,,,,,,,,,,,,left,1.0,1.301048083987553,,,,,,sub-023,1,random_dot,121.32492841877117,
right,right,14.0,0.0,7.0,right,1.0,4.275133666000329,,speed,space,0.7727928750100546,,,,,,0.0,0.0,0.0,1.0,7.0,0.0,14.0,1.0,165.49875470803818,,,,,,,,,165.4918431250262,166.68131374998484,167.48267862503417,167.4740229580202,167.4746898750309,167.48267862503417,167.48267862503417,167.48267862503417,171.76293000002624,,,,,,,,,,,,,,,,,,,,,,,,,,,,,,,right,1.0,4.275133666000329,,,,,,sub-023,1,random_dot,121.32492841877117,
left,left,15.0,1.0,7.0,right,0.0,2.2131653749966063,,speed,space,0.7727928750100546,,,,,,0.0,0.0,0.0,1.0,7.0,1.0,15.0,0.0,171.77308983303374,,,,,,,,,171.76341862499248,172.55725845799316,173.3487532500294,173.3407502080081,173.34127849998185,173.3487532500294,173.3487532500294,173.3487532500294,175.56525291700382,,,,,,,,,,,,,,,,,,,,,,,,,,,,,,,right,0.0,2.2131653749966063,,,,,,sub-023,1,random_dot,121.32492841877117,
right,right,16.0,0.0,8.0,left,0.0,5.546076917031314,,speed,space,0.7727928750100546,,,,,,0.0,0.0,0.0,1.0,8.0,0.0,16.0,1.0,175.57351033302257,,,,,,,,,175.56571758299833,176.36446837498806,177.16569850000087,177.15766312502092,177.158257083036,177.16569850000087,177.16569850000087,177.16569850000087,182.71576758299489,,,,,,,,182.14601733302695,,,,,,,,,,,,,,,,,,,,,,,left,0.0,5.546076917031314,,,,,,sub-023,1,random_dot,121.32492841877117,
left,left,17.0,1.0,8.0,left,1.0,5.053860249987338,,speed,space,0.7727928750100546,,,,,,0.0,0.0,0.0,1.0,8.0,1.0,17.0,0.0,182.7406223330181,,,,,,,,,182.71639095799765,183.5143830830348,184.30707070801876,184.2972370000207,184.297820332984,184.30707070801876,184.30707070801876,184.30707070801876,189.3657246250077,,,,,,,,189.290921583015,,,,,,,,,,,,,,,,,,,,,,,left,1.0,5.053860249987338,,,,,,sub-023,1,random_dot,121.32492841877117,
left,left,18.0,0.0,9.0,left,1.0,4.07060170796467,,speed,space,0.7727928750100546,,,,,,0.0,0.0,0.0,1.0,9.0,0.0,18.0,0.0,189.39078670798332,,,,,,,,,189.3663811670267,190.16469837498155,190.95710900000995,190.9483170000021,190.94879466702696,190.95710900000995,190.95710900000995,190.95710900000995,195.0315259580384,,,,,,,,,,,,,,,,,,,,,,,,,,,,,,,left,1.0,4.07060170796467,,,,,,sub-023,1,random_dot,121.32492841877117,
right,right,19.0,1.0,9.0,left,0.0,3.788463375007268,,speed,space,0.7727928750100546,,,,,,0.0,0.0,0.0,1.0,9.0,1.0,19.0,1.0,195.04070820799097,,,,,,,,,195.03177683299876,195.82462662499165,196.61606108298287,196.6083798329928,196.60889162501556,196.61606108298287,196.61606108298287,196.61606108298287,200.40815312502676,,,,,,,,,,,,,,,,,,,,,,,,,,,,,,,left,0.0,3.788463375007268,,,,,,sub-023,1,random_dot,121.32492841877117,
left,left,20.0,0.0,10.0,right,0.0,5.21569666697178,,speed,space,0.7727928750100546,,,,,,0.0,0.0,0.0,1.0,10.0,0.0,20.0,0.0,200.412230750022,,,,,,,,,200.40840808302164,200.49962570803476,201.30026487499708,201.29181912500644,201.2924112080364,201.30026487499708,201.30026487499708,201.30026487499708,206.5266755000339,,,,,,,,206.2804040419869,,,,,,,,,,,,,,,,,,,,,,,right,0.0,5.21569666697178,,,,,,sub-023,1,random_dot,121.32492841877117,
right,right,21.0,1.0,10.0,left,0.0,5.108300958003383,,speed,space,0.7727928750100546,,,,,,0.0,0.0,0.0,1.0,10.0,1.0,21.0,1.0,206.53410049999368,,,,,,,,,206.52722245798213,206.875179374998,207.6675825419952,207.65895808301863,207.65965645801043,207.6675825419952,207.6675825419952,207.6675825419952,212.7828055419959,,,,,,,,212.64671391702723,,,,,,,,,,,,,,,,,,,,,,,left,0.0,5.108300958003383,,,,,,sub-023,1,random_dot,121.32492841877117,
left,left,22.0,0.0,11.0,left,1.0,5.448463874985464,,speed,space,0.7727928750100546,,,,,,0.0,0.0,0.0,1.0,11.0,0.0,22.0,0.0,212.79185083298944,,,,,,,,,212.78351670800475,213.13201845798176,213.92475662502693,213.91564625001047,213.9162200000137,213.92475662502693,213.92475662502693,213.92475662502693,219.37671716703332,,,,,,,,218.9087980419863,,,,,,,,,,,,,,,,,,,,,,,left,1.0,5.448463874985464,,,,,,sub-023,1,random_dot,121.32492841877117,
right,right,23.0,1.0,11.0,right,1.0,2.2654861669871025,,speed,space,0.7727928750100546,,,,,,0.0,0.0,0.0,1.0,11.0,1.0,23.0,1.0,219.38664949999657,,,,,,,,,219.3773374169832,219.4757242919877,220.2673712919932,220.2592935420107,220.25979166699108,220.2673712919932,220.2673712919932,220.2673712919932,222.54305441700853,,,,,,,,,,,,,,,,,,,,,,,,,,,,,,,right,1.0,2.2654861669871025,,,,,,sub-023,1,random_dot,121.32492841877117,
right,right,24.0,0.0,12.0,left,0.0,1.5168477919651195,,speed,space,0.7727928750100546,,,,,,0.0,0.0,0.0,1.0,12.0,0.0,24.0,1.0,222.55093129200395,,,,,,,,,222.54358683299503,222.882146708027,223.6748987080064,223.6662483330001,223.66689749999205,223.6748987080064,223.6748987080064,223.6748987080064,225.1980497080367,,,,,,,,,,,,,,,,,,,,,,,,,,,,,,,left,0.0,1.5168477919651195,,,,,,sub-023,1,random_dot,121.32492841877117,
left,left,25.0,1.0,12.0,left,1.0,5.393789749999996,,speed,space,0.7727928750100546,,,,,,0.0,0.0,0.0,1.0,12.0,1.0,25.0,0.0,225.20863091701176,,,,,,,,,225.19830733299025,225.5425939580309,226.33414462499783,226.3261785419891,226.3267150830361,226.33414462499783,226.33414462499783,226.33414462499783,231.734048000013,,,,,,,,231.31479712500004,,,,,,,,,,,,,,,,,,,,,,,left,1.0,5.393789749999996,,,,,,sub-023,1,random_dot,121.32492841877117,
left,left,26.0,0.0,13.0,left,1.0,2.028820290986914,,speed,space,0.7727928750100546,,,,,,0.0,0.0,0.0,1.0,13.0,0.0,26.0,0.0,231.74208270799136,,,,,,,,,231.7347152500297,232.08271845802665,232.8750932920375,232.866533833032,232.8671900830232,232.8750932920375,232.8750932920375,232.8750932920375,234.91046729200752,,,,,,,,,,,,,,,,,,,,,,,,,,,,,,,left,1.0,2.028820290986914,,,,,,sub-023,1,random_dot,121.32492841877117,
right,right,27.0,1.0,13.0,left,0.0,4.9493385829846375,,speed,space,0.7727928750100546,,,,,,0.0,0.0,0.0,1.0,13.0,1.0,27.0,1.0,234.918261874991,,,,,,,,,234.9109881250188,235.7001135000028,236.4925935420324,236.48287449998315,236.48350029200083,236.4925935420324,236.4925935420324,236.4925935420324,241.44409637502395,,,,,,,,,,,,,,,,,,,,,,,,,,,,,,,left,0.0,4.9493385829846375,,,,,,sub-023,1,random_dot,121.32492841877117,
left,left,28.0,0.0,14.0,left,1.0,5.637937624996994,,speed,space,0.7727928750100546,,,,,,0.0,0.0,0.0,1.0,14.0,0.0,28.0,0.0,241.45000041701127,,,,,,,,,241.44461879198207,241.53627879201667,242.33615787501915,242.32678258302624,242.32753062498523,242.33615787501915,242.33615787501915,242.33615787501915,247.9778909999877,,,,,,,,247.31630216701888,,,,,,,,,,,,,,,,,,,,,,,left,1.0,5.637937624996994,,,,,,sub-023,1,random_dot,121.32492841877117,
right,right,29.0,1.0,14.0,right,1.0,1.225858749996405,,speed,space,0.7727928750100546,,,,,,0.0,0.0,0.0,1.0,14.0,1.0,29.0,1.0,247.98764329199912,,,,,,,,,247.97853420802855,248.32643829198787,249.1192714580102,249.11054133303696,249.11121483298484,249.1192714580102,249.1192714580102,249.1192714580102,250.35095024999464,,,,,,,,,,,,,,,,,,,,,,,,,,,,,,,right,1.0,1.225858749996405,,,,,,sub-023,1,random_dot,121.32492841877117,
right,right,30.0,0.0,15.0,right,1.0,2.347903667017817,,speed,space,0.7727928750100546,,,,,,0.0,0.0,0.0,1.0,15.0,0.0,30.0,1.0,250.3589992080233,,,,,,,,,250.3514591670246,251.15100387501295,251.95204487501175,251.94377566699404,251.94436483300524,251.95204487501175,251.95204487501175,251.95204487501175,254.3116752920323,,,,,,,,,,,,,,,,,,,,,,,,,,,,,,,right,1.0,2.347903667017817,,,,,,sub-023,1,random_dot,121.32492841877117,
left,left,31.0,1.0,15.0,left,1.0,5.335364375030622,,speed,space,0.7727928750100546,,,,,,0.0,0.0,0.0,1.0,15.0,1.0,31.0,0.0,254.32008425000825,,,,,,,,,254.31221154198283,255.5103185420157,256.30274633300724,256.2940601250157,256.29465983301634,256.30274633300724,256.30274633300724,256.30274633300724,261.6455424579908,,,,,,,,261.2828850420192,,,,,,,,,,,,,,,,,,,,,,,left,1.0,5.335364375030622,,,,,,sub-023,1,random_dot,121.32492841877117,
left,left,32.0,0.0,16.0,right,0.0,4.156518917006906,,speed,space,0.7727928750100546,,,,,,0.0,0.0,0.0,1.0,16.0,0.0,32.0,0.0,261.6558633330278,,,,,,,,,261.6463366249809,261.74392791703576,262.5371933330316,262.527804124984,262.5285485829809,262.5371933330316,262.5371933330316,262.5371933330316,266.7022374999942,,,,,,,,,,,,,,,,,,,,,,,,,,,,,,,right,0.0,4.156518917006906,,,,,,sub-023,1,random_dot,121.32492841877117,
right,right,33.0,1.0,16.0,left,0.0,7.033885916986037,,speed,space,0.7727928750100546,,,,,,0.0,0.0,0.0,1.0,16.0,1.0,33.0,1.0,266.71033224998973,,,,,,,,,266.7027306249948,267.9012191669899,268.6936195830349,268.6840147500043,268.68463254201924,268.6936195830349,268.6936195830349,268.6936195830349,275.72905420803,,,,,,,,273.67757554200944,,,,,,,,,,,,,,,,,,,,,,,left,0.0,7.033885916986037,,,,,,sub-023,1,random_dot,121.32492841877117,
right,right,34.0,0.0,17.0,right,1.0,4.15183154202532,,speed,space,0.7727928750100546,,,,,,0.0,0.0,0.0,1.0,17.0,0.0,34.0,1.0,275.73535600001924,,,,,,,,,275.7297529170173,275.8275492499816,276.6198978330358,276.61143874999834,276.61204550002003,276.6198978330358,276.6198978330358,276.6198978330358,280.77868520800257,,,,,,,,,,,,,,,,,,,,,,,,,,,,,,,right,1.0,4.15183154202532,,,,,,sub-023,1,random_dot,121.32492841877117,
left,left,35.0,1.0,17.0,left,1.0,4.627400333003607,,speed,space,0.7727928750100546,,,,,,0.0,0.0,0.0,1.0,17.0,1.0,35.0,0.0,280.7867854579817,,,,,,,,,280.7791867920314,281.9691632080357,282.7693305829889,282.76158295798814,282.7621090830071,282.7693305829889,282.7693305829889,282.7693305829889,287.4029507919913,,,,,,,,,,,,,,,,,,,,,,,,,,,,,,,left,1.0,4.627400333003607,,,,,,sub-023,1,random_dot,121.32492841877117,
left,left,36.0,0.0,18.0,right,0.0,5.396441625023726,,speed,space,0.7727928750100546,,,,,,0.0,0.0,0.0,1.0,18.0,0.0,36.0,0.0,287.410689958022,,,,,,,,,287.4033996250364,287.50048287503887,288.2946621250012,288.2841953749885,288.2847692919895,288.2946621250012,288.2946621250012,288.2946621250012,293.6961120420019,,,,,,,,293.2780960830278,,,,,,,,,,,,,,,,,,,,,,,right,0.0,5.396441625023726,,,,,,sub-023,1,random_dot,121.32492841877117,
right,right,37.0,1.0,18.0,right,1.0,5.341244665964041,,speed,space,0.7727928750100546,,,,,,0.0,0.0,0.0,1.0,18.0,1.0,37.0,1.0,293.7041644169949,,,,,,,,,293.6966545000323,294.4856862919987,295.2779222080135,295.26853804202983,295.26912487501977,295.2779222080135,295.2779222080135,295.2779222080135,300.6304920830298,,,,,,,,300.26195295801153,,,,,,,,,,,,,,,,,,,,,,,right,1.0,5.341244665964041,,,,,,sub-023,1,random_dot,121.32492841877117,
left,left,38.0,0.0,19.0,left,1.0,3.648884708993137,,speed,space,0.7727928750100546,,,,,,0.0,0.0,0.0,1.0,19.0,0.0,38.0,0.0,300.64049254200654,,,,,,,,,300.6311098749866,301.428871000011,302.22123187500983,302.21252558298875,302.2130632500048,302.22123187500983,302.22123187500983,302.22123187500983,305.8798214580165,,,,,,,,,,,,,,,,,,,,,,,,,,,,,,,left,1.0,3.648884708993137,,,,,,sub-023,1,random_dot,121.32492841877117,
right,right,39.0,1.0,19.0,right,1.0,3.0083220420056023,,speed,space,0.7727928750100546,,,,,,0.0,0.0,0.0,1.0,19.0,1.0,39.0,1.0,305.8871591670322,,,,,,,,,305.8803548750002,307.06943495798623,307.8722149999812,307.86298633302795,307.8637166669941,307.8722149999812,307.8722149999812,307.8722149999812,310.88696962501854,,,,,,,,,,,,,,,,,,,,,,,,,,,,,,,right,1.0,3.0083220420056023,,,,,,sub-023,1,random_dot,121.32492841877117,
right,right,40.0,0.0,20.0,left,0.0,5.308627041988075,,speed,space,0.7727928750100546,,,,,,0.0,0.0,0.0,1.0,20.0,0.0,40.0,1.0,310.89477833302226,,,,,,,,,310.8874734580168,311.68661770800827,312.488393000036,312.4796469170251,312.4802992499899,312.488393000036,312.488393000036,312.488393000036,317.8035963749862,,,,,,,,317.46812158299144,,,,,,,,,,,,,,,,,,,,,,,left,0.0,5.308627041988075,,,,,,sub-023,1,random_dot,121.32492841877117,
left,left,41.0,1.0,20.0,right,0.0,2.005757792037912,,speed,space,0.7727928750100546,,,,,,0.0,0.0,0.0,1.0,20.0,1.0,41.0,0.0,317.811155583011,,,,,,,,,317.80417395802215,317.90278691699496,318.69551554200007,318.6863697079825,318.686940042011,318.69551554200007,318.69551554200007,318.69551554200007,320.704632833018,,,,,,,,,,,,,,,,,,,,,,,,,,,,,,,right,0.0,2.005757792037912,,,,,,sub-023,1,random_dot,121.32492841877117,
left,left,42.0,0.0,21.0,left,1.0,2.2771133329952136,,speed,space,0.7727928750100546,,,,,,0.0,0.0,0.0,1.0,21.0,0.0,42.0,0.0,320.71304770803545,,,,,,,,,320.7051325000357,321.5036704579834,322.3052952080034,322.296589458012,322.2971537919948,322.3052952080034,322.3052952080034,322.3052952080034,324.58780441700947,,,,,,,,,,,,,,,,,,,,,,,,,,,,,,,left,1.0,2.2771133329952136,,,,,,sub-023,1,random_dot,121.32492841877117,
right,right,43.0,1.0,21.0,left,0.0,5.2797140419716015,,speed,space,0.7727928750100546,,,,,,0.0,0.0,0.0,1.0,21.0,1.0,43.0,1.0,324.595742458012,,,,,,,,,324.58828954200726,325.7857678750297,326.5791257080273,326.56968795799185,326.5702302919817,326.5791257080273,326.5791257080273,326.5791257080273,331.86470845801523,,,,,,,,331.56298695801524,,,,,,,,,,,,,,,,,,,,,,,left,0.0,5.2797140419716015,,,,,,sub-023,1,random_dot,121.32492841877117,
right,right,44.0,0.0,22.0,left,0.0,4.448090209043585,,speed,space,0.7727928750100546,,,,,,0.0,0.0,0.0,1.0,22.0,0.0,44.0,1.0,331.8740945000318,,,,,,,,,331.8653251249925,333.06287475000136,333.85479454201413,333.8469855419826,333.84749508299865,333.85479454201413,333.85479454201413,333.85479454201413,338.30479908303823,,,,,,,,,,,,,,,,,,,,,,,,,,,,,,,left,0.0,4.448090209043585,,,,,,sub-023,1,random_dot,121.32492841877117,
left,left,45.0,1.0,22.0,left,1.0,5.683075542037841,,speed,space,0.7727928750100546,,,,,,0.0,0.0,0.0,1.0,22.0,1.0,45.0,0.0,338.312805958034,,,,,,,,,338.3052410830278,339.50350629200693,340.2963296250091,340.2867979580187,340.2874655830092,340.2963296250091,340.2963296250091,340.2963296250091,345.9815795000177,,,,,,,,345.27997562498786,,,,,,,,,,,,,,,,,,,,,,,left,1.0,5.683075542037841,,,,,,sub-023,1,random_dot,121.32492841877117,
left,left,46.0,0.0,23.0,right,0.0,2.609887584054377,,speed,space,0.7727928750100546,,,,,,0.0,0.0,0.0,1.0,23.0,0.0,46.0,0.0,345.98716641700594,,,,,,,,,345.98219612502726,346.7702069579973,347.5632415,347.55295070802094,347.5535119579872,347.5632415,347.5632415,347.5632415,350.1816645000363,,,,,,,,,,,,,,,,,,,,,,,,,,,,,,,right,0.0,2.609887584054377,,,,,,sub-023,1,random_dot,121.32492841877117,
right,right,47.0,1.0,23.0,left,0.0,6.376516290998552,,speed,space,0.7727928750100546,,,,,,0.0,0.0,0.0,1.0,23.0,1.0,47.0,1.0,350.1902501669829,,,,,,,,,350.1821762920008,350.5302853329922,351.32306454202626,351.31441649998305,351.3149716670159,351.32306454202626,351.32306454202626,351.32306454202626,357.7056604999816,,,,,,,,356.30164962500567,,,,,,,,,,,,,,,,,,,,,,,left,0.0,6.376516290998552,,,,,,sub-023,1,random_dot,121.32492841877117,
left,left,48.0,0.0,24.0,right,0.0,1.5467567080049776,,speed,space,0.7727928750100546,,,,,,0.0,0.0,0.0,1.0,24.0,0.0,48.0,0.0,357.713675624982,,,,,,,,,357.70623712503584,358.05423658300424,358.8469407079974,358.8375227919896,358.8381068750168,358.8469407079974,358.8469407079974,358.8469407079974,360.3986092500272,,,,,,,,,,,,,,,,,,,,,,,,,,,,,,,right,0.0,1.5467567080049776,,,,,,sub-023,1,random_dot,121.32492841877117,
right,right,49.0,1.0,24.0,right,1.0,5.105911416001618,,speed,space,0.7727928750100546,,,,,,0.0,0.0,0.0,1.0,24.0,1.0,49.0,1.0,360.40421012503793,,,,,,,,,360.3991102080327,360.7386846669833,361.5398522919859,361.531446332985,361.53200104198186,361.5398522919859,361.5398522919859,361.5398522919859,366.64960458298447,,,,,,,,366.51985541702015,,,,,,,,,,,,,,,,,,,,,,,right,1.0,5.105911416001618,,,,,,sub-023,1,random_dot,121.32492841877117,
right,right,50.0,0.0,25.0,right,1.0,3.33539074996952,,speed,space,0.7727928750100546,,,,,,0.0,0.0,0.0,1.0,25.0,0.0,50.0,1.0,366.6592271249974,,,,,,,,,366.6504423330189,367.4478825000115,368.2401364170364,368.2315813330352,368.2321206250344,368.2401364170364,368.2401364170364,368.2401364170364,371.5823760830099,,,,,,,,,,,,,,,,,,,,,,,,,,,,,,,right,1.0,3.33539074996952,,,,,,sub-023,1,random_dot,121.32492841877117,
left,left,51.0,1.0,25.0,left,1.0,2.053358584002126,,speed,space,0.7727928750100546,,,,,,0.0,0.0,0.0,1.0,25.0,1.0,51.0,0.0,371.591438708012,,,,,,,,,371.58292354200967,371.922917457996,372.7243185000261,372.7153758330387,372.7160193750169,372.7243185000261,372.7243185000261,372.7243185000261,374.7829725000192,,,,,,,,,,,,,,,,,,,,,,,,,,,,,,,left,1.0,2.053358584002126,,,,,,sub-023,1,random_dot,121.32492841877117,
left,left,52.0,0.0,26.0,right,0.0,1.8643397919950075,,speed,space,0.7727928750100546,,,,,,0.0,0.0,0.0,1.0,26.0,0.0,52.0,0.0,374.79110616701655,,,,,,,,,374.7835193329957,375.1317933329847,375.92336416698527,375.9155720419949,375.9160814170027,375.92336416698527,375.92336416698527,375.92336416698527,377.7996264999965,,,,,,,,,,,,,,,,,,,,,,,,,,,,,,,right,0.0,1.8643397919950075,,,,,,sub-023,1,random_dot,121.32492841877117,
right,right,53.0,1.0,26.0,right,1.0,5.538726457976736,,speed,space,0.7727928750100546,,,,,,0.0,0.0,0.0,1.0,26.0,1.0,53.0,1.0,377.8069906670135,,,,,,,,,377.80015666701365,378.14833533298224,378.9405718750204,378.9321807920351,378.93280424998375,378.9405718750204,378.9405718750204,378.9405718750204,384.4834048330085,,,,,,,,383.9205780000193,,,,,,,,,,,,,,,,,,,,,,,right,1.0,5.538726457976736,,,,,,sub-023,1,random_dot,121.32492841877117,
left,left,54.0,0.0,27.0,left,1.0,3.5001165420399047,,speed,space,0.7727928750100546,,,,,,0.0,0.0,0.0,1.0,27.0,0.0,54.0,0.0,384.4932584170019,,,,,,,,,384.48415216698777,384.83203179202974,385.6240604170016,385.6156619170215,385.6162922080257,385.6240604170016,385.6240604170016,385.6240604170016,389.1327350829961,,,,,,,,,,,,,,,,,,,,,,,,,,,,,,,left,1.0,3.5001165420399047,,,,,,sub-023,1,random_dot,121.32492841877117,
right,right,55.0,1.0,27.0,right,1.0,1.6872887089848518,,speed,space,0.7727928750100546,,,,,,0.0,0.0,0.0,1.0,27.0,1.0,55.0,1.0,389.1395438330365,,,,,,,,,389.1331922080135,389.9215635419823,390.71504575002473,390.70463520800695,390.7052029169863,390.71504575002473,390.71504575002473,390.71504575002473,392.4069333330263,,,,,,,,,,,,,,,,,,,,,,,,,,,,,,,right,1.0,1.6872887089848518,,,,,,sub-023,1,random_dot,121.32492841877117,
left,left,56.0,0.0,28.0,left,1.0,2.364927999966312,,speed,space,0.7727928750100546,,,,,,0.0,0.0,0.0,1.0,28.0,0.0,56.0,0.0,392.4146912919823,,,,,,,,,392.4074287079857,392.5065983330133,393.3074452080182,393.2992810829892,393.29983866703697,393.3074452080182,393.3074452080182,393.3074452080182,395.6836048330297,,,,,,,,,,,,,,,,,,,,,,,,,,,,,,,left,1.0,2.364927999966312,,,,,,sub-023,1,random_dot,121.32492841877117,
right,right,57.0,1.0,28.0,left,0.0,3.798456749995239,,speed,space,0.7727928750100546,,,,,,0.0,0.0,0.0,1.0,28.0,1.0,57.0,1.0,395.69150166702457,,,,,,,,,395.6841267920099,396.0219009580324,396.8150590829901,396.8047378330375,396.8053776249872,396.8150590829901,396.8150590829901,396.8150590829901,400.6168921249919,,,,,,,,,,,,,,,,,,,,,,,,,,,,,,,left,0.0,3.798456749995239,,,,,,sub-023,1,random_dot,121.32492841877117,
left,left,58.0,0.0,29.0,right,0.0,2.2761791669763625,,speed,space,0.7727928750100546,,,,,,0.0,0.0,0.0,1.0,29.0,0.0,58.0,0.0,400.6253145420342,,,,,,,,,400.6174121670192,401.4072052499978,402.20834170799935,402.1996830829885,402.2003826670116,402.20834170799935,402.20834170799935,402.20834170799935,404.49043691699626,,,,,,,,,,,,,,,,,,,,,,,,,,,,,,,right,0.0,2.2761791669763625,,,,,,sub-023,1,random_dot,121.32492841877117,
right,right,59.0,1.0,29.0,left,0.0,5.371452583000064,,speed,space,0.7727928750100546,,,,,,0.0,0.0,0.0,1.0,29.0,1.0,59.0,1.0,404.4984229170368,,,,,,,,,404.4909202920389,405.6897976670298,406.4822029169882,406.4727845829912,406.47335241700057,406.4822029169882,406.4822029169882,406.4822029169882,411.8575131670223,,,,,,,,411.4724701670348,,,,,,,,,,,,,,,,,,,,,,,left,0.0,5.371452583000064,,,,,,sub-023,1,random_dot,121.32492841877117,
,,0.0,0.0,0.0,,,,,speed,space,0.7727928750100546,,,,,,0.0,0.0,0.0,1.0,,,,,,,,,,,,,,,,,,,,,,,,,,,,,,,,,,,,,,,,,,,,,,,,,,,,,,,,,,,,,sub-023,1,random_dot,121.32492841877117,
left,left,0.0,0.0,0.0,right,0.0,3.427284292003605,,accuracy,space,2.1003861659555696,,,,,,0.0,1.0,1.0,0.0,0.0,0.0,0.0,0.0,414.0082120830193,,,,,,,,,413.9999449169845,414.09161437500734,414.8923311670078,414.88350354199065,414.884179708024,414.8923311670078,414.8923311670078,414.8923311670078,418.3244925829931,,,,,,,,,,,,,,,,,,,,,,,,411.87668170803227,411.884249292023,411.884249292023,413.9904314170126,space,2.1003861659555696,,right,0.0,3.427284292003605,,,,,,sub-023,1,random_dot,121.32492841877117,
right,right,1.0,1.0,0.0,right,1.0,3.4223237080150284,,accuracy,space,2.1003861659555696,,,,,,0.0,1.0,1.0,0.0,0.0,1.0,1.0,1.0,418.332760958001,,,,,,,,,418.3249609170016,419.5234269580105,420.3160237499978,420.3063370829914,420.3069110829965,420.3160237499978,420.3160237499978,420.3160237499978,423.7408905000193,,,,,,,,,,,,,,,,,,,,,,,,,,,,,,,right,1.0,3.4223237080150284,,,,,,sub-023,1,random_dot,121.32492841877117,
left,left,2.0,0.0,1.0,left,1.0,5.266547542007174,,accuracy,space,2.1003861659555696,,,,,,0.0,1.0,1.0,0.0,1.0,0.0,2.0,0.0,423.7498232080252,,,,,,,,,423.74138670798857,424.9400632079924,425.73291554203024,425.7235484170378,425.7241160830017,425.73291554203024,425.73291554203024,425.73291554203024,431.00205941702006,,,,,,,,430.7165861669928,,,,,,,,,,,,,,,,,,,,,,,left,1.0,5.266547542007174,,,,,,sub-023,1,random_dot,121.32492841877117,
right,right,3.0,1.0,1.0,right,1.0,3.797976875037421,,accuracy,space,2.1003861659555696,,,,,,0.0,1.0,1.0,0.0,1.0,1.0,3.0,1.0,431.0078845000244,,,,,,,,,431.0027130829985,431.1004722919897,431.89190812502056,431.8841750419815,431.8846299999859,431.89190812502056,431.89190812502056,431.89190812502056,435.6918251250172,,,,,,,,,,,,,,,,,,,,,,,,,,,,,,,right,1.0,3.797976875037421,,,,,,sub-023,1,random_dot,121.32492841877117,
right,right,4.0,0.0,2.0,left,0.0,4.025661833002232,,accuracy,space,2.1003861659555696,,,,,,0.0,1.0,1.0,0.0,2.0,0.0,4.0,1.0,435.70037662499817,,,,,,,,,435.6922924169921,436.49053033301607,437.2828603329836,437.2742384580197,437.27487441699486,437.2828603329836,437.2828603329836,437.2828603329836,441.3174166670069,,,,,,,,,,,,,,,,,,,,,,,,,,,,,,,left,0.0,4.025661833002232,,,,,,sub-023,1,random_dot,121.32492841877117,
left,left,5.0,1.0,2.0,left,1.0,3.0943039580015466,,accuracy,space,2.1003861659555696,,,,,,0.0,1.0,1.0,0.0,2.0,1.0,5.0,0.0,441.32413333299337,,,,,,,,,441.31766808300745,442.1072634999873,442.90027587499935,442.8906412500073,442.8912622079952,442.90027587499935,442.90027587499935,442.90027587499935,446.001718332991,,,,,,,,,,,,,,,,,,,,,,,,,,,,,,,left,1.0,3.0943039580015466,,,,,,sub-023,1,random_dot,121.32492841877117,
left,left,6.0,0.0,3.0,right,0.0,2.5648688749643043,,accuracy,space,2.1003861659555696,,,,,,0.0,1.0,1.0,0.0,3.0,0.0,6.0,0.0,446.007858500001,,,,,,,,,446.0019539170317,446.3509084580001,447.1428421250312,447.134548208036,447.1351818750263,447.1428421250312,447.1428421250312,447.1428421250312,449.7090968749835,,,,,,,,,,,,,,,,,,,,,,,,,,,,,,,right,0.0,2.5648688749643043,,,,,,sub-023,1,random_dot,121.32492841877117,
right,right,7.0,1.0,3.0,left,0.0,4.26244395901449,,accuracy,space,2.1003861659555696,,,,,,0.0,1.0,1.0,0.0,3.0,1.0,7.0,1.0,449.71624266699655,,,,,,,,,449.709534041991,450.9077321250225,451.7092068330385,451.70148012501886,451.7019606670365,451.7092068330385,451.7092068330385,451.7092068330385,455.9771070830175,,,,,,,,,,,,,,,,,,,,,,,,,,,,,,,left,0.0,4.26244395901449,,,,,,sub-023,1,random_dot,121.32492841877117,
left,left,8.0,0.0,4.0,left,1.0,3.1713217920041643,,accuracy,space,2.1003861659555696,,,,,,0.0,1.0,1.0,0.0,4.0,0.0,8.0,0.0,455.9849817919894,,,,,,,,,455.97762891702587,456.0756524170283,456.87672062503407,456.8683415420237,456.8689389170031,456.87672062503407,456.87672062503407,456.87672062503407,460.0522277500131,,,,,,,,,,,,,,,,,,,,,,,,,,,,,,,left,1.0,3.1713217920041643,,,,,,sub-023,1,random_dot,121.32492841877117,
right,right,9.0,1.0,4.0,left,0.0,4.421171292022336,,accuracy,space,2.1003861659555696,,,,,,0.0,1.0,1.0,0.0,4.0,1.0,9.0,1.0,460.0598641670076,,,,,,,,,460.05272195802536,461.2419574580272,462.0445866670343,462.0354061250109,462.03602891700575,462.0445866670343,462.0445866670343,462.0445866670343,466.4692099170061,,,,,,,,,,,,,,,,,,,,,,,,,,,,,,,left,0.0,4.421171292022336,,,,,,sub-023,1,random_dot,121.32492841877117,
left,left,10.0,0.0,5.0,left,1.0,4.291743416979443,,accuracy,space,2.1003861659555696,,,,,,0.0,1.0,1.0,0.0,5.0,0.0,10.0,0.0,466.4756713749957,,,,,,,,,466.4697507920209,467.2588239170145,468.0602098330273,468.0519921249943,468.0526081669959,468.0602098330273,468.0602098330273,468.0602098330273,472.3610432919813,,,,,,,,,,,,,,,,,,,,,,,,,,,,,,,left,1.0,4.291743416979443,,,,,,sub-023,1,random_dot,121.32492841877117,
right,right,11.0,1.0,5.0,right,1.0,3.941267458023504,,accuracy,space,2.1003861659555696,,,,,,0.0,1.0,1.0,0.0,5.0,1.0,11.0,1.0,472.367705792014,,,,,,,,,472.3613542499952,473.1596981670009,473.9604949580389,473.9523024170194,473.9528814579826,473.9604949580389,473.9604949580389,473.9604949580389,477.9032532499986,,,,,,,,,,,,,,,,,,,,,,,,,,,,,,,right,1.0,3.941267458023504,,,,,,sub-023,1,random_dot,121.32492841877117,
left,left,12.0,0.0,6.0,right,0.0,3.721498041995801,,accuracy,space,2.1003861659555696,,,,,,0.0,1.0,1.0,0.0,6.0,0.0,12.0,0.0,477.9090065830387,,,,,,,,,477.9037655420252,477.9921066670213,478.7852567079826,478.7755644579884,478.776202249981,478.7852567079826,478.7852567079826,478.7852567079826,482.510298624984,,,,,,,,,,,,,,,,,,,,,,,,,,,,,,,right,0.0,3.721498041995801,,,,,,sub-023,1,random_dot,121.32492841877117,
right,right,13.0,1.0,6.0,right,1.0,4.717036625021137,,accuracy,space,2.1003861659555696,,,,,,0.0,1.0,1.0,0.0,6.0,1.0,13.0,1.0,482.51837008300936,,,,,,,,,482.5105651670019,483.30976487498265,484.1121228330303,484.1027809579973,484.1034854580066,484.1121228330303,484.1121228330303,484.1121228330303,488.8364574169973,,,,,,,,,,,,,,,,,,,,,,,,,,,,,,,right,1.0,4.717036625021137,,,,,,sub-023,1,random_dot,121.32492841877117,
right,right,14.0,0.0,7.0,left,0.0,2.9828900420106947,,accuracy,space,2.1003861659555696,,,,,,0.0,1.0,1.0,0.0,7.0,0.0,14.0,1.0,488.8426423750352,,,,,,,,,488.83669116703095,489.6260883330251,490.4285089169862,490.4199072080082,490.4206840420375,490.4285089169862,490.4285089169862,490.4285089169862,493.4201558330096,,,,,,,,,,,,,,,,,,,,,,,,,,,,,,,left,0.0,2.9828900420106947,,,,,,sub-023,1,random_dot,121.32492841877117,
left,left,15.0,1.0,7.0,right,0.0,4.619260541978292,,accuracy,space,2.1003861659555696,,,,,,0.0,1.0,1.0,0.0,7.0,1.0,15.0,0.0,493.4284734579851,,,,,,,,,493.4206415829831,493.7606497920351,494.5612903329893,494.55307550000725,494.5536425000173,494.5612903329893,494.5612903329893,494.5612903329893,499.1874240830075,,,,,,,,,,,,,,,,,,,,,,,,,,,,,,,right,0.0,4.619260541978292,,,,,,sub-023,1,random_dot,121.32492841877117,
left,left,16.0,0.0,8.0,left,1.0,5.386396625021007,,accuracy,space,2.1003861659555696,,,,,,0.0,1.0,1.0,0.0,8.0,0.0,16.0,0.0,499.194348708028,,,,,,,,,499.1879522500094,499.536506250035,500.3285223330022,500.32009054202354,500.32071795803495,500.3285223330022,500.3285223330022,500.3285223330022,505.7211964169983,,,,,,,,505.30794958298793,,,,,,,,,,,,,,,,,,,,,,,left,1.0,5.386396625021007,,,,,,sub-023,1,random_dot,121.32492841877117,
right,right,17.0,1.0,8.0,left,0.0,5.541100834030658,,accuracy,space,2.1003861659555696,,,,,,0.0,1.0,1.0,0.0,8.0,1.0,17.0,1.0,505.7306419580127,,,,,,,,,505.72182562499074,506.919662291999,507.7119370420114,507.7035475000157,507.7041698750109,507.7119370420114,507.7119370420114,507.7119370420114,513.2550959580112,,,,,,,,512.6921942500048,,,,,,,,,,,,,,,,,,,,,,,left,0.0,5.541100834030658,,,,,,sub-023,1,random_dot,121.32492841877117,
left,left,18.0,0.0,9.0,left,1.0,4.276623292011209,,accuracy,space,2.1003861659555696,,,,,,0.0,1.0,1.0,0.0,9.0,0.0,18.0,0.0,513.261296666984,,,,,,,,,513.2557979170233,513.3528912499896,514.145193000033,514.1371898329817,514.1377677500132,514.145193000033,514.145193000033,514.145193000033,518.4284717920236,,,,,,,,,,,,,,,,,,,,,,,,,,,,,,,left,1.0,4.276623292011209,,,,,,sub-023,1,random_dot,121.32492841877117,
right,right,19.0,1.0,9.0,left,0.0,3.8105732499971054,,accuracy,space,2.1003861659555696,,,,,,0.0,1.0,1.0,0.0,9.0,1.0,19.0,1.0,518.436041457986,,,,,,,,,518.4289391670027,519.2270737080253,520.0197954580071,520.010163125,520.0107456250116,520.0197954580071,520.0197954580071,520.0197954580071,523.8375984170125,,,,,,,,,,,,,,,,,,,,,,,,,,,,,,,left,0.0,3.8105732499971054,,,,,,sub-023,1,random_dot,121.32492841877117,
right,right,20.0,0.0,10.0,right,1.0,3.40133370901458,,accuracy,space,2.1003861659555696,,,,,,0.0,1.0,1.0,0.0,10.0,0.0,20.0,1.0,523.8438274579821,,,,,,,,,523.8378462499822,524.1779747920227,524.9795135420281,524.9710116250208,524.9716044579982,524.9795135420281,524.9795135420281,524.9795135420281,528.3880941250245,,,,,,,,,,,,,,,,,,,,,,,,,,,,,,,right,1.0,3.40133370901458,,,,,,sub-023,1,random_dot,121.32492841877117,
left,left,21.0,1.0,10.0,left,1.0,4.074182457989082,,accuracy,space,2.1003861659555696,,,,,,0.0,1.0,1.0,0.0,10.0,1.0,21.0,0.0,528.3947558330256,,,,,,,,,528.3885497919982,528.7276977500296,529.529495291994,529.5211123329937,529.5217286249972,529.529495291994,529.529495291994,529.529495291994,533.6050413750345,,,,,,,,,,,,,,,,,,,,,,,,,,,,,,,left,1.0,4.074182457989082,,,,,,sub-023,1,random_dot,121.32492841877117,
left,left,22.0,0.0,11.0,right,0.0,5.277859041001648,,accuracy,space,2.1003861659555696,,,,,,0.0,1.0,1.0,0.0,11.0,0.0,22.0,0.0,533.610392792034,,,,,,,,,533.6055858749896,534.7948656670051,535.587152208027,535.5776727499906,535.5783113330253,535.587152208027,535.587152208027,535.587152208027,540.8730385830277,,,,,,,,540.5708743750001,,,,,,,,,,,,,,,,,,,,,,,right,0.0,5.277859041001648,,,,,,sub-023,1,random_dot,121.32492841877117,
right,right,23.0,1.0,11.0,left,0.0,4.602998374961317,,accuracy,space,2.1003861659555696,,,,,,0.0,1.0,1.0,0.0,11.0,1.0,23.0,1.0,540.882574999996,,,,,,,,,540.8738664170378,541.2213943750248,542.0128747079871,542.0048048330355,542.0053291670047,542.0128747079871,542.0128747079871,542.0128747079871,546.6222889170167,,,,,,,,,,,,,,,,,,,,,,,,,,,,,,,left,0.0,4.602998374961317,,,,,,sub-023,1,random_dot,121.32492841877117,
left,left,24.0,0.0,12.0,left,1.0,4.222450124972966,,accuracy,space,2.1003861659555696,,,,,,0.0,1.0,1.0,0.0,12.0,0.0,24.0,0.0,546.6314312919858,,,,,,,,,546.6228312079911,546.712399333017,547.5143329580314,547.5052842500154,547.5059744580067,547.5143329580314,547.5143329580314,547.5143329580314,551.7392724999809,,,,,,,,,,,,,,,,,,,,,,,,,,,,,,,left,1.0,4.222450124972966,,,,,,sub-023,1,random_dot,121.32492841877117,
right,right,25.0,1.0,12.0,left,0.0,5.663235583982896,,accuracy,space,2.1003861659555696,,,,,,0.0,1.0,1.0,0.0,12.0,1.0,25.0,1.0,551.7468466670252,,,,,,,,,551.7397927080165,552.5285712920013,553.3291107499972,553.3215923749958,553.3220882500173,553.3291107499972,553.3291107499972,553.3291107499972,558.995805500017,,,,,,,,558.3106991249952,,,,,,,,,,,,,,,,,,,,,,,left,0.0,5.663235583982896,,,,,,sub-023,1,random_dot,121.32492841877117,
left,left,26.0,0.0,13.0,left,1.0,4.10763650003355,,accuracy,space,2.1003861659555696,,,,,,0.0,1.0,1.0,0.0,13.0,0.0,26.0,0.0,559.0046519580064,,,,,,,,,558.9963368750177,559.095216125017,559.887904458039,559.8783001670381,559.8788832920254,559.887904458039,559.887904458039,559.887904458039,564.0065007500234,,,,,,,,,,,,,,,,,,,,,,,,,,,,,,,left,1.0,4.10763650003355,,,,,,sub-023,1,random_dot,121.32492841877117,
right,right,27.0,1.0,13.0,right,1.0,5.301782833994366,,accuracy,space,2.1003861659555696,,,,,,0.0,1.0,1.0,0.0,13.0,1.0,27.0,1.0,564.0139370000106,,,,,,,,,564.0070330420276,564.7964502500254,565.597350792028,565.5890944580315,565.589659875026,565.597350792028,565.597350792028,565.597350792028,570.9070925830165,,,,,,,,570.5778882500017,,,,,,,,,,,,,,,,,,,,,,,right,1.0,5.301782833994366,,,,,,sub-023,1,random_dot,121.32492841877117,
right,right,28.0,0.0,14.0,right,1.0,2.915876166021917,,accuracy,space,2.1003861659555696,,,,,,0.0,1.0,1.0,0.0,14.0,0.0,28.0,1.0,570.9169421250117,,,,,,,,,570.9078119579935,572.1059437079821,572.8981866249815,572.8893786669942,572.8899979169946,572.8981866249815,572.8981866249815,572.8981866249815,575.8235310000018,,,,,,,,,,,,,,,,,,,,,,,,,,,,,,,right,1.0,2.915876166021917,,,,,,sub-023,1,random_dot,121.32492841877117,
left,left,29.0,1.0,14.0,left,1.0,5.356695999973454,,accuracy,space,2.1003861659555696,,,,,,0.0,1.0,1.0,0.0,14.0,1.0,29.0,0.0,575.8327583330101,,,,,,,,,575.824114957999,576.1633277499932,576.9645730420016,576.9562900420278,576.9568971249973,576.9645730420016,576.9645730420016,576.9645730420016,582.3242228330346,,,,,,,,581.94488116703,,,,,,,,,,,,,,,,,,,,,,,left,1.0,5.356695999973454,,,,,,sub-023,1,random_dot,121.32492841877117,
left,left,30.0,0.0,15.0,right,0.0,2.1585300830192864,,accuracy,space,2.1003861659555696,,,,,,0.0,1.0,1.0,0.0,15.0,0.0,30.0,0.0,582.3330786250299,,,,,,,,,582.3248534580343,583.1229710420012,583.9136126670055,583.9060604170081,583.9065817919909,583.9136126670055,583.9136126670055,583.9136126670055,586.073758958024,,,,,,,,,,,,,,,,,,,,,,,,,,,,,,,right,0.0,2.1585300830192864,,,,,,sub-023,1,random_dot,121.32492841877117,
right,right,31.0,1.0,15.0,right,1.0,4.285131666983943,,accuracy,space,2.1003861659555696,,,,,,0.0,1.0,1.0,0.0,15.0,1.0,31.0,1.0,586.0800345420139,,,,,,,,,586.074328207993,586.4135993749951,587.2059730000328,587.196582833014,587.1971193330246,587.2059730000328,587.2059730000328,587.2059730000328,591.4977737080189,,,,,,,,,,,,,,,,,,,,,,,,,,,,,,,right,1.0,4.285131666983943,,,,,,sub-023,1,random_dot,121.32492841877117,
left,left,32.0,0.0,16.0,right,0.0,4.607137458981015,,accuracy,space,2.1003861659555696,,,,,,0.0,1.0,1.0,0.0,16.0,0.0,32.0,0.0,591.5059062920045,,,,,,,,,591.4982342920266,592.2968314170139,593.0892255420331,593.0795729579986,593.080151125032,593.0892255420331,593.0892255420331,593.0892255420331,597.6980880000046,,,,,,,,,,,,,,,,,,,,,,,,,,,,,,,right,0.0,4.607137458981015,,,,,,sub-023,1,random_dot,121.32492841877117,
right,right,33.0,1.0,16.0,right,1.0,1.187942790973466,,accuracy,space,2.1003861659555696,,,,,,0.0,1.0,1.0,0.0,16.0,1.0,33.0,1.0,597.70625620801,,,,,,,,,597.6985904999892,597.7965019170078,598.5894575419952,598.5799613749841,598.5805354579934,598.5894575419952,598.5894575419952,598.5894575419952,599.7816618329962,,,,,,,,,,,,,,,,,,,,,,,,,,,,,,,right,1.0,1.187942790973466,,,,,,sub-023,1,random_dot,121.32492841877117,
left,left,34.0,0.0,17.0,right,0.0,5.415778000024147,,accuracy,space,2.1003861659555696,,,,,,0.0,1.0,1.0,0.0,17.0,0.0,34.0,0.0,599.7886036250275,,,,,,,,,599.7821296670008,599.8799752080231,600.6823236250202,600.6738368329825,600.6744357499992,600.6823236250202,600.6823236250202,600.6823236250202,606.1086791250273,,,,,,,,605.663035500038,,,,,,,,,,,,,,,,,,,,,,,right,0.0,5.415778000024147,,,,,,sub-023,1,random_dot,121.32492841877117,
right,right,35.0,1.0,17.0,right,1.0,5.374106834002305,,accuracy,space,2.1003861659555696,,,,,,0.0,1.0,1.0,0.0,17.0,1.0,35.0,1.0,606.1185002920101,,,,,,,,,606.1094361250289,607.3069121669978,608.0997695830301,608.0908715419937,608.0915791669977,608.0997695830301,608.0997695830301,608.0997695830301,613.4755955000292,,,,,,,,613.0793450000347,,,,,,,,,,,,,,,,,,,,,,,right,1.0,5.374106834002305,,,,,,sub-023,1,random_dot,121.32492841877117,
right,right,36.0,0.0,18.0,left,0.0,3.549219875014387,,accuracy,space,2.1003861659555696,,,,,,0.0,1.0,1.0,0.0,18.0,0.0,36.0,1.0,613.4825317080249,,,,,,,,,613.4764575000154,613.8237976669916,614.6146368330228,614.607167167007,614.6076764169848,614.6146368330228,614.6146368330228,614.6146368330228,618.175289167033,,,,,,,,,,,,,,,,,,,,,,,,,,,,,,,left,0.0,3.549219875014387,,,,,,sub-023,1,random_dot,121.32492841877117,
left,left,37.0,1.0,18.0,right,0.0,5.380370958009735,,accuracy,space,2.1003861659555696,,,,,,0.0,1.0,1.0,0.0,18.0,1.0,37.0,0.0,618.1843900420354,,,,,,,,,618.1758295830223,619.3651967500336,620.166628832987,620.1578980420018,620.1585097080097,620.166628832987,620.166628832987,620.166628832987,625.5577108330326,,,,,,,,625.1465918330359,,,,,,,,,,,,,,,,,,,,,,,right,0.0,5.380370958009735,,,,,,sub-023,1,random_dot,121.32492841877117,
right,right,38.0,0.0,19.0,left,0.0,3.037541833007708,,accuracy,space,2.1003861659555696,,,,,,0.0,1.0,1.0,0.0,19.0,0.0,38.0,1.0,625.5669263330055,,,,,,,,,625.5584065830335,626.3484544579987,627.1501758330269,627.1416233330383,627.1423001670046,627.1501758330269,627.1501758330269,627.1501758330269,630.1921213330352,,,,,,,,,,,,,,,,,,,,,,,,,,,,,,,left,0.0,3.037541833007708,,,,,,sub-023,1,random_dot,121.32492841877117,
left,left,39.0,1.0,19.0,right,0.0,2.7868602920207195,,accuracy,space,2.1003861659555696,,,,,,0.0,1.0,1.0,0.0,19.0,1.0,39.0,0.0,630.2004109580303,,,,,,,,,630.1926320830244,630.5314721250325,631.3239514580346,631.3143802499981,631.3149624579819,631.3239514580346,631.3239514580346,631.3239514580346,634.1160588749917,,,,,,,,,,,,,,,,,,,,,,,,,,,,,,,right,0.0,2.7868602920207195,,,,,,sub-023,1,random_dot,121.32492841877117,
left,left,40.0,0.0,20.0,left,1.0,2.4560038750059903,,accuracy,space,2.1003861659555696,,,,,,0.0,1.0,1.0,0.0,20.0,0.0,40.0,0.0,634.1240980830044,,,,,,,,,634.1164669169812,634.4652279170114,635.2668697920162,635.2581584170111,635.2587015830213,635.2668697920162,635.2668697920162,635.2668697920162,637.7257085830206,,,,,,,,,,,,,,,,,,,,,,,,,,,,,,,left,1.0,2.4560038750059903,,,,,,sub-023,1,random_dot,121.32492841877117,
right,right,41.0,1.0,20.0,right,1.0,2.278259708022233,,accuracy,space,2.1003861659555696,,,,,,0.0,1.0,1.0,0.0,20.0,1.0,41.0,1.0,637.7346035829978,,,,,,,,,637.7262694999808,638.514662667003,639.3076738329837,639.2976587080047,639.298098416999,639.3076738329837,639.3076738329837,639.3076738329837,641.5924003749969,,,,,,,,,,,,,,,,,,,,,,,,,,,,,,,right,1.0,2.278259708022233,,,,,,sub-023,1,random_dot,121.32492841877117,
left,left,42.0,0.0,21.0,right,0.0,3.1928769589867443,,accuracy,space,2.1003861659555696,,,,,,0.0,1.0,1.0,0.0,21.0,0.0,42.0,0.0,641.6005334170186,,,,,,,,,641.5929317080299,642.7818620830076,643.5832320420304,643.5754282500129,643.5759536250262,643.5832320420304,643.5832320420304,643.5832320420304,646.7826222500298,,,,,,,,,,,,,,,,,,,,,,,,,,,,,,,right,0.0,3.1928769589867443,,,,,,sub-023,1,random_dot,121.32492841877117,
right,right,43.0,1.0,21.0,left,0.0,3.727475583029445,,accuracy,space,2.1003861659555696,,,,,,0.0,1.0,1.0,0.0,21.0,1.0,43.0,1.0,646.7904332919861,,,,,,,,,646.7830137499841,647.9747548330342,648.7675792080117,648.7590593330096,648.7597363750101,648.7675792080117,648.7675792080117,648.7675792080117,652.4998852920253,,,,,,,,,,,,,,,,,,,,,,,,,,,,,,,left,0.0,3.727475583029445,,,,,,sub-023,1,random_dot,121.32492841877117,
left,left,44.0,0.0,22.0,left,1.0,3.903064083016943,,accuracy,space,2.1003861659555696,,,,,,0.0,1.0,1.0,0.0,22.0,0.0,44.0,0.0,652.5080483329948,,,,,,,,,652.5003487080103,653.6987460830132,654.4914858749835,654.4821194999968,654.4827040830278,654.4914858749835,654.4914858749835,654.4914858749835,658.4001253329916,,,,,,,,,,,,,,,,,,,,,,,,,,,,,,,left,1.0,3.903064083016943,,,,,,sub-023,1,random_dot,121.32492841877117,
right,right,45.0,1.0,22.0,left,0.0,4.401391082967166,,accuracy,space,2.1003861659555696,,,,,,0.0,1.0,1.0,0.0,22.0,1.0,45.0,1.0,658.4080578330322,,,,,,,,,658.4006413330208,658.4996495420346,659.3006984579843,659.2926939580357,659.2932545830263,659.3006984579843,659.3006984579843,659.3006984579843,663.7090347920312,,,,,,,,,,,,,,,,,,,,,,,,,,,,,,,left,0.0,4.401391082967166,,,,,,sub-023,1,random_dot,121.32492841877117,
right,right,46.0,0.0,23.0,right,1.0,3.525620625005104,,accuracy,space,2.1003861659555696,,,,,,0.0,1.0,1.0,0.0,23.0,0.0,46.0,1.0,663.7150183329941,,,,,,,,,663.7092665419914,664.4990239579929,665.3011001250125,665.2928577919956,665.2933765830239,665.3011001250125,665.3011001250125,665.3011001250125,668.8337894169963,,,,,,,,,,,,,,,,,,,,,,,,,,,,,,,right,1.0,3.525620625005104,,,,,,sub-023,1,random_dot,121.32492841877117,
left,left,47.0,1.0,23.0,left,1.0,1.835679042036645,,accuracy,space,2.1003861659555696,,,,,,0.0,1.0,1.0,0.0,23.0,1.0,47.0,0.0,668.8416309999884,,,,,,,,,668.8342946250341,669.6334322920302,670.4350248330156,670.4264727080008,670.4271441249875,670.4350248330156,670.4350248330156,670.4350248330156,672.2771458750358,,,,,,,,,,,,,,,,,,,,,,,,,,,,,,,left,1.0,1.835679042036645,,,,,,sub-023,1,random_dot,121.32492841877117,
left,left,48.0,0.0,24.0,right,0.0,4.067530250002164,,accuracy,space,2.1003861659555696,,,,,,0.0,1.0,1.0,0.0,24.0,0.0,48.0,0.0,672.2847073330195,,,,,,,,,672.2776570830029,673.0661741670338,673.8585102499928,673.8499727080343,673.8506361250184,673.8585102499928,673.8585102499928,673.8585102499928,677.9342832920374,,,,,,,,,,,,,,,,,,,,,,,,,,,,,,,right,0.0,4.067530250002164,,,,,,sub-023,1,random_dot,121.32492841877117,
right,right,49.0,1.0,24.0,right,1.0,2.9335777499945834,,accuracy,space,2.1003861659555696,,,,,,0.0,1.0,1.0,0.0,24.0,1.0,49.0,1.0,677.9419266670011,,,,,,,,,677.9346859999932,678.2841528750141,679.0854351670132,679.0767375830328,679.0772926670033,679.0854351670132,679.0854351670132,679.0854351670132,682.0274715420092,,,,,,,,,,,,,,,,,,,,,,,,,,,,,,,right,1.0,2.9335777499945834,,,,,,sub-023,1,random_dot,121.32492841877117,
right,right,50.0,0.0,25.0,right,1.0,4.152423416962847,,accuracy,space,2.1003861659555696,,,,,,0.0,1.0,1.0,0.0,25.0,0.0,50.0,1.0,682.0358946670312,,,,,,,,,682.0280078329961,683.2168047080049,684.0189306249958,684.0102673330111,684.0108808749937,684.0189306249958,684.0189306249958,684.0189306249958,688.1776678329916,,,,,,,,,,,,,,,,,,,,,,,,,,,,,,,right,1.0,4.152423416962847,,,,,,sub-023,1,random_dot,121.32492841877117,
left,left,51.0,1.0,25.0,right,0.0,2.467601583048236,,accuracy,space,2.1003861659555696,,,,,,0.0,1.0,1.0,0.0,25.0,1.0,51.0,0.0,688.1858723330079,,,,,,,,,688.178175292036,688.9674864170374,689.7597250830149,689.750279000029,689.7508636669954,689.7597250830149,689.7597250830149,689.7597250830149,692.2349274579901,,,,,,,,,,,,,,,,,,,,,,,,,,,,,,,right,0.0,2.467601583048236,,,,,,sub-023,1,random_dot,121.32492841877117,
right,right,52.0,0.0,26.0,left,0.0,2.1531663749483414,,accuracy,space,2.1003861659555696,,,,,,0.0,1.0,1.0,0.0,26.0,0.0,52.0,1.0,692.2424771669903,,,,,,,,,692.2353788749897,693.0336871250183,693.826303000038,693.8165160000208,693.8170994580141,693.826303000038,693.826303000038,693.826303000038,695.9853211250156,,,,,,,,,,,,,,,,,,,,,,,,,,,,,,,left,0.0,2.1531663749483414,,,,,,sub-023,1,random_dot,121.32492841877117,
left,left,53.0,1.0,26.0,left,1.0,5.54031179100275,,accuracy,space,2.1003861659555696,,,,,,0.0,1.0,1.0,0.0,26.0,1.0,53.0,0.0,695.993006167002,,,,,,,,,695.9858078749967,696.0837411670364,696.8850108330371,696.8773276670254,696.8778232079931,696.8850108330371,696.8850108330371,696.8850108330371,702.4284641669947,,,,,,,,701.8654590829974,,,,,,,,,,,,,,,,,,,,,,,left,1.0,5.54031179100275,,,,,,sub-023,1,random_dot,121.32492841877117,
left,left,54.0,0.0,27.0,right,0.0,3.0552044170326558,,accuracy,space,2.1003861659555696,,,,,,0.0,1.0,1.0,0.0,27.0,0.0,54.0,0.0,702.4373563749832,,,,,,,,,702.4291139580309,702.5269792919862,703.3193968330161,703.3110004169866,703.311600874993,703.3193968330161,703.3193968330161,703.3193968330161,706.378084667027,,,,,,,,,,,,,,,,,,,,,,,,,,,,,,,right,0.0,3.0552044170326558,,,,,,sub-023,1,random_dot,121.32492841877117,
right,right,55.0,1.0,27.0,right,1.0,1.9433164590154772,,accuracy,space,2.1003861659555696,,,,,,0.0,1.0,1.0,0.0,27.0,1.0,55.0,1.0,706.3867976249894,,,,,,,,,706.3786102919839,707.16758066701,707.9603887500125,707.9509155830019,707.9514467919944,707.9603887500125,707.9603887500125,707.9603887500125,709.9116958330269,,,,,,,,,,,,,,,,,,,,,,,,,,,,,,,right,1.0,1.9433164590154772,,,,,,sub-023,1,random_dot,121.32492841877117,
left,left,56.0,0.0,28.0,right,0.0,2.491680125007406,,accuracy,space,2.1003861659555696,,,,,,0.0,1.0,1.0,0.0,28.0,0.0,56.0,0.0,709.921257042035,,,,,,,,,709.9122149579925,710.7017936669872,711.5029237919953,711.4946942080278,711.495248457999,711.5029237919953,711.5029237919953,711.5029237919953,714.0022980420035,,,,,,,,,,,,,,,,,,,,,,,,,,,,,,,right,0.0,2.491680125007406,,,,,,sub-023,1,random_dot,121.32492841877117,
right,right,57.0,1.0,28.0,right,1.0,4.79360179201467,,accuracy,space,2.1003861659555696,,,,,,0.0,1.0,1.0,0.0,28.0,1.0,57.0,1.0,714.0104828330223,,,,,,,,,714.0027541249874,714.3510220000171,715.1532738329843,715.1448753330042,715.1454872080358,715.1532738329843,715.1532738329843,715.1532738329843,719.9526035420131,,,,,,,,,,,,,,,,,,,,,,,,,,,,,,,right,1.0,4.79360179201467,,,,,,sub-023,1,random_dot,121.32492841877117,
left,left,58.0,0.0,29.0,right,0.0,2.0062974159955047,,accuracy,space,2.1003861659555696,,,,,,0.0,1.0,1.0,0.0,29.0,0.0,58.0,0.0,719.9604430000181,,,,,,,,,719.9531041670125,720.3019947080174,721.0937955420231,721.084740374994,721.0853212079965,721.0937955420231,721.0937955420231,721.0937955420231,723.1023345830035,,,,,,,,,,,,,,,,,,,,,,,,,,,,,,,right,0.0,2.0062974159955047,,,,,,sub-023,1,random_dot,121.32492841877117,
right,right,59.0,1.0,29.0,right,1.0,2.517406500002835,,accuracy,space,2.1003861659555696,,,,,,0.0,1.0,1.0,0.0,29.0,1.0,59.0,1.0,723.1097957500024,,,,,,,,,723.1027631250327,723.9012813330046,724.6946644579875,724.6844232919975,724.685207542032,724.6946644579875,724.6946644579875,724.6946644579875,727.2194048329839,,,,,,,,,,,,,,,,,,,,,,,,,,,,,,,right,1.0,2.517406500002835,,,,,,sub-023,1,random_dot,121.32492841877117,
,,1.0,1.0,0.0,,,,,accuracy,space,2.1003861659555696,,,,,,0.0,1.0,1.0,0.0,,,,,,,,,,,,,,,,,,,,,,,,,,,,,,,,,,,,,,,,,,,,,,,,,,,,,,,,,,,,,sub-023,1,random_dot,121.32492841877117,
,,,,,,,,,,,,,,,,,,,,,,,,,,,,,,,,,,,,,,,,,,,,,,,,,,,,,,,,,,,,,,,,,,,,,,,,,,,,,727.2234782500309,727.2306983330054,732.2284362079808,732.2174185420154,sub-023,1,random_dot,121.32492841877117,
