direction,corrAns,randomInstr,practice_trials.thisRepN,practice_trials.thisTrialN,practice_trials.thisN,practice_trials.thisIndex,instr_trials.thisRepN,instr_trials.thisTrialN,instr_trials.thisN,instr_trials.thisIndex,test_trials.thisRepN,test_trials.thisTrialN,test_trials.thisN,test_trials.thisIndex,thisRow.t,notes,general_instruction.started,textGeneralInstr.started,respGeneralInstr.started,general_instruction.stopped,respGeneralInstr.keys,respGeneralInstr.rt,respGeneralInstr.duration,ITI.started,fixcross.started,fixcross.stopped,ITI.stopped,dots.started,backgroundDots.started,stimulusDots.started,respDots.started,dots.stopped,respDots.keys,respDots.corr,respDots.rt,respDots.duration,feedback.started,textFeedback.started,feedback.stopped,textFeedback.stopped,info.started,textInfo.started,keyRespInfo.started,info.stopped,keyRespInfo.keys,keyRespInfo.rt,keyRespInfo.duration,test_instruction.started,textTestInstr.started,respTestInstr.started,test_instruction.stopped,respTestInstr.keys,respTestInstr.rt,respTestInstr.duration,random_instruction.started,textRandomInstr.started,respRandomInstr.started,random_instruction.stopped,respRandomInstr.keys,respRandomInstr.rt,respRandomInstr.duration,goodbye.started,textGoodbye.started,textGoodbye.stopped,goodbye.stopped,participant,session,expName,frameRate,Unnamed: 73
,,,,,,,,,,,,,,,,,0.0395095999992918,0.0457074000005377,0.0457074000005377,13.62620440000319,space,28.66217370000959,,,,,,,,,,,,,,,,,,,,,,,,,,,,,,,,,,,,,,,,,,,,sub-174,1.0,random_dot,60.03957808894631,
left,left,,0.0,0.0,0.0,0.0,,,,,,,,,13.645971000005376,,,,,,,,,13.641514300004928,13.990767800001777,14.791159500004142,14.776054899994053,14.776110099992366,14.791159500004142,14.791159500004142,14.791159500004142,18.2608373999974,left,1.0,18.550970600001165,,18.262004599993816,18.281307400000514,18.77490889999899,,,,,,,,,,,,,,,,,,,,,,,,,,,sub-174,1.0,random_dot,60.03957808894631,
right,right,,0.0,1.0,1.0,1.0,,,,,,,,,18.79158350000216,,,,,,,,,18.7758310999925,19.574934999996916,20.37545009999303,20.360703600003035,20.360738599993056,20.37545009999303,20.37545009999303,20.37545009999303,21.278883799997857,right,1.0,15.980652500016731,,21.27978230000008,21.29179020000447,21.777343900001146,21.792266299991752,,,,,,,,,,,,,,,,,,,,,,,,,,sub-174,1.0,random_dot,60.03957808894631,
left,left,,1.0,0.0,2.0,0.0,,,,,,,,,21.792266299991752,,,,,,,,,21.77828959999897,22.59239580000576,23.392911899994942,23.376209499998367,23.37623470000108,23.392911899994942,23.392911899994942,23.392911899994942,24.91320719999203,left,1.0,16.600680000003194,,24.91438200000266,24.925861499999883,25.41075149999233,25.425972099998035,,,,,,,,,,,,,,,,,,,,,,,,,,sub-174,1.0,random_dot,60.03957808894631,
right,right,,1.0,1.0,3.0,1.0,,,,,,,,,25.425972099998035,,,,,,,,,25.41142150000087,26.62614890000259,27.42717840000114,27.41188179999881,27.412055499997223,27.42717840000114,27.42717840000114,27.42717840000114,28.661982499994338,right,1.0,16.324081100014155,,28.66310479999811,28.676774299994577,29.162183699998423,29.17650539999886,,,,,,,,,,,,,,,,,,,,,,,,,,sub-174,1.0,random_dot,60.03957808894631,
left,left,,2.0,0.0,4.0,0.0,,,,,,,,,29.17650539999886,,,,,,,,,29.16317679999338,29.52634670000407,30.327326999991783,30.31269500000053,30.3127586000046,30.327326999991783,30.327326999991783,30.327326999991783,31.36419439999736,left,1.0,16.11800930001482,,31.36518700000306,31.37708479999856,31.862658500002,31.87728820000484,,,,,,,,,,,,,,,,,,,,,,,,,,sub-174,1.0,random_dot,60.03957808894631,
right,right,,2.0,1.0,5.0,1.0,,,,,,,,,31.87728820000484,,,,,,,,,31.863694700005,32.67730589999701,33.477845999994315,33.461526300001424,33.461555200003204,33.477845999994315,33.477845999994315,33.477845999994315,34.264403900000616,left,0.0,15.87733930000104,,34.26511039999605,34.279570099999546,34.778065999998944,,,,,,,,,,,,,,,,,,,,,,,,,,,sub-174,1.0,random_dot,60.03957808894631,
left,left,,3.0,0.0,6.0,0.0,,,,,,,,,34.794599000000744,,,,,,,,,34.77915010000288,35.57787320000352,36.37868100000196,36.36319970000477,36.36324540000351,36.37868100000196,36.37868100000196,36.37868100000196,38.14908529999957,right,0.0,16.848575000010896,,38.1499468999973,38.161710999993375,38.64715910000086,38.662012500004494,,,,,,,,,,,,,,,,,,,,,,,,,,sub-174,1.0,random_dot,60.03957808894631,
right,right,,3.0,1.0,7.0,1.0,,,,,,,,,38.662012500004494,,,,,,,,,38.64819799999532,38.76183049999236,39.56319620000431,39.54730770000606,39.54733069999202,39.56319620000431,39.56319620000431,39.56319620000431,40.51598329999251,left,0.0,16.033576000016183,,40.51692609999736,40.52874589999556,41.01408799999626,41.02867099999276,,,,,,,,,,,,,,,,,,,,,,,,,,sub-174,1.0,random_dot,60.03957808894631,
right,right,,4.0,0.0,8.0,1.0,,,,,,,,,41.02867099999276,,,,,,,,,41.01482589999796,42.2290692999959,43.02985530000296,43.014034699997865,43.01407299999846,43.02985530000296,43.02985530000296,43.02985530000296,44.26621020000312,left,0.0,16.316772999998648,,44.26706100000592,44.279339500004426,44.7646209999948,44.77918440000212,,,,,,,,,,,,,,,,,,,,,,,,,,sub-174,1.0,random_dot,60.03957808894631,
left,left,,4.0,1.0,9.0,0.0,,,,,,,,,44.77918440000212,,,,,,,,,44.765369600005215,45.129641199993785,45.93012730000192,45.91496579999512,45.91501339999377,45.93012730000192,45.93012730000192,45.93012730000192,46.78252599999541,right,0.0,15.93356560000393,,46.78329360000498,46.79678999999305,47.2818355000054,47.2966499000031,,,,,,,,,,,,,,,,,,,,,,,,,,sub-174,1.0,random_dot,60.03957808894631,
left,left,,5.0,0.0,10.0,0.0,,,,,,,,,47.2966499000031,,,,,,,,,47.28283529999317,47.39675749999879,48.197165899997344,48.18196010000247,48.18201160000172,48.197165899997344,48.197165899997344,48.197165899997344,50.0835059999954,left,1.0,16.9655916000047,,50.08435509999981,50.09706139999616,50.582536300004,50.59736169999815,,,,,,,,,,,,,,,,,,,,,,,,,,sub-174,1.0,random_dot,60.03957808894631,
right,right,,5.0,1.0,11.0,1.0,,,,,,,,,50.59736169999815,,,,,,,,,50.58380189999298,50.94727029999194,51.74796399999468,51.73155339999357,51.73159169999417,51.74796399999468,51.74796399999468,51.74796399999468,53.39995629999612,left,0.0,16.743088300005184,,53.40073259999917,53.414090999998734,53.89971250000235,53.91448520000267,,,,,,,,,,,,,,,,,,,,,,,,,,sub-174,1.0,random_dot,60.03957808894631,
right,right,,6.0,0.0,12.0,1.0,,,,,,,,,53.91448520000267,,,,,,,,,53.90042419999372,54.26479250000557,55.06530410000414,55.04951919999439,55.049558600003365,55.06530410000414,55.06530410000414,55.06530410000414,58.20093890000135,right,1.0,18.21641990001081,,58.20155599999998,58.215217699995264,58.70096819999162,58.71564080000098,,,,,,,,,,,,,,,,,,,,,,,,,,sub-174,1.0,random_dot,60.03957808894631,
left,left,,6.0,1.0,13.0,0.0,,,,,,,,,58.71564080000098,,,,,,,,,58.701755699992646,59.06598420000228,59.86606879999454,59.85117769999488,59.85122909999336,59.86606879999454,59.86606879999454,59.86606879999454,62.66884889999346,left,1.0,17.880414800005383,,62.66957489999186,62.68291970000428,63.16707630000019,63.18255620000127,,,,,,,,,,,,,,,,,,,,,,,,,,sub-174,1.0,random_dot,60.03957808894631,
left,left,,7.0,0.0,14.0,0.0,,,,,,,,,63.18255620000127,,,,,,,,,63.16758490000211,63.28267469999264,64.08438020000176,64.06854269999894,64.06858180000563,64.08438020000176,64.08438020000176,64.08438020000176,66.2851798000047,left,1.0,17.288989499997115,,66.28571539999393,66.30009720000089,66.7843423000013,66.80030129999795,,,,,,,,,,,,,,,,,,,,,,,,,,sub-174,1.0,random_dot,60.03957808894631,
right,right,,7.0,1.0,15.0,1.0,,,,,,,,,66.80030129999795,,,,,,,,,66.78483809999307,67.60040700000536,68.40108589999727,68.3848813999939,68.38490760000423,68.40108589999727,68.40108589999727,68.40108589999727,70.33624989999225,right,1.0,17.024453900012304,,70.33685130000231,70.35055279999506,70.83518490000279,70.85117359999276,,,,,,,,,,,,,,,,,,,,,,,,,,sub-174,1.0,random_dot,60.03957808894631,
left,left,,8.0,0.0,16.0,0.0,,,,,,,,,70.85117359999276,,,,,,,,,70.83572879999701,72.05099459999474,72.85173009999562,72.83630729999277,72.83633530000225,72.85173009999562,72.85173009999562,72.85173009999562,75.50560150000092,right,0.0,17.734628200007137,,75.50648179999553,75.51821290000225,76.00406920000387,76.01852599999984,,,,,,,,,,,,,,,,,,,,,,,,,,sub-174,1.0,random_dot,60.03957808894631,
right,right,,8.0,1.0,17.0,1.0,,,,,,,,,76.01852599999984,,,,,,,,,76.00503580000077,76.11842879999313,76.9190849000006,76.90329550000024,76.90333370000008,76.9190849000006,76.9190849000006,76.9190849000006,78.37333570000192,left,0.0,16.546421000006376,,78.37433659999806,78.38528259999293,78.87073789999704,78.88603199999488,,,,,,,,,,,,,,,,,,,,,,,,,,sub-174,1.0,random_dot,60.03957808894631,
left,left,,9.0,0.0,18.0,0.0,,,,,,,,,78.88603199999488,,,,,,,,,78.87143040000228,78.98547359999793,79.7861441999994,79.7710170999926,79.77106470000581,79.7861441999994,79.7861441999994,79.7861441999994,82.15615520000574,right,0.0,17.4586915000109,,82.15697250000085,82.16967889999796,82.6547286999994,82.66997059999267,,,,,,,,,,,,,,,,,,,,,,,,,,sub-174,1.0,random_dot,60.03957808894631,
right,right,,9.0,1.0,19.0,1.0,,,,,,,,,82.66997059999267,,,,,,,,,82.65558439999586,82.76989909999247,83.57010670000454,83.55435700000089,83.55440169999201,83.57010670000454,83.57010670000454,83.57010670000454,84.82275449999725,left,0.0,16.330277700006263,,84.82358120000572,84.83661529999517,85.32127450000553,85.33690080000088,,,,,,,,,,,,,,,,,,,,,,,,,,sub-174,1.0,random_dot,60.03957808894631,
,,,,,,,,,,,,,,,,,,,,,,,,,,,,,,,,,,,,,,,,,85.32145499999751,85.33690080000088,85.33690080000088,89.5073379999958,space,19.260342099994887,,,,,,,,,,,,,,,,,,,,sub-174,1.0,random_dot,60.03957808894631,
,,,,,,,,,,,,,,,,,,,,,,,,,,,,,,,,,,,,,,,,,,,,,,,,89.50740740000037,89.52081590000307,89.52081590000307,96.40825649999896,space,21.973270200003757,,,,,,,,,,,,,sub-174,1.0,random_dot,60.03957808894631,
left,left,speed,,,,,0.0,0.0,0.0,1.0,0.0,0.0,0.0,0.0,99.12283409999507,,,,,,,,,99.11763890000292,99.2229398000054,100.02319209999403,100.00783620000584,100.00790389999749,100.02319209999403,100.02319209999403,100.02319209999403,100.46021940000357,left,1.0,15.52782920000027,,,,,,,,,,,,,,,,,,,,96.41464390000328,96.45441779999236,96.45441779999236,99.10810680000576,space,17.73614429999725,,,,,,sub-174,1.0,random_dot,60.03957808894631,
right,right,speed,,,,,0.0,0.0,0.0,1.0,0.0,1.0,1.0,1.0,100.47277569999278,,,,,,,,,100.46220929999254,100.82286580000071,101.62367679999444,101.6079885999934,101.60803420000592,101.62367679999444,101.62367679999444,101.62367679999444,102.20946179999736,right,1.0,15.664270900000702,,,,,,,,,,,,,,,,,,,,,,,,,,,,,,,sub-174,1.0,random_dot,60.03957808894631,
left,left,speed,,,,,0.0,0.0,0.0,1.0,1.0,0.0,2.0,0.0,102.223049799999,,,,,,,,,102.21154780000506,103.02340730000287,103.82417459999851,103.80849690000468,103.80854630000248,103.82417459999851,103.82417459999851,103.82417459999851,104.64380599999276,left,1.0,15.906764900006236,,,,,,,,,,,,,,,,,,,,,,,,,,,,,,,sub-174,1.0,random_dot,60.03957808894631,
right,right,speed,,,,,0.0,0.0,0.0,1.0,1.0,1.0,3.0,1.0,104.65694610000357,,,,,,,,,104.64574559999164,105.0068661999976,105.80768660000469,105.79120589999366,105.79123679999611,105.80768660000469,105.80768660000469,105.80768660000469,107.37745230000291,right,1.0,16.648300000000745,,,,,,,,,,,,,,,,,,,,,,,,,,,,,,,sub-174,1.0,random_dot,60.03957808894631,
left,left,speed,,,,,0.0,0.0,0.0,1.0,2.0,0.0,4.0,0.0,107.39097369999216,,,,,,,,,107.37888609999207,108.5909118999989,109.3916623999976,109.37554320000343,109.37559209999743,109.3916623999976,109.3916623999976,109.3916623999976,110.62871249999444,right,0.0,16.327943099997356,,,,,,,,,,,,,,,,,,,,,,,,,,,,,,,sub-174,1.0,random_dot,60.03957808894631,
right,right,speed,,,,,0.0,0.0,0.0,1.0,2.0,1.0,5.0,1.0,110.64125359999888,,,,,,,,,110.63046590000158,110.99160219999612,111.79222129999836,111.77691119999508,111.77696980000474,111.79222129999836,111.79222129999836,111.79222129999836,112.99553240000388,left,0.0,16.292208400001982,,,,,,,,,,,,,,,,,,,,,,,,,,,,,,,sub-174,1.0,random_dot,60.03957808894631,
right,right,speed,,,,,0.0,0.0,0.0,1.0,3.0,0.0,6.0,1.0,113.00832900000388,,,,,,,,,112.99712699999507,114.2087016000005,115.00940880000417,114.99438390000432,114.99444710000536,115.00940880000417,115.00940880000417,115.00940880000417,116.64604629999668,right,1.0,16.720404099993175,,,,,,,,,,,,,,,,,,,,,,,,,,,,,,,sub-174,1.0,random_dot,60.03957808894631,
left,left,speed,,,,,0.0,0.0,0.0,1.0,3.0,1.0,7.0,0.0,116.6587775999942,,,,,,,,,116.64804169999844,117.8598917000054,118.66021109999564,118.64488350000464,118.64490990000196,118.66021109999564,118.66021109999564,118.66021109999564,120.49595409999893,left,1.0,16.925617100001546,,,,,,,,,,,,,,,,,,,,,,,,,,,,,,,sub-174,1.0,random_dot,60.03957808894631,
right,right,speed,,,,,0.0,0.0,0.0,1.0,4.0,0.0,8.0,1.0,120.50954260000437,,,,,,,,,120.497197100005,121.71010630000092,122.5105698999978,122.49482179999175,122.49485049999204,122.5105698999978,122.5105698999978,122.5105698999978,123.84594909999578,right,1.0,16.418269300018437,,,,,,,,,,,,,,,,,,,,,,,,,,,,,,,sub-174,1.0,random_dot,60.03957808894631,
left,left,speed,,,,,0.0,0.0,0.0,1.0,4.0,1.0,9.0,0.0,123.86012509999271,,,,,,,,,123.8470665000059,125.06044210000256,125.86129070000608,125.84564369999862,125.84567680000328,125.86129070000608,125.86129070000608,125.86129070000608,126.84688620000088,right,0.0,16.072761600007652,,,,,,,,,,,,,,,,,,,,,,,,,,,,,,,sub-174,1.0,random_dot,60.03957808894631,
left,left,speed,,,,,0.0,0.0,0.0,1.0,5.0,0.0,10.0,0.0,126.86061180000252,,,,,,,,,126.84805539999796,127.21080129999608,128.01192530000117,127.9969032999943,127.99694969999835,128.01192530000117,128.01192530000117,128.01192530000117,129.73121959999844,left,1.0,16.8018996000028,,,,,,,,,,,,,,,,,,,,,,,,,,,,,,,sub-174,1.0,random_dot,60.03957808894631,
right,right,speed,,,,,0.0,0.0,0.0,1.0,5.0,1.0,11.0,1.0,129.74454369999876,,,,,,,,,129.7327215999976,130.54505649999192,131.3458509000047,131.3291457000014,131.32917270000326,131.3458509000047,131.3458509000047,131.3458509000047,132.964793799998,left,0.0,16.70441250001022,,,,,,,,,,,,,,,,,,,,,,,,,,,,,,,sub-174,1.0,random_dot,60.03957808894631,
left,left,speed,,,,,0.0,0.0,0.0,1.0,6.0,0.0,12.0,0.0,132.97872719999577,,,,,,,,,132.96644210000522,133.3286711999972,134.1296824000019,134.11506050000023,134.1151128000056,134.1296824000019,134.1296824000019,134.1296824000019,135.5327615999995,right,0.0,16.49282930001209,,,,,,,,,,,,,,,,,,,,,,,,,,,,,,,sub-174,1.0,random_dot,60.03957808894631,
right,right,speed,,,,,0.0,0.0,0.0,1.0,6.0,1.0,13.0,1.0,135.545721699993,,,,,,,,,135.53408820000186,135.8959928999975,136.69650599999295,136.6811083999928,136.68117500000517,136.69650599999295,136.69650599999295,136.69650599999295,138.1330020000023,right,1.0,16.518848300009267,,,,,,,,,,,,,,,,,,,,,,,,,,,,,,,sub-174,1.0,random_dot,60.03957808894631,
left,left,speed,,,,,0.0,0.0,0.0,1.0,7.0,0.0,14.0,0.0,138.1460953999922,,,,,,,,,138.13440830000036,138.49641629999678,139.29764309999882,139.28181739999854,139.28186439999263,139.29764309999882,139.29764309999882,139.29764309999882,140.60008999999263,left,1.0,16.38131520000752,,,,,,,,,,,,,,,,,,,,,,,,,,,,,,,sub-174,1.0,random_dot,60.03957808894631,
right,right,speed,,,,,0.0,0.0,0.0,1.0,7.0,1.0,15.0,1.0,140.61326470000495,,,,,,,,,140.60158909999882,140.9632239000057,141.76394360000268,141.7486796000012,141.74878629999876,141.76394360000268,141.76394360000268,141.76394360000268,143.16649039999174,right,1.0,16.489995000010822,,,,,,,,,,,,,,,,,,,,,,,,,,,,,,,sub-174,1.0,random_dot,60.03957808894631,
left,left,speed,,,,,0.0,0.0,0.0,1.0,8.0,0.0,16.0,0.0,143.18058519999613,,,,,,,,,143.1677104999981,143.2812544000044,144.08139029999438,144.06498189999547,144.0650100000057,144.08139029999438,144.08139029999438,144.08139029999438,145.5178203999967,left,1.0,16.515420299998368,,,,,,,,,,,,,,,,,,,,,,,,,,,,,,,sub-174,1.0,random_dot,60.03957808894631,
right,right,speed,,,,,0.0,0.0,0.0,1.0,8.0,1.0,17.0,1.0,145.53112869999313,,,,,,,,,145.519472999993,146.33130469999742,147.13145030000305,147.11559970000235,147.11564109999745,147.13145030000305,147.13145030000305,147.13145030000305,148.0850655999966,right,1.0,16.039712800004054,,,,,,,,,,,,,,,,,,,,,,,,,,,,,,,sub-174,1.0,random_dot,60.03957808894631,
left,left,speed,,,,,0.0,0.0,0.0,1.0,9.0,0.0,18.0,0.0,148.0978710999916,,,,,,,,,148.086687300005,148.4483021000051,149.2487303999951,149.23282489999838,149.23286370000278,149.2487303999951,149.2487303999951,149.2487303999951,150.2867111999949,right,0.0,16.12913319999643,,,,,,,,,,,,,,,,,,,,,,,,,,,,,,,sub-174,1.0,random_dot,60.03957808894631,
right,right,speed,,,,,0.0,0.0,0.0,1.0,9.0,1.0,19.0,1.0,150.29830389999552,,,,,,,,,150.2889642999944,151.49875630000315,152.29933300000266,152.28386670000327,152.28391840000404,152.29933300000266,152.29933300000266,152.29933300000266,154.2020707000047,left,0.0,16.984198999998625,,,,,,,,,,,,,,,,,,,,,,,,,,,,,,,sub-174,1.0,random_dot,60.03957808894631,
left,left,speed,,,,,0.0,0.0,0.0,1.0,10.0,0.0,20.0,0.0,154.21592869999586,,,,,,,,,154.20343310000317,154.5659134000016,155.3664415999956,155.3515727000049,155.35162869999476,155.3664415999956,155.3664415999956,155.3664415999956,156.73647459999484,right,0.0,16.447928400011733,,,,,,,,,,,,,,,,,,,,,,,,,,,,,,,sub-174,1.0,random_dot,60.03957808894631,
right,right,speed,,,,,0.0,0.0,0.0,1.0,10.0,1.0,21.0,1.0,156.74949119999656,,,,,,,,,156.73819439999352,157.54997989999538,158.35038899999927,158.33521869999822,158.33533600000374,158.35038899999927,158.35038899999927,158.35038899999927,161.25376880000113,right,1.0,17.979491200007033,,,,,,,,,,,,,,,,,,,,,,,,,,,,,,,sub-174,1.0,random_dot,60.03957808894631,
left,left,speed,,,,,0.0,0.0,0.0,1.0,11.0,0.0,22.0,0.0,161.2669578000059,,,,,,,,,161.25541889999295,162.06692389999807,162.86744679999538,162.85385859999224,162.85394869999436,162.86744679999538,162.86744679999538,162.86744679999538,164.13845319999382,right,0.0,16.362604000009014,,,,,,,,,,,,,,,,,,,,,,,,,,,,,,,sub-174,1.0,random_dot,60.03957808894631,
right,right,speed,,,,,0.0,0.0,0.0,1.0,11.0,1.0,23.0,1.0,164.15084919999936,,,,,,,,,164.1399742999929,164.95133080000232,165.7515463000018,165.73587119999866,165.73590349999722,165.7515463000018,165.7515463000018,165.7515463000018,167.13749399999506,left,0.0,16.476488000000245,,,,,,,,,,,,,,,,,,,,,,,,,,,,,,,sub-174,1.0,random_dot,60.03957808894631,
left,left,speed,,,,,0.0,0.0,0.0,1.0,12.0,0.0,24.0,0.0,167.15109610000218,,,,,,,,,167.13959229999455,167.25174429999606,168.0520647999947,168.03704890000515,168.0371124999947,168.0520647999947,168.0520647999947,168.0520647999947,170.35571590000472,left,1.0,17.38907810000819,,,,,,,,,,,,,,,,,,,,,,,,,,,,,,,sub-174,1.0,random_dot,60.03957808894631,
right,right,speed,,,,,0.0,0.0,0.0,1.0,12.0,1.0,25.0,1.0,170.36867630000052,,,,,,,,,170.35738119999587,170.46859020000556,171.2692786999978,171.25407929999346,171.25412660000438,171.2692786999978,171.2692786999978,171.2692786999978,173.33889970000018,left,0.0,17.155153300016536,,,,,,,,,,,,,,,,,,,,,,,,,,,,,,,sub-174,1.0,random_dot,60.03957808894631,
left,left,speed,,,,,0.0,0.0,0.0,1.0,13.0,0.0,26.0,0.0,173.3527832999971,,,,,,,,,173.34028429999307,173.45276600000216,174.25335359999735,174.23808130000543,174.23813189999782,174.25335359999735,174.25335359999735,174.25335359999735,175.9066085999948,left,1.0,16.743712499999674,,,,,,,,,,,,,,,,,,,,,,,,,,,,,,,sub-174,1.0,random_dot,60.03957808894631,
right,right,speed,,,,,0.0,0.0,0.0,1.0,13.0,1.0,27.0,1.0,175.91941899999802,,,,,,,,,175.9084351000056,176.0199411999929,176.82030340000347,176.8047915999923,176.80482720000143,176.82030340000347,176.82030340000347,176.82030340000347,177.64041940000607,left,0.0,15.909550800017314,,,,,,,,,,,,,,,,,,,,,,,,,,,,,,,sub-174,1.0,random_dot,60.03957808894631,
left,left,speed,,,,,0.0,0.0,0.0,1.0,14.0,0.0,28.0,0.0,177.65327520000574,,,,,,,,,177.64238750000368,177.7534633000032,178.55439560000377,178.53848990000552,178.53853669999808,178.55439560000377,178.55439560000377,178.55439560000377,179.6406324999989,left,1.0,16.17148060000909,,,,,,,,,,,,,,,,,,,,,,,,,,,,,,,sub-174,1.0,random_dot,60.03957808894631,
right,right,speed,,,,,0.0,0.0,0.0,1.0,14.0,1.0,29.0,1.0,179.6535797999968,,,,,,,,,179.64265569999407,180.8540229999926,181.65448450000255,181.6388382000005,181.63895920000505,181.65448450000255,181.65448450000255,181.65448450000255,182.3568099999975,right,1.0,15.791872600006172,,,,,,,,,,,,,,,,,,,,,,,,,,,,,,,sub-174,1.0,random_dot,60.03957808894631,
right,right,speed,,,,,0.0,0.0,0.0,1.0,15.0,0.0,30.0,1.0,182.37067509999903,,,,,,,,,182.358848399992,183.5711089999968,184.3717586999992,184.35657560000251,184.356626599998,184.3717586999992,184.3717586999992,184.3717586999992,185.4907513999933,right,1.0,16.20177369999874,,,,,,,,,,,,,,,,,,,,,,,,,,,,,,,sub-174,1.0,random_dot,60.03957808894631,
left,left,speed,,,,,0.0,0.0,0.0,1.0,15.0,1.0,31.0,0.0,185.5048454999924,,,,,,,,,185.49178759999631,186.30496540000604,187.10555409999503,187.0900147999928,187.09007459999705,187.10555409999503,187.10555409999503,187.10555409999503,189.52426999999443,left,1.0,17.507563700011815,,,,,,,,,,,,,,,,,,,,,,,,,,,,,,,sub-174,1.0,random_dot,60.03957808894631,
left,left,speed,,,,,0.0,0.0,0.0,1.0,16.0,0.0,32.0,0.0,189.53890850000607,,,,,,,,,189.52564690000145,190.33931939999457,191.13985560000583,191.12332389999935,191.12335039999743,191.13985560000583,191.13985560000583,191.13985560000583,192.1580303999945,left,1.0,16.09847600001376,,,,,,,,,,,,,,,,,,,,,,,,,,,,,,,sub-174,1.0,random_dot,60.03957808894631,
right,right,speed,,,,,0.0,0.0,0.0,1.0,16.0,1.0,33.0,1.0,192.17243259999668,,,,,,,,,192.15901960000335,192.97276599999168,193.77393250000023,193.7582298000052,193.7582667999959,193.77393250000023,193.77393250000023,193.77393250000023,195.32682119999663,right,1.0,16.629041599997436,,,,,,,,,,,,,,,,,,,,,,,,,,,,,,,sub-174,1.0,random_dot,60.03957808894631,
left,left,speed,,,,,0.0,0.0,0.0,1.0,17.0,0.0,34.0,0.0,195.33985419999223,,,,,,,,,195.32843989999677,195.69016739999643,196.49056829999608,196.47445100000184,196.47449239999696,196.49056829999608,196.49056829999608,196.49056829999608,197.59364110000024,left,1.0,16.185158100008266,,,,,,,,,,,,,,,,,,,,,,,,,,,,,,,sub-174,1.0,random_dot,60.03957808894631,
right,right,speed,,,,,0.0,0.0,0.0,1.0,17.0,1.0,35.0,1.0,197.6068910000031,,,,,,,,,197.5951673999953,198.807195699992,199.607903199998,199.59264370000164,199.5926976000046,199.607903199998,199.607903199998,199.607903199998,201.02699709999436,right,1.0,16.503117200001725,,,,,,,,,,,,,,,,,,,,,,,,,,,,,,,sub-174,1.0,random_dot,60.03957808894631,
left,left,speed,,,,,0.0,0.0,0.0,1.0,18.0,0.0,36.0,0.0,201.0411163999961,,,,,,,,,201.02855570000247,202.24120699999912,203.04149429999237,203.0261645999999,203.02620949999252,203.04149429999237,203.04149429999237,203.04149429999237,204.46074929999304,left,1.0,16.49942390000797,,,,,,,,,,,,,,,,,,,,,,,,,,,,,,,sub-174,1.0,random_dot,60.03957808894631,
right,right,speed,,,,,0.0,0.0,0.0,1.0,18.0,1.0,37.0,1.0,204.4747151000047,,,,,,,,,204.46204399999988,204.8246745999932,205.6261369999993,205.61027489999836,205.61031429999275,205.6261369999993,205.6261369999993,205.6261369999993,207.04502489999868,left,0.0,16.500740800009225,,,,,,,,,,,,,,,,,,,,,,,,,,,,,,,sub-174,1.0,random_dot,60.03957808894631,
left,left,speed,,,,,0.0,0.0,0.0,1.0,19.0,0.0,38.0,0.0,207.05858470000385,,,,,,,,,207.04636569999275,208.2588928000041,209.05923299999267,209.0441076999996,209.04416589999164,209.05923299999267,209.05923299999267,209.05923299999267,210.0120656999934,left,1.0,16.0348040000099,,,,,,,,,,,,,,,,,,,,,,,,,,,,,,,sub-174,1.0,random_dot,60.03957808894631,
right,right,speed,,,,,0.0,0.0,0.0,1.0,19.0,1.0,39.0,1.0,210.02538710000223,,,,,,,,,210.01396979999845,211.22582130000228,212.02635159999767,212.0108820000023,212.0109175999969,212.02635159999767,212.02635159999767,212.02635159999767,213.64592929999344,right,1.0,16.70420930000546,,,,,,,,,,,,,,,,,,,,,,,,,,,,,,,sub-174,1.0,random_dot,60.03957808894631,
right,right,speed,,,,,0.0,0.0,0.0,1.0,20.0,0.0,40.0,1.0,213.659797100001,,,,,,,,,213.6472365999944,213.75993119999475,214.5603448000038,214.5452876000054,214.54535820000456,214.5603448000038,214.5603448000038,214.5603448000038,215.8638770999969,left,0.0,16.38689570000861,,,,,,,,,,,,,,,,,,,,,,,,,,,,,,,sub-174,1.0,random_dot,60.03957808894631,
left,left,speed,,,,,0.0,0.0,0.0,1.0,20.0,1.0,41.0,0.0,215.87672620000376,,,,,,,,,215.86543489999892,216.6769860999921,217.4772687999939,217.461710699994,217.46177559999344,217.4772687999939,217.4772687999939,217.4772687999939,218.4469112999941,left,1.0,16.06131610000739,,,,,,,,,,,,,,,,,,,,,,,,,,,,,,,sub-174,1.0,random_dot,60.03957808894631,
left,left,speed,,,,,0.0,0.0,0.0,1.0,21.0,0.0,42.0,0.0,218.46046950000164,,,,,,,,,218.4481815000036,218.8109245999949,219.61131749999183,219.5962059000012,219.5962547999952,219.61131749999183,219.61131749999183,219.61131749999183,220.88133910000036,right,0.0,16.35963340001763,,,,,,,,,,,,,,,,,,,,,,,,,,,,,,,sub-174,1.0,random_dot,60.03957808894631,
right,right,speed,,,,,0.0,0.0,0.0,1.0,21.0,1.0,43.0,1.0,220.89430169999832,,,,,,,,,220.8829665999947,220.994623000006,221.79513129999395,221.77977150000515,221.7798202999984,221.79513129999395,221.79513129999395,221.79513129999395,222.614315999992,right,1.0,15.909985200007212,,,,,,,,,,,,,,,,,,,,,,,,,,,,,,,sub-174,1.0,random_dot,60.03957808894631,
right,right,speed,,,,,0.0,0.0,0.0,1.0,22.0,0.0,44.0,1.0,222.6275930999982,,,,,,,,,222.61601280000468,223.4280202999944,224.2285196000012,224.2139470999973,224.21399600000584,224.2285196000012,224.2285196000012,224.2285196000012,225.4653871000046,left,0.0,16.317960100001073,,,,,,,,,,,,,,,,,,,,,,,,,,,,,,,sub-174,1.0,random_dot,60.03957808894631,
left,left,speed,,,,,0.0,0.0,0.0,1.0,22.0,1.0,45.0,0.0,225.4783275999944,,,,,,,,,225.46703949999937,226.67876919999253,227.4792054999998,227.46387940000568,227.46392389999528,227.4792054999998,227.4792054999998,227.4792054999998,228.2645598999952,right,0.0,15.866205099999206,,,,,,,,,,,,,,,,,,,,,,,,,,,,,,,sub-174,1.0,random_dot,60.03957808894631,
left,left,speed,,,,,0.0,0.0,0.0,1.0,23.0,0.0,46.0,0.0,228.27876010000185,,,,,,,,,228.2661255999992,228.62908549999705,229.42994620000536,229.41442570000072,229.41447200000405,229.42994620000536,229.42994620000536,229.42994620000536,230.16591500000504,right,0.0,15.816253000011784,,,,,,,,,,,,,,,,,,,,,,,,,,,,,,,sub-174,1.0,random_dot,60.03957808894631,
right,right,speed,,,,,0.0,0.0,0.0,1.0,23.0,1.0,47.0,1.0,230.17932130000557,,,,,,,,,230.1675641000038,231.37969800000428,232.1800726999936,232.16517429999655,232.16527149999456,232.1800726999936,232.1800726999936,232.1800726999936,233.41655549999268,left,0.0,16.326731100009056,,,,,,,,,,,,,,,,,,,,,,,,,,,,,,,sub-174,1.0,random_dot,60.03957808894631,
left,left,speed,,,,,0.0,0.0,0.0,1.0,24.0,0.0,48.0,0.0,233.4298140000028,,,,,,,,,233.41822399999364,234.2300221000041,235.0307371999952,235.0152969000046,235.01534009999887,235.0307371999952,235.0307371999952,235.0307371999952,236.26699059999373,left,1.0,16.32138560000749,,,,,,,,,,,,,,,,,,,,,,,,,,,,,,,sub-174,1.0,random_dot,60.03957808894631,
right,right,speed,,,,,0.0,0.0,0.0,1.0,24.0,1.0,49.0,1.0,236.28044950000185,,,,,,,,,236.26832809999175,237.08044320000045,237.8810852000024,237.86607750000255,237.86612479999891,237.8810852000024,237.8810852000024,237.8810852000024,238.9510994000011,right,1.0,16.146940600010566,,,,,,,,,,,,,,,,,,,,,,,,,,,,,,,sub-174,1.0,random_dot,60.03957808894631,
left,left,speed,,,,,0.0,0.0,0.0,1.0,25.0,0.0,50.0,0.0,238.9644088999921,,,,,,,,,238.9528697999922,239.31425070000117,240.1154453999916,240.0986603999918,240.09869820000316,240.1154453999916,240.1154453999916,240.1154453999916,240.81682880000156,right,0.0,15.782239700012724,,,,,,,,,,,,,,,,,,,,,,,,,,,,,,,sub-174,1.0,random_dot,60.03957808894631,
right,right,speed,,,,,0.0,0.0,0.0,1.0,25.0,1.0,51.0,1.0,240.83123690000505,,,,,,,,,240.81784809999223,241.632371899992,242.432183900004,242.41562669999257,242.4156523999991,242.432183900004,242.432183900004,242.432183900004,243.6344381999952,left,0.0,16.283369200013112,,,,,,,,,,,,,,,,,,,,,,,,,,,,,,,sub-174,1.0,random_dot,60.03957808894631,
right,right,speed,,,,,0.0,0.0,0.0,1.0,26.0,0.0,52.0,1.0,243.64854809999812,,,,,,,,,243.6356000999949,244.4492035000003,245.24941029999167,245.23359049999272,245.2336301000032,245.24941029999167,245.24941029999167,245.24941029999167,246.30283749999944,right,1.0,16.129886600014288,,,,,,,,,,,,,,,,,,,,,,,,,,,,,,,sub-174,1.0,random_dot,60.03957808894631,
left,left,speed,,,,,0.0,0.0,0.0,1.0,26.0,1.0,53.0,0.0,246.31617629999528,,,,,,,,,246.304461599997,246.665577199994,247.46648509999795,247.4499433000019,247.44996850000464,247.46648509999795,247.46648509999795,247.46648509999795,248.2356468999933,right,0.0,15.851766100007808,,,,,,,,,,,,,,,,,,,,,,,,,,,,,,,sub-174,1.0,random_dot,60.03957808894631,
right,right,speed,,,,,0.0,0.0,0.0,1.0,27.0,0.0,54.0,1.0,248.2495229000051,,,,,,,,,248.23713939999288,248.34938390000025,249.1500015000056,249.13454240000283,249.1346598999953,249.1500015000056,249.1500015000056,249.1500015000056,250.3867884999927,right,1.0,16.317610400001286,,,,,,,,,,,,,,,,,,,,,,,,,,,,,,,sub-174,1.0,random_dot,60.03957808894631,
left,left,speed,,,,,0.0,0.0,0.0,1.0,27.0,1.0,55.0,0.0,250.3998706999992,,,,,,,,,250.38848729999157,250.7499657000008,251.550387299998,251.5350341000012,251.53514530000396,251.550387299998,251.550387299998,251.550387299998,252.8866406000016,left,1.0,16.41436340000655,,,,,,,,,,,,,,,,,,,,,,,,,,,,,,,sub-174,1.0,random_dot,60.03957808894631,
left,left,speed,,,,,0.0,0.0,0.0,1.0,28.0,0.0,56.0,0.0,252.9002348999929,,,,,,,,,252.88881720000063,253.7008569000027,254.50108980000368,254.4859292000037,254.4859884000034,254.50108980000368,254.50108980000368,254.50108980000368,255.55389300000388,left,1.0,16.137150399998063,,,,,,,,,,,,,,,,,,,,,,,,,,,,,,,sub-174,1.0,random_dot,60.03957808894631,
right,right,speed,,,,,0.0,0.0,0.0,1.0,28.0,1.0,57.0,1.0,255.56727679999312,,,,,,,,,255.55580800000465,255.6673543999932,256.467879200005,256.452541000006,256.4525939000014,256.467879200005,256.467879200005,256.467879200005,257.53778470000543,right,1.0,16.146426100007375,,,,,,,,,,,,,,,,,,,,,,,,,,,,,,,sub-174,1.0,random_dot,60.03957808894631,
right,right,speed,,,,,0.0,0.0,0.0,1.0,29.0,0.0,58.0,1.0,257.5512355999963,,,,,,,,,257.539503299995,258.75145179999527,259.55194639999536,259.53692189999856,259.53697329999704,259.55194639999536,259.55194639999536,259.55194639999536,260.3555694999959,left,0.0,15.886082200013334,,,,,,,,,,,,,,,,,,,,,,,,,,,,,,,sub-174,1.0,random_dot,60.03957808894631,
left,left,speed,,,,,0.0,0.0,0.0,1.0,29.0,1.0,59.0,0.0,260.3682028000039,,,,,,,,,260.3571004999976,260.718458000003,261.5189987000049,261.50321819999954,261.50327169999946,261.5189987000049,261.5189987000049,261.5189987000049,262.4713866999955,left,1.0,16.02936660000705,,,,,,,,,,,,,,,,,,,,,,,,,,,,,,,sub-174,1.0,random_dot,60.03957808894631,
,,speed,,,,,0.0,0.0,0.0,1.0,,,,,,,,,,,,,,,,,,,,,,,,,,,,,,,,,,,,,,,,,,,,,,,,,,,,,,,,sub-174,1.0,random_dot,60.03957808894631,
right,right,accuracy,,,,,0.0,1.0,1.0,0.0,0.0,0.0,0.0,1.0,268.5693240999972,,,,,,,,,268.5631330000033,269.3699029999989,270.1704366000049,270.15425510000205,270.15428390000307,270.1704366000049,270.1704366000049,270.1704366000049,271.3891325000004,right,1.0,16.297716500004753,,,,,,,,,,,,,,,,,,,,262.4728880000039,262.4858760999923,262.4858760999923,268.55490329999884,space,21.158633500002907,,,,,,sub-174,1.0,random_dot,60.03957808894631,
left,left,accuracy,,,,,0.0,1.0,1.0,0.0,0.0,1.0,1.0,0.0,271.4034929000045,,,,,,,,,271.39069590000145,272.2039691999962,273.004202600001,272.9891561999975,272.9892080999998,273.004202600001,273.004202600001,273.004202600001,274.89012690000527,left,1.0,16.972801399999298,,,,,,,,,,,,,,,,,,,,,,,,,,,,,,,sub-174,1.0,random_dot,60.03957808894631,
left,left,accuracy,,,,,0.0,1.0,1.0,0.0,1.0,0.0,2.0,0.0,274.90447749999294,,,,,,,,,274.8916453999991,275.254436999996,276.05479890000424,276.03918890000205,276.03923169999325,276.05479890000424,276.05479890000424,276.05479890000424,278.1737518000009,left,1.0,17.20843130000867,,,,,,,,,,,,,,,,,,,,,,,,,,,,,,,sub-174,1.0,random_dot,60.03957808894631,
right,right,accuracy,,,,,0.0,1.0,1.0,0.0,1.0,1.0,3.0,1.0,278.18800389999524,,,,,,,,,278.1749630999984,279.3882171000005,280.18885720000253,280.1728734999924,280.1729159999959,280.18885720000253,280.18885720000253,280.18885720000253,282.6582803000056,right,1.0,17.560124199997517,,,,,,,,,,,,,,,,,,,,,,,,,,,,,,,sub-174,1.0,random_dot,60.03957808894631,
left,left,accuracy,,,,,0.0,1.0,1.0,0.0,2.0,0.0,4.0,0.0,282.67240599999786,,,,,,,,,282.6595842999959,283.4722194999922,284.2730331999919,284.2576638000028,284.25771520000126,284.2730331999919,284.2730331999919,284.2730331999919,286.10923970000295,left,1.0,16.91990610001085,,,,,,,,,,,,,,,,,,,,,,,,,,,,,,,sub-174,1.0,random_dot,60.03957808894631,
right,right,accuracy,,,,,0.0,1.0,1.0,0.0,2.0,1.0,5.0,1.0,286.12271090000286,,,,,,,,,286.11104439999326,286.9231216000044,287.7237524999946,287.7073085000011,287.70733889999974,287.7237524999946,287.7237524999946,287.7237524999946,290.2606003999972,right,1.0,17.614907199997106,,,,,,,,,,,,,,,,,,,,,,,,,,,,,,,sub-174,1.0,random_dot,60.03957808894631,
right,right,accuracy,,,,,0.0,1.0,1.0,0.0,3.0,0.0,6.0,1.0,290.2734020999924,,,,,,,,,290.2621388999978,290.6235008999938,291.42406449999544,291.40907219999644,291.40911930000584,291.42406449999544,291.42406449999544,291.42406449999544,294.39322840000386,left,0.0,18.05723849999777,,,,,,,,,,,,,,,,,,,,,,,,,,,,,,,sub-174,1.0,random_dot,60.03957808894631,
left,left,accuracy,,,,,0.0,1.0,1.0,0.0,3.0,1.0,7.0,0.0,294.4074679000041,,,,,,,,,294.39458160000504,295.60745729999326,296.4084806000028,296.3925142999942,296.39255469999625,296.4084806000028,296.4084806000028,296.4084806000028,299.07849679999345,left,1.0,17.760553300002357,,,,,,,,,,,,,,,,,,,,,,,,,,,,,,,sub-174,1.0,random_dot,60.03957808894631,
left,left,accuracy,,,,,0.0,1.0,1.0,0.0,4.0,0.0,8.0,0.0,299.0915973999945,,,,,,,,,299.08006860000023,300.29201340000145,301.09271660000377,301.07583899999736,301.0758629000047,301.09271660000377,301.09271660000377,301.09271660000377,303.0946621000039,right,0.0,17.080519200011622,,,,,,,,,,,,,,,,,,,,,,,,,,,,,,,sub-174,1.0,random_dot,60.03957808894631,
right,right,accuracy,,,,,0.0,1.0,1.0,0.0,4.0,1.0,9.0,1.0,303.10911560000386,,,,,,,,,303.09593779999705,304.3091366000008,305.10999670000456,305.0937236000027,305.0937497999985,305.10999670000456,305.10999670000456,305.10999670000456,307.07870480000565,right,1.0,17.046419600010267,,,,,,,,,,,,,,,,,,,,,,,,,,,,,,,sub-174,1.0,random_dot,60.03957808894631,
right,right,accuracy,,,,,0.0,1.0,1.0,0.0,5.0,0.0,10.0,1.0,307.093320999993,,,,,,,,,307.07973050000146,308.29372349999903,309.09401849999267,309.0793745999981,309.0794353999954,309.09401849999267,309.09401849999267,309.09401849999267,310.7637185000058,right,1.0,16.756111800001236,,,,,,,,,,,,,,,,,,,,,,,,,,,,,,,sub-174,1.0,random_dot,60.03957808894631,
left,left,accuracy,,,,,0.0,1.0,1.0,0.0,5.0,1.0,11.0,0.0,310.777324900002,,,,,,,,,310.7652187000058,311.1271478999988,311.9279846999998,311.9130820999999,311.9131483999954,311.9279846999998,311.9279846999998,311.9279846999998,314.0146039999963,left,1.0,17.164766999994754,,,,,,,,,,,,,,,,,,,,,,,,,,,,,,,sub-174,1.0,random_dot,60.03957808894631,
right,right,accuracy,,,,,0.0,1.0,1.0,0.0,6.0,0.0,12.0,1.0,314.02768630000355,,,,,,,,,314.0169881000038,314.1276457000058,314.92849629999546,314.91350120000425,314.9135516999959,314.92849629999546,314.92849629999546,314.92849629999546,317.431021299999,right,1.0,17.58057830001053,,,,,,,,,,,,,,,,,,,,,,,,,,,,,,,sub-174,1.0,random_dot,60.03957808894631,
left,left,accuracy,,,,,0.0,1.0,1.0,0.0,6.0,1.0,13.0,0.0,317.4447247999924,,,,,,,,,317.433260299993,318.2454205999966,319.04585140000563,319.0306391000049,319.0306983000046,319.04585140000563,319.04585140000563,319.04585140000563,320.81505999999354,right,0.0,16.85419160001038,,,,,,,,,,,,,,,,,,,,,,,,,,,,,,,sub-174,1.0,random_dot,60.03957808894631,
right,right,accuracy,,,,,0.0,1.0,1.0,0.0,7.0,0.0,14.0,1.0,320.82887630000187,,,,,,,,,320.81654739999794,321.6295093999943,322.4295753000042,322.4159232999955,322.41596919999574,322.4295753000042,322.4295753000042,322.4295753000042,323.9333268000046,left,0.0,16.58749320001516,,,,,,,,,,,,,,,,,,,,,,,,,,,,,,,sub-174,1.0,random_dot,60.03957808894631,
left,left,accuracy,,,,,0.0,1.0,1.0,0.0,7.0,1.0,15.0,0.0,323.9459038000059,,,,,,,,,323.9349954999925,324.746358000004,325.54690180000034,325.53198559999873,325.5320810999983,325.54690180000034,325.54690180000034,325.54690180000034,327.0497678999964,left,1.0,16.587423300006776,,,,,,,,,,,,,,,,,,,,,,,,,,,,,,,sub-174,1.0,random_dot,60.03957808894631,
right,right,accuracy,,,,,0.0,1.0,1.0,0.0,8.0,0.0,16.0,1.0,327.0633381999942,,,,,,,,,327.0518742999993,327.86371350000263,328.66405510000186,328.64867969999614,328.6487521999952,328.66405510000186,328.66405510000186,328.66405510000186,330.2507809999952,right,1.0,16.67409270000644,,,,,,,,,,,,,,,,,,,,,,,,,,,,,,,sub-174,1.0,random_dot,60.03957808894631,
left,left,accuracy,,,,,0.0,1.0,1.0,0.0,8.0,1.0,17.0,0.0,330.2638911999966,,,,,,,,,330.25290959999256,330.3640548999974,331.16484490000585,331.14830169999914,331.14833139999246,331.16484490000585,331.16484490000585,331.16484490000585,333.2345900999935,left,1.0,17.14924919999612,,,,,,,,,,,,,,,,,,,,,,,,,,,,,,,sub-174,1.0,random_dot,60.03957808894631,
left,left,accuracy,,,,,0.0,1.0,1.0,0.0,9.0,0.0,18.0,0.0,333.2476309000049,,,,,,,,,333.23628219999955,333.3478518000047,334.14845409999543,334.1331069000007,334.13315379999403,334.14845409999543,334.14845409999543,334.14845409999543,335.9008508999977,right,0.0,16.838819199998397,,,,,,,,,,,,,,,,,,,,,,,,,,,,,,,sub-174,1.0,random_dot,60.03957808894631,
right,right,accuracy,,,,,0.0,1.0,1.0,0.0,9.0,1.0,19.0,1.0,335.9153565000015,,,,,,,,,335.9023070999974,336.715257799995,337.51603149999573,337.50049389999185,337.5005918999959,337.51603149999573,337.51603149999573,337.51603149999573,338.9864569000056,left,0.0,16.560451099998318,,,,,,,,,,,,,,,,,,,,,,,,,,,,,,,sub-174,1.0,random_dot,60.03957808894631,
right,right,accuracy,,,,,0.0,1.0,1.0,0.0,10.0,0.0,20.0,1.0,338.9986926999991,,,,,,,,,338.9884519000043,340.19895229999383,340.99963249999564,340.984620999996,340.98468340000545,340.99963249999564,340.99963249999564,340.99963249999564,342.90300249999564,left,0.0,16.990651500003878,,,,,,,,,,,,,,,,,,,,,,,,,,,,,,,sub-174,1.0,random_dot,60.03957808894631,
left,left,accuracy,,,,,0.0,1.0,1.0,0.0,10.0,1.0,21.0,0.0,342.9162060999952,,,,,,,,,342.9043241000036,343.016506999993,343.8171106999944,343.8015971999994,343.8017544000031,343.8171106999944,343.8171106999944,343.8171106999944,345.9367338000011,right,0.0,17.210215099999914,,,,,,,,,,,,,,,,,,,,,,,,,,,,,,,sub-174,1.0,random_dot,60.03957808894631,
right,right,accuracy,,,,,0.0,1.0,1.0,0.0,11.0,0.0,22.0,1.0,345.9499899999937,,,,,,,,,345.93846950000443,346.7501043999946,347.55114239999966,347.5360117999953,347.5360815000022,347.55114239999966,347.55114239999966,347.55114239999966,349.9542031000019,left,0.0,17.48531990000629,,,,,,,,,,,,,,,,,,,,,,,,,,,,,,,sub-174,1.0,random_dot,60.03957808894631,
left,left,accuracy,,,,,0.0,1.0,1.0,0.0,11.0,1.0,23.0,0.0,349.967496199999,,,,,,,,,349.9556965999945,351.16780680000375,351.9686359000043,351.95286599999235,351.95291500000167,351.9686359000043,351.9686359000043,351.9686359000043,353.9884301999992,right,0.0,17.101820000010775,,,,,,,,,,,,,,,,,,,,,,,,,,,,,,,sub-174,1.0,random_dot,60.03957808894631,
left,left,accuracy,,,,,0.0,1.0,1.0,0.0,12.0,0.0,24.0,0.0,354.00142210000195,,,,,,,,,353.99038249999285,355.2016759999969,356.00216259999434,355.9866219999967,355.9866605999996,356.00216259999434,356.00216259999434,356.00216259999434,358.10515699999814,left,1.0,17.188411200011615,,,,,,,,,,,,,,,,,,,,,,,,,,,,,,,sub-174,1.0,random_dot,60.03957808894631,
right,right,accuracy,,,,,0.0,1.0,1.0,0.0,12.0,1.0,25.0,1.0,358.11919499999203,,,,,,,,,358.1064935000031,359.3191955999937,360.1201016999985,360.1045387000049,360.1046126000001,360.1201016999985,360.1201016999985,360.1201016999985,362.77336799999466,left,0.0,17.736415700012003,,,,,,,,,,,,,,,,,,,,,,,,,,,,,,,sub-174,1.0,random_dot,60.03957808894631,
left,left,accuracy,,,,,0.0,1.0,1.0,0.0,13.0,0.0,26.0,0.0,362.7865778999985,,,,,,,,,362.7747245999926,363.987252699997,364.7872008999984,364.7711457999976,364.7711802999984,364.7872008999984,364.7872008999984,364.7872008999984,365.9897471000004,right,0.0,16.287106799994945,,,,,,,,,,,,,,,,,,,,,,,,,,,,,,,sub-174,1.0,random_dot,60.03957808894631,
right,right,accuracy,,,,,0.0,1.0,1.0,0.0,13.0,1.0,27.0,1.0,366.0040779999981,,,,,,,,,365.9908958000015,367.2037844000006,368.0050920999929,367.989310399993,367.9893566999963,368.0050920999929,368.0050920999929,368.0050920999929,370.75718909999705,right,1.0,17.828785699995933,,,,,,,,,,,,,,,,,,,,,,,,,,,,,,,sub-174,1.0,random_dot,60.03957808894631,
right,right,accuracy,,,,,0.0,1.0,1.0,0.0,14.0,0.0,28.0,1.0,370.7719169000047,,,,,,,,,370.7584123999986,371.5714656999917,372.37230689999706,372.3556080999988,372.355639100002,372.37230689999706,372.37230689999706,372.37230689999706,374.9252451999928,left,0.0,17.63047329999972,,,,,,,,,,,,,,,,,,,,,,,,,,,,,,,sub-174,1.0,random_dot,60.03957808894631,
left,left,accuracy,,,,,0.0,1.0,1.0,0.0,14.0,1.0,29.0,0.0,374.93865909999295,,,,,,,,,374.9267389000015,376.1389363000053,376.93966889999865,376.9243926999916,376.924454299995,376.93966889999865,376.93966889999865,376.93966889999865,379.6252938999969,left,1.0,17.76790190000611,,,,,,,,,,,,,,,,,,,,,,,,,,,,,,,sub-174,1.0,random_dot,60.03957808894631,
right,right,accuracy,,,,,0.0,1.0,1.0,0.0,15.0,0.0,30.0,1.0,379.6395277999982,,,,,,,,,379.6265631999995,379.740163399998,380.5399814999983,380.5248078000004,380.5248551999976,380.5399814999983,380.5399814999983,380.5399814999983,383.62669829999504,left,0.0,18.169272999992245,,,,,,,,,,,,,,,,,,,,,,,,,,,,,,,sub-174,1.0,random_dot,60.03957808894631,
left,left,accuracy,,,,,0.0,1.0,1.0,0.0,15.0,1.0,31.0,0.0,383.6401140999951,,,,,,,,,383.62908060000336,383.99036850000266,384.7914828999928,384.7756947000016,384.7757300999947,384.7914828999928,384.7914828999928,384.7914828999928,386.7926367000037,left,1.0,17.081858200006536,,,,,,,,,,,,,,,,,,,,,,,,,,,,,,,sub-174,1.0,random_dot,60.03957808894631,
left,left,accuracy,,,,,0.0,1.0,1.0,0.0,16.0,0.0,32.0,0.0,386.8076904000045,,,,,,,,,386.7936961999949,387.1575057000009,387.95792990000336,387.9430985999934,387.9431454000005,387.95792990000336,387.95792990000336,387.95792990000336,390.4282215999992,left,1.0,17.55095820000861,,,,,,,,,,,,,,,,,,,,,,,,,,,,,,,sub-174,1.0,random_dot,60.03957808894631,
right,right,accuracy,,,,,0.0,1.0,1.0,0.0,16.0,1.0,33.0,1.0,390.4413711999951,,,,,,,,,390.4297738000023,391.6418091999949,392.4422078999924,392.4266190000053,392.4266611000057,392.4422078999924,392.4422078999924,392.4422078999924,393.8283780000056,right,1.0,16.478641000008793,,,,,,,,,,,,,,,,,,,,,,,,,,,,,,,sub-174,1.0,random_dot,60.03957808894631,
right,right,accuracy,,,,,0.0,1.0,1.0,0.0,17.0,0.0,34.0,1.0,393.8421658000007,,,,,,,,,393.8296374999918,394.6420788999967,395.4427582999924,395.42726219999895,395.4273020999972,395.4427582999924,395.4427582999924,395.4427582999924,396.94613519999257,left,0.0,16.58184600000095,,,,,,,,,,,,,,,,,,,,,,,,,,,,,,,sub-174,1.0,random_dot,60.03957808894631,
left,left,accuracy,,,,,0.0,1.0,1.0,0.0,17.0,1.0,35.0,0.0,396.95886359999713,,,,,,,,,396.9477268000046,397.7592816999968,398.56025179999415,398.54423299999326,398.54427070000384,398.56025179999415,398.56025179999415,398.56025179999415,399.9142595000012,right,0.0,16.445560400010436,,,,,,,,,,,,,,,,,,,,,,,,,,,,,,,sub-174,1.0,random_dot,60.03957808894631,
left,left,accuracy,,,,,0.0,1.0,1.0,0.0,18.0,0.0,36.0,0.0,399.9263592999923,,,,,,,,,399.9161848999938,400.0264079000044,400.8272568999964,400.81181990000186,400.8118623000046,400.8272568999964,400.8272568999964,400.8272568999964,403.0294989999966,left,1.0,17.28954710000835,,,,,,,,,,,,,,,,,,,,,,,,,,,,,,,sub-174,1.0,random_dot,60.03957808894631,
right,right,accuracy,,,,,0.0,1.0,1.0,0.0,18.0,1.0,37.0,1.0,403.0436818000017,,,,,,,,,403.03070780000417,403.3939300000056,404.1943309000053,404.1790679999976,404.1791112999927,404.1943309000053,404.1943309000053,404.1943309000053,405.7468663000036,right,1.0,16.638651300003403,,,,,,,,,,,,,,,,,,,,,,,,,,,,,,,sub-174,1.0,random_dot,60.03957808894631,
right,right,accuracy,,,,,0.0,1.0,1.0,0.0,19.0,0.0,38.0,1.0,405.76095959999657,,,,,,,,,405.7480176999961,405.860886800001,406.6614788000006,406.6462611000025,406.6463170999923,406.6614788000006,406.6614788000006,406.6614788000006,408.0634781999979,right,1.0,16.48319579999952,,,,,,,,,,,,,,,,,,,,,,,,,,,,,,,sub-174,1.0,random_dot,60.03957808894631,
left,left,accuracy,,,,,0.0,1.0,1.0,0.0,19.0,1.0,39.0,0.0,408.0778149999969,,,,,,,,,408.065114099998,408.8783089999925,409.67869630000496,409.6635663000052,409.66361429999233,409.67869630000496,409.67869630000496,409.67869630000496,411.0657083999977,left,1.0,16.469572300004074,,,,,,,,,,,,,,,,,,,,,,,,,,,,,,,sub-174,1.0,random_dot,60.03957808894631,
left,left,accuracy,,,,,0.0,1.0,1.0,0.0,20.0,0.0,40.0,0.0,411.0782287000038,,,,,,,,,411.0673833000037,412.2787662000046,413.0795689999941,413.0634168999968,413.0634585999942,413.0795689999941,413.0795689999941,413.0795689999941,416.1985077999998,left,1.0,18.19918850000249,,,,,,,,,,,,,,,,,,,,,,,,,,,,,,,sub-174,1.0,random_dot,60.03957808894631,
right,right,accuracy,,,,,0.0,1.0,1.0,0.0,20.0,1.0,41.0,1.0,416.2126417999971,,,,,,,,,416.2000699000055,417.4129474999936,418.213585199992,418.19727010000497,418.197327899994,418.213585199992,418.213585199992,418.213585199992,421.55121900000086,right,1.0,18.42792630000622,,,,,,,,,,,,,,,,,,,,,,,,,,,,,,,sub-174,1.0,random_dot,60.03957808894631,
right,right,accuracy,,,,,0.0,1.0,1.0,0.0,21.0,0.0,42.0,1.0,421.56338459999824,,,,,,,,,421.5537251999922,421.9138874999917,422.7141483000014,422.6988780999964,422.69892059999984,422.7141483000014,422.7141483000014,422.7141483000014,425.6170844000008,right,1.0,17.993896900006803,,,,,,,,,,,,,,,,,,,,,,,,,,,,,,,sub-174,1.0,random_dot,60.03957808894631,
left,left,accuracy,,,,,0.0,1.0,1.0,0.0,21.0,1.0,43.0,0.0,425.6323528999928,,,,,,,,,425.6186893999984,425.7314585999993,426.53184399999736,426.51563399999577,426.515684500002,426.53184399999736,426.53184399999736,426.53184399999736,429.2512716000056,left,1.0,17.804527500004042,,,,,,,,,,,,,,,,,,,,,,,,,,,,,,,sub-174,1.0,random_dot,60.03957808894631,
right,right,accuracy,,,,,0.0,1.0,1.0,0.0,22.0,0.0,44.0,1.0,429.26475129999744,,,,,,,,,429.2527308999997,430.4651474999992,431.26628369999526,431.2510764000035,431.25112489999447,431.26628369999526,431.26628369999526,431.26628369999526,433.83568170000217,left,0.0,17.65363340001204,,,,,,,,,,,,,,,,,,,,,,,,,,,,,,,sub-174,1.0,random_dot,60.03957808894631,
left,left,accuracy,,,,,0.0,1.0,1.0,0.0,22.0,1.0,45.0,0.0,433.84925070000463,,,,,,,,,433.8377041000058,434.1991790000029,434.9999342999945,434.9841102999926,434.9841471999971,434.9999342999945,434.9999342999945,434.9999342999945,437.57021520000126,left,1.0,17.660775500015006,,,,,,,,,,,,,,,,,,,,,,,,,,,,,,,sub-174,1.0,random_dot,60.03957808894631,
left,left,accuracy,,,,,0.0,1.0,1.0,0.0,23.0,0.0,46.0,0.0,437.5832640000008,,,,,,,,,437.5718191000051,438.38327389999176,439.1840066000004,439.1688372999925,439.1688911999954,439.1840066000004,439.1840066000004,439.1840066000004,441.4875657999946,left,1.0,17.38875020001433,,,,,,,,,,,,,,,,,,,,,,,,,,,,,,,sub-174,1.0,random_dot,60.03957808894631,
right,right,accuracy,,,,,0.0,1.0,1.0,0.0,23.0,1.0,47.0,1.0,441.5003196000034,,,,,,,,,441.4895899999974,442.3010077999934,443.1012088999996,443.0849911999976,443.0850235999969,443.1012088999996,443.1012088999996,443.1012088999996,445.5045428000012,right,1.0,17.48052200001257,,,,,,,,,,,,,,,,,,,,,,,,,,,,,,,sub-174,1.0,random_dot,60.03957808894631,
left,left,accuracy,,,,,0.0,1.0,1.0,0.0,24.0,0.0,48.0,0.0,445.5179892000015,,,,,,,,,445.5060524,446.317879299997,447.11840619999566,447.1035841999983,447.1036463000055,447.11840619999566,447.11840619999566,447.11840619999566,449.65457349999633,left,1.0,17.624836500006495,,,,,,,,,,,,,,,,,,,,,,,,,,,,,,,sub-174,1.0,random_dot,60.03957808894631,
right,right,accuracy,,,,,0.0,1.0,1.0,0.0,24.0,1.0,49.0,1.0,449.6684874999919,,,,,,,,,449.655788300006,450.46890360000543,451.2693934999989,451.25367940000433,451.2537174000026,451.2693934999989,451.2693934999989,451.2693934999989,454.7899431999977,left,0.0,18.596652300009737,,,,,,,,,,,,,,,,,,,,,,,,,,,,,,,sub-174,1.0,random_dot,60.03957808894631,
left,left,accuracy,,,,,0.0,1.0,1.0,0.0,25.0,0.0,50.0,0.0,454.8030982000055,,,,,,,,,454.7915381999919,454.90301919999183,455.7036214999971,455.6884607999964,455.68852880000486,455.7036214999971,455.7036214999971,455.7036214999971,458.55643159999454,right,0.0,17.940637000006973,,,,,,,,,,,,,,,,,,,,,,,,,,,,,,,sub-174,1.0,random_dot,60.03957808894631,
right,right,accuracy,,,,,0.0,1.0,1.0,0.0,25.0,1.0,51.0,1.0,458.5700926999998,,,,,,,,,458.5585069999943,459.3703469000029,460.1710464999924,460.15549170000304,460.1555532999919,460.1710464999924,460.1710464999924,460.1710464999924,463.2080847000034,left,0.0,18.127037099999143,,,,,,,,,,,,,,,,,,,,,,,,,,,,,,,sub-174,1.0,random_dot,60.03957808894631,
right,right,accuracy,,,,,0.0,1.0,1.0,0.0,26.0,0.0,52.0,1.0,463.22103179999976,,,,,,,,,463.2097362999921,463.3212841000058,464.12145930000406,464.10676819999935,464.1068163000018,464.12145930000406,464.12145930000406,464.12145930000406,466.7412746000045,left,0.0,17.699403800012078,,,,,,,,,,,,,,,,,,,,,,,,,,,,,,,sub-174,1.0,random_dot,60.03957808894631,
left,left,accuracy,,,,,0.0,1.0,1.0,0.0,26.0,1.0,53.0,0.0,466.7550160999963,,,,,,,,,466.7428575999948,466.8550051999919,467.65571120000095,467.6405606000044,467.6406131999975,467.65571120000095,467.65571120000095,467.65571120000095,471.3440505000035,right,0.0,18.779829200007956,,,,,,,,,,,,,,,,,,,,,,,,,,,,,,,sub-174,1.0,random_dot,60.03957808894631,
left,left,accuracy,,,,,0.0,1.0,1.0,0.0,27.0,0.0,54.0,0.0,471.3560466999916,,,,,,,,,471.3460982999968,472.15616159999627,472.9564185999916,472.94187900000543,472.9419322000031,472.9564185999916,472.9564185999916,472.9564185999916,475.909928299996,left,1.0,18.036074999996345,,,,,,,,,,,,,,,,,,,,,,,,,,,,,,,sub-174,1.0,random_dot,60.03957808894631,
right,right,accuracy,,,,,0.0,1.0,1.0,0.0,27.0,1.0,55.0,1.0,475.9233816000051,,,,,,,,,475.91134740000416,476.0238128000056,476.8243436000048,476.8080531000014,476.8080814999994,476.8243436000048,476.8243436000048,476.8243436000048,480.07729899999686,right,1.0,18.33210390001477,,,,,,,,,,,,,,,,,,,,,,,,,,,,,,,sub-174,1.0,random_dot,60.03957808894631,
right,right,accuracy,,,,,0.0,1.0,1.0,0.0,28.0,0.0,56.0,1.0,480.090926799996,,,,,,,,,480.0793530999945,480.1909641999955,480.991512499997,480.9759569000016,480.97601280000526,480.991512499997,480.991512499997,480.991512499997,484.6458399999974,left,0.0,18.74482639999769,,,,,,,,,,,,,,,,,,,,,,,,,,,,,,,sub-174,1.0,random_dot,60.03957808894631,
left,left,accuracy,,,,,0.0,1.0,1.0,0.0,28.0,1.0,57.0,0.0,484.65829259999737,,,,,,,,,484.6472989000031,484.7583698999952,485.55945970000175,485.5433314999973,485.54335989999527,485.55945970000175,485.55945970000175,485.55945970000175,488.4282205999916,left,1.0,17.95863510000345,,,,,,,,,,,,,,,,,,,,,,,,,,,,,,,sub-174,1.0,random_dot,60.03957808894631,
right,right,accuracy,,,,,0.0,1.0,1.0,0.0,29.0,0.0,58.0,1.0,488.4424943000049,,,,,,,,,488.4295772000041,488.5423219999939,489.34446839999873,489.32691960000375,489.32694519999495,489.34446839999873,489.34446839999873,489.34446839999873,493.37912779999897,right,1.0,19.123610800001188,,,,,,,,,,,,,,,,,,,,,,,,,,,,,,,sub-174,1.0,random_dot,60.03957808894631,
left,left,accuracy,,,,,0.0,1.0,1.0,0.0,29.0,1.0,59.0,0.0,493.393381300004,,,,,,,,,493.3805288000003,494.194229700006,494.9939906999935,494.9789759999985,494.9791269999987,494.9939906999935,494.9939906999935,494.9939906999935,497.6145645999932,right,0.0,17.711706300004153,,,,,,,,,,,,,,,,,,,,,,,,,,,,,,,sub-174,1.0,random_dot,60.03957808894631,
,,accuracy,,,,,0.0,1.0,1.0,0.0,,,,,,,,,,,,,,,,,,,,,,,,,,,,,,,,,,,,,,,,,,,,,,,,,,,,,,,,sub-174,1.0,random_dot,60.03957808894631,
,,,,,,,,,,,,,,,,,,,,,,,,,,,,,,,,,,,,,,,,,,,,,,,,,,,,,,,,,,,,,,497.6157734000008,497.6271897999977,502.6280435999943,502.61302720000094,sub-174,,,,
