direction,corrAns,randomInstr,practice_trials.thisRepN,practice_trials.thisTrialN,practice_trials.thisN,practice_trials.thisIndex,instr_trials.thisRepN,instr_trials.thisTrialN,instr_trials.thisN,instr_trials.thisIndex,test_trials.thisRepN,test_trials.thisTrialN,test_trials.thisN,test_trials.thisIndex,thisRow.t,notes,general_instruction.started,textGeneralInstr.started,respGeneralInstr.started,general_instruction.stopped,respGeneralInstr.keys,respGeneralInstr.rt,respGeneralInstr.duration,ITI.started,fixcross.started,fixcross.stopped,ITI.stopped,dots.started,backgroundDots.started,stimulusDots.started,respDots.started,stimulusDots.stopped,dots.stopped,respDots.keys,respDots.corr,respDots.rt,respDots.duration,feedback.started,textFeedback.started,feedback.stopped,textFeedback.stopped,info.started,textInfo.started,keyRespInfo.started,info.stopped,keyRespInfo.keys,keyRespInfo.rt,keyRespInfo.duration,test_instruction.started,textTestInstr.started,respTestInstr.started,test_instruction.stopped,respTestInstr.keys,respTestInstr.rt,respTestInstr.duration,random_instruction.started,textRandomInstr.started,respRandomInstr.started,random_instruction.stopped,respRandomInstr.keys,respRandomInstr.rt,respRandomInstr.duration,goodbye.started,textGoodbye.started,textGoodbye.stopped,goodbye.stopped,participant,session,expName,frameRate,Unnamed: 74
,,,,,,,,,,,,,,,,,0.0367347999999765,0.0544664000044576,0.0544664000044576,26.570319799997375,space,1962.3599438999956,,,,,,,,,,,,,,,,,,,,,,,,,,,,,,,,,,,,,,,,,,,,,sub-137,1.0,random_dot,60.00070801025314,
right,right,,0.0,0.0,0.0,1.0,,,,,,,,,26.66177149998839,,,,,,,,,26.655360999982804,27.38489839999238,28.18612579998444,28.16956079998636,28.16958980000345,28.18612579998444,28.18612579998444,28.18612579998444,33.172795299993595,33.60717939998722,left,0.0,1941.2575488,,33.60871450000559,33.62964229998761,34.12286259999382,,,,,,,,,,,,,,,,,,,,,,,,,,,sub-137,1.0,random_dot,60.00070801025314,
left,left,,0.0,1.0,1.0,0.0,,,,,,,,,34.13966570000048,,,,,,,,,34.123603999993065,34.22281219999422,35.024239799997304,35.0075635999965,35.00759100000141,35.024239799997304,35.024239799997304,35.024239799997304,,36.29395870000008,left,1.0,1937.110163900012,,36.29536679998273,36.31946529998095,36.80841739999596,,,,,,,,,,,,,,,,,,,,,,,,,,,sub-137,1.0,random_dot,60.00070801025314,
right,right,,1.0,0.0,2.0,1.0,,,,,,,,,36.824803900002735,,,,,,,,,36.80917789999512,38.00899729999946,38.810443499998655,38.79382699998678,38.79388919999474,38.810443499998655,38.810443499998655,38.810443499998655,,41.64776679998613,right,1.0,1938.6839187000005,,41.64867409999715,41.661453000007896,42.14650840000832,42.16201890000957,,,,,,,,,,,,,,,,,,,,,,,,,,sub-137,1.0,random_dot,60.00070801025314,
left,left,,1.0,1.0,3.0,0.0,,,,,,,,,42.16201890000957,,,,,,,,,42.14719459999469,42.96241710000322,43.763922899990575,43.7477896999917,43.747857699985616,43.763922899990575,43.763922899990575,43.763922899990575,,44.91661179999937,right,0.0,1936.98909670001,,44.917494099994656,44.93057359999512,45.41546180000296,45.43103089998476,,,,,,,,,,,,,,,,,,,,,,,,,,sub-137,1.0,random_dot,60.00070801025314,
right,right,,2.0,0.0,4.0,1.0,,,,,,,,,45.43103089998476,,,,,,,,,45.41617209999822,45.53102759999456,46.33236179998494,46.31581470000674,46.31585189999896,46.33236179998494,46.33236179998494,46.33236179998494,,51.15413660000195,right,1.0,1940.672844900022,,51.15508930000942,51.167889100004686,51.65311429998837,51.66864200000418,,,,,,,,,,,,,,,,,,,,,,,,,,sub-137,1.0,random_dot,60.00070801025314,
left,left,,2.0,1.0,5.0,0.0,,,,,,,,,51.66864200000418,,,,,,,,,51.65380289999303,52.86929209998925,53.67092859998229,53.6542810999963,53.65431929999613,53.67092859998229,53.67092859998229,53.67092859998229,,55.82439379999414,left,1.0,1937.9941023000283,,55.82534919999307,55.83822320000036,56.32229829998687,56.3382694000029,,,,,,,,,,,,,,,,,,,,,,,,,,sub-137,1.0,random_dot,60.00070801025314,
right,right,,3.0,0.0,6.0,1.0,,,,,,,,,56.3382694000029,,,,,,,,,56.32276929999352,57.13885889999801,57.93997629999649,57.92336349998368,57.92339229999925,57.93997629999649,57.93997629999649,57.93997629999649,,61.89463009999599,left,0.0,1939.7943472000188,,61.89575649998733,61.90876339998795,62.39375789999031,62.40939270000672,,,,,,,,,,,,,,,,,,,,,,,,,,sub-137,1.0,random_dot,60.00070801025314,
left,left,,3.0,1.0,7.0,0.0,,,,,,,,,62.40939270000672,,,,,,,,,62.39440779999131,63.61024730000645,64.41139829999884,64.39515019999817,64.39518779999344,64.41139829999884,64.41139829999884,64.41139829999884,,68.28271060000407,right,0.0,1939.7132675000173,,68.2835813999991,68.29674859999795,68.78144039999461,68.79708419999224,,,,,,,,,,,,,,,,,,,,,,,,,,sub-137,1.0,random_dot,60.00070801025314,
right,right,,4.0,0.0,8.0,1.0,,,,,,,,,68.79708419999224,,,,,,,,,68.78214609998395,68.89696159999585,69.69846369998413,69.6821321999887,69.68217529999674,69.69846369998413,69.69846369998413,69.69846369998413,74.68517139999312,78.12329509999836,right,1.0,1944.2754471000223,,78.12421690000338,78.13667290000012,78.62158649999765,78.63711099998909,,,,,,,,,,,,,,,,,,,,,,,,,,sub-137,1.0,random_dot,60.00070801025314,
left,left,,4.0,1.0,9.0,0.0,,,,,,,,,78.63711099998909,,,,,,,,,78.62231839998276,79.43781080000917,80.23883839999326,80.22245460000704,80.22252859998844,80.23883839999326,80.23883839999326,80.23883839999326,,81.27548640000168,right,0.0,1936.886823400011,,81.27640350000001,81.28901770000812,81.77405489998637,81.78903980000177,,,,,,,,,,,,,,,,,,,,,,,,,,sub-137,1.0,random_dot,60.00070801025314,
right,right,,5.0,0.0,10.0,1.0,,,,,,,,,81.78903980000177,,,,,,,,,81.7746604999993,82.99010530000669,83.79150389999268,83.77528259999235,83.77532109999447,83.79150389999268,83.79150389999268,83.79150389999268,,86.01174699998228,left,0.0,1938.063256399997,,86.0125960999867,86.02568510000128,86.51057600000058,86.5261108999839,,,,,,,,,,,,,,,,,,,,,,,,,,sub-137,1.0,random_dot,60.00070801025314,
left,left,,5.0,1.0,11.0,0.0,,,,,,,,,86.5261108999839,,,,,,,,,86.51146509998944,86.62603300000774,87.42752559998189,87.4112019999884,87.41124190000119,87.42752559998189,87.42752559998189,87.42752559998189,,91.91550410000492,right,0.0,1940.337524700008,,91.916330499982,91.929679199995,92.41466069998567,92.43009969999548,,,,,,,,,,,,,,,,,,,,,,,,,,sub-137,1.0,random_dot,60.00070801025314,
left,left,,6.0,0.0,12.0,0.0,,,,,,,,,92.43009969999548,,,,,,,,,92.41532850000658,93.63081319999765,94.43241069998476,94.41572269998142,94.41576299999724,94.43241069998476,94.43241069998476,94.43241069998476,,97.4365220000036,left,1.0,1938.8525828000277,,97.43736019998325,97.45271320000757,97.95068119998903,,,,,,,,,,,,,,,,,,,,,,,,,,,sub-137,1.0,random_dot,60.00070801025314,
right,right,,6.0,1.0,13.0,1.0,,,,,,,,,97.96716800000286,,,,,,,,,97.95139400000336,98.3009664999845,99.10201569998752,99.0855162999942,99.08555859999616,99.10201569998752,99.10201569998752,99.10201569998752,,100.7552034999826,right,1.0,1937.5031192000024,,100.75606260000497,100.7691547999857,101.25400489999448,101.26964189999852,,,,,,,,,,,,,,,,,,,,,,,,,,sub-137,1.0,random_dot,60.00070801025314,
right,right,,7.0,0.0,14.0,1.0,,,,,,,,,101.26964189999852,,,,,,,,,101.25463179999495,101.36948229998234,102.17120650000288,102.15447859998676,102.15451759999269,102.17120650000288,102.17120650000288,102.17120650000288,,106.32596349998494,left,0.0,1940.002987999993,,106.32682170000044,106.3396294999984,106.82417529998928,106.84006170000066,,,,,,,,,,,,,,,,,,,,,,,,,,sub-137,1.0,random_dot,60.00070801025314,
left,left,,7.0,1.0,15.0,0.0,,,,,,,,,106.84006170000066,,,,,,,,,106.82491609998397,106.94013269999414,107.741537599999,107.72536630000104,107.7254047000024,107.741537599999,107.741537599999,107.741537599999,112.7282581999898,113.46409379999386,right,0.0,1941.5737146000029,,113.46500719999312,113.47782699999516,113.96289490000343,113.97857559999102,,,,,,,,,,,,,,,,,,,,,,,,,,sub-137,1.0,random_dot,60.00070801025314,
right,right,,8.0,0.0,16.0,1.0,,,,,,,,,113.97857559999102,,,,,,,,,113.96363620000191,115.17911150000872,115.980539399985,115.96434989999398,115.96439089998604,115.980539399985,115.980539399985,115.980539399985,,118.31742499998654,right,1.0,1938.18441289998,,118.3183836999815,118.33111179998376,118.81627389998177,118.83179520000704,,,,,,,,,,,,,,,,,,,,,,,,,,sub-137,1.0,random_dot,60.00070801025314,
left,left,,8.0,1.0,17.0,0.0,,,,,,,,,118.83179520000704,,,,,,,,,118.81691729999147,118.93170980000286,119.73305179999444,119.71700079998118,119.71704279998085,119.73305179999444,119.73305179999444,119.73305179999444,,121.40337869999348,left,1.0,1937.5210368999976,,121.40425359999062,121.41674839999176,121.90401929998188,121.91695519999485,,,,,,,,,,,,,,,,,,,,,,,,,,sub-137,1.0,random_dot,60.00070801025314,
right,right,,9.0,0.0,18.0,1.0,,,,,,,,,121.91695519999485,,,,,,,,,121.9047600000049,122.01725899998564,122.81860569998388,122.80223899998236,122.80227829999058,122.81860569998388,122.81860569998388,122.81860569998388,,124.02141759998632,right,1.0,1937.0456449000048,,124.02229679998707,124.03543349998654,124.52026170000318,124.5354737000016,,,,,,,,,,,,,,,,,,,,,,,,,,sub-137,1.0,random_dot,60.00070801025314,
left,left,,9.0,1.0,19.0,0.0,,,,,,,,,124.5354737000016,,,,,,,,,124.521003700007,124.8858043999935,125.68699379998723,125.67091309998068,125.6709533999965,125.68699379998723,125.68699379998723,125.68699379998723,,126.35633839998629,left,1.0,1936.5180110000076,,126.3571210000082,126.37003180000464,126.85509559998172,126.87065890000667,,,,,,,,,,,,,,,,,,,,,,,,,,sub-137,1.0,random_dot,60.00070801025314,
,,,,,,,,,,,,,,,,,,,,,,,,,,,,,,,,,,,,,,,,,,126.85521499998868,126.87065890000667,126.87065890000667,138.14718929998344,space,1947.114900900022,,,,,,,,,,,,,,,,,,,,sub-137,1.0,random_dot,60.00070801025314,
,,,,,,,,,,,,,,,,,,,,,,,,,,,,,,,,,,,,,,,,,,,,,,,,,138.14725239999825,138.16192320000846,138.16192320000846,142.14996099998825,space,1939.8341821000213,,,,,,,,,,,,,sub-137,1.0,random_dot,60.00070801025314,
left,left,accuracy,,,,,0.0,0.0,0.0,0.0,0.0,0.0,0.0,0.0,147.62273229999118,,,,,,,,,147.61897439998577,147.96851410000818,148.7698155999824,148.75340849999338,148.75344919998315,148.7698155999824,148.7698155999824,148.7698155999824,,153.22478339998634,left,1.0,1940.2956998000157,,,,,,,,,,,,,,,,,,,,142.18064720000257,142.21869519999018,142.21869519999018,147.60401969999657,space,1941.236904199992,,,,,,sub-137,1.0,random_dot,60.00070801025314,
right,right,accuracy,,,,,0.0,0.0,0.0,0.0,0.0,1.0,1.0,1.0,153.23860199999763,,,,,,,,,153.22704880000674,154.0392404999875,154.84062499998254,154.8242981999938,154.82433719999972,154.84062499998254,154.84062499998254,154.84062499998254,,159.42920349998167,right,1.0,1940.4260091999893,,,,,,,,,,,,,,,,,,,,,,,,,,,,,,,sub-137,1.0,random_dot,60.00070801025314,
right,right,accuracy,,,,,0.0,0.0,0.0,0.0,1.0,0.0,2.0,1.0,159.44295789999887,,,,,,,,,159.43098410000675,159.5429967000091,160.34445279999636,160.32838019999326,160.32842010000604,160.34445279999636,160.34445279999636,160.34445279999636,165.33118179999292,165.66683699999703,left,0.0,1941.1608772999896,,,,,,,,,,,,,,,,,,,,,,,,,,,,,,,sub-137,1.0,random_dot,60.00070801025314,
left,left,accuracy,,,,,0.0,0.0,0.0,0.0,1.0,1.0,3.0,0.0,165.68063560000155,,,,,,,,,165.66874140000436,166.48115380000672,167.28253359999508,167.26686499998323,167.26690630000667,167.28253359999508,167.28253359999508,167.28253359999508,,169.63604620000115,left,1.0,1938.1933601000053,,,,,,,,,,,,,,,,,,,,,,,,,,,,,,,sub-137,1.0,random_dot,60.00070801025314,
left,left,accuracy,,,,,0.0,0.0,0.0,0.0,2.0,0.0,4.0,0.0,169.65013039999758,,,,,,,,,169.63778799999272,170.0002961999853,170.80159280000953,170.78526380000403,170.78530170000158,170.80159280000953,170.80159280000953,170.80159280000953,,173.43907419999596,right,0.0,1938.485245400021,,,,,,,,,,,,,,,,,,,,,,,,,,,,,,,sub-137,1.0,random_dot,60.00070801025314,
right,right,accuracy,,,,,0.0,0.0,0.0,0.0,2.0,1.0,5.0,1.0,173.45291150000412,,,,,,,,,173.44088939999347,173.8028926999832,174.60415329999523,174.5877327999915,174.5877705999883,174.60415329999523,174.60415329999523,174.60415329999523,,178.8926164000004,right,1.0,1940.1314227000112,,,,,,,,,,,,,,,,,,,,,,,,,,,,,,,sub-137,1.0,random_dot,60.00070801025314,
right,right,accuracy,,,,,0.0,0.0,0.0,0.0,3.0,0.0,6.0,1.0,178.90663409998524,,,,,,,,,178.89434430000256,179.00668739998946,179.8080059000058,179.79158630000893,179.79162380000344,179.8080059000058,179.8080059000058,179.8080059000058,184.79453210000065,185.530565699999,left,0.0,1941.568090899993,,,,,,,,,,,,,,,,,,,,,,,,,,,,,,,sub-137,1.0,random_dot,60.00070801025314,
left,left,accuracy,,,,,0.0,0.0,0.0,0.0,3.0,1.0,7.0,0.0,185.54437059999327,,,,,,,,,185.53242730000056,185.8946375999949,186.6958629000001,186.6796597999928,186.6796983999957,186.6958629000001,186.6958629000001,186.6958629000001,,189.81697280000665,left,1.0,1938.9604250000264,,,,,,,,,,,,,,,,,,,,,,,,,,,,,,,sub-137,1.0,random_dot,60.00070801025314,
left,left,accuracy,,,,,0.0,0.0,0.0,0.0,4.0,0.0,8.0,0.0,189.83085159998157,,,,,,,,,189.8187084000092,189.93082889998917,190.73207379999803,190.7159138999996,190.7159549999924,190.73207379999803,190.73207379999803,190.73207379999803,,193.6861638999835,left,1.0,1938.8045161000043,,,,,,,,,,,,,,,,,,,,,,,,,,,,,,,sub-137,1.0,random_dot,60.00070801025314,
right,right,accuracy,,,,,0.0,0.0,0.0,0.0,4.0,1.0,9.0,1.0,193.6999114000064,,,,,,,,,193.68802139998297,193.8002231999999,194.6012690000061,194.5851856000081,194.5852247999865,194.6012690000061,194.6012690000061,194.6012690000061,,197.72237740000128,left,0.0,1938.9642077000167,,,,,,,,,,,,,,,,,,,,,,,,,,,,,,,sub-137,1.0,random_dot,60.00070801025314,
left,left,accuracy,,,,,0.0,0.0,0.0,0.0,5.0,0.0,10.0,0.0,197.73627319998923,,,,,,,,,197.72431560000405,198.0864378999977,198.8878781000094,198.87171039998063,198.87174899998357,198.8878781000094,198.8878781000094,198.8878781000094,,203.05955239999457,right,0.0,1940.0184005000049,,,,,,,,,,,,,,,,,,,,,,,,,,,,,,,sub-137,1.0,random_dot,60.00070801025314,
right,right,accuracy,,,,,0.0,0.0,0.0,0.0,5.0,1.0,11.0,1.0,203.07318959999247,,,,,,,,,203.06132919999072,204.27391089999583,205.0753617000009,205.05895350000355,205.0589994000038,205.0753617000009,205.0753617000009,205.0753617000009,,208.8633397000085,right,1.0,1939.6311819000111,,,,,,,,,,,,,,,,,,,,,,,,,,,,,,,sub-137,1.0,random_dot,60.00070801025314,
left,left,accuracy,,,,,0.0,0.0,0.0,0.0,6.0,0.0,12.0,0.0,208.8771733999893,,,,,,,,,208.86503660000744,210.0781472999952,210.8793439999863,210.8629524999997,210.8630196999875,210.8793439999863,210.8793439999863,210.8793439999863,,213.03306640000665,left,1.0,1937.9974277,,,,,,,,,,,,,,,,,,,,,,,,,,,,,,,sub-137,1.0,random_dot,60.00070801025314,
right,right,accuracy,,,,,0.0,0.0,0.0,0.0,6.0,1.0,13.0,1.0,213.04667260000133,,,,,,,,,213.0348451999889,213.39699099998688,214.1982885999896,214.1821874000016,214.18222630000676,214.1982885999896,214.1982885999896,214.1982885999896,,215.5179137999949,right,1.0,1937.1674405999947,,,,,,,,,,,,,,,,,,,,,,,,,,,,,,,sub-137,1.0,random_dot,60.00070801025314,
left,left,accuracy,,,,,0.0,0.0,0.0,0.0,7.0,0.0,14.0,0.0,215.5318155999994,,,,,,,,,215.51963090000208,216.33243889998997,217.13329589998463,217.11712909999187,217.11716819999856,217.13329589998463,217.13329589998463,217.13329589998463,,218.5033473999938,left,1.0,1937.2131075999928,,,,,,,,,,,,,,,,,,,,,,,,,,,,,,,sub-137,1.0,random_dot,60.00070801025314,
right,right,accuracy,,,,,0.0,0.0,0.0,0.0,7.0,1.0,15.0,1.0,218.51722219999647,,,,,,,,,218.50511860000552,219.71810669999104,220.5193261000095,220.5025636999926,220.50260089998483,220.5193261000095,220.5193261000095,220.5193261000095,,221.80570629998687,right,1.0,1937.1375708999983,,,,,,,,,,,,,,,,,,,,,,,,,,,,,,,sub-137,1.0,random_dot,60.00070801025314,
right,right,accuracy,,,,,0.0,0.0,0.0,0.0,8.0,0.0,16.0,1.0,221.8193564999965,,,,,,,,,221.80756459999247,222.62026470000276,223.42141280000212,223.40496429998893,223.4050014000095,223.42141280000212,223.42141280000212,223.42141280000212,,224.7578247000056,left,0.0,1937.1864872000008,,,,,,,,,,,,,,,,,,,,,,,,,,,,,,,sub-137,1.0,random_dot,60.00070801025314,
left,left,accuracy,,,,,0.0,0.0,0.0,0.0,8.0,1.0,17.0,0.0,224.7716559999972,,,,,,,,,224.7594888999884,225.97225849999813,226.77373159999843,226.75782249998883,226.7578663000022,226.77373159999843,226.77373159999843,226.77373159999843,,229.4274031999812,left,1.0,1938.5046345000155,,,,,,,,,,,,,,,,,,,,,,,,,,,,,,,sub-137,1.0,random_dot,60.00070801025314,
right,right,accuracy,,,,,0.0,0.0,0.0,0.0,9.0,0.0,18.0,1.0,229.4414902999997,,,,,,,,,229.42906100000252,229.7916330999869,230.59288579999705,230.5769253000035,230.57696879998548,230.59288579999705,230.59288579999705,230.59288579999705,,231.47884460000205,right,1.0,1936.7240646000137,,,,,,,,,,,,,,,,,,,,,,,,,,,,,,,sub-137,1.0,random_dot,60.00070801025314,
left,left,accuracy,,,,,0.0,0.0,0.0,0.0,9.0,1.0,19.0,0.0,231.4929201999912,,,,,,,,,231.48056480000375,231.8429771999945,232.6445126000035,232.6284801999864,232.62852369999743,232.6445126000035,232.6445126000035,232.6445126000035,,233.59672209998823,left,1.0,1936.792885800009,,,,,,,,,,,,,,,,,,,,,,,,,,,,,,,sub-137,1.0,random_dot,60.00070801025314,
left,left,accuracy,,,,,0.0,0.0,0.0,0.0,10.0,0.0,20.0,0.0,233.61123099998804,,,,,,,,,233.598594399984,234.81195489998208,235.613249099988,235.5968040000007,235.59684509999352,235.613249099988,235.613249099988,235.613249099988,,236.29897899998468,right,0.0,1936.536019799998,,,,,,,,,,,,,,,,,,,,,,,,,,,,,,,sub-137,1.0,random_dot,60.00070801025314,
right,right,accuracy,,,,,0.0,0.0,0.0,0.0,10.0,1.0,21.0,1.0,236.3127431999892,,,,,,,,,236.30078210000647,236.41275640000825,237.214286500006,237.19793429999845,237.1979726999998,237.214286500006,237.214286500006,237.214286500006,,238.0171677999897,left,0.0,1936.653561999992,,,,,,,,,,,,,,,,,,,,,,,,,,,,,,,sub-137,1.0,random_dot,60.00070801025314,
left,left,accuracy,,,,,0.0,0.0,0.0,0.0,11.0,0.0,22.0,0.0,238.0305024999834,,,,,,,,,238.01911709998967,238.8311367999995,239.6324791999941,239.6164491999953,239.6164879999997,239.6324791999941,239.6324791999941,239.6324791999941,,240.20176609998447,right,0.0,1936.4157629000256,,,,,,,,,,,,,,,,,,,,,,,,,,,,,,,sub-137,1.0,random_dot,60.00070801025314,
right,right,accuracy,,,,,0.0,0.0,0.0,0.0,11.0,1.0,23.0,1.0,240.21529100000043,,,,,,,,,240.20361299999055,241.01623959999412,241.8175539000076,241.80113579999303,241.80117719998816,241.8175539000076,241.8175539000076,241.8175539000076,,243.0201196999988,right,1.0,1937.0495543000288,,,,,,,,,,,,,,,,,,,,,,,,,,,,,,,sub-137,1.0,random_dot,60.00070801025314,
right,right,accuracy,,,,,0.0,0.0,0.0,0.0,12.0,0.0,24.0,1.0,243.03400499999407,,,,,,,,,243.0219322000048,243.38439890000157,244.18563160000485,244.16941249999215,244.16945270000724,244.18563160000485,244.18563160000485,244.18563160000485,,244.9049035999924,left,0.0,1936.5622958000167,,,,,,,,,,,,,,,,,,,,,,,,,,,,,,,sub-137,1.0,random_dot,60.00070801025314,
left,left,accuracy,,,,,0.0,0.0,0.0,0.0,12.0,1.0,25.0,0.0,244.91862879999096,,,,,,,,,244.90670359999055,245.26927210000576,246.0703192999936,246.05423229999724,246.0542724999832,246.0703192999936,246.0703192999936,246.0703192999936,251.0568799999892,251.4761030999944,right,0.0,1941.2471640000003,,,,,,,,,,,,,,,,,,,,,,,,,,,,,,,sub-137,1.0,random_dot,60.00070801025314,
right,right,accuracy,,,,,0.0,0.0,0.0,0.0,13.0,0.0,26.0,1.0,251.4897918000061,,,,,,,,,251.4778558999824,251.8400336999912,252.64164779998828,252.6250739999814,252.62511319998885,252.64164779998828,252.64164779998828,252.64164779998828,,255.49553039998864,right,1.0,1938.6948632999847,,,,,,,,,,,,,,,,,,,,,,,,,,,,,,,sub-137,1.0,random_dot,60.00070801025314,
left,left,accuracy,,,,,0.0,0.0,0.0,0.0,13.0,1.0,27.0,0.0,255.50932280000416,,,,,,,,,255.49726209999065,256.7104819999949,257.5115606999898,257.495225199993,257.4952923000092,257.5115606999898,257.5115606999898,257.5115606999898,,258.7142206999997,left,1.0,1937.0454652000044,,,,,,,,,,,,,,,,,,,,,,,,,,,,,,,sub-137,1.0,random_dot,60.00070801025314,
left,left,accuracy,,,,,0.0,0.0,0.0,0.0,14.0,0.0,28.0,0.0,258.728331899998,,,,,,,,,258.7159135999973,259.0785940999922,259.879707199987,259.8634724000003,259.86351029999787,259.879707199987,259.879707199987,259.879707199987,,262.0836083999893,left,1.0,1938.0473410999984,,,,,,,,,,,,,,,,,,,,,,,,,,,,,,,sub-137,1.0,random_dot,60.00070801025314,
right,right,accuracy,,,,,0.0,0.0,0.0,0.0,14.0,1.0,29.0,1.0,262.097406099987,,,,,,,,,262.0855468999944,262.89777969999705,263.69914359998074,263.6821976999927,263.68223659999785,263.69914359998074,263.69914359998074,263.69914359998074,,265.8192834999936,right,1.0,1937.9683611000075,,,,,,,,,,,,,,,,,,,,,,,,,,,,,,,sub-137,1.0,random_dot,60.00070801025314,
right,right,accuracy,,,,,0.0,0.0,0.0,0.0,15.0,0.0,30.0,1.0,265.8331177000073,,,,,,,,,265.8209796999872,267.0339433999907,267.8351294999884,267.8180657000048,267.8180844000017,267.8351294999884,267.8351294999884,267.8351294999884,,269.05403179998393,left,0.0,1937.0620077000056,,,,,,,,,,,,,,,,,,,,,,,,,,,,,,,sub-137,1.0,random_dot,60.00070801025314,
left,left,accuracy,,,,,0.0,0.0,0.0,0.0,15.0,1.0,31.0,0.0,269.0684814999986,,,,,,,,,269.05510569998296,269.4190142999869,270.21994340000674,270.2039306999941,270.2039589000051,270.21994340000674,270.21994340000674,270.21994340000674,,272.2402315000072,right,0.0,1937.8669446999847,,,,,,,,,,,,,,,,,,,,,,,,,,,,,,,sub-137,1.0,random_dot,60.00070801025314,
right,right,accuracy,,,,,0.0,0.0,0.0,0.0,16.0,0.0,32.0,1.0,272.254219800001,,,,,,,,,272.2418738999986,273.4551047999994,274.2563686000067,274.2401927000028,274.2402337999956,274.2563686000067,274.2563686000067,274.2563686000067,,275.30890070000896,right,1.0,1936.890831800003,,,,,,,,,,,,,,,,,,,,,,,,,,,,,,,sub-137,1.0,random_dot,60.00070801025314,
left,left,accuracy,,,,,0.0,0.0,0.0,0.0,16.0,1.0,33.0,0.0,275.3232821999991,,,,,,,,,275.31061379998573,276.1238757999963,276.9249421999848,276.9086876999936,276.90872690000106,276.9249421999848,276.9249421999848,276.9249421999848,,277.84447819998604,left,1.0,1936.7627802999923,,,,,,,,,,,,,,,,,,,,,,,,,,,,,,,sub-137,1.0,random_dot,60.00070801025314,
left,left,accuracy,,,,,0.0,0.0,0.0,0.0,17.0,0.0,34.0,0.0,277.85836559999734,,,,,,,,,277.8463512999879,279.0589681999991,279.8604044999811,279.8439015999902,279.8439401999931,279.8604044999811,279.8604044999811,279.8604044999811,,281.22991729999194,left,1.0,1937.2070086000024,,,,,,,,,,,,,,,,,,,,,,,,,,,,,,,sub-137,1.0,random_dot,60.00070801025314,
right,right,accuracy,,,,,0.0,0.0,0.0,0.0,17.0,1.0,35.0,1.0,281.24402720000944,,,,,,,,,281.23172399998293,282.4446750000061,283.2458711999934,283.2300514999952,283.2300960999856,283.2458711999934,283.2458711999934,283.2458711999934,,284.1654778000084,right,1.0,1936.7614416000145,,,,,,,,,,,,,,,,,,,,,,,,,,,,,,,sub-137,1.0,random_dot,60.00070801025314,
left,left,accuracy,,,,,0.0,0.0,0.0,0.0,18.0,0.0,36.0,0.0,284.1792482000019,,,,,,,,,284.16743309999583,285.38014540000586,286.1813414999924,286.1651767999865,286.1652174000046,286.1813414999924,286.1813414999924,286.1813414999924,,287.1676953999849,left,1.0,1936.837252700032,,,,,,,,,,,,,,,,,,,,,,,,,,,,,,,sub-137,1.0,random_dot,60.00070801025314,
right,right,accuracy,,,,,0.0,0.0,0.0,0.0,18.0,1.0,37.0,1.0,287.1814502000052,,,,,,,,,287.1695142999816,287.98182929999894,288.7832776999858,288.7668302000093,288.7668697999907,288.7832776999858,288.7832776999858,288.7832776999858,,289.6188606999931,right,1.0,1936.674110699998,,,,,,,,,,,,,,,,,,,,,,,,,,,,,,,sub-137,1.0,random_dot,60.00070801025314,
left,left,accuracy,,,,,0.0,0.0,0.0,0.0,19.0,0.0,38.0,0.0,289.6331799000036,,,,,,,,,289.6205560999806,289.98338319998584,290.7845637999999,290.7683432000049,290.7683879999968,290.7845637999999,290.7845637999999,290.7845637999999,,291.63787539998884,left,1.0,1936.703216600028,,,,,,,,,,,,,,,,,,,,,,,,,,,,,,,sub-137,1.0,random_dot,60.00070801025314,
right,right,accuracy,,,,,0.0,0.0,0.0,0.0,19.0,1.0,39.0,1.0,291.6511117999908,,,,,,,,,291.6397929000086,292.852226899995,293.6531416999933,293.6370188999863,293.63705990000744,293.6531416999933,293.6531416999933,293.6531416999933,,294.7560213999823,right,1.0,1936.944597900001,,,,,,,,,,,,,,,,,,,,,,,,,,,,,,,sub-137,1.0,random_dot,60.00070801025314,
left,left,accuracy,,,,,0.0,0.0,0.0,0.0,20.0,0.0,40.0,0.0,294.76983849998214,,,,,,,,,294.7579410999897,295.570550799981,296.37155650000204,296.3554161000065,296.35545489998185,296.37155650000204,296.37155650000204,296.37155650000204,,297.7413608999923,left,1.0,1937.2063046999972,,,,,,,,,,,,,,,,,,,,,,,,,,,,,,,sub-137,1.0,random_dot,60.00070801025314,
right,right,accuracy,,,,,0.0,0.0,0.0,0.0,20.0,1.0,41.0,1.0,297.7555468000064,,,,,,,,,297.7433097999892,297.85543500000495,298.65683279998484,298.6403137999878,298.6403520999884,298.65683279998484,298.65683279998484,298.65683279998484,,299.4425462000072,right,1.0,1936.6315093000303,,,,,,,,,,,,,,,,,,,,,,,,,,,,,,,sub-137,1.0,random_dot,60.00070801025314,
right,right,accuracy,,,,,0.0,0.0,0.0,0.0,21.0,0.0,42.0,1.0,299.4564687999955,,,,,,,,,299.44434109999565,300.2570701999939,301.0581466000003,301.0408294000081,301.0408549999993,301.0581466000003,301.0581466000003,301.0581466000003,,301.7437571999908,left,0.0,1936.5296737000167,,,,,,,,,,,,,,,,,,,,,,,,,,,,,,,sub-137,1.0,random_dot,60.00070801025314,
left,left,accuracy,,,,,0.0,0.0,0.0,0.0,21.0,1.0,43.0,0.0,301.7581019999925,,,,,,,,,301.7456363000092,302.10819739999715,302.90943890000926,302.8934464000049,302.893484500004,302.90943890000926,302.90943890000926,302.90943890000926,,303.962331799994,right,0.0,1936.8993346999923,,,,,,,,,,,,,,,,,,,,,,,,,,,,,,,sub-137,1.0,random_dot,60.00070801025314,
left,left,accuracy,,,,,0.0,0.0,0.0,0.0,22.0,0.0,44.0,0.0,303.97623020000174,,,,,,,,,303.9639615000051,304.77684869998484,305.57817659998545,305.56188100000145,305.5619242999819,305.57817659998545,305.57817659998545,305.57817659998545,,307.0312025999883,left,1.0,1937.3011394000205,,,,,,,,,,,,,,,,,,,,,,,,,,,,,,,sub-137,1.0,random_dot,60.00070801025314,
right,right,accuracy,,,,,0.0,0.0,0.0,0.0,22.0,1.0,45.0,1.0,307.0450555999996,,,,,,,,,307.0329798999883,307.14516109999386,307.946420399996,307.92985809998936,307.9298942000023,307.946420399996,307.946420399996,307.946420399996,,308.66578779998235,right,1.0,1936.562735900021,,,,,,,,,,,,,,,,,,,,,,,,,,,,,,,sub-137,1.0,random_dot,60.00070801025314,
right,right,accuracy,,,,,0.0,0.0,0.0,0.0,23.0,0.0,46.0,1.0,308.6794292999839,,,,,,,,,308.66769800000475,309.029948099982,309.83107230000314,309.8147331000073,309.8147844999912,309.83107230000314,309.83107230000314,309.83107230000314,,311.8010963999841,right,1.0,1937.8068480000077,,,,,,,,,,,,,,,,,,,,,,,,,,,,,,,sub-137,1.0,random_dot,60.00070801025314,
left,left,accuracy,,,,,0.0,0.0,0.0,0.0,23.0,1.0,47.0,0.0,311.8152724999818,,,,,,,,,311.80309229998966,311.9150598999986,312.7162285000086,312.7000226999808,312.7000904000015,312.7162285000086,312.7162285000086,312.7162285000086,,313.8525354999874,left,1.0,1936.9830737999876,,,,,,,,,,,,,,,,,,,,,,,,,,,,,,,sub-137,1.0,random_dot,60.00070801025314,
right,right,accuracy,,,,,0.0,0.0,0.0,0.0,24.0,0.0,48.0,1.0,313.86653249998926,,,,,,,,,313.85439259998384,314.2166123999923,315.0178815999825,315.0019573000027,315.0019980999932,315.0178815999825,315.0178815999825,315.0178815999825,,315.87045250000665,right,1.0,1936.690041199996,,,,,,,,,,,,,,,,,,,,,,,,,,,,,,,sub-137,1.0,random_dot,60.00070801025314,
left,left,accuracy,,,,,0.0,0.0,0.0,0.0,24.0,1.0,49.0,0.0,315.8844845999847,,,,,,,,,315.8722333000041,315.9845477000053,316.7858312999888,316.76947500000824,316.7695255999861,316.7858312999888,316.7858312999888,316.7858312999888,,320.14025359999505,right,0.0,1939.2026708000049,,,,,,,,,,,,,,,,,,,,,,,,,,,,,,,sub-137,1.0,random_dot,60.00070801025314,
left,left,accuracy,,,,,0.0,0.0,0.0,0.0,25.0,0.0,50.0,0.0,320.1539256999968,,,,,,,,,320.1419535999885,320.50445869998657,321.3057958999998,321.2890142999822,321.2890525999828,321.3057958999998,321.3057958999998,321.3057958999998,,324.3769049999828,right,0.0,1938.912312600005,,,,,,,,,,,,,,,,,,,,,,,,,,,,,,,sub-137,1.0,random_dot,60.00070801025314,
right,right,accuracy,,,,,0.0,0.0,0.0,0.0,25.0,1.0,51.0,1.0,324.3903323999839,,,,,,,,,324.378664799995,324.7404674999998,325.5418553999916,325.5256029999873,325.5256437000062,325.5418553999916,325.5418553999916,325.5418553999916,,326.4117513000092,left,0.0,1936.7066881000064,,,,,,,,,,,,,,,,,,,,,,,,,,,,,,,sub-137,1.0,random_dot,60.00070801025314,
right,right,accuracy,,,,,0.0,0.0,0.0,0.0,26.0,0.0,52.0,1.0,326.42529109999305,,,,,,,,,326.413549799996,326.5254118999874,327.3261979999952,327.31021759999567,327.3102574000077,327.3261979999952,327.3261979999952,327.3261979999952,,328.3125960000034,right,1.0,1936.8230822000187,,,,,,,,,,,,,,,,,,,,,,,,,,,,,,,sub-137,1.0,random_dot,60.00070801025314,
left,left,accuracy,,,,,0.0,0.0,0.0,0.0,26.0,1.0,53.0,0.0,328.32654819998425,,,,,,,,,328.31461309999577,328.4260377000028,329.22805619999417,329.21158030000515,329.21161939998274,329.22805619999417,329.22805619999417,329.22805619999417,,330.6809199999843,left,1.0,1937.300977899984,,,,,,,,,,,,,,,,,,,,,,,,,,,,,,,sub-137,1.0,random_dot,60.00070801025314,
right,right,accuracy,,,,,0.0,0.0,0.0,0.0,27.0,0.0,54.0,1.0,330.6946123999951,,,,,,,,,330.6826427000051,331.89562530000694,332.69694749999326,332.6804259000055,332.6804635000008,332.69694749999326,332.69694749999326,332.69694749999326,,333.8996213999926,right,1.0,1937.0410775000053,,,,,,,,,,,,,,,,,,,,,,,,,,,,,,,sub-137,1.0,random_dot,60.00070801025314,
left,left,accuracy,,,,,0.0,0.0,0.0,0.0,27.0,1.0,55.0,0.0,333.91376639998634,,,,,,,,,333.9012855000037,334.26379409999936,335.06510959999287,335.0487753000052,335.0488134000043,335.06510959999287,335.06510959999287,335.06510959999287,,336.7010011000093,right,0.0,1937.472831000021,,,,,,,,,,,,,,,,,,,,,,,,,,,,,,,sub-137,1.0,random_dot,60.00070801025314,
right,right,accuracy,,,,,0.0,0.0,0.0,0.0,28.0,0.0,56.0,1.0,336.71554529998684,,,,,,,,,336.7022466000053,336.8157718000002,337.6170617000025,337.6005405999895,337.6005793999939,337.6170617000025,337.6170617000025,337.6170617000025,,339.1702649999934,right,1.0,1937.403456500004,,,,,,,,,,,,,,,,,,,,,,,,,,,,,,,sub-137,1.0,random_dot,60.00070801025314,
left,left,accuracy,,,,,0.0,0.0,0.0,0.0,28.0,1.0,57.0,0.0,339.1838650999998,,,,,,,,,339.172053199989,339.9850305999862,340.78597959998297,340.7695850000018,340.76962790000835,340.78597959998297,340.78597959998297,340.78597959998297,,341.7552141000051,right,0.0,1936.8130813000023,,,,,,,,,,,,,,,,,,,,,,,,,,,,,,,sub-137,1.0,random_dot,60.00070801025314,
right,right,accuracy,,,,,0.0,0.0,0.0,0.0,29.0,0.0,58.0,1.0,341.7691640999983,,,,,,,,,341.75730629998725,342.9698997999949,343.7710698999872,343.7549560999905,343.7549992999993,343.7710698999872,343.7710698999872,343.7710698999872,,345.5581039999961,right,1.0,1937.6372960000008,,,,,,,,,,,,,,,,,,,,,,,,,,,,,,,sub-137,1.0,random_dot,60.00070801025314,
left,left,accuracy,,,,,0.0,0.0,0.0,0.0,29.0,1.0,59.0,0.0,345.57135889999336,,,,,,,,,345.5599501999968,346.3723456999869,347.17356229998404,347.1573275999981,347.15738210000563,347.17356229998404,347.17356229998404,347.17356229998404,,348.2597034999926,right,0.0,1936.9244464999936,,,,,,,,,,,,,,,,,,,,,,,,,,,,,,,sub-137,1.0,random_dot,60.00070801025314,
,,accuracy,,,,,0.0,0.0,0.0,0.0,,,,,,,,,,,,,,,,,,,,,,,,,,,,,,,,,,,,,,,,,,,,,,,,,,,,,,,,,sub-137,1.0,random_dot,60.00070801025314,
right,right,speed,,,,,0.0,1.0,1.0,1.0,0.0,0.0,0.0,1.0,355.9479311000032,,,,,,,,,355.9442565999925,356.74593159998767,357.5474725999811,357.531176199991,357.53122040000744,357.5474725999811,357.5474725999811,357.5474725999811,,358.61762869998347,right,1.0,1936.921172000002,,,,,,,,,,,,,,,,,,,,348.26142009999603,348.2794761999976,348.2794761999976,355.931307699997,space,1943.4891473999887,,,,,,sub-137,1.0,random_dot,60.00070801025314,
left,left,speed,,,,,0.0,1.0,1.0,1.0,0.0,1.0,1.0,0.0,358.63079249998555,,,,,,,,,358.6199096000055,358.98110199999064,359.78233499999624,359.7657080999925,359.765748100006,359.78233499999624,359.78233499999624,359.78233499999624,,360.2180679999874,right,0.0,1936.2760691000149,,,,,,,,,,,,,,,,,,,,,,,,,,,,,,,sub-137,1.0,random_dot,60.00070801025314,
left,left,speed,,,,,0.0,1.0,1.0,1.0,1.0,0.0,2.0,0.0,360.23171619998175,,,,,,,,,360.21987040000386,360.3317761000071,361.13335279998137,361.1167535999848,361.1168228999886,361.13335279998137,361.13335279998137,361.13335279998137,,361.5863738000044,right,0.0,1936.3045420999988,,,,,,,,,,,,,,,,,,,,,,,,,,,,,,,sub-137,1.0,random_dot,60.00070801025314,
right,right,speed,,,,,0.0,1.0,1.0,1.0,1.0,1.0,3.0,1.0,361.5994279999868,,,,,,,,,361.5883501000062,362.3999493999872,363.2014828999818,363.1850199000037,363.1851037000015,363.2014828999818,363.2014828999818,363.2014828999818,,363.5531652999925,left,0.0,1936.1974303000025,,,,,,,,,,,,,,,,,,,,,,,,,,,,,,,sub-137,1.0,random_dot,60.00070801025314,
right,right,speed,,,,,0.0,1.0,1.0,1.0,2.0,0.0,4.0,1.0,363.567326599994,,,,,,,,,363.5548523000034,363.6673616000044,364.468615699996,364.452744499984,364.4527857000066,364.468615699996,364.468615699996,364.468615699996,,365.1716984999948,left,0.0,1936.539688299992,,,,,,,,,,,,,,,,,,,,,,,,,,,,,,,sub-137,1.0,random_dot,60.00070801025314,
left,left,speed,,,,,0.0,1.0,1.0,1.0,2.0,1.0,5.0,0.0,365.1849439000071,,,,,,,,,365.17335430000094,365.5354492999904,366.3368091000011,366.3203561999835,366.3203947999864,366.3368091000011,366.3368091000011,366.3368091000011,,366.7399558000034,right,0.0,1936.2532065999983,,,,,,,,,,,,,,,,,,,,,,,,,,,,,,,sub-137,1.0,random_dot,60.00070801025314,
left,left,speed,,,,,0.0,1.0,1.0,1.0,3.0,0.0,6.0,0.0,366.7529016000044,,,,,,,,,366.7417958999868,367.9536475999921,368.7552116999868,368.7387522000063,368.73879440000746,368.7552116999868,368.7552116999868,368.7552116999868,,369.3582003999909,right,0.0,1936.4533046,,,,,,,,,,,,,,,,,,,,,,,,,,,,,,,sub-137,1.0,random_dot,60.00070801025314,
right,right,speed,,,,,0.0,1.0,1.0,1.0,3.0,1.0,7.0,1.0,369.3715613999812,,,,,,,,,369.3598251999938,369.72165459999815,370.5230077999877,370.5069647000055,370.5070053999953,370.5230077999877,370.5230077999877,370.5230077999877,,371.7927089000004,right,1.0,1937.1160938999965,,,,,,,,,,,,,,,,,,,,,,,,,,,,,,,sub-137,1.0,random_dot,60.00070801025314,
right,right,speed,,,,,0.0,1.0,1.0,1.0,4.0,0.0,8.0,1.0,371.8064555999881,,,,,,,,,371.7945116999909,372.6070344999898,373.4082142999978,373.3917376000026,373.3917768999818,373.4082142999978,373.4082142999978,373.4082142999978,,376.312180399982,right,1.0,1938.7408763999997,,,,,,,,,,,,,,,,,,,,,,,,,,,,,,,sub-137,1.0,random_dot,60.00070801025314,
left,left,speed,,,,,0.0,1.0,1.0,1.0,4.0,1.0,9.0,0.0,376.3266590999847,,,,,,,,,376.3138264000008,376.4262105000089,377.2274015999865,377.21136580000166,377.2114040000015,377.2274015999865,377.2274015999865,377.2274015999865,,378.1137832000095,left,1.0,1936.7317434000145,,,,,,,,,,,,,,,,,,,,,,,,,,,,,,,sub-137,1.0,random_dot,60.00070801025314,
left,left,speed,,,,,0.0,1.0,1.0,1.0,5.0,0.0,10.0,0.0,378.12740599998506,,,,,,,,,378.11560679998365,379.3283263999911,380.12966159998905,380.1134431999817,380.11348450000514,380.12966159998905,380.12966159998905,380.12966159998905,,380.7822436999995,right,0.0,1936.498466799996,,,,,,,,,,,,,,,,,,,,,,,,,,,,,,,sub-137,1.0,random_dot,60.00070801025314,
right,right,speed,,,,,0.0,1.0,1.0,1.0,5.0,1.0,11.0,1.0,380.7960394999827,,,,,,,,,380.7841850999976,381.1463595000096,381.94752469999366,381.9313616,381.9314010999806,381.94752469999366,381.94752469999366,381.94752469999366,,383.9509284000087,right,1.0,1937.8512893000152,,,,,,,,,,,,,,,,,,,,,,,,,,,,,,,sub-137,1.0,random_dot,60.00070801025314,
right,right,speed,,,,,0.0,1.0,1.0,1.0,6.0,0.0,12.0,1.0,383.9649356000009,,,,,,,,,383.9528517999861,384.7655137999973,385.5666060000076,385.5505370000028,385.5505747999996,385.5666060000076,385.5666060000076,385.5666060000076,,387.8864850999962,right,1.0,1938.1617815000063,,,,,,,,,,,,,,,,,,,,,,,,,,,,,,,sub-137,1.0,random_dot,60.00070801025314,
left,left,speed,,,,,0.0,1.0,1.0,1.0,6.0,1.0,13.0,0.0,387.900547600002,,,,,,,,,387.8885224999976,388.7013832000084,389.5029915999912,389.48658649998833,389.4866287999903,389.5029915999912,389.5029915999912,389.5029915999912,,390.1382203999965,left,1.0,1936.477308600006,,,,,,,,,,,,,,,,,,,,,,,,,,,,,,,sub-137,1.0,random_dot,60.00070801025314,
left,left,speed,,,,,0.0,1.0,1.0,1.0,7.0,0.0,14.0,0.0,390.1524052000023,,,,,,,,,390.1400212000008,390.95310489999247,391.7542629999807,391.7380201999913,391.7380589999957,391.7542629999807,391.7542629999807,391.7542629999807,,392.85694929998135,left,1.0,1936.945252800011,,,,,,,,,,,,,,,,,,,,,,,,,,,,,,,sub-137,1.0,random_dot,60.00070801025314,
right,right,speed,,,,,0.0,1.0,1.0,1.0,7.0,1.0,15.0,1.0,392.87112669998896,,,,,,,,,392.8586142999993,393.22140700000455,394.02261799998814,394.006195199996,394.00623229998746,394.02261799998814,394.02261799998814,394.02261799998814,,395.1090518999845,right,1.0,1936.9270380000237,,,,,,,,,,,,,,,,,,,,,,,,,,,,,,,sub-137,1.0,random_dot,60.00070801025314,
right,right,speed,,,,,0.0,1.0,1.0,1.0,8.0,0.0,16.0,1.0,395.12265529998695,,,,,,,,,395.11069569998654,396.32307499999297,397.12467359998845,397.1082828000072,397.108347100002,397.12467359998845,397.12467359998845,397.12467359998845,,397.9250463999924,right,1.0,1936.6446609999985,,,,,,,,,,,,,,,,,,,,,,,,,,,,,,,sub-137,1.0,random_dot,60.00070801025314,
left,left,speed,,,,,0.0,1.0,1.0,1.0,8.0,1.0,17.0,0.0,397.94055830000434,,,,,,,,,397.9257002999948,398.2745911999955,399.0758990999893,399.0597928999923,399.0598368000065,399.0758990999893,399.0758990999893,399.0758990999893,,401.529003899981,left,1.0,1938.303438200004,,,,,,,,,,,,,,,,,,,,,,,,,,,,,,,sub-137,1.0,random_dot,60.00070801025314,
left,left,speed,,,,,0.0,1.0,1.0,1.0,9.0,0.0,18.0,0.0,401.5432612999866,,,,,,,,,401.5304498999904,401.6438352999976,402.4450232999807,402.4290485999954,402.4290918000042,402.4450232999807,402.4450232999807,402.4450232999807,,404.680915999983,left,1.0,1938.0739485000088,,,,,,,,,,,,,,,,,,,,,,,,,,,,,,,sub-137,1.0,random_dot,60.00070801025314,
right,right,speed,,,,,0.0,1.0,1.0,1.0,9.0,1.0,19.0,1.0,404.6957444,,,,,,,,,404.6821054999891,404.7954820999876,405.5968492999964,405.5803264999995,405.5803476999863,405.5968492999964,405.5968492999964,405.5968492999964,,406.3308532999945,right,1.0,1936.5821029999931,,,,,,,,,,,,,,,,,,,,,,,,,,,,,,,sub-137,1.0,random_dot,60.00070801025314,
left,left,speed,,,,,0.0,1.0,1.0,1.0,10.0,0.0,20.0,0.0,406.3464153999812,,,,,,,,,406.3315048000077,407.5311329999822,408.33261449998827,408.3158831000037,408.3159237999935,408.33261449998827,408.33261449998827,408.33261449998827,,409.0848837000085,left,1.0,1936.5980724999968,,,,,,,,,,,,,,,,,,,,,,,,,,,,,,,sub-137,1.0,random_dot,60.00070801025314,
right,right,speed,,,,,0.0,1.0,1.0,1.0,10.0,1.0,21.0,1.0,409.098759799992,,,,,,,,,409.08683129999554,410.2996055999829,411.1012538000068,411.0846927000093,411.0847305000061,411.1012538000068,411.1012538000068,411.1012538000068,,411.6531994999968,right,1.0,1936.3886064000253,,,,,,,,,,,,,,,,,,,,,,,,,,,,,,,sub-137,1.0,random_dot,60.00070801025314,
left,left,speed,,,,,0.0,1.0,1.0,1.0,11.0,0.0,22.0,0.0,411.667334400001,,,,,,,,,411.65493679998326,412.0176164000004,412.8188375000027,412.8025301999878,412.80256869998993,412.8188375000027,412.8188375000027,412.8188375000027,,413.3548926000076,right,0.0,1936.3817545000056,,,,,,,,,,,,,,,,,,,,,,,,,,,,,,,sub-137,1.0,random_dot,60.00070801025314,
right,right,speed,,,,,0.0,1.0,1.0,1.0,11.0,1.0,23.0,1.0,413.3687059000076,,,,,,,,,413.35671590000857,413.7190134999983,414.52010910000536,414.5040085999936,414.50404870000784,414.52010910000536,414.52010910000536,414.52010910000536,,415.422516599996,left,0.0,1936.7387719000108,,,,,,,,,,,,,,,,,,,,,,,,,,,,,,,sub-137,1.0,random_dot,60.00070801025314,
right,right,speed,,,,,0.0,1.0,1.0,1.0,12.0,0.0,24.0,1.0,415.4366551999992,,,,,,,,,415.4241621999827,415.536589299998,416.3380638999806,416.32163829999627,416.3216762999946,416.3380638999806,416.3380638999806,416.3380638999806,,417.7241358000029,right,1.0,1937.2320097000047,,,,,,,,,,,,,,,,,,,,,,,,,,,,,,,sub-137,1.0,random_dot,60.00070801025314,
left,left,speed,,,,,0.0,1.0,1.0,1.0,12.0,1.0,25.0,0.0,417.738219699997,,,,,,,,,417.7260407999856,418.93905270000687,419.7403631999914,419.7242586000066,419.7242968000064,419.7403631999914,419.7403631999914,419.7403631999914,,420.82637589998194,left,1.0,1936.9301557000144,,,,,,,,,,,,,,,,,,,,,,,,,,,,,,,sub-137,1.0,random_dot,60.00070801025314,
right,right,speed,,,,,0.0,1.0,1.0,1.0,13.0,0.0,26.0,1.0,420.84051419998286,,,,,,,,,420.8281546999933,422.0411392999813,422.842358199996,422.8261006999819,422.826138799981,422.842358199996,422.842358199996,422.842358199996,,425.9796727999928,left,0.0,1938.9770755000063,,,,,,,,,,,,,,,,,,,,,,,,,,,,,,,sub-137,1.0,random_dot,60.00070801025314,
left,left,speed,,,,,0.0,1.0,1.0,1.0,13.0,1.0,27.0,0.0,425.9940935999912,,,,,,,,,425.9813576999877,426.0940567000071,426.895183399989,426.8789730999852,426.8790133000002,426.895183399989,426.895183399989,426.895183399989,,427.64766280000913,right,0.0,1936.594825100008,,,,,,,,,,,,,,,,,,,,,,,,,,,,,,,sub-137,1.0,random_dot,60.00070801025314,
left,left,speed,,,,,0.0,1.0,1.0,1.0,14.0,0.0,28.0,0.0,427.66207590000704,,,,,,,,,427.649302899983,428.0120781000005,428.81327779998537,428.7971514999808,428.7971939999843,428.81327779998537,428.81327779998537,428.81327779998537,,429.4489547999983,right,0.0,1936.476493199996,,,,,,,,,,,,,,,,,,,,,,,,,,,,,,,sub-137,1.0,random_dot,60.00070801025314,
right,right,speed,,,,,0.0,1.0,1.0,1.0,14.0,1.0,29.0,1.0,429.463205899985,,,,,,,,,429.4507651999884,430.66397649998544,431.4652381000051,431.4491442999861,431.449209399987,431.4652381000051,431.4652381000051,431.4652381000051,,433.9020425000053,left,0.0,1938.2740281000151,,,,,,,,,,,,,,,,,,,,,,,,,,,,,,,sub-137,1.0,random_dot,60.00070801025314,
right,right,speed,,,,,0.0,1.0,1.0,1.0,15.0,0.0,30.0,1.0,433.9159331999836,,,,,,,,,433.9036915999896,434.01610380000784,434.817569899984,434.80123929999536,434.8012766999891,434.817569899984,434.817569899984,434.817569899984,,435.570320400002,right,1.0,1936.6025669000228,,,,,,,,,,,,,,,,,,,,,,,,,,,,,,,sub-137,1.0,random_dot,60.00070801025314,
left,left,speed,,,,,0.0,1.0,1.0,1.0,15.0,1.0,31.0,0.0,435.5839075999975,,,,,,,,,435.5721322000026,435.6840321999916,436.4853102999914,436.4686857000052,436.468722199992,436.4853102999914,436.4853102999914,436.4853102999914,,437.5710110999935,left,1.0,1936.9246791000187,,,,,,,,,,,,,,,,,,,,,,,,,,,,,,,sub-137,1.0,random_dot,60.00070801025314,
left,left,speed,,,,,0.0,1.0,1.0,1.0,16.0,0.0,32.0,0.0,437.5850601999846,,,,,,,,,437.5727223999857,437.9355539999961,438.7366803000041,438.72037359999376,438.7204116999928,438.7366803000041,438.7366803000041,438.7366803000041,,439.65633189998334,left,1.0,1936.7631216000009,,,,,,,,,,,,,,,,,,,,,,,,,,,,,,,sub-137,1.0,random_dot,60.00070801025314,
right,right,speed,,,,,0.0,1.0,1.0,1.0,16.0,1.0,33.0,1.0,439.6699980999984,,,,,,,,,439.6581260999956,440.0202084000048,440.821391400008,440.80520919998526,440.8052469999821,440.821391400008,440.821391400008,440.821391400008,,441.45757130000857,right,1.0,1936.479320999992,,,,,,,,,,,,,,,,,,,,,,,,,,,,,,,sub-137,1.0,random_dot,60.00070801025314,
right,right,speed,,,,,0.0,1.0,1.0,1.0,17.0,0.0,34.0,1.0,441.4711324999808,,,,,,,,,441.45934879998094,441.5714107999811,442.3725715999899,442.3566112999979,442.3566540000029,442.3725715999899,442.3725715999899,442.3725715999899,,443.3584663000074,right,1.0,1936.837038400001,,,,,,,,,,,,,,,,,,,,,,,,,,,,,,,sub-137,1.0,random_dot,60.00070801025314,
left,left,speed,,,,,0.0,1.0,1.0,1.0,17.0,1.0,35.0,0.0,443.37231659999816,,,,,,,,,443.35970480000833,444.5734832999879,445.37468269999954,445.3584695000027,445.3585091999848,445.37468269999954,445.37468269999954,445.37468269999954,,446.0940040999849,right,0.0,1936.5563879999968,,,,,,,,,,,,,,,,,,,,,,,,,,,,,,,sub-137,1.0,random_dot,60.00070801025314,
left,left,speed,,,,,0.0,1.0,1.0,1.0,18.0,0.0,36.0,0.0,446.1078351000033,,,,,,,,,446.09571409999626,447.3087202000024,448.1098317999858,448.0937692000007,448.0938086999813,448.1098317999858,448.1098317999858,448.1098317999858,,448.7125974000082,right,0.0,1936.4499714999984,,,,,,,,,,,,,,,,,,,,,,,,,,,,,,,sub-137,1.0,random_dot,60.00070801025314,
right,right,speed,,,,,0.0,1.0,1.0,1.0,18.0,1.0,37.0,1.0,448.726159199985,,,,,,,,,448.7145272000053,449.5269655000011,450.3281351999904,450.31216219998896,450.31219949998194,450.3281351999904,450.3281351999904,450.3281351999904,,451.0307993000024,right,1.0,1936.5410033999945,,,,,,,,,,,,,,,,,,,,,,,,,,,,,,,sub-137,1.0,random_dot,60.00070801025314,
right,right,speed,,,,,0.0,1.0,1.0,1.0,19.0,0.0,38.0,1.0,451.0447437999828,,,,,,,,,451.0325927000085,451.3948898999952,452.1960012000054,452.179728099989,452.1797669999942,452.1960012000054,452.1960012000054,452.1960012000054,,453.1322471000021,right,1.0,1936.7731531999889,,,,,,,,,,,,,,,,,,,,,,,,,,,,,,,sub-137,1.0,random_dot,60.00070801025314,
left,left,speed,,,,,0.0,1.0,1.0,1.0,19.0,1.0,39.0,0.0,453.1458778000088,,,,,,,,,453.1343619999825,453.9466845999996,454.74787079999805,454.73138300000574,454.7314400000032,454.74787079999805,454.74787079999805,454.74787079999805,,455.6337742999895,right,0.0,1936.7220458000083,,,,,,,,,,,,,,,,,,,,,,,,,,,,,,,sub-137,1.0,random_dot,60.00070801025314,
right,right,speed,,,,,0.0,1.0,1.0,1.0,20.0,0.0,40.0,1.0,455.6477164999815,,,,,,,,,455.63547619999736,455.99799810000695,456.7993074999831,456.7830204000056,456.7830580000009,456.7993074999831,456.7993074999831,456.7993074999831,,457.8018356999965,right,1.0,1936.8401149000276,,,,,,,,,,,,,,,,,,,,,,,,,,,,,,,sub-137,1.0,random_dot,60.00070801025314,
left,left,speed,,,,,0.0,1.0,1.0,1.0,20.0,1.0,41.0,0.0,457.8157409999985,,,,,,,,,457.8036352999916,457.91610010000295,458.7173853999993,458.7009662000055,458.7010060999892,458.7173853999993,458.7173853999993,458.7173853999993,,459.8702290999936,right,0.0,1936.992245300004,,,,,,,,,,,,,,,,,,,,,,,,,,,,,,,sub-137,1.0,random_dot,60.00070801025314,
left,left,speed,,,,,0.0,1.0,1.0,1.0,21.0,0.0,42.0,0.0,459.88388559999294,,,,,,,,,459.871997499984,460.684460199991,461.4858392000024,461.4695800000045,461.4696177000005,461.4858392000024,461.4858392000024,461.4858392000024,,462.7387534999871,right,0.0,1937.103723600012,,,,,,,,,,,,,,,,,,,,,,,,,,,,,,,sub-137,1.0,random_dot,60.00070801025314,
right,right,speed,,,,,0.0,1.0,1.0,1.0,21.0,1.0,43.0,1.0,462.7528079999902,,,,,,,,,462.74052190000657,463.9532214000064,464.7551453000051,464.738718699984,464.7387707000016,464.7551453000051,464.7551453000051,464.7551453000051,,465.7242031999922,left,0.0,1936.8051856000093,,,,,,,,,,,,,,,,,,,,,,,,,,,,,,,sub-137,1.0,random_dot,60.00070801025314,
left,left,speed,,,,,0.0,1.0,1.0,1.0,22.0,0.0,44.0,0.0,465.7381924999936,,,,,,,,,465.7258643999812,466.5382176999992,467.3398335999809,467.3231747999962,467.3232066000055,467.3398335999809,467.3398335999809,467.3398335999809,,468.4092827999848,right,0.0,1936.909732900007,,,,,,,,,,,,,,,,,,,,,,,,,,,,,,,sub-137,1.0,random_dot,60.00070801025314,
right,right,speed,,,,,0.0,1.0,1.0,1.0,22.0,1.0,45.0,1.0,468.4229258999985,,,,,,,,,468.41105979998247,469.62412150000455,470.4254748999956,470.4091834999854,470.40922060000594,470.4254748999956,470.4254748999956,470.4254748999956,,472.1788464999991,right,1.0,1937.6044843000127,,,,,,,,,,,,,,,,,,,,,,,,,,,,,,,sub-137,1.0,random_dot,60.00070801025314,
left,left,speed,,,,,0.0,1.0,1.0,1.0,23.0,0.0,46.0,0.0,472.1925498000055,,,,,,,,,472.1805391999951,472.99303620000137,473.79455749999033,473.778052699985,473.7780900000071,473.79455749999033,473.79455749999033,473.79455749999033,,475.2640484999865,left,1.0,1937.3059207999904,,,,,,,,,,,,,,,,,,,,,,,,,,,,,,,sub-137,1.0,random_dot,60.00070801025314,
right,right,speed,,,,,0.0,1.0,1.0,1.0,23.0,1.0,47.0,1.0,475.2779814999958,,,,,,,,,475.265685099992,476.0785894999863,476.880041299999,476.8634359999851,476.8634768000047,476.880041299999,476.880041299999,476.880041299999,,478.3492299999925,right,1.0,1937.3097284999967,,,,,,,,,,,,,,,,,,,,,,,,,,,,,,,sub-137,1.0,random_dot,60.00070801025314,
left,left,speed,,,,,0.0,1.0,1.0,1.0,24.0,0.0,48.0,0.0,478.3633582000039,,,,,,,,,478.3510818000068,478.71384599999874,479.51497079999535,479.49855950000347,479.4985966999957,479.51497079999535,479.51497079999535,479.51497079999535,,482.00221040000906,right,0.0,1938.3265200000023,,,,,,,,,,,,,,,,,,,,,,,,,,,,,,,sub-137,1.0,random_dot,60.00070801025314,
right,right,speed,,,,,0.0,1.0,1.0,1.0,24.0,1.0,49.0,1.0,482.0159433000081,,,,,,,,,482.0040913999837,482.3660269999818,483.1674942999962,483.1512653999962,483.1513023999869,483.1674942999962,483.1674942999962,483.1674942999962,,484.25370299999486,right,1.0,1936.9238538999923,,,,,,,,,,,,,,,,,,,,,,,,,,,,,,,sub-137,1.0,random_dot,60.00070801025314,
left,left,speed,,,,,0.0,1.0,1.0,1.0,25.0,0.0,50.0,0.0,484.2677139999869,,,,,,,,,484.255634000001,484.3676549000084,485.1690364999813,485.1525069999916,485.15255679999245,485.1690364999813,485.1690364999813,485.1690364999813,,486.7219126999844,left,1.0,1937.3923956000071,,,,,,,,,,,,,,,,,,,,,,,,,,,,,,,sub-137,1.0,random_dot,60.00070801025314,
right,right,speed,,,,,0.0,1.0,1.0,1.0,25.0,1.0,51.0,1.0,486.7356111999834,,,,,,,,,486.72362919998704,487.93643370000063,488.7381302999856,488.7219827999943,488.7220229000086,488.7381302999856,488.7381302999856,488.7381302999856,,489.7738793999888,right,1.0,1936.8839441000016,,,,,,,,,,,,,,,,,,,,,,,,,,,,,,,sub-137,1.0,random_dot,60.00070801025314,
right,right,speed,,,,,0.0,1.0,1.0,1.0,26.0,0.0,52.0,1.0,489.7878221999854,,,,,,,,,489.7756462999969,490.5884880000085,491.389975099999,491.3737604999915,491.37380219998886,491.389975099999,491.389975099999,491.389975099999,,493.30984349999926,right,1.0,1937.7607504999903,,,,,,,,,,,,,,,,,,,,,,,,,,,,,,,sub-137,1.0,random_dot,60.00070801025314,
left,left,speed,,,,,0.0,1.0,1.0,1.0,26.0,1.0,53.0,0.0,493.3236218999955,,,,,,,,,493.3115179000015,494.1243067999894,494.9256328000047,494.90921670000535,494.9092558999837,494.9256328000047,494.9256328000047,494.9256328000047,,497.98009969998384,right,0.0,1938.9055833000168,,,,,,,,,,,,,,,,,,,,,,,,,,,,,,,sub-137,1.0,random_dot,60.00070801025314,
right,right,speed,,,,,0.0,1.0,1.0,1.0,27.0,0.0,54.0,1.0,497.9937585000007,,,,,,,,,497.9819877999835,498.34386920000543,499.145233999996,499.1289908000035,499.1290309999895,499.145233999996,499.145233999996,499.145233999996,,500.6315289000049,right,1.0,1937.3369540999995,,,,,,,,,,,,,,,,,,,,,,,,,,,,,,,sub-137,1.0,random_dot,60.00070801025314,
left,left,speed,,,,,0.0,1.0,1.0,1.0,27.0,1.0,55.0,0.0,500.6456035999872,,,,,,,,,500.6332562000025,501.4460686999955,502.2474406999827,502.2310322999838,502.2310716999928,502.2474406999827,502.2474406999827,502.2474406999827,,504.2680330000003,right,0.0,1937.8632431000003,,,,,,,,,,,,,,,,,,,,,,,,,,,,,,,sub-137,1.0,random_dot,60.00070801025314,
left,left,speed,,,,,0.0,1.0,1.0,1.0,28.0,0.0,56.0,0.0,504.28109410000616,,,,,,,,,504.2697303000023,505.4820764999895,506.28330879998975,506.2671127000067,506.2671496999974,506.28330879998975,506.28330879998975,506.28330879998975,,508.2201567000011,right,0.0,1937.7781181000173,,,,,,,,,,,,,,,,,,,,,,,,,,,,,,,sub-137,1.0,random_dot,60.00070801025314,
right,right,speed,,,,,0.0,1.0,1.0,1.0,28.0,1.0,57.0,1.0,508.2341022999899,,,,,,,,,508.222193499998,508.5846823999891,509.385544299992,509.369248300005,509.3692879999872,509.385544299992,509.385544299992,509.385544299992,,511.3558304999897,right,1.0,1937.8155559000152,,,,,,,,,,,,,,,,,,,,,,,,,,,,,,,sub-137,1.0,random_dot,60.00070801025314,
right,right,speed,,,,,0.0,1.0,1.0,1.0,29.0,0.0,58.0,1.0,511.369627499982,,,,,,,,,511.3576097000041,512.1702227999922,512.9714108000044,512.9551743000047,512.9552115999977,512.9714108000044,512.9714108000044,512.9714108000044,,515.9586836999806,right,1.0,1938.8298110000032,,,,,,,,,,,,,,,,,,,,,,,,,,,,,,,sub-137,1.0,random_dot,60.00070801025314,
left,left,speed,,,,,0.0,1.0,1.0,1.0,29.0,1.0,59.0,0.0,515.972637800005,,,,,,,,,515.9605193999887,517.1738522000087,517.9749612000014,517.9584336999978,517.9584720999992,517.9749612000014,517.9749612000014,517.9749612000014,,519.2447119999852,right,0.0,1937.1156371000104,,,,,,,,,,,,,,,,,,,,,,,,,,,,,,,sub-137,1.0,random_dot,60.00070801025314,
,,speed,,,,,0.0,1.0,1.0,1.0,,,,,,,,,,,,,,,,,,,,,,,,,,,,,,,,,,,,,,,,,,,,,,,,,,,,,,,,,sub-137,1.0,random_dot,60.00070801025314,
,,,,,,,,,,,,,,,,,,,,,,,,,,,,,,,,,,,,,,,,,,,,,,,,,,,,,,,,,,,,,,,519.2460511999961,519.2583812999947,524.2617959000054,524.2465512999916,sub-137,,,,
