direction,corrAns,thisN,thisTrialN,thisRepN,respDots.keys,respDots.corr,respDots.rt,respDots.duration,randomInstr,respRandomInstr.keys,respRandomInstr.rt,respRandomInstr.duration,practice_trials.thisRepN,practice_trials.thisTrialN,practice_trials.thisN,practice_trials.thisIndex,instr_trials.thisRepN,instr_trials.thisTrialN,instr_trials.thisN,instr_trials.thisIndex,test_trials.thisRepN,test_trials.thisTrialN,test_trials.thisN,test_trials.thisIndex,thisRow.t,notes,general_instruction.started,textGeneralInstr.started,respGeneralInstr.started,general_instruction.stopped,respGeneralInstr.keys,respGeneralInstr.rt,respGeneralInstr.duration,ITI.started,fixcross.started,fixcross.stopped,ITI.stopped,dots.started,backgroundDots.started,stimulusDots.started,respDots.started,dots.stopped,practice_trials.respDots.keys,practice_trials.respDots.corr,practice_trials.respDots.rt,practice_trials.respDots.duration,feedback.started,textFeedback.started,feedback.stopped,textFeedback.stopped,info.started,textInfo.started,keyRespInfo.started,info.stopped,keyRespInfo.keys,keyRespInfo.rt,keyRespInfo.duration,test_instruction.started,textTestInstr.started,respTestInstr.started,test_instruction.stopped,respTestInstr.keys,respTestInstr.rt,respTestInstr.duration,random_instruction.started,textRandomInstr.started,respRandomInstr.started,random_instruction.stopped,instr_trials.respRandomInstr.keys,instr_trials.respRandomInstr.rt,instr_trials.respRandomInstr.duration,test_trials.respDots.keys,test_trials.respDots.corr,test_trials.respDots.rt,test_trials.respDots.duration,goodbye.started,textGoodbye.started,textGoodbye.stopped,goodbye.stopped,participant,session,expName,frameRate,Unnamed: 87
,,,,,,,,,,,,,,,,,,,,,,,,,,,0.0084588329991674,0.0170980420007254,0.0170980420007254,16.72154487499938,space,16.666786665999098,,,,,,,,,,,,,,,,,,,,,,,,,,,,,,,,,,,,,,,,,,,,,,,,sub-011,1,random_dot,,
left,left,0.0,0.0,0.0,left,1.0,2.423754375002318,,,,,,0.0,0.0,0.0,0.0,,,,,,,,,16.747899875001167,,,,,,,,,16.733074542000395,17.928010083000117,18.727604125000653,18.71204020799996,18.71258699999817,18.727604125000653,18.727604125000653,18.727604125000653,21.15345279200119,left,1.0,2.423754375002318,,21.159265416998096,21.19244095799877,21.66156695799873,,,,,,,,,,,,,,,,,,,,,,,,,,,,,,,sub-011,1,random_dot,,
right,right,1.0,1.0,0.0,right,1.0,0.8110153750021709,,,,,,0.0,1.0,1.0,1.0,,,,,,,,,21.668130582998856,,,,,,,,,21.662004292000347,22.850996791999933,23.64467112499915,23.635611166999297,23.636067374998674,23.64467112499915,23.64467112499915,23.64467112499915,24.46201099999962,right,1.0,0.8110153750021709,,24.462150499999552,24.470249792000686,24.96198162499786,24.96791829200083,,,,,,,,,,,,,,,,,,,,,,,,,,,,,,sub-011,1,random_dot,,
left,left,2.0,0.0,1.0,left,1.0,1.7462972499997704,,,,,,1.0,0.0,2.0,0.0,,,,,,,,,24.96791829200083,,,,,,,,,24.96227016699777,25.30232550000073,26.09440054199877,26.085833541998,26.08617299999969,26.09440054199877,26.09440054199877,26.09440054199877,27.845739583000977,left,1.0,1.7462972499997704,,27.84582616699845,27.853057917000115,28.3453987920002,28.35239004200048,,,,,,,,,,,,,,,,,,,,,,,,,,,,,,sub-011,1,random_dot,,
right,right,3.0,1.0,1.0,right,1.0,0.7654470840025169,,,,,,1.0,1.0,3.0,1.0,,,,,,,,,28.35239004200048,,,,,,,,,28.345837291999487,29.13539333299923,29.937909583000877,29.92901529200026,29.929551707999053,29.937909583000877,29.937909583000877,29.937909583000877,30.7125022500004,right,1.0,0.7654470840025169,,30.71259241699954,30.719670667000173,31.212097749998065,31.218640625000265,,,,,,,,,,,,,,,,,,,,,,,,,,,,,,sub-011,1,random_dot,,
left,left,4.0,0.0,2.0,left,1.0,0.571200417001819,,,,,,2.0,0.0,4.0,0.0,,,,,,,,,31.218640625000265,,,,,,,,,31.21250712500114,32.00214950000009,32.79868712499956,32.78941795799983,32.7900296250009,32.79868712499956,32.79868712499956,32.79868712499956,33.38014887499958,left,1.0,0.571200417001819,,33.38028812500124,33.387718750000204,33.87878558299781,33.885132457999134,,,,,,,,,,,,,,,,,,,,,,,,,,,,,,sub-011,1,random_dot,,
right,right,5.0,1.0,2.0,right,1.0,0.5910480410020682,,,,,,2.0,1.0,5.0,1.0,,,,,,,,,33.885132457999134,,,,,,,,,33.879155041999184,33.97839345800094,34.770341332998214,34.762074416998075,34.76246924999941,34.770341332998214,34.770341332998214,34.770341332998214,35.36282470799779,right,1.0,0.5910480410020682,,35.36291783300112,35.368356041999505,35.86234408299788,35.868729624999105,,,,,,,,,,,,,,,,,,,,,,,,,,,,,,sub-011,1,random_dot,,
right,right,6.0,0.0,3.0,right,1.0,0.6735462500000722,,,,,,3.0,0.0,6.0,1.0,,,,,,,,,35.868729624999105,,,,,,,,,35.86276191700017,36.66166245799832,37.454675124998175,37.44573633300024,37.44638499999928,37.454675124998175,37.454675124998175,37.454675124998175,38.13584441700005,right,1.0,0.6735462500000722,,38.13593379200029,38.14848150000034,38.6360451670007,38.6432390000009,,,,,,,,,,,,,,,,,,,,,,,,,,,,,,sub-011,1,random_dot,,
left,left,7.0,1.0,3.0,left,1.0,0.5831593749971944,,,,,,3.0,1.0,7.0,0.0,,,,,,,,,38.6432390000009,,,,,,,,,38.636412666997785,38.98512141700121,39.77718283300055,39.76829233299941,39.7687839579994,39.77718283300055,39.77718283300055,39.77718283300055,40.37159491700004,left,1.0,0.5831593749971944,,40.371660332999454,40.37744379200012,40.86246658299933,40.8690949999982,,,,,,,,,,,,,,,,,,,,,,,,,,,,,,sub-011,1,random_dot,,
right,right,8.0,0.0,4.0,right,1.0,0.5002075839984172,,,,,,4.0,0.0,8.0,1.0,,,,,,,,,40.8690949999982,,,,,,,,,40.86301062499842,41.66849091699987,42.46162845800063,42.4524503749999,42.45291895799892,42.46162845800063,42.46162845800063,42.46162845800063,42.96789091699975,right,1.0,0.5002075839984172,,42.96797616699769,42.97789358299997,43.46277712499796,43.46936970800016,,,,,,,,,,,,,,,,,,,,,,,,,,,,,,sub-011,1,random_dot,,
left,left,9.0,1.0,4.0,left,1.0,0.4521917089987255,,,,,,4.0,1.0,9.0,0.0,,,,,,,,,43.46936970800016,,,,,,,,,43.46339475000059,43.8116912919977,44.60455033299877,44.59562579200065,44.59625650000089,44.60455033299877,44.60455033299877,44.60455033299877,45.06402595799955,left,1.0,0.4521917089987255,,45.0641642499977,45.07150916699902,45.56280591700124,45.5694177080004,,,,,,,,,,,,,,,,,,,,,,,,,,,,,,sub-011,1,random_dot,,
left,left,10.0,0.0,5.0,left,1.0,0.5569490409980062,,,,,,5.0,0.0,10.0,0.0,,,,,,,,,45.5694177080004,,,,,,,,,45.563420792001125,46.36171749999994,47.15463375000036,47.14561241699994,47.14622829200016,47.15463375000036,47.15463375000036,47.15463375000036,47.72276020799836,left,1.0,0.5569490409980062,,47.7228447919988,47.72890225000083,48.21246241699919,48.21908029199767,,,,,,,,,,,,,,,,,,,,,,,,,,,,,,sub-011,1,random_dot,,
right,right,11.0,1.0,5.0,right,1.0,0.5034541669992905,,,,,,5.0,1.0,11.0,1.0,,,,,,,,,48.21908029199767,,,,,,,,,48.21310441699825,49.41878704199917,50.22142283299763,50.21238666700083,50.21291708300123,50.22142283299763,50.22142283299763,50.22142283299763,50.73054708299969,right,1.0,0.5034541669992905,,50.7306960829992,50.73928045799767,51.22947145799844,51.23606312500124,,,,,,,,,,,,,,,,,,,,,,,,,,,,,,sub-011,1,random_dot,,
right,right,12.0,0.0,6.0,right,1.0,3.2831643749996147,,,,,,6.0,0.0,12.0,1.0,,,,,,,,,51.23606312500124,,,,,,,,,51.23008499999924,51.57841245799864,52.37132433299848,52.36253191699871,52.363282833000994,52.37132433299848,52.37132433299848,52.37132433299848,55.66313174999959,right,1.0,3.2831643749996147,,55.66329804199995,55.67110849999881,56.16220049999902,56.168336374998034,,,,,,,,,,,,,,,,,,,,,,,,,,,,,,sub-011,1,random_dot,,
left,left,13.0,1.0,6.0,left,1.0,0.5319872090003628,,,,,,6.0,1.0,13.0,0.0,,,,,,,,,56.168336374998034,,,,,,,,,56.162540041998,56.26181854199967,57.05505229199844,57.04593224999917,57.04668745799791,57.05505229199844,57.05505229199844,57.05505229199844,57.59484924999924,left,1.0,0.5319872090003628,,57.59493174999807,57.60190029200021,58.08507983299933,58.094949541999085,,,,,,,,,,,,,,,,,,,,,,,,,,,,,,sub-011,1,random_dot,,
right,right,14.0,0.0,7.0,right,1.0,0.707180083001731,,,,,,7.0,0.0,14.0,1.0,,,,,,,,,58.094949541999085,,,,,,,,,58.085432207997655,58.88443266700051,59.6780649579996,59.66893491700103,59.66936558299858,59.6780649579996,59.6780649579996,59.6780649579996,60.396812291997776,right,1.0,0.707180083001731,,60.39694283299832,60.40512845799822,60.895977542000765,60.90277679199789,,,,,,,,,,,,,,,,,,,,,,,,,,,,,,sub-011,1,random_dot,,
left,left,15.0,1.0,7.0,left,1.0,0.4619631670029775,,,,,,7.0,1.0,15.0,0.0,,,,,,,,,60.90277679199789,,,,,,,,,60.89660712499972,60.99444679199951,61.78797354199924,61.77919099999781,61.77984687500066,61.78797354199924,61.78797354199924,61.78797354199924,62.25244716700036,left,1.0,0.4619631670029775,,62.25258620800014,62.25982437499988,62.74613862499973,62.752842624999175,,,,,,,,,,,,,,,,,,,,,,,,,,,,,,sub-011,1,random_dot,,
right,right,16.0,0.0,8.0,right,1.0,0.4127971250018163,,,,,,8.0,0.0,16.0,1.0,,,,,,,,,62.752842624999175,,,,,,,,,62.74670008300018,63.101916874999006,63.89432187499915,63.88549087499996,63.88590345799821,63.89432187499915,63.89432187499915,63.89432187499915,64.31310841699815,right,1.0,0.4127971250018163,,64.31319504199928,64.320210124999,64.8123384999999,64.81886637500065,,,,,,,,,,,,,,,,,,,,,,,,,,,,,,sub-011,1,random_dot,,
left,left,17.0,1.0,8.0,right,0.0,3.539617750000616,,,,,,8.0,1.0,17.0,0.0,,,,,,,,,64.81886637500065,,,,,,,,,64.81277204199796,64.91158504199848,65.70511004199943,65.69598425000004,65.69668791699951,65.70511004199943,65.70511004199943,65.70511004199943,69.25320258300053,right,0.0,3.539617750000616,,69.25779245800004,69.26496533300087,69.75255237500096,69.7602232499994,,,,,,,,,,,,,,,,,,,,,,,,,,,,,,sub-011,1,random_dot,,
right,right,18.0,0.0,9.0,right,1.0,0.8556543329978012,,,,,,9.0,0.0,18.0,1.0,,,,,,,,,69.7602232499994,,,,,,,,,69.75295904199811,69.8523564169991,70.64407999999821,70.63568970800043,70.63603125000009,70.64407999999821,70.64407999999821,70.64407999999821,71.50306266699772,right,1.0,0.8556543329978012,,71.50571924999895,71.51352625000072,72.00247991699871,72.01056866699946,,,,,,,,,,,,,,,,,,,,,,,,,,,,,,sub-011,1,random_dot,,
left,left,19.0,1.0,9.0,left,1.0,0.4749460419989191,,,,,,9.0,1.0,19.0,0.0,,,,,,,,,72.01056866699946,,,,,,,,,72.00288549999823,73.20221224999841,73.99338041699957,73.98505720799949,73.98546329199962,73.99338041699957,73.99338041699957,73.99338041699957,74.47842854199916,left,1.0,0.4749460419989191,,74.47851658299987,74.48628454199934,74.9789254999996,74.98704983299831,,,,,,,,,,,,,,,,,,,,,,,,,,,,,,sub-011,1,random_dot,,
,,,,,,,,,,,,,,,,,,,,,,,,,,,,,,,,,,,,,,,,,,,,,,,,,,,74.97905712499778,74.98704983299831,74.98704983299831,76.23249683299946,space,1.2324690829991596,,,,,,,,,,,,,,,,,,,,,,,,sub-011,1,random_dot,,
,,,,,,,,,,,,,,,,,,,,,,,,,,,,,,,,,,,,,,,,,,,,,,,,,,,,,,,,,,76.232570958,76.24516020800002,76.24516020800002,76.9040825000011,space,0.656234707999829,,,,,,,,,,,,,,,,,sub-011,1,random_dot,,
right,right,0.0,0.0,0.0,right,1.0,1.3711006659978011,,accuracy,space,0.707470999997895,,,,,,0.0,0.0,0.0,0.0,0.0,0.0,0.0,1.0,77.6644759999981,,,,,,,,,77.6561045419985,78.84501774999808,79.63768895799876,79.62894162500015,79.62956758300061,79.63768895799876,79.63768895799876,79.63768895799876,81.01173658300104,,,,,,,,,,,,,,,,,,,,,,,76.92531291699925,76.93389862500044,76.93389862500044,77.64733716699993,space,0.707470999997895,,right,1.0,1.3711006659978011,,,,,,sub-011,1,random_dot,,
left,left,1.0,1.0,0.0,left,1.0,2.659225832998345,,accuracy,space,0.707470999997895,,,,,,0.0,0.0,0.0,0.0,0.0,1.0,1.0,0.0,81.01892724999925,,,,,,,,,81.01220237500092,81.35233950000111,82.15376720800123,82.14561283299918,82.14604879200124,82.15376720800123,82.15376720800123,82.15376720800123,84.82021874999919,,,,,,,,,,,,,,,,,,,,,,,,,,,,,,left,1.0,2.659225832998345,,,,,,sub-011,1,random_dot,,
right,right,2.0,0.0,1.0,right,1.0,2.533059541001421,,accuracy,space,0.707470999997895,,,,,,0.0,0.0,0.0,0.0,1.0,0.0,2.0,1.0,84.82834725000066,,,,,,,,,84.82064920799894,86.0177079999994,86.81127854199804,86.80218245799915,86.80260145799912,86.81127854199804,86.81127854199804,86.81127854199804,89.3509417919995,,,,,,,,,,,,,,,,,,,,,,,,,,,,,,right,1.0,2.533059541001421,,,,,,sub-011,1,random_dot,,
left,left,3.0,1.0,1.0,left,1.0,0.4356798750013695,,accuracy,space,0.707470999997895,,,,,,0.0,0.0,0.0,0.0,1.0,1.0,3.0,0.0,89.36144687499836,,,,,,,,,89.35124704199916,90.54530029200032,91.33906145799848,91.33016983299969,91.33093045799978,91.33906145799848,91.33906145799848,91.33906145799848,91.77765145800004,,,,,,,,,,,,,,,,,,,,,,,,,,,,,,left,1.0,0.4356798750013695,,,,,,sub-011,1,random_dot,,
left,left,4.0,0.0,2.0,right,0.0,3.7921875000029104,,accuracy,space,0.707470999997895,,,,,,0.0,0.0,0.0,0.0,2.0,0.0,4.0,0.0,91.7831717500012,,,,,,,,,91.77793458299855,92.11890950000088,92.91085545799795,92.90221074999864,92.9025569999976,92.91085545799795,92.91085545799795,92.91085545799795,96.7129437500007,,,,,,,,,,,,,,,,,,,,,,,,,,,,,,right,0.0,3.7921875000029104,,,,,,sub-011,1,random_dot,,
right,right,5.0,1.0,2.0,left,0.0,2.97114808400147,,accuracy,space,0.707470999997895,,,,,,0.0,0.0,0.0,0.0,2.0,1.0,5.0,1.0,96.72092212499774,,,,,,,,,96.71344508299808,97.05254383300051,97.8449783750002,97.83622441699843,97.83672775000014,97.8449783750002,97.8449783750002,97.8449783750002,100.81904574999862,,,,,,,,,,,,,,,,,,,,,,,,,,,,,,left,0.0,2.97114808400147,,,,,,sub-011,1,random_dot,,
right,right,6.0,0.0,3.0,right,1.0,1.042030042000988,,accuracy,space,0.707470999997895,,,,,,0.0,0.0,0.0,0.0,3.0,0.0,6.0,1.0,100.8266152920005,,,,,,,,,100.81947054199918,102.01915762499992,102.81155787500028,102.80273899999884,102.80317149999972,102.81155787500028,102.81155787500028,102.81155787500028,103.86351287499927,,,,,,,,,,,,,,,,,,,,,,,,,,,,,,right,1.0,1.042030042000988,,,,,,sub-011,1,random_dot,,
left,left,7.0,1.0,3.0,left,1.0,0.826878542000486,,accuracy,space,0.707470999997895,,,,,,0.0,0.0,0.0,0.0,3.0,1.0,7.0,0.0,103.87117808299809,,,,,,,,,103.86400566700104,105.06171900000118,105.85454174999904,105.8458727920006,105.84652766699946,105.85454174999904,105.85454174999904,105.85454174999904,106.68489958300052,,,,,,,,,,,,,,,,,,,,,,,,,,,,,,left,1.0,0.826878542000486,,,,,,sub-011,1,random_dot,,
right,right,8.0,0.0,4.0,right,1.0,0.6921025420015212,,accuracy,space,0.707470999997895,,,,,,0.0,0.0,0.0,0.0,4.0,0.0,8.0,1.0,106.69320241699825,,,,,,,,,106.6853960829976,107.02869370799816,107.82017749999795,107.81224374999874,107.81265124999844,107.82017749999795,107.82017749999795,107.82017749999795,108.51885000000038,,,,,,,,,,,,,,,,,,,,,,,,,,,,,,right,1.0,0.6921025420015212,,,,,,sub-011,1,random_dot,,
left,left,9.0,1.0,4.0,left,1.0,0.5762095840000256,,accuracy,space,0.707470999997895,,,,,,0.0,0.0,0.0,0.0,4.0,1.0,9.0,0.0,108.5265809579978,,,,,,,,,108.5191585829998,109.71200016700097,110.50533362499846,110.49610599999868,110.49688712499848,110.50533362499846,110.50533362499846,110.50533362499846,111.08471520799868,,,,,,,,,,,,,,,,,,,,,,,,,,,,,,left,1.0,0.5762095840000256,,,,,,sub-011,1,random_dot,,
left,left,10.0,0.0,5.0,right,0.0,2.9071985419977864,,accuracy,space,0.707470999997895,,,,,,0.0,0.0,0.0,0.0,5.0,0.0,10.0,0.0,111.09481816699918,,,,,,,,,111.0851226249979,112.27861895800017,113.07191416699789,113.06270758299796,113.06345104199865,113.07191416699789,113.07191416699789,113.07191416699789,115.98590316699848,,,,,,,,,,,,,,,,,,,,,,,,,,,,,,right,0.0,2.9071985419977864,,,,,,sub-011,1,random_dot,,
right,right,11.0,1.0,5.0,right,1.0,1.7350436669985356,,accuracy,space,0.707470999997895,,,,,,0.0,0.0,0.0,0.0,5.0,1.0,11.0,1.0,115.99334358299892,,,,,,,,,115.98620104200018,116.07673324999996,116.87167245800084,116.8630956249981,116.86381883300056,116.87167245800084,116.87167245800084,116.87167245800084,118.61347399999796,,,,,,,,,,,,,,,,,,,,,,,,,,,,,,right,1.0,1.7350436669985356,,,,,,sub-011,1,random_dot,,
left,left,12.0,0.0,6.0,left,1.0,0.611740500000451,,accuracy,space,0.707470999997895,,,,,,0.0,0.0,0.0,0.0,6.0,0.0,12.0,0.0,118.62137749999964,,,,,,,,,118.61397924999984,118.71206133300076,119.50471737499902,119.49596695799846,119.49668812500022,119.50471737499902,119.50471737499902,119.50471737499902,120.1207100419997,,,,,,,,,,,,,,,,,,,,,,,,,,,,,,left,1.0,0.611740500000451,,,,,,sub-011,1,random_dot,,
right,right,13.0,1.0,6.0,right,1.0,0.7403141659997345,,accuracy,space,0.707470999997895,,,,,,0.0,0.0,0.0,0.0,6.0,1.0,13.0,1.0,120.12842179200015,,,,,,,,,120.12114216699774,121.3190637080006,122.11104120799791,122.10236274999988,122.10270587500054,122.11104120799791,122.11104120799791,122.11104120799791,122.85388358300042,,,,,,,,,,,,,,,,,,,,,,,,,,,,,,right,1.0,0.7403141659997345,,,,,,sub-011,1,random_dot,,
left,left,14.0,0.0,7.0,left,1.0,0.64394404199993,,accuracy,space,0.707470999997895,,,,,,0.0,0.0,0.0,0.0,7.0,0.0,14.0,0.0,122.86152304200004,,,,,,,,,122.85417383299864,124.05245679200016,124.84402233299988,124.8353355830004,124.83573808299845,124.84402233299988,124.84402233299988,124.84402233299988,125.4967282079997,,,,,,,,,,,,,,,,,,,,,,,,,,,,,,left,1.0,0.64394404199993,,,,,,sub-011,1,random_dot,,
right,right,15.0,1.0,7.0,right,1.0,0.6102947079998557,,accuracy,space,0.707470999997895,,,,,,0.0,0.0,0.0,0.0,7.0,1.0,15.0,1.0,125.50443012499818,,,,,,,,,125.4972247500009,125.84523749999788,126.63860304199989,126.6294932919991,126.6301582499982,126.63860304199989,126.63860304199989,126.63860304199989,127.25419741699808,,,,,,,,,,,,,,,,,,,,,,,,,,,,,,right,1.0,0.6102947079998557,,,,,,sub-011,1,random_dot,,
left,left,16.0,0.0,8.0,left,1.0,0.6236828330002027,,accuracy,space,0.707470999997895,,,,,,0.0,0.0,0.0,0.0,8.0,0.0,16.0,0.0,127.26179887499892,,,,,,,,,127.25450587500018,127.6029939580003,128.40462683299847,128.39582787499967,128.39637387499897,128.40462683299847,128.40462683299847,128.40462683299847,129.03030487499927,,,,,,,,,,,,,,,,,,,,,,,,,,,,,,left,1.0,0.6236828330002027,,,,,,sub-011,1,random_dot,,
right,right,17.0,1.0,8.0,right,1.0,0.5453113340008713,,accuracy,space,0.707470999997895,,,,,,0.0,0.0,0.0,0.0,8.0,1.0,17.0,1.0,129.03743366699928,,,,,,,,,129.03074470799766,129.37852574999852,130.1713898329981,130.16256345799775,130.16319274999842,130.1713898329981,130.1713898329981,130.1713898329981,130.71890504199837,,,,,,,,,,,,,,,,,,,,,,,,,,,,,,right,1.0,0.5453113340008713,,,,,,sub-011,1,random_dot,,
left,left,18.0,0.0,9.0,left,1.0,0.4751759999999194,,accuracy,space,0.707470999997895,,,,,,0.0,0.0,0.0,0.0,9.0,0.0,18.0,0.0,130.7266033329979,,,,,,,,,130.71919016700122,131.5192372499987,132.31170437499895,132.30278808299772,132.3031971249984,132.31170437499895,132.31170437499895,132.31170437499895,132.8125426250008,,,,,,,,,,,,,,,,,,,,,,,,,,,,,,left,1.0,0.4751759999999194,,,,,,sub-011,1,random_dot,,
right,right,19.0,1.0,9.0,right,1.0,0.4793908329993428,,accuracy,space,0.707470999997895,,,,,,0.0,0.0,0.0,0.0,9.0,1.0,19.0,1.0,132.82843737499934,,,,,,,,,132.81294029199853,133.15238712499922,133.94558004200007,133.9362586669995,133.93675045800046,133.94558004200007,133.94558004200007,133.94558004200007,134.42911987499974,,,,,,,,,,,,,,,,,,,,,,,,,,,,,,right,1.0,0.4793908329993428,,,,,,sub-011,1,random_dot,,
right,right,20.0,0.0,10.0,right,1.0,0.5345009999982722,,accuracy,space,0.707470999997895,,,,,,0.0,0.0,0.0,0.0,10.0,0.0,20.0,1.0,134.43349324999872,,,,,,,,,134.4292668329981,134.76785825000115,135.56084683299923,135.5519725419981,135.5523194999987,135.56084683299923,135.56084683299923,135.56084683299923,136.09754687500026,,,,,,,,,,,,,,,,,,,,,,,,,,,,,,right,1.0,0.5345009999982722,,,,,,sub-011,1,random_dot,,
left,left,21.0,1.0,10.0,left,1.0,0.4720777910006291,,accuracy,space,0.707470999997895,,,,,,0.0,0.0,0.0,0.0,10.0,1.0,21.0,0.0,136.10469150000063,,,,,,,,,136.09785499999998,136.195145624999,136.98919079199914,136.98023208299855,136.98103154199998,136.98919079199914,136.98919079199914,136.98919079199914,137.46341054200093,,,,,,,,,,,,,,,,,,,,,,,,,,,,,,left,1.0,0.4720777910006291,,,,,,sub-011,1,random_dot,,
left,left,22.0,0.0,11.0,left,1.0,0.6405429170008574,,accuracy,space,0.707470999997895,,,,,,0.0,0.0,0.0,0.0,11.0,0.0,22.0,0.0,137.47094104200005,,,,,,,,,137.4639099579981,138.6618858750007,139.45451954199962,139.44592895800088,139.44641133299956,139.45451954199962,139.45451954199962,139.45451954199962,140.09724316699794,,,,,,,,,,,,,,,,,,,,,,,,,,,,,,left,1.0,0.6405429170008574,,,,,,sub-011,1,random_dot,,
right,right,23.0,1.0,11.0,right,1.0,0.7576183329983905,,accuracy,space,0.707470999997895,,,,,,0.0,0.0,0.0,0.0,11.0,1.0,23.0,1.0,140.10417358300035,,,,,,,,,140.09781929200108,141.29541479199906,142.08799137499955,142.0792582920003,142.0797653749978,142.08799137499955,142.08799137499955,142.08799137499955,142.84784824999952,,,,,,,,,,,,,,,,,,,,,,,,,,,,,,right,1.0,0.7576183329983905,,,,,,sub-011,1,random_dot,,
right,right,24.0,0.0,12.0,right,1.0,2.15178779100097,,accuracy,space,0.707470999997895,,,,,,0.0,0.0,0.0,0.0,12.0,0.0,24.0,1.0,142.85483991699948,,,,,,,,,142.84814191699843,143.19521070799965,143.98857083300027,143.9797358750002,143.9804727080009,143.98857083300027,143.98857083300027,143.98857083300027,146.14595304199975,,,,,,,,,,,,,,,,,,,,,,,,,,,,,,right,1.0,2.15178779100097,,,,,,sub-011,1,random_dot,,
left,left,25.0,1.0,12.0,left,1.0,0.5415750829997705,,accuracy,space,0.707470999997895,,,,,,0.0,0.0,0.0,0.0,12.0,1.0,25.0,0.0,146.1530055000003,,,,,,,,,146.1464406669984,146.48576437500014,147.2775740420002,147.26860216699788,147.26902554199842,147.2775740420002,147.2775740420002,147.2775740420002,147.82171216699862,,,,,,,,,,,,,,,,,,,,,,,,,,,,,,left,1.0,0.5415750829997705,,,,,,sub-011,1,random_dot,,
right,right,26.0,0.0,13.0,right,1.0,0.582432166000217,,accuracy,space,0.707470999997895,,,,,,0.0,0.0,0.0,0.0,13.0,0.0,26.0,1.0,147.84498662500118,,,,,,,,,147.82220574999883,148.1687794999998,148.96026591699774,148.95219412499864,148.9525402500003,148.96026591699774,148.96026591699774,148.96026591699774,149.54730175000077,,,,,,,,,,,,,,,,,,,,,,,,,,,,,,right,1.0,0.582432166000217,,,,,,sub-011,1,random_dot,,
left,left,27.0,1.0,13.0,left,1.0,0.4621944999998959,,accuracy,space,0.707470999997895,,,,,,0.0,0.0,0.0,0.0,13.0,1.0,27.0,0.0,149.55474158300058,,,,,,,,,149.5478187080007,150.34547737499815,151.13897212499796,151.12973479200082,151.1304969999983,151.13897212499796,151.13897212499796,151.13897212499796,151.60313829200095,,,,,,,,,,,,,,,,,,,,,,,,,,,,,,left,1.0,0.4621944999998959,,,,,,sub-011,1,random_dot,,
right,right,28.0,0.0,14.0,right,1.0,0.5008829170001263,,accuracy,space,0.707470999997895,,,,,,0.0,0.0,0.0,0.0,14.0,0.0,28.0,1.0,151.6108612499993,,,,,,,,,151.6036287499992,152.802716416998,153.5952791669988,153.5861745000002,153.58667895799954,153.5952791669988,153.5952791669988,153.5952791669988,154.10353224999926,,,,,,,,,,,,,,,,,,,,,,,,,,,,,,right,1.0,0.5008829170001263,,,,,,sub-011,1,random_dot,,
left,left,29.0,1.0,14.0,right,0.0,2.887957792001544,,accuracy,space,0.707470999997895,,,,,,0.0,0.0,0.0,0.0,14.0,1.0,29.0,0.0,154.11032833300123,,,,,,,,,154.1038281250003,154.90195804199902,155.69479279200095,155.68554225000116,155.68604995799978,155.69479279200095,155.69479279200095,155.69479279200095,158.5872540829987,,,,,,,,,,,,,,,,,,,,,,,,,,,,,,right,0.0,2.887957792001544,,,,,,sub-011,1,random_dot,,
right,right,30.0,0.0,15.0,right,1.0,1.3701956659970165,,accuracy,space,0.707470999997895,,,,,,0.0,0.0,0.0,0.0,15.0,0.0,30.0,1.0,158.59479683300015,,,,,,,,,158.587526583,159.38594645799822,160.1877648749978,160.17914699999892,160.17954149999787,160.1877648749978,160.1877648749978,160.1877648749978,161.5626475829995,,,,,,,,,,,,,,,,,,,,,,,,,,,,,,right,1.0,1.3701956659970165,,,,,,sub-011,1,random_dot,,
left,left,31.0,1.0,15.0,left,1.0,0.4571520419995067,,accuracy,space,0.707470999997895,,,,,,0.0,0.0,0.0,0.0,15.0,1.0,31.0,0.0,161.57001174999823,,,,,,,,,161.56314704200122,161.90227745800075,162.69465766699795,162.68566454200118,162.68610370799797,162.69465766699795,162.69465766699795,162.69465766699795,163.1544498330004,,,,,,,,,,,,,,,,,,,,,,,,,,,,,,left,1.0,0.4571520419995067,,,,,,sub-011,1,random_dot,,
left,left,32.0,0.0,16.0,left,1.0,1.2753718750027474,,accuracy,space,0.707470999997895,,,,,,0.0,0.0,0.0,0.0,16.0,0.0,32.0,0.0,163.16236466699775,,,,,,,,,163.1549534170008,164.35250791699946,165.1452944579978,165.1363617499992,165.13684637500046,165.1452944579978,165.1452944579978,165.1452944579978,166.42924737499925,,,,,,,,,,,,,,,,,,,,,,,,,,,,,,left,1.0,1.2753718750027474,,,,,,sub-011,1,random_dot,,
right,right,33.0,1.0,16.0,right,1.0,2.2137333330028923,,accuracy,space,0.707470999997895,,,,,,0.0,0.0,0.0,0.0,16.0,1.0,33.0,1.0,166.43665904199952,,,,,,,,,166.4297733329986,167.21882691700011,168.01090529199791,168.00199449999857,168.00240445799864,168.01090529199791,168.01090529199791,168.01090529199791,170.2284080419995,,,,,,,,,,,,,,,,,,,,,,,,,,,,,,right,1.0,2.2137333330028923,,,,,,sub-011,1,random_dot,,
right,right,34.0,0.0,17.0,right,1.0,2.1690664580019074,,accuracy,space,0.707470999997895,,,,,,0.0,0.0,0.0,0.0,17.0,0.0,34.0,1.0,170.23572270799923,,,,,,,,,170.22893620800096,171.4193158329981,172.22142816699852,172.21258891699836,172.21299791699855,172.22142816699852,172.22142816699852,172.22142816699852,174.3966153750007,,,,,,,,,,,,,,,,,,,,,,,,,,,,,,right,1.0,2.1690664580019074,,,,,,sub-011,1,random_dot,,
left,left,35.0,1.0,17.0,left,1.0,1.814003584000602,,accuracy,space,0.707470999997895,,,,,,0.0,0.0,0.0,0.0,17.0,1.0,35.0,0.0,174.40358762499818,,,,,,,,,174.39693149999948,175.5953031249992,176.38859891700122,176.37962570799937,176.38038179199793,176.38859891700122,176.38859891700122,176.38859891700122,178.20419112499803,,,,,,,,,,,,,,,,,,,,,,,,,,,,,,left,1.0,1.814003584000602,,,,,,sub-011,1,random_dot,,
right,right,36.0,0.0,18.0,right,1.0,0.8777176670009794,,accuracy,space,0.707470999997895,,,,,,0.0,0.0,0.0,0.0,18.0,0.0,36.0,1.0,178.21024883299833,,,,,,,,,178.2045251669988,178.30148666699824,179.09441512500052,179.08559604199763,179.08594325000013,179.09441512500052,179.09441512500052,179.09441512500052,179.98017483299918,,,,,,,,,,,,,,,,,,,,,,,,,,,,,,right,1.0,0.8777176670009794,,,,,,sub-011,1,random_dot,,
left,left,37.0,1.0,18.0,left,1.0,1.2173230830012471,,accuracy,space,0.707470999997895,,,,,,0.0,0.0,0.0,0.0,18.0,1.0,37.0,0.0,179.98784112499925,,,,,,,,,179.9807375829987,180.32867433299907,181.121118791998,181.11260604199924,181.11311762499827,181.121118791998,181.121118791998,181.121118791998,182.34748437500093,,,,,,,,,,,,,,,,,,,,,,,,,,,,,,left,1.0,1.2173230830012471,,,,,,sub-011,1,random_dot,,
left,left,38.0,0.0,19.0,right,0.0,2.902056625000114,,accuracy,space,0.707470999997895,,,,,,0.0,0.0,0.0,0.0,19.0,0.0,38.0,0.0,182.3546341250003,,,,,,,,,182.3479892920004,182.69552662500064,183.4887613749997,183.4795407499987,183.4803096249998,183.4887613749997,183.4887613749997,183.4887613749997,186.39510487499865,,,,,,,,,,,,,,,,,,,,,,,,,,,,,,right,0.0,2.902056625000114,,,,,,sub-011,1,random_dot,,
right,right,39.0,1.0,19.0,right,1.0,1.994529457999306,,accuracy,space,0.707470999997895,,,,,,0.0,0.0,0.0,0.0,19.0,1.0,39.0,1.0,186.4019152920009,,,,,,,,,186.3955105419991,187.58484029199823,188.37844654199944,188.36950633299784,188.369919124998,188.37844654199944,188.37844654199944,188.37844654199944,190.3779669579999,,,,,,,,,,,,,,,,,,,,,,,,,,,,,,right,1.0,1.994529457999306,,,,,,sub-011,1,random_dot,,
left,left,40.0,0.0,20.0,left,1.0,1.461325249998481,,accuracy,space,0.707470999997895,,,,,,0.0,0.0,0.0,0.0,20.0,0.0,40.0,0.0,190.3850648749976,,,,,,,,,190.3782483750001,190.46840662500108,191.26184183299847,191.25273529200055,191.25322737500028,191.26184183299847,191.26184183299847,191.26184183299847,192.7283189170012,,,,,,,,,,,,,,,,,,,,,,,,,,,,,,left,1.0,1.461325249998481,,,,,,sub-011,1,random_dot,,
right,right,41.0,1.0,20.0,right,1.0,0.9075472919976164,,accuracy,space,0.707470999997895,,,,,,0.0,0.0,0.0,0.0,20.0,1.0,41.0,1.0,192.73596004199865,,,,,,,,,192.7286884169989,193.91927179199772,194.7213564579979,194.7126507499997,194.71325658299972,194.7213564579979,194.7213564579979,194.7213564579979,195.636579916998,,,,,,,,,,,,,,,,,,,,,,,,,,,,,,right,1.0,0.9075472919976164,,,,,,sub-011,1,random_dot,,
right,right,42.0,0.0,21.0,right,1.0,0.9186577079999552,,accuracy,space,0.707470999997895,,,,,,0.0,0.0,0.0,0.0,21.0,0.0,42.0,1.0,195.64434379199884,,,,,,,,,195.6370618330002,196.8361159169981,197.63907670800108,197.6297846249981,197.63054241699865,197.63907670800108,197.63907670800108,197.63907670800108,198.5620643330003,,,,,,,,,,,,,,,,,,,,,,,,,,,,,,right,1.0,0.9186577079999552,,,,,,sub-011,1,random_dot,,
left,left,43.0,1.0,21.0,left,1.0,0.7819327090001025,,accuracy,space,0.707470999997895,,,,,,0.0,0.0,0.0,0.0,21.0,1.0,43.0,0.0,198.56952683299824,,,,,,,,,198.5625798750007,199.3526223749977,200.1438687919981,200.13547566700072,200.1358878329993,200.1438687919981,200.1438687919981,200.1438687919981,200.92874220799783,,,,,,,,,,,,,,,,,,,,,,,,,,,,,,left,1.0,0.7819327090001025,,,,,,sub-011,1,random_dot,,
right,right,44.0,0.0,22.0,right,1.0,0.8807309590010846,,accuracy,space,0.707470999997895,,,,,,0.0,0.0,0.0,0.0,22.0,0.0,44.0,1.0,200.9336230000008,,,,,,,,,200.9290570000012,201.2688539999981,202.0610287499985,202.0521928329981,202.0526027499982,202.0610287499985,202.0610287499985,202.0610287499985,202.94616070800112,,,,,,,,,,,,,,,,,,,,,,,,,,,,,,right,1.0,0.8807309590010846,,,,,,sub-011,1,random_dot,,
left,left,45.0,1.0,22.0,left,1.0,0.7896977080017678,,accuracy,space,0.707470999997895,,,,,,0.0,0.0,0.0,0.0,22.0,1.0,45.0,0.0,202.95342987500044,,,,,,,,,202.9464359579979,203.0347601249996,203.8285108329983,203.81963566699775,203.8201283749986,203.8285108329983,203.8285108329983,203.8285108329983,204.63056658300047,,,,,,,,,,,,,,,,,,,,,,,,,,,,,,left,1.0,0.7896977080017678,,,,,,sub-011,1,random_dot,,
right,right,46.0,0.0,23.0,right,1.0,0.786338624999189,,accuracy,space,0.707470999997895,,,,,,0.0,0.0,0.0,0.0,23.0,0.0,46.0,1.0,204.63776658300048,,,,,,,,,204.63103150000097,204.97886925000057,205.77053308299944,205.76215004199912,205.7626009999985,205.77053308299944,205.77053308299944,205.77053308299944,206.5634681669981,,,,,,,,,,,,,,,,,,,,,,,,,,,,,,right,1.0,0.786338624999189,,,,,,sub-011,1,random_dot,,
left,left,47.0,1.0,23.0,left,1.0,0.7846764159985469,,accuracy,space,0.707470999997895,,,,,,0.0,0.0,0.0,0.0,23.0,1.0,47.0,0.0,206.5705852079991,,,,,,,,,206.56396058300012,207.36225554200064,208.1544654999998,208.14620274999837,208.1468178329997,208.1544654999998,208.1544654999998,208.1544654999998,208.9466368329995,,,,,,,,,,,,,,,,,,,,,,,,,,,,,,left,1.0,0.7846764159985469,,,,,,sub-011,1,random_dot,,
left,left,48.0,0.0,24.0,left,1.0,2.029753333001281,,accuracy,space,0.707470999997895,,,,,,0.0,0.0,0.0,0.0,24.0,0.0,48.0,0.0,208.9534107920008,,,,,,,,,208.9469087920006,210.1455257919988,210.93879854199983,210.9298531249988,210.93064462500115,210.93879854199983,210.93879854199983,210.93879854199983,212.9706357920004,,,,,,,,,,,,,,,,,,,,,,,,,,,,,,left,1.0,2.029753333001281,,,,,,sub-011,1,random_dot,,
right,right,49.0,1.0,24.0,right,1.0,2.4409399590003886,,accuracy,space,0.707470999997895,,,,,,0.0,0.0,0.0,0.0,24.0,1.0,49.0,1.0,212.9783244579994,,,,,,,,,212.9709232919995,213.31980595799905,214.11152220800068,214.10303049999857,214.103365125,214.11152220800068,214.11152220800068,214.11152220800068,216.55383062499823,,,,,,,,,,,,,,,,,,,,,,,,,,,,,,right,1.0,2.4409399590003886,,,,,,sub-011,1,random_dot,,
left,left,50.0,0.0,25.0,left,1.0,0.7512020829999528,,accuracy,space,0.707470999997895,,,,,,0.0,0.0,0.0,0.0,25.0,0.0,50.0,0.0,216.56037641700092,,,,,,,,,216.554118707998,216.65167145799933,217.4452960419985,217.436032499998,217.43655966699956,217.4452960419985,217.4452960419985,217.4452960419985,218.2043734580002,,,,,,,,,,,,,,,,,,,,,,,,,,,,,,left,1.0,0.7512020829999528,,,,,,sub-011,1,random_dot,,
right,right,51.0,1.0,25.0,right,1.0,0.8600621659970784,,accuracy,space,0.707470999997895,,,,,,0.0,0.0,0.0,0.0,25.0,1.0,51.0,1.0,218.2127880420012,,,,,,,,,218.20486566699765,219.40250637499776,220.1947574580008,220.1858974999996,220.1863102919997,220.1947574580008,220.1947574580008,220.1947574580008,221.0614045000002,,,,,,,,,,,,,,,,,,,,,,,,,,,,,,right,1.0,0.8600621659970784,,,,,,sub-011,1,random_dot,,
left,left,52.0,0.0,26.0,left,1.0,0.9380511659983312,,accuracy,space,0.707470999997895,,,,,,0.0,0.0,0.0,0.0,26.0,0.0,52.0,0.0,221.06776266700035,,,,,,,,,221.061662666998,221.85218195799823,222.64446204200067,222.6359271250003,222.6363351250002,222.64446204200067,222.64446204200067,222.64446204200067,223.58705287499836,,,,,,,,,,,,,,,,,,,,,,,,,,,,,,left,1.0,0.9380511659983312,,,,,,sub-011,1,random_dot,,
right,right,53.0,1.0,26.0,right,1.0,0.7053231249992677,,accuracy,space,0.707470999997895,,,,,,0.0,0.0,0.0,0.0,26.0,1.0,53.0,1.0,223.594438958,,,,,,,,,223.58733399999983,224.78539187500064,225.5792204999998,225.56990054199923,225.57033041699836,225.5792204999998,225.5792204999998,225.5792204999998,226.2972132499999,,,,,,,,,,,,,,,,,,,,,,,,,,,,,,right,1.0,0.7053231249992677,,,,,,sub-011,1,random_dot,,
right,right,54.0,0.0,27.0,right,1.0,1.7575668330027838,,accuracy,space,0.707470999997895,,,,,,0.0,0.0,0.0,0.0,27.0,0.0,54.0,1.0,226.3044965000008,,,,,,,,,226.297714291999,227.0956353750007,227.8878235000011,227.87921541700047,227.87970266699995,227.8878235000011,227.8878235000011,227.8878235000011,229.6474880829992,,,,,,,,,,,,,,,,,,,,,,,,,,,,,,right,1.0,1.7575668330027838,,,,,,sub-011,1,random_dot,,
left,left,55.0,1.0,27.0,left,1.0,0.91901295900243,,accuracy,space,0.707470999997895,,,,,,0.0,0.0,0.0,0.0,27.0,1.0,55.0,0.0,229.6545745830008,,,,,,,,,229.6479071249996,230.84550062500057,231.63841129199864,231.62967566699808,231.63039987500088,231.63841129199864,231.63841129199864,231.63841129199864,232.56340683300004,,,,,,,,,,,,,,,,,,,,,,,,,,,,,,left,1.0,0.91901295900243,,,,,,sub-011,1,random_dot,,
right,right,56.0,0.0,28.0,right,1.0,1.3899550000023737,,accuracy,space,0.707470999997895,,,,,,0.0,0.0,0.0,0.0,28.0,0.0,56.0,1.0,232.57019962499908,,,,,,,,,232.56388187500124,232.6621047080007,233.45459974999903,233.4462146670012,233.44673024999796,233.45459974999903,233.45459974999903,233.45459974999903,234.85182779200116,,,,,,,,,,,,,,,,,,,,,,,,,,,,,,right,1.0,1.3899550000023737,,,,,,sub-011,1,random_dot,,
left,left,57.0,1.0,28.0,left,1.0,1.4244123330026923,,accuracy,space,0.707470999997895,,,,,,0.0,0.0,0.0,0.0,28.0,1.0,57.0,0.0,234.8620435000012,,,,,,,,,234.852097125,234.9454017499993,235.73893012500048,235.72988191699915,235.73064483299825,235.73893012500048,235.73893012500048,235.73893012500048,237.17081024999788,,,,,,,,,,,,,,,,,,,,,,,,,,,,,,left,1.0,1.4244123330026923,,,,,,sub-011,1,random_dot,,
right,right,58.0,0.0,29.0,right,1.0,2.9508164580001903,,accuracy,space,0.707470999997895,,,,,,0.0,0.0,0.0,0.0,29.0,0.0,58.0,1.0,237.17881674999808,,,,,,,,,237.17129374999783,237.26836708300107,238.0619607500012,238.0528791249999,238.0533447499984,238.0619607500012,238.0619607500012,238.0619607500012,241.02224858299812,,,,,,,,,,,,,,,,,,,,,,,,,,,,,,right,1.0,2.9508164580001903,,,,,,sub-011,1,random_dot,,
left,left,59.0,1.0,29.0,left,1.0,1.202460708002036,,accuracy,space,0.707470999997895,,,,,,0.0,0.0,0.0,0.0,29.0,1.0,59.0,0.0,241.04512458300087,,,,,,,,,241.02252762499847,241.81949695799997,242.6111380000002,242.60272391699985,242.60308712500049,242.6111380000002,242.6111380000002,242.6111380000002,243.82216679200064,,,,,,,,,,,,,,,,,,,,,,,,,,,,,,left,1.0,1.202460708002036,,,,,,sub-011,1,random_dot,,
,,0.0,0.0,0.0,,,,,accuracy,space,0.707470999997895,,,,,,0.0,0.0,0.0,0.0,,,,,,,,,,,,,,,,,,,,,,,,,,,,,,,,,,,,,,,,,,,,,,,,,,,,,,,,,,,,sub-011,1,random_dot,,
right,right,0.0,0.0,0.0,right,1.0,0.4696959169996262,,speed,space,2.0248537919978844,,,,,,0.0,1.0,1.0,1.0,0.0,0.0,0.0,1.0,245.88980291699767,,,,,,,,,245.8816555000012,246.6694060829977,247.47172558300008,247.46300324999905,247.46363937500064,247.47172558300008,247.47172558300008,247.47172558300008,247.94690266699763,,,,,,,,,,,,,,,,,,,,,,,243.83260504200007,243.83997812500093,243.83997812500093,245.87118850000115,space,2.0248537919978844,,right,1.0,0.4696959169996262,,,,,,sub-011,1,random_dot,,
left,left,1.0,1.0,0.0,left,1.0,0.3528598750017409,,speed,space,2.0248537919978844,,,,,,0.0,1.0,1.0,1.0,0.0,1.0,1.0,0.0,247.95458916699863,,,,,,,,,247.9474091669981,249.1459063750008,249.9379757079987,249.9296072500001,249.9301630000009,249.9379757079987,249.9379757079987,249.9379757079987,250.2975879170008,,,,,,,,,,,,,,,,,,,,,,,,,,,,,,left,1.0,0.3528598750017409,,,,,,sub-011,1,random_dot,,
left,left,2.0,0.0,1.0,left,1.0,0.5285504580024281,,speed,space,2.0248537919978844,,,,,,0.0,1.0,1.0,1.0,1.0,0.0,2.0,0.0,250.30548629199984,,,,,,,,,250.29809408299843,250.64583437499823,251.4387094999984,251.4296539579991,251.43028816700095,251.4387094999984,251.4387094999984,251.4387094999984,251.9712594579978,,,,,,,,,,,,,,,,,,,,,,,,,,,,,,left,1.0,0.5285504580024281,,,,,,sub-011,1,random_dot,,
right,right,3.0,1.0,1.0,right,1.0,0.5082485419989098,,speed,space,2.0248537919978844,,,,,,0.0,1.0,1.0,1.0,1.0,1.0,3.0,1.0,251.97885120799765,,,,,,,,,251.97156845800052,252.06809395799792,252.86147066699775,252.8526716669985,252.8531667499992,252.86147066699775,252.86147066699775,252.86147066699775,253.3803501250004,,,,,,,,,,,,,,,,,,,,,,,,,,,,,,right,1.0,0.5082485419989098,,,,,,sub-011,1,random_dot,,
right,right,4.0,0.0,2.0,left,0.0,0.6241277500012075,,speed,space,2.0248537919978844,,,,,,0.0,1.0,1.0,1.0,2.0,0.0,4.0,1.0,253.38770795799792,,,,,,,,,253.38085379199765,253.4789121249996,254.27199774999823,254.26310162499797,254.26375779199952,254.27199774999823,254.27199774999823,254.27199774999823,254.9015854579993,,,,,,,,,,,,,,,,,,,,,,,,,,,,,,left,0.0,0.6241277500012075,,,,,,sub-011,1,random_dot,,
left,left,5.0,1.0,2.0,left,1.0,0.4913517920031154,,speed,space,2.0248537919978844,,,,,,0.0,1.0,1.0,1.0,2.0,1.0,5.0,0.0,254.912000291999,,,,,,,,,254.90186874999927,254.99551249999783,255.7890770829981,255.7799331669994,255.7806922499985,255.7890770829981,255.7890770829981,255.7890770829981,256.28620729199974,,,,,,,,,,,,,,,,,,,,,,,,,,,,,,left,1.0,0.4913517920031154,,,,,,sub-011,1,random_dot,,
right,right,6.0,0.0,3.0,right,1.0,0.5014337499997055,,speed,space,2.0248537919978844,,,,,,0.0,1.0,1.0,1.0,3.0,0.0,6.0,1.0,256.2942802920006,,,,,,,,,256.28647487499984,256.6360823750001,257.42804116700063,257.419238333001,257.4197224169984,257.42804116700063,257.42804116700063,257.42804116700063,257.9356369999987,,,,,,,,,,,,,,,,,,,,,,,,,,,,,,right,1.0,0.5014337499997055,,,,,,sub-011,1,random_dot,,
left,left,7.0,1.0,3.0,left,1.0,0.4593837089996668,,speed,space,2.0248537919978844,,,,,,0.0,1.0,1.0,1.0,3.0,1.0,7.0,0.0,257.945348041998,,,,,,,,,257.9359261669997,259.1288554169987,259.9208033750001,259.91284666700085,259.9132757919979,259.9208033750001,259.9208033750001,259.9208033750001,260.3861551250011,,,,,,,,,,,,,,,,,,,,,,,,,,,,,,left,1.0,0.4593837089996668,,,,,,sub-011,1,random_dot,,
right,right,8.0,0.0,4.0,right,1.0,0.4903877080032544,,speed,space,2.0248537919978844,,,,,,0.0,1.0,1.0,1.0,4.0,0.0,8.0,1.0,260.3938397919992,,,,,,,,,260.386424332999,260.4872826249993,261.28954016699936,261.2801574580008,261.2809344999987,261.28954016699936,261.28954016699936,261.28954016699936,261.7867644580001,,,,,,,,,,,,,,,,,,,,,,,,,,,,,,right,1.0,0.4903877080032544,,,,,,sub-011,1,random_dot,,
left,left,9.0,1.0,4.0,left,1.0,0.4349077500010025,,speed,space,2.0248537919978844,,,,,,0.0,1.0,1.0,1.0,4.0,1.0,9.0,0.0,261.7939977499991,,,,,,,,,261.78731074999814,261.8848576249984,262.6780151669991,262.66953270799786,262.6699220419978,262.6780151669991,262.6780151669991,262.6780151669991,263.11918154199884,,,,,,,,,,,,,,,,,,,,,,,,,,,,,,left,1.0,0.4349077500010025,,,,,,sub-011,1,random_dot,,
left,left,10.0,0.0,5.0,right,0.0,0.3080457910000405,,speed,space,2.0248537919978844,,,,,,0.0,1.0,1.0,1.0,5.0,0.0,10.0,0.0,263.1287812080009,,,,,,,,,263.11943616699864,264.3123885829991,265.1043565,265.0961407920004,265.0965767919988,265.1043565,265.1043565,265.1043565,265.41603066699827,,,,,,,,,,,,,,,,,,,,,,,,,,,,,,right,0.0,0.3080457910000405,,,,,,sub-011,1,random_dot,,
right,right,11.0,1.0,5.0,right,1.0,0.4355337500019232,,speed,space,2.0248537919978844,,,,,,0.0,1.0,1.0,1.0,5.0,1.0,11.0,1.0,265.4235533329993,,,,,,,,,265.41657391699846,265.7623895830002,266.5558881249999,266.54674149999846,266.54748783299874,266.5558881249999,266.5558881249999,266.5558881249999,266.9948879170006,,,,,,,,,,,,,,,,,,,,,,,,,,,,,,right,1.0,0.4355337500019232,,,,,,sub-011,1,random_dot,,
right,right,12.0,0.0,6.0,right,1.0,0.5274545829997805,,speed,space,2.0248537919978844,,,,,,0.0,1.0,1.0,1.0,6.0,0.0,12.0,1.0,267.00163016700026,,,,,,,,,266.9951324169997,267.3366809580002,268.128643666998,268.1201051249991,268.1204557079982,268.128643666998,268.128643666998,268.128643666998,268.663180208001,,,,,,,,,,,,,,,,,,,,,,,,,,,,,,right,1.0,0.5274545829997805,,,,,,sub-011,1,random_dot,,
left,left,13.0,1.0,6.0,left,1.0,0.413426208000601,,speed,space,2.0248537919978844,,,,,,0.0,1.0,1.0,1.0,6.0,1.0,13.0,0.0,268.6698619579984,,,,,,,,,268.663459708001,268.75183608299994,269.5446997920008,269.536255250001,269.5366832079999,269.5446997920008,269.5446997920008,269.5446997920008,269.9618659999978,,,,,,,,,,,,,,,,,,,,,,,,,,,,,,left,1.0,0.413426208000601,,,,,,sub-011,1,random_dot,,
left,left,14.0,0.0,7.0,left,1.0,0.3763717080000788,,speed,space,2.0248537919978844,,,,,,0.0,1.0,1.0,1.0,7.0,0.0,14.0,0.0,269.9685455420004,,,,,,,,,269.9621417499984,271.152374041998,271.94403454200074,271.93521300000066,271.9356107079984,271.94403454200074,271.94403454200074,271.94403454200074,272.32984204199965,,,,,,,,,,,,,,,,,,,,,,,,,,,,,,left,1.0,0.3763717080000788,,,,,,sub-011,1,random_dot,,
right,right,15.0,1.0,7.0,right,1.0,0.4631006670024362,,speed,space,2.0248537919978844,,,,,,0.0,1.0,1.0,1.0,7.0,1.0,15.0,1.0,272.3366917079984,,,,,,,,,272.33009595800104,272.66973233300087,273.4621069579989,273.45309949999864,273.4535880420008,273.4621069579989,273.4621069579989,273.4621069579989,273.9309598330001,,,,,,,,,,,,,,,,,,,,,,,,,,,,,,right,1.0,0.4631006670024362,,,,,,sub-011,1,random_dot,,
left,left,16.0,0.0,8.0,left,1.0,0.4187349159983569,,speed,space,2.0248537919978844,,,,,,0.0,1.0,1.0,1.0,8.0,0.0,16.0,0.0,273.93870954199883,,,,,,,,,273.93144499999835,274.27907091700035,275.0709866670004,275.06283433299905,275.063243083001,275.0709866670004,275.0709866670004,275.0709866670004,275.4969098750007,,,,,,,,,,,,,,,,,,,,,,,,,,,,,,left,1.0,0.4187349159983569,,,,,,sub-011,1,random_dot,,
right,right,17.0,1.0,8.0,right,1.0,0.4207799169998907,,speed,space,2.0248537919978844,,,,,,0.0,1.0,1.0,1.0,8.0,1.0,17.0,1.0,275.503602124998,,,,,,,,,275.4971928329978,275.59405933299786,276.38875041699794,276.37976058300046,276.3804350419996,276.38875041699794,276.38875041699794,276.38875041699794,276.81167679200007,,,,,,,,,,,,,,,,,,,,,,,,,,,,,,right,1.0,0.4207799169998907,,,,,,sub-011,1,random_dot,,
left,left,18.0,0.0,9.0,left,1.0,0.4941523749985208,,speed,space,2.0248537919978844,,,,,,0.0,1.0,1.0,1.0,9.0,0.0,18.0,0.0,276.8170486249983,,,,,,,,,276.8119249579977,276.9017316669997,277.6951371670002,277.68625858299856,277.68677708299947,277.6951371670002,277.6951371670002,277.6951371670002,278.1969389580008,,,,,,,,,,,,,,,,,,,,,,,,,,,,,,left,1.0,0.4941523749985208,,,,,,sub-011,1,random_dot,,
right,right,19.0,1.0,9.0,right,1.0,0.7934739169977547,,speed,space,2.0248537919978844,,,,,,0.0,1.0,1.0,1.0,9.0,1.0,19.0,1.0,278.20289958300054,,,,,,,,,278.1971721250011,278.29574754200075,279.08895958299763,279.0799785829986,279.0806238330006,279.08895958299763,279.08895958299763,279.08895958299763,279.88586441699954,,,,,,,,,,,,,,,,,,,,,,,,,,,,,,right,1.0,0.7934739169977547,,,,,,sub-011,1,random_dot,,
left,left,20.0,0.0,10.0,left,1.0,0.9195156659989152,,speed,space,2.0248537919978844,,,,,,0.0,1.0,1.0,1.0,10.0,0.0,20.0,0.0,279.89393429199845,,,,,,,,,279.8861649579994,279.97727074999784,280.7724043329981,280.76342683300027,280.76421525000114,280.7724043329981,280.7724043329981,280.7724043329981,281.6965623750002,,,,,,,,,,,,,,,,,,,,,,,,,,,,,,left,1.0,0.9195156659989152,,,,,,sub-011,1,random_dot,,
right,right,21.0,1.0,10.0,right,1.0,0.5052844170022581,,speed,space,2.0248537919978844,,,,,,0.0,1.0,1.0,1.0,10.0,1.0,21.0,1.0,281.7042290419995,,,,,,,,,281.6970736250005,282.48668587499924,283.2788439169999,283.2699678749996,283.2704569169982,283.2788439169999,283.2788439169999,283.2788439169999,283.78779979200044,,,,,,,,,,,,,,,,,,,,,,,,,,,,,,right,1.0,0.5052844170022581,,,,,,sub-011,1,random_dot,,
right,right,22.0,0.0,11.0,right,1.0,1.221811166000407,,speed,space,2.0248537919978844,,,,,,0.0,1.0,1.0,1.0,11.0,0.0,22.0,1.0,283.795196250001,,,,,,,,,283.78808033300083,284.9858874999991,285.7788628749986,285.7699689170004,285.7703283330011,285.7788628749986,285.7788628749986,285.7788628749986,287.0046005000004,,,,,,,,,,,,,,,,,,,,,,,,,,,,,,right,1.0,1.221811166000407,,,,,,sub-011,1,random_dot,,
left,left,23.0,1.0,11.0,right,0.0,0.5328944160028186,,speed,space,2.0248537919978844,,,,,,0.0,1.0,1.0,1.0,11.0,1.0,23.0,0.0,287.01217820799866,,,,,,,,,287.00486912499764,287.1017593329998,287.8960018329999,287.8869329170011,287.88740533300006,287.8960018329999,287.8960018329999,287.8960018329999,288.43775000000096,,,,,,,,,,,,,,,,,,,,,,,,,,,,,,right,0.0,0.5328944160028186,,,,,,sub-011,1,random_dot,,
left,left,24.0,0.0,12.0,left,1.0,0.4496281250030733,,speed,space,2.0248537919978844,,,,,,0.0,1.0,1.0,1.0,12.0,0.0,24.0,0.0,288.4462189580008,,,,,,,,,288.4382034170012,288.5348284169995,289.3293499579995,289.3202358749986,289.3206613330003,289.3293499579995,289.3293499579995,289.3293499579995,289.78170041699923,,,,,,,,,,,,,,,,,,,,,,,,,,,,,,left,1.0,0.4496281250030733,,,,,,sub-011,1,random_dot,,
right,right,25.0,1.0,12.0,right,1.0,0.5370392090007954,,speed,space,2.0248537919978844,,,,,,0.0,1.0,1.0,1.0,12.0,1.0,25.0,1.0,289.78863649999766,,,,,,,,,289.7820833330006,290.97912666699995,291.7726847080012,291.7635407499984,291.7642947919994,291.7726847080012,291.7726847080012,291.7726847080012,292.3137965419992,,,,,,,,,,,,,,,,,,,,,,,,,,,,,,right,1.0,0.5370392090007954,,,,,,sub-011,1,random_dot,,
left,left,26.0,0.0,13.0,left,1.0,0.7671509589999914,,speed,space,2.0248537919978844,,,,,,0.0,1.0,1.0,1.0,13.0,0.0,26.0,0.0,292.32022312499976,,,,,,,,,292.3140747079997,293.1125140000004,293.9053629580012,293.89650233299835,293.8971469579992,293.9053629580012,293.9053629580012,293.9053629580012,294.68081583299863,,,,,,,,,,,,,,,,,,,,,,,,,,,,,,left,1.0,0.7671509589999914,,,,,,sub-011,1,random_dot,,
right,right,27.0,1.0,13.0,right,1.0,0.4400800000003073,,speed,space,2.0248537919978844,,,,,,0.0,1.0,1.0,1.0,13.0,1.0,27.0,1.0,294.6881161669989,,,,,,,,,294.6813617500011,295.8792829999984,296.6719622499986,296.6632152079983,296.663837666998,296.6719622499986,296.6719622499986,296.6719622499986,297.11401979199945,,,,,,,,,,,,,,,,,,,,,,,,,,,,,,right,1.0,0.4400800000003073,,,,,,sub-011,1,random_dot,,
left,left,28.0,0.0,14.0,right,0.0,0.8736987500014948,,speed,space,2.0248537919978844,,,,,,0.0,1.0,1.0,1.0,14.0,0.0,28.0,0.0,297.1206825829977,,,,,,,,,297.1142961250007,297.46274441700007,298.25485458299954,298.2465137920008,298.2470563329989,298.25485458299954,298.25485458299954,298.25485458299954,299.135459582998,,,,,,,,,,,,,,,,,,,,,,,,,,,,,,right,0.0,0.8736987500014948,,,,,,sub-011,1,random_dot,,
right,right,29.0,1.0,14.0,right,1.0,0.5823752079995757,,speed,space,2.0248537919978844,,,,,,0.0,1.0,1.0,1.0,14.0,1.0,29.0,1.0,299.1456090829997,,,,,,,,,299.13574637499914,300.32915458299976,301.1218425830011,301.11328245799814,301.11378049999985,301.1218425830011,301.1218425830011,301.1218425830011,301.71193104199847,,,,,,,,,,,,,,,,,,,,,,,,,,,,,,right,1.0,0.5823752079995757,,,,,,sub-011,1,random_dot,,
left,left,30.0,0.0,15.0,left,1.0,0.562505334000889,,speed,space,2.0248537919978844,,,,,,0.0,1.0,1.0,1.0,15.0,0.0,30.0,0.0,301.71848891699847,,,,,,,,,301.71214879200124,302.50338833299975,303.2957447500012,303.2867094579997,303.2872227500011,303.2957447500012,303.2957447500012,303.2957447500012,303.8625592919998,,,,,,,,,,,,,,,,,,,,,,,,,,,,,,left,1.0,0.562505334000889,,,,,,sub-011,1,random_dot,,
right,right,31.0,1.0,15.0,right,1.0,0.5598986250006419,,speed,space,2.0248537919978844,,,,,,0.0,1.0,1.0,1.0,15.0,1.0,31.0,1.0,303.87019970799884,,,,,,,,,303.86304841699894,305.0524157500004,305.84508695800105,305.83660016700014,305.8369498329994,305.84508695800105,305.84508695800105,305.84508695800105,306.41413937499965,,,,,,,,,,,,,,,,,,,,,,,,,,,,,,right,1.0,0.5598986250006419,,,,,,sub-011,1,random_dot,,
left,left,32.0,0.0,16.0,left,1.0,0.4561362500026007,,speed,space,2.0248537919978844,,,,,,0.0,1.0,1.0,1.0,16.0,0.0,32.0,0.0,306.4215874170004,,,,,,,,,306.4144407499989,307.2125122920006,308.0059270419988,307.9970674169999,307.9977490829988,308.0059270419988,308.0059270419988,308.0059270419988,308.4707270830004,,,,,,,,,,,,,,,,,,,,,,,,,,,,,,left,1.0,0.4561362500026007,,,,,,sub-011,1,random_dot,,
right,right,33.0,1.0,16.0,right,1.0,0.392129791998741,,speed,space,2.0248537919978844,,,,,,0.0,1.0,1.0,1.0,16.0,1.0,33.0,1.0,308.4786176249981,,,,,,,,,308.471222917,309.26964845800103,310.0624003749981,310.0533194999989,310.05373970800065,310.0624003749981,310.0624003749981,310.0624003749981,310.4630870830006,,,,,,,,,,,,,,,,,,,,,,,,,,,,,,right,1.0,0.392129791998741,,,,,,sub-011,1,random_dot,,
right,right,34.0,0.0,17.0,right,1.0,0.4757977089975611,,speed,space,2.0248537919978844,,,,,,0.0,1.0,1.0,1.0,17.0,0.0,34.0,1.0,310.4704614580005,,,,,,,,,310.4636003329979,311.6533151250005,312.44578320800065,312.4366868750003,312.43711512499794,312.44578320800065,312.44578320800065,312.44578320800065,312.9305486669982,,,,,,,,,,,,,,,,,,,,,,,,,,,,,,right,1.0,0.4757977089975611,,,,,,sub-011,1,random_dot,,
left,left,35.0,1.0,17.0,left,1.0,1.614203458000702,,speed,space,2.0248537919978844,,,,,,0.0,1.0,1.0,1.0,17.0,1.0,35.0,0.0,312.937866166998,,,,,,,,,312.9310332919995,313.7292537079993,314.52183870799854,314.513221833,314.51392854200094,314.52183870799854,314.52183870799854,314.52183870799854,316.1395162500012,,,,,,,,,,,,,,,,,,,,,,,,,,,,,,left,1.0,1.614203458000702,,,,,,sub-011,1,random_dot,,
left,left,36.0,0.0,18.0,left,1.0,0.8823553330003051,,speed,space,2.0248537919978844,,,,,,0.0,1.0,1.0,1.0,18.0,0.0,36.0,0.0,316.1478305829987,,,,,,,,,316.140027999998,317.33675504200073,318.1291313750007,318.11997045799944,318.1204062920005,318.1291313750007,318.1291313750007,318.1291313750007,319.02054574999784,,,,,,,,,,,,,,,,,,,,,,,,,,,,,,left,1.0,0.8823553330003051,,,,,,sub-011,1,random_dot,,
right,right,37.0,1.0,18.0,right,1.0,0.5286866659989755,,speed,space,2.0248537919978844,,,,,,0.0,1.0,1.0,1.0,18.0,1.0,37.0,1.0,319.0286981249992,,,,,,,,,319.0208308330002,320.2199137079988,321.0215294580012,321.0132060420001,321.01364770799773,321.0215294580012,321.0215294580012,321.0215294580012,321.5539417079999,,,,,,,,,,,,,,,,,,,,,,,,,,,,,,right,1.0,0.5286866659989755,,,,,,sub-011,1,random_dot,,
left,left,38.0,0.0,19.0,left,1.0,0.3018486250002752,,speed,space,2.0248537919978844,,,,,,0.0,1.0,1.0,1.0,19.0,0.0,38.0,0.0,321.5619161249997,,,,,,,,,321.5544379999992,321.9024261249979,322.6942063329989,322.68583291699906,322.68632224999965,322.6942063329989,322.6942063329989,322.6942063329989,322.9983524169984,,,,,,,,,,,,,,,,,,,,,,,,,,,,,,left,1.0,0.3018486250002752,,,,,,sub-011,1,random_dot,,
right,right,39.0,1.0,19.0,right,1.0,0.4161065420012164,,speed,space,2.0248537919978844,,,,,,0.0,1.0,1.0,1.0,19.0,1.0,39.0,1.0,323.0056072919979,,,,,,,,,322.9988733749997,323.0958784579998,323.88938662500004,323.88018912500047,323.88096674999906,323.88938662500004,323.88938662500004,323.88938662500004,324.3146187079983,,,,,,,,,,,,,,,,,,,,,,,,,,,,,,right,1.0,0.4161065420012164,,,,,,sub-011,1,random_dot,,
right,right,40.0,0.0,20.0,right,1.0,0.6070035000011558,,speed,space,2.0248537919978844,,,,,,0.0,1.0,1.0,1.0,20.0,0.0,40.0,1.0,324.3220461669989,,,,,,,,,324.3151430830003,325.11247141700005,325.9055225419979,325.89651624999897,325.89722204200007,325.9055225419979,325.9055225419979,325.9055225419979,326.51997024999946,,,,,,,,,,,,,,,,,,,,,,,,,,,,,,right,1.0,0.6070035000011558,,,,,,sub-011,1,random_dot,,
left,left,41.0,1.0,20.0,left,1.0,0.452395834003255,,speed,space,2.0248537919978844,,,,,,0.0,1.0,1.0,1.0,20.0,1.0,41.0,0.0,326.5282455419984,,,,,,,,,326.52049412499764,326.61853708299896,327.410858457999,327.4020479999999,327.4024672919986,327.410858457999,327.410858457999,327.410858457999,327.8678989170003,,,,,,,,,,,,,,,,,,,,,,,,,,,,,,left,1.0,0.452395834003255,,,,,,sub-011,1,random_dot,,
right,right,42.0,0.0,21.0,right,1.0,0.4108573330013314,,speed,space,2.0248537919978844,,,,,,0.0,1.0,1.0,1.0,21.0,0.0,42.0,1.0,327.8790759580006,,,,,,,,,327.86818433299777,328.21283425,329.0044422499996,328.99642929199763,328.99681425000017,329.0044422499996,329.0044422499996,329.0044422499996,329.4214076249991,,,,,,,,,,,,,,,,,,,,,,,,,,,,,,right,1.0,0.4108573330013314,,,,,,sub-011,1,random_dot,,
left,left,43.0,1.0,21.0,left,1.0,0.4058482910004386,,speed,space,2.0248537919978844,,,,,,0.0,1.0,1.0,1.0,21.0,1.0,43.0,0.0,329.4289858330012,,,,,,,,,329.4217209169983,330.2195917079989,331.0108966250009,331.00244241700057,331.00285291699765,331.0108966250009,331.0108966250009,331.0108966250009,331.42056720799883,,,,,,,,,,,,,,,,,,,,,,,,,,,,,,left,1.0,0.4058482910004386,,,,,,sub-011,1,random_dot,,
right,right,44.0,0.0,22.0,right,1.0,0.5083021669997834,,speed,space,2.0248537919978844,,,,,,0.0,1.0,1.0,1.0,22.0,0.0,44.0,1.0,331.42800691699813,,,,,,,,,331.42083083299804,331.5115153750012,332.3053292080004,332.2964928750007,332.29719379200105,332.3053292080004,332.3053292080004,332.3053292080004,332.82062983300057,,,,,,,,,,,,,,,,,,,,,,,,,,,,,,right,1.0,0.5083021669997834,,,,,,sub-011,1,random_dot,,
left,left,45.0,1.0,22.0,left,1.0,0.4286499590016319,,speed,space,2.0248537919978844,,,,,,0.0,1.0,1.0,1.0,22.0,1.0,45.0,0.0,332.82905033299903,,,,,,,,,332.8211228750006,333.6195427499988,334.41239945800044,334.4033374999999,334.40376641699913,334.41239945800044,334.41239945800044,334.41239945800044,334.84709074999773,,,,,,,,,,,,,,,,,,,,,,,,,,,,,,left,1.0,0.4286499590016319,,,,,,sub-011,1,random_dot,,
left,left,46.0,0.0,23.0,left,1.0,0.5150292079997598,,speed,space,2.0248537919978844,,,,,,0.0,1.0,1.0,1.0,23.0,0.0,46.0,0.0,334.85350254199875,,,,,,,,,334.8473570419992,336.0458694170011,336.83962037499805,336.8301077920005,336.83076000000074,336.83962037499805,336.83962037499805,336.83962037499805,337.36256308299926,,,,,,,,,,,,,,,,,,,,,,,,,,,,,,left,1.0,0.5150292079997598,,,,,,sub-011,1,random_dot,,
right,right,47.0,1.0,23.0,right,1.0,0.5235237080014485,,speed,space,2.0248537919978844,,,,,,0.0,1.0,1.0,1.0,23.0,1.0,47.0,1.0,337.36934983299943,,,,,,,,,337.36283837500014,337.70319483300045,338.5053126669991,338.4966293329999,338.4971379169983,338.5053126669991,338.5053126669991,338.5053126669991,339.0357342919997,,,,,,,,,,,,,,,,,,,,,,,,,,,,,,right,1.0,0.5235237080014485,,,,,,sub-011,1,random_dot,,
left,left,48.0,0.0,24.0,left,1.0,0.3901888750006037,,speed,space,2.0248537919978844,,,,,,0.0,1.0,1.0,1.0,24.0,0.0,48.0,0.0,339.0453149579989,,,,,,,,,339.0362494580004,339.1352212499987,339.92931300000055,339.92044587499913,339.92088304199933,339.92931300000055,339.92931300000055,339.92931300000055,340.3220040419983,,,,,,,,,,,,,,,,,,,,,,,,,,,,,,left,1.0,0.3901888750006037,,,,,,sub-011,1,random_dot,,
right,right,49.0,1.0,24.0,right,1.0,0.4059092499992403,,speed,space,2.0248537919978844,,,,,,0.0,1.0,1.0,1.0,24.0,1.0,49.0,1.0,340.32898591699995,,,,,,,,,340.3225065000006,341.5189014579992,342.3122146249989,342.30372691699813,342.3040645830006,342.3122146249989,342.3122146249989,342.3122146249989,342.7198480830011,,,,,,,,,,,,,,,,,,,,,,,,,,,,,,right,1.0,0.4059092499992403,,,,,,sub-011,1,random_dot,,
left,left,50.0,0.0,25.0,left,1.0,0.3951092079987575,,speed,space,2.0248537919978844,,,,,,0.0,1.0,1.0,1.0,25.0,0.0,50.0,0.0,342.7291288749984,,,,,,,,,342.72013333299765,343.91266112499943,344.70689074999973,344.697178208,344.69806683299976,344.70689074999973,344.70689074999973,344.70689074999973,345.1041047079998,,,,,,,,,,,,,,,,,,,,,,,,,,,,,,left,1.0,0.3951092079987575,,,,,,sub-011,1,random_dot,,
right,right,51.0,1.0,25.0,right,1.0,0.43990174999999,,speed,space,2.0248537919978844,,,,,,0.0,1.0,1.0,1.0,25.0,1.0,51.0,1.0,345.1115148749996,,,,,,,,,345.10438262499883,346.303212625,347.10606520799774,347.09705100000065,347.09773208299885,347.10606520799774,347.10606520799774,347.10606520799774,347.54794133299947,,,,,,,,,,,,,,,,,,,,,,,,,,,,,,right,1.0,0.43990174999999,,,,,,sub-011,1,random_dot,,
right,right,52.0,0.0,26.0,right,1.0,0.4064010830006737,,speed,space,2.0248537919978844,,,,,,0.0,1.0,1.0,1.0,26.0,0.0,52.0,1.0,347.55474404199776,,,,,,,,,347.5482106249983,347.89601395799764,348.68930199999886,348.6802113749982,348.68094112499966,348.68930199999886,348.68930199999886,348.68930199999886,349.0979566249989,,,,,,,,,,,,,,,,,,,,,,,,,,,,,,right,1.0,0.4064010830006737,,,,,,sub-011,1,random_dot,,
left,left,53.0,1.0,26.0,left,1.0,0.3467746669994085,,speed,space,2.0248537919978844,,,,,,0.0,1.0,1.0,1.0,26.0,1.0,53.0,0.0,349.10531054199964,,,,,,,,,349.0984547500011,349.89598062499863,350.689269874998,350.680279207998,350.6810589169981,350.689269874998,350.689269874998,350.689269874998,351.0385280419978,,,,,,,,,,,,,,,,,,,,,,,,,,,,,,left,1.0,0.3467746669994085,,,,,,sub-011,1,random_dot,,
right,right,54.0,0.0,27.0,right,1.0,0.4427797909993387,,speed,space,2.0248537919978844,,,,,,0.0,1.0,1.0,1.0,27.0,0.0,54.0,1.0,351.0460681250006,,,,,,,,,351.0389539169992,351.1379018749976,351.9392879170009,351.9300195830001,351.9306627500009,351.9392879170009,351.9392879170009,351.9392879170009,352.38870662499903,,,,,,,,,,,,,,,,,,,,,,,,,,,,,,right,1.0,0.4427797909993387,,,,,,sub-011,1,random_dot,,
left,left,55.0,1.0,27.0,right,0.0,0.9839440410032694,,speed,space,2.0248537919978844,,,,,,0.0,1.0,1.0,1.0,27.0,1.0,55.0,0.0,352.41211595799905,,,,,,,,,352.3892082499988,353.1865232499986,353.9884366250008,353.97972516699883,353.9802450829993,353.9884366250008,353.9884366250008,353.9884366250008,354.9802942919996,,,,,,,,,,,,,,,,,,,,,,,,,,,,,,right,0.0,0.9839440410032694,,,,,,sub-011,1,random_dot,,
right,right,56.0,0.0,28.0,left,0.0,0.348160083998664,,speed,space,2.0248537919978844,,,,,,0.0,1.0,1.0,1.0,28.0,0.0,56.0,1.0,354.98689983299846,,,,,,,,,354.98077079200084,356.179264082999,356.9725347499989,356.963715124999,356.9644456669994,356.9725347499989,356.9725347499989,356.9725347499989,357.33153412499814,,,,,,,,,,,,,,,,,,,,,,,,,,,,,,left,0.0,0.348160083998664,,,,,,sub-011,1,random_dot,,
left,left,57.0,1.0,28.0,left,1.0,0.609213167001144,,speed,space,2.0248537919978844,,,,,,0.0,1.0,1.0,1.0,28.0,1.0,57.0,0.0,357.3392351670009,,,,,,,,,357.3320849169977,357.4292638750012,358.221418000001,358.2132891250003,358.2137092499979,358.221418000001,358.221418000001,358.221418000001,358.8367044999977,,,,,,,,,,,,,,,,,,,,,,,,,,,,,,left,1.0,0.609213167001144,,,,,,sub-011,1,random_dot,,
left,left,58.0,0.0,29.0,left,1.0,0.5351097089987888,,speed,space,2.0248537919978844,,,,,,0.0,1.0,1.0,1.0,29.0,0.0,58.0,0.0,358.8440718749989,,,,,,,,,358.8369907499982,360.0293164169998,360.8225695830006,360.8135704579981,360.81422374999966,360.8225695830006,360.8225695830006,360.8225695830006,361.3645804999978,,,,,,,,,,,,,,,,,,,,,,,,,,,,,,left,1.0,0.5351097089987888,,,,,,sub-011,1,random_dot,,
right,right,59.0,1.0,29.0,right,1.0,0.4116812920001393,,speed,space,2.0248537919978844,,,,,,0.0,1.0,1.0,1.0,29.0,1.0,59.0,1.0,361.37190983300025,,,,,,,,,361.365072083001,361.71273183299854,362.5060413329993,362.497108042,362.497865333,362.5060413329993,362.5060413329993,362.5060413329993,362.9198695419982,,,,,,,,,,,,,,,,,,,,,,,,,,,,,,right,1.0,0.4116812920001393,,,,,,sub-011,1,random_dot,,
,,1.0,1.0,0.0,,,,,speed,space,2.0248537919978844,,,,,,0.0,1.0,1.0,1.0,,,,,,,,,,,,,,,,,,,,,,,,,,,,,,,,,,,,,,,,,,,,,,,,,,,,,,,,,,,,sub-011,1,random_dot,,
,,,,,,,,,,,,,,,,,,,,,,,,,,,,,,,,,,,,,,,,,,,,,,,,,,,,,,,,,,,,,,,,,,,,,,,,,,,,362.9248930829999,362.9326163750011,367.92935179199776,367.91969058299946,sub-011,1,random_dot,,
