direction,corrAns,randomInstr,practice_trials.thisRepN,practice_trials.thisTrialN,practice_trials.thisN,practice_trials.thisIndex,instr_trials.thisRepN,instr_trials.thisTrialN,instr_trials.thisN,instr_trials.thisIndex,test_trials.thisRepN,test_trials.thisTrialN,test_trials.thisN,test_trials.thisIndex,thisRow.t,notes,general_instruction.started,textGeneralInstr.started,respGeneralInstr.started,general_instruction.stopped,respGeneralInstr.keys,respGeneralInstr.rt,respGeneralInstr.duration,ITI.started,fixcross.started,fixcross.stopped,ITI.stopped,dots.started,backgroundDots.started,stimulusDots.started,respDots.started,dots.stopped,respDots.keys,respDots.corr,respDots.rt,respDots.duration,feedback.started,textFeedback.started,feedback.stopped,textFeedback.stopped,info.started,textInfo.started,keyRespInfo.started,info.stopped,keyRespInfo.keys,keyRespInfo.rt,keyRespInfo.duration,test_instruction.started,textTestInstr.started,respTestInstr.started,test_instruction.stopped,respTestInstr.keys,respTestInstr.rt,respTestInstr.duration,random_instruction.started,textRandomInstr.started,respRandomInstr.started,random_instruction.stopped,respRandomInstr.keys,respRandomInstr.rt,respRandomInstr.duration,goodbye.started,textGoodbye.started,textGoodbye.stopped,goodbye.stopped,participant,session,expName,frameRate,Unnamed: 73
,,,,,,,,,,,,,,,,,0.0064199999906122,0.0096958000212907,0.0096958000212907,40.49889980000444,space,63.4265286999871,,,,,,,,,,,,,,,,,,,,,,,,,,,,,,,,,,,,,,,,,,,,sub-151,1.0,random_dot,60.00358820697053,
right,right,,0.0,0.0,0.0,1.0,,,,,,,,,40.51425880001625,,,,,,,,,40.51176690001739,41.69827360002091,42.51198150002165,42.48292730003595,42.48297509999247,42.51198150002165,42.51198150002165,42.51198150002165,44.35035439999774,left,0.0,24.77619559998857,,44.35395670001162,44.37084730004426,44.864471700042486,,,,,,,,,,,,,,,,,,,,,,,,,,,sub-151,1.0,random_dot,60.00358820697053,
left,left,,0.0,1.0,1.0,0.0,,,,,,,,,44.881144499988295,,,,,,,,,44.865175000042655,44.964629299996886,45.76497770001879,45.74926539999433,45.74930840003071,45.76497770001879,45.76497770001879,45.76497770001879,47.438052500016056,left,1.0,24.620979699946474,,47.43880390003324,47.45239210000727,47.947782600007486,,,,,,,,,,,,,,,,,,,,,,,,,,,sub-151,1.0,random_dot,60.00358820697053,
right,right,,1.0,0.0,2.0,1.0,,,,,,,,,47.96422329999041,,,,,,,,,47.94859620003263,48.04779430001509,48.84827550000045,48.8333222999936,48.83339620003244,48.84827550000045,48.84827550000045,48.84827550000045,50.24902390001808,right,1.0,24.345019099942878,,50.249767400033306,50.26416310004424,50.74914269999135,50.76480340003036,,,,,,,,,,,,,,,,,,,,,,,,,,sub-151,1.0,random_dot,60.00358820697053,
left,left,,1.0,1.0,3.0,0.0,,,,,,,,,50.76480340003036,,,,,,,,,50.74986300000455,51.96452860004501,52.764867099991534,52.74952790001407,52.74957829999039,52.764867099991534,52.764867099991534,52.764867099991534,54.30200230004266,right,0.0,24.48027810000349,,54.30327560001752,54.31402510002954,54.799384300014935,54.8146631999989,,,,,,,,,,,,,,,,,,,,,,,,,,sub-151,1.0,random_dot,60.00358820697053,
right,right,,2.0,0.0,4.0,1.0,,,,,,,,,54.8146631999989,,,,,,,,,54.80022770003416,56.01470659999177,56.81432290002704,56.79933770000935,56.79940050002188,56.81432290002704,56.81432290002704,56.81432290002704,57.76698030001717,right,1.0,23.892647599976044,,57.76800560002448,57.780562500003725,58.26653850002913,58.280990200000815,,,,,,,,,,,,,,,,,,,,,,,,,,sub-151,1.0,random_dot,60.00358820697053,
left,left,,2.0,1.0,5.0,0.0,,,,,,,,,58.280990200000815,,,,,,,,,58.26722270000028,59.08128400001442,59.88154880004004,59.86589960003039,59.865945300029125,59.88154880004004,59.88154880004004,59.88154880004004,60.9834392000339,left,1.0,24.03807189996587,,60.98419580003247,60.99737310002092,61.48211390001234,61.49775500001852,,,,,,,,,,,,,,,,,,,,,,,,,,sub-151,1.0,random_dot,60.00358820697053,
right,right,,3.0,0.0,6.0,1.0,,,,,,,,,61.49775500001852,,,,,,,,,61.482790300040506,62.297893000009935,63.09792259999085,63.081270100024994,63.08130020002136,63.09792259999085,63.09792259999085,63.09792259999085,63.99983460002113,left,0.0,23.840283399971668,,64.00059190002503,64.01439810002921,64.49839560000692,64.51427889999468,,,,,,,,,,,,,,,,,,,,,,,,,,sub-151,1.0,random_dot,60.00358820697053,
left,left,,3.0,1.0,7.0,0.0,,,,,,,,,64.51427889999468,,,,,,,,,64.49907339998754,65.71389840001939,66.51444120000815,66.49962230003439,66.49966969998786,66.51444120000815,66.51444120000815,66.51444120000815,67.71750130003784,left,1.0,24.15048929996556,,67.71818180003902,67.73087040003156,68.21569310000632,68.23112400004175,,,,,,,,,,,,,,,,,,,,,,,,,,sub-151,1.0,random_dot,60.00358820697053,
left,left,,4.0,0.0,8.0,0.0,,,,,,,,,68.23112400004175,,,,,,,,,68.21636260004016,68.58094559999881,69.38129799999297,69.36497960000997,69.36505520000355,69.38129799999297,69.38129799999297,69.38129799999297,70.64648350002244,right,0.0,24.19535149994772,,70.64719930000138,70.65624209999805,71.1479568000068,,,,,,,,,,,,,,,,,,,,,,,,,,,sub-151,1.0,random_dot,60.00358820697053,
right,right,,4.0,1.0,9.0,1.0,,,,,,,,,71.16424280003412,,,,,,,,,71.1485973999952,71.947526700038,72.74831330002053,72.73309490003157,72.73319009999977,72.74831330002053,72.74831330002053,72.74831330002053,73.69951150001725,right,1.0,23.887650199991185,,73.70025400002487,73.71428230003221,74.19881840003654,74.21428960002959,,,,,,,,,,,,,,,,,,,,,,,,,,sub-151,1.0,random_dot,60.00358820697053,
left,left,,5.0,0.0,10.0,0.0,,,,,,,,,74.21428960002959,,,,,,,,,74.1993841000367,75.41399249999085,76.21481330000097,76.19902570004342,76.1990730999969,76.21481330000097,76.21481330000097,76.21481330000097,76.93228730000556,right,0.0,23.664289699983783,,76.93305470002815,76.9473311000038,77.43231790000573,77.44757550000213,,,,,,,,,,,,,,,,,,,,,,,,,,sub-151,1.0,random_dot,60.00358820697053,
right,right,,5.0,1.0,11.0,1.0,,,,,,,,,77.44757550000213,,,,,,,,,77.4335393999936,78.64761470002122,79.44731940003112,79.43135309999343,79.4313844999997,79.44731940003112,79.44731940003112,79.44731940003112,81.21587930002715,right,1.0,24.705760399927385,,81.21702909999294,81.23040380002931,81.71574449999025,81.73070439998992,,,,,,,,,,,,,,,,,,,,,,,,,,sub-151,1.0,random_dot,60.00358820697053,
right,right,,6.0,0.0,12.0,1.0,,,,,,,,,81.73070439998992,,,,,,,,,81.71667330001947,82.93065530003514,83.73121400002856,83.71607050002785,83.71612310002092,83.73121400002856,83.73121400002856,83.73121400002856,84.59944090002682,right,1.0,23.81184089992894,,84.60040679998929,84.61399600002915,85.09926240000641,85.11413719999837,,,,,,,,,,,,,,,,,,,,,,,,,,sub-151,1.0,random_dot,60.00358820697053,
left,left,,6.0,1.0,13.0,0.0,,,,,,,,,85.11413719999837,,,,,,,,,85.10035459999926,86.3138922000071,87.11433410004247,87.09898960002465,87.09904160001315,87.11433410004247,87.11433410004247,87.11433410004247,87.51812720001908,left,1.0,23.35161609994248,,87.51889110001503,87.5302159000421,88.01636450004298,88.03081520000705,,,,,,,,,,,,,,,,,,,,,,,,,,sub-151,1.0,random_dot,60.00358820697053,
left,left,,7.0,0.0,14.0,0.0,,,,,,,,,88.03081520000705,,,,,,,,,88.01738540001679,88.13067330000922,88.93116030003875,88.91595769999549,88.91602160001639,88.93116030003875,88.93116030003875,88.93116030003875,89.66763640003046,left,1.0,23.68380559998332,,89.6683941000374,89.6804611000116,90.16531790001318,90.18083090003348,,,,,,,,,,,,,,,,,,,,,,,,,,sub-151,1.0,random_dot,60.00358820697053,
right,right,,7.0,1.0,15.0,1.0,,,,,,,,,90.18083090003348,,,,,,,,,90.16632469999604,90.9806579000433,91.780648200016,91.76518470002338,91.76522380003009,91.780648200016,91.780648200016,91.780648200016,92.19991870003288,right,1.0,23.360220599977765,,92.2006283000228,92.214040699997,92.6977321000304,92.71341389999724,,,,,,,,,,,,,,,,,,,,,,,,,,sub-151,1.0,random_dot,60.00358820697053,
left,left,,8.0,0.0,16.0,0.0,,,,,,,,,92.71341389999724,,,,,,,,,92.69832419999877,92.81377150001936,93.6141898999922,93.59856090001996,93.59861240000464,93.6141898999922,93.6141898999922,93.6141898999922,94.13240500004032,right,0.0,23.465316399990115,,94.13340480002807,94.14710310002556,94.63140620000196,94.64705620001769,,,,,,,,,,,,,,,,,,,,,,,,,,sub-151,1.0,random_dot,60.00358820697053,
right,right,,8.0,1.0,17.0,1.0,,,,,,,,,94.64705620001769,,,,,,,,,94.63202070002444,95.447435100039,96.2476482000202,96.23207220004406,96.2321241000318,96.2476482000202,96.2476482000202,96.2476482000202,97.61839230003534,right,1.0,24.317545099940617,,97.61944810004206,97.63020750001306,98.11594690004132,98.13035960000708,,,,,,,,,,,,,,,,,,,,,,,,,,sub-151,1.0,random_dot,60.00358820697053,
right,right,,9.0,0.0,18.0,1.0,,,,,,,,,98.13035960000708,,,,,,,,,98.11693409999134,98.23045989999082,99.03073110000696,99.0154324999894,99.01548380003078,99.03073110000696,99.03073110000696,99.03073110000696,100.54902490001405,right,1.0,24.465716400009114,,100.54972170002291,100.56375080003636,101.04742160002934,101.0634423000156,,,,,,,,,,,,,,,,,,,,,,,,,,sub-151,1.0,random_dot,60.00358820697053,
left,left,,9.0,1.0,19.0,0.0,,,,,,,,,101.0634423000156,,,,,,,,,101.04795159999048,101.8638484000112,102.66397689998848,102.64817990001757,102.64822110004025,102.66397689998848,102.66397689998848,102.66397689998848,103.73276410001564,left,1.0,24.012227999977767,,103.7336371000274,103.74749380000868,104.2313580000191,104.24746470001992,,,,,,,,,,,,,,,,,,,,,,,,,,sub-151,1.0,random_dot,60.00358820697053,
,,,,,,,,,,,,,,,,,,,,,,,,,,,,,,,,,,,,,,,,,104.23150440002792,104.24746470001992,104.24746470001992,135.21569620002992,space,53.91022580000572,,,,,,,,,,,,,,,,,,,,sub-151,1.0,random_dot,60.00358820697053,
,,,,,,,,,,,,,,,,,,,,,,,,,,,,,,,,,,,,,,,,,,,,,,,,135.2157589000417,135.23013310000533,135.23013310000533,138.5004109000438,space,26.21652760001598,,,,,,,,,,,,,sub-151,1.0,random_dot,60.00358820697053,
right,right,accuracy,,,,,0.0,0.0,0.0,0.0,0.0,0.0,0.0,1.0,148.31294219999108,,,,,,,,,148.3072538000415,148.66326300002402,149.46330490004038,149.44796510000015,149.44802150002215,149.46330490004038,149.46330490004038,149.46330490004038,151.09933679999085,left,0.0,24.573108199925628,,,,,,,,,,,,,,,,,,,,138.5059719000128,138.5326486999984,138.5326486999984,148.29830800002674,space,32.70622279995587,,,,,,sub-151,1.0,random_dot,60.00358820697053,
left,left,accuracy,,,,,0.0,0.0,0.0,0.0,0.0,1.0,1.0,0.0,151.1133073000237,,,,,,,,,151.1015258000116,152.3130746000097,153.11369379999817,153.09805880003842,153.09811459999764,153.11369379999817,153.11369379999817,153.11369379999817,154.8185348000261,left,1.0,24.652984799991827,,,,,,,,,,,,,,,,,,,,,,,,,,,,,,,sub-151,1.0,random_dot,60.00358820697053,
right,right,accuracy,,,,,0.0,0.0,0.0,0.0,1.0,0.0,2.0,1.0,154.82954659999814,,,,,,,,,154.8200269000372,156.0295824999921,156.82999890000792,156.81446260004304,156.81452860002173,156.82999890000792,156.82999890000792,156.82999890000792,158.27007780002896,right,1.0,24.386774599959608,,,,,,,,,,,,,,,,,,,,,,,,,,,,,,,sub-151,1.0,random_dot,60.00358820697053,
left,left,accuracy,,,,,0.0,0.0,0.0,0.0,1.0,1.0,3.0,0.0,158.27949809998972,,,,,,,,,158.27177980000852,159.07908990001306,159.88010460004443,159.86419290001504,159.86424950003857,159.88010460004443,159.88010460004443,159.88010460004443,161.26504670002032,right,0.0,24.328594299964607,,,,,,,,,,,,,,,,,,,,,,,,,,,,,,,sub-151,1.0,random_dot,60.00358820697053,
right,right,accuracy,,,,,0.0,0.0,0.0,0.0,2.0,0.0,4.0,1.0,161.2795449999976,,,,,,,,,161.26639770000477,161.62966090004193,162.4294474000344,162.41473140002927,162.41478699998697,162.4294474000344,162.4294474000344,162.4294474000344,163.43584250001004,left,0.0,23.95466609997675,,,,,,,,,,,,,,,,,,,,,,,,,,,,,,,sub-151,1.0,random_dot,60.00358820697053,
left,left,accuracy,,,,,0.0,0.0,0.0,0.0,2.0,1.0,5.0,0.0,163.44615430000704,,,,,,,,,163.4376581000397,164.64632280002115,165.44617210002616,165.43054610001855,165.4305888999952,165.44617210002616,165.44617210002616,165.44617210002616,166.5319834999973,left,1.0,24.030507599934936,,,,,,,,,,,,,,,,,,,,,,,,,,,,,,,sub-151,1.0,random_dot,60.00358820697053,
left,left,accuracy,,,,,0.0,0.0,0.0,0.0,3.0,0.0,6.0,0.0,166.54619680001633,,,,,,,,,166.5334440000006,167.74604669999098,168.5461026999983,168.5295957000344,168.52962270000717,168.5461026999983,168.5461026999983,168.5461026999983,169.70370630000252,left,1.0,24.105229199922174,,,,,,,,,,,,,,,,,,,,,,,,,,,,,,,sub-151,1.0,random_dot,60.00358820697053,
right,right,accuracy,,,,,0.0,0.0,0.0,0.0,3.0,1.0,7.0,1.0,169.71270130004268,,,,,,,,,169.7057407000102,170.91306430002442,171.7132715000189,171.6980881000054,171.6981616000412,171.7132715000189,171.7132715000189,171.7132715000189,173.68178129999433,right,1.0,24.909549599979076,,,,,,,,,,,,,,,,,,,,,,,,,,,,,,,sub-151,1.0,random_dot,60.00358820697053,
left,left,accuracy,,,,,0.0,0.0,0.0,0.0,4.0,0.0,8.0,0.0,173.69623709999723,,,,,,,,,173.68333200004415,174.49595710000722,175.29672670003492,175.28067579999333,175.28071950003505,175.29672670003492,175.29672670003492,175.29672670003492,176.53596700000344,right,0.0,24.18460849998519,,,,,,,,,,,,,,,,,,,,,,,,,,,,,,,sub-151,1.0,random_dot,60.00358820697053,
right,right,accuracy,,,,,0.0,0.0,0.0,0.0,4.0,1.0,9.0,1.0,176.5458515000064,,,,,,,,,176.53759790002368,176.8961413000361,177.69623240001965,177.68139969999902,177.68144700000994,177.69623240001965,177.69623240001965,177.69623240001965,178.76488959998824,right,1.0,24.010447199980263,,,,,,,,,,,,,,,,,,,,,,,,,,,,,,,sub-151,1.0,random_dot,60.00358820697053,
right,right,accuracy,,,,,0.0,0.0,0.0,0.0,5.0,0.0,10.0,1.0,178.77929720003158,,,,,,,,,178.7663898000028,178.8791440000059,179.6798698999919,179.6639839000418,179.66404110001167,179.6798698999919,179.6798698999919,179.6798698999919,181.28053730004467,right,1.0,24.542105099943,,,,,,,,,,,,,,,,,,,,,,,,,,,,,,,sub-151,1.0,random_dot,60.00358820697053,
left,left,accuracy,,,,,0.0,0.0,0.0,0.0,5.0,1.0,11.0,0.0,181.29579970001944,,,,,,,,,181.2821288999985,181.39598030003253,182.19642680004472,182.1803976999945,182.18046090001008,182.19642680004472,182.19642680004472,182.19642680004472,183.78088239999488,left,1.0,24.53083939995849,,,,,,,,,,,,,,,,,,,,,,,,,,,,,,,sub-151,1.0,random_dot,60.00358820697053,
right,right,accuracy,,,,,0.0,0.0,0.0,0.0,6.0,0.0,12.0,1.0,183.79575280001157,,,,,,,,,183.78221750003289,184.14624309999635,184.94651590002468,184.9309340000036,184.93099000002255,184.94651590002468,184.94651590002468,184.94651590002468,186.49963570002,left,0.0,24.502240899950262,,,,,,,,,,,,,,,,,,,,,,,,,,,,,,,sub-151,1.0,random_dot,60.00358820697053,
left,left,accuracy,,,,,0.0,0.0,0.0,0.0,6.0,1.0,13.0,0.0,186.51204920001328,,,,,,,,,186.5013210999896,186.6121000000276,187.41245260002324,187.3958857000107,187.39590679999677,187.41245260002324,187.41245260002324,187.41245260002324,189.1136784999981,left,1.0,24.64267349999864,,,,,,,,,,,,,,,,,,,,,,,,,,,,,,,sub-151,1.0,random_dot,60.00358820697053,
left,left,accuracy,,,,,0.0,0.0,0.0,0.0,7.0,0.0,14.0,0.0,189.1285506000277,,,,,,,,,189.11495000001744,189.2285296000191,190.02882150001824,190.01233930001035,190.01236420002533,190.02882150001824,190.02882150001824,190.02882150001824,192.3302458000253,left,1.0,25.25116280000657,,,,,,,,,,,,,,,,,,,,,,,,,,,,,,,sub-151,1.0,random_dot,60.00358820697053,
right,right,accuracy,,,,,0.0,0.0,0.0,0.0,7.0,1.0,15.0,1.0,192.34523080004143,,,,,,,,,192.3313094000332,192.4451587999938,193.2455951999873,193.2292205000413,193.229289000039,193.2455951999873,193.2455951999873,193.2455951999873,195.41342910000824,left,0.0,25.10692390002077,,,,,,,,,,,,,,,,,,,,,,,,,,,,,,,sub-151,1.0,random_dot,60.00358820697053,
left,left,accuracy,,,,,0.0,0.0,0.0,0.0,8.0,0.0,16.0,0.0,195.42849520000163,,,,,,,,,195.41468720004195,196.2284947000444,197.02879380004012,197.0123703000136,197.0123949000263,197.02879380004012,197.02879380004012,197.02879380004012,198.52975500002503,right,0.0,24.441906800027937,,,,,,,,,,,,,,,,,,,,,,,,,,,,,,,sub-151,1.0,random_dot,60.00358820697053,
right,right,accuracy,,,,,0.0,0.0,0.0,0.0,8.0,1.0,17.0,1.0,198.5451092000003,,,,,,,,,198.53128250001464,199.74531780002872,200.54576649999944,200.52970429998825,200.52973629999903,200.54576649999944,200.54576649999944,200.54576649999944,201.91535750002367,right,1.0,24.30518849997316,,,,,,,,,,,,,,,,,,,,,,,,,,,,,,,sub-151,1.0,random_dot,60.00358820697053,
right,right,accuracy,,,,,0.0,0.0,0.0,0.0,9.0,0.0,18.0,1.0,201.92874380003195,,,,,,,,,201.91677509999136,202.27882400003728,203.0789925000281,203.06256049999504,203.06258870003512,203.0789925000281,203.0789925000281,203.0789925000281,204.15440960001436,right,1.0,23.99600349995308,,,,,,,,,,,,,,,,,,,,,,,,,,,,,,,sub-151,1.0,random_dot,60.00358820697053,
left,left,accuracy,,,,,0.0,0.0,0.0,0.0,9.0,1.0,19.0,0.0,204.15827730001183,,,,,,,,,204.1554760000436,204.51182230003175,205.31220849999227,205.29580950003583,205.2958389000269,205.31220849999227,205.31220849999227,205.31220849999227,206.3835597000434,right,0.0,23.98906250001164,,,,,,,,,,,,,,,,,,,,,,,,,,,,,,,sub-151,1.0,random_dot,60.00358820697053,
right,right,accuracy,,,,,0.0,0.0,0.0,0.0,10.0,0.0,20.0,1.0,206.38770000002117,,,,,,,,,206.3846765999915,207.19514610001352,207.9954121999908,207.97886820003623,207.97889860003488,207.9954121999908,207.9954121999908,207.9954121999908,208.9467389000347,left,0.0,23.89577039994765,,,,,,,,,,,,,,,,,,,,,,,,,,,,,,,sub-151,1.0,random_dot,60.00358820697053,
left,left,accuracy,,,,,0.0,0.0,0.0,0.0,10.0,1.0,21.0,0.0,208.9617481000023,,,,,,,,,208.9480952000013,210.16174140002116,210.96196640003475,210.9455867999932,210.94562130002305,210.96196640003475,210.96196640003475,210.96196640003475,212.19647620001345,left,1.0,24.178488000005014,,,,,,,,,,,,,,,,,,,,,,,,,,,,,,,sub-151,1.0,random_dot,60.00358820697053,
right,right,accuracy,,,,,0.0,0.0,0.0,0.0,11.0,0.0,22.0,1.0,212.2116211000248,,,,,,,,,212.1974516999908,213.0116217000177,213.8120113000041,213.7956739999936,213.7956990000093,213.8120113000041,213.8120113000041,213.8120113000041,214.9298727000132,left,0.0,24.06600299995625,,,,,,,,,,,,,,,,,,,,,,,,,,,,,,,sub-151,1.0,random_dot,60.00358820697053,
left,left,accuracy,,,,,0.0,0.0,0.0,0.0,11.0,1.0,23.0,0.0,214.94488980004095,,,,,,,,,214.93084950000048,215.04484730004333,215.8452157000429,215.82886499998855,215.82889430003704,215.8452157000429,215.8452157000429,215.8452157000429,217.1798285000259,right,0.0,24.28121879993705,,,,,,,,,,,,,,,,,,,,,,,,,,,,,,,sub-151,1.0,random_dot,60.00358820697053,
right,right,accuracy,,,,,0.0,0.0,0.0,0.0,12.0,0.0,24.0,1.0,217.19484150002245,,,,,,,,,217.18142939999237,217.5448153000325,218.3456216999912,218.32990599999903,218.3299692000146,218.3456216999912,218.3456216999912,218.3456216999912,220.0806266000145,right,1.0,24.673947399947792,,,,,,,,,,,,,,,,,,,,,,,,,,,,,,,sub-151,1.0,random_dot,60.00358820697053,
left,left,accuracy,,,,,0.0,0.0,0.0,0.0,12.0,1.0,25.0,0.0,220.0953548999969,,,,,,,,,220.0823609000072,220.4455275000073,221.24516920000315,221.2286568999989,221.22868500003824,221.24516920000315,221.24516920000315,221.24516920000315,223.1001540000434,right,0.0,24.801866699999664,,,,,,,,,,,,,,,,,,,,,,,,,,,,,,,sub-151,1.0,random_dot,60.00358820697053,
right,right,accuracy,,,,,0.0,0.0,0.0,0.0,13.0,0.0,26.0,1.0,223.11209970002528,,,,,,,,,223.10182780004104,223.21184699999867,224.01233470003356,223.99626490002265,223.9963016000111,224.01233470003356,224.01233470003356,224.01233470003356,225.2297226000228,left,0.0,24.158671499986667,,,,,,,,,,,,,,,,,,,,,,,,,,,,,,,sub-151,1.0,random_dot,60.00358820697053,
left,left,accuracy,,,,,0.0,0.0,0.0,0.0,13.0,1.0,27.0,0.0,225.24478180002188,,,,,,,,,225.23161710001293,226.04477330000373,226.84537440002896,226.829579000012,226.8296563000185,226.84537440002896,226.84537440002896,226.84537440002896,228.23268960003043,left,1.0,24.33460639999248,,,,,,,,,,,,,,,,,,,,,,,,,,,,,,,sub-151,1.0,random_dot,60.00358820697053,
left,left,accuracy,,,,,0.0,0.0,0.0,0.0,14.0,0.0,28.0,0.0,228.24490970000625,,,,,,,,,228.23389370000223,229.04555080004505,229.84555040003036,229.8295953000197,229.82971030002227,229.84555040003036,229.84555040003036,229.84555040003036,231.54761880001752,right,0.0,24.638720699993428,,,,,,,,,,,,,,,,,,,,,,,,,,,,,,,sub-151,1.0,random_dot,60.00358820697053,
right,right,accuracy,,,,,0.0,0.0,0.0,0.0,14.0,1.0,29.0,1.0,231.56194470002083,,,,,,,,,231.5489290000405,231.91189829999348,232.71175360004415,232.69545360002667,232.6954851000337,232.71175360004415,232.71175360004415,232.71175360004415,235.19802310003436,right,1.0,25.42330560000846,,,,,,,,,,,,,,,,,,,,,,,,,,,,,,,sub-151,1.0,random_dot,60.00358820697053,
left,left,accuracy,,,,,0.0,0.0,0.0,0.0,15.0,0.0,30.0,0.0,235.2120758999954,,,,,,,,,235.1998032000265,235.312012600014,236.11243040004047,236.0962361000129,236.0963073000312,236.11243040004047,236.11243040004047,236.11243040004047,238.19737850001547,right,0.0,25.02079979993869,,,,,,,,,,,,,,,,,,,,,,,,,,,,,,,sub-151,1.0,random_dot,60.00358820697053,
right,right,accuracy,,,,,0.0,0.0,0.0,0.0,15.0,1.0,31.0,1.0,238.21133160003228,,,,,,,,,238.19867400004296,239.4112440000172,240.21187560004185,240.1957337000058,240.1957676000311,240.21187560004185,240.21187560004185,240.21187560004185,241.2807918000035,left,0.0,24.010092000011355,,,,,,,,,,,,,,,,,,,,,,,,,,,,,,,sub-151,1.0,random_dot,60.00358820697053,
right,right,accuracy,,,,,0.0,0.0,0.0,0.0,16.0,0.0,32.0,1.0,241.294854900043,,,,,,,,,241.2825690000318,242.49491470004432,243.29521820001537,243.27892140002223,243.278958800016,243.29521820001537,243.29521820001537,243.29521820001537,244.73504400003003,left,0.0,24.38726539997151,,,,,,,,,,,,,,,,,,,,,,,,,,,,,,,sub-151,1.0,random_dot,60.00358820697053,
left,left,accuracy,,,,,0.0,0.0,0.0,0.0,16.0,1.0,33.0,0.0,244.7447295000311,,,,,,,,,244.7363051000284,245.5449467000435,246.3456383000012,246.3300704000285,246.3301240000292,246.3456383000012,246.3456383000012,246.3456383000012,248.58081100002164,right,0.0,25.18292349996045,,,,,,,,,,,,,,,,,,,,,,,,,,,,,,,sub-151,1.0,random_dot,60.00358820697053,
right,right,accuracy,,,,,0.0,0.0,0.0,0.0,17.0,0.0,34.0,1.0,248.59478250000396,,,,,,,,,248.5828627999872,249.79506999999285,250.59532469999976,250.5799941000296,250.58004339999752,250.59532469999976,250.59532469999976,250.59532469999976,252.2313465999905,right,1.0,24.573703299975023,,,,,,,,,,,,,,,,,,,,,,,,,,,,,,,sub-151,1.0,random_dot,60.00358820697053,
left,left,accuracy,,,,,0.0,0.0,0.0,0.0,17.0,1.0,35.0,0.0,252.24491950002263,,,,,,,,,252.23387250001545,252.5943881000276,253.3953466000385,253.3799714000197,253.38002929999493,253.3953466000385,253.3953466000385,253.3953466000385,254.36946010001705,left,1.0,23.919051599979863,,,,,,,,,,,,,,,,,,,,,,,,,,,,,,,sub-151,1.0,random_dot,60.00358820697053,
right,right,accuracy,,,,,0.0,0.0,0.0,0.0,18.0,0.0,36.0,1.0,254.37806780001847,,,,,,,,,254.3708627999877,255.5780095999944,256.3784959000186,256.36315510002896,256.3632203000016,256.3784959000186,256.3784959000186,256.3784959000186,257.5461865999969,left,0.0,24.11504239996429,,,,,,,,,,,,,,,,,,,,,,,,,,,,,,,sub-151,1.0,random_dot,60.00358820697053,
left,left,accuracy,,,,,0.0,0.0,0.0,0.0,18.0,1.0,37.0,0.0,257.5610643000109,,,,,,,,,257.54748990002554,258.36170860001585,259.1617474000086,259.1469268000219,259.14699939999264,259.1617474000086,259.1617474000086,259.1617474000086,261.3000607000431,left,1.0,25.086217899923213,,,,,,,,,,,,,,,,,,,,,,,,,,,,,,,sub-151,1.0,random_dot,60.00358820697053,
right,right,accuracy,,,,,0.0,0.0,0.0,0.0,19.0,0.0,38.0,1.0,261.3111829000409,,,,,,,,,261.30132990004495,262.1110467000399,262.9117932000081,262.8959521999932,262.8960027000285,262.9117932000081,262.9117932000081,262.9117932000081,264.3311940000276,left,0.0,24.369511599943507,,,,,,,,,,,,,,,,,,,,,,,,,,,,,,,sub-151,1.0,random_dot,60.00358820697053,
left,left,accuracy,,,,,0.0,0.0,0.0,0.0,19.0,1.0,39.0,0.0,264.34432680002647,,,,,,,,,264.33218379999744,264.694566900027,265.49531050003134,265.48000530002173,265.48006550001446,265.49531050003134,265.49531050003134,265.49531050003134,266.8531900999951,left,1.0,24.303357900003903,,,,,,,,,,,,,,,,,,,,,,,,,,,,,,,sub-151,1.0,random_dot,60.00358820697053,
right,right,accuracy,,,,,0.0,0.0,0.0,0.0,20.0,0.0,40.0,1.0,266.86094119999325,,,,,,,,,266.85466170002474,267.66164850001223,268.4610850000172,268.44551680004224,268.44555920001585,268.4610850000172,268.4610850000172,268.4610850000172,269.93006740004057,right,1.0,24.4151894999668,,,,,,,,,,,,,,,,,,,,,,,,,,,,,,,sub-151,1.0,random_dot,60.00358820697053,
left,left,accuracy,,,,,0.0,0.0,0.0,0.0,20.0,1.0,41.0,0.0,269.944281700009,,,,,,,,,269.9314420000301,270.2945239000255,271.0945723000332,271.0801431,271.0801917000208,271.0945723000332,271.0945723000332,271.0945723000332,272.54664720001165,left,1.0,24.391878599941265,,,,,,,,,,,,,,,,,,,,,,,,,,,,,,,sub-151,1.0,random_dot,60.00358820697053,
left,left,accuracy,,,,,0.0,0.0,0.0,0.0,21.0,0.0,42.0,0.0,272.5611948000151,,,,,,,,,272.5479642000282,272.91130800003884,273.7116546999896,273.69597210001666,273.6960170000093,273.7116546999896,273.7116546999896,273.7116546999896,275.4158638000372,left,1.0,24.638732399966106,,,,,,,,,,,,,,,,,,,,,,,,,,,,,,,sub-151,1.0,random_dot,60.00358820697053,
right,right,accuracy,,,,,0.0,0.0,0.0,0.0,21.0,1.0,43.0,1.0,275.42780830001,,,,,,,,,275.4174811000121,276.2276184000075,277.028221799992,277.01153439999325,277.011563600041,277.028221799992,277.028221799992,277.028221799992,279.2160659999936,right,1.0,25.13408459996572,,,,,,,,,,,,,,,,,,,,,,,,,,,,,,,sub-151,1.0,random_dot,60.00358820697053,
left,left,accuracy,,,,,0.0,0.0,0.0,0.0,22.0,0.0,44.0,0.0,279.227641400008,,,,,,,,,279.2174220000161,279.5776952999877,280.3779068000149,280.3630195000442,280.36309070000425,280.3779068000149,280.3779068000149,280.3779068000149,282.41331730003003,left,1.0,24.97745479998412,,,,,,,,,,,,,,,,,,,,,,,,,,,,,,,sub-151,1.0,random_dot,60.00358820697053,
right,right,accuracy,,,,,0.0,0.0,0.0,0.0,22.0,1.0,45.0,1.0,282.42773350002244,,,,,,,,,282.41474020003807,283.2274152000318,284.0279352000216,284.01299389998894,284.0130592000205,284.0279352000216,284.0279352000216,284.0279352000216,286.04675949999364,right,1.0,24.957828400016297,,,,,,,,,,,,,,,,,,,,,,,,,,,,,,,sub-151,1.0,random_dot,60.00358820697053,
right,right,accuracy,,,,,0.0,0.0,0.0,0.0,23.0,0.0,46.0,1.0,286.0611202000291,,,,,,,,,286.0483045000001,286.1611679000198,286.9609609000036,286.9459668000345,286.9460236000013,286.9609609000036,286.9609609000036,286.9609609000036,289.47978330001934,right,1.0,25.45975029998226,,,,,,,,,,,,,,,,,,,,,,,,,,,,,,,sub-151,1.0,random_dot,60.00358820697053,
left,left,accuracy,,,,,0.0,0.0,0.0,0.0,23.0,1.0,47.0,0.0,289.4944309000275,,,,,,,,,289.48123650002526,289.5940910000354,290.3946522999904,290.3786569000222,290.3786995999981,290.3946522999904,290.3946522999904,290.3946522999904,291.6459228000021,right,0.0,24.19525829993654,,,,,,,,,,,,,,,,,,,,,,,,,,,,,,,sub-151,1.0,random_dot,60.00358820697053,
left,left,accuracy,,,,,0.0,0.0,0.0,0.0,24.0,0.0,48.0,0.0,291.6608752000029,,,,,,,,,291.6481643000152,292.4611130999984,293.261511699995,293.245099199994,293.24513840000145,293.261511699995,293.261511699995,293.261511699995,294.24656170001253,left,1.0,23.92574169993168,,,,,,,,,,,,,,,,,,,,,,,,,,,,,,,sub-151,1.0,random_dot,60.00358820697053,
right,right,accuracy,,,,,0.0,0.0,0.0,0.0,24.0,1.0,49.0,1.0,294.26127670001006,,,,,,,,,294.2482180999941,295.06113410001853,295.8611452000332,295.845942999993,295.8460074000177,295.8611452000332,295.8611452000332,295.8611452000332,297.31741750001675,right,1.0,24.40460599999642,,,,,,,,,,,,,,,,,,,,,,,,,,,,,,,sub-151,1.0,random_dot,60.00358820697053,
right,right,accuracy,,,,,0.0,0.0,0.0,0.0,25.0,0.0,50.0,1.0,297.3275325000286,,,,,,,,,297.31910130003234,298.1274831999908,298.9278443999938,298.9128992999904,298.91295940004056,298.9278443999938,298.9278443999938,298.9278443999938,300.7796958000399,left,0.0,24.793170000019018,,,,,,,,,,,,,,,,,,,,,,,,,,,,,,,sub-151,1.0,random_dot,60.00358820697053,
left,left,accuracy,,,,,0.0,0.0,0.0,0.0,25.0,1.0,51.0,0.0,300.79396390001057,,,,,,,,,300.78104390000226,301.5941992000444,302.39457639999455,302.3791236000252,302.3791877999902,302.39457639999455,302.39457639999455,302.39457639999455,303.78285290003987,left,1.0,24.335350399953317,,,,,,,,,,,,,,,,,,,,,,,,,,,,,,,sub-151,1.0,random_dot,60.00358820697053,
right,right,accuracy,,,,,0.0,0.0,0.0,0.0,26.0,0.0,52.0,1.0,303.79406350001227,,,,,,,,,303.7840535000432,304.5937904000166,305.3945848000003,305.37894960003905,305.3790188000421,305.3945848000003,305.3945848000003,305.3945848000003,308.3622981000226,right,1.0,25.90415729995584,,,,,,,,,,,,,,,,,,,,,,,,,,,,,,,sub-151,1.0,random_dot,60.00358820697053,
left,left,accuracy,,,,,0.0,0.0,0.0,0.0,26.0,1.0,53.0,0.0,308.3771429000189,,,,,,,,,308.3644523000112,308.7274936999893,309.5274427999975,309.5117201000103,309.51177350000944,309.5274427999975,309.5274427999975,309.5274427999975,310.8127053999924,left,1.0,24.23188039992237,,,,,,,,,,,,,,,,,,,,,,,,,,,,,,,sub-151,1.0,random_dot,60.00358820697053,
right,right,accuracy,,,,,0.0,0.0,0.0,0.0,27.0,0.0,54.0,1.0,310.8270730000222,,,,,,,,,310.8137484000181,311.17750430002343,311.9775306000374,311.9616575000109,311.9617006999906,311.9775306000374,311.9775306000374,311.9775306000374,314.08062110003084,left,0.0,25.03982719994383,,,,,,,,,,,,,,,,,,,,,,,,,,,,,,,sub-151,1.0,random_dot,60.00358820697053,
left,left,accuracy,,,,,0.0,0.0,0.0,0.0,27.0,1.0,55.0,0.0,314.0940779999946,,,,,,,,,314.0820657000295,315.29378780000843,316.09433250001166,316.0779223000281,316.07796580001013,316.09433250001166,316.09433250001166,316.09433250001166,318.7165621999884,right,0.0,25.56919090001611,,,,,,,,,,,,,,,,,,,,,,,,,,,,,,,sub-151,1.0,random_dot,60.00358820697053,
left,left,accuracy,,,,,0.0,0.0,0.0,0.0,28.0,0.0,56.0,0.0,318.7271007000236,,,,,,,,,318.7182649000315,318.8269287000294,319.6273909000447,319.6115467000054,319.6115853000083,319.6273909000447,319.6273909000447,319.6273909000447,320.9798160000355,right,0.0,24.289878199924715,,,,,,,,,,,,,,,,,,,,,,,,,,,,,,,sub-151,1.0,random_dot,60.00358820697053,
right,right,accuracy,,,,,0.0,0.0,0.0,0.0,28.0,1.0,57.0,1.0,320.99348669999745,,,,,,,,,320.98166600003606,322.1938354999875,322.99397700000554,322.9774901000201,322.97752900002524,322.99397700000554,322.99397700000554,322.99397700000554,325.19670969998697,right,1.0,25.142816699983086,,,,,,,,,,,,,,,,,,,,,,,,,,,,,,,sub-151,1.0,random_dot,60.00358820697053,
left,left,accuracy,,,,,0.0,0.0,0.0,0.0,29.0,0.0,58.0,0.0,325.210337800032,,,,,,,,,325.19868640002096,326.01070600003004,326.8103844000143,326.79529460001504,326.7953470000066,326.8103844000143,326.8103844000143,326.8103844000143,329.3790739999968,left,1.0,25.509077499969862,,,,,,,,,,,,,,,,,,,,,,,,,,,,,,,sub-151,1.0,random_dot,60.00358820697053,
right,right,accuracy,,,,,0.0,0.0,0.0,0.0,29.0,1.0,59.0,1.0,329.3936037000385,,,,,,,,,329.3806789999944,329.7440410000272,330.54386299999896,330.52847120002843,330.5285195999895,330.54386299999896,330.54386299999896,330.54386299999896,331.67877490003593,left,0.0,24.07954269996844,,,,,,,,,,,,,,,,,,,,,,,,,,,,,,,sub-151,1.0,random_dot,60.00358820697053,
,,accuracy,,,,,0.0,0.0,0.0,0.0,,,,,,,,,,,,,,,,,,,,,,,,,,,,,,,,,,,,,,,,,,,,,,,,,,,,,,,,sub-151,1.0,random_dot,60.00358820697053,
right,right,speed,,,,,0.0,1.0,1.0,1.0,0.0,0.0,0.0,1.0,344.4432181000011,,,,,,,,,344.4380719999899,344.54352000000654,345.34370820003096,345.3279886000091,345.32803959999,345.34370820003096,345.34370820003096,345.34370820003096,346.1632813999895,right,1.0,23.757322799996476,,,,,,,,,,,,,,,,,,,,331.6801268000272,331.69556960003683,331.69556960003683,344.4286436000257,space,35.6782644999912,,,,,,sub-151,1.0,random_dot,60.00358820697053,
left,left,speed,,,,,0.0,1.0,1.0,1.0,0.0,1.0,1.0,0.0,346.1766783000203,,,,,,,,,346.16541630000575,346.5268301999895,347.32696010003565,347.31134390004445,347.31139170000097,347.32696010003565,347.32696010003565,347.32696010003565,348.7129292000318,left,1.0,24.325235899945252,,,,,,,,,,,,,,,,,,,,,,,,,,,,,,,sub-151,1.0,random_dot,60.00358820697053,
right,right,speed,,,,,0.0,1.0,1.0,1.0,1.0,0.0,2.0,1.0,348.7266812000307,,,,,,,,,348.7146892999881,349.9267522000009,350.72716880001826,350.71167600003537,350.7117298000376,350.72716880001826,350.72716880001826,350.72716880001826,351.62870230001863,right,1.0,23.84286069998052,,,,,,,,,,,,,,,,,,,,,,,,,,,,,,,sub-151,1.0,random_dot,60.00358820697053,
left,left,speed,,,,,0.0,1.0,1.0,1.0,1.0,1.0,3.0,0.0,351.64343830000143,,,,,,,,,351.6301051999908,351.74316410004394,352.5436917000334,352.5274875999894,352.52752400003374,352.5436917000334,352.5436917000334,352.5436917000334,353.2299798000022,right,0.0,23.63455979997525,,,,,,,,,,,,,,,,,,,,,,,,,,,,,,,sub-151,1.0,random_dot,60.00358820697053,
left,left,speed,,,,,0.0,1.0,1.0,1.0,2.0,0.0,4.0,0.0,353.2431351999985,,,,,,,,,353.2313503000187,354.0428956000251,354.8434864000301,354.8275679000071,354.8276048999978,354.8434864000301,354.8434864000301,354.8434864000301,355.5146939000115,right,0.0,23.61941449996084,,,,,,,,,,,,,,,,,,,,,,,,,,,,,,,sub-151,1.0,random_dot,60.00358820697053,
right,right,speed,,,,,0.0,1.0,1.0,1.0,2.0,1.0,5.0,1.0,355.52648880000925,,,,,,,,,355.5159182000207,356.72653650003485,357.52626680000685,357.5097987999907,357.5098187000258,357.52626680000685,357.52626680000685,357.52626680000685,358.89528739999514,right,1.0,24.31067430000985,,,,,,,,,,,,,,,,,,,,,,,,,,,,,,,sub-151,1.0,random_dot,60.00358820697053,
left,left,speed,,,,,0.0,1.0,1.0,1.0,3.0,0.0,6.0,0.0,358.9100846000365,,,,,,,,,358.8968612999888,359.26033650001045,360.0604588999995,360.0453723000246,360.04542580002453,360.0604588999995,360.0604588999995,360.0604588999995,361.46214020001935,left,1.0,24.342029299994465,,,,,,,,,,,,,,,,,,,,,,,,,,,,,,,sub-151,1.0,random_dot,60.00358820697053,
right,right,speed,,,,,0.0,1.0,1.0,1.0,3.0,1.0,7.0,1.0,361.4763770000427,,,,,,,,,361.4635463000159,361.8265165000339,362.6268408999895,362.6114077999955,362.61145580001175,362.6268408999895,362.6268408999895,362.6268408999895,363.99394030001713,left,0.0,24.31707579997601,,,,,,,,,,,,,,,,,,,,,,,,,,,,,,,sub-151,1.0,random_dot,60.00358820697053,
right,right,speed,,,,,0.0,1.0,1.0,1.0,4.0,0.0,8.0,1.0,364.0093210000196,,,,,,,,,363.9952092000167,364.1095839000191,364.9102549999952,364.89430500002345,364.8943447000347,364.9102549999952,364.9102549999952,364.9102549999952,365.6949985999963,left,0.0,23.72130649996689,,,,,,,,,,,,,,,,,,,,,,,,,,,,,,,sub-151,1.0,random_dot,60.00358820697053,
left,left,speed,,,,,0.0,1.0,1.0,1.0,4.0,1.0,9.0,0.0,365.7099683000124,,,,,,,,,365.6972211000393,365.8093982000137,366.6104939000216,366.5946004000143,366.5946424000431,366.6104939000216,366.6104939000216,366.6104939000216,367.7286946999957,right,0.0,24.060889499960467,,,,,,,,,,,,,,,,,,,,,,,,,,,,,,,sub-151,1.0,random_dot,60.00358820697053,
right,right,speed,,,,,0.0,1.0,1.0,1.0,5.0,0.0,10.0,1.0,367.7430631000316,,,,,,,,,367.730105500028,368.54312129999744,369.3435000000172,369.3280922000413,369.3281522000325,369.3435000000172,369.3435000000172,369.3435000000172,370.7836825000122,right,1.0,24.385252000007316,,,,,,,,,,,,,,,,,,,,,,,,,,,,,,,sub-151,1.0,random_dot,60.00358820697053,
left,left,speed,,,,,0.0,1.0,1.0,1.0,5.0,1.0,11.0,0.0,370.7930255000247,,,,,,,,,370.78591760003474,371.5929593000328,372.39387470000656,372.3772776999977,372.3773169000051,372.39387470000656,372.39387470000656,372.39387470000656,373.6794663000037,right,0.0,24.23312129999977,,,,,,,,,,,,,,,,,,,,,,,,,,,,,,,sub-151,1.0,random_dot,60.00358820697053,
right,right,speed,,,,,0.0,1.0,1.0,1.0,6.0,0.0,12.0,1.0,373.69290750002256,,,,,,,,,373.6812984000426,374.043146800017,374.8433889000444,374.8283657000284,374.8284158000024,374.8433889000444,374.8433889000444,374.8433889000444,376.3606051999959,right,1.0,24.465260199969634,,,,,,,,,,,,,,,,,,,,,,,,,,,,,,,sub-151,1.0,random_dot,60.00358820697053,
left,left,speed,,,,,0.0,1.0,1.0,1.0,6.0,1.0,13.0,0.0,376.3757806000067,,,,,,,,,376.3616546000121,376.7261524000205,377.5265419000061,377.5106433000183,377.5106900000246,377.5265419000061,377.5265419000061,377.5265419000061,378.9606558000087,left,1.0,24.376716499973558,,,,,,,,,,,,,,,,,,,,,,,,,,,,,,,sub-151,1.0,random_dot,60.00358820697053,
left,left,speed,,,,,0.0,1.0,1.0,1.0,7.0,0.0,14.0,0.0,378.9758901000023,,,,,,,,,378.9619028000161,380.1756967999973,380.97620919998735,380.9600130000035,380.960035199998,380.97620919998735,380.97620919998735,380.97620919998735,381.6604510000325,left,1.0,23.63382280000951,,,,,,,,,,,,,,,,,,,,,,,,,,,,,,,sub-151,1.0,random_dot,60.00358820697053,
right,right,speed,,,,,0.0,1.0,1.0,1.0,7.0,1.0,15.0,1.0,381.6756382000167,,,,,,,,,381.6616107000154,382.875762700045,383.67599720001454,383.6602002000436,383.6602245999966,383.67599720001454,383.67599720001454,383.67599720001454,384.4924235999933,right,1.0,23.75114469998516,,,,,,,,,,,,,,,,,,,,,,,,,,,,,,,sub-151,1.0,random_dot,60.00358820697053,
left,left,speed,,,,,0.0,1.0,1.0,1.0,8.0,0.0,16.0,0.0,384.49600250000367,,,,,,,,,384.4936851999955,385.69234270002926,386.4925940000103,386.4761307000299,386.4761536000297,386.4925940000103,386.4925940000103,386.4925940000103,387.4768342000316,left,1.0,23.934222899959423,,,,,,,,,,,,,,,,,,,,,,,,,,,,,,,sub-151,1.0,random_dot,60.00358820697053,
right,right,speed,,,,,0.0,1.0,1.0,1.0,8.0,1.0,17.0,1.0,387.4922745000222,,,,,,,,,387.47777560004033,387.5922144000069,388.3926704000333,388.3759677000344,388.3759923999896,388.3926704000333,388.3926704000333,388.3926704000333,389.47679450002033,right,1.0,24.02771179995034,,,,,,,,,,,,,,,,,,,,,,,,,,,,,,,sub-151,1.0,random_dot,60.00358820697053,
right,right,speed,,,,,0.0,1.0,1.0,1.0,9.0,0.0,18.0,1.0,389.4922747000237,,,,,,,,,389.4776447000331,390.2926416000119,391.0929488000111,391.0766748000169,391.0767036000034,391.0929488000111,391.0929488000111,391.0929488000111,392.5301079000346,right,1.0,24.38424949994078,,,,,,,,,,,,,,,,,,,,,,,,,,,,,,,sub-151,1.0,random_dot,60.00358820697053,
left,left,speed,,,,,0.0,1.0,1.0,1.0,9.0,1.0,19.0,0.0,392.54273500002455,,,,,,,,,392.5314058000222,393.3424671000103,394.14265739999246,394.1259705999983,394.1259936999995,394.14265739999246,394.14265739999246,394.14265739999246,395.01029510004446,left,1.0,23.805662099970505,,,,,,,,,,,,,,,,,,,,,,,,,,,,,,,sub-151,1.0,random_dot,60.00358820697053,
right,right,speed,,,,,0.0,1.0,1.0,1.0,10.0,0.0,20.0,1.0,395.0254613000434,,,,,,,,,395.0113877000404,395.82548980001593,396.62588549999055,396.6095279000001,396.6095558000379,396.62588549999055,396.62588549999055,396.62588549999055,397.6769471000298,left,0.0,23.988074099994265,,,,,,,,,,,,,,,,,,,,,,,,,,,,,,,sub-151,1.0,random_dot,60.00358820697053,
left,left,speed,,,,,0.0,1.0,1.0,1.0,10.0,1.0,21.0,0.0,397.6922385999933,,,,,,,,,397.6785475999932,398.0422611000249,398.8425318000373,398.8260806000326,398.82610420003766,398.8425318000373,398.8425318000373,398.8425318000373,400.22703140001977,right,0.0,24.32327669998631,,,,,,,,,,,,,,,,,,,,,,,,,,,,,,,sub-151,1.0,random_dot,60.00358820697053,
left,left,speed,,,,,0.0,1.0,1.0,1.0,11.0,0.0,22.0,0.0,400.2420780000393,,,,,,,,,400.2286228000303,400.3421221000026,401.1423875000328,401.1259806000162,401.1260086999973,401.1423875000328,401.1423875000328,401.1423875000328,402.4104854000034,right,0.0,24.217155900027137,,,,,,,,,,,,,,,,,,,,,,,,,,,,,,,sub-151,1.0,random_dot,60.00358820697053,
right,right,speed,,,,,0.0,1.0,1.0,1.0,11.0,1.0,23.0,1.0,402.4253802000312,,,,,,,,,402.4121352999937,403.62543449999066,404.42571099998895,404.4093897000421,404.40941720001865,404.42571099998895,404.42571099998895,404.42571099998895,405.79378519998863,left,0.0,24.309533999999985,,,,,,,,,,,,,,,,,,,,,,,,,,,,,,,sub-151,1.0,random_dot,60.00358820697053,
right,right,speed,,,,,0.0,1.0,1.0,1.0,12.0,0.0,24.0,1.0,405.8086908000405,,,,,,,,,405.7947645999957,407.0086747999885,407.8090960000409,407.7925949000055,407.7926226000418,407.8090960000409,407.8090960000409,407.8090960000409,408.8604697000119,left,0.0,23.998601999948733,,,,,,,,,,,,,,,,,,,,,,,,,,,,,,,sub-151,1.0,random_dot,60.00358820697053,
left,left,speed,,,,,0.0,1.0,1.0,1.0,12.0,1.0,25.0,0.0,408.87523529998725,,,,,,,,,408.862266000011,409.67521820002,410.4761181999929,410.4602749000187,410.4603172999923,410.4761181999929,410.4761181999929,410.4761181999929,411.3604334000265,left,1.0,23.8279011999839,,,,,,,,,,,,,,,,,,,,,,,,,,,,,,,sub-151,1.0,random_dot,60.00358820697053,
right,right,speed,,,,,0.0,1.0,1.0,1.0,13.0,0.0,26.0,1.0,411.3753490000381,,,,,,,,,411.3619124999968,412.1759640999953,412.9762626000447,412.9608102000202,412.9608654000331,412.9762626000447,412.9762626000447,412.9762626000447,413.5620448000264,left,0.0,23.532811999961268,,,,,,,,,,,,,,,,,,,,,,,,,,,,,,,sub-151,1.0,random_dot,60.00358820697053,
left,left,speed,,,,,0.0,1.0,1.0,1.0,13.0,1.0,27.0,0.0,413.5755222000298,,,,,,,,,413.5642191999941,414.3755731999991,415.17588200001046,415.16080499999225,415.16085320001,415.17588200001046,415.17588200001046,415.17588200001046,416.1808752000216,right,0.0,23.9529086999828,,,,,,,,,,,,,,,,,,,,,,,,,,,,,,,sub-151,1.0,random_dot,60.00358820697053,
left,left,speed,,,,,0.0,1.0,1.0,1.0,14.0,0.0,28.0,0.0,416.1921997999889,,,,,,,,,416.1826517000445,416.542180199991,417.34316960000433,417.3277525000158,417.3278095000424,417.34316960000433,417.34316960000433,417.34316960000433,418.1780272999895,left,1.0,23.775110899994612,,,,,,,,,,,,,,,,,,,,,,,,,,,,,,,sub-151,1.0,random_dot,60.00358820697053,
right,right,speed,,,,,0.0,1.0,1.0,1.0,14.0,1.0,29.0,1.0,418.1924347000313,,,,,,,,,418.179445900023,418.2924939999939,419.0923952999874,419.0758512000321,419.0758793000132,419.0923952999874,419.0923952999874,419.0923952999874,420.2274067000253,right,1.0,24.07948409998789,,,,,,,,,,,,,,,,,,,,,,,,,,,,,,,sub-151,1.0,random_dot,60.00358820697053,
left,left,speed,,,,,0.0,1.0,1.0,1.0,15.0,0.0,30.0,0.0,420.2424072000431,,,,,,,,,420.2286735000089,421.4422980000381,422.24250120000215,422.2258241000236,422.22589070000686,422.24250120000215,422.24250120000215,422.24250120000215,423.1278253000346,left,1.0,23.826069099945016,,,,,,,,,,,,,,,,,,,,,,,,,,,,,,,sub-151,1.0,random_dot,60.00358820697053,
right,right,speed,,,,,0.0,1.0,1.0,1.0,15.0,1.0,31.0,1.0,423.1421577000292,,,,,,,,,423.129944299988,423.24195759999566,424.0426331000053,424.0272252000286,424.0272857000237,424.0426331000053,424.0426331000053,424.0426331000053,424.6773245999939,left,0.0,23.57383549993392,,,,,,,,,,,,,,,,,,,,,,,,,,,,,,,sub-151,1.0,random_dot,60.00358820697053,
right,right,speed,,,,,0.0,1.0,1.0,1.0,16.0,0.0,32.0,1.0,424.6920930999913,,,,,,,,,424.678848200012,424.7924191000057,425.5927104000002,425.5767556999927,425.5767946999986,425.5927104000002,425.5927104000002,425.5927104000002,426.4669097000151,left,0.0,23.82259989995509,,,,,,,,,,,,,,,,,,,,,,,,,,,,,,,sub-151,1.0,random_dot,60.00358820697053,
left,left,speed,,,,,0.0,1.0,1.0,1.0,16.0,1.0,33.0,0.0,426.47529800003394,,,,,,,,,426.4681185000227,426.57522840000456,427.3761889000307,427.3601857000031,427.3602283000364,427.3761889000307,427.3761889000307,427.3761889000307,428.56486720003886,left,1.0,24.13703909999458,,,,,,,,,,,,,,,,,,,,,,,,,,,,,,,sub-151,1.0,random_dot,60.00358820697053,
left,left,speed,,,,,0.0,1.0,1.0,1.0,17.0,0.0,34.0,0.0,428.5754555999884,,,,,,,,,428.5662296999944,429.7756560000125,430.5758686999907,430.55910880002193,430.5591381000122,430.5758686999907,430.5758686999907,430.5758686999907,431.4938683999935,left,1.0,23.86404620000394,,,,,,,,,,,,,,,,,,,,,,,,,,,,,,,sub-151,1.0,random_dot,60.00358820697053,
right,right,speed,,,,,0.0,1.0,1.0,1.0,17.0,1.0,35.0,1.0,431.5090423999936,,,,,,,,,431.4953646000358,431.6085572000011,432.409504899988,432.393482399988,432.3935422000359,432.409504899988,432.409504899988,432.409504899988,433.6479876000085,right,1.0,24.18544500001008,,,,,,,,,,,,,,,,,,,,,,,,,,,,,,,sub-151,1.0,random_dot,60.00358820697053,
left,left,speed,,,,,0.0,1.0,1.0,1.0,18.0,0.0,36.0,0.0,433.6586588000064,,,,,,,,,433.64943839999614,434.45896850002464,435.2590558000375,435.2431411000434,435.2432082000305,435.2590558000375,435.2590558000375,435.2590558000375,436.5457020000322,left,1.0,24.233303699933455,,,,,,,,,,,,,,,,,,,,,,,,,,,,,,,sub-151,1.0,random_dot,60.00358820697053,
right,right,speed,,,,,0.0,1.0,1.0,1.0,18.0,1.0,37.0,1.0,436.5588299999945,,,,,,,,,436.5471746000112,436.658899400034,437.4587281999993,437.4428900000057,437.44293180003297,437.4587281999993,437.4587281999993,437.4587281999993,438.5979656000272,right,1.0,24.087352100003045,,,,,,,,,,,,,,,,,,,,,,,,,,,,,,,sub-151,1.0,random_dot,60.00358820697053,
left,left,speed,,,,,0.0,1.0,1.0,1.0,19.0,0.0,38.0,0.0,438.608531600039,,,,,,,,,438.59922299999744,439.4087505000061,440.2090933000436,440.193431599997,440.19348519999767,440.2090933000436,440.2090933000436,440.2090933000436,441.8322392000118,right,0.0,24.570672899950296,,,,,,,,,,,,,,,,,,,,,,,,,,,,,,,sub-151,1.0,random_dot,60.00358820697053,
right,right,speed,,,,,0.0,1.0,1.0,1.0,19.0,1.0,39.0,1.0,441.84185110003455,,,,,,,,,441.8335037000361,443.041489300027,443.8423623000272,443.8264052000013,443.82644939998863,443.8423623000272,443.8423623000272,443.8423623000272,444.83046840003226,right,1.0,23.93557490000967,,,,,,,,,,,,,,,,,,,,,,,,,,,,,,,sub-151,1.0,random_dot,60.00358820697053,
left,left,speed,,,,,0.0,1.0,1.0,1.0,20.0,0.0,40.0,0.0,444.842134000035,,,,,,,,,444.8318758000387,444.94211980002,445.74242830002913,445.726983600005,445.727045800013,445.74242830002913,445.74242830002913,445.74242830002913,446.6104044000385,right,0.0,23.81341479998082,,,,,,,,,,,,,,,,,,,,,,,,,,,,,,,sub-151,1.0,random_dot,60.00358820697053,
right,right,speed,,,,,0.0,1.0,1.0,1.0,20.0,1.0,41.0,1.0,446.625064700027,,,,,,,,,446.6115951000247,446.72526770003606,447.5255382999894,447.50970260001486,447.5097452999908,447.5255382999894,447.5255382999894,447.5255382999894,448.5938605000265,right,1.0,24.00760489993263,,,,,,,,,,,,,,,,,,,,,,,,,,,,,,,sub-151,1.0,random_dot,60.00358820697053,
left,left,speed,,,,,0.0,1.0,1.0,1.0,21.0,0.0,42.0,0.0,448.6084514000104,,,,,,,,,448.5952542999876,448.7086269000429,449.50901520001935,449.49347250000574,449.4935202000197,449.50901520001935,449.50901520001935,449.50901520001935,450.5784173000138,left,1.0,24.007423699949868,,,,,,,,,,,,,,,,,,,,,,,,,,,,,,,sub-151,1.0,random_dot,60.00358820697053,
right,right,speed,,,,,0.0,1.0,1.0,1.0,21.0,1.0,43.0,1.0,450.5918451999896,,,,,,,,,450.5801388000255,450.9421978000319,451.74249680002686,451.7270999000175,451.7271604000125,451.74249680002686,451.74249680002686,451.74249680002686,452.5776548000285,left,0.0,23.77795099996729,,,,,,,,,,,,,,,,,,,,,,,,,,,,,,,sub-151,1.0,random_dot,60.00358820697053,
right,right,speed,,,,,0.0,1.0,1.0,1.0,22.0,0.0,44.0,1.0,452.5917889000266,,,,,,,,,452.5798108000308,452.6915695000207,453.491816600028,453.4759680000134,453.4759986000136,453.491816600028,453.491816600028,453.491816600028,454.49358170002233,left,0.0,23.948365599964745,,,,,,,,,,,,,,,,,,,,,,,,,,,,,,,sub-151,1.0,random_dot,60.00358820697053,
left,left,speed,,,,,0.0,1.0,1.0,1.0,22.0,1.0,45.0,0.0,454.508491799992,,,,,,,,,454.4948842000449,455.7084529999993,456.5087043000385,456.4933606000268,456.4934079000377,456.5087043000385,456.5087043000385,456.5087043000385,457.6599603000213,right,0.0,24.09920090000378,,,,,,,,,,,,,,,,,,,,,,,,,,,,,,,sub-151,1.0,random_dot,60.00358820697053,
left,left,speed,,,,,0.0,1.0,1.0,1.0,23.0,0.0,46.0,0.0,457.67472549999366,,,,,,,,,457.6621297000093,457.77487690001726,458.5754847000353,458.559998599987,458.5600978000439,458.5754847000353,458.5754847000353,458.5754847000353,459.75973109999904,left,1.0,24.12563859997317,,,,,,,,,,,,,,,,,,,,,,,,,,,,,,,sub-151,1.0,random_dot,60.00358820697053,
right,right,speed,,,,,0.0,1.0,1.0,1.0,23.0,1.0,47.0,1.0,459.7747318000184,,,,,,,,,459.76158950000536,460.1252235000138,460.9252744000405,460.9099515000125,460.9100157000357,460.9252744000405,460.9252744000405,460.9252744000405,461.777338200016,right,1.0,23.79567219997989,,,,,,,,,,,,,,,,,,,,,,,,,,,,,,,sub-151,1.0,random_dot,60.00358820697053,
right,right,speed,,,,,0.0,1.0,1.0,1.0,24.0,0.0,48.0,1.0,461.79153190000216,,,,,,,,,461.77877620002255,461.8914877999923,462.6922729000216,462.6769975000061,462.6770502,462.6922729000216,462.6922729000216,462.6922729000216,464.0767089000437,left,0.0,24.32375380001031,,,,,,,,,,,,,,,,,,,,,,,,,,,,,,,sub-151,1.0,random_dot,60.00358820697053,
left,left,speed,,,,,0.0,1.0,1.0,1.0,24.0,1.0,49.0,0.0,464.091484500037,,,,,,,,,464.0786514999927,465.2915504000266,466.0922057999997,466.0758554000058,466.07589129998814,466.0922057999997,466.0922057999997,466.0922057999997,467.6284646000131,right,0.0,24.47319669998251,,,,,,,,,,,,,,,,,,,,,,,,,,,,,,,sub-151,1.0,random_dot,60.00358820697053,
right,right,speed,,,,,0.0,1.0,1.0,1.0,25.0,0.0,50.0,1.0,467.6415129000088,,,,,,,,,467.63045590004185,468.84158720000414,469.6420226999908,469.6261901000398,469.6262361000408,469.6420226999908,469.6420226999908,469.6420226999908,470.5605309000239,right,1.0,23.85749669995857,,,,,,,,,,,,,,,,,,,,,,,,,,,,,,,sub-151,1.0,random_dot,60.00358820697053,
left,left,speed,,,,,0.0,1.0,1.0,1.0,25.0,1.0,51.0,0.0,470.5745582000236,,,,,,,,,470.5619686000282,470.6750027000089,471.4751667000237,471.4598219000036,471.4598671999993,471.4751667000237,471.4751667000237,471.4751667000237,472.6610965,left,1.0,24.13278200000059,,,,,,,,,,,,,,,,,,,,,,,,,,,,,,,sub-151,1.0,random_dot,60.00358820697053,
right,right,speed,,,,,0.0,1.0,1.0,1.0,26.0,0.0,52.0,1.0,472.6747133000172,,,,,,,,,472.6631350000389,473.0248367000022,473.8253665000084,473.8101446999936,473.81020260002697,473.8253665000084,473.8253665000084,473.8253665000084,475.1607464000117,left,0.0,24.2734361999901,,,,,,,,,,,,,,,,,,,,,,,,,,,,,,,sub-151,1.0,random_dot,60.00358820697053,
left,left,speed,,,,,0.0,1.0,1.0,1.0,26.0,1.0,53.0,0.0,475.1748163999873,,,,,,,,,475.1622860000352,475.2747985000024,476.075126300042,476.0593638000428,476.05940600001486,476.075126300042,476.075126300042,476.075126300042,477.27666030003456,left,1.0,24.14817770000081,,,,,,,,,,,,,,,,,,,,,,,,,,,,,,,sub-151,1.0,random_dot,60.00358820697053,
right,right,speed,,,,,0.0,1.0,1.0,1.0,27.0,0.0,54.0,1.0,477.2916333000176,,,,,,,,,477.2779600000358,477.6415363000124,478.442000799987,478.4260547999874,478.426096900017,478.442000799987,478.442000799987,478.442000799987,479.6106169000268,left,0.0,24.106317699945063,,,,,,,,,,,,,,,,,,,,,,,,,,,,,,,sub-151,1.0,random_dot,60.00358820697053,
left,left,speed,,,,,0.0,1.0,1.0,1.0,27.0,1.0,55.0,0.0,479.6244042000035,,,,,,,,,479.6129953000345,480.4245073000202,481.2252347000176,481.2102700000396,481.2103218000266,481.2252347000176,481.2252347000176,481.2252347000176,482.226862600015,left,1.0,23.93875219998881,,,,,,,,,,,,,,,,,,,,,,,,,,,,,,,sub-151,1.0,random_dot,60.00358820697053,
right,right,speed,,,,,0.0,1.0,1.0,1.0,28.0,0.0,56.0,1.0,482.2413350000279,,,,,,,,,482.2281815999886,483.4415559000336,484.24168490001466,484.22599730000366,484.2260381000233,484.24168490001466,484.24168490001466,484.24168490001466,486.0591559000313,right,1.0,24.754199899965897,,,,,,,,,,,,,,,,,,,,,,,,,,,,,,,sub-151,1.0,random_dot,60.00358820697053,
left,left,speed,,,,,0.0,1.0,1.0,1.0,28.0,1.0,57.0,0.0,486.0742942999932,,,,,,,,,486.06067120004445,486.1742066000006,486.9744513999904,486.9583903999883,486.9584167000139,486.9744513999904,486.9744513999904,486.9744513999904,487.926546600007,right,0.0,23.893871299922463,,,,,,,,,,,,,,,,,,,,,,,,,,,,,,,sub-151,1.0,random_dot,60.00358820697053,
left,left,speed,,,,,0.0,1.0,1.0,1.0,29.0,0.0,58.0,0.0,487.941669700027,,,,,,,,,487.9280967999948,489.1410884000361,489.9417666000081,489.9262161999941,489.92625900002895,489.9417666000081,489.9417666000081,489.9417666000081,491.0268618999981,right,0.0,24.0260720999795,,,,,,,,,,,,,,,,,,,,,,,,,,,,,,,sub-151,1.0,random_dot,60.00358820697053,
right,right,speed,,,,,0.0,1.0,1.0,1.0,29.0,1.0,59.0,1.0,491.0412302000332,,,,,,,,,491.0284748999984,491.39133459998993,492.19156940002,492.1747688000323,492.1748010999872,492.19156940002,492.19156940002,492.19156940002,493.7128349000122,right,1.0,24.46845599997323,,,,,,,,,,,,,,,,,,,,,,,,,,,,,,,sub-151,1.0,random_dot,60.00358820697053,
,,speed,,,,,0.0,1.0,1.0,1.0,,,,,,,,,,,,,,,,,,,,,,,,,,,,,,,,,,,,,,,,,,,,,,,,,,,,,,,,sub-151,1.0,random_dot,60.00358820697053,
,,,,,,,,,,,,,,,,,,,,,,,,,,,,,,,,,,,,,,,,,,,,,,,,,,,,,,,,,,,,,,493.71433420002,493.7243564000237,498.72403770004166,498.7095322000096,sub-151,,,,
