wordCTK,colorCTK,corrAnsCTK,congruentCTK,thisN,thisTrialN,thisRepN,keyResp_CTK.keys,keyResp_CTK.corr,keyResp_CTK.rt,keyResp_CTK.duration,wordPractice,colorPractice,corrAnsPractice,congruentPractice,respPractice.keys,respPractice.corr,respPractice.rt,respPractice.duration,word,color,corrAns,congruent,keyResp_test_run.keys,keyResp_test_run.corr,keyResp_test_run.rt,keyResp_test_run.duration,trials_CTK.thisRepN,trials_CTK.thisTrialN,trials_CTK.thisN,trials_CTK.thisIndex,trials_practice.thisRepN,trials_practice.thisTrialN,trials_practice.thisN,trials_practice.thisIndex,trials_test.thisRepN,trials_test.thisTrialN,trials_test.thisN,trials_test.thisIndex,thisRow.t,notes,instruction.started,instr_text.started,instr_image.started,instr_resp.started,instruction.stopped,instr_resp.keys,instr_resp.rt,instr_resp.duration,instr_color_to_key.started,instr_ctk.started,resp_ctk.started,instr_color_to_key.stopped,resp_ctk.keys,resp_ctk.rt,resp_ctk.duration,ITI.started,fixcross.started,fixcross.stopped,ITI.stopped,color_to_key_run.started,stimulus_CTK.started,keyResp_CTK.started,color_to_key_run.stopped,trials_CTK.keyResp_CTK.keys,trials_CTK.keyResp_CTK.corr,trials_CTK.keyResp_CTK.rt,trials_CTK.keyResp_CTK.duration,instr_practice.started,instr_practice_text.started,instr_practice_resp.started,instr_practice.stopped,instr_practice_resp.keys,instr_practice_resp.rt,instr_practice_resp.duration,practice_run.started,stimulus_practice.started,respPractice.started,practice_run.stopped,trials_practice.respPractice.keys,trials_practice.respPractice.corr,trials_practice.respPractice.rt,trials_practice.respPractice.duration,feedback.started,textFeedback.started,feedback.stopped,textFeedback.stopped,instr_test.started,instr_test_text.started,instr_test_resp.started,instr_test.stopped,instr_test_resp.keys,instr_test_resp.rt,instr_test_resp.duration,test_run.started,stimulus_test_run.started,keyResp_test_run.started,test_run.stopped,trials_test.keyResp_test_run.keys,trials_test.keyResp_test_run.corr,trials_test.keyResp_test_run.rt,trials_test.keyResp_test_run.duration,goodbye.started,textGoodbye.started,textGoodbye.stopped,goodbye.stopped,participant,session,expName,frameRate,Unnamed: 113
,,,,,,,,,,,,,,,,,,,,,,,,,,,,,,,,,,,,,,,,,0.0045778000203426,0.0826506000012159,0.0826506000012159,0.0826506000012159,59.827221000014106,space,59.69084950000979,,,,,,,,,,,,,,,,,,,,,,,,,,,,,,,,,,,,,,,,,,,,,,,,,,,,,,,,,,,sub-028,1,stroop_test,60.06099794901615,
,,,,,,,,,,,,,,,,,,,,,,,,,,,,,,,,,,,,,,,,,,,,,,,,,59.82729640000616,59.83493730000919,59.83493730000919,85.42394770000828,space,25.58751770001254,,,,,,,,,,,,,,,,,,,,,,,,,,,,,,,,,,,,,,,,,,,,,,,,,,,,sub-028,1,stroop_test,60.06099794901615,
test,yellow,g,1.0,0.0,0.0,0.0,g,1.0,1.402456500014523,,,,,,,,,,,,,,,,,,0.0,0.0,0.0,1.0,,,,,,,,,85.44390240000212,,,,,,,,,,,,,,,,,85.43809790001251,86.23886810001568,87.04284180002287,87.02272720000474,87.03366010001628,87.04284180002287,87.04284180002287,88.45630590000656,g,1.0,1.402456500014523,,,,,,,,,,,,,,,,,,,,,,,,,,,,,,,,,,,,,,,,sub-028,1,stroop_test,60.06099794901615,
test,red,r,1.0,1.0,1.0,0.0,r,1.0,1.2611022999917625,,,,,,,,,,,,,,,,,,0.0,1.0,1.0,0.0,,,,,,,,,88.4718529000238,,,,,,,,,,,,,,,,,88.45658220001496,88.55522460001521,89.35522769999807,89.33921640002518,89.33992700002273,89.35522769999807,89.35522769999807,90.62322110001696,r,1.0,1.2611022999917625,,,,,,,,,,,,,,,,,,,,,,,,,,,,,,,,,,,,,,,,sub-028,1,stroop_test,60.06099794901615,
test,blue,b,1.0,2.0,2.0,0.0,b,1.0,0.494875200005481,,,,,,,,,,,,,,,,,,0.0,2.0,2.0,2.0,,,,,,,,,90.63845710002352,,,,,,,,,,,,,,,,,90.62358900002435,91.83844540000428,92.63879620001536,92.62309560002176,92.6237814000051,92.63879620001536,92.63879620001536,93.1400025000039,b,1.0,0.494875200005481,,,,,,,,,,,,,,,,,,,,,,,,,,,,,,,,,,,,,,,,sub-028,1,stroop_test,60.06099794901615,
test,blue,b,1.0,3.0,0.0,1.0,b,1.0,0.6814874999981839,,,,,,,,,,,,,,,,,,1.0,0.0,3.0,2.0,,,,,,,,,93.15511069999776,,,,,,,,,,,,,,,,,93.1402783000085,93.95513560000109,94.75449140000272,94.73853410000449,94.73912929999642,94.75449140000272,94.75449140000272,95.4388009000104,b,1.0,0.6814874999981839,,,,,,,,,,,,,,,,,,,,,,,,,,,,,,,,,,,,,,,,sub-028,1,stroop_test,60.06099794901615,
test,yellow,g,1.0,4.0,1.0,1.0,g,1.0,0.7797668999992311,,,,,,,,,,,,,,,,,,1.0,1.0,4.0,1.0,,,,,,,,,95.45486190001247,,,,,,,,,,,,,,,,,95.43906870001229,95.53841790001024,96.33730530002504,96.32228620001116,96.32295250002062,96.33730530002504,96.33730530002504,97.12300099999992,g,1.0,0.7797668999992311,,,,,,,,,,,,,,,,,,,,,,,,,,,,,,,,,,,,,,,,sub-028,1,stroop_test,60.06099794901615,
test,red,r,1.0,5.0,2.0,1.0,r,1.0,0.4811585999850649,,,,,,,,,,,,,,,,,,1.0,2.0,5.0,0.0,,,,,,,,,97.137684300018,,,,,,,,,,,,,,,,,97.12328010000056,97.2374197000172,98.03773160002312,98.02154790001804,98.02212830001372,98.03773160002312,98.03773160002312,98.52304090000688,r,1.0,0.4811585999850649,,,,,,,,,,,,,,,,,,,,,,,,,,,,,,,,,,,,,,,,sub-028,1,stroop_test,60.06099794901615,
test,yellow,g,1.0,6.0,0.0,2.0,g,1.0,1.1402200000011362,,,,,,,,,,,,,,,,,,2.0,0.0,6.0,1.0,,,,,,,,,98.53749930000048,,,,,,,,,,,,,,,,,98.52356370000052,98.88768159999744,99.68725390001782,99.67170530001748,99.67238130001353,99.68725390001782,99.68725390001782,100.83898510001018,g,1.0,1.1402200000011362,,,,,,,,,,,,,,,,,,,,,,,,,,,,,,,,,,,,,,,,sub-028,1,stroop_test,60.06099794901615,
test,blue,b,1.0,7.0,1.0,2.0,b,1.0,0.5149057999951765,,,,,,,,,,,,,,,,,,2.0,1.0,7.0,2.0,,,,,,,,,100.85429810002096,,,,,,,,,,,,,,,,,100.83930320001672,100.95341100002406,101.75325900001916,101.7373987000028,101.737867000018,101.75325900001916,101.75325900001916,102.27221480000298,b,1.0,0.5149057999951765,,,,,,,,,,,,,,,,,,,,,,,,,,,,,,,,,,,,,,,,sub-028,1,stroop_test,60.06099794901615,
test,red,r,1.0,8.0,2.0,2.0,r,1.0,0.3688045000017155,,,,,,,,,,,,,,,,,,2.0,2.0,8.0,0.0,,,,,,,,,102.2866393000004,,,,,,,,,,,,,,,,,102.27263330001732,103.08785800001353,103.88653160000104,103.87113959999988,103.8716164000216,103.88653160000104,103.88653160000104,104.27249530001428,r,1.0,0.3688045000017155,,,,,,,,,,,,,,,,,,,,,,,,,,,,,,,,,,,,,,,,sub-028,1,stroop_test,60.06099794901615,
test,yellow,g,1.0,9.0,0.0,3.0,g,1.0,0.5648292999831028,,,,,,,,,,,,,,,,,,3.0,0.0,9.0,1.0,,,,,,,,,104.28695550002158,,,,,,,,,,,,,,,,,104.27283670002362,105.08686820001458,105.886067000014,105.8704446000047,105.8708423000062,105.886067000014,105.886067000014,106.45469380001305,g,1.0,0.5648292999831028,,,,,,,,,,,,,,,,,,,,,,,,,,,,,,,,,,,,,,,,sub-028,1,stroop_test,60.06099794901615,
test,blue,b,1.0,10.0,1.0,3.0,b,1.0,0.5159477999841329,,,,,,,,,,,,,,,,,,3.0,1.0,10.0,2.0,,,,,,,,,106.46938840000077,,,,,,,,,,,,,,,,,106.4549304000102,106.56992229999742,107.36931040001218,107.35331930001848,107.35369090002496,107.36931040001218,107.36931040001218,107.88774390000616,b,1.0,0.5159477999841329,,,,,,,,,,,,,,,,,,,,,,,,,,,,,,,,,,,,,,,,sub-028,1,stroop_test,60.06099794901615,
test,red,r,1.0,11.0,2.0,3.0,r,1.0,0.3814470999932382,,,,,,,,,,,,,,,,,,3.0,2.0,11.0,0.0,,,,,,,,,107.9030819000036,,,,,,,,,,,,,,,,,107.88818660000106,108.702612699999,109.50217210000848,109.48628810001536,109.48664700001244,109.50217210000848,109.50217210000848,109.88726970000424,r,1.0,0.3814470999932382,,,,,,,,,,,,,,,,,,,,,,,,,,,,,,,,,,,,,,,,sub-028,1,stroop_test,60.06099794901615,
,,,,,,,,,,,,,,,,,,,,,,,,,,,,,,,,,,,,,,,,,,,,,,,,,,,,,,,,,,,,,,,,,,,,109.88738230001763,109.90227820002474,109.90227820002474,117.270113400009,space,7.362575499981176,,,,,,,,,,,,,,,,,,,,,,,,,,,,,,,,,sub-028,1,stroop_test,60.06099794901615,
,,,,0.0,0.0,0.0,,,,,gelb,red,r,0.0,r,1.0,1.278331799985608,,,,,,,,,,,,,,0.0,0.0,0.0,8.0,,,,,117.29129829999874,,,,,,,,,,,,,,,,,117.28516440000384,117.38483900000574,118.18778000000748,118.1693884000124,,,,,,,,,,,,,,,,118.1780402000004,118.18778000000748,118.18778000000748,119.4694077000022,r,1.0,1.278331799985608,,119.48150300001726,119.49019160002354,120.48507350002184,,,,,,,,,,,,,,,,,,,,,sub-028,1,stroop_test,60.06099794901615,
,,,,1.0,1.0,0.0,,,,,gelb,blue,b,0.0,b,1.0,0.6716687000007369,,,,,,,,,,,,,,0.0,1.0,1.0,9.0,,,,,120.50131839999813,,,,,,,,,,,,,,,,,120.48537880001822,120.83506680000572,121.63442250000662,121.61843420000514,,,,,,,,,,,,,,,,121.618810200016,121.63442250000662,121.63442250000662,122.31912070000544,b,1.0,0.6716687000007369,,122.31966970002397,122.3341541000118,123.31858180000565,123.3340268000029,,,,,,,,,,,,,,,,,,,,sub-028,1,stroop_test,60.06099794901615,
,,,,2.0,2.0,0.0,,,,,blau,blue,b,1.0,b,1.0,0.7039997999963816,,,,,,,,,,,,,,0.0,2.0,2.0,6.0,,,,,123.3340268000029,,,,,,,,,,,,,,,,,123.3189171999984,123.43453440000305,124.23603950001416,124.21891730002244,,,,,,,,,,,,,,,,124.22656340000684,124.23603950001416,124.23603950001416,124.95173520001116,b,1.0,0.7039997999963816,,124.95214090001537,124.96775619999973,125.956963500008,,,,,,,,,,,,,,,,,,,,,sub-028,1,stroop_test,60.06099794901615,
,,,,3.0,3.0,0.0,,,,,blau,blue,b,1.0,b,1.0,2.683334000001196,,,,,,,,,,,,,,0.0,3.0,3.0,5.0,,,,,125.97287060000237,,,,,,,,,,,,,,,,,125.95744950001244,126.75631620001514,127.55658610002138,127.54056660001515,,,,,,,,,,,,,,,,127.5410099000146,127.55658610002138,127.55658610002138,130.2511164000025,b,1.0,2.683334000001196,,130.25154800000018,130.26627010002267,131.25047510000877,131.26624820000143,,,,,,,,,,,,,,,,,,,,sub-028,1,stroop_test,60.06099794901615,
,,,,4.0,4.0,0.0,,,,,rot,yellow,g,0.0,g,1.0,1.2645093000028282,,,,,,,,,,,,,,0.0,4.0,4.0,3.0,,,,,131.26624820000143,,,,,,,,,,,,,,,,,131.25082730001304,131.3497183000145,132.15073300001677,132.13427290000254,,,,,,,,,,,,,,,,132.14038140000775,132.15073300001677,132.15073300001677,133.41729750001105,g,1.0,1.2645093000028282,,133.4177380000183,133.4329495000129,134.41682630000287,134.43244130001403,,,,,,,,,,,,,,,,,,,,sub-028,1,stroop_test,60.06099794901615,
,,,,5.0,5.0,0.0,,,,,rot,red,r,1.0,r,1.0,1.2909042999963276,,,,,,,,,,,,,,0.0,5.0,5.0,0.0,,,,,134.43244130001403,,,,,,,,,,,,,,,,,134.41739760001656,135.23271130002104,136.03232440000284,136.01675180002348,,,,,,,,,,,,,,,,136.017594200006,136.03232440000284,136.03232440000284,137.33329629999935,r,1.0,1.2909042999963276,,137.33374280002317,137.34884130000137,138.3336444000015,138.34952540000086,,,,,,,,,,,,,,,,,,,,sub-028,1,stroop_test,60.06099794901615,
,,,,6.0,6.0,0.0,,,,,gelb,yellow,g,1.0,g,1.0,0.9767381999990904,,,,,,,,,,,,,,0.0,6.0,6.0,10.0,,,,,138.34952540000086,,,,,,,,,,,,,,,,,138.33395610001753,138.69930780000868,139.49860670001362,139.48345280002104,,,,,,,,,,,,,,,,139.4858968000044,139.49860670001362,139.49860670001362,140.48302919999696,g,1.0,0.9767381999990904,,140.48341519999667,140.49816440002178,141.4824118000106,141.49840820001555,,,,,,,,,,,,,,,,,,,,sub-028,1,stroop_test,60.06099794901615,
,,,,7.0,7.0,0.0,,,,,blau,red,r,0.0,r,1.0,0.6860232999897562,,,,,,,,,,,,,,0.0,7.0,7.0,4.0,,,,,141.49840820001555,,,,,,,,,,,,,,,,,141.48269279999658,141.84808620001422,142.64814950001892,142.63219530001516,,,,,,,,,,,,,,,,142.63655200001085,142.64814950001892,142.64814950001892,143.34930800000438,r,1.0,0.6860232999897562,,143.3496856999991,143.3646582000074,144.34866780001903,144.3647568000015,,,,,,,,,,,,,,,,,,,,sub-028,1,stroop_test,60.06099794901615,
,,,,8.0,8.0,0.0,,,,,gelb,yellow,g,1.0,g,1.0,0.7723736000189092,,,,,,,,,,,,,,0.0,8.0,8.0,11.0,,,,,144.3647568000015,,,,,,,,,,,,,,,,,144.348960000003,144.46492460000445,145.26443010001094,145.2485038000159,,,,,,,,,,,,,,,,145.250915600016,145.26443010001094,145.26443010001094,146.04902110001422,g,1.0,0.7723736000189092,,146.04950850000023,146.0645284000202,147.0483642000181,147.06435210001655,,,,,,,,,,,,,,,,,,,,sub-028,1,stroop_test,60.06099794901615,
,,,,9.0,9.0,0.0,,,,,rot,blue,b,0.0,b,1.0,0.4179297999944538,,,,,,,,,,,,,,0.0,9.0,9.0,2.0,,,,,147.06435210001655,,,,,,,,,,,,,,,,,147.0488144000119,148.26425770000787,149.0643864000158,149.0487021000008,,,,,,,,,,,,,,,,149.05154590000166,149.0643864000158,149.0643864000158,149.49845530002494,b,1.0,0.4179297999944538,,149.49885240002186,149.51421540000592,150.49872120001237,150.51459210002213,,,,,,,,,,,,,,,,,,,,sub-028,1,stroop_test,60.06099794901615,
,,,,10.0,10.0,0.0,,,,,blau,yellow,g,0.0,g,1.0,0.7556259999983013,,,,,,,,,,,,,,0.0,10.0,10.0,7.0,,,,,150.51459210002213,,,,,,,,,,,,,,,,,150.49911810000776,151.71448320001946,152.51407270002528,152.49777450002148,,,,,,,,,,,,,,,,152.50262880002265,152.51407270002528,152.51407270002528,153.2812430000049,g,1.0,0.7556259999983013,,153.28167620001477,153.29753830001573,154.29650160000892,,,,,,,,,,,,,,,,,,,,,sub-028,1,stroop_test,60.06099794901615,
,,,,11.0,11.0,0.0,,,,,rot,red,r,1.0,r,1.0,0.9883834000211208,,,,,,,,,,,,,,0.0,11.0,11.0,1.0,,,,,154.31346450001,,,,,,,,,,,,,,,,,154.2968491000065,154.3968722000136,155.19649430000572,155.18069960002322,,,,,,,,,,,,,,,,155.18425570000545,155.19649430000572,155.19649430000572,156.1975218000007,r,1.0,0.9883834000211208,,156.19795080000767,156.21325460000662,157.19741809999687,157.2127918000042,,,,,,,,,,,,,,,,,,,,sub-028,1,stroop_test,60.06099794901615,
,,,,12.0,0.0,1.0,,,,,gelb,red,r,0.0,r,1.0,1.101728000008734,,,,,,,,,,,,,,1.0,0.0,12.0,8.0,,,,,157.2127918000042,,,,,,,,,,,,,,,,,157.1976477999997,157.56354080000892,158.36323190000255,158.346829600021,,,,,,,,,,,,,,,,158.34988460000022,158.36323190000255,158.36323190000255,159.48048150000977,r,1.0,1.101728000008734,,159.48086910002166,159.49572990002343,160.47985570001765,160.49634090001928,,,,,,,,,,,,,,,,,,,,sub-028,1,stroop_test,60.06099794901615,
,,,,13.0,1.0,1.0,,,,,gelb,blue,b,0.0,b,1.0,1.2479418000148144,,,,,,,,,,,,,,1.0,1.0,13.0,9.0,,,,,160.49634090001928,,,,,,,,,,,,,,,,,160.4801252000034,161.69584359999862,162.49572230002377,162.47968410002068,,,,,,,,,,,,,,,,162.48016659999848,162.49572230002377,162.49572230002377,163.74680220001028,b,1.0,1.2479418000148144,,163.7472792000044,163.76208400001633,164.74688690001494,164.76186410000082,,,,,,,,,,,,,,,,,,,,sub-028,1,stroop_test,60.06099794901615,
,,,,14.0,2.0,1.0,,,,,blau,blue,b,1.0,b,1.0,1.321933600003831,,,,,,,,,,,,,,1.0,2.0,14.0,5.0,,,,,164.76186410000082,,,,,,,,,,,,,,,,,164.7473719000118,165.11249359999783,165.9152821000025,165.89741669999785,,,,,,,,,,,,,,,,165.90418730000965,165.9152821000025,165.9152821000025,167.24645720000262,b,1.0,1.321933600003831,,167.24719610001193,167.2613207999966,168.2453763000085,168.26134190001176,,,,,,,,,,,,,,,,,,,,sub-028,1,stroop_test,60.06099794901615,
,,,,15.0,3.0,1.0,,,,,rot,blue,b,0.0,b,1.0,0.814010900008725,,,,,,,,,,,,,,1.0,3.0,15.0,2.0,,,,,168.26134190001176,,,,,,,,,,,,,,,,,168.24560470000142,169.4624958000204,170.27840280000237,170.2629966000095,,,,,,,,,,,,,,,,170.26697100000456,170.27840280000237,170.27840280000237,171.0959885000193,b,1.0,0.814010900008725,,171.09649700002046,171.11205760002483,172.11097629999858,,,,,,,,,,,,,,,,,,,,,sub-028,1,stroop_test,60.06099794901615,
,,,,16.0,4.0,1.0,,,,,rot,red,r,1.0,r,1.0,0.77103740000166,,,,,,,,,,,,,,1.0,4.0,16.0,1.0,,,,,172.12769110000227,,,,,,,,,,,,,,,,,172.1112911000091,173.31142120002187,174.1117293999996,174.09503260001657,,,,,,,,,,,,,,,,174.09541999999783,174.1117293999996,174.1117293999996,174.89609360002214,r,1.0,0.77103740000166,,174.89647259999765,174.910872700013,175.89495509999688,175.91044400000828,,,,,,,,,,,,,,,,,,,,sub-028,1,stroop_test,60.06099794901615,
,,,,17.0,5.0,1.0,,,,,blau,blue,b,1.0,b,1.0,0.5477753000159282,,,,,,,,,,,,,,1.0,5.0,17.0,6.0,,,,,175.91044400000828,,,,,,,,,,,,,,,,,175.89519340000697,176.0111361000163,176.81088380000438,176.79501729999902,,,,,,,,,,,,,,,,176.79776899999706,176.81088380000438,176.81088380000438,177.36244260001695,b,1.0,0.5477753000159282,,177.36285550001776,177.3775332000223,178.3607719000138,178.37719389999984,,,,,,,,,,,,,,,,,,,,sub-028,1,stroop_test,60.06099794901615,
,,,,18.0,6.0,1.0,,,,,gelb,yellow,g,1.0,g,1.0,0.499183300009463,,,,,,,,,,,,,,1.0,6.0,18.0,11.0,,,,,178.37719389999984,,,,,,,,,,,,,,,,,178.3611052000197,178.47754810002516,179.27747090000776,179.2608125999977,,,,,,,,,,,,,,,,179.26337810000405,179.27747090000776,179.27747090000776,179.77805730002,g,1.0,0.499183300009463,,179.77853500001947,179.79359620000469,180.77722080002425,180.7929768000031,,,,,,,,,,,,,,,,,,,,sub-028,1,stroop_test,60.06099794901615,
,,,,19.0,7.0,1.0,,,,,rot,yellow,g,0.0,r,0.0,0.9999430000025312,,,,,,,,,,,,,,1.0,7.0,19.0,3.0,,,,,180.7929768000031,,,,,,,,,,,,,,,,,180.77749860001492,181.99284170000465,182.79293600001256,182.77725410001585,,,,,,,,,,,,,,,,182.78007500001692,182.79293600001256,182.79293600001256,183.7941611999995,r,0.0,0.9999430000025312,,183.8008287000121,183.8117766000214,184.81021370002415,,,,,,,,,,,,,,,,,,,,,sub-028,1,stroop_test,60.06099794901615,
,,,,20.0,8.0,1.0,,,,,blau,yellow,g,0.0,g,1.0,1.0940225000085777,,,,,,,,,,,,,,1.0,8.0,20.0,7.0,,,,,184.82607530002133,,,,,,,,,,,,,,,,,184.81053660000907,185.60913550000987,186.40952620000465,186.3932040000218,,,,,,,,,,,,,,,,186.39621180002,186.40952620000465,186.40952620000465,187.51021720000423,g,1.0,1.0940225000085777,,187.51328730001117,187.52553040001655,188.509535899997,188.52556950002327,,,,,,,,,,,,,,,,,,,,sub-028,1,stroop_test,60.06099794901615,
,,,,21.0,9.0,1.0,,,,,rot,red,r,1.0,r,1.0,0.6254696999967564,,,,,,,,,,,,,,1.0,9.0,21.0,0.0,,,,,188.52556950002327,,,,,,,,,,,,,,,,,188.50988140000845,188.6256605000235,189.42711140000029,189.41035620000912,,,,,,,,,,,,,,,,189.4141492000199,189.42711140000029,189.42711140000029,190.06025880001835,r,1.0,0.6254696999967564,,190.0606828000164,190.0756272000144,191.059164300008,191.07530830000175,,,,,,,,,,,,,,,,,,,,sub-028,1,stroop_test,60.06099794901615,
,,,,22.0,10.0,1.0,,,,,blau,red,r,0.0,r,1.0,0.9781968000170308,,,,,,,,,,,,,,1.0,10.0,22.0,4.0,,,,,191.07530830000175,,,,,,,,,,,,,,,,,191.0595627000148,191.17559640001852,191.97493570001097,191.9587928999972,,,,,,,,,,,,,,,,191.96163390000584,191.97493570001097,191.97493570001097,192.9606270000222,r,1.0,0.9781968000170308,,192.9613825000124,192.97578259999864,193.95901449999656,193.9754268999968,,,,,,,,,,,,,,,,,,,,sub-028,1,stroop_test,60.06099794901615,
,,,,23.0,11.0,1.0,,,,,gelb,yellow,g,1.0,g,1.0,0.8908882999967318,,,,,,,,,,,,,,1.0,11.0,23.0,10.0,,,,,193.9754268999968,,,,,,,,,,,,,,,,,193.95927839999783,195.17561990002287,195.97484050001367,195.9591973000206,,,,,,,,,,,,,,,,195.9616653000121,195.97484050001367,195.97484050001367,196.8763322000159,g,1.0,0.8908882999967318,,196.87689060001867,196.8918589000241,197.87581930001036,197.89180470001884,,,,,,,,,,,,,,,,,,,,sub-028,1,stroop_test,60.06099794901615,
,,,,,,,,,,,,,,,,,,,,,,,,,,,,,,,,,,,,,,,,,,,,,,,,,,,,,,,,,,,,,,,,,,,,,,,,,,,,,,,,,,,,,,,197.87606219999725,197.89180470001884,197.89180470001884,204.79174539999804,space,6.888521899993066,,,,,,,,,,,,,,sub-028,1,stroop_test,60.06099794901615,
,,,,0.0,0.0,0.0,,,,,,,,,,,,,rot,yellow,g,0.0,g,1.0,1.049027799977921,,,,,,,,,,0.0,0.0,0.0,3.0,204.81066630000717,,,,,,,,,,,,,,,,,204.8051821000117,205.6066475000116,206.40631740001845,206.39088240001,,,,,,,,,,,,,,,,,,,,,,,,,,,,,,,,,,,206.39446540002243,206.40631740001845,206.40631740001845,207.4581487000105,g,1.0,1.049027799977921,,,,,,sub-028,1,stroop_test,60.06099794901615,
,,,,1.0,1.0,0.0,,,,,,,,,,,,,rot,red,r,1.0,r,1.0,0.6251529999717604,,,,,,,,,,0.0,1.0,1.0,1.0,207.47302420000776,,,,,,,,,,,,,,,,,207.4586509000219,208.27305760001764,209.07311680002024,209.05794040000185,,,,,,,,,,,,,,,,,,,,,,,,,,,,,,,,,,,209.05860129999928,209.07311680002024,209.07311680002024,209.70804110000608,r,1.0,0.6251529999717604,,,,,,sub-028,1,stroop_test,60.06099794901615,
,,,,2.0,2.0,0.0,,,,,,,,,,,,,gelb,blue,b,0.0,b,1.0,0.6709723999956623,,,,,,,,,,0.0,2.0,2.0,9.0,209.7233121000172,,,,,,,,,,,,,,,,,209.70835430000443,210.0559392000141,210.856397800002,210.8399314999988,,,,,,,,,,,,,,,,,,,,,,,,,,,,,,,,,,,210.84255230001872,210.856397800002,210.856397800002,211.54078550002305,b,1.0,0.6709723999956623,,,,,,sub-028,1,stroop_test,60.06099794901615,
,,,,3.0,3.0,0.0,,,,,,,,,,,,,blau,red,r,0.0,r,1.0,1.8597846000047864,,,,,,,,,,0.0,3.0,3.0,4.0,211.55586750002112,,,,,,,,,,,,,,,,,211.54113190001223,211.6559196000162,212.4557976000069,212.44077950000064,,,,,,,,,,,,,,,,,,,,,,,,,,,,,,,,,,,212.4437750000216,212.4557976000069,212.4557976000069,214.32365180001943,r,1.0,1.8597846000047864,,,,,,sub-028,1,stroop_test,60.06099794901615,
,,,,4.0,4.0,0.0,,,,,,,,,,,,,gelb,yellow,g,1.0,g,1.0,0.7556511999864597,,,,,,,,,,0.0,4.0,4.0,11.0,214.3393576000235,,,,,,,,,,,,,,,,,214.3239887000236,214.6884317000222,215.4887164999964,215.47318100000848,,,,,,,,,,,,,,,,,,,,,,,,,,,,,,,,,,,215.47577920000185,215.4887164999964,215.4887164999964,216.2567515000119,g,1.0,0.7556511999864597,,,,,,sub-028,1,stroop_test,60.06099794901615,
,,,,5.0,5.0,0.0,,,,,,,,,,,,,rot,blue,b,0.0,b,1.0,0.8974529999832157,,,,,,,,,,0.0,5.0,5.0,2.0,216.27179170001185,,,,,,,,,,,,,,,,,216.2570736000198,216.62185820000013,217.4220745000057,217.40604440000607,,,,,,,,,,,,,,,,,,,,,,,,,,,,,,,,,,,217.4088552000176,217.4220745000057,217.4220745000057,218.3232671000005,b,1.0,0.8974529999832157,,,,,,sub-028,1,stroop_test,60.06099794901615,
,,,,6.0,6.0,0.0,,,,,,,,,,,,,gelb,red,r,0.0,r,1.0,1.039979699999094,,,,,,,,,,0.0,6.0,6.0,8.0,218.3388976000133,,,,,,,,,,,,,,,,,218.32355790000287,218.43894069999808,219.23923500001547,219.22301290000905,,,,,,,,,,,,,,,,,,,,,,,,,,,,,,,,,,,219.2259726000193,219.23923500001547,219.23923500001547,220.2902191000176,r,1.0,1.039979699999094,,,,,,sub-028,1,stroop_test,60.06099794901615,
,,,,7.0,7.0,0.0,,,,,,,,,,,,,blau,blue,b,1.0,b,1.0,0.6475293000112288,,,,,,,,,,0.0,7.0,7.0,6.0,220.30470880001667,,,,,,,,,,,,,,,,,220.29058240001905,220.65488529999857,221.4549242000212,221.43891200001235,,,,,,,,,,,,,,,,,,,,,,,,,,,,,,,,,,,221.44210980000207,221.4549242000212,221.4549242000212,222.10596330001133,b,1.0,0.6475293000112288,,,,,,sub-028,1,stroop_test,60.06099794901615,
,,,,8.0,8.0,0.0,,,,,,,,,,,,,gelb,yellow,g,1.0,g,1.0,0.5378254999814089,,,,,,,,,,0.0,8.0,8.0,10.0,222.1209346000105,,,,,,,,,,,,,,,,,222.1063443000021,223.3046500000055,224.10537240002304,224.0886499000189,,,,,,,,,,,,,,,,,,,,,,,,,,,,,,,,,,,224.09280160002527,224.10537240002304,224.10537240002304,224.65583790000528,g,1.0,0.5378254999814089,,,,,,sub-028,1,stroop_test,60.06099794901615,
,,,,9.0,9.0,0.0,,,,,,,,,,,,,blau,yellow,g,0.0,g,1.0,0.6878004999889527,,,,,,,,,,0.0,9.0,9.0,7.0,224.6713795000105,,,,,,,,,,,,,,,,,224.6561219000141,225.8711745000037,226.6704344000027,226.65489410000737,,,,,,,,,,,,,,,,,,,,,,,,,,,,,,,,,,,226.6577771000157,226.6704344000027,226.6704344000027,227.3716725000122,g,1.0,0.6878004999889527,,,,,,sub-028,1,stroop_test,60.06099794901615,
,,,,10.0,10.0,0.0,,,,,,,,,,,,,rot,red,r,1.0,r,1.0,1.2817384999943895,,,,,,,,,,0.0,10.0,10.0,0.0,227.3875279000204,,,,,,,,,,,,,,,,,227.37202370000887,228.18688300001668,228.9873826999974,228.9710247000039,,,,,,,,,,,,,,,,,,,,,,,,,,,,,,,,,,,228.97387080002227,228.9873826999974,228.9873826999974,230.2715969000128,r,1.0,1.2817384999943895,,,,,,sub-028,1,stroop_test,60.06099794901615,
,,,,11.0,11.0,0.0,,,,,,,,,,,,,blau,blue,b,1.0,b,1.0,0.703520999988541,,,,,,,,,,0.0,11.0,11.0,5.0,230.2871117000177,,,,,,,,,,,,,,,,,230.27193080002328,230.62000950000947,231.4200514999975,231.40403950001928,,,,,,,,,,,,,,,,,,,,,,,,,,,,,,,,,,,231.40683590000845,231.4200514999975,231.4200514999975,232.1378527000197,b,1.0,0.703520999988541,,,,,,sub-028,1,stroop_test,60.06099794901615,
,,,,12.0,0.0,1.0,,,,,,,,,,,,,rot,yellow,g,0.0,g,1.0,1.1648160000040662,,,,,,,,,,1.0,0.0,12.0,3.0,232.1535652000166,,,,,,,,,,,,,,,,,232.1381184000056,232.48653270001523,233.28648520002025,233.2704681000032,,,,,,,,,,,,,,,,,,,,,,,,,,,,,,,,,,,233.27359769999748,233.28648520002025,233.28648520002025,234.45488890001437,g,1.0,1.1648160000040662,,,,,,sub-028,1,stroop_test,60.06099794901615,
,,,,13.0,1.0,1.0,,,,,,,,,,,,,blau,red,r,0.0,r,1.0,1.0630787999834863,,,,,,,,,,1.0,1.0,13.0,4.0,234.4695442000229,,,,,,,,,,,,,,,,,234.45515310001792,234.5694204000174,235.3693382000201,235.3541194999998,,,,,,,,,,,,,,,,,,,,,,,,,,,,,,,,,,,235.35741870000493,235.3693382000201,235.3693382000201,236.43795089999912,r,1.0,1.0630787999834863,,,,,,sub-028,1,stroop_test,60.06099794901615,
,,,,14.0,2.0,1.0,,,,,,,,,,,,,gelb,yellow,g,1.0,g,1.0,1.0586528000130784,,,,,,,,,,1.0,2.0,14.0,11.0,236.45301690002088,,,,,,,,,,,,,,,,,236.43825070001185,237.6529378000123,238.4522404000163,238.4361713000108,,,,,,,,,,,,,,,,,,,,,,,,,,,,,,,,,,,238.43884889999757,238.4522404000163,238.4522404000163,239.5208611999988,g,1.0,1.0586528000130784,,,,,,sub-028,1,stroop_test,60.06099794901615,
,,,,15.0,3.0,1.0,,,,,,,,,,,,,gelb,red,r,0.0,r,1.0,1.036102000012761,,,,,,,,,,1.0,3.0,15.0,8.0,239.5355322000105,,,,,,,,,,,,,,,,,239.5211552999972,240.3352089000109,241.1353606000193,241.11949579999785,,,,,,,,,,,,,,,,,,,,,,,,,,,,,,,,,,,241.11997300002255,241.1353606000193,241.1353606000193,242.1871802000096,r,1.0,1.036102000012761,,,,,,sub-028,1,stroop_test,60.06099794901615,
,,,,16.0,4.0,1.0,,,,,,,,,,,,,rot,red,r,1.0,r,1.0,1.2569056999927852,,,,,,,,,,1.0,4.0,16.0,1.0,242.20186920001288,,,,,,,,,,,,,,,,,242.18762540002356,242.30198099999689,243.10186670001715,243.08573300001444,,,,,,,,,,,,,,,,,,,,,,,,,,,,,,,,,,,243.08917350001863,243.10186670001715,243.10186670001715,244.36950950001483,r,1.0,1.2569056999927852,,,,,,sub-028,1,stroop_test,60.06099794901615,
,,,,17.0,5.0,1.0,,,,,,,,,,,,,blau,yellow,g,0.0,g,1.0,0.96503799999482,,,,,,,,,,1.0,5.0,17.0,7.0,244.385238900024,,,,,,,,,,,,,,,,,244.3697758000053,245.568190400023,246.3681445000111,246.3521009000251,,,,,,,,,,,,,,,,,,,,,,,,,,,,,,,,,,,246.35502330001327,246.3681445000111,246.3681445000111,247.3366356000188,g,1.0,0.96503799999482,,,,,,sub-028,1,stroop_test,60.06099794901615,
,,,,18.0,6.0,1.0,,,,,,,,,,,,,gelb,blue,b,0.0,b,1.0,0.7157875999982934,,,,,,,,,,1.0,6.0,18.0,9.0,247.3516192000243,,,,,,,,,,,,,,,,,247.33698520000328,247.7020856000017,248.50129230000312,248.48569329999737,,,,,,,,,,,,,,,,,,,,,,,,,,,,,,,,,,,248.48823509999784,248.50129230000312,248.50129230000312,249.21898170001805,b,1.0,0.7157875999982934,,,,,,sub-028,1,stroop_test,60.06099794901615,
,,,,19.0,7.0,1.0,,,,,,,,,,,,,blau,blue,b,1.0,b,1.0,0.5970500999828801,,,,,,,,,,1.0,7.0,19.0,6.0,249.23493580002105,,,,,,,,,,,,,,,,,249.21924370000488,249.58435600000664,250.384155000007,250.36875880000295,,,,,,,,,,,,,,,,,,,,,,,,,,,,,,,,,,,250.3715800000064,250.384155000007,250.384155000007,250.9854558000225,b,1.0,0.5970500999828801,,,,,,sub-028,1,stroop_test,60.06099794901615,
,,,,20.0,8.0,1.0,,,,,,,,,,,,,rot,red,r,1.0,r,1.0,0.8005369000020437,,,,,,,,,,1.0,8.0,20.0,0.0,251.00135720000253,,,,,,,,,,,,,,,,,250.98582920001357,252.20065350001096,253.00123400002485,252.98483480000868,,,,,,,,,,,,,,,,,,,,,,,,,,,,,,,,,,,252.9884176000196,253.00123400002485,253.00123400002485,253.81866460002493,r,1.0,0.8005369000020437,,,,,,sub-028,1,stroop_test,60.06099794901615,
,,,,21.0,9.0,1.0,,,,,,,,,,,,,blau,blue,b,1.0,b,1.0,0.7146109000022989,,,,,,,,,,1.0,9.0,21.0,5.0,253.8336692000157,,,,,,,,,,,,,,,,,253.8189539000159,253.9168775000144,254.71694480002043,254.70150480000305,,,,,,,,,,,,,,,,,,,,,,,,,,,,,,,,,,,254.70435740001267,254.71694480002043,254.71694480002043,255.43543569999747,b,1.0,0.7146109000022989,,,,,,sub-028,1,stroop_test,60.06099794901615,
,,,,22.0,10.0,1.0,,,,,,,,,,,,,rot,blue,b,0.0,b,1.0,0.5753185000212397,,,,,,,,,,1.0,10.0,22.0,2.0,255.4508177000098,,,,,,,,,,,,,,,,,255.43579150000005,255.7999960000161,256.60034840001026,256.58407790001365,,,,,,,,,,,,,,,,,,,,,,,,,,,,,,,,,,,256.5873279000225,256.60034840001026,256.60034840001026,257.1846544000145,b,1.0,0.5753185000212397,,,,,,sub-028,1,stroop_test,60.06099794901615,
,,,,23.0,11.0,1.0,,,,,,,,,,,,,gelb,yellow,g,1.0,g,1.0,0.5672025000094436,,,,,,,,,,1.0,11.0,23.0,10.0,257.2007294000068,,,,,,,,,,,,,,,,,257.1849839000206,258.0007961000083,258.7996764999989,258.78428970000823,,,,,,,,,,,,,,,,,,,,,,,,,,,,,,,,,,,258.78670870000497,258.7996764999989,258.7996764999989,259.3681803000218,g,1.0,0.5672025000094436,,,,,,sub-028,1,stroop_test,60.06099794901615,
,,,,24.0,0.0,2.0,,,,,,,,,,,,,gelb,yellow,g,1.0,g,1.0,0.50318219998735,,,,,,,,,,2.0,0.0,24.0,10.0,259.3832575000124,,,,,,,,,,,,,,,,,259.36848590002046,259.73305930002243,260.53283950002515,260.5172700000112,,,,,,,,,,,,,,,,,,,,,,,,,,,,,,,,,,,260.5176677000127,260.53283950002515,260.53283950002515,261.0507864000101,g,1.0,0.50318219998735,,,,,,sub-028,1,stroop_test,60.06099794901615,
,,,,25.0,1.0,2.0,,,,,,,,,,,,,rot,red,r,1.0,r,1.0,0.415681799990125,,,,,,,,,,2.0,1.0,25.0,1.0,261.06670080000185,,,,,,,,,,,,,,,,,261.0511018000252,261.4163646000088,262.2162432000041,262.2001173000026,,,,,,,,,,,,,,,,,,,,,,,,,,,,,,,,,,,262.2029915000021,262.2162432000041,262.2162432000041,262.63547390000895,r,1.0,0.415681799990125,,,,,,sub-028,1,stroop_test,60.06099794901615,
,,,,26.0,2.0,2.0,,,,,,,,,,,,,gelb,yellow,g,1.0,g,1.0,0.7142098000040278,,,,,,,,,,2.0,2.0,26.0,11.0,262.6491959000123,,,,,,,,,,,,,,,,,262.63624069999787,262.7492180000117,263.55032030001166,263.5332882000075,,,,,,,,,,,,,,,,,,,,,,,,,,,,,,,,,,,263.5389099000022,263.55032030001166,263.55032030001166,264.26723470000434,g,1.0,0.7142098000040278,,,,,,sub-028,1,stroop_test,60.06099794901615,
,,,,27.0,3.0,2.0,,,,,,,,,,,,,blau,blue,b,1.0,b,1.0,0.7291838000237476,,,,,,,,,,2.0,3.0,27.0,6.0,264.2820668000204,,,,,,,,,,,,,,,,,264.26759250002215,265.4821156000253,266.2822292000056,266.2662670999998,,,,,,,,,,,,,,,,,,,,,,,,,,,,,,,,,,,266.269804200012,266.2822292000056,266.2822292000056,267.01748510001926,b,1.0,0.7291838000237476,,,,,,sub-028,1,stroop_test,60.06099794901615,
,,,,28.0,4.0,2.0,,,,,,,,,,,,,rot,blue,b,0.0,b,1.0,0.8896960999991279,,,,,,,,,,2.0,4.0,28.0,2.0,267.0324107000197,,,,,,,,,,,,,,,,,267.01782100001583,267.13238830000046,267.93179240002064,267.9163047000184,,,,,,,,,,,,,,,,,,,,,,,,,,,,,,,,,,,267.9193113000074,267.93179240002064,267.93179240002064,268.8344868000131,b,1.0,0.8896960999991279,,,,,,sub-028,1,stroop_test,60.06099794901615,
,,,,29.0,5.0,2.0,,,,,,,,,,,,,blau,yellow,g,0.0,g,1.0,1.0229868000023998,,,,,,,,,,2.0,5.0,29.0,7.0,268.849944000016,,,,,,,,,,,,,,,,,268.83503680001013,269.19837520000874,269.9994835999969,269.98240670000087,,,,,,,,,,,,,,,,,,,,,,,,,,,,,,,,,,,269.9858130000066,269.9994835999969,269.9994835999969,271.032660900004,g,1.0,1.0229868000023998,,,,,,sub-028,1,stroop_test,60.06099794901615,
,,,,30.0,6.0,2.0,,,,,,,,,,,,,gelb,blue,b,0.0,g,0.0,0.8011734000174329,,,,,,,,,,2.0,6.0,30.0,9.0,271.048036400025,,,,,,,,,,,,,,,,,271.03311140000005,271.1488000000245,271.9490168000048,271.9319102000154,,,,,,,,,,,,,,,,,,,,,,,,,,,,,,,,,,,271.93440220001503,271.9490168000048,271.9490168000048,272.76554980000947,g,0.0,0.8011734000174329,,,,,,sub-028,1,stroop_test,60.06099794901615,
,,,,31.0,7.0,2.0,,,,,,,,,,,,,blau,blue,b,1.0,b,1.0,0.8712713999848347,,,,,,,,,,2.0,7.0,31.0,5.0,272.78148659999715,,,,,,,,,,,,,,,,,272.76584170002025,273.5655757000204,274.3649138000037,274.3493634000188,,,,,,,,,,,,,,,,,,,,,,,,,,,,,,,,,,,274.352623600018,274.3649138000037,274.3649138000037,275.24896680001984,b,1.0,0.8712713999848347,,,,,,sub-028,1,stroop_test,60.06099794901615,
,,,,32.0,8.0,2.0,,,,,,,,,,,,,rot,red,r,1.0,r,1.0,0.7873638999881223,,,,,,,,,,2.0,8.0,32.0,0.0,275.2648685000022,,,,,,,,,,,,,,,,,275.2492625000013,276.4640492000035,277.2637391000171,277.2477788999968,,,,,,,,,,,,,,,,,,,,,,,,,,,,,,,,,,,277.2510465000232,277.2637391000171,277.2637391000171,278.0653779999993,r,1.0,0.7873638999881223,,,,,,sub-028,1,stroop_test,60.06099794901615,
,,,,33.0,9.0,2.0,,,,,,,,,,,,,gelb,red,r,0.0,r,1.0,0.8160787000088021,,,,,,,,,,2.0,9.0,33.0,8.0,278.0811769000138,,,,,,,,,,,,,,,,,278.06571970001096,278.181018400006,278.98039070001687,278.9646868999989,,,,,,,,,,,,,,,,,,,,,,,,,,,,,,,,,,,278.9678429000196,278.98039070001687,278.98039070001687,279.7984967000084,r,1.0,0.8160787000088021,,,,,,sub-028,1,stroop_test,60.06099794901615,
,,,,34.0,10.0,2.0,,,,,,,,,,,,,blau,red,r,0.0,r,1.0,0.7956826000008732,,,,,,,,,,2.0,10.0,34.0,4.0,279.81380390000413,,,,,,,,,,,,,,,,,279.79875970000285,280.14750160000403,280.94686680001905,280.9309062000248,,,,,,,,,,,,,,,,,,,,,,,,,,,,,,,,,,,280.9337981000135,280.94686680001905,280.94686680001905,281.7483897000202,r,1.0,0.7956826000008732,,,,,,sub-028,1,stroop_test,60.06099794901615,
,,,,35.0,11.0,2.0,,,,,,,,,,,,,rot,yellow,g,0.0,g,1.0,0.6057130999979563,,,,,,,,,,2.0,11.0,35.0,3.0,281.76385470002424,,,,,,,,,,,,,,,,,281.7487389000016,281.84712489999947,282.6473401999974,282.6307448000007,,,,,,,,,,,,,,,,,,,,,,,,,,,,,,,,,,,282.6337524999981,282.6473401999974,282.6473401999974,283.264493100025,g,1.0,0.6057130999979563,,,,,,sub-028,1,stroop_test,60.06099794901615,
,,,,36.0,0.0,3.0,,,,,,,,,,,,,gelb,red,r,0.0,r,1.0,0.7144643000210635,,,,,,,,,,3.0,0.0,36.0,8.0,283.2799338000186,,,,,,,,,,,,,,,,,283.2648128000146,284.4796162999992,285.2796365999966,285.2636812000128,,,,,,,,,,,,,,,,,,,,,,,,,,,,,,,,,,,285.26639150001574,285.2796365999966,285.2796365999966,285.99804210002185,r,1.0,0.7144643000210635,,,,,,sub-028,1,stroop_test,60.06099794901615,
,,,,37.0,1.0,3.0,,,,,,,,,,,,,blau,yellow,g,0.0,g,1.0,1.010300599999027,,,,,,,,,,3.0,1.0,37.0,7.0,286.01322930000606,,,,,,,,,,,,,,,,,285.9983054000186,286.11271740001393,286.9136509000091,286.8975418000191,,,,,,,,,,,,,,,,,,,,,,,,,,,,,,,,,,,286.90210430001025,286.9136509000091,286.9136509000091,287.931287000014,g,1.0,1.010300599999027,,,,,,sub-028,1,stroop_test,60.06099794901615,
,,,,38.0,2.0,3.0,,,,,,,,,,,,,rot,yellow,g,0.0,g,1.0,0.8990205000154674,,,,,,,,,,3.0,2.0,38.0,3.0,287.94623530001263,,,,,,,,,,,,,,,,,287.9316189000092,288.29575300001306,289.0958486000018,289.0795541999978,,,,,,,,,,,,,,,,,,,,,,,,,,,,,,,,,,,289.08273850000114,289.0958486000018,289.0958486000018,289.99721880001016,g,1.0,0.8990205000154674,,,,,,sub-028,1,stroop_test,60.06099794901615,
,,,,39.0,3.0,3.0,,,,,,,,,,,,,blau,red,r,0.0,r,1.0,0.8662768000212964,,,,,,,,,,3.0,3.0,39.0,4.0,290.012129300012,,,,,,,,,,,,,,,,,289.9977359000186,290.09599670002353,290.896613000019,290.8797649000189,,,,,,,,,,,,,,,,,,,,,,,,,,,,,,,,,,,290.8845491000102,290.896613000019,290.896613000019,291.765160800016,r,1.0,0.8662768000212964,,,,,,sub-028,1,stroop_test,60.06099794901615,
,,,,40.0,4.0,3.0,,,,,,,,,,,,,rot,blue,b,0.0,b,1.0,0.5939369999978226,,,,,,,,,,3.0,4.0,40.0,2.0,291.7797526000068,,,,,,,,,,,,,,,,,291.7657539000211,292.9793314000126,293.78195960001904,293.76347930001793,,,,,,,,,,,,,,,,,,,,,,,,,,,,,,,,,,,293.7692170000228,293.78195960001904,293.78195960001904,294.3794617000094,b,1.0,0.5939369999978226,,,,,,sub-028,1,stroop_test,60.06099794901615,
,,,,41.0,5.0,3.0,,,,,,,,,,,,,blau,blue,b,1.0,b,1.0,0.5588883000018541,,,,,,,,,,3.0,5.0,41.0,5.0,294.394772700005,,,,,,,,,,,,,,,,,294.37996869999915,294.4947746999969,295.2950279000215,295.2787551000074,,,,,,,,,,,,,,,,,,,,,,,,,,,,,,,,,,,295.2819670000172,295.2950279000215,295.2950279000215,295.86231190001126,b,1.0,0.5588883000018541,,,,,,sub-028,1,stroop_test,60.06099794901615,
,,,,42.0,6.0,3.0,,,,,,,,,,,,,rot,red,r,1.0,r,1.0,0.8326837999920826,,,,,,,,,,3.0,6.0,42.0,1.0,295.8784089999972,,,,,,,,,,,,,,,,,295.8626281000033,297.07801210001344,297.878411600017,297.8628961000068,,,,,,,,,,,,,,,,,,,,,,,,,,,,,,,,,,,297.86668030000874,297.878411600017,297.878411600017,298.71278160001384,r,1.0,0.8326837999920826,,,,,,sub-028,1,stroop_test,60.06099794901615,
,,,,43.0,7.0,3.0,,,,,,,,,,,,,gelb,blue,b,0.0,b,1.0,0.7234653999912553,,,,,,,,,,3.0,7.0,43.0,9.0,298.7278703000047,,,,,,,,,,,,,,,,,298.7130811000243,299.9275119000231,300.7276378000097,300.71151740002097,,,,,,,,,,,,,,,,,,,,,,,,,,,,,,,,,,,300.715306099999,300.7276378000097,300.7276378000097,301.4618663000001,b,1.0,0.7234653999912553,,,,,,sub-028,1,stroop_test,60.06099794901615,
,,,,44.0,8.0,3.0,,,,,,,,,,,,,gelb,yellow,g,1.0,g,1.0,1.0888881999999285,,,,,,,,,,3.0,8.0,44.0,10.0,301.4771209000028,,,,,,,,,,,,,,,,,301.4622074000072,302.6770715000166,303.4768536000047,303.46135860000504,,,,,,,,,,,,,,,,,,,,,,,,,,,,,,,,,,,303.46188170000096,303.4768536000047,303.4768536000047,304.5783926000004,g,1.0,1.0888881999999285,,,,,,sub-028,1,stroop_test,60.06099794901615,
,,,,45.0,9.0,3.0,,,,,,,,,,,,,rot,red,r,1.0,r,1.0,0.7336641000001691,,,,,,,,,,3.0,9.0,45.0,0.0,304.59335300000384,,,,,,,,,,,,,,,,,304.5787051000225,305.7931631000247,306.5931790000177,306.5773830000253,,,,,,,,,,,,,,,,,,,,,,,,,,,,,,,,,,,306.5808323000092,306.5931790000177,306.5931790000177,307.32797559999744,r,1.0,0.7336641000001691,,,,,,sub-028,1,stroop_test,60.06099794901615,
,,,,46.0,10.0,3.0,,,,,,,,,,,,,gelb,yellow,g,1.0,g,1.0,0.6759513000142761,,,,,,,,,,3.0,10.0,46.0,11.0,307.3444465000066,,,,,,,,,,,,,,,,,307.3282749000064,307.67687940000906,308.47911700000986,308.4607553000096,,,,,,,,,,,,,,,,,,,,,,,,,,,,,,,,,,,308.4676062000217,308.47911700000986,308.47911700000986,309.1631953000033,g,1.0,0.6759513000142761,,,,,,sub-028,1,stroop_test,60.06099794901615,
,,,,47.0,11.0,3.0,,,,,,,,,,,,,blau,blue,b,1.0,b,1.0,0.7219608000013977,,,,,,,,,,3.0,11.0,47.0,6.0,309.17802250001114,,,,,,,,,,,,,,,,,309.1638855000201,310.3768960000016,311.1762249000021,311.16091649999726,,,,,,,,,,,,,,,,,,,,,,,,,,,,,,,,,,,311.1641474000062,311.1762249000021,311.1762249000021,311.9105769000016,b,1.0,0.7219608000013977,,,,,,sub-028,1,stroop_test,60.06099794901615,
,,,,48.0,0.0,4.0,,,,,,,,,,,,,rot,yellow,g,0.0,g,1.0,1.1715349000005515,,,,,,,,,,4.0,0.0,48.0,3.0,311.92653920000885,,,,,,,,,,,,,,,,,311.91085290000774,312.009644100006,312.8098144000105,312.79355410000426,,,,,,,,,,,,,,,,,,,,,,,,,,,,,,,,,,,312.79694210001617,312.8098144000105,312.8098144000105,313.9938938000123,g,1.0,1.1715349000005515,,,,,,sub-028,1,stroop_test,60.06099794901615,
,,,,49.0,1.0,4.0,,,,,,,,,,,,,rot,red,r,1.0,r,1.0,0.4614979999896604,,,,,,,,,,4.0,1.0,49.0,0.0,314.01009950001026,,,,,,,,,,,,,,,,,313.9942358999979,314.8091665000248,315.60904630000005,315.5937482000154,,,,,,,,,,,,,,,,,,,,,,,,,,,,,,,,,,,315.5943451000203,315.60904630000005,315.60904630000005,316.07761619999656,r,1.0,0.4614979999896604,,,,,,sub-028,1,stroop_test,60.06099794901615,
,,,,50.0,2.0,4.0,,,,,,,,,,,,,rot,blue,b,0.0,b,1.0,0.7094681999878958,,,,,,,,,,4.0,2.0,50.0,2.0,316.0932243000134,,,,,,,,,,,,,,,,,316.0781222000078,317.29207940000924,318.0924271999975,318.0763685000129,,,,,,,,,,,,,,,,,,,,,,,,,,,,,,,,,,,318.07678240002133,318.0924271999975,318.0924271999975,318.8103555999988,b,1.0,0.7094681999878958,,,,,,sub-028,1,stroop_test,60.06099794901615,
,,,,51.0,3.0,4.0,,,,,,,,,,,,,blau,yellow,g,0.0,g,1.0,0.6987332999997307,,,,,,,,,,4.0,3.0,51.0,7.0,318.82561440000427,,,,,,,,,,,,,,,,,318.8108825000236,319.6254233000218,320.42564610001864,320.4097047999967,,,,,,,,,,,,,,,,,,,,,,,,,,,,,,,,,,,320.4125021000218,320.42564610001864,320.42564610001864,321.1272851999965,g,1.0,0.6987332999997307,,,,,,sub-028,1,stroop_test,60.06099794901615,
,,,,52.0,4.0,4.0,,,,,,,,,,,,,gelb,yellow,g,1.0,g,1.0,0.7165101999999024,,,,,,,,,,4.0,4.0,52.0,10.0,321.14223910000874,,,,,,,,,,,,,,,,,321.12784430000465,321.49153640001896,322.2933724000177,322.27640729999985,,,,,,,,,,,,,,,,,,,,,,,,,,,,,,,,,,,322.281566700025,322.2933724000177,322.2933724000177,323.026115900022,g,1.0,0.7165101999999024,,,,,,sub-028,1,stroop_test,60.06099794901615,
,,,,53.0,5.0,4.0,,,,,,,,,,,,,gelb,red,r,0.0,r,1.0,0.9834370000171476,,,,,,,,,,4.0,5.0,53.0,8.0,323.04205220000586,,,,,,,,,,,,,,,,,323.0264969000127,324.2410396000196,325.04195730001084,325.0255495000165,,,,,,,,,,,,,,,,,,,,,,,,,,,,,,,,,,,325.0260149000096,325.04195730001084,325.04195730001084,326.04201780000585,r,1.0,0.9834370000171476,,,,,,sub-028,1,stroop_test,60.06099794901615,
,,,,54.0,6.0,4.0,,,,,,,,,,,,,gelb,blue,b,0.0,b,1.0,0.770332399988547,,,,,,,,,,4.0,6.0,54.0,9.0,326.0577627000166,,,,,,,,,,,,,,,,,326.04232649999904,326.4075899000163,327.20845310000004,327.1926035000069,,,,,,,,,,,,,,,,,,,,,,,,,,,,,,,,,,,327.19328710000264,327.20845310000004,327.20845310000004,327.9917725000123,b,1.0,0.770332399988547,,,,,,sub-028,1,stroop_test,60.06099794901615,
,,,,55.0,7.0,4.0,,,,,,,,,,,,,blau,blue,b,1.0,b,1.0,0.5193552999990061,,,,,,,,,,4.0,7.0,55.0,6.0,328.0073918999988,,,,,,,,,,,,,,,,,327.99208360002376,329.207230400003,330.0110913000244,329.99214490002487,,,,,,,,,,,,,,,,,,,,,,,,,,,,,,,,,,,329.99948480000603,330.0110913000244,330.0110913000244,330.54282580001745,b,1.0,0.5193552999990061,,,,,,sub-028,1,stroop_test,60.06099794901615,
,,,,56.0,8.0,4.0,,,,,,,,,,,,,rot,red,r,1.0,r,1.0,0.5584763000078965,,,,,,,,,,4.0,8.0,56.0,1.0,330.5571130000171,,,,,,,,,,,,,,,,,330.5431736000173,331.3573429000098,332.1571882000135,332.1408659000008,,,,,,,,,,,,,,,,,,,,,,,,,,,,,,,,,,,332.1444623999996,332.1571882000135,332.1571882000135,332.72471070001484,r,1.0,0.5584763000078965,,,,,,sub-028,1,stroop_test,60.06099794901615,
,,,,57.0,9.0,4.0,,,,,,,,,,,,,blau,red,r,0.0,r,1.0,0.959951099997852,,,,,,,,,,4.0,9.0,57.0,4.0,332.73999360000016,,,,,,,,,,,,,,,,,332.7250081000093,333.0748355000105,333.88999409999815,333.8744497000007,,,,,,,,,,,,,,,,,,,,,,,,,,,,,,,,,,,333.8776737000153,333.88999409999815,333.88999409999815,334.85759690002305,r,1.0,0.959951099997852,,,,,,sub-028,1,stroop_test,60.06099794901615,
,,,,58.0,10.0,4.0,,,,,,,,,,,,,blau,blue,b,1.0,b,1.0,0.620651099976385,,,,,,,,,,4.0,10.0,58.0,5.0,334.87352540000575,,,,,,,,,,,,,,,,,334.8578579000023,336.0735002000001,336.87259990000166,336.85733720002463,,,,,,,,,,,,,,,,,,,,,,,,,,,,,,,,,,,336.8577481000102,336.87259990000166,336.87259990000166,337.5074384000036,b,1.0,0.620651099976385,,,,,,sub-028,1,stroop_test,60.06099794901615,
,,,,59.0,11.0,4.0,,,,,,,,,,,,,gelb,yellow,g,1.0,g,1.0,0.9337373999878764,,,,,,,,,,4.0,11.0,59.0,11.0,337.52358639999875,,,,,,,,,,,,,,,,,337.5077150000143,337.62258360002306,338.42243060001056,338.40740480000386,,,,,,,,,,,,,,,,,,,,,,,,,,,,,,,,,,,338.410924900003,338.42243060001056,338.42243060001056,339.3581914000097,g,1.0,0.9337373999878764,,,,,,sub-028,1,stroop_test,60.06099794901615,
,,,,60.0,0.0,5.0,,,,,,,,,,,,,rot,yellow,g,0.0,g,1.0,1.366361499996856,,,,,,,,,,5.0,0.0,60.0,3.0,339.3732557000185,,,,,,,,,,,,,,,,,339.35856610001065,339.472772100009,340.27332950002165,340.2570896000252,,,,,,,,,,,,,,,,,,,,,,,,,,,,,,,,,,,340.2609218000144,340.27332950002165,340.27332950002165,341.65681539999787,g,1.0,1.366361499996856,,,,,,sub-028,1,stroop_test,60.06099794901615,
,,,,61.0,1.0,5.0,,,,,,,,,,,,,rot,blue,b,0.0,b,1.0,0.8536665000137873,,,,,,,,,,5.0,1.0,61.0,2.0,341.67211159999715,,,,,,,,,,,,,,,,,341.657080200006,341.77313050001976,342.57282329999725,342.5576437000127,,,,,,,,,,,,,,,,,,,,,,,,,,,,,,,,,,,342.55826400002115,342.57282329999725,342.57282329999725,343.44060590001754,b,1.0,0.8536665000137873,,,,,,sub-028,1,stroop_test,60.06099794901615,
,,,,62.0,2.0,5.0,,,,,,,,,,,,,rot,red,r,1.0,r,1.0,0.4500160000170581,,,,,,,,,,5.0,2.0,62.0,0.0,343.4556978000037,,,,,,,,,,,,,,,,,343.441126300022,344.6558084000135,345.4553920000035,345.43952130002435,,,,,,,,,,,,,,,,,,,,,,,,,,,,,,,,,,,345.43986750001204,345.4553920000035,345.4553920000035,345.9067338000168,r,1.0,0.4500160000170581,,,,,,sub-028,1,stroop_test,60.06099794901615,
,,,,63.0,3.0,5.0,,,,,,,,,,,,,gelb,blue,b,0.0,g,0.0,0.9681020999851172,,,,,,,,,,5.0,3.0,63.0,9.0,345.92227979999734,,,,,,,,,,,,,,,,,345.90703510001185,346.0219811999996,346.82230250001885,346.80603380000684,,,,,,,,,,,,,,,,,,,,,,,,,,,,,,,,,,,346.8084991000069,346.82230250001885,346.82230250001885,347.80598490001285,g,0.0,0.9681020999851172,,,,,,sub-028,1,stroop_test,60.06099794901615,
,,,,64.0,4.0,5.0,,,,,,,,,,,,,blau,yellow,g,0.0,g,1.0,1.107049599988386,,,,,,,,,,5.0,4.0,64.0,7.0,347.82229140002164,,,,,,,,,,,,,,,,,347.8062463000242,347.90531280002324,348.7047783000162,348.6887817000097,,,,,,,,,,,,,,,,,,,,,,,,,,,,,,,,,,,348.69198100001086,348.7047783000162,348.7047783000162,349.8222346999973,g,1.0,1.107049599988386,,,,,,sub-028,1,stroop_test,60.06099794901615,
,,,,65.0,5.0,5.0,,,,,,,,,,,,,blau,blue,b,1.0,b,1.0,0.7931387000135146,,,,,,,,,,5.0,5.0,65.0,5.0,349.83789950000937,,,,,,,,,,,,,,,,,349.82252790001803,350.63831760000903,351.4377672999981,351.422295700002,,,,,,,,,,,,,,,,,,,,,,,,,,,,,,,,,,,351.4229733000102,351.4377672999981,351.4377672999981,352.2386277000187,b,1.0,0.7931387000135146,,,,,,sub-028,1,stroop_test,60.06099794901615,
,,,,66.0,6.0,5.0,,,,,,,,,,,,,gelb,yellow,g,1.0,g,1.0,1.1218794000160417,,,,,,,,,,5.0,6.0,66.0,11.0,352.2540662000247,,,,,,,,,,,,,,,,,352.23897090001265,353.0541357000184,353.85418300001766,353.8380301000143,,,,,,,,,,,,,,,,,,,,,,,,,,,,,,,,,,,353.84047000002465,353.85418300001766,353.85418300001766,354.98823460002313,g,1.0,1.1218794000160417,,,,,,sub-028,1,stroop_test,60.06099794901615,
,,,,67.0,7.0,5.0,,,,,,,,,,,,,blau,blue,b,1.0,b,1.0,0.7345579999964684,,,,,,,,,,5.0,7.0,67.0,6.0,355.00452580000274,,,,,,,,,,,,,,,,,354.98853080000845,355.105332600011,355.92099060001783,355.90441940000164,,,,,,,,,,,,,,,,,,,,,,,,,,,,,,,,,,,355.9073406000098,355.92099060001783,355.92099060001783,356.67207560001407,b,1.0,0.7345579999964684,,,,,,sub-028,1,stroop_test,60.06099794901615,
,,,,68.0,8.0,5.0,,,,,,,,,,,,,gelb,red,r,0.0,r,1.0,1.0512545999954457,,,,,,,,,,5.0,8.0,68.0,8.0,356.6870539000083,,,,,,,,,,,,,,,,,356.67237549999845,356.77107490002527,357.5704158000008,357.5542715000047,,,,,,,,,,,,,,,,,,,,,,,,,,,,,,,,,,,357.5568654000235,357.5704158000008,357.5704158000008,358.6389557000075,r,1.0,1.0512545999954457,,,,,,sub-028,1,stroop_test,60.06099794901615,
,,,,69.0,9.0,5.0,,,,,,,,,,,,,rot,red,r,1.0,r,1.0,0.9650766999984626,,,,,,,,,,5.0,9.0,69.0,1.0,358.6537761000218,,,,,,,,,,,,,,,,,358.63933620002354,358.7539697000175,359.55364160001045,359.53809290000936,,,,,,,,,,,,,,,,,,,,,,,,,,,,,,,,,,,359.5408360000001,359.55364160001045,359.55364160001045,360.5214108000218,r,1.0,0.9650766999984626,,,,,,sub-028,1,stroop_test,60.06099794901615,
,,,,70.0,10.0,5.0,,,,,,,,,,,,,blau,red,r,0.0,r,1.0,1.4479040000005623,,,,,,,,,,5.0,10.0,70.0,4.0,360.53662749999785,,,,,,,,,,,,,,,,,360.5217387000157,361.73674660001416,362.5362411000242,362.5214565000206,,,,,,,,,,,,,,,,,,,,,,,,,,,,,,,,,,,362.5242305000138,362.5362411000242,362.5362411000242,363.9875535000174,r,1.0,1.4479040000005623,,,,,,sub-028,1,stroop_test,60.06099794901615,
,,,,71.0,11.0,5.0,,,,,,,,,,,,,gelb,yellow,g,1.0,g,1.0,0.7714579000021331,,,,,,,,,,5.0,11.0,71.0,10.0,364.0028604000108,,,,,,,,,,,,,,,,,363.9881257000088,364.1025902999973,364.9024338000163,364.8871899000078,,,,,,,,,,,,,,,,,,,,,,,,,,,,,,,,,,,364.8902832000167,364.9024338000163,364.9024338000163,365.6879372000112,g,1.0,0.7714579000021331,,,,,,sub-028,1,stroop_test,60.06099794901615,
,,,,72.0,0.0,6.0,,,,,,,,,,,,,blau,blue,b,1.0,b,1.0,0.5240912000008393,,,,,,,,,,6.0,0.0,72.0,5.0,365.7031106000068,,,,,,,,,,,,,,,,,365.688269300008,366.5029783000064,367.3025985000131,367.2863422000082,,,,,,,,,,,,,,,,,,,,,,,,,,,,,,,,,,,367.28912960001617,367.3025985000131,367.3025985000131,367.8367830000061,b,1.0,0.5240912000008393,,,,,,sub-028,1,stroop_test,60.06099794901615,
,,,,73.0,1.0,6.0,,,,,,,,,,,,,gelb,yellow,g,1.0,g,1.0,0.8812971000152174,,,,,,,,,,6.0,1.0,73.0,11.0,367.852289500006,,,,,,,,,,,,,,,,,367.8371092000161,367.9524541000137,368.75194909999846,368.7361847000138,,,,,,,,,,,,,,,,,,,,,,,,,,,,,,,,,,,368.73890490000485,368.75194909999846,368.75194909999846,369.6367897000164,g,1.0,0.8812971000152174,,,,,,sub-028,1,stroop_test,60.06099794901615,
,,,,74.0,2.0,6.0,,,,,,,,,,,,,rot,blue,b,0.0,b,1.0,0.8152080000145361,,,,,,,,,,6.0,2.0,74.0,2.0,369.6526459000015,,,,,,,,,,,,,,,,,369.6371561000124,369.752922100015,370.55281570000807,370.5365612000169,,,,,,,,,,,,,,,,,,,,,,,,,,,,,,,,,,,370.5415652000229,370.55281570000807,370.55281570000807,371.3702272000082,b,1.0,0.8152080000145361,,,,,,sub-028,1,stroop_test,60.06099794901615,
,,,,75.0,3.0,6.0,,,,,,,,,,,,,gelb,red,r,0.0,r,1.0,0.7989716999873053,,,,,,,,,,6.0,3.0,75.0,8.0,371.3853964000009,,,,,,,,,,,,,,,,,371.3705169000023,371.48500460002106,372.2848129000049,372.2691057000193,,,,,,,,,,,,,,,,,,,,,,,,,,,,,,,,,,,372.27171500000986,372.2848129000049,372.2848129000049,373.0864828000194,r,1.0,0.7989716999873053,,,,,,sub-028,1,stroop_test,60.06099794901615,
,,,,76.0,4.0,6.0,,,,,,,,,,,,,rot,red,r,1.0,r,1.0,0.8848711000173353,,,,,,,,,,6.0,4.0,76.0,1.0,373.1021327000053,,,,,,,,,,,,,,,,,373.08680820002337,373.2017961000092,374.0020151000063,373.9856956000149,,,,,,,,,,,,,,,,,,,,,,,,,,,,,,,,,,,373.9905878000136,374.0020151000063,374.0020151000063,374.9027736000135,r,1.0,0.8848711000173353,,,,,,sub-028,1,stroop_test,60.06099794901615,
,,,,77.0,5.0,6.0,,,,,,,,,,,,,rot,red,r,1.0,r,1.0,0.7503185000095982,,,,,,,,,,6.0,5.0,77.0,0.0,374.91797150002094,,,,,,,,,,,,,,,,,374.90313790002256,375.2678587000119,376.0678289000061,376.0524330000044,,,,,,,,,,,,,,,,,,,,,,,,,,,,,,,,,,,376.0529248000239,376.0678289000061,376.0678289000061,376.81959160001134,r,1.0,0.7503185000095982,,,,,,sub-028,1,stroop_test,60.06099794901615,
,,,,78.0,6.0,6.0,,,,,,,,,,,,,gelb,yellow,g,1.0,g,1.0,0.733615999983158,,,,,,,,,,6.0,6.0,78.0,10.0,376.8349694000208,,,,,,,,,,,,,,,,,376.82010179999634,376.934347900009,377.73453240000526,377.7185813000251,,,,,,,,,,,,,,,,,,,,,,,,,,,,,,,,,,,377.7221411000064,377.73453240000526,377.73453240000526,378.4854466000106,g,1.0,0.733615999983158,,,,,,sub-028,1,stroop_test,60.06099794901615,
,,,,79.0,7.0,6.0,,,,,,,,,,,,,rot,yellow,g,0.0,g,1.0,0.8658672000165097,,,,,,,,,,6.0,7.0,79.0,3.0,378.5011749000114,,,,,,,,,,,,,,,,,378.4857241999998,378.5848530000076,379.40073510000366,379.38461259999895,,,,,,,,,,,,,,,,,,,,,,,,,,,,,,,,,,,379.3876964000228,379.40073510000366,379.40073510000366,380.2694759000151,g,1.0,0.8658672000165097,,,,,,sub-028,1,stroop_test,60.06099794901615,
,,,,80.0,8.0,6.0,,,,,,,,,,,,,gelb,blue,b,0.0,b,1.0,0.7697996000060812,,,,,,,,,,6.0,8.0,80.0,9.0,380.2838251000212,,,,,,,,,,,,,,,,,380.26978800000506,381.08379560001777,381.8841297000181,381.8685631999979,,,,,,,,,,,,,,,,,,,,,,,,,,,,,,,,,,,381.8710140000039,381.8841297000181,381.8841297000181,382.66943560002255,b,1.0,0.7697996000060812,,,,,,sub-028,1,stroop_test,60.06099794901615,
,,,,81.0,9.0,6.0,,,,,,,,,,,,,blau,yellow,g,0.0,g,1.0,0.8481377999996766,,,,,,,,,,6.0,9.0,81.0,7.0,382.6840519999969,,,,,,,,,,,,,,,,,382.66983220001566,383.48379710002337,384.284126500017,384.2680777000205,,,,,,,,,,,,,,,,,,,,,,,,,,,,,,,,,,,384.2709102000226,384.284126500017,384.284126500017,385.1354931000096,g,1.0,0.8481377999996766,,,,,,sub-028,1,stroop_test,60.06099794901615,
,,,,82.0,10.0,6.0,,,,,,,,,,,,,blau,blue,b,1.0,b,1.0,0.7789336999994703,,,,,,,,,,6.0,10.0,82.0,6.0,385.1504506000201,,,,,,,,,,,,,,,,,385.1358593000041,385.50001129999873,386.2999478999991,386.28384800002095,,,,,,,,,,,,,,,,,,,,,,,,,,,,,,,,,,,386.2843095000135,386.2999478999991,386.2999478999991,387.0849771000212,b,1.0,0.7789336999994703,,,,,,sub-028,1,stroop_test,60.06099794901615,
,,,,83.0,11.0,6.0,,,,,,,,,,,,,blau,red,r,0.0,r,1.0,0.758502300013788,,,,,,,,,,6.0,11.0,83.0,4.0,387.0999031000247,,,,,,,,,,,,,,,,,387.0852648,387.4501476000005,388.24952120002126,388.2336767000088,,,,,,,,,,,,,,,,,,,,,,,,,,,,,,,,,,,388.2340957999986,388.24952120002126,388.24952120002126,389.0175012999971,r,1.0,0.758502300013788,,,,,,sub-028,1,stroop_test,60.06099794901615,
,,,,84.0,0.0,7.0,,,,,,,,,,,,,gelb,yellow,g,1.0,g,1.0,0.8311334000027273,,,,,,,,,,7.0,0.0,84.0,10.0,389.0327600000019,,,,,,,,,,,,,,,,,389.01777590002166,390.2327804000233,391.0332839000039,391.01696790001006,,,,,,,,,,,,,,,,,,,,,,,,,,,,,,,,,,,391.0210929000168,391.0332839000039,391.0332839000039,391.8677256000228,g,1.0,0.8311334000027273,,,,,,sub-028,1,stroop_test,60.06099794901615,
,,,,85.0,1.0,7.0,,,,,,,,,,,,,gelb,yellow,g,1.0,g,1.0,0.6821132000186481,,,,,,,,,,7.0,1.0,85.0,11.0,391.8824970000133,,,,,,,,,,,,,,,,,391.8683176000195,393.0821805000014,393.88212930000736,393.8663312999997,,,,,,,,,,,,,,,,,,,,,,,,,,,,,,,,,,,393.8667160000186,393.88212930000736,393.88212930000736,394.5674937000149,g,1.0,0.6821132000186481,,,,,,sub-028,1,stroop_test,60.06099794901615,
,,,,86.0,2.0,7.0,,,,,,,,,,,,,blau,blue,b,1.0,b,1.0,0.5904841000156011,,,,,,,,,,7.0,2.0,86.0,6.0,394.5825704000017,,,,,,,,,,,,,,,,,394.5680108000233,394.93198250001296,395.7348506000126,395.71703759999946,,,,,,,,,,,,,,,,,,,,,,,,,,,,,,,,,,,395.7225578000071,395.7348506000126,395.7348506000126,396.33373120002216,b,1.0,0.5904841000156011,,,,,,sub-028,1,stroop_test,60.06099794901615,
,,,,87.0,3.0,7.0,,,,,,,,,,,,,blau,red,r,0.0,r,1.0,0.4523024999944027,,,,,,,,,,7.0,3.0,87.0,4.0,396.3484989000135,,,,,,,,,,,,,,,,,396.3340452999983,397.549292700016,398.3648835000058,398.3489607000083,,,,,,,,,,,,,,,,,,,,,,,,,,,,,,,,,,,398.3498135000118,398.3648835000058,398.3648835000058,398.83279230000335,r,1.0,0.4523024999944027,,,,,,sub-028,1,stroop_test,60.06099794901615,
,,,,88.0,4.0,7.0,,,,,,,,,,,,,rot,red,r,1.0,r,1.0,0.7497575000161305,,,,,,,,,,7.0,4.0,88.0,1.0,398.8479595000099,,,,,,,,,,,,,,,,,398.8333041000005,398.9483227000164,399.7484839000099,399.73327300001984,,,,,,,,,,,,,,,,,,,,,,,,,,,,,,,,,,,399.7369291000068,399.7484839000099,399.7484839000099,400.4996608000074,r,1.0,0.7497575000161305,,,,,,sub-028,1,stroop_test,60.06099794901615,
,,,,89.0,5.0,7.0,,,,,,,,,,,,,rot,blue,b,0.0,b,1.0,0.8825858999916818,,,,,,,,,,7.0,5.0,89.0,2.0,400.51516800001264,,,,,,,,,,,,,,,,,400.5002082000137,400.86491890001344,401.6651911000081,401.64921930001583,,,,,,,,,,,,,,,,,,,,,,,,,,,,,,,,,,,401.64978330000304,401.6651911000081,401.6651911000081,402.54926960001467,b,1.0,0.8825858999916818,,,,,,sub-028,1,stroop_test,60.06099794901615,
,,,,90.0,6.0,7.0,,,,,,,,,,,,,gelb,blue,b,0.0,b,1.0,0.8818764000025112,,,,,,,,,,7.0,6.0,90.0,9.0,402.56451640001615,,,,,,,,,,,,,,,,,402.549546299997,402.6647886999999,403.4650356000057,403.4488126000215,,,,,,,,,,,,,,,,,,,,,,,,,,,,,,,,,,,403.4513198000204,403.4650356000057,403.4650356000057,404.3493849000079,b,1.0,0.8818764000025112,,,,,,sub-028,1,stroop_test,60.06099794901615,
,,,,91.0,7.0,7.0,,,,,,,,,,,,,rot,yellow,g,0.0,g,1.0,0.7251370000012685,,,,,,,,,,7.0,7.0,91.0,3.0,404.3641317000147,,,,,,,,,,,,,,,,,404.3497013000015,404.71413450001273,405.5145937000052,405.49844730002224,,,,,,,,,,,,,,,,,,,,,,,,,,,,,,,,,,,405.5012408000184,405.5145937000052,405.5145937000052,406.2491715000069,g,1.0,0.7251370000012685,,,,,,sub-028,1,stroop_test,60.06099794901615,
,,,,92.0,8.0,7.0,,,,,,,,,,,,,gelb,red,r,0.0,r,1.0,0.6951153999834787,,,,,,,,,,7.0,8.0,92.0,8.0,406.2638790000056,,,,,,,,,,,,,,,,,406.2495721000014,406.3646589000127,407.16374410002027,407.1484445000242,,,,,,,,,,,,,,,,,,,,,,,,,,,,,,,,,,,407.1509708000231,407.16374410002027,407.16374410002027,407.8648546000186,r,1.0,0.6951153999834787,,,,,,sub-028,1,stroop_test,60.06099794901615,
,,,,93.0,9.0,7.0,,,,,,,,,,,,,blau,yellow,g,0.0,g,1.0,0.7812788000155706,,,,,,,,,,7.0,9.0,93.0,7.0,407.8807771000138,,,,,,,,,,,,,,,,,407.8651179000153,409.080598600005,409.8802157000173,409.8649600000063,,,,,,,,,,,,,,,,,,,,,,,,,,,,,,,,,,,409.867908300017,409.8802157000173,409.8802157000173,410.6651743999973,g,1.0,0.7812788000155706,,,,,,sub-028,1,stroop_test,60.06099794901615,
,,,,94.0,10.0,7.0,,,,,,,,,,,,,rot,red,r,1.0,r,1.0,0.8597082000051159,,,,,,,,,,7.0,10.0,94.0,0.0,410.6802738000115,,,,,,,,,,,,,,,,,410.66543620001175,411.03041190002114,411.83035660002497,411.8140656000178,,,,,,,,,,,,,,,,,,,,,,,,,,,,,,,,,,,411.8169114000048,411.83035660002497,411.83035660002497,412.6979999000032,r,1.0,0.8597082000051159,,,,,,sub-028,1,stroop_test,60.06099794901615,
,,,,95.0,11.0,7.0,,,,,,,,,,,,,blau,blue,b,1.0,b,1.0,0.7070701000047848,,,,,,,,,,7.0,11.0,95.0,5.0,412.7131867000135,,,,,,,,,,,,,,,,,412.6983050999988,412.8131383,413.6127641000203,413.5971149000106,,,,,,,,,,,,,,,,,,,,,,,,,,,,,,,,,,,413.60051300001214,413.6127641000203,413.6127641000203,414.3308535000251,b,1.0,0.7070701000047848,,,,,,sub-028,1,stroop_test,60.06099794901615,
,,,,96.0,0.0,8.0,,,,,,,,,,,,,blau,red,r,0.0,r,1.0,0.9407194000086748,,,,,,,,,,8.0,0.0,96.0,4.0,414.3463865000231,,,,,,,,,,,,,,,,,414.3311282000213,414.44600389999687,415.2462939000106,415.23065150002367,,,,,,,,,,,,,,,,,,,,,,,,,,,,,,,,,,,415.23099690000527,415.2462939000106,415.2462939000106,416.1981943999999,r,1.0,0.9407194000086748,,,,,,sub-028,1,stroop_test,60.06099794901615,
,,,,97.0,1.0,8.0,,,,,,,,,,,,,blau,blue,b,1.0,b,1.0,0.7171989000053145,,,,,,,,,,8.0,1.0,97.0,6.0,416.2127390000096,,,,,,,,,,,,,,,,,416.1985220000206,416.5630725000228,417.36243330000434,417.3472384000197,,,,,,,,,,,,,,,,,,,,,,,,,,,,,,,,,,,417.3476850000152,417.36243330000434,417.36243330000434,418.0809469000087,b,1.0,0.7171989000053145,,,,,,sub-028,1,stroop_test,60.06099794901615,
,,,,98.0,2.0,8.0,,,,,,,,,,,,,gelb,red,r,0.0,r,1.0,1.1594101999944542,,,,,,,,,,8.0,2.0,98.0,8.0,418.0968157000025,,,,,,,,,,,,,,,,,418.0813083000248,419.2956626000232,420.09550140000647,420.079389200022,,,,,,,,,,,,,,,,,,,,,,,,,,,,,,,,,,,420.08220140001504,420.09550140000647,420.09550140000647,421.263403000019,r,1.0,1.1594101999944542,,,,,,sub-028,1,stroop_test,60.06099794901615,
,,,,99.0,3.0,8.0,,,,,,,,,,,,,rot,blue,b,0.0,b,1.0,0.7048540999821853,,,,,,,,,,8.0,3.0,99.0,2.0,421.2790750999993,,,,,,,,,,,,,,,,,421.263677800016,421.3788491000014,422.17902760001016,422.1626803000108,,,,,,,,,,,,,,,,,,,,,,,,,,,,,,,,,,,422.1655444000208,422.17902760001016,422.17902760001016,422.8970988000219,b,1.0,0.7048540999821853,,,,,,sub-028,1,stroop_test,60.06099794901615,
,,,,100.0,4.0,8.0,,,,,,,,,,,,,rot,yellow,g,0.0,g,1.0,0.7352659000025596,,,,,,,,,,8.0,4.0,100.0,3.0,422.91195320000406,,,,,,,,,,,,,,,,,422.8974552,423.2618670000229,424.0622285999998,424.04657010000665,,,,,,,,,,,,,,,,,,,,,,,,,,,,,,,,,,,424.0471883999999,424.0622285999998,424.0622285999998,424.8131379999977,g,1.0,0.7352659000025596,,,,,,sub-028,1,stroop_test,60.06099794901615,
,,,,101.0,5.0,8.0,,,,,,,,,,,,,blau,blue,b,1.0,b,1.0,1.1003593000059482,,,,,,,,,,8.0,5.0,101.0,5.0,424.8285806000058,,,,,,,,,,,,,,,,,424.8134395000234,425.16201,425.9619762000221,425.9456514000194,,,,,,,,,,,,,,,,,,,,,,,,,,,,,,,,,,,425.94842430000426,425.9619762000221,425.9619762000221,427.0793123000185,b,1.0,1.1003593000059482,,,,,,sub-028,1,stroop_test,60.06099794901615,
,,,,102.0,6.0,8.0,,,,,,,,,,,,,gelb,blue,b,0.0,b,1.0,0.7387211000022944,,,,,,,,,,8.0,6.0,102.0,9.0,427.0951719000004,,,,,,,,,,,,,,,,,427.0795765000221,427.8945129000058,428.6955398000137,428.6791494000063,,,,,,,,,,,,,,,,,,,,,,,,,,,,,,,,,,,428.6844297000207,428.6955398000137,428.6955398000137,429.4459408000112,b,1.0,0.7387211000022944,,,,,,sub-028,1,stroop_test,60.06099794901615,
,,,,103.0,7.0,8.0,,,,,,,,,,,,,rot,red,r,1.0,r,1.0,1.1925481999933254,,,,,,,,,,8.0,7.0,103.0,1.0,429.4614239000075,,,,,,,,,,,,,,,,,429.44625160002033,429.5609181000036,430.3607838000171,430.3451309000084,,,,,,,,,,,,,,,,,,,,,,,,,,,,,,,,,,,430.3479941000114,430.3607838000171,430.3607838000171,431.5627257000015,r,1.0,1.1925481999933254,,,,,,sub-028,1,stroop_test,60.06099794901615,
,,,,104.0,8.0,8.0,,,,,,,,,,,,,rot,red,r,1.0,r,1.0,0.94965389999561,,,,,,,,,,8.0,8.0,104.0,0.0,431.5778362000128,,,,,,,,,,,,,,,,,431.56304990002536,431.9271746000159,432.7277203999984,432.7112684000167,,,,,,,,,,,,,,,,,,,,,,,,,,,,,,,,,,,432.7117100000032,432.7277203999984,432.7277203999984,433.6788828000135,r,1.0,0.94965389999561,,,,,,sub-028,1,stroop_test,60.06099794901615,
,,,,105.0,9.0,8.0,,,,,,,,,,,,,gelb,yellow,g,1.0,g,1.0,0.8209583999996539,,,,,,,,,,8.0,9.0,105.0,10.0,433.6943488000252,,,,,,,,,,,,,,,,,433.67922190000536,433.7942371000245,434.5946049000195,434.5784006000031,,,,,,,,,,,,,,,,,,,,,,,,,,,,,,,,,,,434.5819885000237,434.5946049000195,434.5946049000195,435.4279295000015,g,1.0,0.8209583999996539,,,,,,sub-028,1,stroop_test,60.06099794901615,
,,,,106.0,10.0,8.0,,,,,,,,,,,,,blau,yellow,g,0.0,g,1.0,0.6642298999940977,,,,,,,,,,8.0,10.0,106.0,7.0,435.4439047000196,,,,,,,,,,,,,,,,,435.4282074000221,436.6439373000176,437.4435459000233,437.4278703000164,,,,,,,,,,,,,,,,,,,,,,,,,,,,,,,,,,,437.4306256000127,437.4435459000233,437.4435459000233,438.11218850000296,g,1.0,0.6642298999940977,,,,,,sub-028,1,stroop_test,60.06099794901615,
,,,,107.0,11.0,8.0,,,,,,,,,,,,,gelb,yellow,g,1.0,g,1.0,0.6143027999787591,,,,,,,,,,8.0,11.0,107.0,11.0,438.1263115000038,,,,,,,,,,,,,,,,,438.1124678000051,438.2266072000202,439.0266855000227,439.0104464000033,,,,,,,,,,,,,,,,,,,,,,,,,,,,,,,,,,,439.0129451000248,439.0266855000227,439.0266855000227,439.6441842000058,g,1.0,0.6143027999787591,,,,,,sub-028,1,stroop_test,60.06099794901615,
,,,,108.0,0.0,9.0,,,,,,,,,,,,,rot,blue,b,0.0,b,1.0,0.5841806000098586,,,,,,,,,,9.0,0.0,108.0,2.0,439.6599956999999,,,,,,,,,,,,,,,,,439.6444710000069,439.75954769999953,440.5612387000001,440.54392070000176,,,,,,,,,,,,,,,,,,,,,,,,,,,,,,,,,,,440.54913870000746,440.5612387000001,440.5612387000001,441.16141280002194,b,1.0,0.5841806000098586,,,,,,sub-028,1,stroop_test,60.06099794901615,
,,,,109.0,1.0,9.0,,,,,,,,,,,,,gelb,yellow,g,1.0,g,1.0,0.741688999987673,,,,,,,,,,9.0,1.0,109.0,11.0,441.17611690002377,,,,,,,,,,,,,,,,,441.1617176000145,441.2760169999965,442.0760984000226,442.0605455000186,,,,,,,,,,,,,,,,,,,,,,,,,,,,,,,,,,,442.0629553000035,442.0760984000226,442.0760984000226,442.82747290001134,g,1.0,0.741688999987673,,,,,,sub-028,1,stroop_test,60.06099794901615,
,,,,110.0,2.0,9.0,,,,,,,,,,,,,rot,yellow,g,0.0,g,1.0,0.4859515000134706,,,,,,,,,,9.0,2.0,110.0,3.0,442.8428609000112,,,,,,,,,,,,,,,,,442.8278563000204,443.6422993000015,444.44252310000593,444.4262361000001,,,,,,,,,,,,,,,,,,,,,,,,,,,,,,,,,,,444.4292247999984,444.44252310000593,444.44252310000593,444.9440238000243,g,1.0,0.4859515000134706,,,,,,sub-028,1,stroop_test,60.06099794901615,
,,,,111.0,3.0,9.0,,,,,,,,,,,,,blau,red,r,0.0,r,1.0,0.513554600009229,,,,,,,,,,9.0,3.0,111.0,4.0,444.959726400004,,,,,,,,,,,,,,,,,444.94429740001215,445.7588349000144,446.5603860999981,446.5430503000098,,,,,,,,,,,,,,,,,,,,,,,,,,,,,,,,,,,446.5487409000052,446.5603860999981,446.5603860999981,447.0768370000005,r,1.0,0.513554600009229,,,,,,sub-028,1,stroop_test,60.06099794901615,
,,,,112.0,4.0,9.0,,,,,,,,,,,,,blau,yellow,g,0.0,g,1.0,0.4993958999984897,,,,,,,,,,9.0,4.0,112.0,7.0,447.0919785000151,,,,,,,,,,,,,,,,,447.0771325000096,448.2918372999993,449.0923859000032,449.0764836000162,,,,,,,,,,,,,,,,,,,,,,,,,,,,,,,,,,,449.0769256000058,449.0923859000032,449.0923859000032,449.5932662000123,g,1.0,0.4993958999984897,,,,,,sub-028,1,stroop_test,60.06099794901615,
,,,,113.0,5.0,9.0,,,,,,,,,,,,,rot,red,r,1.0,r,1.0,0.6279414000164252,,,,,,,,,,9.0,5.0,113.0,1.0,449.60825430002296,,,,,,,,,,,,,,,,,449.5935728000186,450.8086987000133,451.6080159000121,451.5927112000063,,,,,,,,,,,,,,,,,,,,,,,,,,,,,,,,,,,451.5955077000253,451.6080159000121,451.6080159000121,452.242834500008,r,1.0,0.6279414000164252,,,,,,sub-028,1,stroop_test,60.06099794901615,
,,,,114.0,6.0,9.0,,,,,,,,,,,,,blau,blue,b,1.0,b,1.0,0.5979323999781627,,,,,,,,,,9.0,6.0,114.0,5.0,452.2580096000165,,,,,,,,,,,,,,,,,452.2430978000048,452.35823540002457,453.1578446000058,453.1420551000047,,,,,,,,,,,,,,,,,,,,,,,,,,,,,,,,,,,453.1448268000095,453.1578446000058,453.1578446000058,453.75925709999865,b,1.0,0.5979323999781627,,,,,,sub-028,1,stroop_test,60.06099794901615,
,,,,115.0,7.0,9.0,,,,,,,,,,,,,gelb,yellow,g,1.0,g,1.0,0.7576912000076845,,,,,,,,,,9.0,7.0,115.0,10.0,453.77424590001465,,,,,,,,,,,,,,,,,453.7595455000119,454.5751848000218,455.3747229000146,455.3589584000001,,,,,,,,,,,,,,,,,,,,,,,,,,,,,,,,,,,455.36244260001695,455.3747229000146,455.3747229000146,456.142447500024,g,1.0,0.7576912000076845,,,,,,sub-028,1,stroop_test,60.06099794901615,
,,,,116.0,8.0,9.0,,,,,,,,,,,,,gelb,red,r,0.0,r,1.0,0.5079463000001851,,,,,,,,,,9.0,8.0,116.0,8.0,456.15747620002367,,,,,,,,,,,,,,,,,456.1427975000115,456.5078476000053,457.3074388000241,457.29147350002313,,,,,,,,,,,,,,,,,,,,,,,,,,,,,,,,,,,457.2918991000042,457.3074388000241,457.3074388000241,457.8253490000207,r,1.0,0.5079463000001851,,,,,,sub-028,1,stroop_test,60.06099794901615,
,,,,117.0,9.0,9.0,,,,,,,,,,,,,rot,red,r,1.0,r,1.0,0.4108814000210259,,,,,,,,,,9.0,9.0,117.0,0.0,457.840898000024,,,,,,,,,,,,,,,,,457.8256865000003,459.040388399997,459.8411338000151,459.8250845000148,,,,,,,,,,,,,,,,,,,,,,,,,,,,,,,,,,,459.8295945000136,459.8411338000151,459.8411338000151,460.2579427000019,r,1.0,0.4108814000210259,,,,,,sub-028,1,stroop_test,60.06099794901615,
,,,,118.0,10.0,9.0,,,,,,,,,,,,,blau,blue,b,1.0,b,1.0,0.5217648000107147,,,,,,,,,,9.0,10.0,118.0,6.0,460.2735918000108,,,,,,,,,,,,,,,,,460.2582309000136,460.6075707999989,461.4236314000154,461.40730960000656,,,,,,,,,,,,,,,,,,,,,,,,,,,,,,,,,,,461.4102798000095,461.4236314000154,461.4236314000154,461.9586982000037,b,1.0,0.5217648000107147,,,,,,sub-028,1,stroop_test,60.06099794901615,
,,,,119.0,11.0,9.0,,,,,,,,,,,,,gelb,blue,b,0.0,b,1.0,0.5939639999996871,,,,,,,,,,9.0,11.0,119.0,9.0,461.974017200002,,,,,,,,,,,,,,,,,461.9592156000144,463.1739150000212,463.9733747999999,463.9572600000247,,,,,,,,,,,,,,,,,,,,,,,,,,,,,,,,,,,463.9612458000192,463.9733747999999,463.9733747999999,464.5740042999969,b,1.0,0.5939639999996871,,,,,,sub-028,1,stroop_test,60.06099794901615,
,,,,,,,,,,,,,,,,,,,,,,,,,,,,,,,,,,,,,,,,,,,,,,,,,,,,,,,,,,,,,,,,,,,,,,,,,,,,,,,,,,,,,,,,,,,,,,,,,,,,,,464.57414360000985,464.589867600007,469.5890881000087,469.5733214000065,sub-028,1,stroop_test,60.06099794901615,
