direction,corrAns,thisN,thisTrialN,thisRepN,respDots.keys,respDots.corr,respDots.rt,respDots.duration,randomInstr,respRandomInstr.keys,respRandomInstr.rt,respRandomInstr.duration,practice_trials.thisRepN,practice_trials.thisTrialN,practice_trials.thisN,practice_trials.thisIndex,instr_trials.thisRepN,instr_trials.thisTrialN,instr_trials.thisN,instr_trials.thisIndex,test_trials.thisRepN,test_trials.thisTrialN,test_trials.thisN,test_trials.thisIndex,thisRow.t,notes,general_instruction.started,textGeneralInstr.started,respGeneralInstr.started,general_instruction.stopped,respGeneralInstr.keys,respGeneralInstr.rt,respGeneralInstr.duration,ITI.started,fixcross.started,fixcross.stopped,ITI.stopped,dots.started,backgroundDots.started,stimulusDots.started,respDots.started,stimulusDots.stopped,dots.stopped,practice_trials.respDots.keys,practice_trials.respDots.corr,practice_trials.respDots.rt,practice_trials.respDots.duration,feedback.started,textFeedback.started,feedback.stopped,textFeedback.stopped,info.started,textInfo.started,keyRespInfo.started,info.stopped,keyRespInfo.keys,keyRespInfo.rt,keyRespInfo.duration,test_instruction.started,textTestInstr.started,respTestInstr.started,test_instruction.stopped,respTestInstr.keys,respTestInstr.rt,respTestInstr.duration,random_instruction.started,textRandomInstr.started,respRandomInstr.started,random_instruction.stopped,instr_trials.respRandomInstr.keys,instr_trials.respRandomInstr.rt,instr_trials.respRandomInstr.duration,test_trials.respDots.keys,test_trials.respDots.corr,test_trials.respDots.rt,test_trials.respDots.duration,goodbye.started,textGoodbye.started,goodbye.stopped,participant,session,expName,frameRate,Unnamed: 87
,,,,,,,,,,,,,,,,,,,,,,,,,,,0.0148660749982809,0.035036206994846,0.035036206994846,31.30335422799544,space,31.22717120199377,,,,,,,,,,,,,,,,,,,,,,,,,,,,,,,,,,,,,,,,,,,,,,,,sub-015,1,random_dot,92.59694464804392,
left,left,0.0,0.0,0.0,right,0.0,7.478975915000774,,,,,,0.0,0.0,0.0,0.0,,,,,,,,,31.372628188000817,,,,,,,,,31.3582642399997,31.65587837500061,32.466180090996204,32.44140720699943,32.44191255400074,32.466180090996204,32.466180090996204,32.466180090996204,37.437690708000446,39.95289728899661,right,0.0,7.478975915000774,,39.95976268699451,40.08857953599363,40.45858623899403,,,,,,,,,,,,,,,,,,,,,,,,,,,,,,sub-015,1,random_dot,92.59694464804392,
right,right,1.0,1.0,0.0,right,1.0,5.62273706200358,,,,,,0.0,1.0,1.0,1.0,,,,,,,,,40.47254076999525,,,,,,,,,40.45939423299569,41.2491967409951,42.09990159099834,42.06894154299516,42.07031941599416,42.09990159099834,42.09990159099834,42.09990159099834,47.06518724399939,47.72627798999747,right,1.0,5.62273706200358,,47.73672454099869,47.75419824900018,48.23071900399373,,,,,,,,,,,,,,,,,,,,,,,,,,,,,,sub-015,1,random_dot,92.59694464804392,
right,right,2.0,0.0,1.0,right,1.0,9.745874282998557,,,,,,1.0,0.0,2.0,1.0,,,,,,,,,48.2568548929994,,,,,,,,,48.23140907599736,49.02410591700027,49.82764817599673,49.81588280599681,49.81670057699375,49.82764817599673,49.82764817599673,49.82764817599673,54.81608023399895,59.58643004199985,right,1.0,9.745874282998557,,59.586593676998746,59.59815555999376,60.08912283999962,,,,,,,,,,,,,,,,,,,,,,,,,,,,,,sub-015,1,random_dot,92.59694464804392,
left,left,3.0,1.0,1.0,left,1.0,5.534036876997561,,,,,,1.0,1.0,3.0,0.0,,,,,,,,,60.09803972599912,,,,,,,,,60.0899219579951,60.20594121799513,61.00840934999724,60.9971562599967,60.997629100995255,61.00840934999724,61.00840934999724,61.00840934999724,66.00598089899722,66.55251235099422,left,1.0,5.534036876997561,,66.55265649699868,66.5640174709988,67.04796470099973,67.07178731099702,,,,,,,,,,,,,,,,,,,,,,,,,,,,,sub-015,1,random_dot,92.59694464804392,
left,left,4.0,0.0,2.0,right,0.0,1.8163235409956544,,,,,,2.0,0.0,4.0,0.0,,,,,,,,,67.07178731099702,,,,,,,,,67.048359057997,68.2656419739942,69.070724186,69.05699273299979,69.05769594299636,69.070724186,69.070724186,69.070724186,,70.89017488699756,right,0.0,1.8163235409956544,,70.89347777799412,70.90353625699936,71.39054543399834,,,,,,,,,,,,,,,,,,,,,,,,,,,,,,sub-015,1,random_dot,92.59694464804392,
right,right,5.0,1.0,2.0,right,1.0,5.394035944998905,,,,,,2.0,1.0,5.0,1.0,,,,,,,,,71.40649312899768,,,,,,,,,71.39119695899717,72.2058646469959,73.00570023199543,72.9903700520008,72.99097986099514,73.00570023199543,73.00570023199543,73.00570023199543,77.99791279799683,78.41267312399577,right,1.0,5.394035944998905,,78.41592442499677,78.4284450329942,78.92350483399787,,,,,,,,,,,,,,,,,,,,,,,,,,,,,,sub-015,1,random_dot,92.59694464804392,
left,left,6.0,0.0,3.0,right,0.0,5.96889493400522,,,,,,3.0,0.0,6.0,0.0,,,,,,,,,78.93138714599627,,,,,,,,,78.92415086999972,79.26646547499695,80.06853035499807,80.0578153749957,80.05828282099537,80.06853035499807,80.06853035499807,80.06853035499807,85.0556258209981,86.04713314299443,right,0.0,5.96889493400522,,86.0508361369939,86.06216444299935,86.54811965599947,86.55663590099721,,,,,,,,,,,,,,,,,,,,,,,,,,,,,sub-015,1,random_dot,92.59694464804392,
right,right,7.0,1.0,3.0,left,0.0,5.737619640000048,,,,,,3.0,1.0,7.0,1.0,,,,,,,,,86.55663590099721,,,,,,,,,86.54855448499438,86.64710966699931,87.44586044499738,87.43332162499428,87.43403607299842,87.44586044499738,87.44586044499738,87.44586044499738,92.4314223209949,93.19701462800003,left,0.0,5.737619640000048,,93.19716759999574,93.20861986199452,93.70583809299568,,,,,,,,,,,,,,,,,,,,,,,,,,,,,,sub-015,1,random_dot,92.59694464804392,
right,right,8.0,0.0,4.0,right,1.0,2.528231454001798,,,,,,4.0,0.0,8.0,1.0,,,,,,,,,93.72283029199752,,,,,,,,,93.70642760699413,93.79731701700076,94.59656557400012,94.5841439270007,94.584882997995,94.59656557400012,94.59656557400012,94.59656557400012,,97.13248945099622,right,1.0,2.528231454001798,,97.13720196599752,97.14869641699624,97.63986035299604,,,,,,,,,,,,,,,,,,,,,,,,,,,,,,sub-015,1,random_dot,92.59694464804392,
left,left,9.0,1.0,4.0,left,1.0,5.111595212998509,,,,,,4.0,1.0,9.0,0.0,,,,,,,,,97.64767090399982,,,,,,,,,97.6402784210004,98.45641974399769,99.26041517599516,99.248213244995,99.24869621999824,99.26041517599516,99.26041517599516,99.26041517599516,104.247962661997,104.38064389200008,left,1.0,5.111595212998509,,104.3808299739976,104.3927795349955,104.88159246499708,104.89054159899388,,,,,,,,,,,,,,,,,,,,,,,,,,,,,sub-015,1,random_dot,92.59694464804392,
left,left,10.0,0.0,5.0,right,0.0,2.578906456001277,,,,,,5.0,0.0,10.0,0.0,,,,,,,,,104.89054159899388,,,,,,,,,104.88210720999632,105.22983319999912,106.03568810899742,106.02349068299372,106.02397295499397,106.03568810899742,106.03568810899742,106.03568810899742,,108.62415897699977,right,0.0,2.578906456001277,,108.62826761599716,108.63799085199572,109.1233994869981,109.13235649799752,,,,,,,,,,,,,,,,,,,,,,,,,,,,,sub-015,1,random_dot,92.59694464804392,
right,right,11.0,1.0,5.0,right,1.0,1.3895757380014402,,,,,,5.0,1.0,11.0,1.0,,,,,,,,,109.13235649799752,,,,,,,,,109.12398497200049,109.4759965609992,110.27171315300076,110.2603597999987,110.26105507399916,110.27171315300076,110.27171315300076,110.27171315300076,,111.66882369799714,right,1.0,1.3895757380014402,,111.6720348050003,111.6819638779998,112.17175120899628,,,,,,,,,,,,,,,,,,,,,,,,,,,,,,sub-015,1,random_dot,92.59694464804392,
right,right,12.0,0.0,6.0,left,0.0,2.8222084709996125,,,,,,6.0,0.0,12.0,1.0,,,,,,,,,112.1790330809963,,,,,,,,,112.17216068199924,113.36258390399598,114.15972969099676,114.14851009499398,114.14925611199578,114.15972969099676,114.15972969099676,114.15972969099676,,116.98730764100036,left,0.0,2.8222084709996125,,116.99169572100072,117.00224863299808,117.50595857099688,,,,,,,,,,,,,,,,,,,,,,,,,,,,,,sub-015,1,random_dot,92.59694464804392,
left,left,13.0,1.0,6.0,right,0.0,2.457368290000886,,,,,,6.0,1.0,13.0,0.0,,,,,,,,,117.51362004099792,,,,,,,,,117.50637324899436,118.68019570599428,119.48849739800062,119.47261592399444,119.47333152699866,119.48849739800062,119.48849739800062,119.48849739800062,,121.96232837199932,right,0.0,2.457368290000886,,121.96254907999536,121.9764592069987,122.47229170499486,,,,,,,,,,,,,,,,,,,,,,,,,,,,,,sub-015,1,random_dot,92.59694464804392,
left,left,14.0,0.0,7.0,left,1.0,2.533846108999569,,,,,,7.0,0.0,14.0,0.0,,,,,,,,,122.47991350499797,,,,,,,,,122.47273058699648,122.55661446399608,123.35977861099671,123.34857387699594,123.3491904879993,123.35977861099671,123.35977861099671,123.35977861099671,,125.90964505999727,left,1.0,2.533846108999569,,125.91485749300044,125.9298792289992,126.42111145099624,,,,,,,,,,,,,,,,,,,,,,,,,,,,,,sub-015,1,random_dot,92.59694464804392,
right,right,15.0,1.0,7.0,right,1.0,2.165879557003791,,,,,,7.0,1.0,15.0,1.0,,,,,,,,,126.43824335200044,,,,,,,,,126.4217121939946,127.60445074499876,128.40499208999972,128.391551101995,128.39196903300035,128.40499208999972,128.40499208999972,128.40499208999972,,130.5789953919957,right,1.0,2.165879557003791,,130.57913362599356,130.59041424799943,131.0792781209966,,,,,,,,,,,,,,,,,,,,,,,,,,,,,,sub-015,1,random_dot,92.59694464804392,
right,right,16.0,0.0,8.0,right,1.0,1.2047543770022455,,,,,,8.0,0.0,16.0,1.0,,,,,,,,,131.08895305299666,,,,,,,,,131.0800543899968,132.27584874599415,133.08429564499966,133.0733026589951,133.07378265599982,133.08429564499966,133.08429564499966,133.08429564499966,,134.29241383099725,right,1.0,1.2047543770022455,,134.29255397299858,134.3039384090007,134.7905196520005,134.79905770999903,,,,,,,,,,,,,,,,,,,,,,,,,,,,,sub-015,1,random_dot,92.59694464804392,
left,left,17.0,1.0,8.0,left,1.0,1.8476727810048037,,,,,,8.0,1.0,17.0,0.0,,,,,,,,,134.79905770999903,,,,,,,,,134.79095786799735,134.8964738719951,135.6927429999996,135.68111529199814,135.68165040500023,135.6927429999996,135.6927429999996,135.6927429999996,,137.54482013099914,left,1.0,1.8476727810048037,,137.5449611619988,137.5710644599967,138.0467559549943,,,,,,,,,,,,,,,,,,,,,,,,,,,,,,sub-015,1,random_dot,92.59694464804392,
right,right,18.0,0.0,9.0,right,1.0,1.477753989995108,,,,,,9.0,0.0,18.0,1.0,,,,,,,,,138.0564412349995,,,,,,,,,138.04750725899794,139.2506629099953,140.06836345699412,140.0570155999958,140.0576962099949,140.06836345699412,140.06836345699412,140.06836345699412,,141.55324627299706,right,1.0,1.477753989995108,,141.55336558499403,141.56238785299502,142.05589377499564,,,,,,,,,,,,,,,,,,,,,,,,,,,,,,sub-015,1,random_dot,92.59694464804392,
left,left,19.0,1.0,9.0,left,1.0,1.452091489001759,,,,,,9.0,1.0,19.0,0.0,,,,,,,,,142.0633718369936,,,,,,,,,142.05630472199846,142.14662002299883,142.95457780799916,142.93897201000073,142.93968833399413,142.95457780799916,142.95457780799916,142.95457780799916,,144.41907934399933,left,1.0,1.452091489001759,,144.4192333119936,144.42939163700066,144.9134977329959,144.92400512099994,,,,,,,,,,,,,,,,,,,,,,,,,,,,,sub-015,1,random_dot,92.59694464804392,
,,,,,,,,,,,,,,,,,,,,,,,,,,,,,,,,,,,,,,,,,,,,,,,,,,,,144.91366174099676,144.92400512099994,144.92400512099994,153.5438971909971,space,8.616500907002774,,,,,,,,,,,,,,,,,,,,,,,sub-015,1,random_dot,92.59694464804392,
,,,,,,,,,,,,,,,,,,,,,,,,,,,,,,,,,,,,,,,,,,,,,,,,,,,,,,,,,,,153.54399329800071,153.55709069399745,153.55709069399745,158.90214605899382,space,5.338468884001486,,,,,,,,,,,,,,,,sub-015,1,random_dot,92.59694464804392,
right,right,0.0,0.0,0.0,left,0.0,2.0019585300033214,,accuracy,space,3.764918551998562,,,,,,0.0,0.0,0.0,0.0,0.0,0.0,0.0,1.0,162.73694892399362,,,,,,,,,162.7271016800005,162.8138093019952,163.61656427900016,163.60556286299834,163.60612492499786,163.61656427900016,163.61656427900016,163.61656427900016,,165.62391230299545,,,,,,,,,,,,,,,,,,,,,,,158.93254131799767,158.94564129699577,158.94564129699577,162.71876577299554,space,3.764918551998562,,left,0.0,2.0019585300033214,,,,,sub-015,1,random_dot,92.59694464804392,
left,left,1.0,1.0,0.0,right,0.0,2.41070909199334,,accuracy,space,3.764918551998562,,,,,,0.0,0.0,0.0,0.0,0.0,1.0,1.0,0.0,165.6342710079989,,,,,,,,,165.6244103969948,165.72320020699408,166.52604464299657,166.51468749299966,166.51573172499775,166.52604464299657,166.52604464299657,166.52604464299657,,168.94298683099623,,,,,,,,,,,,,,,,,,,,,,,,,,,,,,right,0.0,2.41070909199334,,,,,sub-015,1,random_dot,92.59694464804392,
right,right,2.0,0.0,1.0,right,1.0,4.064026025997009,,accuracy,space,3.764918551998562,,,,,,0.0,0.0,0.0,0.0,1.0,0.0,2.0,1.0,168.95251284099504,,,,,,,,,168.94344578099845,169.29639120799402,170.10446911899635,170.0905118449955,170.0909838689986,170.10446911899635,170.10446911899635,170.10446911899635,,174.1800859779978,,,,,,,,,,,,,,,,,,,,,,,,,,,,,,right,1.0,4.064026025997009,,,,,sub-015,1,random_dot,92.59694464804392,
left,left,3.0,1.0,1.0,left,1.0,1.471767598995939,,accuracy,space,3.764918551998562,,,,,,0.0,0.0,0.0,0.0,1.0,1.0,3.0,0.0,174.19083543499437,,,,,,,,,174.1806245810003,174.3049638839948,175.10408842899778,175.09278951399756,175.09326721699472,175.10408842899778,175.10408842899778,175.10408842899778,,176.58073151799908,,,,,,,,,,,,,,,,,,,,,,,,,,,,,,left,1.0,1.471767598995939,,,,,sub-015,1,random_dot,92.59694464804392,
left,left,4.0,0.0,2.0,left,1.0,3.0975605019993964,,accuracy,space,3.764918551998562,,,,,,0.0,0.0,0.0,0.0,2.0,0.0,4.0,0.0,176.5918444669951,,,,,,,,,176.58153049399698,176.6790223249991,177.47603003499535,177.46381532699888,177.4643449399955,177.47603003499535,177.47603003499535,177.47603003499535,,180.5863477239982,,,,,,,,,,,,,,,,,,,,,,,,,,,,,,left,1.0,3.0975605019993964,,,,,sub-015,1,random_dot,92.59694464804392,
right,right,5.0,1.0,2.0,right,1.0,1.834770939000009,,accuracy,space,3.764918551998562,,,,,,0.0,0.0,0.0,0.0,2.0,1.0,5.0,1.0,180.595994780997,,,,,,,,,180.58680687599556,181.37856216599903,182.18290760299715,182.1723951179956,182.1728708189985,182.18290760299715,182.18290760299715,182.18290760299715,,184.02806045299803,,,,,,,,,,,,,,,,,,,,,,,,,,,,,,right,1.0,1.834770939000009,,,,,sub-015,1,random_dot,92.59694464804392,
right,right,6.0,0.0,3.0,right,1.0,2.940658587998769,,accuracy,space,3.764918551998562,,,,,,0.0,0.0,0.0,0.0,3.0,0.0,6.0,1.0,184.0395571839981,,,,,,,,,184.02864140699967,184.38807018899388,185.20275740699435,185.1895307349987,185.19000339299964,185.20275740699435,185.20275740699435,185.20275740699435,,188.15665601199728,,,,,,,,,,,,,,,,,,,,,,,,,,,,,,right,1.0,2.940658587998769,,,,,sub-015,1,random_dot,92.59694464804392,
left,left,7.0,1.0,3.0,left,1.0,1.5128758669961826,,accuracy,space,3.764918551998562,,,,,,0.0,0.0,0.0,0.0,3.0,1.0,7.0,0.0,188.16720760499447,,,,,,,,,188.1571124309994,188.25613947699455,189.05030240699853,189.0397044919955,189.0402037059976,189.05030240699853,189.05030240699853,189.05030240699853,,190.57330423299567,,,,,,,,,,,,,,,,,,,,,,,,,,,,,,left,1.0,1.5128758669961826,,,,,sub-015,1,random_dot,92.59694464804392,
left,left,8.0,0.0,4.0,right,0.0,1.319271843000024,,accuracy,space,3.764918551998562,,,,,,0.0,0.0,0.0,0.0,4.0,0.0,8.0,0.0,190.58339059900027,,,,,,,,,190.57383328199649,190.93814825899608,191.73335259099983,191.7221929369989,191.72266945299637,191.73335259099983,191.73335259099983,191.73335259099983,,193.064835145,,,,,,,,,,,,,,,,,,,,,,,,,,,,,,right,0.0,1.319271843000024,,,,,sub-015,1,random_dot,92.59694464804392,
right,right,9.0,1.0,4.0,right,1.0,1.871745677002764,,accuracy,space,3.764918551998562,,,,,,0.0,0.0,0.0,0.0,4.0,1.0,9.0,1.0,193.0757824119937,,,,,,,,,193.06544031299563,193.1647081569972,193.96916110500024,193.9579365449972,193.9584021289993,193.96916110500024,193.96916110500024,193.96916110500024,,195.84437197499935,,,,,,,,,,,,,,,,,,,,,,,,,,,,,,right,1.0,1.871745677002764,,,,,sub-015,1,random_dot,92.59694464804392,
left,left,10.0,0.0,5.0,left,1.0,4.276725872994575,,accuracy,space,3.764918551998562,,,,,,0.0,0.0,0.0,0.0,5.0,0.0,10.0,0.0,195.86952059900068,,,,,,,,,195.8448438089981,197.04002489599952,197.84350831999475,197.8308383609983,197.83164657499583,197.84350831999475,197.84350831999475,197.84350831999475,,202.12936425099903,,,,,,,,,,,,,,,,,,,,,,,,,,,,,,left,1.0,4.276725872994575,,,,,sub-015,1,random_dot,92.59694464804392,
right,right,11.0,1.0,5.0,left,0.0,2.5169438540033298,,accuracy,space,3.764918551998562,,,,,,0.0,0.0,0.0,0.0,5.0,1.0,11.0,1.0,202.14119340400063,,,,,,,,,202.1298254789945,202.9371973739981,203.73723375099507,203.72145713799543,203.7221616589959,203.73723375099507,203.73723375099507,203.73723375099507,,206.2609765949965,,,,,,,,,,,,,,,,,,,,,,,,,,,,,,left,0.0,2.5169438540033298,,,,,sub-015,1,random_dot,92.59694464804392,
left,left,12.0,0.0,6.0,right,0.0,2.5814182550020632,,accuracy,space,3.764918551998562,,,,,,0.0,0.0,0.0,0.0,6.0,0.0,12.0,0.0,206.27325745899725,,,,,,,,,206.2614466409941,207.06334760000027,207.88754269499623,207.8713529279994,207.8720470739936,207.88754269499623,207.88754269499623,207.88754269499623,,210.48129223999425,,,,,,,,,,,,,,,,,,,,,,,,,,,,,,right,0.0,2.5814182550020632,,,,,sub-015,1,random_dot,92.59694464804392,
right,right,13.0,1.0,6.0,right,1.0,2.4311236739958986,,accuracy,space,3.764918551998562,,,,,,0.0,0.0,0.0,0.0,6.0,1.0,13.0,1.0,210.49156460799716,,,,,,,,,210.481907292,210.83130297999745,211.631995453994,211.6217316809998,211.6222138219964,211.631995453994,211.631995453994,211.631995453994,,214.07795224800063,,,,,,,,,,,,,,,,,,,,,,,,,,,,,,right,1.0,2.4311236739958986,,,,,sub-015,1,random_dot,92.59694464804392,
right,right,14.0,0.0,7.0,left,0.0,2.625013407996448,,accuracy,space,3.764918551998562,,,,,,0.0,0.0,0.0,0.0,7.0,0.0,14.0,1.0,214.08994504599832,,,,,,,,,214.0784961639947,214.1751394449966,214.96953378699985,214.95860013499623,214.959085935996,214.96953378699985,214.96953378699985,214.96953378699985,,217.60043513299752,,,,,,,,,,,,,,,,,,,,,,,,,,,,,,left,0.0,2.625013407996448,,,,,sub-015,1,random_dot,92.59694464804392,
left,left,15.0,1.0,7.0,left,1.0,2.4177590270046494,,accuracy,space,3.764918551998562,,,,,,0.0,0.0,0.0,0.0,7.0,1.0,15.0,0.0,217.60992937300037,,,,,,,,,217.60113413399813,217.95399276699757,218.7537469969975,218.73809946899564,218.73888330499904,218.7537469969975,218.7537469969975,218.7537469969975,,221.1797023049949,,,,,,,,,,,,,,,,,,,,,,,,,,,,,,left,1.0,2.4177590270046494,,,,,sub-015,1,random_dot,92.59694464804392,
left,left,16.0,0.0,8.0,left,1.0,4.198419302003458,,accuracy,space,3.764918551998562,,,,,,0.0,0.0,0.0,0.0,8.0,0.0,16.0,0.0,221.1902046849937,,,,,,,,,221.1801881539941,221.2795198109961,222.0873508969962,222.07106882499647,222.07179949800047,222.0873508969962,222.0873508969962,222.0873508969962,,226.29408940499707,,,,,,,,,,,,,,,,,,,,,,,,,,,,,,left,1.0,4.198419302003458,,,,,sub-015,1,random_dot,92.59694464804392,
right,right,17.0,1.0,8.0,right,1.0,2.093084784995881,,accuracy,space,3.764918551998562,,,,,,0.0,0.0,0.0,0.0,8.0,1.0,17.0,1.0,226.3195598509992,,,,,,,,,226.29453735699644,226.64484359799823,227.44433293999464,227.43388037599647,227.43452891599736,227.44433293999464,227.44433293999464,227.44433293999464,,229.5583501189976,,,,,,,,,,,,,,,,,,,,,,,,,,,,,,right,1.0,2.093084784995881,,,,,sub-015,1,random_dot,92.59694464804392,
right,right,18.0,0.0,9.0,right,1.0,4.113052193999465,,accuracy,space,3.764918551998562,,,,,,0.0,0.0,0.0,0.0,9.0,0.0,18.0,1.0,229.5688927309966,,,,,,,,,229.55888493100065,230.35319190299924,231.14889865299483,231.13803891199493,231.13851240499932,231.14889865299483,231.14889865299483,231.14889865299483,,235.27196615999856,,,,,,,,,,,,,,,,,,,,,,,,,,,,,,right,1.0,4.113052193999465,,,,,sub-015,1,random_dot,92.59694464804392,
left,left,19.0,1.0,9.0,left,1.0,2.544977862999076,,accuracy,space,3.764918551998562,,,,,,0.0,0.0,0.0,0.0,9.0,1.0,19.0,0.0,235.28246023899555,,,,,,,,,235.27241944900013,236.46994874200027,237.26983890399424,237.25851163199692,237.25920401499752,237.26983890399424,237.26983890399424,237.26983890399424,,239.8242112980006,,,,,,,,,,,,,,,,,,,,,,,,,,,,,,left,1.0,2.544977862999076,,,,,sub-015,1,random_dot,92.59694464804392,
right,right,20.0,0.0,10.0,right,1.0,5.577189864001412,,accuracy,space,3.764918551998562,,,,,,0.0,0.0,0.0,0.0,10.0,0.0,20.0,1.0,239.83464534700036,,,,,,,,,239.82468063499985,241.02942451199488,241.8328381159954,241.8219717009997,241.8224483599988,241.8328381159954,241.8328381159954,241.8328381159954,246.8252456199989,247.42224720199735,,,,,,,,,,,,,,,,,,,,,,,,,,,,,,right,1.0,5.577189864001412,,,,,sub-015,1,random_dot,92.59694464804392,
left,left,21.0,1.0,10.0,left,1.0,3.2421654400022817,,accuracy,space,3.764918551998562,,,,,,0.0,0.0,0.0,0.0,10.0,1.0,21.0,0.0,247.4328786219994,,,,,,,,,247.4227017230005,247.7727173549938,248.56849493299524,248.5568225329989,248.55732776399964,248.56849493299524,248.56849493299524,248.56849493299524,,251.8181290969951,,,,,,,,,,,,,,,,,,,,,,,,,,,,,,left,1.0,3.2421654400022817,,,,,sub-015,1,random_dot,92.59694464804392,
left,left,22.0,0.0,11.0,left,1.0,2.6659816079991288,,accuracy,space,3.764918551998562,,,,,,0.0,0.0,0.0,0.0,11.0,0.0,22.0,0.0,251.82715194799675,,,,,,,,,251.8185741060006,253.0377236659988,253.8379890689976,253.82455272899824,253.82526357499592,253.8379890689976,253.8379890689976,253.8379890689976,,256.51056513699587,,,,,,,,,,,,,,,,,,,,,,,,,,,,,,left,1.0,2.6659816079991288,,,,,sub-015,1,random_dot,92.59694464804392,
right,right,23.0,1.0,11.0,left,0.0,4.932973639995907,,accuracy,space,3.764918551998562,,,,,,0.0,0.0,0.0,0.0,11.0,1.0,23.0,1.0,256.52469095099514,,,,,,,,,256.5111396119973,257.7061059419939,258.5076704940002,258.4970611799945,258.49757130099897,258.5076704940002,258.5076704940002,258.5076704940002,,263.47145117799664,,,,,,,,,,,,,,,,,,,,,,,,,,,,,,left,0.0,4.932973639995907,,,,,sub-015,1,random_dot,92.59694464804392,
right,right,24.0,0.0,12.0,right,1.0,0.906236077993526,,accuracy,space,3.764918551998562,,,,,,0.0,0.0,0.0,0.0,12.0,0.0,24.0,1.0,263.48690065700066,,,,,,,,,263.4722613119957,264.6751164870002,265.4742724729949,265.4616782219964,265.4621975369955,265.4742724729949,265.4742724729949,265.4742724729949,,266.39166376099456,,,,,,,,,,,,,,,,,,,,,,,,,,,,,,right,1.0,0.906236077993526,,,,,sub-015,1,random_dot,92.59694464804392,
left,left,25.0,1.0,12.0,left,1.0,6.600493042999005,,accuracy,space,3.764918551998562,,,,,,0.0,0.0,0.0,0.0,12.0,1.0,25.0,0.0,266.4028276989993,,,,,,,,,266.3921657959945,266.4913652100004,267.29053058799764,267.2802152489967,267.2807858689994,267.29053058799764,267.29053058799764,267.29053058799764,272.28642307399423,273.8991230729953,,,,,,,,,,,,,,,,,,,,,,,,,,,,,,left,1.0,6.600493042999005,,,,,sub-015,1,random_dot,92.59694464804392,
right,right,26.0,0.0,13.0,left,0.0,5.319202059996314,,accuracy,space,3.764918551998562,,,,,,0.0,0.0,0.0,0.0,13.0,0.0,26.0,1.0,273.90949913799705,,,,,,,,,273.89969562599435,273.9969275799958,274.802078789995,274.790320768996,274.7908261699995,274.802078789995,274.802078789995,274.802078789995,279.791588246997,280.1343464659949,,,,,,,,,,,,,,,,,,,,,,,,,,,,,,left,0.0,5.319202059996314,,,,,sub-015,1,random_dot,92.59694464804392,
left,left,27.0,1.0,13.0,right,0.0,3.7747000050003408,,accuracy,space,3.764918551998562,,,,,,0.0,0.0,0.0,0.0,13.0,1.0,27.0,0.0,280.1447672029972,,,,,,,,,280.1348361479977,280.5029443979947,281.29868285200064,281.28749745399546,281.2879794189939,281.29868285200064,281.29868285200064,281.29868285200064,,285.0853985489957,,,,,,,,,,,,,,,,,,,,,,,,,,,,,,right,0.0,3.7747000050003408,,,,,sub-015,1,random_dot,92.59694464804392,
right,right,28.0,0.0,14.0,right,1.0,4.643213732997538,,accuracy,space,3.764918551998562,,,,,,0.0,0.0,0.0,0.0,14.0,0.0,28.0,1.0,285.095407806999,,,,,,,,,285.0859467939954,285.87738387900026,286.6744986679987,286.6640194569991,286.66471991699655,286.6744986679987,286.6744986679987,286.6744986679987,,291.3223206189941,,,,,,,,,,,,,,,,,,,,,,,,,,,,,,right,1.0,4.643213732997538,,,,,sub-015,1,random_dot,92.59694464804392,
left,left,29.0,1.0,14.0,left,1.0,3.965393345002667,,accuracy,space,3.764918551998562,,,,,,0.0,0.0,0.0,0.0,14.0,1.0,29.0,0.0,291.33514663899405,,,,,,,,,291.3228668919983,291.6685733659979,292.46921364499576,292.45546778999415,292.4559409889989,292.46921364499576,292.46921364499576,292.46921364499576,,296.450359825998,,,,,,,,,,,,,,,,,,,,,,,,,,,,,,left,1.0,3.965393345002667,,,,,sub-015,1,random_dot,92.59694464804392,
left,left,30.0,0.0,15.0,left,1.0,3.55589725200116,,accuracy,space,3.764918551998562,,,,,,0.0,0.0,0.0,0.0,15.0,0.0,30.0,0.0,296.4581605219937,,,,,,,,,296.45105043299554,297.24443976699695,298.0465483509979,298.0371417200004,298.0376728029951,298.0465483509979,298.0465483509979,298.0465483509979,,301.606113281996,,,,,,,,,,,,,,,,,,,,,,,,,,,,,,left,1.0,3.55589725200116,,,,,sub-015,1,random_dot,92.59694464804392,
right,right,31.0,1.0,15.0,right,1.0,4.081397442001617,,accuracy,space,3.764918551998562,,,,,,0.0,0.0,0.0,0.0,15.0,1.0,31.0,1.0,301.6164726679999,,,,,,,,,301.60664818999794,301.7118700469946,302.50773100499646,302.49607101099537,302.49687136699504,302.50773100499646,302.50773100499646,302.50773100499646,,306.60394984599407,,,,,,,,,,,,,,,,,,,,,,,,,,,,,,right,1.0,4.081397442001617,,,,,sub-015,1,random_dot,92.59694464804392,
left,left,32.0,0.0,16.0,left,1.0,4.8166248589986935,,accuracy,space,3.764918551998562,,,,,,0.0,0.0,0.0,0.0,16.0,0.0,32.0,0.0,306.6193190259946,,,,,,,,,306.6049632829963,306.7109932759995,307.5077001979953,307.4959246949948,307.49665472399647,307.5077001979953,307.5077001979953,307.5077001979953,,312.3296432549978,,,,,,,,,,,,,,,,,,,,,,,,,,,,,,left,1.0,4.8166248589986935,,,,,sub-015,1,random_dot,92.59694464804392,
right,right,33.0,1.0,16.0,right,1.0,3.526186766001046,,accuracy,space,3.764918551998562,,,,,,0.0,0.0,0.0,0.0,16.0,1.0,33.0,1.0,312.340643603995,,,,,,,,,312.33053943699633,312.4520112099999,313.2489383219945,313.2374100409943,313.2381021369947,313.2489383219945,313.2489383219945,313.2489383219945,,316.7791776449958,,,,,,,,,,,,,,,,,,,,,,,,,,,,,,right,1.0,3.526186766001046,,,,,sub-015,1,random_dot,92.59694464804392,
right,right,34.0,0.0,17.0,right,1.0,3.5458248580034706,,accuracy,space,3.764918551998562,,,,,,0.0,0.0,0.0,0.0,17.0,0.0,34.0,1.0,316.7902865369979,,,,,,,,,316.77991544199904,317.586299316994,318.38248875099816,318.3712045719949,318.3717783079992,318.38248875099816,318.38248875099816,318.38248875099816,,321.9403543890003,,,,,,,,,,,,,,,,,,,,,,,,,,,,,,right,1.0,3.5458248580034706,,,,,sub-015,1,random_dot,92.59694464804392,
left,left,35.0,1.0,17.0,left,1.0,2.9629014669990283,,accuracy,space,3.764918551998562,,,,,,0.0,0.0,0.0,0.0,17.0,1.0,35.0,0.0,321.9504210179948,,,,,,,,,321.94080298799963,322.0379744449965,322.8419145129956,322.8303690039975,322.83107622799434,322.8419145129956,322.8419145129956,322.8419145129956,,325.8121171649982,,,,,,,,,,,,,,,,,,,,,,,,,,,,,,left,1.0,2.9629014669990283,,,,,sub-015,1,random_dot,92.59694464804392,
left,left,36.0,0.0,18.0,left,1.0,2.043988541001454,,accuracy,space,3.764918551998562,,,,,,0.0,0.0,0.0,0.0,18.0,0.0,36.0,0.0,325.8218382479972,,,,,,,,,325.8126309559957,326.1693336909957,326.9693276179969,326.9555903349974,326.9561061200002,326.9693276179969,326.9693276179969,326.9693276179969,,329.0231853029982,,,,,,,,,,,,,,,,,,,,,,,,,,,,,,left,1.0,2.043988541001454,,,,,sub-015,1,random_dot,92.59694464804392,
right,right,37.0,1.0,18.0,right,1.0,1.526469934004126,,accuracy,space,3.764918551998562,,,,,,0.0,0.0,0.0,0.0,18.0,1.0,37.0,1.0,329.0338638329995,,,,,,,,,329.02365013899544,329.379827990997,330.18564085399703,330.1698597319992,330.1705741699989,330.18564085399703,330.18564085399703,330.18564085399703,,331.72210390399414,,,,,,,,,,,,,,,,,,,,,,,,,,,,,,right,1.0,1.526469934004126,,,,,sub-015,1,random_dot,92.59694464804392,
right,right,38.0,0.0,19.0,right,1.0,1.906317950000812,,accuracy,space,3.764918551998562,,,,,,0.0,0.0,0.0,0.0,19.0,0.0,38.0,1.0,331.7334430339979,,,,,,,,,331.7226062490008,332.52068291400064,333.3175280289943,333.3059557489978,333.30657387999963,333.3175280289943,333.3175280289943,333.3175280289943,,335.2333613269948,,,,,,,,,,,,,,,,,,,,,,,,,,,,,,right,1.0,1.906317950000812,,,,,sub-015,1,random_dot,92.59694464804392,
left,left,39.0,1.0,19.0,left,1.0,1.943003186999704,,accuracy,space,3.764918551998562,,,,,,0.0,0.0,0.0,0.0,19.0,1.0,39.0,0.0,335.2438344059992,,,,,,,,,335.2338428879957,335.3289027770006,336.131057902996,336.1201375919991,336.1206075809969,336.131057902996,336.131057902996,336.131057902996,,338.0854155479974,,,,,,,,,,,,,,,,,,,,,,,,,,,,,,left,1.0,1.943003186999704,,,,,sub-015,1,random_dot,92.59694464804392,
right,right,40.0,0.0,20.0,right,1.0,1.6082332480000332,,accuracy,space,3.764918551998562,,,,,,0.0,0.0,0.0,0.0,20.0,0.0,40.0,1.0,338.1027562099989,,,,,,,,,338.08605459099635,338.18738846599445,338.99092394499894,338.97850298099365,338.97918427499826,338.99092394499894,338.99092394499894,338.99092394499894,,340.61432570199395,,,,,,,,,,,,,,,,,,,,,,,,,,,,,,right,1.0,1.6082332480000332,,,,,sub-015,1,random_dot,92.59694464804392,
left,left,41.0,1.0,20.0,left,1.0,3.255926712998189,,accuracy,space,3.764918551998562,,,,,,0.0,0.0,0.0,0.0,20.0,1.0,41.0,0.0,340.62186539999675,,,,,,,,,340.61503564099985,341.4105685589966,342.2048491719979,342.19433069099614,342.19479656799376,342.2048491719979,342.2048491719979,342.2048491719979,,345.46859738700005,,,,,,,,,,,,,,,,,,,,,,,,,,,,,,left,1.0,3.255926712998189,,,,,sub-015,1,random_dot,92.59694464804392,
left,left,42.0,0.0,21.0,left,1.0,2.2034440700008417,,accuracy,space,3.764918551998562,,,,,,0.0,0.0,0.0,0.0,21.0,0.0,42.0,0.0,345.4786857949948,,,,,,,,,345.46905063699523,346.2866098089944,347.08173869099846,347.07087634899653,347.0713450779949,347.08173869099846,347.08173869099846,347.08173869099846,,349.2993556879956,,,,,,,,,,,,,,,,,,,,,,,,,,,,,,left,1.0,2.2034440700008417,,,,,sub-015,1,random_dot,92.59694464804392,
right,right,43.0,1.0,21.0,right,1.0,1.2488762809953189,,accuracy,space,3.764918551998562,,,,,,0.0,0.0,0.0,0.0,21.0,1.0,43.0,1.0,349.3197148379986,,,,,,,,,349.3007222149972,349.6617495639948,350.46866758899705,350.4538502009964,350.4544902599955,350.46866758899705,350.46866758899705,350.46866758899705,,351.7355095979947,,,,,,,,,,,,,,,,,,,,,,,,,,,,,,right,1.0,1.2488762809953189,,,,,sub-015,1,random_dot,92.59694464804392,
left,left,44.0,0.0,22.0,left,1.0,3.1101486340048723,,accuracy,space,3.764918551998562,,,,,,0.0,0.0,0.0,0.0,22.0,0.0,44.0,0.0,351.75048018199595,,,,,,,,,351.73649787599425,351.8425654199964,352.6416607680003,352.6297197460008,352.630245028995,352.6416607680003,352.6416607680003,352.6416607680003,,355.75831795299746,,,,,,,,,,,,,,,,,,,,,,,,,,,,,,left,1.0,3.1101486340048723,,,,,sub-015,1,random_dot,92.59694464804392,
right,right,45.0,1.0,22.0,right,1.0,4.070486814001924,,accuracy,space,3.764918551998562,,,,,,0.0,0.0,0.0,0.0,22.0,1.0,45.0,1.0,355.7685481619992,,,,,,,,,355.7587538939988,356.112124043997,356.91884970200044,356.9047791509947,356.9052455109995,356.91884970200044,356.91884970200044,356.91884970200044,,360.9947345929977,,,,,,,,,,,,,,,,,,,,,,,,,,,,,,right,1.0,4.070486814001924,,,,,sub-015,1,random_dot,92.59694464804392,
right,right,46.0,0.0,23.0,left,0.0,4.194589614002325,,accuracy,space,3.764918551998562,,,,,,0.0,0.0,0.0,0.0,23.0,0.0,46.0,1.0,361.00559303499904,,,,,,,,,360.995239484997,361.34016148799856,362.1410968459968,362.1291842189967,362.1300755919947,362.1410968459968,362.1410968459968,362.1410968459968,,366.3492994299959,,,,,,,,,,,,,,,,,,,,,,,,,,,,,,left,0.0,4.194589614002325,,,,,sub-015,1,random_dot,92.59694464804392,
left,left,47.0,1.0,23.0,right,0.0,4.538299640997138,,accuracy,space,3.764918551998562,,,,,,0.0,0.0,0.0,0.0,23.0,1.0,47.0,0.0,366.360776124995,,,,,,,,,366.3498417019946,366.4547052659982,367.26068419099465,367.24409584599925,367.2446657059991,367.26068419099465,367.26068419099465,367.26068419099465,,371.81397727999865,,,,,,,,,,,,,,,,,,,,,,,,,,,,,,right,0.0,4.538299640997138,,,,,sub-015,1,random_dot,92.59694464804392,
left,left,48.0,0.0,24.0,left,1.0,3.603262493998045,,accuracy,space,3.764918551998562,,,,,,0.0,0.0,0.0,0.0,24.0,0.0,48.0,0.0,371.8262279569972,,,,,,,,,371.8146750759988,372.6116260630006,373.4196524279978,373.3979369299996,373.39939266899455,373.4196524279978,373.4196524279978,373.4196524279978,,377.03478312899824,,,,,,,,,,,,,,,,,,,,,,,,,,,,,,left,1.0,3.603262493998045,,,,,sub-015,1,random_dot,92.59694464804392,
right,right,49.0,1.0,24.0,right,1.0,3.669142013997771,,accuracy,space,3.764918551998562,,,,,,0.0,0.0,0.0,0.0,24.0,1.0,49.0,1.0,377.044699045,,,,,,,,,377.0352659790005,377.8273658510007,378.6234383109986,378.6118347089941,378.6127164789941,378.6234383109986,378.6234383109986,378.6234383109986,,382.3092465609952,,,,,,,,,,,,,,,,,,,,,,,,,,,,,,right,1.0,3.669142013997771,,,,,sub-015,1,random_dot,92.59694464804392,
right,right,50.0,0.0,25.0,right,1.0,2.826727131003281,,accuracy,space,3.764918551998562,,,,,,0.0,0.0,0.0,0.0,25.0,0.0,50.0,1.0,382.3220519929964,,,,,,,,,382.3099926229988,382.4008913039943,383.2009158329965,383.189987891994,383.1904680499938,383.2009158329965,383.2009158329965,383.2009158329965,,386.03946270400047,,,,,,,,,,,,,,,,,,,,,,,,,,,,,,right,1.0,2.826727131003281,,,,,sub-015,1,random_dot,92.59694464804392,
left,left,51.0,1.0,25.0,left,1.0,3.409895046999736,,accuracy,space,3.764918551998562,,,,,,0.0,0.0,0.0,0.0,25.0,1.0,51.0,0.0,386.050058285,,,,,,,,,386.039933797998,386.1462137069975,386.94683464300033,386.9362379739978,386.9367111869942,386.94683464300033,386.94683464300033,386.94683464300033,,390.3703073729994,,,,,,,,,,,,,,,,,,,,,,,,,,,,,,left,1.0,3.409895046999736,,,,,sub-015,1,random_dot,92.59694464804392,
left,left,52.0,0.0,26.0,left,1.0,3.098587504995521,,accuracy,space,3.764918551998562,,,,,,0.0,0.0,0.0,0.0,26.0,0.0,52.0,0.0,390.3809155599956,,,,,,,,,390.3707699189981,391.571305696998,392.3798638849985,392.369882316998,392.3703502989956,392.3798638849985,392.3798638849985,392.3798638849985,,395.48315593299776,,,,,,,,,,,,,,,,,,,,,,,,,,,,,,left,1.0,3.098587504995521,,,,,sub-015,1,random_dot,92.59694464804392,
right,right,53.0,1.0,26.0,right,1.0,1.5437886119980249,,accuracy,space,3.764918551998562,,,,,,0.0,0.0,0.0,0.0,26.0,1.0,53.0,1.0,395.4933559549973,,,,,,,,,395.4836822279976,396.2753109309997,397.07324787799735,397.0604850659947,397.0610015229977,397.07324787799735,397.07324787799735,397.07324787799735,,398.622744332999,,,,,,,,,,,,,,,,,,,,,,,,,,,,,,right,1.0,1.5437886119980249,,,,,sub-015,1,random_dot,92.59694464804392,
right,right,54.0,0.0,27.0,right,1.0,1.4835217150030076,,accuracy,space,3.764918551998562,,,,,,0.0,0.0,0.0,0.0,27.0,0.0,54.0,1.0,398.6390939569974,,,,,,,,,398.6236542549959,398.7304987259995,399.5332212259964,399.5204586129985,399.5211599369941,399.5332212259964,399.5332212259964,399.5332212259964,,401.0245758279998,,,,,,,,,,,,,,,,,,,,,,,,,,,,,,right,1.0,1.4835217150030076,,,,,sub-015,1,random_dot,92.59694464804392,
left,left,55.0,1.0,27.0,left,1.0,3.7325246649998007,,accuracy,space,3.764918551998562,,,,,,0.0,0.0,0.0,0.0,27.0,1.0,55.0,0.0,401.0510612949947,,,,,,,,,401.0250377359989,401.3770827240005,402.183616878996,402.1718657409947,402.17240206399583,402.183616878996,402.183616878996,402.183616878996,,405.9250997389972,,,,,,,,,,,,,,,,,,,,,,,,,,,,,,left,1.0,3.7325246649998007,,,,,sub-015,1,random_dot,92.59694464804392,
right,right,56.0,0.0,28.0,right,1.0,2.16110738000134,,accuracy,space,3.764918551998562,,,,,,0.0,0.0,0.0,0.0,28.0,0.0,56.0,1.0,405.935685204,,,,,,,,,405.9254947320005,407.1280181309994,407.9229254300008,407.9118892999977,407.912576363,407.9229254300008,407.9229254300008,407.9229254300008,,410.0926219119938,,,,,,,,,,,,,,,,,,,,,,,,,,,,,,right,1.0,2.16110738000134,,,,,sub-015,1,random_dot,92.59694464804392,
left,left,57.0,1.0,28.0,left,1.0,1.481375224000658,,accuracy,space,3.764918551998562,,,,,,0.0,0.0,0.0,0.0,28.0,1.0,57.0,0.0,410.1032741569943,,,,,,,,,410.0930866269992,410.4355896979978,411.2511783769951,411.23509168099554,411.2358251879996,411.2511783769951,411.2511783769951,411.2511783769951,,412.7383009740006,,,,,,,,,,,,,,,,,,,,,,,,,,,,,,left,1.0,1.481375224000658,,,,,sub-015,1,random_dot,92.59694464804392,
left,left,58.0,0.0,29.0,left,1.0,2.946178404999955,,accuracy,space,3.764918551998562,,,,,,0.0,0.0,0.0,0.0,29.0,0.0,58.0,0.0,412.7477298689992,,,,,,,,,412.738901343997,412.8338847999985,413.6301508510005,413.61889090999466,413.6194086809992,413.6301508510005,413.6301508510005,413.6301508510005,,416.5910882639946,,,,,,,,,,,,,,,,,,,,,,,,,,,,,,left,1.0,2.946178404999955,,,,,sub-015,1,random_dot,92.59694464804392,
right,right,59.0,1.0,29.0,right,1.0,1.838297499998589,,accuracy,space,3.764918551998562,,,,,,0.0,0.0,0.0,0.0,29.0,1.0,59.0,1.0,416.600626266998,,,,,,,,,416.5916377129979,417.3841884489957,418.17908475999866,418.1686377149963,418.1691238119965,418.17908475999866,418.17908475999866,418.17908475999866,,420.0270059039976,,,,,,,,,,,,,,,,,,,,,,,,,,,,,,right,1.0,1.838297499998589,,,,,sub-015,1,random_dot,92.59694464804392,
,,0.0,0.0,0.0,,,,,accuracy,space,3.764918551998562,,,,,,0.0,0.0,0.0,0.0,,,,,,,,,,,,,,,,,,,,,,,,,,,,,,,,,,,,,,,,,,,,,,,,,,,,,,,,,,,,sub-015,1,random_dot,92.59694464804392,
left,left,0.0,0.0,0.0,left,1.0,3.874356585998612,,speed,space,13.87097498300136,,,,,,0.0,1.0,1.0,1.0,0.0,0.0,0.0,0.0,433.9619480830006,,,,,,,,,433.9501447500006,434.737441018995,435.5512447029978,435.53576586800045,435.5366477279968,435.5512447029978,435.5512447029978,435.5512447029978,,439.4417143679966,,,,,,,,,,,,,,,,,,,,,,,420.04714253400016,420.0579672149979,420.0579672149979,433.93896597799903,space,13.87097498300136,,left,1.0,3.874356585998612,,,,,sub-015,1,random_dot,92.59694464804392,
right,right,1.0,1.0,0.0,right,1.0,0.9994301780025124,,speed,space,13.87097498300136,,,,,,0.0,1.0,1.0,1.0,0.0,1.0,1.0,1.0,439.4542947640002,,,,,,,,,439.4424071059984,439.787730141994,440.5929825239946,440.5784263969981,440.57918997699744,440.5929825239946,440.5929825239946,440.5929825239946,,441.5996601139996,,,,,,,,,,,,,,,,,,,,,,,,,,,,,,right,1.0,0.9994301780025124,,,,,sub-015,1,random_dot,92.59694464804392,
left,left,2.0,0.0,1.0,left,1.0,0.3179449829985969,,speed,space,13.87097498300136,,,,,,0.0,1.0,1.0,1.0,1.0,0.0,2.0,0.0,441.6117422809984,,,,,,,,,441.600213851998,441.7013788139957,442.5175012889959,442.5011600039943,442.5015982179975,442.5175012889959,442.5175012889959,442.5175012889959,,442.840955806998,,,,,,,,,,,,,,,,,,,,,,,,,,,,,,left,1.0,0.3179449829985969,,,,,sub-015,1,random_dot,92.59694464804392,
right,right,3.0,1.0,1.0,right,1.0,1.6292722289945232,,speed,space,13.87097498300136,,,,,,0.0,1.0,1.0,1.0,1.0,1.0,3.0,1.0,442.8527797439965,,,,,,,,,442.84155404099874,443.6377504419943,444.4396512219973,444.4225791049976,444.4232884059966,444.4396512219973,444.4396512219973,444.4396512219973,,446.0832527159946,,,,,,,,,,,,,,,,,,,,,,,,,,,,,,right,1.0,1.6292722289945232,,,,,sub-015,1,random_dot,92.59694464804392,
left,left,4.0,0.0,2.0,left,1.0,1.2000324049949995,,speed,space,13.87097498300136,,,,,,0.0,1.0,1.0,1.0,2.0,0.0,4.0,0.0,446.0954280749938,,,,,,,,,446.0840397279972,446.88626536399534,447.68520721299865,447.6727837229992,447.6735370940005,447.68520721299865,447.68520721299865,447.68520721299865,,448.903781768,,,,,,,,,,,,,,,,,,,,,,,,,,,,,,left,1.0,1.2000324049949995,,,,,sub-015,1,random_dot,92.59694464804392,
right,right,5.0,1.0,2.0,right,1.0,0.9323453739998512,,speed,space,13.87097498300136,,,,,,0.0,1.0,1.0,1.0,2.0,1.0,5.0,1.0,448.9143045769961,,,,,,,,,448.9042941879961,449.7032758739952,450.5055309849995,450.4950150769946,450.49554884799727,450.5055309849995,450.5055309849995,450.5055309849995,,451.4515241439949,,,,,,,,,,,,,,,,,,,,,,,,,,,,,,right,1.0,0.9323453739998512,,,,,sub-015,1,random_dot,92.59694464804392,
right,right,6.0,0.0,3.0,right,1.0,1.846056726993993,,speed,space,13.87097498300136,,,,,,0.0,1.0,1.0,1.0,3.0,0.0,6.0,1.0,451.462341501996,,,,,,,,,451.45200434999424,451.5522450680001,452.35008870999445,452.3403423149939,452.3408235349998,452.35008870999445,452.35008870999445,452.35008870999445,,454.20195771499857,,,,,,,,,,,,,,,,,,,,,,,,,,,,,,right,1.0,1.846056726993993,,,,,sub-015,1,random_dot,92.59694464804392,
left,left,7.0,1.0,3.0,left,1.0,1.0171919889980927,,speed,space,13.87097498300136,,,,,,0.0,1.0,1.0,1.0,3.0,1.0,7.0,0.0,454.21328635700047,,,,,,,,,454.2026031389978,455.4011769019999,456.2005483689936,456.1888047569955,456.1895330479965,456.2005483689936,456.2005483689936,456.2005483689936,,457.221619142998,,,,,,,,,,,,,,,,,,,,,,,,,,,,,,left,1.0,1.0171919889980927,,,,,sub-015,1,random_dot,92.59694464804392,
left,left,8.0,0.0,4.0,left,1.0,1.1001134129983257,,speed,space,13.87097498300136,,,,,,0.0,1.0,1.0,1.0,4.0,0.0,8.0,0.0,457.2330157319957,,,,,,,,,457.22229189399513,457.56908043599833,458.3787735529986,458.3688028909965,458.36927521299367,458.3787735529986,458.3787735529986,458.3787735529986,,459.4907198069996,,,,,,,,,,,,,,,,,,,,,,,,,,,,,,left,1.0,1.1001134129983257,,,,,sub-015,1,random_dot,92.59694464804392,
right,right,9.0,1.0,4.0,right,1.0,0.9279315200037672,,speed,space,13.87097498300136,,,,,,0.0,1.0,1.0,1.0,4.0,1.0,9.0,1.0,459.50278784799593,,,,,,,,,459.4912247579996,460.69395747999806,461.517119281998,461.50137862200063,461.5020976829983,461.517119281998,461.517119281998,461.517119281998,,462.45451721899735,,,,,,,,,,,,,,,,,,,,,,,,,,,,,,right,1.0,0.9279315200037672,,,,,sub-015,1,random_dot,92.59694464804392,
right,right,10.0,0.0,5.0,right,1.0,1.4580564139978378,,speed,space,13.87097498300136,,,,,,0.0,1.0,1.0,1.0,5.0,0.0,10.0,1.0,462.4646139939941,,,,,,,,,462.4549705809986,463.2574145670005,464.05667322899535,464.0462599639941,464.0467735509956,464.05667322899535,464.05667322899535,464.05667322899535,,465.520436312996,,,,,,,,,,,,,,,,,,,,,,,,,,,,,,right,1.0,1.4580564139978378,,,,,sub-015,1,random_dot,92.59694464804392,
left,left,11.0,1.0,5.0,left,1.0,0.8608397730058641,,speed,space,13.87097498300136,,,,,,0.0,1.0,1.0,1.0,5.0,1.0,11.0,0.0,465.5304746719994,,,,,,,,,465.5208827229944,466.7258908980002,467.5204608159984,467.5100144169992,467.5105408809977,467.5204608159984,467.5204608159984,467.5204608159984,,468.3954457709988,,,,,,,,,,,,,,,,,,,,,,,,,,,,,,left,1.0,0.8608397730058641,,,,,sub-015,1,random_dot,92.59694464804392,
right,right,12.0,0.0,6.0,left,0.0,0.8139358280022861,,speed,space,13.87097498300136,,,,,,0.0,1.0,1.0,1.0,6.0,0.0,12.0,1.0,468.40618441900006,,,,,,,,,468.39593328099727,469.20080828999926,470.0005402639945,469.98455155799456,469.9852438390008,470.0005402639945,470.0005402639945,470.0005402639945,,470.82084809599473,,,,,,,,,,,,,,,,,,,,,,,,,,,,,,left,0.0,0.8139358280022861,,,,,sub-015,1,random_dot,92.59694464804392,
left,left,13.0,1.0,6.0,left,1.0,1.4479989930041484,,speed,space,13.87097498300136,,,,,,0.0,1.0,1.0,1.0,6.0,1.0,13.0,0.0,470.8322157289949,,,,,,,,,470.82129862500005,470.9165104939966,471.7156853079941,471.7038803079995,471.7043711079969,471.7156853079941,471.7156853079941,471.7156853079941,,473.1754965219952,,,,,,,,,,,,,,,,,,,,,,,,,,,,,,left,1.0,1.4479989930041484,,,,,sub-015,1,random_dot,92.59694464804392,
right,right,14.0,0.0,7.0,right,1.0,1.22582389699528,,speed,space,13.87097498300136,,,,,,0.0,1.0,1.0,1.0,7.0,0.0,14.0,1.0,473.1888047829998,,,,,,,,,473.1759830049996,473.5199926979985,474.3226081019966,474.310556395998,474.31136937399424,474.3226081019966,474.3226081019966,474.3226081019966,,475.5707301509974,,,,,,,,,,,,,,,,,,,,,,,,,,,,,,right,1.0,1.22582389699528,,,,,sub-015,1,random_dot,92.59694464804392,
left,left,15.0,1.0,7.0,left,1.0,2.2417032759985887,,speed,space,13.87097498300136,,,,,,0.0,1.0,1.0,1.0,7.0,1.0,15.0,0.0,475.582563623997,,,,,,,,,475.57124902199575,476.3687356329974,477.163063647,477.1522937389964,477.15275829599705,477.163063647,477.163063647,477.163063647,,479.415453980997,,,,,,,,,,,,,,,,,,,,,,,,,,,,,,left,1.0,2.2417032759985887,,,,,sub-015,1,random_dot,92.59694464804392,
right,right,16.0,0.0,8.0,right,1.0,2.561215893001645,,speed,space,13.87097498300136,,,,,,0.0,1.0,1.0,1.0,8.0,0.0,16.0,1.0,479.4250931619972,,,,,,,,,479.4159273119949,479.5173877549969,480.3152849479957,480.30352400099946,480.3039993829952,480.3152849479957,480.3152849479957,480.3152849479957,,482.8858396020005,,,,,,,,,,,,,,,,,,,,,,,,,,,,,,right,1.0,2.561215893001645,,,,,sub-015,1,random_dot,92.59694464804392,
left,left,17.0,1.0,8.0,left,1.0,1.967371976999857,,speed,space,13.87097498300136,,,,,,0.0,1.0,1.0,1.0,8.0,1.0,17.0,0.0,482.9001647749974,,,,,,,,,482.8862975429947,482.9853230320005,483.7889838240008,483.7755958179987,483.7761144569959,483.7889838240008,483.7889838240008,483.7889838240008,,485.7689119770002,,,,,,,,,,,,,,,,,,,,,,,,,,,,,,left,1.0,1.967371976999857,,,,,sub-015,1,random_dot,92.59694464804392,
right,right,18.0,0.0,9.0,right,1.0,1.639656063001894,,speed,space,13.87097498300136,,,,,,0.0,1.0,1.0,1.0,9.0,0.0,18.0,1.0,485.7800097750005,,,,,,,,,485.769358310994,486.1173488429995,486.9168589469991,486.9032811319994,486.90378557599615,486.9168589469991,486.9168589469991,486.9168589469991,,488.5684414779971,,,,,,,,,,,,,,,,,,,,,,,,,,,,,,right,1.0,1.639656063001894,,,,,sub-015,1,random_dot,92.59694464804392,
left,left,19.0,1.0,9.0,left,1.0,1.4540965790001792,,speed,space,13.87097498300136,,,,,,0.0,1.0,1.0,1.0,9.0,1.0,19.0,0.0,488.5782515729952,,,,,,,,,488.56890340499376,488.666256520999,489.46588489699934,489.4515202949988,489.4520048689956,489.46588489699934,489.46588489699934,489.46588489699934,,490.93229120299657,,,,,,,,,,,,,,,,,,,,,,,,,,,,,,left,1.0,1.4540965790001792,,,,,sub-015,1,random_dot,92.59694464804392,
left,left,20.0,0.0,10.0,left,1.0,2.91596834599477,,speed,space,13.87097498300136,,,,,,0.0,1.0,1.0,1.0,10.0,0.0,20.0,0.0,490.9424923989936,,,,,,,,,490.93275986499793,491.7257589199944,492.5200743469977,492.5096796229991,492.5101766119988,492.5200743469977,492.5200743469977,492.5200743469977,,495.4398770810003,,,,,,,,,,,,,,,,,,,,,,,,,,,,,,left,1.0,2.91596834599477,,,,,sub-015,1,random_dot,92.59694464804392,
right,right,21.0,1.0,10.0,right,1.0,3.55298101399967,,speed,space,13.87097498300136,,,,,,0.0,1.0,1.0,1.0,10.0,1.0,21.0,1.0,495.45085454999935,,,,,,,,,495.4405093940004,496.2319146160007,497.0293027839944,497.0180417320007,497.0185102499963,497.0293027839944,497.0293027839944,497.0293027839944,,500.5857991640005,,,,,,,,,,,,,,,,,,,,,,,,,,,,,,right,1.0,3.55298101399967,,,,,sub-015,1,random_dot,92.59694464804392,
right,right,22.0,0.0,11.0,right,1.0,2.83339958400029,,speed,space,13.87097498300136,,,,,,0.0,1.0,1.0,1.0,11.0,0.0,22.0,1.0,500.5969954559987,,,,,,,,,500.5864717629957,500.9501555749957,501.7491094759971,501.7375768119964,501.7383061739965,501.7491094759971,501.7491094759971,501.7491094759971,,504.58668772599776,,,,,,,,,,,,,,,,,,,,,,,,,,,,,,right,1.0,2.83339958400029,,,,,sub-015,1,random_dot,92.59694464804392,
left,left,23.0,1.0,11.0,left,1.0,1.2869531089963857,,speed,space,13.87097498300136,,,,,,0.0,1.0,1.0,1.0,11.0,1.0,23.0,0.0,504.5981469189937,,,,,,,,,504.5874020650008,505.3836487699955,506.1779690969997,506.1679599029958,506.1684292449936,506.1779690969997,506.1779690969997,506.1779690969997,,507.4699815509957,,,,,,,,,,,,,,,,,,,,,,,,,,,,,,left,1.0,1.2869531089963857,,,,,sub-015,1,random_dot,92.59694464804392,
left,left,24.0,0.0,12.0,right,0.0,1.2407237670049651,,speed,space,13.87097498300136,,,,,,0.0,1.0,1.0,1.0,12.0,0.0,24.0,0.0,507.48029868799495,,,,,,,,,507.4704662219956,507.8286596909966,508.6269041060005,508.6167905349939,508.6173161129991,508.6269041060005,508.6269041060005,508.6269041060005,,509.8847257129965,,,,,,,,,,,,,,,,,,,,,,,,,,,,,,right,0.0,1.2407237670049651,,,,,sub-015,1,random_dot,92.59694464804392,
right,right,25.0,1.0,12.0,right,1.0,1.4644090399960987,,speed,space,13.87097498300136,,,,,,0.0,1.0,1.0,1.0,12.0,1.0,25.0,1.0,509.8922929679975,,,,,,,,,509.885251189,509.9819936959975,510.7793041019977,510.768395703999,510.76886677199946,510.7793041019977,510.7793041019977,510.7793041019977,,512.2538995759969,,,,,,,,,,,,,,,,,,,,,,,,,,,,,,right,1.0,1.4644090399960987,,,,,sub-015,1,random_dot,92.59694464804392,
left,left,26.0,0.0,13.0,left,1.0,2.488149287004489,,speed,space,13.87097498300136,,,,,,0.0,1.0,1.0,1.0,13.0,0.0,26.0,0.0,512.264744262,,,,,,,,,512.2543470839955,512.3523375269942,513.1489816969988,513.1388189939971,513.1392993049958,513.1489816969988,513.1489816969988,513.1489816969988,,515.6475935069975,,,,,,,,,,,,,,,,,,,,,,,,,,,,,,left,1.0,2.488149287004489,,,,,sub-015,1,random_dot,92.59694464804392,
right,right,27.0,1.0,13.0,right,1.0,1.0116611709963763,,speed,space,13.87097498300136,,,,,,0.0,1.0,1.0,1.0,13.0,1.0,27.0,1.0,515.6566455599968,,,,,,,,,515.6480449329974,515.741923141999,516.5437153859966,516.5293304989973,516.5302787279943,516.5437153859966,516.5437153859966,516.5437153859966,,517.5603282519951,,,,,,,,,,,,,,,,,,,,,,,,,,,,,,right,1.0,1.0116611709963763,,,,,sub-015,1,random_dot,92.59694464804392,
right,right,28.0,0.0,14.0,right,1.0,1.001027783000609,,speed,space,13.87097498300136,,,,,,0.0,1.0,1.0,1.0,14.0,0.0,28.0,1.0,517.5718212840002,,,,,,,,,517.5610453599948,517.6598535939993,518.4747215959942,518.4538390929956,518.4545817580001,518.4747215959942,518.4747215959942,518.4747215959942,,519.4880832039998,,,,,,,,,,,,,,,,,,,,,,,,,,,,,,right,1.0,1.001027783000609,,,,,sub-015,1,random_dot,92.59694464804392,
left,left,29.0,1.0,14.0,left,1.0,1.8480221829959191,,speed,space,13.87097498300136,,,,,,0.0,1.0,1.0,1.0,14.0,1.0,29.0,0.0,519.4980598389957,,,,,,,,,519.4885467799977,520.2818171909967,521.0998777329951,521.0841510190003,521.0848437869936,521.0998777329951,521.0998777329951,521.0998777329951,,522.952611146,,,,,,,,,,,,,,,,,,,,,,,,,,,,,,left,1.0,1.8480221829959191,,,,,sub-015,1,random_dot,92.59694464804392,
left,left,30.0,0.0,15.0,right,0.0,1.0097418280056445,,speed,space,13.87097498300136,,,,,,0.0,1.0,1.0,1.0,15.0,0.0,30.0,0.0,522.9635331099998,,,,,,,,,522.9531797210002,523.7491986789973,524.5498052809999,524.5369158129979,524.5374260579993,524.5498052809999,524.5498052809999,524.5498052809999,,525.5690623599949,,,,,,,,,,,,,,,,,,,,,,,,,,,,,,right,0.0,1.0097418280056445,,,,,sub-015,1,random_dot,92.59694464804392,
right,right,31.0,1.0,15.0,right,1.0,0.9371140630028094,,speed,space,13.87097498300136,,,,,,0.0,1.0,1.0,1.0,15.0,1.0,31.0,1.0,525.577868702996,,,,,,,,,525.569468968999,525.9255604200007,526.7268199159953,526.716236084998,526.7168321369973,526.7268199159953,526.7268199159953,526.7268199159953,,527.6764308019992,,,,,,,,,,,,,,,,,,,,,,,,,,,,,,right,1.0,0.9371140630028094,,,,,sub-015,1,random_dot,92.59694464804392,
left,left,32.0,0.0,16.0,left,1.0,1.6546253159976914,,speed,space,13.87097498300136,,,,,,0.0,1.0,1.0,1.0,16.0,0.0,32.0,0.0,527.6881711620008,,,,,,,,,527.6769099979938,528.4842501559979,529.2797152809944,529.2679615019952,529.2684421960003,529.2797152809944,529.2797152809944,529.2797152809944,,530.9507434400002,,,,,,,,,,,,,,,,,,,,,,,,,,,,,,left,1.0,1.6546253159976914,,,,,sub-015,1,random_dot,92.59694464804392,
right,right,33.0,1.0,16.0,right,1.0,1.6364903799985768,,speed,space,13.87097498300136,,,,,,0.0,1.0,1.0,1.0,16.0,1.0,33.0,1.0,530.957948037998,,,,,,,,,530.9513537549938,532.1665815579981,532.9623476369961,532.9515950669957,532.9520816339937,532.9623476369961,532.9623476369961,532.9623476369961,,534.6029681349974,,,,,,,,,,,,,,,,,,,,,,,,,,,,,,right,1.0,1.6364903799985768,,,,,sub-015,1,random_dot,92.59694464804392,
left,left,34.0,0.0,17.0,left,1.0,1.942988721995789,,speed,space,13.87097498300136,,,,,,0.0,1.0,1.0,1.0,17.0,0.0,34.0,0.0,534.6138770269972,,,,,,,,,534.603543489,535.8086844819991,536.6161555769941,536.6021627309965,536.6026419109985,536.6161555769941,536.6161555769941,536.6161555769941,,538.5696387629941,,,,,,,,,,,,,,,,,,,,,,,,,,,,,,left,1.0,1.942988721995789,,,,,sub-015,1,random_dot,92.59694464804392,
right,right,35.0,1.0,17.0,right,1.0,1.6521327230002498,,speed,space,13.87097498300136,,,,,,0.0,1.0,1.0,1.0,17.0,1.0,35.0,1.0,538.5808305449973,,,,,,,,,538.5701190389955,538.6822965049942,539.4786108059998,539.467836621996,539.4683162849979,539.4786108059998,539.4786108059998,539.4786108059998,,541.1444499589998,,,,,,,,,,,,,,,,,,,,,,,,,,,,,,right,1.0,1.6521327230002498,,,,,sub-015,1,random_dot,92.59694464804392,
left,left,36.0,0.0,18.0,right,0.0,2.2264643219969003,,speed,space,13.87097498300136,,,,,,0.0,1.0,1.0,1.0,18.0,0.0,36.0,0.0,541.155514661994,,,,,,,,,541.1449801249983,542.3415880059983,543.1382020569945,543.126976268999,543.1278458649977,543.1382020569945,543.1382020569945,543.1382020569945,,545.3765303919936,,,,,,,,,,,,,,,,,,,,,,,,,,,,,,right,0.0,2.2264643219969003,,,,,sub-015,1,random_dot,92.59694464804392,
right,right,37.0,1.0,18.0,right,1.0,2.283164347005368,,speed,space,13.87097498300136,,,,,,0.0,1.0,1.0,1.0,18.0,1.0,37.0,1.0,545.3885088909956,,,,,,,,,545.3771853889994,546.5749806769963,547.3774955650006,547.3670710129954,547.3676235739986,547.3774955650006,547.3774955650006,547.3774955650006,,549.6719962719944,,,,,,,,,,,,,,,,,,,,,,,,,,,,,,right,1.0,2.283164347005368,,,,,sub-015,1,random_dot,92.59694464804392,
left,left,38.0,0.0,19.0,right,0.0,3.3493571750004776,,speed,space,13.87097498300136,,,,,,0.0,1.0,1.0,1.0,19.0,0.0,38.0,0.0,549.6830759009972,,,,,,,,,549.6724426219953,550.0261121539952,550.8283004990008,550.816843869994,550.817497608994,550.8283004990008,550.8283004990008,550.8283004990008,,554.1898020129956,,,,,,,,,,,,,,,,,,,,,,,,,,,,,,right,0.0,3.3493571750004776,,,,,sub-015,1,random_dot,92.59694464804392,
right,right,39.0,1.0,19.0,left,0.0,2.916089351005212,,speed,space,13.87097498300136,,,,,,0.0,1.0,1.0,1.0,19.0,1.0,39.0,1.0,554.2008479919969,,,,,,,,,554.190260409996,554.5417741799974,555.3372796409967,555.3259836549987,555.3267650179987,555.3372796409967,555.3372796409967,555.3372796409967,,558.2594724169976,,,,,,,,,,,,,,,,,,,,,,,,,,,,,,left,0.0,2.916089351005212,,,,,sub-015,1,random_dot,92.59694464804392,
right,right,40.0,0.0,20.0,right,1.0,5.277793749999546,,speed,space,13.87097498300136,,,,,,0.0,1.0,1.0,1.0,20.0,0.0,40.0,1.0,558.2693870389994,,,,,,,,,558.2598259339939,559.0601946280003,559.8627327619979,559.8504357759957,559.850950631997,559.8627327619979,559.8627327619979,559.8627327619979,564.8525004629992,565.1472785559963,,,,,,,,,,,,,,,,,,,,,,,,,,,,,,right,1.0,5.277793749999546,,,,,sub-015,1,random_dot,92.59694464804392,
left,left,41.0,1.0,20.0,right,0.0,1.2245154599950183,,speed,space,13.87097498300136,,,,,,0.0,1.0,1.0,1.0,20.0,1.0,41.0,0.0,565.1565938309941,,,,,,,,,565.1477496160005,565.942104967995,566.7429621139963,566.7329940049967,566.7335555760001,566.7429621139963,566.7429621139963,566.7429621139963,,567.9842020859942,,,,,,,,,,,,,,,,,,,,,,,,,,,,,,right,0.0,1.2245154599950183,,,,,sub-015,1,random_dot,92.59694464804392,
right,right,42.0,0.0,21.0,left,0.0,1.1717477530037286,,speed,space,13.87097498300136,,,,,,0.0,1.0,1.0,1.0,21.0,0.0,42.0,1.0,567.9919228709987,,,,,,,,,567.9848929649961,568.7815998169972,569.5824943240004,569.5683785779984,569.5688986210007,569.5824943240004,569.5824943240004,569.5824943240004,,570.7601563619974,,,,,,,,,,,,,,,,,,,,,,,,,,,,,,left,0.0,1.1717477530037286,,,,,sub-015,1,random_dot,92.59694464804392,
left,left,43.0,1.0,21.0,left,1.0,1.1965908120037057,,speed,space,13.87097498300136,,,,,,0.0,1.0,1.0,1.0,21.0,1.0,43.0,0.0,570.7698189629955,,,,,,,,,570.7607210059941,570.8579226739967,571.6602283009997,571.6502093499948,571.6506714110001,571.6602283009997,571.6602283009997,571.6602283009997,,572.8688546379999,,,,,,,,,,,,,,,,,,,,,,,,,,,,,,left,1.0,1.1965908120037057,,,,,sub-015,1,random_dot,92.59694464804392,
left,left,44.0,0.0,22.0,left,1.0,1.3948871809989214,,speed,space,13.87097498300136,,,,,,0.0,1.0,1.0,1.0,22.0,0.0,44.0,0.0,572.8795256499943,,,,,,,,,572.869319501995,574.0740747050004,574.8702137679938,574.8587571919998,574.8592589619948,574.8702137679938,574.8702137679938,574.8702137679938,,576.2754274389954,,,,,,,,,,,,,,,,,,,,,,,,,,,,,,left,1.0,1.3948871809989214,,,,,sub-015,1,random_dot,92.59694464804392,
right,right,45.0,1.0,22.0,right,1.0,1.4259286539963796,,speed,space,13.87097498300136,,,,,,0.0,1.0,1.0,1.0,22.0,1.0,45.0,1.0,576.2876225709988,,,,,,,,,576.2760015940003,576.6245839420008,577.4202765609953,577.4087127979947,577.4093924029949,577.4202765609953,577.4202765609953,577.4202765609953,,578.8583595569944,,,,,,,,,,,,,,,,,,,,,,,,,,,,,,right,1.0,1.4259286539963796,,,,,sub-015,1,random_dot,92.59694464804392,
left,left,46.0,0.0,23.0,left,1.0,1.0412118829990504,,speed,space,13.87097498300136,,,,,,0.0,1.0,1.0,1.0,23.0,0.0,46.0,0.0,578.8686889249948,,,,,,,,,578.8588149829957,579.2328615679944,580.0386659289943,580.0253945329969,580.0259323629944,580.0386659289943,580.0386659289943,580.0386659289943,,581.088482747,,,,,,,,,,,,,,,,,,,,,,,,,,,,,,left,1.0,1.0412118829990504,,,,,sub-015,1,random_dot,92.59694464804392,
right,right,47.0,1.0,23.0,right,1.0,0.6230032230014331,,speed,space,13.87097498300136,,,,,,0.0,1.0,1.0,1.0,23.0,1.0,47.0,1.0,581.0986608039966,,,,,,,,,581.0889375589977,582.2907984859994,583.0861854059985,583.0754142259975,583.0761019939964,583.0861854059985,583.0861854059985,583.0861854059985,,583.723872509996,,,,,,,,,,,,,,,,,,,,,,,,,,,,,,right,1.0,0.6230032230014331,,,,,sub-015,1,random_dot,92.59694464804392,
right,right,48.0,0.0,24.0,left,0.0,0.7156253669963917,,speed,space,13.87097498300136,,,,,,0.0,1.0,1.0,1.0,24.0,0.0,48.0,1.0,583.736326072998,,,,,,,,,583.7243958399995,584.0729139889954,584.8705406659938,584.8594085829973,584.8603713029952,584.8705406659938,584.8705406659938,584.8705406659938,,585.6011135019944,,,,,,,,,,,,,,,,,,,,,,,,,,,,,,left,0.0,0.7156253669963917,,,,,sub-015,1,random_dot,92.59694464804392,
left,left,49.0,1.0,24.0,left,1.0,1.1985494239997934,,speed,space,13.87097498300136,,,,,,0.0,1.0,1.0,1.0,24.0,1.0,49.0,0.0,585.615577216995,,,,,,,,,585.6016244679995,585.6981355190001,586.4988290209949,586.485162924997,586.4856386319952,586.4988290209949,586.4988290209949,586.4988290209949,,587.708883127998,,,,,,,,,,,,,,,,,,,,,,,,,,,,,,left,1.0,1.1985494239997934,,,,,sub-015,1,random_dot,92.59694464804392,
right,right,50.0,0.0,25.0,right,1.0,1.5715810100009548,,speed,space,13.87097498300136,,,,,,0.0,1.0,1.0,1.0,25.0,0.0,50.0,1.0,587.7198602249991,,,,,,,,,587.7093830829981,588.5062814729972,589.3026351399967,589.2914789049973,589.2922528919953,589.3026351399967,589.3026351399967,589.3026351399967,,590.8866236149988,,,,,,,,,,,,,,,,,,,,,,,,,,,,,,right,1.0,1.5715810100009548,,,,,sub-015,1,random_dot,92.59694464804392,
left,left,51.0,1.0,25.0,right,0.0,1.2007907290026196,,speed,space,13.87097498300136,,,,,,0.0,1.0,1.0,1.0,25.0,1.0,51.0,0.0,590.8972759779936,,,,,,,,,590.8870855479981,590.9837954449977,591.786276892999,591.774432526996,591.7751524359992,591.786276892999,591.786276892999,591.786276892999,,592.998672210997,,,,,,,,,,,,,,,,,,,,,,,,,,,,,,right,0.0,1.2007907290026196,,,,,sub-015,1,random_dot,92.59694464804392,
right,right,52.0,0.0,26.0,right,1.0,1.380212121999648,,speed,space,13.87097498300136,,,,,,0.0,1.0,1.0,1.0,26.0,0.0,52.0,1.0,593.0094343419987,,,,,,,,,592.9991272749976,593.7994745579999,594.5985354879958,594.583183607996,594.5838799519988,594.5985354879958,594.5985354879958,594.5985354879958,,595.9911289309966,,,,,,,,,,,,,,,,,,,,,,,,,,,,,,right,1.0,1.380212121999648,,,,,sub-015,1,random_dot,92.59694464804392,
left,left,53.0,1.0,26.0,right,0.0,1.258478539006319,,speed,space,13.87097498300136,,,,,,0.0,1.0,1.0,1.0,26.0,1.0,53.0,0.0,596.002107166998,,,,,,,,,595.991587931996,597.1901186309988,597.9876405169998,597.9744587899986,597.9751777419951,597.9876405169998,597.9876405169998,597.9876405169998,,599.2519952599978,,,,,,,,,,,,,,,,,,,,,,,,,,,,,,right,0.0,1.258478539006319,,,,,sub-015,1,random_dot,92.59694464804392,
right,right,54.0,0.0,27.0,right,1.0,0.8198378650049563,,speed,space,13.87097498300136,,,,,,0.0,1.0,1.0,1.0,27.0,0.0,54.0,1.0,599.2631118489953,,,,,,,,,599.2524446769967,600.466184674995,601.262171798,601.2505178829961,601.2512282530006,601.262171798,601.262171798,601.262171798,,602.1002387109984,,,,,,,,,,,,,,,,,,,,,,,,,,,,,,right,1.0,0.8198378650049563,,,,,sub-015,1,random_dot,92.59694464804392,
left,left,55.0,1.0,27.0,left,1.0,0.7390876909994404,,speed,space,13.87097498300136,,,,,,0.0,1.0,1.0,1.0,27.0,1.0,55.0,0.0,602.1152255859997,,,,,,,,,602.100696042995,603.2982594989953,604.098815997997,604.0851693730001,604.085712809996,604.098815997997,604.098815997997,604.098815997997,,604.841347472,,,,,,,,,,,,,,,,,,,,,,,,,,,,,,left,1.0,0.7390876909994404,,,,,sub-015,1,random_dot,92.59694464804392,
left,left,56.0,0.0,28.0,left,1.0,1.5767059270001482,,speed,space,13.87097498300136,,,,,,0.0,1.0,1.0,1.0,28.0,0.0,56.0,0.0,604.8516086620002,,,,,,,,,604.8419238809947,605.6402660949971,606.4445752409956,606.4336542959936,606.4341624439985,606.4445752409956,606.4445752409956,606.4445752409956,,608.0308369919949,,,,,,,,,,,,,,,,,,,,,,,,,,,,,,left,1.0,1.5767059270001482,,,,,sub-015,1,random_dot,92.59694464804392,
right,right,57.0,1.0,28.0,left,0.0,1.18710628500412,,speed,space,13.87097498300136,,,,,,0.0,1.0,1.0,1.0,28.0,1.0,57.0,1.0,608.0394992049987,,,,,,,,,608.0312119659939,608.8333015579992,609.6319179489947,609.6185916449977,609.6190644659946,609.6319179489947,609.6319179489947,609.6319179489947,,610.8315496569994,,,,,,,,,,,,,,,,,,,,,,,,,,,,,,left,0.0,1.18710628500412,,,,,sub-015,1,random_dot,92.59694464804392,
right,right,58.0,0.0,29.0,right,1.0,1.0104778590030037,,speed,space,13.87097498300136,,,,,,0.0,1.0,1.0,1.0,29.0,0.0,58.0,1.0,610.8406661819972,,,,,,,,,610.8320153530003,611.1754663009997,611.9767551289988,611.9624725510002,611.9632489829964,611.9767551289988,611.9767551289988,611.9767551289988,,612.9926892379954,,,,,,,,,,,,,,,,,,,,,,,,,,,,,,right,1.0,1.0104778590030037,,,,,sub-015,1,random_dot,92.59694464804392,
left,left,59.0,1.0,29.0,right,0.0,1.403569622001669,,speed,space,13.87097498300136,,,,,,0.0,1.0,1.0,1.0,29.0,1.0,59.0,0.0,613.004244289994,,,,,,,,,612.9933457709994,613.7905255439982,614.5932072229989,614.5827497899954,614.5832259829986,614.5932072229989,614.5932072229989,614.5932072229989,,616.0017247119977,,,,,,,,,,,,,,,,,,,,,,,,,,,,,,right,0.0,1.403569622001669,,,,,sub-015,1,random_dot,92.59694464804392,
,,1.0,1.0,0.0,,,,,speed,space,13.87097498300136,,,,,,0.0,1.0,1.0,1.0,,,,,,,,,,,,,,,,,,,,,,,,,,,,,,,,,,,,,,,,,,,,,,,,,,,,,,,,,,,,sub-015,1,random_dot,92.59694464804392,
,,,,,,,,,,,,,,,,,,,,,,,,,,,,,,,,,,,,,,,,,,,,,,,,,,,,,,,,,,,,,,,,,,,,,,,,,,,,,616.0075648769998,616.0187517659942,621.0067499389988,sub-015,1,random_dot,92.59694464804392,
