direction,corrAns,thisN,thisTrialN,thisRepN,respDots.keys,respDots.corr,respDots.rt,respDots.duration,randomInstr,respRandomInstr.keys,respRandomInstr.rt,respRandomInstr.duration,practice_trials.thisRepN,practice_trials.thisTrialN,practice_trials.thisN,practice_trials.thisIndex,instr_trials.thisRepN,instr_trials.thisTrialN,instr_trials.thisN,instr_trials.thisIndex,test_trials.thisRepN,test_trials.thisTrialN,test_trials.thisN,test_trials.thisIndex,thisRow.t,notes,general_instruction.started,textGeneralInstr.started,respGeneralInstr.started,general_instruction.stopped,respGeneralInstr.keys,respGeneralInstr.rt,respGeneralInstr.duration,ITI.started,fixcross.started,fixcross.stopped,ITI.stopped,dots.started,backgroundDots.started,stimulusDots.started,respDots.started,dots.stopped,practice_trials.respDots.keys,practice_trials.respDots.corr,practice_trials.respDots.rt,practice_trials.respDots.duration,feedback.started,textFeedback.started,feedback.stopped,textFeedback.stopped,stimulusDots.stopped,info.started,textInfo.started,keyRespInfo.started,info.stopped,keyRespInfo.keys,keyRespInfo.rt,keyRespInfo.duration,test_instruction.started,textTestInstr.started,respTestInstr.started,test_instruction.stopped,respTestInstr.keys,respTestInstr.rt,respTestInstr.duration,random_instruction.started,textRandomInstr.started,respRandomInstr.started,random_instruction.stopped,instr_trials.respRandomInstr.keys,instr_trials.respRandomInstr.rt,instr_trials.respRandomInstr.duration,test_trials.respDots.keys,test_trials.respDots.corr,test_trials.respDots.rt,test_trials.respDots.duration,goodbye.started,textGoodbye.started,goodbye.stopped,participant,session,expName,frameRate,Unnamed: 87
,,,,,,,,,,,,,,,,,,,,,,,,,,,0.011629657999947,0.0381710130000101,0.0381710130000101,7.929872579999937,space,7.657402215999809,,,,,,,,,,,,,,,,,,,,,,,,,,,,,,,,,,,,,,,,,,,,,,,,sub-132,1,random_dot,68.56207999471756,
right,right,0.0,0.0,0.0,right,1.0,1.261470677000034,,,,,,0.0,0.0,0.0,1.0,,,,,,,,,7.952898155000184,,,,,,,,,7.939040361000025,8.274615854999865,9.074852249999822,9.057294060999991,9.057655121000153,9.074852249999822,9.074852249999822,9.074852249999822,10.340213293000032,right,1.0,1.261470677000034,,10.346539996000049,10.372310498999925,10.851458383000136,,,,,,,,,,,,,,,,,,,,,,,,,,,,,,,sub-132,1,random_dot,68.56207999471756,
left,left,1.0,1.0,0.0,left,1.0,1.1121720480000477,,,,,,0.0,1.0,1.0,0.0,,,,,,,,,10.862823153000136,,,,,,,,,10.851710880000155,12.0457178810002,12.862317992000044,12.844319780000204,12.844802827999956,12.862317992000044,12.862317992000044,12.862317992000044,13.978010801999972,left,1.0,1.1121720480000477,,13.978342389999852,13.986963929000012,14.48009659499985,,,,,,,,,,,,,,,,,,,,,,,,,,,,,,,sub-132,1,random_dot,68.56207999471756,
left,left,2.0,0.0,1.0,left,1.0,1.046515664999788,,,,,,1.0,0.0,2.0,0.0,,,,,,,,,14.488908289999928,,,,,,,,,14.480410583999856,15.69573514700005,16.50424096300003,16.48687774400014,16.487984864999817,16.50424096300003,16.50424096300003,16.50424096300003,17.557596096999987,left,1.0,1.046515664999788,,17.557696072,17.56766414799995,18.055099047000112,18.07717282500016,,,,,,,,,,,,,,,,,,,,,,,,,,,,,,sub-132,1,random_dot,68.56207999471756,
right,right,3.0,1.0,1.0,right,1.0,1.7241703350000537,,,,,,1.0,1.0,3.0,1.0,,,,,,,,,18.07717282500016,,,,,,,,,18.05601235799986,18.15397725699995,18.95495820999986,18.942718539999987,18.9440655530002,18.95495820999986,18.95495820999986,18.95495820999986,20.69469435700012,right,1.0,1.7241703350000537,,20.6948653569998,20.70544064500018,21.195726180999827,,,,,,,,,,,,,,,,,,,,,,,,,,,,,,,sub-132,1,random_dot,68.56207999471756,
left,left,4.0,0.0,2.0,left,1.0,1.1921065149999777,,,,,,2.0,0.0,4.0,0.0,,,,,,,,,21.204656711000094,,,,,,,,,21.196153245000005,21.541146272999868,22.345317888999944,22.327798016000088,22.328133396999878,22.345317888999944,22.345317888999944,22.345317888999944,23.539783873000037,left,1.0,1.1921065149999777,,23.53997592099995,23.550484762999982,24.04564517100016,,,,,,,,,,,,,,,,,,,,,,,,,,,,,,,sub-132,1,random_dot,68.56207999471756,
right,right,5.0,1.0,2.0,right,1.0,1.2189261959997566,,,,,,2.0,1.0,5.0,1.0,,,,,,,,,24.06328857400013,,,,,,,,,24.046074491000127,24.84555364000016,25.640145187000144,25.629148129999976,25.62961108699983,25.640145187000144,25.640145187000144,25.640145187000144,26.86336466900002,right,1.0,1.2189261959997566,,26.863460601000043,26.873334305999837,27.368290663000156,,,,,,,,,,,,,,,,,,,,,,,,,,,,,,,sub-132,1,random_dot,68.56207999471756,
left,left,6.0,0.0,3.0,right,0.0,1.4735591850003402,,,,,,3.0,0.0,6.0,0.0,,,,,,,,,27.379927468000005,,,,,,,,,27.3686875100002,27.712027300000045,28.51267496599985,28.50124371899983,28.50171796199993,28.51267496599985,28.51267496599985,28.51267496599985,30.00097648700012,right,0.0,1.4735591850003402,,30.00802118999991,30.018166911000208,30.503879202000007,,,,,,,,,,,,,,,,,,,,,,,,,,,,,,,sub-132,1,random_dot,68.56207999471756,
right,right,7.0,1.0,3.0,left,0.0,1.7854499340000984,,,,,,3.0,1.0,7.0,1.0,,,,,,,,,30.526885654000125,,,,,,,,,30.50535918200012,30.86079427300001,31.65634243500017,31.64572407200012,31.64619269700006,31.65634243500017,31.65634243500017,31.65634243500017,33.44772474599995,left,0.0,1.7854499340000984,,33.44795440300004,33.45714177899981,33.94565694799985,33.95404403700013,,,,,,,,,,,,,,,,,,,,,,,,,,,,,,sub-132,1,random_dot,68.56207999471756,
left,left,8.0,0.0,4.0,right,0.0,2.0224902899999506,,,,,,4.0,0.0,8.0,0.0,,,,,,,,,33.95404403700013,,,,,,,,,33.94605133999994,34.04674910599988,34.85156839699994,34.83795776199986,34.83911308699999,34.85156839699994,34.85156839699994,34.85156839699994,36.8831897189998,right,0.0,2.0224902899999506,,36.88338465600009,36.893818095999904,37.38095402499994,37.39360745800013,,,,,,,,,,,,,,,,,,,,,,,,,,,,,,sub-132,1,random_dot,68.56207999471756,
right,right,9.0,1.0,4.0,right,1.0,1.203299765000338,,,,,,4.0,1.0,9.0,1.0,,,,,,,,,37.39360745800013,,,,,,,,,37.38192417499977,38.195168576000015,38.99639769799978,38.98551621300021,38.985902803000045,38.99639769799978,38.99639769799978,38.99639769799978,40.20325915300009,right,1.0,1.203299765000338,,40.20571543899996,40.21760987500011,40.70507354399979,,,,,,,,,,,,,,,,,,,,,,,,,,,,,,,sub-132,1,random_dot,68.56207999471756,
left,left,10.0,0.0,5.0,right,0.0,1.9735241820003464,,,,,,5.0,0.0,10.0,0.0,,,,,,,,,40.72703093700011,,,,,,,,,40.7055098400001,40.80415676699977,41.606026650999866,41.5954136649998,41.5958790159998,41.606026650999866,41.606026650999866,41.606026650999866,43.59268258700013,right,0.0,1.9735241820003464,,43.596859632999895,43.60662823199982,44.11068714400017,,,,,,,,,,,,,,,,,,,,,,,,,,,,,,,sub-132,1,random_dot,68.56207999471756,
right,right,11.0,1.0,5.0,left,0.0,0.7233392699999968,,,,,,5.0,1.0,11.0,1.0,,,,,,,,,44.128530469,,,,,,,,,44.111117827999806,44.89514983800018,45.69862497399981,45.6844483609998,45.68492570499984,45.69862497399981,45.69862497399981,45.69862497399981,46.428817597000034,left,0.0,0.7233392699999968,,46.4290452260002,46.43832371100007,46.92180475699979,46.93315939600007,,,,,,,,,,,,,,,,,,,,,,,,,,,,,,sub-132,1,random_dot,68.56207999471756,
left,left,12.0,0.0,6.0,right,0.0,0.7927982539999903,,,,,,6.0,0.0,12.0,0.0,,,,,,,,,46.93315939600007,,,,,,,,,46.92224069799977,47.72149254899978,48.518030628999895,48.504928527000175,48.5054027430001,48.518030628999895,48.518030628999895,48.518030628999895,49.31695518000015,right,0.0,0.7927982539999903,,49.317120652000085,49.326543584999854,49.81187882999984,49.81984495999996,,,,,,,,,,,,,,,,,,,,,,,,,,,,,,sub-132,1,random_dot,68.56207999471756,
right,right,13.0,1.0,6.0,right,1.0,1.2639407699998628,,,,,,6.0,1.0,13.0,1.0,,,,,,,,,49.81984495999996,,,,,,,,,49.81216015700011,50.16859777599984,50.97860613800003,50.96083152600022,50.961164862999794,50.97860613800003,50.97860613800003,50.97860613800003,52.24622990999978,right,1.0,1.2639407699998628,,52.25046866100001,52.26053205900007,52.75192831000004,,,,,,,,,,,,,,,,,,,,,,,,,,,,,,,sub-132,1,random_dot,68.56207999471756,
left,left,14.0,0.0,7.0,right,0.0,1.7952196830001412,,,,,,7.0,0.0,14.0,0.0,,,,,,,,,52.76432487400007,,,,,,,,,52.75235846299984,53.091417888999786,53.89615505800021,53.88530999600016,53.88572673599992,53.89615505800021,53.89615505800021,53.89615505800021,55.69682453199994,right,0.0,1.7952196830001412,,55.70145337299982,55.71211240299999,56.196407652999824,56.20481783300011,,,,,,,,,,,,,,,,,,,,,,,,,,,,,,sub-132,1,random_dot,68.56207999471756,
right,right,15.0,1.0,7.0,left,0.0,3.0198786729997664,,,,,,7.0,1.0,15.0,1.0,,,,,,,,,56.20481783300011,,,,,,,,,56.19682069500004,56.29222640299986,57.0915637359999,57.08020389600006,57.08064529500007,57.0915637359999,57.0915637359999,57.0915637359999,60.12150409100013,left,0.0,3.0198786729997664,,60.12167856499991,60.13357633799978,60.62832037899989,,,,,,,,,,,,,,,,,,,,,,,,,,,,,,,sub-132,1,random_dot,68.56207999471756,
right,right,16.0,0.0,8.0,right,1.0,6.459338084000137,,,,,,8.0,0.0,16.0,1.0,,,,,,,,,60.63790754399997,,,,,,,,,60.62859918499999,61.828400729999885,62.62182848500015,62.611870671999895,62.61216757000011,62.62182848500015,62.62182848500015,62.62182848500015,69.09589011800017,right,1.0,6.459338084000137,,69.09838790200001,69.10889450600007,69.60075645899997,,67.61154618799992,,,,,,,,,,,,,,,,,,,,,,,,,,,,,sub-132,1,random_dot,68.56207999471756,
left,left,17.0,1.0,8.0,right,0.0,2.298345787000017,,,,,,8.0,1.0,17.0,0.0,,,,,,,,,69.61241480799981,,,,,,,,,69.60114831600004,69.96145897999986,70.76187253099988,70.74643267800002,70.74674448099995,70.76187253099988,70.76187253099988,70.76187253099988,73.06316067299986,right,0.0,2.298345787000017,,73.06645261099993,73.0759859599998,73.56388069000013,,,,,,,,,,,,,,,,,,,,,,,,,,,,,,,sub-132,1,random_dot,68.56207999471756,
right,right,18.0,0.0,9.0,right,1.0,1.1497453299998597,,,,,,9.0,0.0,18.0,1.0,,,,,,,,,73.578210055,,,,,,,,,73.56416284399984,73.6632372099998,74.46753425099996,74.45531217300004,74.45602869200002,74.46753425099996,74.46753425099996,74.46753425099996,75.62447090700016,right,1.0,1.1497453299998597,,75.62800361200016,75.63753164499985,76.12488683999982,,,,,,,,,,,,,,,,,,,,,,,,,,,,,,,sub-132,1,random_dot,68.56207999471756,
left,left,19.0,1.0,9.0,left,1.0,1.3140762590001032,,,,,,9.0,1.0,19.0,0.0,,,,,,,,,76.13428659200008,,,,,,,,,76.125731524,77.31980779600008,78.12804387999995,78.11000081300017,78.11029804300006,78.12804387999995,78.12804387999995,78.12804387999995,79.45312406799985,left,1.0,1.3140762590001032,,79.45325962200013,79.47650162199989,79.96236190199988,,,,,,,,,,,,,,,,,,,,,,,,,,,,,,,sub-132,1,random_dot,68.56207999471756,
,,,,,,,,,,,,,,,,,,,,,,,,,,,,,,,,,,,,,,,,,,,,,,,,,,,,79.96247246299981,79.97355819699987,79.97355819699987,81.92942447399992,space,1.9517200269997372,,,,,,,,,,,,,,,,,,,,,,,sub-132,1,random_dot,68.56207999471756,
,,,,,,,,,,,,,,,,,,,,,,,,,,,,,,,,,,,,,,,,,,,,,,,,,,,,,,,,,,,81.92951776900009,81.94139982700017,81.94139982700017,86.76368631500009,space,4.815564942000037,,,,,,,,,,,,,,,,sub-132,1,random_dot,68.56207999471756,
right,right,0.0,0.0,0.0,right,1.0,1.6526495760003854,,accuracy,space,2.8284882429998106,,,,,,0.0,0.0,0.0,0.0,0.0,0.0,0.0,1.0,89.67249136200007,,,,,,,,,89.66233144199987,90.01129529399986,90.81344334200004,90.80216612599996,90.80325482499984,90.81344334200004,90.81344334200004,90.81344334200004,92.47274095800005,,,,,,,,,,,,,,,,,,,,,,,,86.8053724309998,86.81640351399983,86.81640351399983,89.65652240899999,space,2.8284882429998106,,right,1.0,1.6526495760003854,,,,,sub-132,1,random_dot,68.56207999471756,
left,left,1.0,1.0,0.0,right,0.0,1.3340940330003832,,accuracy,space,2.8284882429998106,,,,,,0.0,0.0,0.0,0.0,0.0,1.0,1.0,0.0,92.48278336600016,,,,,,,,,92.4731519930001,92.82798821999997,93.62154975800011,93.61128945400014,93.61162317900016,93.62154975800011,93.62154975800011,93.62154975800011,94.9604878209998,,,,,,,,,,,,,,,,,,,,,,,,,,,,,,,right,0.0,1.3340940330003832,,,,,sub-132,1,random_dot,68.56207999471756,
left,left,2.0,0.0,1.0,left,1.0,1.2493986859999495,,accuracy,space,2.8284882429998106,,,,,,0.0,0.0,0.0,0.0,1.0,0.0,2.0,0.0,94.9694772769999,,,,,,,,,94.96093276500004,95.3111970599998,96.1234178650002,96.11159167999996,96.1120807369998,96.1234178650002,96.1234178650002,96.1234178650002,97.37910228100009,,,,,,,,,,,,,,,,,,,,,,,,,,,,,,,left,1.0,1.2493986859999495,,,,,sub-132,1,random_dot,68.56207999471756,
right,right,3.0,1.0,1.0,right,1.0,1.0698858810001184,,accuracy,space,2.8284882429998106,,,,,,0.0,0.0,0.0,0.0,1.0,1.0,3.0,1.0,97.38857954500008,,,,,,,,,97.37951219700015,97.73946622199992,98.53867539400017,98.52814778799984,98.5286047049999,98.53867539400017,98.53867539400017,98.53867539400017,99.61643452599992,,,,,,,,,,,,,,,,,,,,,,,,,,,,,,,right,1.0,1.0698858810001184,,,,,sub-132,1,random_dot,68.56207999471756,
right,right,4.0,0.0,2.0,left,0.0,0.9967329080000128,,accuracy,space,2.8284882429998106,,,,,,0.0,0.0,0.0,0.0,2.0,0.0,4.0,1.0,99.62606945000016,,,,,,,,,99.61694360499996,99.72619587400004,100.5220978379998,100.51149607900015,100.511959897,100.5220978379998,100.5220978379998,100.5220978379998,101.52864606100002,,,,,,,,,,,,,,,,,,,,,,,,,,,,,,,left,0.0,0.9967329080000128,,,,,sub-132,1,random_dot,68.56207999471756,
left,left,5.0,1.0,2.0,left,1.0,1.0026996189999409,,accuracy,space,2.8284882429998106,,,,,,0.0,0.0,0.0,0.0,2.0,1.0,5.0,0.0,101.53757544000018,,,,,,,,,101.5289433920002,102.72372610599996,103.530966626,103.5170326880002,103.51748554999996,103.530966626,103.530966626,103.530966626,104.53508630899978,,,,,,,,,,,,,,,,,,,,,,,,,,,,,,,left,1.0,1.0026996189999409,,,,,sub-132,1,random_dot,68.56207999471756,
left,left,6.0,0.0,3.0,left,1.0,0.9339786870000352,,accuracy,space,2.8284882429998106,,,,,,0.0,0.0,0.0,0.0,3.0,0.0,6.0,0.0,104.54648856799986,,,,,,,,,104.5354937359998,104.63693696400014,105.43871691699997,105.42808378400014,105.42855207999992,105.43871691699997,105.43871691699997,105.43871691699997,106.38618427600022,,,,,,,,,,,,,,,,,,,,,,,,,,,,,,,left,1.0,0.9339786870000352,,,,,sub-132,1,random_dot,68.56207999471756,
right,right,7.0,1.0,3.0,right,1.0,1.988260452999839,,accuracy,space,2.8284882429998106,,,,,,0.0,0.0,0.0,0.0,3.0,1.0,7.0,1.0,106.39583031199982,,,,,,,,,106.38653465100016,106.73761293200003,107.53908022099996,107.52821886599986,107.5287054639998,107.53908022099996,107.53908022099996,107.53908022099996,109.53566149400012,,,,,,,,,,,,,,,,,,,,,,,,,,,,,,,right,1.0,1.988260452999839,,,,,sub-132,1,random_dot,68.56207999471756,
left,left,8.0,0.0,4.0,right,0.0,1.4702515039998616,,accuracy,space,2.8284882429998106,,,,,,0.0,0.0,0.0,0.0,4.0,0.0,8.0,0.0,109.5473297100002,,,,,,,,,109.535961089,109.88679978399978,110.6882612710001,110.67837392299998,110.67864352700008,110.6882612710001,110.6882612710001,110.6882612710001,112.170500833,,,,,,,,,,,,,,,,,,,,,,,,,,,,,,,right,0.0,1.4702515039998616,,,,,sub-132,1,random_dot,68.56207999471756,
right,right,9.0,1.0,4.0,right,1.0,1.2345077989998572,,accuracy,space,2.8284882429998106,,,,,,0.0,0.0,0.0,0.0,4.0,1.0,9.0,1.0,112.18321325299983,,,,,,,,,112.17083730100012,113.36743557199998,114.16705023900022,114.15399013200022,114.15499972999989,114.16705023900022,114.16705023900022,114.16705023900022,115.4075536649998,,,,,,,,,,,,,,,,,,,,,,,,,,,,,,,right,1.0,1.2345077989998572,,,,,sub-132,1,random_dot,68.56207999471756,
right,right,10.0,0.0,5.0,left,0.0,3.111982585000078,,accuracy,space,2.8284882429998106,,,,,,0.0,0.0,0.0,0.0,5.0,0.0,10.0,1.0,115.41784598000004,,,,,,,,,115.40827720400011,116.20343403000015,117.00666016600007,116.99509497600002,116.99555716900022,117.00666016600007,117.00666016600007,117.00666016600007,120.12910077300012,,,,,,,,,,,,,,,,,,,,,,,,,,,,,,,left,0.0,3.111982585000078,,,,,sub-132,1,random_dot,68.56207999471756,
left,left,11.0,1.0,5.0,right,0.0,2.3911322039998595,,accuracy,space,2.8284882429998106,,,,,,0.0,0.0,0.0,0.0,5.0,1.0,11.0,0.0,120.1390244979998,,,,,,,,,120.12959294099984,120.4927717139999,121.2943089209998,121.2792979730002,121.27977235800016,121.2943089209998,121.2943089209998,121.2943089209998,123.69537179200006,,,,,,,,,,,,,,,,,,,,,,,,,,,,,,,right,0.0,2.3911322039998595,,,,,sub-132,1,random_dot,68.56207999471756,
right,right,12.0,0.0,6.0,right,1.0,1.7852059829997415,,accuracy,space,2.8284882429998106,,,,,,0.0,0.0,0.0,0.0,6.0,0.0,12.0,1.0,123.70485608699984,,,,,,,,,123.69581231599976,124.04799820000017,124.85556866600018,124.84479054199984,124.84525040400013,124.85556866600018,124.85556866600018,124.85556866600018,126.6542331249998,,,,,,,,,,,,,,,,,,,,,,,,,,,,,,,right,1.0,1.7852059829997415,,,,,sub-132,1,random_dot,68.56207999471756,
left,left,13.0,1.0,6.0,right,0.0,1.5188309290001598,,accuracy,space,2.8284882429998106,,,,,,0.0,0.0,0.0,0.0,6.0,1.0,13.0,0.0,126.66642217299976,,,,,,,,,126.6547711510002,127.00264884599984,127.80019177900022,127.787722348,127.78875425200022,127.80019177900022,127.80019177900022,127.80019177900022,129.32834179300016,,,,,,,,,,,,,,,,,,,,,,,,,,,,,,,right,0.0,1.5188309290001598,,,,,sub-132,1,random_dot,68.56207999471756,
left,left,14.0,0.0,7.0,left,1.0,0.750518460999956,,accuracy,space,2.8284882429998106,,,,,,0.0,0.0,0.0,0.0,7.0,0.0,14.0,0.0,129.33862433900003,,,,,,,,,129.32871459599983,130.12761507899995,130.92756747700014,130.9123964700002,130.91288664400008,130.92756747700014,130.92756747700014,130.92756747700014,131.69070545900013,,,,,,,,,,,,,,,,,,,,,,,,,,,,,,,left,1.0,0.750518460999956,,,,,sub-132,1,random_dot,68.56207999471756,
right,right,15.0,1.0,7.0,left,0.0,1.6775717959999383,,accuracy,space,2.8284882429998106,,,,,,0.0,0.0,0.0,0.0,7.0,1.0,15.0,1.0,131.7010696880002,,,,,,,,,131.6914906359998,132.03412259100014,132.84063802799983,132.82773842300003,132.82820114900005,132.84063802799983,132.84063802799983,132.84063802799983,134.5429658500002,,,,,,,,,,,,,,,,,,,,,,,,,,,,,,,left,0.0,1.6775717959999383,,,,,sub-132,1,random_dot,68.56207999471756,
right,right,16.0,0.0,8.0,right,1.0,2.446414483999888,,accuracy,space,2.8284882429998106,,,,,,0.0,0.0,0.0,0.0,8.0,0.0,16.0,1.0,134.56091023699992,,,,,,,,,134.54350319200012,134.64544759799992,135.44676152300008,135.43349534299978,135.4338787510001,135.44676152300008,135.44676152300008,135.44676152300008,137.8982622499998,,,,,,,,,,,,,,,,,,,,,,,,,,,,,,,right,1.0,2.446414483999888,,,,,sub-132,1,random_dot,68.56207999471756,
left,left,17.0,1.0,8.0,right,0.0,3.6255782130001535,,accuracy,space,2.8284882429998106,,,,,,0.0,0.0,0.0,0.0,8.0,1.0,17.0,0.0,137.9114873100002,,,,,,,,,137.89859745600006,137.99971595099987,138.800047102,138.78744319299994,138.788727355,138.800047102,138.800047102,138.800047102,142.430521881,,,,,,,,,,,,,,,,,,,,,,,,,,,,,,,right,0.0,3.6255782130001535,,,,,sub-132,1,random_dot,68.56207999471756,
left,left,18.0,0.0,9.0,right,0.0,1.629200030999982,,accuracy,space,2.8284882429998106,,,,,,0.0,0.0,0.0,0.0,9.0,0.0,18.0,0.0,142.44132572199987,,,,,,,,,142.43122171899995,142.5293426190001,143.327574808,143.31717779200017,143.31748282399985,143.327574808,143.327574808,143.327574808,144.96537498099997,,,,,,,,,,,,,,,,,,,,,,,,,,,,,,,right,0.0,1.629200030999982,,,,,sub-132,1,random_dot,68.56207999471756,
right,right,19.0,1.0,9.0,right,1.0,1.2873609520001992,,accuracy,space,2.8284882429998106,,,,,,0.0,0.0,0.0,0.0,9.0,1.0,19.0,1.0,144.97785383500013,,,,,,,,,144.9657273429998,146.16963559099986,146.97225690300002,146.96138654300012,146.96187982799984,146.97225690300002,146.97225690300002,146.97225690300002,148.27468613700012,,,,,,,,,,,,,,,,,,,,,,,,,,,,,,,right,1.0,1.2873609520001992,,,,,sub-132,1,random_dot,68.56207999471756,
right,right,20.0,0.0,10.0,right,1.0,2.071927546000097,,accuracy,space,2.8284882429998106,,,,,,0.0,0.0,0.0,0.0,10.0,0.0,20.0,1.0,148.2858960919998,,,,,,,,,148.275499201,149.07910678400003,149.8836720459999,149.86971398700007,149.8706349979998,149.8836720459999,149.8836720459999,149.8836720459999,151.96453447800013,,,,,,,,,,,,,,,,,,,,,,,,,,,,,,,right,1.0,2.071927546000097,,,,,sub-132,1,random_dot,68.56207999471756,
left,left,21.0,1.0,10.0,right,0.0,2.997789652999927,,accuracy,space,2.8284882429998106,,,,,,0.0,0.0,0.0,0.0,10.0,1.0,21.0,0.0,151.9752051549999,,,,,,,,,151.96502446500017,152.32590074500013,153.12817757999983,153.1170117800002,153.11748343399995,153.12817757999983,153.12817757999983,153.12817757999983,156.13689535599997,,,,,,,,,,,,,,,,,,,,,,,,,,,,,,,right,0.0,2.997789652999927,,,,,sub-132,1,random_dot,68.56207999471756,
left,left,22.0,0.0,11.0,right,0.0,1.963245877999725,,accuracy,space,2.8284882429998106,,,,,,0.0,0.0,0.0,0.0,11.0,0.0,22.0,0.0,156.148876965,,,,,,,,,156.13724894300003,156.4907542320002,157.288361464,157.27748790799978,157.27794622400006,157.288361464,157.288361464,157.288361464,159.26470931599988,,,,,,,,,,,,,,,,,,,,,,,,,,,,,,,right,0.0,1.963245877999725,,,,,sub-132,1,random_dot,68.56207999471756,
right,right,23.0,1.0,11.0,right,1.0,2.840996081999947,,accuracy,space,2.8284882429998106,,,,,,0.0,0.0,0.0,0.0,11.0,1.0,23.0,1.0,159.2750522770002,,,,,,,,,159.2652255359999,160.06867018100002,160.87917531999983,160.86400137200008,160.86461579900015,160.87917531999983,160.87917531999983,160.87917531999983,163.72898729500002,,,,,,,,,,,,,,,,,,,,,,,,,,,,,,,right,1.0,2.840996081999947,,,,,sub-132,1,random_dot,68.56207999471756,
left,left,24.0,0.0,12.0,left,1.0,1.7729035930001371,,accuracy,space,2.8284882429998106,,,,,,0.0,0.0,0.0,0.0,12.0,0.0,24.0,0.0,163.73865001100012,,,,,,,,,163.72933162900017,164.92025040599992,165.71628340100006,165.70356016699998,165.7046919569998,165.71628340100006,165.71628340100006,165.71628340100006,167.5040296860002,,,,,,,,,,,,,,,,,,,,,,,,,,,,,,,left,1.0,1.7729035930001371,,,,,sub-132,1,random_dot,68.56207999471756,
right,right,25.0,1.0,12.0,right,1.0,1.6556938539997643,,accuracy,space,2.8284882429998106,,,,,,0.0,0.0,0.0,0.0,12.0,1.0,25.0,1.0,167.51572459499994,,,,,,,,,167.50477920799997,168.7274952130001,169.5299035319999,169.5164516499999,169.51677830800008,169.5299035319999,169.5299035319999,169.5299035319999,171.19065137500002,,,,,,,,,,,,,,,,,,,,,,,,,,,,,,,right,1.0,1.6556938539997643,,,,,sub-132,1,random_dot,68.56207999471756,
left,left,26.0,0.0,13.0,left,1.0,2.345970115999989,,accuracy,space,2.8284882429998106,,,,,,0.0,0.0,0.0,0.0,13.0,0.0,26.0,0.0,171.20166912900004,,,,,,,,,171.19142284400004,171.3106046009998,172.10523673199987,172.0943681839999,172.0948291320001,172.10523673199987,172.10523673199987,172.10523673199987,174.4569767779999,,,,,,,,,,,,,,,,,,,,,,,,,,,,,,,left,1.0,2.345970115999989,,,,,sub-132,1,random_dot,68.56207999471756,
right,right,27.0,1.0,13.0,right,1.0,3.1394411729997955,,accuracy,space,2.8284882429998106,,,,,,0.0,0.0,0.0,0.0,13.0,1.0,27.0,1.0,174.46703846799983,,,,,,,,,174.4580262039999,175.66210856599992,176.46147430700012,176.44994150499997,176.450414766,176.46147430700012,176.46147430700012,176.46147430700012,179.60421079199978,,,,,,,,,,,,,,,,,,,,,,,,,,,,,,,right,1.0,3.1394411729997955,,,,,sub-132,1,random_dot,68.56207999471756,
right,right,28.0,0.0,14.0,right,1.0,1.324298190999798,,accuracy,space,2.8284882429998106,,,,,,0.0,0.0,0.0,0.0,14.0,0.0,28.0,1.0,179.61622102499996,,,,,,,,,179.60473528300008,180.8031217530001,181.5994744929999,181.58670112500025,181.58793353500005,181.5994744929999,181.5994744929999,181.5994744929999,182.93875927999989,,,,,,,,,,,,,,,,,,,,,,,,,,,,,,,right,1.0,1.324298190999798,,,,,sub-132,1,random_dot,68.56207999471756,
left,left,29.0,1.0,14.0,left,1.0,1.3988918340000964,,accuracy,space,2.8284882429998106,,,,,,0.0,0.0,0.0,0.0,14.0,1.0,29.0,0.0,182.94962707000013,,,,,,,,,182.9393684890001,183.7358476139998,184.5376612320001,184.5274367080001,184.52775774700007,184.5376612320001,184.5376612320001,184.5376612320001,185.945557602,,,,,,,,,,,,,,,,,,,,,,,,,,,,,,,left,1.0,1.3988918340000964,,,,,sub-132,1,random_dot,68.56207999471756,
right,right,30.0,0.0,15.0,left,0.0,1.7377260230000502,,accuracy,space,2.8284882429998106,,,,,,0.0,0.0,0.0,0.0,15.0,0.0,30.0,1.0,185.95564262800008,,,,,,,,,185.9460628920001,186.29907892600025,187.09568855399996,187.08304979000013,187.08352065100007,187.09568855399996,187.09568855399996,187.09568855399996,188.84622056499984,,,,,,,,,,,,,,,,,,,,,,,,,,,,,,,left,0.0,1.7377260230000502,,,,,sub-132,1,random_dot,68.56207999471756,
left,left,31.0,1.0,15.0,left,1.0,1.9386681410001076,,accuracy,space,2.8284882429998106,,,,,,0.0,0.0,0.0,0.0,15.0,1.0,31.0,0.0,188.85768713000016,,,,,,,,,188.84738039700005,188.94596109099984,189.743971764,189.728971948,189.72944279700005,189.743971764,189.743971764,189.743971764,191.68441036800004,,,,,,,,,,,,,,,,,,,,,,,,,,,,,,,left,1.0,1.9386681410001076,,,,,sub-132,1,random_dot,68.56207999471756,
right,right,32.0,0.0,16.0,right,1.0,2.489011588000267,,accuracy,space,2.8284882429998106,,,,,,0.0,0.0,0.0,0.0,16.0,0.0,32.0,1.0,191.69372604799992,,,,,,,,,191.68502610699989,192.48580859899997,193.29359736700007,193.2784001800001,193.2787328989998,193.29359736700007,193.29359736700007,193.29359736700007,195.787968786,,,,,,,,,,,,,,,,,,,,,,,,,,,,,,,right,1.0,2.489011588000267,,,,,sub-132,1,random_dot,68.56207999471756,
left,left,33.0,1.0,16.0,left,1.0,1.1735209789999317,,accuracy,space,2.8284882429998106,,,,,,0.0,0.0,0.0,0.0,16.0,1.0,33.0,0.0,195.79878880700016,,,,,,,,,195.78848691099984,196.59498610299988,197.3914088229999,197.37809217799983,197.3794156680001,197.3914088229999,197.3914088229999,197.3914088229999,198.568667947,,,,,,,,,,,,,,,,,,,,,,,,,,,,,,,left,1.0,1.1735209789999317,,,,,sub-132,1,random_dot,68.56207999471756,
left,left,34.0,0.0,17.0,left,1.0,2.188804971000081,,accuracy,space,2.8284882429998106,,,,,,0.0,0.0,0.0,0.0,17.0,0.0,34.0,0.0,198.5811986220001,,,,,,,,,198.56918478499983,198.6659117989998,199.46210827999997,199.44996498,199.45043406600007,199.46210827999997,199.46210827999997,199.46210827999997,201.66444754199983,,,,,,,,,,,,,,,,,,,,,,,,,,,,,,,left,1.0,2.188804971000081,,,,,sub-132,1,random_dot,68.56207999471756,
right,right,35.0,1.0,17.0,right,1.0,3.945266303000153,,accuracy,space,2.8284882429998106,,,,,,0.0,0.0,0.0,0.0,17.0,1.0,35.0,1.0,201.6755316140002,,,,,,,,,201.66505571000016,202.0113323989999,202.8103013660002,202.79659000999985,202.7969203030002,202.8103013660002,202.8103013660002,202.8103013660002,206.77127484099992,,,,,,,,,,,,,,,,,,,,,,,,,,,,,,,right,1.0,3.945266303000153,,,,,sub-132,1,random_dot,68.56207999471756,
right,right,36.0,0.0,18.0,left,0.0,1.2007510779999393,,accuracy,space,2.8284882429998106,,,,,,0.0,0.0,0.0,0.0,18.0,0.0,36.0,1.0,206.783404238,,,,,,,,,206.7718521349998,207.12872229999996,207.93282838000005,207.91961819900007,207.92081650799992,207.93282838000005,207.93282838000005,207.93282838000005,209.14512136699977,,,,,,,,,,,,,,,,,,,,,,,,,,,,,,,left,0.0,1.2007510779999393,,,,,sub-132,1,random_dot,68.56207999471756,
left,left,37.0,1.0,18.0,left,1.0,0.9550071489998118,,accuracy,space,2.8284882429998106,,,,,,0.0,0.0,0.0,0.0,18.0,1.0,37.0,0.0,209.15541790199995,,,,,,,,,209.14569643999997,209.94358922599983,210.743478674,210.72870671200008,210.7291771780001,210.743478674,210.743478674,210.743478674,211.70257043899983,,,,,,,,,,,,,,,,,,,,,,,,,,,,,,,left,1.0,0.9550071489998118,,,,,sub-132,1,random_dot,68.56207999471756,
left,left,38.0,0.0,19.0,left,1.0,1.2868255210000823,,accuracy,space,2.8284882429998106,,,,,,0.0,0.0,0.0,0.0,19.0,0.0,38.0,0.0,211.725153333,,,,,,,,,211.7031176659998,212.49899813799996,213.2959247949998,213.28248592499995,213.282817323,213.2959247949998,213.2959247949998,213.2959247949998,214.5908295969998,,,,,,,,,,,,,,,,,,,,,,,,,,,,,,,left,1.0,1.2868255210000823,,,,,sub-132,1,random_dot,68.56207999471756,
right,right,39.0,1.0,19.0,right,1.0,3.116620641999816,,accuracy,space,2.8284882429998106,,,,,,0.0,0.0,0.0,0.0,19.0,1.0,39.0,1.0,214.60151486899983,,,,,,,,,214.59164856100008,214.68682695000007,215.48886815200007,215.4770440540001,215.47765387399977,215.48886815200007,215.48886815200007,215.48886815200007,218.6202997989999,,,,,,,,,,,,,,,,,,,,,,,,,,,,,,,right,1.0,3.116620641999816,,,,,sub-132,1,random_dot,68.56207999471756,
right,right,40.0,0.0,20.0,right,1.0,2.713084240999706,,accuracy,space,2.8284882429998106,,,,,,0.0,0.0,0.0,0.0,20.0,0.0,40.0,1.0,218.63233953500003,,,,,,,,,218.62122710099996,219.4435330639999,220.24442951699984,220.23268148099987,220.2331482569998,220.24442951699984,220.24442951699984,220.24442951699984,222.96140679300012,,,,,,,,,,,,,,,,,,,,,,,,,,,,,,,right,1.0,2.713084240999706,,,,,sub-132,1,random_dot,68.56207999471756,
left,left,41.0,1.0,20.0,left,1.0,1.1969403449998026,,accuracy,space,2.8284882429998106,,,,,,0.0,0.0,0.0,0.0,20.0,1.0,41.0,0.0,222.97238273999983,,,,,,,,,222.96180366399997,224.16352141700008,224.9714058139998,224.9606364629999,224.96096699200007,224.9714058139998,224.9714058139998,224.9714058139998,226.17769835699983,,,,,,,,,,,,,,,,,,,,,,,,,,,,,,,left,1.0,1.1969403449998026,,,,,sub-132,1,random_dot,68.56207999471756,
right,right,42.0,0.0,21.0,left,0.0,2.5320546490002016,,accuracy,space,2.8284882429998106,,,,,,0.0,0.0,0.0,0.0,21.0,0.0,42.0,1.0,226.1884707230001,,,,,,,,,226.17806515499976,226.9711125150002,227.7768042890002,227.761854678,227.76231749299995,227.7768042890002,227.7768042890002,227.7768042890002,230.31434093200005,,,,,,,,,,,,,,,,,,,,,,,,,,,,,,,left,0.0,2.5320546490002016,,,,,sub-132,1,random_dot,68.56207999471756,
left,left,43.0,1.0,21.0,left,1.0,1.3236013900000216,,accuracy,space,2.8284882429998106,,,,,,0.0,0.0,0.0,0.0,21.0,1.0,43.0,0.0,230.32555356400007,,,,,,,,,230.3149562970002,230.66420986799997,231.47301628800005,231.46058646499975,231.46132947099977,231.47301628800005,231.47301628800005,231.47301628800005,232.81080379600007,,,,,,,,,,,,,,,,,,,,,,,,,,,,,,,left,1.0,1.3236013900000216,,,,,sub-132,1,random_dot,68.56207999471756,
right,right,44.0,0.0,22.0,left,0.0,4.401845779999803,,accuracy,space,2.8284882429998106,,,,,,0.0,0.0,0.0,0.0,22.0,0.0,44.0,1.0,232.82183486299985,,,,,,,,,232.81144033100009,233.602261558,234.39907461199985,234.38623385399976,234.3873646510001,234.39907461199985,234.39907461199985,234.39907461199985,238.8061909029998,,,,,,,,,,,,,,,,,,,,,,,,,,,,,,,left,0.0,4.401845779999803,,,,,sub-132,1,random_dot,68.56207999471756,
left,left,45.0,1.0,22.0,left,1.0,1.2170983459996023,,accuracy,space,2.8284882429998106,,,,,,0.0,0.0,0.0,0.0,22.0,1.0,45.0,0.0,238.81710782399975,,,,,,,,,238.80687753099983,238.90218859900008,239.7097889239999,239.69524326400008,239.69571288499992,239.7097889239999,239.7097889239999,239.7097889239999,240.93354508599987,,,,,,,,,,,,,,,,,,,,,,,,,,,,,,,left,1.0,1.2170983459996023,,,,,sub-132,1,random_dot,68.56207999471756,
left,left,46.0,0.0,23.0,left,1.0,3.997284256000057,,accuracy,space,2.8284882429998106,,,,,,0.0,0.0,0.0,0.0,23.0,0.0,46.0,0.0,240.9435135069998,,,,,,,,,240.93390047899996,241.73686538899983,242.54320768900016,242.52836987,242.52884265600005,242.54320768900016,242.54320768900016,242.54320768900016,246.55323207599983,,,,,,,,,,,,,,,,,,,,,,,,,,,,,,,left,1.0,3.997284256000057,,,,,sub-132,1,random_dot,68.56207999471756,
right,right,47.0,1.0,23.0,right,1.0,1.9641326529999787,,accuracy,space,2.8284882429998106,,,,,,0.0,0.0,0.0,0.0,23.0,1.0,47.0,1.0,246.564186177,,,,,,,,,246.5537462430002,246.90258031599976,247.708306175,247.6960199780001,247.69653477400016,247.708306175,247.708306175,247.708306175,249.68616895900004,,,,,,,,,,,,,,,,,,,,,,,,,,,,,,,right,1.0,1.9641326529999787,,,,,sub-132,1,random_dot,68.56207999471756,
right,right,48.0,0.0,24.0,left,0.0,3.8946243049999794,,accuracy,space,2.8284882429998106,,,,,,0.0,0.0,0.0,0.0,24.0,0.0,48.0,1.0,249.69795845599992,,,,,,,,,249.6865342840001,249.7868083960002,250.58422734799976,250.571485295,250.5719626760001,250.58422734799976,250.58422734799976,250.58422734799976,254.4909592539998,,,,,,,,,,,,,,,,,,,,,,,,,,,,,,,left,0.0,3.8946243049999794,,,,,sub-132,1,random_dot,68.56207999471756,
left,left,49.0,1.0,24.0,left,1.0,1.4997721320000892,,accuracy,space,2.8284882429998106,,,,,,0.0,0.0,0.0,0.0,24.0,1.0,49.0,0.0,254.50177014600013,,,,,,,,,254.49141707599983,255.69518742899984,256.4929840220002,256.478192305,256.47852728399994,256.4929840220002,256.4929840220002,256.4929840220002,258.00954912299994,,,,,,,,,,,,,,,,,,,,,,,,,,,,,,,left,1.0,1.4997721320000892,,,,,sub-132,1,random_dot,68.56207999471756,
left,left,50.0,0.0,25.0,right,0.0,3.1065507780003827,,accuracy,space,2.8284882429998106,,,,,,0.0,0.0,0.0,0.0,25.0,0.0,50.0,0.0,258.02669363899986,,,,,,,,,258.0100679000002,258.3595036830002,259.161946745,259.1490454519999,259.1501543610002,259.161946745,259.161946745,259.161946745,262.2835643819999,,,,,,,,,,,,,,,,,,,,,,,,,,,,,,,right,0.0,3.1065507780003827,,,,,sub-132,1,random_dot,68.56207999471756,
right,right,51.0,1.0,25.0,left,0.0,1.2243540819999907,,accuracy,space,2.8284882429998106,,,,,,0.0,0.0,0.0,0.0,25.0,1.0,51.0,1.0,262.3078032829999,,,,,,,,,262.284081711,263.485433887,264.28781935100005,264.27636173500014,264.2768224810002,264.28781935100005,264.28781935100005,264.28781935100005,265.526497629,,,,,,,,,,,,,,,,,,,,,,,,,,,,,,,left,0.0,1.2243540819999907,,,,,sub-132,1,random_dot,68.56207999471756,
left,left,52.0,0.0,26.0,left,1.0,1.065033269000196,,accuracy,space,2.8284882429998106,,,,,,0.0,0.0,0.0,0.0,26.0,0.0,52.0,0.0,265.5369836149998,,,,,,,,,265.5270317489999,266.71895721300007,267.51586005399986,267.50362125899983,267.504664346,267.51586005399986,267.51586005399986,267.51586005399986,268.5954736479998,,,,,,,,,,,,,,,,,,,,,,,,,,,,,,,left,1.0,1.065033269000196,,,,,sub-132,1,random_dot,68.56207999471756,
right,right,53.0,1.0,26.0,right,1.0,2.3357157799996457,,accuracy,space,2.8284882429998106,,,,,,0.0,0.0,0.0,0.0,26.0,1.0,53.0,1.0,268.609253994,,,,,,,,,268.59591081200006,268.69816980199994,269.4933873770001,269.48194439300005,269.4824144129998,269.4933873770001,269.4933873770001,269.4933873770001,271.8446653199999,,,,,,,,,,,,,,,,,,,,,,,,,,,,,,,right,1.0,2.3357157799996457,,,,,sub-132,1,random_dot,68.56207999471756,
right,right,54.0,0.0,27.0,left,0.0,0.8912303399997654,,accuracy,space,2.8284882429998106,,,,,,0.0,0.0,0.0,0.0,27.0,0.0,54.0,1.0,271.8592784849998,,,,,,,,,271.84506979800017,272.64595922299986,273.4557439270002,273.442982905,273.4436225190002,273.4557439270002,273.4557439270002,273.4557439270002,274.36066818300014,,,,,,,,,,,,,,,,,,,,,,,,,,,,,,,left,0.0,0.8912303399997654,,,,,sub-132,1,random_dot,68.56207999471756,
left,left,55.0,1.0,27.0,right,0.0,3.943443226999989,,accuracy,space,2.8284882429998106,,,,,,0.0,0.0,0.0,0.0,27.0,1.0,55.0,0.0,274.3713826349999,,,,,,,,,274.361184975,275.16505208399985,275.9704439279999,275.959749098,275.960074655,275.9704439279999,275.9704439279999,275.9704439279999,279.9196242899998,,,,,,,,,,,,,,,,,,,,,,,,,,,,,,,right,0.0,3.943443226999989,,,,,sub-132,1,random_dot,68.56207999471756,
left,left,56.0,0.0,28.0,left,1.0,0.9584554240000216,,accuracy,space,2.8284882429998106,,,,,,0.0,0.0,0.0,0.0,28.0,0.0,56.0,0.0,279.9306230709999,,,,,,,,,279.9201600900001,280.27602016699984,281.07116506500006,281.0598244789999,281.0602914750002,281.07116506500006,281.07116506500006,281.07116506500006,282.0338307000002,,,,,,,,,,,,,,,,,,,,,,,,,,,,,,,left,1.0,0.9584554240000216,,,,,sub-132,1,random_dot,68.56207999471756,
right,right,57.0,1.0,28.0,right,1.0,1.4286684740000055,,accuracy,space,2.8284882429998106,,,,,,0.0,0.0,0.0,0.0,28.0,1.0,57.0,1.0,282.0440522620001,,,,,,,,,282.03420013100003,282.136475795,282.9371382439999,282.92606300499983,282.926527522,282.9371382439999,282.9371382439999,282.9371382439999,284.37455326300005,,,,,,,,,,,,,,,,,,,,,,,,,,,,,,,right,1.0,1.4286684740000055,,,,,sub-132,1,random_dot,68.56207999471756,
left,left,58.0,0.0,29.0,left,1.0,1.1399431280001409,,accuracy,space,2.8284882429998106,,,,,,0.0,0.0,0.0,0.0,29.0,0.0,58.0,0.0,284.3847860669998,,,,,,,,,284.375048121,284.7288536159999,285.5286703920001,285.5148261680001,285.515236188,285.5286703920001,285.5286703920001,285.5286703920001,286.6767420410001,,,,,,,,,,,,,,,,,,,,,,,,,,,,,,,left,1.0,1.1399431280001409,,,,,sub-132,1,random_dot,68.56207999471756,
right,right,59.0,1.0,29.0,right,1.0,2.6933811439998863,,accuracy,space,2.8284882429998106,,,,,,0.0,0.0,0.0,0.0,29.0,1.0,59.0,1.0,286.686627651,,,,,,,,,286.67708806300016,287.475806854,288.2756642119998,288.26108100600004,288.2615513229998,288.2756642119998,288.2756642119998,288.2756642119998,290.972840765,,,,,,,,,,,,,,,,,,,,,,,,,,,,,,,right,1.0,2.6933811439998863,,,,,sub-132,1,random_dot,68.56207999471756,
,,0.0,0.0,0.0,,,,,accuracy,space,2.8284882429998106,,,,,,0.0,0.0,0.0,0.0,,,,,,,,,,,,,,,,,,,,,,,,,,,,,,,,,,,,,,,,,,,,,,,,,,,,,,,,,,,,sub-132,1,random_dot,68.56207999471756,
right,right,0.0,0.0,0.0,right,1.0,0.7916838050000479,,speed,space,3.0769272829998044,,,,,,0.0,1.0,1.0,1.0,0.0,0.0,0.0,1.0,294.10044981500005,,,,,,,,,294.09010191200014,294.1908125260002,294.9884180600002,294.97621304899985,294.97667814999977,294.9884180600002,294.9884180600002,294.9884180600002,295.78733326600013,,,,,,,,,,,,,,,,,,,,,,,,290.98727867800017,290.998219135,290.998219135,294.0829634900001,space,3.0769272829998044,,right,1.0,0.7916838050000479,,,,,sub-132,1,random_dot,68.56207999471756,
left,left,1.0,1.0,0.0,left,1.0,0.7356223259998842,,speed,space,3.0769272829998044,,,,,,0.0,1.0,1.0,1.0,0.0,1.0,1.0,0.0,295.7987673990001,,,,,,,,,295.78789870499986,295.8948977619998,296.6982958230001,296.6852919970001,296.68636901399987,296.6982958230001,296.6982958230001,296.6982958230001,297.436653714,,,,,,,,,,,,,,,,,,,,,,,,,,,,,,,left,1.0,0.7356223259998842,,,,,sub-132,1,random_dot,68.56207999471756,
left,left,2.0,0.0,1.0,left,1.0,0.727388024999982,,speed,space,3.0769272829998044,,,,,,0.0,1.0,1.0,1.0,1.0,0.0,2.0,0.0,297.4480284279998,,,,,,,,,297.43718197,298.23557986100013,299.0444452329998,299.02845665999985,299.02901559300017,299.0444452329998,299.0444452329998,299.0444452329998,299.776781603,,,,,,,,,,,,,,,,,,,,,,,,,,,,,,,left,1.0,0.727388024999982,,,,,sub-132,1,random_dot,68.56207999471756,
right,right,3.0,1.0,1.0,right,1.0,1.102170650000062,,speed,space,3.0769272829998044,,,,,,0.0,1.0,1.0,1.0,1.0,1.0,3.0,1.0,299.787886693,,,,,,,,,299.777476797,299.86822382499986,300.67575073199987,300.6612268849999,300.6616949160002,300.67575073199987,300.67575073199987,300.67575073199987,301.7824868480002,,,,,,,,,,,,,,,,,,,,,,,,,,,,,,,right,1.0,1.102170650000062,,,,,sub-132,1,random_dot,68.56207999471756,
right,right,4.0,0.0,2.0,left,0.0,0.8939172519999374,,speed,space,3.0769272829998044,,,,,,0.0,1.0,1.0,1.0,2.0,0.0,4.0,1.0,301.795244596,,,,,,,,,301.7828529489998,302.1315595289998,302.939136124,302.92646220999995,302.9269275040001,302.939136124,302.939136124,302.939136124,303.84148573799985,,,,,,,,,,,,,,,,,,,,,,,,,,,,,,,left,0.0,0.8939172519999374,,,,,sub-132,1,random_dot,68.56207999471756,
left,left,5.0,1.0,2.0,left,1.0,0.8304144010003256,,speed,space,3.0769272829998044,,,,,,0.0,1.0,1.0,1.0,2.0,1.0,5.0,0.0,303.852176934,,,,,,,,,303.842060984,305.0440728200001,305.84241509799995,305.82782396599987,305.828295028,305.84241509799995,305.84241509799995,305.84241509799995,306.6859770589999,,,,,,,,,,,,,,,,,,,,,,,,,,,,,,,left,1.0,0.8304144010003256,,,,,sub-132,1,random_dot,68.56207999471756,
left,left,6.0,0.0,3.0,left,1.0,1.2648037539997858,,speed,space,3.0769272829998044,,,,,,0.0,1.0,1.0,1.0,3.0,0.0,6.0,0.0,306.69689421500016,,,,,,,,,306.686503382,307.88467320200016,308.68672685699994,308.6757338319999,308.67619534000005,308.68672685699994,308.68672685699994,308.68672685699994,309.9626161020001,,,,,,,,,,,,,,,,,,,,,,,,,,,,,,,left,1.0,1.2648037539997858,,,,,sub-132,1,random_dot,68.56207999471756,
right,right,7.0,1.0,3.0,right,1.0,0.809043180000117,,speed,space,3.0769272829998044,,,,,,0.0,1.0,1.0,1.0,3.0,1.0,7.0,1.0,309.9730977240001,,,,,,,,,309.963139516,310.76448787399977,311.5648000279998,311.5513750690002,311.5525194420002,311.5648000279998,311.5648000279998,311.5648000279998,312.38277942600007,,,,,,,,,,,,,,,,,,,,,,,,,,,,,,,right,1.0,0.809043180000117,,,,,sub-132,1,random_dot,68.56207999471756,
left,left,8.0,0.0,4.0,left,1.0,0.809383698000147,,speed,space,3.0769272829998044,,,,,,0.0,1.0,1.0,1.0,4.0,0.0,8.0,0.0,312.3928510999999,,,,,,,,,312.3831298230002,313.58509756700005,314.3813291410001,314.36850244900006,314.3696863629998,314.3813291410001,314.3813291410001,314.3813291410001,315.1962092949998,,,,,,,,,,,,,,,,,,,,,,,,,,,,,,,left,1.0,0.809383698000147,,,,,sub-132,1,random_dot,68.56207999471756,
right,right,9.0,1.0,4.0,right,1.0,1.630239227000402,,speed,space,3.0769272829998044,,,,,,0.0,1.0,1.0,1.0,4.0,1.0,9.0,1.0,315.2088343579999,,,,,,,,,315.19656328500014,315.29759300099977,316.09824794099995,316.0853178510001,316.08671968,316.09824794099995,316.09824794099995,316.09824794099995,317.741428153,,,,,,,,,,,,,,,,,,,,,,,,,,,,,,,right,1.0,1.630239227000402,,,,,sub-132,1,random_dot,68.56207999471756,
left,left,10.0,0.0,5.0,left,1.0,1.411817689000145,,speed,space,3.0769272829998044,,,,,,0.0,1.0,1.0,1.0,5.0,0.0,10.0,0.0,317.75865767999994,,,,,,,,,317.74179368600016,318.085877385,318.8928608279998,318.8814153039998,318.8818852180002,318.8928608279998,318.8928608279998,318.8928608279998,320.319552251,,,,,,,,,,,,,,,,,,,,,,,,,,,,,,,left,1.0,1.411817689000145,,,,,sub-132,1,random_dot,68.56207999471756,
right,right,11.0,1.0,5.0,left,0.0,3.1447977989996616,,speed,space,3.0769272829998044,,,,,,0.0,1.0,1.0,1.0,5.0,1.0,11.0,1.0,320.3307186950001,,,,,,,,,320.3200194299998,320.6761295440001,321.4752650659998,321.46153444799984,321.4618410809999,321.4752650659998,321.4752650659998,321.4752650659998,324.627214873,,,,,,,,,,,,,,,,,,,,,,,,,,,,,,,left,0.0,3.1447977989996616,,,,,sub-132,1,random_dot,68.56207999471756,
right,right,12.0,0.0,6.0,right,1.0,0.6848760190000576,,speed,space,3.0769272829998044,,,,,,0.0,1.0,1.0,1.0,6.0,0.0,12.0,1.0,324.63722731200005,,,,,,,,,324.62755334099984,324.7317104389999,325.5421703820002,325.5275184799998,325.5279102240001,325.5421703820002,325.5421703820002,325.5421703820002,326.2370526210002,,,,,,,,,,,,,,,,,,,,,,,,,,,,,,,right,1.0,0.6848760190000576,,,,,sub-132,1,random_dot,68.56207999471756,
left,left,13.0,1.0,6.0,left,1.0,0.6386670419997245,,speed,space,3.0769272829998044,,,,,,0.0,1.0,1.0,1.0,6.0,1.0,13.0,0.0,326.24816492699983,,,,,,,,,326.2375834979998,327.03635591600005,327.8364596209999,327.825508083,327.825973856,327.8364596209999,327.8364596209999,327.8364596209999,328.48281362199987,,,,,,,,,,,,,,,,,,,,,,,,,,,,,,,left,1.0,0.6386670419997245,,,,,sub-132,1,random_dot,68.56207999471756,
left,left,14.0,0.0,7.0,left,1.0,0.930063613999664,,speed,space,3.0769272829998044,,,,,,0.0,1.0,1.0,1.0,7.0,0.0,14.0,0.0,328.49275575699994,,,,,,,,,328.4831508359998,328.59183071100006,329.386639157,329.3756046630001,329.376070584,329.386639157,329.386639157,329.386639157,330.321056711,,,,,,,,,,,,,,,,,,,,,,,,,,,,,,,left,1.0,0.930063613999664,,,,,sub-132,1,random_dot,68.56207999471756,
right,right,15.0,1.0,7.0,right,1.0,1.0518082080002389,,speed,space,3.0769272829998044,,,,,,0.0,1.0,1.0,1.0,7.0,1.0,15.0,1.0,330.3322765570001,,,,,,,,,330.32200391100014,330.4196084099999,331.21896514699984,331.2088302279999,331.2091564799998,331.21896514699984,331.21896514699984,331.21896514699984,332.27361306600005,,,,,,,,,,,,,,,,,,,,,,,,,,,,,,,right,1.0,1.0518082080002389,,,,,sub-132,1,random_dot,68.56207999471756,
right,right,16.0,0.0,8.0,left,0.0,1.021925610999915,,speed,space,3.0769272829998044,,,,,,0.0,1.0,1.0,1.0,8.0,0.0,16.0,1.0,332.2829991059998,,,,,,,,,332.2741364829999,332.6257927930001,333.4422141089999,333.416025729,333.4164826790002,333.4422141089999,333.4422141089999,333.4422141089999,334.472214635,,,,,,,,,,,,,,,,,,,,,,,,,,,,,,,left,0.0,1.021925610999915,,,,,sub-132,1,random_dot,68.56207999471756,
left,left,17.0,1.0,8.0,left,1.0,0.8975593079999271,,speed,space,3.0769272829998044,,,,,,0.0,1.0,1.0,1.0,8.0,1.0,17.0,0.0,334.4828976499998,,,,,,,,,334.4729418080001,334.817637916,335.6149919559998,335.60169234800014,335.60299422800017,335.6149919559998,335.6149919559998,335.6149919559998,336.51593984400006,,,,,,,,,,,,,,,,,,,,,,,,,,,,,,,left,1.0,0.8975593079999271,,,,,sub-132,1,random_dot,68.56207999471756,
left,left,18.0,0.0,9.0,left,1.0,0.9111768309999206,,speed,space,3.0769272829998044,,,,,,0.0,1.0,1.0,1.0,9.0,0.0,18.0,0.0,336.52672669899994,,,,,,,,,336.51632917100005,336.60992393100014,337.4103896729998,337.3981589109999,337.39852189700014,337.4103896729998,337.4103896729998,337.4103896729998,338.32698904400013,,,,,,,,,,,,,,,,,,,,,,,,,,,,,,,left,1.0,0.9111768309999206,,,,,sub-132,1,random_dot,68.56207999471756,
right,right,19.0,1.0,9.0,right,1.0,1.5443824680000944,,speed,space,3.0769272829998044,,,,,,0.0,1.0,1.0,1.0,9.0,1.0,19.0,1.0,338.3379355080001,,,,,,,,,338.3275344670001,339.5269443940001,340.3325120190002,340.31961028099977,340.3205864810002,340.3325120190002,340.3325120190002,340.3325120190002,341.8823198639998,,,,,,,,,,,,,,,,,,,,,,,,,,,,,,,right,1.0,1.5443824680000944,,,,,sub-132,1,random_dot,68.56207999471756,
right,right,20.0,0.0,10.0,left,0.0,2.5809558880000623,,speed,space,3.0769272829998044,,,,,,0.0,1.0,1.0,1.0,10.0,0.0,20.0,1.0,341.8927847969999,,,,,,,,,341.88273794199995,342.69200155299995,343.4950170349998,343.482221539,343.48254989299994,343.4950170349998,343.4950170349998,343.4950170349998,346.079689916,,,,,,,,,,,,,,,,,,,,,,,,,,,,,,,left,0.0,2.5809558880000623,,,,,sub-132,1,random_dot,68.56207999471756,
left,left,21.0,1.0,10.0,left,1.0,1.532003949999762,,speed,space,3.0769272829998044,,,,,,0.0,1.0,1.0,1.0,10.0,1.0,21.0,0.0,346.0898878940002,,,,,,,,,346.080361456,347.28353877100017,348.09192536499995,348.07708914800014,348.077559068,348.09192536499995,348.09192536499995,348.09192536499995,349.62776664600005,,,,,,,,,,,,,,,,,,,,,,,,,,,,,,,left,1.0,1.532003949999762,,,,,sub-132,1,random_dot,68.56207999471756,
right,right,22.0,0.0,11.0,right,1.0,0.6273326840000664,,speed,space,3.0769272829998044,,,,,,0.0,1.0,1.0,1.0,11.0,0.0,22.0,1.0,349.638043941,,,,,,,,,349.6283869650001,350.827295521,351.6265816340001,351.614698206,351.6152740540001,351.6265816340001,351.6265816340001,351.6265816340001,352.257884057,,,,,,,,,,,,,,,,,,,,,,,,,,,,,,,right,1.0,0.6273326840000664,,,,,sub-132,1,random_dot,68.56207999471756,
left,left,23.0,1.0,11.0,left,1.0,0.8844446550001521,,speed,space,3.0769272829998044,,,,,,0.0,1.0,1.0,1.0,11.0,1.0,23.0,0.0,352.27482993600006,,,,,,,,,352.2584107020002,353.0601763169998,353.8634635550002,353.849301963,353.8498688650002,353.8634635550002,353.8634635550002,353.8634635550002,354.75552706100007,,,,,,,,,,,,,,,,,,,,,,,,,,,,,,,left,1.0,0.8844446550001521,,,,,sub-132,1,random_dot,68.56207999471756,
left,left,24.0,0.0,12.0,right,0.0,0.7227530019999904,,speed,space,3.0769272829998044,,,,,,0.0,1.0,1.0,1.0,12.0,0.0,24.0,0.0,354.7671303729999,,,,,,,,,354.75642457899994,354.8501122769999,355.6492932880001,355.6357049369999,355.636850117,355.6492932880001,355.6492932880001,355.6492932880001,356.37833774,,,,,,,,,,,,,,,,,,,,,,,,,,,,,,,right,0.0,0.7227530019999904,,,,,sub-132,1,random_dot,68.56207999471756,
right,right,25.0,1.0,12.0,right,1.0,1.7717748469999606,,speed,space,3.0769272829998044,,,,,,0.0,1.0,1.0,1.0,12.0,1.0,25.0,1.0,356.3887779900001,,,,,,,,,356.3788648609998,356.726280893,357.5309037339998,357.51790694400006,357.5191154859999,357.5309037339998,357.5309037339998,357.5309037339998,359.30724980900004,,,,,,,,,,,,,,,,,,,,,,,,,,,,,,,right,1.0,1.7717748469999606,,,,,sub-132,1,random_dot,68.56207999471756,
left,left,26.0,0.0,13.0,left,1.0,0.6764756550001039,,speed,space,3.0769272829998044,,,,,,0.0,1.0,1.0,1.0,13.0,0.0,26.0,0.0,359.31673639200017,,,,,,,,,359.3077589919999,359.4011159810002,360.19840787400017,360.1860941099999,360.1865896469999,360.19840787400017,360.19840787400017,360.19840787400017,360.8833978359999,,,,,,,,,,,,,,,,,,,,,,,,,,,,,,,left,1.0,0.6764756550001039,,,,,sub-132,1,random_dot,68.56207999471756,
right,right,27.0,1.0,13.0,left,0.0,2.3521561899997323,,speed,space,3.0769272829998044,,,,,,0.0,1.0,1.0,1.0,13.0,1.0,27.0,1.0,360.9064117060002,,,,,,,,,360.8837469189998,361.6932916579999,362.4983500909998,362.48471517100006,362.4859722269998,362.4983500909998,362.4983500909998,362.4983500909998,364.8548047549998,,,,,,,,,,,,,,,,,,,,,,,,,,,,,,,left,0.0,2.3521561899997323,,,,,sub-132,1,random_dot,68.56207999471756,
left,left,28.0,0.0,14.0,left,1.0,0.5656134719997681,,speed,space,3.0769272829998044,,,,,,0.0,1.0,1.0,1.0,14.0,0.0,28.0,0.0,364.8645354209998,,,,,,,,,364.8556363460002,365.650450995,366.4468098110001,366.4344055769998,366.435618855,366.4468098110001,366.4468098110001,366.4468098110001,367.0156123709999,,,,,,,,,,,,,,,,,,,,,,,,,,,,,,,left,1.0,0.5656134719997681,,,,,sub-132,1,random_dot,68.56207999471756,
right,right,29.0,1.0,14.0,right,1.0,0.4859015580000232,,speed,space,3.0769272829998044,,,,,,0.0,1.0,1.0,1.0,14.0,1.0,29.0,1.0,367.02586388300006,,,,,,,,,367.0160150709999,367.365839001,368.1747583629999,368.160258029,368.1605929080001,368.1747583629999,368.1747583629999,368.1747583629999,368.6672374280001,,,,,,,,,,,,,,,,,,,,,,,,,,,,,,,right,1.0,0.4859015580000232,,,,,sub-132,1,random_dot,68.56207999471756,
left,left,30.0,0.0,15.0,left,1.0,0.880871145999663,,speed,space,3.0769272829998044,,,,,,0.0,1.0,1.0,1.0,15.0,0.0,30.0,0.0,368.6800167930001,,,,,,,,,368.6675848169998,369.0134580290001,369.8205343609998,369.80884759699984,369.8091947029998,369.8205343609998,369.8205343609998,369.8205343609998,370.715824425,,,,,,,,,,,,,,,,,,,,,,,,,,,,,,,left,1.0,0.880871145999663,,,,,sub-132,1,random_dot,68.56207999471756,
right,right,31.0,1.0,15.0,right,1.0,0.605073837999953,,speed,space,3.0769272829998044,,,,,,0.0,1.0,1.0,1.0,15.0,1.0,31.0,1.0,370.7258736949998,,,,,,,,,370.7162463489999,371.9127381960002,372.721148479,372.7086004590001,372.7092071809998,372.721148479,372.721148479,372.721148479,373.3378660540002,,,,,,,,,,,,,,,,,,,,,,,,,,,,,,,right,1.0,0.605073837999953,,,,,sub-132,1,random_dot,68.56207999471756,
left,left,32.0,0.0,16.0,left,1.0,0.7310346229996867,,speed,space,3.0769272829998044,,,,,,0.0,1.0,1.0,1.0,16.0,0.0,32.0,0.0,373.3490399930001,,,,,,,,,373.33858850700017,374.535393395,375.34126498900014,375.3266020420001,375.32707640599983,375.34126498900014,375.34126498900014,375.34126498900014,376.0760031159998,,,,,,,,,,,,,,,,,,,,,,,,,,,,,,,left,1.0,0.7310346229996867,,,,,sub-132,1,random_dot,68.56207999471756,
right,right,33.0,1.0,16.0,left,0.0,0.792245123000157,,speed,space,3.0769272829998044,,,,,,0.0,1.0,1.0,1.0,16.0,1.0,33.0,1.0,376.085768168,,,,,,,,,376.076609793,377.291487173,378.0873974179999,378.0751449640002,378.075766854,378.0873974179999,378.0873974179999,378.0873974179999,378.88736408700015,,,,,,,,,,,,,,,,,,,,,,,,,,,,,,,left,0.0,0.792245123000157,,,,,sub-132,1,random_dot,68.56207999471756,
left,left,34.0,0.0,17.0,left,1.0,1.7714318430003004,,speed,space,3.0769272829998044,,,,,,0.0,1.0,1.0,1.0,17.0,0.0,34.0,0.0,378.898334768,,,,,,,,,378.88798774399993,380.09530402300015,380.901782684,380.891474174,380.89178096900014,380.901782684,380.901782684,380.901782684,382.6799195260001,,,,,,,,,,,,,,,,,,,,,,,,,,,,,,,left,1.0,1.7714318430003004,,,,,sub-132,1,random_dot,68.56207999471756,
right,right,35.0,1.0,17.0,right,1.0,1.792344060999767,,speed,space,3.0769272829998044,,,,,,0.0,1.0,1.0,1.0,17.0,1.0,35.0,1.0,382.6910497869999,,,,,,,,,382.6805404450001,382.7909004799999,383.5909738639998,383.5764106769998,383.576877254,383.5909738639998,383.5909738639998,383.5909738639998,385.3924757,,,,,,,,,,,,,,,,,,,,,,,,,,,,,,,right,1.0,1.792344060999767,,,,,sub-132,1,random_dot,68.56207999471756,
right,right,36.0,0.0,18.0,right,1.0,0.6530365029998393,,speed,space,3.0769272829998044,,,,,,0.0,1.0,1.0,1.0,18.0,0.0,36.0,1.0,385.402582579,,,,,,,,,385.3930267139999,386.1882504119999,386.9859886959998,386.9745031980001,386.9749625449999,386.9859886959998,386.9859886959998,386.9859886959998,387.65118775200017,,,,,,,,,,,,,,,,,,,,,,,,,,,,,,,right,1.0,0.6530365029998393,,,,,sub-132,1,random_dot,68.56207999471756,
left,left,37.0,1.0,18.0,left,1.0,1.701570522000111,,speed,space,3.0769272829998044,,,,,,0.0,1.0,1.0,1.0,18.0,1.0,37.0,0.0,387.6621121960002,,,,,,,,,387.651536805,387.774513283,388.5756332649999,388.5638521279998,388.564327825,388.5756332649999,388.5756332649999,388.5756332649999,390.2919951849999,,,,,,,,,,,,,,,,,,,,,,,,,,,,,,,left,1.0,1.701570522000111,,,,,sub-132,1,random_dot,68.56207999471756,
right,right,38.0,0.0,19.0,right,1.0,1.1293770230004156,,speed,space,3.0769272829998044,,,,,,0.0,1.0,1.0,1.0,19.0,0.0,38.0,1.0,390.3023317970001,,,,,,,,,390.2925306110001,390.3914650359998,391.1909230739998,391.17651434399977,391.176982644,391.1909230739998,391.1909230739998,391.1909230739998,392.335431773,,,,,,,,,,,,,,,,,,,,,,,,,,,,,,,right,1.0,1.1293770230004156,,,,,sub-132,1,random_dot,68.56207999471756,
left,left,39.0,1.0,19.0,left,1.0,1.767860398999801,,speed,space,3.0769272829998044,,,,,,0.0,1.0,1.0,1.0,19.0,1.0,39.0,0.0,392.3460467599998,,,,,,,,,392.3357999489999,392.6839632629999,393.49106819200006,393.4765680380001,393.4768950110001,393.49106819200006,393.49106819200006,393.49106819200006,395.2629025370002,,,,,,,,,,,,,,,,,,,,,,,,,,,,,,,left,1.0,1.767860398999801,,,,,sub-132,1,random_dot,68.56207999471756,
left,left,40.0,0.0,20.0,left,1.0,1.2164420770000106,,speed,space,3.0769272829998044,,,,,,0.0,1.0,1.0,1.0,20.0,0.0,40.0,0.0,395.2726258020002,,,,,,,,,395.2634873309999,395.3669755730002,396.16461479200007,396.150697607,396.1521577110002,396.16461479200007,396.16461479200007,396.16461479200007,397.3966577309998,,,,,,,,,,,,,,,,,,,,,,,,,,,,,,,left,1.0,1.2164420770000106,,,,,sub-132,1,random_dot,68.56207999471756,
right,right,41.0,1.0,20.0,right,1.0,2.7828128020000804,,speed,space,3.0769272829998044,,,,,,0.0,1.0,1.0,1.0,20.0,1.0,41.0,1.0,397.4087826199998,,,,,,,,,397.397347829,398.19721016099993,398.993665165,398.9813617109999,398.981974969,398.993665165,398.993665165,398.993665165,401.7860550780001,,,,,,,,,,,,,,,,,,,,,,,,,,,,,,,right,1.0,2.7828128020000804,,,,,sub-132,1,random_dot,68.56207999471756,
right,right,42.0,0.0,21.0,right,1.0,0.6893265389999215,,speed,space,3.0769272829998044,,,,,,0.0,1.0,1.0,1.0,21.0,0.0,42.0,1.0,401.7971999739998,,,,,,,,,401.786639814,402.583753594,403.385736746,403.375218358,403.375614473,403.385736746,403.385736746,403.385736746,404.0843764709998,,,,,,,,,,,,,,,,,,,,,,,,,,,,,,,right,1.0,0.6893265389999215,,,,,sub-132,1,random_dot,68.56207999471756,
left,left,43.0,1.0,21.0,left,1.0,0.656409278999945,,speed,space,3.0769272829998044,,,,,,0.0,1.0,1.0,1.0,21.0,1.0,43.0,0.0,404.0963205950002,,,,,,,,,404.085018794,404.1841052310001,404.985795733,404.9747103300001,404.9751781999999,404.985795733,404.985795733,404.985795733,405.6500114350001,,,,,,,,,,,,,,,,,,,,,,,,,,,,,,,left,1.0,0.656409278999945,,,,,sub-132,1,random_dot,68.56207999471756,
right,right,44.0,0.0,22.0,left,0.0,3.315840180000123,,speed,space,3.0769272829998044,,,,,,0.0,1.0,1.0,1.0,22.0,0.0,44.0,1.0,405.66294073300014,,,,,,,,,405.650374674,406.4589242840002,407.2587223679998,407.2481727139998,407.24849265600005,407.2587223679998,407.2587223679998,407.2587223679998,410.58868829,,,,,,,,,,,,,,,,,,,,,,,,,,,,,,,left,0.0,3.315840180000123,,,,,sub-132,1,random_dot,68.56207999471756,
left,left,45.0,1.0,22.0,left,1.0,1.196101793999787,,speed,space,3.0769272829998044,,,,,,0.0,1.0,1.0,1.0,22.0,1.0,45.0,0.0,410.59909222299984,,,,,,,,,410.5891928249998,410.93973966700014,411.7413198469999,411.7266655479998,411.7272084269998,411.7413198469999,411.7413198469999,411.7413198469999,412.9420955179999,,,,,,,,,,,,,,,,,,,,,,,,,,,,,,,left,1.0,1.196101793999787,,,,,sub-132,1,random_dot,68.56207999471756,
left,left,46.0,0.0,23.0,left,1.0,0.8835163989997454,,speed,space,3.0769272829998044,,,,,,0.0,1.0,1.0,1.0,23.0,0.0,46.0,0.0,412.9526054610001,,,,,,,,,412.9426054579999,413.2928312570002,414.0978320879999,414.0857360730001,414.08660469000006,414.0978320879999,414.0978320879999,414.0978320879999,414.99504187,,,,,,,,,,,,,,,,,,,,,,,,,,,,,,,left,1.0,0.8835163989997454,,,,,sub-132,1,random_dot,68.56207999471756,
right,right,47.0,1.0,23.0,right,1.0,1.459408338999765,,speed,space,3.0769272829998044,,,,,,0.0,1.0,1.0,1.0,23.0,1.0,47.0,1.0,415.0059350440001,,,,,,,,,414.9956086349998,415.34222553300015,416.14095768000016,416.1258749499998,416.126348321,416.14095768000016,416.14095768000016,416.14095768000016,417.603629193,,,,,,,,,,,,,,,,,,,,,,,,,,,,,,,right,1.0,1.459408338999765,,,,,sub-132,1,random_dot,68.56207999471756,
right,right,48.0,0.0,24.0,right,1.0,1.0966173060000983,,speed,space,3.0769272829998044,,,,,,0.0,1.0,1.0,1.0,24.0,0.0,48.0,1.0,417.6138047280001,,,,,,,,,417.6043901769999,417.9590768379999,418.75978896000015,418.74681346399984,418.7472801290001,418.75978896000015,418.75978896000015,418.75978896000015,419.86139278300016,,,,,,,,,,,,,,,,,,,,,,,,,,,,,,,right,1.0,1.0966173060000983,,,,,sub-132,1,random_dot,68.56207999471756,
left,left,49.0,1.0,24.0,right,0.0,1.6280753769997318,,speed,space,3.0769272829998044,,,,,,0.0,1.0,1.0,1.0,24.0,1.0,49.0,0.0,419.8739228690001,,,,,,,,,419.861748499,420.212459542,421.0132284729998,420.9999048720001,421.00090210100007,421.0132284729998,421.0132284729998,421.0132284729998,422.6510787490001,,,,,,,,,,,,,,,,,,,,,,,,,,,,,,,right,0.0,1.6280753769997318,,,,,sub-132,1,random_dot,68.56207999471756,
left,left,50.0,0.0,25.0,left,1.0,0.975138589999915,,speed,space,3.0769272829998044,,,,,,0.0,1.0,1.0,1.0,25.0,0.0,50.0,0.0,422.663384644,,,,,,,,,422.65180165899983,422.7504151909998,423.551974816,423.540852524,423.541313232,423.551974816,423.551974816,423.551974816,424.531358625,,,,,,,,,,,,,,,,,,,,,,,,,,,,,,,left,1.0,0.975138589999915,,,,,sub-132,1,random_dot,68.56207999471756,
right,right,51.0,1.0,25.0,left,0.0,1.6115826740001469,,speed,space,3.0769272829998044,,,,,,0.0,1.0,1.0,1.0,25.0,1.0,51.0,1.0,424.5437886640002,,,,,,,,,424.5319067969999,425.72947207900006,426.5345935539999,426.524238984,426.52455421600007,426.5345935539999,426.5345935539999,426.5345935539999,428.1493925909999,,,,,,,,,,,,,,,,,,,,,,,,,,,,,,,left,0.0,1.6115826740001469,,,,,sub-132,1,random_dot,68.56207999471756,
right,right,52.0,0.0,26.0,left,0.0,0.8506642709999142,,speed,space,3.0769272829998044,,,,,,0.0,1.0,1.0,1.0,26.0,0.0,52.0,1.0,428.1593681879999,,,,,,,,,428.1499328099999,428.49957072000007,429.307422845,429.2925856500001,429.29311640800006,429.307422845,429.307422845,429.307422845,430.1612790909999,,,,,,,,,,,,,,,,,,,,,,,,,,,,,,,left,0.0,0.8506642709999142,,,,,sub-132,1,random_dot,68.56207999471756,
left,left,53.0,1.0,26.0,left,1.0,0.7180183949999446,,speed,space,3.0769272829998044,,,,,,0.0,1.0,1.0,1.0,26.0,1.0,53.0,0.0,430.1748122650001,,,,,,,,,430.1616507029999,431.36044354900014,432.1631479399998,432.1500996979999,432.15133589900006,432.1631479399998,432.1631479399998,432.1631479399998,432.89205681600015,,,,,,,,,,,,,,,,,,,,,,,,,,,,,,,left,1.0,0.7180183949999446,,,,,sub-132,1,random_dot,68.56207999471756,
right,right,54.0,0.0,27.0,left,0.0,0.6825782989999425,,speed,space,3.0769272829998044,,,,,,0.0,1.0,1.0,1.0,27.0,0.0,54.0,1.0,432.9022533940001,,,,,,,,,432.89250867300007,433.696110542,434.49835887100016,434.485583315,434.4868432789999,434.49835887100016,434.49835887100016,434.49835887100016,435.1850290269999,,,,,,,,,,,,,,,,,,,,,,,,,,,,,,,left,0.0,0.6825782989999425,,,,,sub-132,1,random_dot,68.56207999471756,
left,left,55.0,1.0,27.0,left,1.0,1.0244859760000509,,speed,space,3.0769272829998044,,,,,,0.0,1.0,1.0,1.0,27.0,1.0,55.0,0.0,435.196359563,,,,,,,,,435.18560453200007,436.3904233520002,437.18631085000015,437.1736247280001,437.1748683609999,437.18631085000015,437.18631085000015,437.18631085000015,438.2259791729998,,,,,,,,,,,,,,,,,,,,,,,,,,,,,,,left,1.0,1.0244859760000509,,,,,sub-132,1,random_dot,68.56207999471756,
left,left,56.0,0.0,28.0,left,1.0,1.3405872270000143,,speed,space,3.0769272829998044,,,,,,0.0,1.0,1.0,1.0,28.0,0.0,56.0,0.0,438.2403172190002,,,,,,,,,438.22634200899984,439.44057581000015,440.241561454,440.2300159860001,440.23048852400007,440.241561454,440.241561454,440.241561454,441.6067963149999,,,,,,,,,,,,,,,,,,,,,,,,,,,,,,,left,1.0,1.3405872270000143,,,,,sub-132,1,random_dot,68.56207999471756,
right,right,57.0,1.0,28.0,right,1.0,1.2005402330000834,,speed,space,3.0769272829998044,,,,,,0.0,1.0,1.0,1.0,28.0,1.0,57.0,1.0,441.6239688840001,,,,,,,,,441.6073196769999,442.39944765300015,443.20244153700014,443.1908688610001,443.1915301419999,443.20244153700014,443.20244153700014,443.20244153700014,444.4114388160001,,,,,,,,,,,,,,,,,,,,,,,,,,,,,,,right,1.0,1.2005402330000834,,,,,sub-132,1,random_dot,68.56207999471756,
left,left,58.0,0.0,29.0,left,1.0,1.093060928000341,,speed,space,3.0769272829998044,,,,,,0.0,1.0,1.0,1.0,29.0,0.0,58.0,0.0,444.4229200939999,,,,,,,,,444.41205380500014,444.5235665780001,445.323792701,445.3091365780001,445.3096091520001,445.323792701,445.323792701,445.323792701,446.42030334699984,,,,,,,,,,,,,,,,,,,,,,,,,,,,,,,left,1.0,1.093060928000341,,,,,sub-132,1,random_dot,68.56207999471756,
right,right,59.0,1.0,29.0,left,0.0,1.169461968000178,,speed,space,3.0769272829998044,,,,,,0.0,1.0,1.0,1.0,29.0,1.0,59.0,1.0,446.4303052700002,,,,,,,,,446.42092277599977,446.7685256159998,447.5673588270001,447.5573442250002,447.5576566,447.5673588270001,447.5673588270001,447.5673588270001,448.7563468929998,,,,,,,,,,,,,,,,,,,,,,,,,,,,,,,left,0.0,1.169461968000178,,,,,sub-132,1,random_dot,68.56207999471756,
,,1.0,1.0,0.0,,,,,speed,space,3.0769272829998044,,,,,,0.0,1.0,1.0,1.0,,,,,,,,,,,,,,,,,,,,,,,,,,,,,,,,,,,,,,,,,,,,,,,,,,,,,,,,,,,,sub-132,1,random_dot,68.56207999471756,
,,,,,,,,,,,,,,,,,,,,,,,,,,,,,,,,,,,,,,,,,,,,,,,,,,,,,,,,,,,,,,,,,,,,,,,,,,,,,448.761108917,448.7725488830001,453.7571795130002,sub-132,1,random_dot,68.56207999471756,
