direction,corrAns,thisN,thisTrialN,thisRepN,respDots.keys,respDots.corr,respDots.rt,respDots.duration,randomInstr,respRandomInstr.keys,respRandomInstr.rt,respRandomInstr.duration,practice_trials.thisRepN,practice_trials.thisTrialN,practice_trials.thisN,practice_trials.thisIndex,instr_trials.thisRepN,instr_trials.thisTrialN,instr_trials.thisN,instr_trials.thisIndex,test_trials.thisRepN,test_trials.thisTrialN,test_trials.thisN,test_trials.thisIndex,thisRow.t,notes,general_instruction.started,textGeneralInstr.started,respGeneralInstr.started,general_instruction.stopped,respGeneralInstr.keys,respGeneralInstr.rt,respGeneralInstr.duration,ITI.started,fixcross.started,fixcross.stopped,ITI.stopped,dots.started,backgroundDots.started,stimulusDots.started,respDots.started,dots.stopped,practice_trials.respDots.keys,practice_trials.respDots.corr,practice_trials.respDots.rt,practice_trials.respDots.duration,feedback.started,textFeedback.started,feedback.stopped,textFeedback.stopped,stimulusDots.stopped,info.started,textInfo.started,keyRespInfo.started,info.stopped,keyRespInfo.keys,keyRespInfo.rt,keyRespInfo.duration,test_instruction.started,textTestInstr.started,respTestInstr.started,test_instruction.stopped,respTestInstr.keys,respTestInstr.rt,respTestInstr.duration,random_instruction.started,textRandomInstr.started,respRandomInstr.started,random_instruction.stopped,instr_trials.respRandomInstr.keys,instr_trials.respRandomInstr.rt,instr_trials.respRandomInstr.duration,test_trials.respDots.keys,test_trials.respDots.corr,test_trials.respDots.rt,test_trials.respDots.duration,goodbye.started,textGoodbye.started,textGoodbye.stopped,goodbye.stopped,participant,session,expName,frameRate,Unnamed: 88
,,,,,,,,,,,,,,,,,,,,,,,,,,,0.0079870829940773,0.018195291981101,0.018195291981101,18.574158207979053,space,18.514014290994965,,,,,,,,,,,,,,,,,,,,,,,,,,,,,,,,,,,,,,,,,,,,,,,,,sub-046,1,random_dot,,
right,right,0.0,0.0,0.0,left,0.0,1.9143188749731053,,,,,,0.0,0.0,0.0,1.0,,,,,,,,,18.60065920799389,,,,,,,,,18.58563045799383,18.924592750001462,19.73495895799715,19.71372874997905,19.714333499985518,19.73495895799715,19.73495895799715,19.73495895799715,21.65378937500645,left,0.0,1.9143188749731053,,21.66017208300764,21.6978344169911,22.1629076669924,,,,,,,,,,,,,,,,,,,,,,,,,,,,,,,,sub-046,1,random_dot,,
left,left,1.0,1.0,0.0,left,1.0,4.046720749989618,,,,,,0.0,1.0,1.0,0.0,,,,,,,,,22.168072917003883,,,,,,,,,22.16335245798109,23.352588916983223,24.14465020800708,24.135944957990432,24.13640116699389,24.14465020800708,24.14465020800708,24.14465020800708,28.19622445799177,left,1.0,4.046720749989618,,28.201412374997744,28.217591749998974,28.70222399997874,,,,,,,,,,,,,,,,,,,,,,,,,,,,,,,,sub-046,1,random_dot,,
left,left,2.0,0.0,1.0,right,0.0,3.438889541983372,,,,,,1.0,0.0,2.0,0.0,,,,,,,,,28.71281024999917,,,,,,,,,28.70267533298465,29.88597304199357,30.677882874995703,30.669484499987448,30.669949749979423,30.677882874995703,30.677882874995703,30.677882874995703,34.118481041979976,right,0.0,3.438889541983372,,34.12107283298974,34.12831220799126,34.61351587498211,34.6191462079878,,,,,,,,,,,,,,,,,,,,,,,,,,,,,,,sub-046,1,random_dot,,
right,right,3.0,1.0,1.0,left,0.0,8.442648541997187,,,,,,1.0,1.0,3.0,1.0,,,,,,,,,34.6191462079878,,,,,,,,,34.613994916988304,34.71274912499939,35.504775499983225,35.496757457993226,35.4973276249948,35.504775499983225,35.504775499983225,35.504775499983225,43.95882216698374,left,0.0,8.442648541997187,,43.95893979200628,43.964716916991165,44.45184175000759,44.46263662498677,40.48379433300579,,,,,,,,,,,,,,,,,,,,,,,,,,,,,,sub-046,1,random_dot,,
right,right,4.0,0.0,2.0,right,1.0,5.8924422090058215,,,,,,2.0,0.0,4.0,1.0,,,,,,,,,44.46263662498677,,,,,,,,,44.452202166983625,44.802467750007054,45.59435887497966,45.58568337498582,45.58613316700212,45.59435887497966,45.59435887497966,45.59435887497966,51.50185949998559,right,1.0,5.8924422090058215,,51.504662749997806,51.51093991700327,51.996607167006005,52.00229004200082,50.57901433299412,,,,,,,,,,,,,,,,,,,,,,,,,,,,,,sub-046,1,random_dot,,
left,left,5.0,1.0,2.0,left,1.0,2.140674708003644,,,,,,2.0,1.0,5.0,0.0,,,,,,,,,52.00229004200082,,,,,,,,,51.99705770798028,53.20196437498089,53.99428975000046,53.98510012499173,53.98553999999422,53.99428975000046,53.99428975000046,53.99428975000046,56.14698220798164,left,1.0,2.140674708003644,,56.147074124979554,56.15410529199289,56.6462954999879,56.65146204200573,,,,,,,,,,,,,,,,,,,,,,,,,,,,,,,sub-046,1,random_dot,,
right,right,6.0,0.0,3.0,left,0.0,1.6756542079965584,,,,,,3.0,0.0,6.0,1.0,,,,,,,,,56.65146204200573,,,,,,,,,56.64666537498124,56.99600320798345,57.78729195799679,57.779770583001664,57.78022849999252,57.78729195799679,57.78729195799679,57.78729195799679,59.46529470800306,left,0.0,1.6756542079965584,,59.468230750004295,59.47559458299656,59.9632705829863,59.96881737498916,,,,,,,,,,,,,,,,,,,,,,,,,,,,,,,sub-046,1,random_dot,,
left,left,7.0,1.0,3.0,right,0.0,2.574040667008376,,,,,,3.0,1.0,7.0,0.0,,,,,,,,,59.96881737498916,,,,,,,,,59.96370883300551,60.7623973749869,61.55518816699623,61.54648183300742,61.547075457987376,61.55518816699623,61.55518816699623,61.55518816699623,64.13141933298903,right,0.0,2.574040667008376,,64.1315341249865,64.1388128749968,64.62982283299789,64.63528129199403,,,,,,,,,,,,,,,,,,,,,,,,,,,,,,,sub-046,1,random_dot,,
left,left,8.0,0.0,4.0,right,0.0,1.8620073339843657,,,,,,4.0,0.0,8.0,0.0,,,,,,,,,64.63528129199403,,,,,,,,,64.6302685419796,64.979058041994,65.77127329198993,65.76326291699661,65.76386133299093,65.77127329198993,65.77127329198993,65.77127329198993,67.63666175000253,right,0.0,1.8620073339843657,,67.63677587499842,67.64414170800592,68.1298269580002,68.13537924998673,,,,,,,,,,,,,,,,,,,,,,,,,,,,,,,sub-046,1,random_dot,,
right,right,9.0,1.0,4.0,left,0.0,2.7946865420090035,,,,,,4.0,1.0,9.0,1.0,,,,,,,,,68.13537924998673,,,,,,,,,68.1302827920008,68.23524758298299,69.03805199998897,69.02988354198169,69.03057170799002,69.03805199998897,69.03805199998897,69.03805199998897,71.8344731249963,left,0.0,2.7946865420090035,,71.8345648329996,71.84488116699504,72.32963662498514,72.33528441700037,,,,,,,,,,,,,,,,,,,,,,,,,,,,,,,sub-046,1,random_dot,,
right,right,10.0,0.0,5.0,left,0.0,4.180889042007038,,,,,,5.0,0.0,10.0,1.0,,,,,,,,,72.33528441700037,,,,,,,,,72.33008554199478,72.67904304197873,73.47109995799838,73.46317579198512,73.46374991699122,73.47109995799838,73.47109995799838,73.47109995799838,77.66262733298936,left,0.0,4.180889042007038,,77.66272516699973,77.66760024998803,78.15225658298004,78.16253674999462,,,,,,,,,,,,,,,,,,,,,,,,,,,,,,,sub-046,1,random_dot,,
left,left,11.0,1.0,5.0,left,1.0,2.5954553749761544,,,,,,5.0,1.0,11.0,0.0,,,,,,,,,78.16253674999462,,,,,,,,,78.15270858298754,78.2520259580051,79.04432558300323,79.03573779200087,79.03619458299363,79.04432558300323,79.04432558300323,79.04432558300323,81.64726875000633,left,1.0,2.5954553749761544,,81.65098487498472,81.65854237499298,82.1462045829976,82.15140791700105,,,,,,,,,,,,,,,,,,,,,,,,,,,,,,,sub-046,1,random_dot,,
right,right,12.0,0.0,6.0,right,1.0,5.571164583001519,,,,,,6.0,0.0,12.0,1.0,,,,,,,,,82.15140791700105,,,,,,,,,82.14657562499633,83.34548491699388,84.1375807079894,84.12958470798912,84.1301459579845,84.1375807079894,84.1375807079894,84.1375807079894,89.71455174998846,right,1.0,5.571164583001519,,89.71477766698808,89.72491262498079,90.21295316700709,90.21847887500188,89.11743374998332,,,,,,,,,,,,,,,,,,,,,,,,,,,,,,sub-046,1,random_dot,,
left,left,13.0,1.0,6.0,right,0.0,2.2493025840085465,,,,,,6.0,1.0,13.0,0.0,,,,,,,,,90.21847887500188,,,,,,,,,90.21340858298936,90.5621817499923,91.35370941698784,91.3460368749802,91.34653695797896,91.35370941698784,91.35370941698784,91.35370941698784,93.61303795798447,right,0.0,2.2493025840085465,,93.616632958001,93.62430779199347,94.11269199999516,94.11809691699456,,,,,,,,,,,,,,,,,,,,,,,,,,,,,,,sub-046,1,random_dot,,
left,left,14.0,0.0,7.0,left,1.0,2.425240709009813,,,,,,7.0,0.0,14.0,0.0,,,,,,,,,94.11809691699456,,,,,,,,,94.11305458299466,94.45170737500302,95.24379970799782,95.23515087499982,95.23559308299446,95.24379970799782,95.24379970799782,95.24379970799782,97.67994433298009,left,1.0,2.425240709009813,,97.68252279199078,97.68986237500212,98.17931370798031,98.18457724998008,,,,,,,,,,,,,,,,,,,,,,,,,,,,,,,sub-046,1,random_dot,,
right,right,15.0,1.0,7.0,right,1.0,1.4363999999768566,,,,,,7.0,1.0,15.0,1.0,,,,,,,,,98.18457724998008,,,,,,,,,98.1796892079874,98.97811137500685,99.7708529169904,99.76271474998794,99.76321645799908,99.7708529169904,99.7708529169904,99.7708529169904,101.21342575000016,right,1.0,1.4363999999768566,,101.21353774997988,101.22154208298888,101.7129634580051,101.71864449998247,,,,,,,,,,,,,,,,,,,,,,,,,,,,,,,sub-046,1,random_dot,,
right,right,16.0,0.0,8.0,right,1.0,2.306084084004397,,,,,,8.0,0.0,16.0,1.0,,,,,,,,,101.71864449998247,,,,,,,,,101.7134277499863,102.06193183298456,102.86121316699428,102.85010995800258,102.85058308299632,102.86121316699428,102.86121316699428,102.86121316699428,105.17090866700164,right,1.0,2.306084084004397,,105.17101324998656,105.19488574998104,105.67861825000728,,,,,,,,,,,,,,,,,,,,,,,,,,,,,,,,sub-046,1,random_dot,,
left,left,17.0,1.0,8.0,right,0.0,2.640484875009861,,,,,,8.0,1.0,17.0,0.0,,,,,,,,,105.6842849169916,,,,,,,,,105.6791259580059,106.01809841700016,106.81034283299232,106.80156862500009,106.8020131670055,106.81034283299232,106.81034283299232,106.81034283299232,109.45279379200656,right,0.0,2.640484875009861,,109.45559891700395,109.46342283298144,109.95183174998964,109.9617065420025,,,,,,,,,,,,,,,,,,,,,,,,,,,,,,,sub-046,1,random_dot,,
left,left,18.0,0.0,9.0,left,1.0,2.132333458022913,,,,,,9.0,0.0,18.0,0.0,,,,,,,,,109.9617065420025,,,,,,,,,109.95217316699564,110.75126225000712,111.54367370798718,111.53468508299557,111.53512666700408,111.54367370798718,111.54367370798718,111.54367370798718,113.67912858299678,left,1.0,2.132333458022913,,113.682341000007,113.6897014999995,114.17947474998071,114.18526866700267,,,,,,,,,,,,,,,,,,,,,,,,,,,,,,,sub-046,1,random_dot,,
right,right,19.0,1.0,9.0,left,0.0,2.9889909159974195,,,,,,9.0,1.0,19.0,1.0,,,,,,,,,114.18526866700267,,,,,,,,,114.17992829199648,114.26746295799968,115.0602861669904,115.0520397920045,115.05248216699692,115.0602861669904,115.0602861669904,115.0602861669904,118.051309707982,left,0.0,2.9889909159974195,,118.05424062500242,118.06150916698972,118.54608966698288,118.55399145800038,,,,,,,,,,,,,,,,,,,,,,,,,,,,,,,sub-046,1,random_dot,,
,,,,,,,,,,,,,,,,,,,,,,,,,,,,,,,,,,,,,,,,,,,,,,,,,,,,118.54626808298052,118.55399145800038,118.55399145800038,123.61477283298154,space,5.05779683298897,,,,,,,,,,,,,,,,,,,,,,,,sub-046,1,random_dot,,
,,,,,,,,,,,,,,,,,,,,,,,,,,,,,,,,,,,,,,,,,,,,,,,,,,,,,,,,,,,123.61491941698478,123.62804362497992,123.62804362497992,132.2976293329848,space,8.667047750001075,,,,,,,,,,,,,,,,,sub-046,1,random_dot,,
left,left,0.0,0.0,0.0,left,1.0,3.4941615409916267,,accuracy,space,5.174083707999671,,,,,,0.0,0.0,0.0,0.0,0.0,0.0,0.0,0.0,137.53432283300208,,,,,,,,,137.52558179199696,138.71153374999994,139.50385133299278,139.49581137500354,139.49629387498135,139.50385133299278,139.50385133299278,139.50385133299278,143.0015161249903,,,,,,,,,,,,,,,,,,,,,,,,132.31999975000508,132.32861249998678,132.32861249998678,137.5136854579905,space,5.174083707999671,,left,1.0,3.4941615409916267,,,,,,sub-046,1,random_dot,,
right,right,1.0,1.0,0.0,right,1.0,0.9513195829931648,,accuracy,space,5.174083707999671,,,,,,0.0,0.0,0.0,0.0,0.0,1.0,1.0,1.0,143.01027391699608,,,,,,,,,143.001854208007,144.20145054199384,144.99322350000148,144.98482212499948,144.9852666670049,144.99322350000148,144.99322350000148,144.99322350000148,145.9465867499821,,,,,,,,,,,,,,,,,,,,,,,,,,,,,,,right,1.0,0.9513195829931648,,,,,,sub-046,1,random_dot,,
left,left,2.0,0.0,1.0,right,0.0,3.1486424999893643,,accuracy,space,5.174083707999671,,,,,,0.0,0.0,0.0,0.0,1.0,0.0,2.0,0.0,145.95406975000515,,,,,,,,,145.94709762500133,146.29480679199332,147.08657749998383,147.07878949999576,147.0793269169808,147.08657749998383,147.08657749998383,147.08657749998383,150.23726687498856,,,,,,,,,,,,,,,,,,,,,,,,,,,,,,,right,0.0,3.1486424999893643,,,,,,sub-046,1,random_dot,,
right,right,3.0,1.0,1.0,right,1.0,2.9271001250017434,,accuracy,space,5.174083707999671,,,,,,0.0,0.0,0.0,0.0,1.0,1.0,3.0,1.0,150.26110291699297,,,,,,,,,150.23779524999554,151.034356499993,151.83719770799507,151.82906774998992,151.8296461669961,151.83719770799507,151.83719770799507,151.83719770799507,154.77028054199764,,,,,,,,,,,,,,,,,,,,,,,,,,,,,,,right,1.0,2.9271001250017434,,,,,,sub-046,1,random_dot,,
left,left,4.0,0.0,2.0,left,1.0,5.491799875017023,,accuracy,space,5.174083707999671,,,,,,0.0,0.0,0.0,0.0,2.0,0.0,4.0,0.0,154.77777074999176,,,,,,,,,154.77071616699686,155.11732812499395,155.90978445799556,155.9012346669915,155.90170074999332,155.90978445799556,155.90978445799556,155.90978445799556,161.40404720799415,,,,,,,,,160.8989364579902,,,,,,,,,,,,,,,,,,,,,,left,1.0,5.491799875017023,,,,,,sub-046,1,random_dot,,
right,right,5.0,1.0,2.0,left,0.0,3.4343737919989508,,accuracy,space,5.174083707999671,,,,,,0.0,0.0,0.0,0.0,2.0,1.0,5.0,1.0,161.41525737498887,,,,,,,,,161.40471858298406,161.50092654197942,162.30348199998843,162.29551333299605,162.29608912498225,162.30348199998843,162.30348199998843,162.30348199998843,165.74672458300483,,,,,,,,,,,,,,,,,,,,,,,,,,,,,,,left,0.0,3.4343737919989508,,,,,,sub-046,1,random_dot,,
right,right,6.0,0.0,3.0,right,1.0,3.893173749995185,,accuracy,space,5.174083707999671,,,,,,0.0,0.0,0.0,0.0,3.0,0.0,6.0,1.0,165.75436583298142,,,,,,,,,165.747193416988,166.09447099998945,166.88655583298532,166.87868916700245,166.87925537498086,166.88655583298532,166.88655583298532,166.88655583298532,170.78442904198891,,,,,,,,,,,,,,,,,,,,,,,,,,,,,,,right,1.0,3.893173749995185,,,,,,sub-046,1,random_dot,,
left,left,7.0,1.0,3.0,left,1.0,3.9121547079994334,,accuracy,space,5.174083707999671,,,,,,0.0,0.0,0.0,0.0,3.0,1.0,7.0,0.0,170.79326545799267,,,,,,,,,170.78475108300336,171.58368379200692,172.37623374999384,172.36769208300393,172.3681493329932,172.37623374999384,172.37623374999384,172.37623374999384,176.29612787498627,,,,,,,,,,,,,,,,,,,,,,,,,,,,,,,left,1.0,3.9121547079994334,,,,,,sub-046,1,random_dot,,
left,left,8.0,0.0,4.0,left,1.0,1.476340249995701,,accuracy,space,5.174083707999671,,,,,,0.0,0.0,0.0,0.0,4.0,0.0,8.0,0.0,176.30361145798815,,,,,,,,,176.29658970798482,176.39428812498227,177.1863454169943,177.1785863749974,177.1791506249865,177.1863454169943,177.1863454169943,177.1863454169943,178.6685921669996,,,,,,,,,,,,,,,,,,,,,,,,,,,,,,,left,1.0,1.476340249995701,,,,,,sub-046,1,random_dot,,
right,right,9.0,1.0,4.0,left,0.0,2.415204583987361,,accuracy,space,5.174083707999671,,,,,,0.0,0.0,0.0,0.0,4.0,1.0,9.0,1.0,178.67651033299626,,,,,,,,,178.6689155829954,179.01720674999524,179.80951387499226,179.80136379197938,179.8017987079802,179.80951387499226,179.80951387499226,179.80951387499226,182.22950958300495,,,,,,,,,,,,,,,,,,,,,,,,,,,,,,,left,0.0,2.415204583987361,,,,,,sub-046,1,random_dot,,
left,left,10.0,0.0,5.0,right,0.0,4.276263415988069,,accuracy,space,5.174083707999671,,,,,,0.0,0.0,0.0,0.0,5.0,0.0,10.0,0.0,182.2366629999888,,,,,,,,,182.2298767500033,183.02773833298124,183.82000483298907,183.81179970799712,183.8123640829872,183.82000483298907,183.82000483298907,183.82000483298907,188.1022008330037,,,,,,,,,,,,,,,,,,,,,,,,,,,,,,,right,0.0,4.276263415988069,,,,,,sub-046,1,random_dot,,
right,right,11.0,1.0,5.0,right,1.0,2.889340459019877,,accuracy,space,5.174083707999671,,,,,,0.0,0.0,0.0,0.0,5.0,1.0,11.0,1.0,188.1095851669961,,,,,,,,,188.10252537499764,188.1998147080012,188.99273991698283,188.98426191697945,188.9847039580054,188.99273991698283,188.99273991698283,188.99273991698283,191.89524262500345,,,,,,,,,,,,,,,,,,,,,,,,,,,,,,,right,1.0,2.889340459019877,,,,,,sub-046,1,random_dot,,
left,left,12.0,0.0,6.0,right,0.0,2.224783209007001,,accuracy,space,5.174083707999671,,,,,,0.0,0.0,0.0,0.0,6.0,0.0,12.0,0.0,191.89983304199995,,,,,,,,,191.8955792079796,193.09431124999537,193.8861576670024,193.87837500000023,193.8789521669969,193.8861576670024,193.8861576670024,193.8861576670024,196.120654792001,,,,,,,,,,,,,,,,,,,,,,,,,,,,,,,right,0.0,2.224783209007001,,,,,,sub-046,1,random_dot,,
right,right,13.0,1.0,6.0,right,1.0,4.435151292011142,,accuracy,space,5.174083707999671,,,,,,0.0,0.0,0.0,0.0,6.0,1.0,13.0,1.0,196.12600229200325,,,,,,,,,196.12099616698103,196.91722433298128,197.7093796669797,197.70091545800096,197.7013750000042,197.7093796669797,197.7093796669797,197.7093796669797,202.1555755829904,,,,,,,,,,,,,,,,,,,,,,,,,,,,,,,right,1.0,4.435151292011142,,,,,,sub-046,1,random_dot,,
left,left,14.0,0.0,7.0,left,1.0,5.575597666000249,,accuracy,space,5.174083707999671,,,,,,0.0,0.0,0.0,0.0,7.0,0.0,14.0,0.0,202.16000695800176,,,,,,,,,202.1559072920063,202.95036950000213,203.74254033298348,203.73360008298187,203.73403529200004,203.74254033298348,203.74254033298348,203.74254033298348,209.33084345798125,,,,,,,,,208.7274179579981,,,,,,,,,,,,,,,,,,,,,,left,1.0,5.575597666000249,,,,,,sub-046,1,random_dot,,
right,right,15.0,1.0,7.0,right,1.0,4.392080666002585,,accuracy,space,5.174083707999671,,,,,,0.0,0.0,0.0,0.0,7.0,1.0,15.0,1.0,209.34384829198825,,,,,,,,,209.3312491249817,210.12737037500483,210.9191687919956,210.91139662498608,210.91196133298217,210.9191687919956,210.9191687919956,210.9191687919956,215.3208067920059,,,,,,,,,,,,,,,,,,,,,,,,,,,,,,,right,1.0,4.392080666002585,,,,,,sub-046,1,random_dot,,
left,left,16.0,0.0,8.0,left,1.0,6.465049165999517,,accuracy,space,5.174083707999671,,,,,,0.0,0.0,0.0,0.0,8.0,0.0,16.0,0.0,215.32554341698412,,,,,,,,,215.32112545799464,216.5177072499937,217.3092515830067,217.30087045798427,217.30132579198107,217.3092515830067,217.3092515830067,217.3092515830067,223.77930879199997,,,,,,,,,222.29383566699107,,,,,,,,,,,,,,,,,,,,,,left,1.0,6.465049165999517,,,,,,sub-046,1,random_dot,,
right,right,17.0,1.0,8.0,left,0.0,4.524755082995398,,accuracy,space,5.174083707999671,,,,,,0.0,0.0,0.0,0.0,8.0,1.0,17.0,1.0,223.78926379198677,,,,,,,,,223.78000899998003,223.87714304198744,224.66917179198936,224.66141425000387,224.66197145800103,224.66917179198936,224.66917179198936,224.66917179198936,229.1960946249892,,,,,,,,,,,,,,,,,,,,,,,,,,,,,,,left,0.0,4.524755082995398,,,,,,sub-046,1,random_dot,,
left,left,18.0,0.0,9.0,right,0.0,3.5553039590013213,,accuracy,space,5.174083707999671,,,,,,0.0,0.0,0.0,0.0,9.0,0.0,18.0,0.0,229.20370033298968,,,,,,,,,229.1967277499789,230.39365437498785,231.18571970798075,231.17792116699275,231.1784845420043,231.18571970798075,231.18571970798075,231.18571970798075,234.74500237498432,,,,,,,,,,,,,,,,,,,,,,,,,,,,,,,right,0.0,3.5553039590013213,,,,,,sub-046,1,random_dot,,
right,right,19.0,1.0,9.0,left,0.0,5.748760250018677,,accuracy,space,5.174083707999671,,,,,,0.0,0.0,0.0,0.0,9.0,1.0,19.0,1.0,234.7519982499944,,,,,,,,,234.74536395800533,235.5441513749829,236.33599754198804,236.3278607919929,236.3283494579955,236.33599754198804,236.33599754198804,236.33599754198804,242.09567204199263,,,,,,,,,241.3267573750054,,,,,,,,,,,,,,,,,,,,,,left,0.0,5.748760250018677,,,,,,sub-046,1,random_dot,,
right,right,20.0,0.0,10.0,right,1.0,3.4604114170069806,,accuracy,space,5.174083707999671,,,,,,0.0,0.0,0.0,0.0,10.0,0.0,20.0,1.0,242.10567054199052,,,,,,,,,242.09631674998676,242.44365425000436,243.23576770798536,243.227592249983,243.2281894579937,243.23576770798536,243.23576770798536,243.23576770798536,246.69879295799183,,,,,,,,,,,,,,,,,,,,,,,,,,,,,,,right,1.0,3.4604114170069806,,,,,,sub-046,1,random_dot,,
left,left,21.0,1.0,10.0,right,0.0,4.009070583007997,,accuracy,space,5.174083707999671,,,,,,0.0,0.0,0.0,0.0,10.0,1.0,21.0,0.0,246.7092570420064,,,,,,,,,246.6992915830051,247.89360079198377,248.6858353329881,248.67790545799653,248.67848587498884,248.6858353329881,248.6858353329881,248.6858353329881,252.70007862499915,,,,,,,,,,,,,,,,,,,,,,,,,,,,,,,right,0.0,4.009070583007997,,,,,,sub-046,1,random_dot,,
right,right,22.0,0.0,11.0,left,0.0,4.806536792020779,,accuracy,space,5.174083707999671,,,,,,0.0,0.0,0.0,0.0,11.0,0.0,22.0,1.0,252.70902545799615,,,,,,,,,252.70040562498616,253.89984058300612,254.69955287498303,254.69293074999587,254.6934326250048,254.69955287498303,254.69955287498303,254.69955287498303,259.5110271250014,,,,,,,,,,,,,,,,,,,,,,,,,,,,,,,left,0.0,4.806536792020779,,,,,,sub-046,1,random_dot,,
left,left,23.0,1.0,11.0,right,0.0,3.59799574999488,,accuracy,space,5.174083707999671,,,,,,0.0,0.0,0.0,0.0,11.0,1.0,23.0,0.0,259.51888570800656,,,,,,,,,259.51155004199245,260.69885729197995,261.4921650420001,261.4827751249832,261.48332379199564,261.4921650420001,261.4921650420001,261.4921650420001,265.09457358298823,,,,,,,,,,,,,,,,,,,,,,,,,,,,,,,right,0.0,3.59799574999488,,,,,,sub-046,1,random_dot,,
right,right,24.0,0.0,12.0,left,0.0,3.53574849999859,,accuracy,space,5.174083707999671,,,,,,0.0,0.0,0.0,0.0,12.0,0.0,24.0,1.0,265.102841874992,,,,,,,,,265.0950212079915,266.293474999984,267.08555716698174,267.0775362919958,267.07812829199247,267.08555716698174,267.08555716698174,267.08555716698174,270.62842949997867,,,,,,,,,,,,,,,,,,,,,,,,,,,,,,,left,0.0,3.53574849999859,,,,,,sub-046,1,random_dot,,
left,left,25.0,1.0,12.0,right,0.0,4.9411710829881486,,accuracy,space,5.174083707999671,,,,,,0.0,0.0,0.0,0.0,12.0,1.0,25.0,0.0,270.6358936250035,,,,,,,,,270.6289217500016,270.97665229198174,271.76890570798423,271.76069033300155,271.76125695797964,271.76890570798423,271.76890570798423,271.76890570798423,276.71211541700177,,,,,,,,,,,,,,,,,,,,,,,,,,,,,,,right,0.0,4.9411710829881486,,,,,,sub-046,1,random_dot,,
right,right,26.0,0.0,13.0,left,0.0,2.5593334160221275,,accuracy,space,5.174083707999671,,,,,,0.0,0.0,0.0,0.0,13.0,0.0,26.0,1.0,276.7196119169821,,,,,,,,,276.71269708298496,277.90998687499086,278.70250141699216,278.6940234169888,278.6945923329913,278.70250141699216,278.70250141699216,278.70250141699216,281.2649189999793,,,,,,,,,,,,,,,,,,,,,,,,,,,,,,,left,0.0,2.5593334160221275,,,,,,sub-046,1,random_dot,,
left,left,27.0,1.0,13.0,left,1.0,3.7131302079942543,,accuracy,space,5.174083707999671,,,,,,0.0,0.0,0.0,0.0,13.0,1.0,27.0,0.0,281.2763674999878,,,,,,,,,281.26524908299325,281.60989120800514,282.4011599579826,282.3937404169992,282.39421220798977,282.4011599579826,282.4011599579826,282.4011599579826,286.1181092079787,,,,,,,,,,,,,,,,,,,,,,,,,,,,,,,left,1.0,3.7131302079942543,,,,,,sub-046,1,random_dot,,
left,left,28.0,0.0,14.0,left,1.0,4.048257959017064,,accuracy,space,5.174083707999671,,,,,,0.0,0.0,0.0,0.0,14.0,0.0,28.0,0.0,286.125406999985,,,,,,,,,286.1185354999907,286.9161415830022,287.7083192499995,287.6993109580071,287.6997556669812,287.7083192499995,287.7083192499995,287.7083192499995,291.7611897919851,,,,,,,,,,,,,,,,,,,,,,,,,,,,,,,left,1.0,4.048257959017064,,,,,,sub-046,1,random_dot,,
right,right,29.0,1.0,14.0,left,0.0,5.446898666996276,,accuracy,space,5.174083707999671,,,,,,0.0,0.0,0.0,0.0,14.0,1.0,29.0,1.0,291.76859812499606,,,,,,,,,291.7615876249911,292.9598869580077,293.7519108330016,293.7438425830041,293.7443285420013,293.7519108330016,293.7519108330016,293.7519108330016,299.20175291699707,,,,,,,,,298.7428409169952,,,,,,,,,,,,,,,,,,,,,,left,0.0,5.446898666996276,,,,,,sub-046,1,random_dot,,
left,left,30.0,0.0,15.0,right,0.0,4.325541916012298,,accuracy,space,5.174083707999671,,,,,,0.0,0.0,0.0,0.0,15.0,0.0,30.0,0.0,299.2119607499917,,,,,,,,,299.2023874169972,299.9999625000055,300.8011343329854,300.7939122499956,300.79431904200464,300.8011343329854,300.8011343329854,300.8011343329854,305.12894191700616,,,,,,,,,,,,,,,,,,,,,,,,,,,,,,,right,0.0,4.325541916012298,,,,,,sub-046,1,random_dot,,
right,right,31.0,1.0,15.0,right,1.0,5.764950250013499,,accuracy,space,5.174083707999671,,,,,,0.0,0.0,0.0,0.0,15.0,1.0,31.0,1.0,305.13691450000624,,,,,,,,,305.1296100830077,305.92617966700345,306.7185166669952,306.71049891700386,306.7110774999892,306.7185166669952,306.7185166669952,306.7185166669952,312.4947119579884,,,,,,,,,311.7095135419804,,,,,,,,,,,,,,,,,,,,,,right,1.0,5.764950250013499,,,,,,sub-046,1,random_dot,,
right,right,32.0,0.0,16.0,right,1.0,4.319275124988053,,accuracy,space,5.174083707999671,,,,,,0.0,0.0,0.0,0.0,16.0,0.0,32.0,1.0,312.5001409169927,,,,,,,,,312.49516808299813,313.29283387499163,314.0848701669893,314.07691029200214,314.07748300000094,314.0848701669893,314.0848701669893,314.0848701669893,318.4109566669795,,,,,,,,,,,,,,,,,,,,,,,,,,,,,,,right,1.0,4.319275124988053,,,,,,sub-046,1,random_dot,,
left,left,33.0,1.0,16.0,left,1.0,2.8170731250138488,,accuracy,space,5.174083707999671,,,,,,0.0,0.0,0.0,0.0,16.0,1.0,33.0,0.0,318.4184330829885,,,,,,,,,318.4113818749902,318.5093210419873,319.30178120799246,319.2936653329816,319.2942618749803,319.30178120799246,319.30178120799246,319.30178120799246,322.12769179200404,,,,,,,,,,,,,,,,,,,,,,,,,,,,,,,left,1.0,2.8170731250138488,,,,,,sub-046,1,random_dot,,
left,left,34.0,0.0,17.0,left,1.0,3.690818499977468,,accuracy,space,5.174083707999671,,,,,,0.0,0.0,0.0,0.0,17.0,0.0,34.0,0.0,322.1350894999923,,,,,,,,,322.1281166669796,323.3261984169949,324.1177710829943,324.1100941670011,324.110557832988,324.1177710829943,324.1177710829943,324.1177710829943,327.8106618330057,,,,,,,,,,,,,,,,,,,,,,,,,,,,,,,left,1.0,3.690818499977468,,,,,,sub-046,1,random_dot,,
right,right,35.0,1.0,17.0,right,1.0,3.4077513329975773,,accuracy,space,5.174083707999671,,,,,,0.0,0.0,0.0,0.0,17.0,1.0,35.0,1.0,327.8178729999927,,,,,,,,,327.81099125000765,328.1594777919818,328.95131962499,328.9435446669813,328.94411424998543,328.95131962499,328.95131962499,328.95131962499,332.36824904198875,,,,,,,,,,,,,,,,,,,,,,,,,,,,,,,right,1.0,3.4077513329975773,,,,,,sub-046,1,random_dot,,
left,left,36.0,0.0,18.0,right,0.0,3.794269709003856,,accuracy,space,5.174083707999671,,,,,,0.0,0.0,0.0,0.0,18.0,0.0,36.0,0.0,332.37473162499373,,,,,,,,,332.3685764579859,332.4648179579817,333.2577080419869,333.2489865829993,333.2494307500019,333.2577080419869,333.2577080419869,333.2577080419869,337.06103666700074,,,,,,,,,,,,,,,,,,,,,,,,,,,,,,,right,0.0,3.794269709003856,,,,,,sub-046,1,random_dot,,
right,right,37.0,1.0,18.0,right,1.0,3.805513624974992,,accuracy,space,5.174083707999671,,,,,,0.0,0.0,0.0,0.0,18.0,1.0,37.0,1.0,337.06865087500773,,,,,,,,,337.0615478749969,337.4092352919979,338.20051949998015,338.1931216669909,338.1935830829898,338.20051949998015,338.20051949998015,338.20051949998015,342.00915120798163,,,,,,,,,,,,,,,,,,,,,,,,,,,,,,,right,1.0,3.805513624974992,,,,,,sub-046,1,random_dot,,
left,left,38.0,0.0,19.0,left,1.0,2.2900702089827973,,accuracy,space,5.174083707999671,,,,,,0.0,0.0,0.0,0.0,19.0,0.0,38.0,0.0,342.0161546669842,,,,,,,,,342.0095083329943,342.3491723749903,343.1410024999932,343.1326380420069,343.1330879580055,343.1410024999932,343.1410024999932,343.1410024999932,345.4334159169812,,,,,,,,,,,,,,,,,,,,,,,,,,,,,,,left,1.0,2.2900702089827973,,,,,,sub-046,1,random_dot,,
right,right,39.0,1.0,19.0,right,1.0,4.486575166985858,,accuracy,space,5.174083707999671,,,,,,0.0,0.0,0.0,0.0,19.0,1.0,39.0,1.0,345.4412773749791,,,,,,,,,345.43372737499885,346.63172362500336,347.42425312500563,347.41491891699843,347.41545729199424,347.42425312500563,347.42425312500563,347.42425312500563,351.9172189999954,,,,,,,,,,,,,,,,,,,,,,,,,,,,,,,right,1.0,4.486575166985858,,,,,,sub-046,1,random_dot,,
left,left,40.0,0.0,20.0,right,0.0,2.8106957499985583,,accuracy,space,5.174083707999671,,,,,,0.0,0.0,0.0,0.0,20.0,0.0,40.0,0.0,351.924309916998,,,,,,,,,351.9175474999938,352.0150070420059,352.8075918329996,352.7988927499973,352.79932429199107,352.8075918329996,352.8075918329996,352.8075918329996,355.62560549998307,,,,,,,,,,,,,,,,,,,,,,,,,,,,,,,right,0.0,2.8106957499985583,,,,,,sub-046,1,random_dot,,
right,right,41.0,1.0,20.0,right,1.0,5.915964917017845,,accuracy,space,5.174083707999671,,,,,,0.0,0.0,0.0,0.0,20.0,1.0,41.0,1.0,355.63261087500723,,,,,,,,,355.6259451249789,356.81529583298834,357.60750670798006,357.59871495800326,357.5991646249895,357.60750670798006,357.60750670798006,357.60750670798006,363.5277149169997,,,,,,,,,362.5923067079857,,,,,,,,,,,,,,,,,,,,,,right,1.0,5.915964917017845,,,,,,sub-046,1,random_dot,,
right,right,42.0,0.0,21.0,right,1.0,4.57940137499827,,accuracy,space,5.174083707999671,,,,,,0.0,0.0,0.0,0.0,21.0,0.0,42.0,1.0,363.5379174169793,,,,,,,,,363.5283789169917,363.8754934169992,364.66727816700586,364.6595828749996,364.6600358329888,364.66727816700586,364.66727816700586,364.66727816700586,369.24949516699417,,,,,,,,,,,,,,,,,,,,,,,,,,,,,,,right,1.0,4.57940137499827,,,,,,sub-046,1,random_dot,,
left,left,43.0,1.0,21.0,left,1.0,3.270339667011285,,accuracy,space,5.174083707999671,,,,,,0.0,0.0,0.0,0.0,21.0,1.0,43.0,0.0,369.2573842499987,,,,,,,,,369.24985112500144,370.44817220798,371.2411798329849,371.2329451669939,371.2333821250068,371.2411798329849,371.2411798329849,371.2411798329849,374.5153660000069,,,,,,,,,,,,,,,,,,,,,,,,,,,,,,,left,1.0,3.270339667011285,,,,,,sub-046,1,random_dot,,
left,left,44.0,0.0,22.0,left,1.0,4.7073007080180105,,accuracy,space,5.174083707999671,,,,,,0.0,0.0,0.0,0.0,22.0,0.0,44.0,0.0,374.5242707080033,,,,,,,,,374.5156844169833,374.8646785419842,375.6572920419858,375.6487359169987,375.6492028750072,375.6572920419858,375.6572920419858,375.6572920419858,380.3671068330004,,,,,,,,,,,,,,,,,,,,,,,,,,,,,,,left,1.0,4.7073007080180105,,,,,,sub-046,1,random_dot,,
right,right,45.0,1.0,22.0,right,1.0,5.3793401250150055,,accuracy,space,5.174083707999671,,,,,,0.0,0.0,0.0,0.0,22.0,1.0,45.0,1.0,380.3745739999868,,,,,,,,,380.3674871249823,380.71491745798266,381.5072127500025,381.4986738330044,381.4991119999904,381.5072127500025,381.5072127500025,381.5072127500025,386.8943071249814,,,,,,,,,386.4963179579936,,,,,,,,,,,,,,,,,,,,,,right,1.0,5.3793401250150055,,,,,,sub-046,1,random_dot,,
right,right,46.0,0.0,23.0,left,0.0,2.1960507499752566,,accuracy,space,5.174083707999671,,,,,,0.0,0.0,0.0,0.0,23.0,0.0,46.0,1.0,386.9040909580072,,,,,,,,,386.8949932079995,386.9919962080021,387.7846790420008,387.7763139999879,387.7768924169941,387.7846790420008,387.7846790420008,387.7846790420008,389.98411495800246,,,,,,,,,,,,,,,,,,,,,,,,,,,,,,,left,0.0,2.1960507499752566,,,,,,sub-046,1,random_dot,,
left,left,47.0,1.0,23.0,left,1.0,3.631122084014351,,accuracy,space,5.174083707999671,,,,,,0.0,0.0,0.0,0.0,23.0,1.0,47.0,0.0,389.991290667007,,,,,,,,,389.98443537499406,390.7815999999875,391.57377295798506,391.5650052919809,391.5654829579871,391.57377295798506,391.57377295798506,391.57377295798506,395.20931099998415,,,,,,,,,,,,,,,,,,,,,,,,,,,,,,,left,1.0,3.631122084014351,,,,,,sub-046,1,random_dot,,
left,left,48.0,0.0,24.0,right,0.0,3.758212457993068,,accuracy,space,5.174083707999671,,,,,,0.0,0.0,0.0,0.0,24.0,0.0,48.0,0.0,395.2163859999855,,,,,,,,,395.20963383300113,395.5490761249967,396.3508585829986,396.3427715830039,396.34334329198464,396.3508585829986,396.3508585829986,396.3508585829986,400.1200557499833,,,,,,,,,,,,,,,,,,,,,,,,,,,,,,,right,0.0,3.758212457993068,,,,,,sub-046,1,random_dot,,
right,right,49.0,1.0,24.0,right,1.0,4.780253750010161,,accuracy,space,5.174083707999671,,,,,,0.0,0.0,0.0,0.0,24.0,1.0,49.0,1.0,400.1239840000053,,,,,,,,,400.1203867500008,401.3142409579887,402.10697041699314,402.0988627499901,402.09931204200257,402.10697041699314,402.10697041699314,402.10697041699314,406.893288124993,,,,,,,,,,,,,,,,,,,,,,,,,,,,,,,right,1.0,4.780253750010161,,,,,,sub-046,1,random_dot,,
right,right,50.0,0.0,25.0,left,0.0,3.858379000012064,,accuracy,space,5.174083707999671,,,,,,0.0,0.0,0.0,0.0,25.0,0.0,50.0,1.0,406.9007114999986,,,,,,,,,406.8937389999919,408.09177349999663,408.8833620419901,408.875736166985,408.8762239170028,408.8833620419901,408.8833620419901,408.8833620419901,412.743897791981,,,,,,,,,,,,,,,,,,,,,,,,,,,,,,,left,0.0,3.858379000012064,,,,,,sub-046,1,random_dot,,
left,left,51.0,1.0,25.0,right,0.0,5.616218834009487,,accuracy,space,5.174083707999671,,,,,,0.0,0.0,0.0,0.0,25.0,1.0,51.0,0.0,412.7513369169901,,,,,,,,,412.7444815829804,413.54179233298055,414.3338956669904,414.3258072499884,414.3263728329912,414.3338956669904,414.3338956669904,414.3338956669904,419.9603381670022,,,,,,,,,419.3248639579979,,,,,,,,,,,,,,,,,,,,,,right,0.0,5.616218834009487,,,,,,sub-046,1,random_dot,,
right,right,52.0,0.0,26.0,right,1.0,2.309521083981963,,accuracy,space,5.174083707999671,,,,,,0.0,0.0,0.0,0.0,26.0,0.0,52.0,1.0,419.9701809579856,,,,,,,,,419.9610172919929,421.1582676669932,421.94986433300073,421.9422058329801,421.9426696249866,421.94986433300073,421.94986433300073,421.94986433300073,424.2649397079949,,,,,,,,,,,,,,,,,,,,,,,,,,,,,,,right,1.0,2.309521083981963,,,,,,sub-046,1,random_dot,,
left,left,53.0,1.0,26.0,left,1.0,3.5269963330065366,,accuracy,space,5.174083707999671,,,,,,0.0,0.0,0.0,0.0,26.0,1.0,53.0,0.0,424.27368766698055,,,,,,,,,424.2652637079882,424.3637995419849,425.1566992079897,425.14801945799263,425.14846666698577,425.1566992079897,425.1566992079897,425.1566992079897,428.6927422079898,,,,,,,,,,,,,,,,,,,,,,,,,,,,,,,left,1.0,3.5269963330065366,,,,,,sub-046,1,random_dot,,
right,right,54.0,0.0,27.0,right,1.0,3.3008821250114124,,accuracy,space,5.174083707999671,,,,,,0.0,0.0,0.0,0.0,27.0,0.0,54.0,1.0,428.6996503749979,,,,,,,,,428.69306979200337,429.04147525000735,429.8337422499899,429.8255412500002,429.8261077500065,429.8337422499899,429.8337422499899,429.8337422499899,433.1429561669938,,,,,,,,,,,,,,,,,,,,,,,,,,,,,,,right,1.0,3.3008821250114124,,,,,,sub-046,1,random_dot,,
left,left,55.0,1.0,27.0,right,0.0,3.379535667016171,,accuracy,space,5.174083707999671,,,,,,0.0,0.0,0.0,0.0,27.0,1.0,55.0,0.0,433.1500866669812,,,,,,,,,433.1432912919845,433.2415431669797,434.03380233299686,434.0257941669842,434.0263815000071,434.03380233299686,434.03380233299686,434.03380233299686,437.4164194999903,,,,,,,,,,,,,,,,,,,,,,,,,,,,,,,right,0.0,3.379535667016171,,,,,,sub-046,1,random_dot,,
left,left,56.0,0.0,28.0,left,1.0,3.714352000009967,,accuracy,space,5.174083707999671,,,,,,0.0,0.0,0.0,0.0,28.0,0.0,56.0,0.0,437.4238087919948,,,,,,,,,437.4167572080041,437.7649889999884,438.5564932919806,438.548008541984,438.5484562499914,438.5564932919806,438.5564932919806,438.5564932919806,442.2752754169924,,,,,,,,,,,,,,,,,,,,,,,,,,,,,,,left,1.0,3.714352000009967,,,,,,sub-046,1,random_dot,,
right,right,57.0,1.0,28.0,right,1.0,4.657756000000518,,accuracy,space,5.174083707999671,,,,,,0.0,0.0,0.0,0.0,28.0,1.0,57.0,1.0,442.2821893749933,,,,,,,,,442.2755878329917,443.4643177079852,444.25658279200434,444.2475408749888,444.2479793749808,444.25658279200434,444.25658279200434,444.25658279200434,448.9160928750061,,,,,,,,,,,,,,,,,,,,,,,,,,,,,,,right,1.0,4.657756000000518,,,,,,sub-046,1,random_dot,,
right,right,58.0,0.0,29.0,right,1.0,5.571271208988037,,accuracy,space,5.174083707999671,,,,,,0.0,0.0,0.0,0.0,29.0,0.0,58.0,1.0,448.9232547080028,,,,,,,,,448.91641816700576,449.2636923749815,450.05646645798697,450.0480333330052,450.0485094579926,450.05646645798697,450.05646645798697,450.05646645798697,455.6329141669849,,,,,,,,,455.0410656669992,,,,,,,,,,,,,,,,,,,,,,right,1.0,5.571271208988037,,,,,,sub-046,1,random_dot,,
left,left,59.0,1.0,29.0,left,1.0,3.5204279590107035,,accuracy,space,5.174083707999671,,,,,,0.0,0.0,0.0,0.0,29.0,1.0,59.0,0.0,455.6427858329844,,,,,,,,,455.633454166993,455.7302496669872,456.52297691698186,456.5146249579848,456.5150604999799,456.52297691698186,456.52297691698186,456.52297691698186,460.0479780419846,,,,,,,,,,,,,,,,,,,,,,,,,,,,,,,left,1.0,3.5204279590107035,,,,,,sub-046,1,random_dot,,
,,0.0,0.0,0.0,,,,,accuracy,space,5.174083707999671,,,,,,0.0,0.0,0.0,0.0,,,,,,,,,,,,,,,,,,,,,,,,,,,,,,,,,,,,,,,,,,,,,,,,,,,,,,,,,,,,,sub-046,1,random_dot,,
left,left,0.0,0.0,0.0,left,1.0,2.1584856669942383,,speed,space,5.6298582080053166,,,,,,0.0,1.0,1.0,1.0,0.0,0.0,0.0,0.0,465.73123308300273,,,,,,,,,465.7224212499859,466.9078407500056,467.6997544170008,467.69178295799065,467.6922718329879,467.6997544170008,467.6997544170008,467.6997544170008,469.86766454199096,,,,,,,,,,,,,,,,,,,,,,,,460.0626254169911,460.0693637919903,460.0693637919903,465.7097776249866,space,5.6298582080053166,,left,1.0,2.1584856669942383,,,,,,sub-046,1,random_dot,,
right,right,1.0,1.0,0.0,right,1.0,1.0528204170113895,,speed,space,5.6298582080053166,,,,,,0.0,1.0,1.0,1.0,0.0,1.0,1.0,1.0,469.87296479198267,,,,,,,,,469.868006832985,470.6644939169928,471.4561763749807,471.4476614999876,471.4481180830044,471.4561763749807,471.4561763749807,471.4561763749807,472.5149377079797,,,,,,,,,,,,,,,,,,,,,,,,,,,,,,,right,1.0,1.0528204170113895,,,,,,sub-046,1,random_dot,,
right,right,2.0,0.0,1.0,left,0.0,2.34151374999783,,speed,space,5.6298582080053166,,,,,,0.0,1.0,1.0,1.0,1.0,0.0,2.0,1.0,472.5231375829899,,,,,,,,,472.5152552920045,472.6133180829929,473.40624916699016,473.3971934169822,473.3976160419989,473.40624916699016,473.40624916699016,473.40624916699016,475.7589876669808,,,,,,,,,,,,,,,,,,,,,,,,,,,,,,,left,0.0,2.34151374999783,,,,,,sub-046,1,random_dot,,
left,left,3.0,1.0,1.0,left,1.0,0.938256082998123,,speed,space,5.6298582080053166,,,,,,0.0,1.0,1.0,1.0,1.0,1.0,3.0,0.0,475.765845249989,,,,,,,,,475.7593054999888,476.1077669579827,476.8999543329992,476.8917572920036,476.8923232079833,476.8999543329992,476.8999543329992,476.8999543329992,477.8426284579909,,,,,,,,,,,,,,,,,,,,,,,,,,,,,,,left,1.0,0.938256082998123,,,,,,sub-046,1,random_dot,,
left,left,4.0,0.0,2.0,left,1.0,2.122007959027542,,speed,space,5.6298582080053166,,,,,,0.0,1.0,1.0,1.0,2.0,0.0,4.0,0.0,477.8495954170066,,,,,,,,,477.8429652499908,479.04090599998017,479.8327067079954,479.8249116670049,479.82547958299983,479.8327067079954,479.8327067079954,479.8327067079954,481.95854891699855,,,,,,,,,,,,,,,,,,,,,,,,,,,,,,,left,1.0,2.122007959027542,,,,,,sub-046,1,random_dot,,
right,right,5.0,1.0,2.0,right,1.0,1.6077849169960243,,speed,space,5.6298582080053166,,,,,,0.0,1.0,1.0,1.0,2.0,1.0,5.0,1.0,481.9660203329986,,,,,,,,,481.95902512499015,482.3074420829944,483.10042837497895,483.0920316249831,483.0927867080027,483.10042837497895,483.10042837497895,483.10042837497895,484.7184251669969,,,,,,,,,,,,,,,,,,,,,,,,,,,,,,,right,1.0,1.6077849169960243,,,,,,sub-046,1,random_dot,,
left,left,6.0,0.0,3.0,right,0.0,1.4657822090084665,,speed,space,5.6298582080053166,,,,,,0.0,1.0,1.0,1.0,3.0,0.0,6.0,0.0,484.7231763330056,,,,,,,,,484.7187754169863,485.0635570829909,485.8559981669823,485.8468484169862,485.847283457988,485.8559981669823,485.8559981669823,485.8559981669823,487.32573020798736,,,,,,,,,,,,,,,,,,,,,,,,,,,,,,,right,0.0,1.4657822090084665,,,,,,sub-046,1,random_dot,,
right,right,7.0,1.0,3.0,right,1.0,0.8985302500077523,,speed,space,5.6298582080053166,,,,,,0.0,1.0,1.0,1.0,3.0,1.0,7.0,1.0,487.33272354200017,,,,,,,,,487.3260547920072,487.4240810000047,488.21606491698185,488.2083379169926,488.2088933750056,488.21606491698185,488.21606491698185,488.21606491698185,489.1166686250072,,,,,,,,,,,,,,,,,,,,,,,,,,,,,,,right,1.0,0.8985302500077523,,,,,,sub-046,1,random_dot,,
left,left,8.0,0.0,4.0,left,1.0,0.5824575829901733,,speed,space,5.6298582080053166,,,,,,0.0,1.0,1.0,1.0,4.0,0.0,8.0,0.0,489.1235720829864,,,,,,,,,489.1170002919971,489.91436616698047,490.7163079169986,490.7083555829886,490.7089291669836,490.7163079169986,490.7163079169986,490.7163079169986,491.3087462080002,,,,,,,,,,,,,,,,,,,,,,,,,,,,,,,left,1.0,0.5824575829901733,,,,,,sub-046,1,random_dot,,
right,right,9.0,1.0,4.0,right,1.0,2.980076250009006,,speed,space,5.6298582080053166,,,,,,0.0,1.0,1.0,1.0,4.0,1.0,9.0,1.0,491.3154343329952,,,,,,,,,491.30905683297897,492.1075776669895,492.9005166669958,492.8916895419825,492.892265167,492.9005166669958,492.9005166669958,492.9005166669958,495.8925470419927,,,,,,,,,,,,,,,,,,,,,,,,,,,,,,,right,1.0,2.980076250009006,,,,,,sub-046,1,random_dot,,
left,left,10.0,0.0,5.0,left,1.0,0.5188525829871651,,speed,space,5.6298582080053166,,,,,,0.0,1.0,1.0,1.0,5.0,0.0,10.0,0.0,495.90016166699934,,,,,,,,,495.8930171249958,497.0908064999967,497.88272045800113,497.8749262499914,497.875521332986,497.88272045800113,497.88272045800113,497.88272045800113,498.4087064999912,,,,,,,,,,,,,,,,,,,,,,,,,,,,,,,left,1.0,0.5188525829871651,,,,,,sub-046,1,random_dot,,
right,right,11.0,1.0,5.0,right,1.0,1.5366513750050217,,speed,space,5.6298582080053166,,,,,,0.0,1.0,1.0,1.0,5.0,1.0,11.0,1.0,498.41558816700126,,,,,,,,,498.4090627499973,499.6073921670031,500.3991729579866,500.3914153749938,500.3918685829849,500.3991729579866,500.3991729579866,500.3991729579866,501.9422647919855,,,,,,,,,,,,,,,,,,,,,,,,,,,,,,,right,1.0,1.5366513750050217,,,,,,sub-046,1,random_dot,,
right,right,12.0,0.0,6.0,left,0.0,0.5824862500012387,,speed,space,5.6298582080053166,,,,,,0.0,1.0,1.0,1.0,6.0,0.0,12.0,1.0,501.9495303749864,,,,,,,,,501.9427001669828,503.14065995800775,503.9319536249968,503.9245219579898,503.9249713750032,503.9319536249968,503.9319536249968,503.9319536249968,504.52520358300535,,,,,,,,,,,,,,,,,,,,,,,,,,,,,,,left,0.0,0.5824862500012387,,,,,,sub-046,1,random_dot,,
left,left,13.0,1.0,6.0,right,0.0,1.5326391250127926,,speed,space,5.6298582080053166,,,,,,0.0,1.0,1.0,1.0,6.0,1.0,13.0,0.0,504.531884541997,,,,,,,,,504.5255132919992,505.72406941698864,506.51540674999706,506.5079497080005,506.5084038329951,506.51540674999706,506.51540674999706,506.51540674999706,508.0590522919956,,,,,,,,,,,,,,,,,,,,,,,,,,,,,,,right,0.0,1.5326391250127926,,,,,,sub-046,1,random_dot,,
left,left,14.0,0.0,7.0,left,1.0,0.7628791670140345,,speed,space,5.6298582080053166,,,,,,0.0,1.0,1.0,1.0,7.0,0.0,14.0,0.0,508.06646075000754,,,,,,,,,508.0595487079991,508.4073885830003,509.1998741249845,509.19154737499775,509.1921427919879,509.1998741249845,509.1998741249845,509.1998741249845,509.9653315419855,,,,,,,,,,,,,,,,,,,,,,,,,,,,,,,left,1.0,0.7628791670140345,,,,,,sub-046,1,random_dot,,
right,right,15.0,1.0,7.0,left,0.0,2.3447735420195386,,speed,space,5.6298582080053166,,,,,,0.0,1.0,1.0,1.0,7.0,1.0,15.0,1.0,509.97224137498415,,,,,,,,,509.9656555829861,510.7636678330018,511.56434833299136,511.55728087498574,511.5580108749855,511.56434833299136,511.56434833299136,511.56434833299136,513.9128697080014,,,,,,,,,,,,,,,,,,,,,,,,,,,,,,,left,0.0,2.3447735420195386,,,,,,sub-046,1,random_dot,,
right,right,16.0,0.0,8.0,left,0.0,2.648821082984796,,speed,space,5.6298582080053166,,,,,,0.0,1.0,1.0,1.0,8.0,0.0,16.0,1.0,513.9230497079843,,,,,,,,,513.9132240419858,514.262787249987,515.0556912919856,515.0471611249959,515.0476076249906,515.0556912919856,515.0556912919856,515.0556912919856,517.7085835420003,,,,,,,,,,,,,,,,,,,,,,,,,,,,,,,left,0.0,2.648821082984796,,,,,,sub-046,1,random_dot,,
left,left,17.0,1.0,8.0,right,0.0,1.602603834006004,,speed,space,5.6298582080053166,,,,,,0.0,1.0,1.0,1.0,8.0,1.0,17.0,0.0,517.7155295419798,,,,,,,,,517.7089208329853,518.0573416669795,518.8490597920027,518.8412917079986,518.8417506249971,518.8490597920027,518.8490597920027,518.8490597920027,520.4583676669863,,,,,,,,,,,,,,,,,,,,,,,,,,,,,,,right,0.0,1.602603834006004,,,,,,sub-046,1,random_dot,,
left,left,18.0,0.0,9.0,left,1.0,1.6429289170191623,,speed,space,5.6298582080053166,,,,,,0.0,1.0,1.0,1.0,9.0,0.0,18.0,0.0,520.4652888749843,,,,,,,,,520.4587014169956,520.8071391249832,521.5987113330048,521.591055833007,521.5915204169869,521.5987113330048,521.5987113330048,521.5987113330048,523.2516576669877,,,,,,,,,,,,,,,,,,,,,,,,,,,,,,,left,1.0,1.6429289170191623,,,,,,sub-046,1,random_dot,,
right,right,19.0,1.0,9.0,right,1.0,2.835341541998787,,speed,space,5.6298582080053166,,,,,,0.0,1.0,1.0,1.0,9.0,1.0,19.0,1.0,523.2564164999931,,,,,,,,,523.2519842080073,524.0467986669973,524.8493152500014,524.841014457983,524.8414908749983,524.8493152500014,524.8493152500014,524.8493152500014,527.6900623749825,,,,,,,,,,,,,,,,,,,,,,,,,,,,,,,right,1.0,2.835341541998787,,,,,,sub-046,1,random_dot,,
left,left,20.0,0.0,10.0,left,1.0,0.8772447079827543,,speed,space,5.6298582080053166,,,,,,0.0,1.0,1.0,1.0,10.0,0.0,20.0,0.0,527.6969082499854,,,,,,,,,527.6903876669821,528.8800702079898,529.672168457997,529.6634625419974,529.6639025829791,529.672168457997,529.672168457997,529.672168457997,530.5583107919956,,,,,,,,,,,,,,,,,,,,,,,,,,,,,,,left,1.0,0.8772447079827543,,,,,,sub-046,1,random_dot,,
right,right,21.0,1.0,10.0,right,1.0,3.1200045000005048,,speed,space,5.6298582080053166,,,,,,0.0,1.0,1.0,1.0,10.0,1.0,21.0,1.0,530.5651055419876,,,,,,,,,530.558649832994,531.3571080830006,532.1491460420075,532.1410995829792,532.1416718330001,532.1491460420075,532.1491460420075,532.1491460420075,535.275073458004,,,,,,,,,,,,,,,,,,,,,,,,,,,,,,,right,1.0,3.1200045000005048,,,,,,sub-046,1,random_dot,,
right,right,22.0,0.0,11.0,right,1.0,2.2323448749957606,,speed,space,5.6298582080053166,,,,,,0.0,1.0,1.0,1.0,11.0,0.0,22.0,1.0,535.2822911249823,,,,,,,,,535.2755183749832,535.3736373329884,536.1656492500042,536.1576930829906,536.1582595419895,536.1656492500042,536.1656492500042,536.1656492500042,538.408423624991,,,,,,,,,,,,,,,,,,,,,,,,,,,,,,,right,1.0,2.2323448749957606,,,,,,sub-046,1,random_dot,,
left,left,23.0,1.0,11.0,left,1.0,1.6099535419780295,,speed,space,5.6298582080053166,,,,,,0.0,1.0,1.0,1.0,11.0,1.0,23.0,0.0,538.4157749580045,,,,,,,,,538.408849667001,538.7569183330052,539.5488028329855,539.5409836249892,539.5415408329864,539.5488028329855,539.5488028329855,539.5488028329855,541.1646360419982,,,,,,,,,,,,,,,,,,,,,,,,,,,,,,,left,1.0,1.6099535419780295,,,,,,sub-046,1,random_dot,,
left,left,24.0,0.0,12.0,right,0.0,1.906769292021636,,speed,space,5.6298582080053166,,,,,,0.0,1.0,1.0,1.0,12.0,0.0,24.0,0.0,541.1720830419799,,,,,,,,,541.1650303329807,542.3629137499956,543.1553363330022,543.1467709999997,543.147218625003,543.1553363330022,543.1553363330022,543.1553363330022,545.0727906670072,,,,,,,,,,,,,,,,,,,,,,,,,,,,,,,right,0.0,1.906769292021636,,,,,,sub-046,1,random_dot,,
right,right,25.0,1.0,12.0,left,0.0,1.0330388330039568,,speed,space,5.6298582080053166,,,,,,0.0,1.0,1.0,1.0,12.0,1.0,25.0,1.0,545.0764152499905,,,,,,,,,545.0731475829962,545.413788624981,546.2156526249892,546.2076671249815,546.2082054579805,546.2156526249892,546.2156526249892,546.2156526249892,547.2583672080073,,,,,,,,,,,,,,,,,,,,,,,,,,,,,,,left,0.0,1.0330388330039568,,,,,,sub-046,1,random_dot,,
right,right,26.0,0.0,13.0,left,0.0,1.8109848750173116,,speed,space,5.6298582080053166,,,,,,0.0,1.0,1.0,1.0,13.0,0.0,26.0,1.0,547.2658023749827,,,,,,,,,547.2587779579917,547.6070026670059,548.3981714170077,548.3907349579968,548.3912057919952,548.3981714170077,548.3981714170077,548.3981714170077,550.2121193329804,,,,,,,,,,,,,,,,,,,,,,,,,,,,,,,left,0.0,1.8109848750173116,,,,,,sub-046,1,random_dot,,
left,left,27.0,1.0,13.0,right,0.0,2.344012208021013,,speed,space,5.6298582080053166,,,,,,0.0,1.0,1.0,1.0,13.0,1.0,27.0,0.0,550.2231570000004,,,,,,,,,550.212442249991,551.4067357919994,552.1986361249874,552.1908387079893,552.1914294580056,552.1986361249874,552.1986361249874,552.1986361249874,554.5476822500059,,,,,,,,,,,,,,,,,,,,,,,,,,,,,,,right,0.0,2.344012208021013,,,,,,sub-046,1,random_dot,,
right,right,28.0,0.0,14.0,left,0.0,3.886834834003821,,speed,space,5.6298582080053166,,,,,,0.0,1.0,1.0,1.0,14.0,0.0,28.0,1.0,554.5555513750005,,,,,,,,,554.5480048329919,554.8969195419922,555.6988011669891,555.6907366669911,555.691229249991,555.6988011669891,555.6988011669891,555.6988011669891,559.591413874994,,,,,,,,,,,,,,,,,,,,,,,,,,,,,,,left,0.0,3.886834834003821,,,,,,sub-046,1,random_dot,,
left,left,29.0,1.0,14.0,left,1.0,3.231542666995665,,speed,space,5.6298582080053166,,,,,,0.0,1.0,1.0,1.0,14.0,1.0,29.0,0.0,559.5986256249889,,,,,,,,,559.5917462919897,559.9400915000006,560.7319794579817,560.7241592079808,560.7247373329883,560.7319794579817,560.7319794579817,560.7319794579817,563.9744877500052,,,,,,,,,,,,,,,,,,,,,,,,,,,,,,,left,1.0,3.231542666995665,,,,,,sub-046,1,random_dot,,
left,left,30.0,0.0,15.0,left,1.0,4.357846583996434,,speed,space,5.6298582080053166,,,,,,0.0,1.0,1.0,1.0,15.0,0.0,30.0,0.0,563.9818522499991,,,,,,,,,563.9748417079973,564.0733759579889,564.8656937500054,564.8574704579951,564.8580565000011,564.8656937500054,564.8656937500054,564.8656937500054,569.2255777920072,,,,,,,,,,,,,,,,,,,,,,,,,,,,,,,left,1.0,4.357846583996434,,,,,,sub-046,1,random_dot,,
right,right,31.0,1.0,15.0,right,1.0,2.558211499999743,,speed,space,5.6298582080053166,,,,,,0.0,1.0,1.0,1.0,15.0,1.0,31.0,1.0,569.2329494580044,,,,,,,,,569.2261324169813,569.3232791250048,570.1158284579869,570.1075162079942,570.1080775419832,570.1158284579869,570.1158284579869,570.1158284579869,572.6840093749925,,,,,,,,,,,,,,,,,,,,,,,,,,,,,,,right,1.0,2.558211499999743,,,,,,sub-046,1,random_dot,,
right,right,32.0,0.0,16.0,right,1.0,2.074117792013567,,speed,space,5.6298582080053166,,,,,,0.0,1.0,1.0,1.0,16.0,0.0,32.0,1.0,572.6888024169893,,,,,,,,,572.684328125004,573.0297186249809,573.8320106249885,573.8240044169943,573.8245634170016,573.8320106249885,573.8320106249885,573.8320106249885,575.9083273329888,,,,,,,,,,,,,,,,,,,,,,,,,,,,,,,right,1.0,2.074117792013567,,,,,,sub-046,1,random_dot,,
left,left,33.0,1.0,16.0,left,1.0,1.130055417015683,,speed,space,5.6298582080053166,,,,,,0.0,1.0,1.0,1.0,16.0,1.0,33.0,0.0,575.9154925000039,,,,,,,,,575.9086681249901,577.106699750002,577.8980395419931,577.8905465419812,577.8909972079855,577.8980395419931,577.8980395419931,577.8980395419931,579.0299983329896,,,,,,,,,,,,,,,,,,,,,,,,,,,,,,,left,1.0,1.130055417015683,,,,,,sub-046,1,random_dot,,
left,left,34.0,0.0,17.0,right,0.0,2.321557457995368,,speed,space,5.6298582080053166,,,,,,0.0,1.0,1.0,1.0,17.0,0.0,34.0,0.0,579.0382944169978,,,,,,,,,579.0304493329895,580.2295372499793,581.0215910830011,581.0126952919818,581.013126417005,581.0215910830011,581.0215910830011,581.0215910830011,583.3476991670032,,,,,,,,,,,,,,,,,,,,,,,,,,,,,,,right,0.0,2.321557457995368,,,,,,sub-046,1,random_dot,,
right,right,35.0,1.0,17.0,right,1.0,1.6245959170046262,,speed,space,5.6298582080053166,,,,,,0.0,1.0,1.0,1.0,17.0,1.0,35.0,1.0,583.3546723329928,,,,,,,,,583.3480176669837,583.6959195419913,584.4882474170008,584.47968304198,584.4801584169909,584.4882474170008,584.4882474170008,584.4882474170008,586.1226829999941,,,,,,,,,,,,,,,,,,,,,,,,,,,,,,,right,1.0,1.6245959170046262,,,,,,sub-046,1,random_dot,,
right,right,36.0,0.0,18.0,right,1.0,2.1189195410115644,,speed,space,5.6298582080053166,,,,,,0.0,1.0,1.0,1.0,18.0,0.0,36.0,1.0,586.1262931670062,,,,,,,,,586.1230236249976,586.2120169169793,587.0049305830034,586.9957624999806,586.9961966669944,587.0049305830034,587.0049305830034,587.0049305830034,589.1303950419824,,,,,,,,,,,,,,,,,,,,,,,,,,,,,,,right,1.0,2.1189195410115644,,,,,,sub-046,1,random_dot,,
left,left,37.0,1.0,18.0,right,0.0,1.795998374989722,,speed,space,5.6298582080053166,,,,,,0.0,1.0,1.0,1.0,18.0,1.0,37.0,0.0,589.1385196670017,,,,,,,,,589.1307092499919,589.2286946249951,590.0218858330045,590.0121637919801,590.0126065000077,590.0218858330045,590.0218858330045,590.0218858330045,591.8245361669979,,,,,,,,,,,,,,,,,,,,,,,,,,,,,,,right,0.0,1.795998374989722,,,,,,sub-046,1,random_dot,,
right,right,38.0,0.0,19.0,right,1.0,2.133351625001524,,speed,space,5.6298582080053166,,,,,,0.0,1.0,1.0,1.0,19.0,0.0,38.0,1.0,591.8323777919868,,,,,,,,,591.8250075420074,592.6230531249894,593.4152480420016,593.407018583006,593.4075852079841,593.4152480420016,593.4152480420016,593.4152480420016,595.5565825829981,,,,,,,,,,,,,,,,,,,,,,,,,,,,,,,right,1.0,2.133351625001524,,,,,,sub-046,1,random_dot,,
left,left,39.0,1.0,19.0,right,0.0,2.770288667001296,,speed,space,5.6298582080053166,,,,,,0.0,1.0,1.0,1.0,19.0,1.0,39.0,0.0,595.5638113750028,,,,,,,,,595.5569952919905,596.7457360419794,597.5380695829808,597.5291594580049,597.5295941669901,597.5380695829808,597.5380695829808,597.5380695829808,600.3125425000035,,,,,,,,,,,,,,,,,,,,,,,,,,,,,,,right,0.0,2.770288667001296,,,,,,sub-046,1,random_dot,,
left,left,40.0,0.0,20.0,left,1.0,1.282172167004319,,speed,space,5.6298582080053166,,,,,,0.0,1.0,1.0,1.0,20.0,0.0,40.0,0.0,600.3218377080048,,,,,,,,,600.3128472919925,601.1064854169963,601.89828712499,601.890302291984,601.8908485829888,601.89828712499,601.89828712499,601.89828712499,603.1907664579921,,,,,,,,,,,,,,,,,,,,,,,,,,,,,,,left,1.0,1.282172167004319,,,,,,sub-046,1,random_dot,,
right,right,41.0,1.0,20.0,right,1.0,1.316777917003492,,speed,space,5.6298582080053166,,,,,,0.0,1.0,1.0,1.0,20.0,1.0,41.0,1.0,603.1975154170068,,,,,,,,,603.1910718749859,603.9896372079966,604.7818062919832,604.773856291984,604.7744189999939,604.7818062919832,604.7818062919832,604.7818062919832,606.1080590829952,,,,,,,,,,,,,,,,,,,,,,,,,,,,,,,right,1.0,1.316777917003492,,,,,,sub-046,1,random_dot,,
left,left,42.0,0.0,21.0,left,1.0,2.2749087499978486,,speed,space,5.6298582080053166,,,,,,0.0,1.0,1.0,1.0,21.0,0.0,42.0,0.0,606.1153041670041,,,,,,,,,606.1085687080049,606.9061757079908,607.6979923330073,607.690167666995,607.6906551669817,607.6979923330073,607.6979923330073,607.6979923330073,609.9780714579974,,,,,,,,,,,,,,,,,,,,,,,,,,,,,,,left,1.0,2.2749087499978486,,,,,,sub-046,1,random_dot,,
right,right,43.0,1.0,21.0,right,1.0,1.9703956250159536,,speed,space,5.6298582080053166,,,,,,0.0,1.0,1.0,1.0,21.0,1.0,43.0,1.0,609.988840999984,,,,,,,,,609.9784663330065,610.3227184169809,611.1140237500076,611.10662937499,611.107092374994,611.1140237500076,611.1140237500076,611.1140237500076,613.0904907499789,,,,,,,,,,,,,,,,,,,,,,,,,,,,,,,right,1.0,1.9703956250159536,,,,,,sub-046,1,random_dot,,
right,right,44.0,0.0,22.0,left,0.0,3.214521166024497,,speed,space,5.6298582080053166,,,,,,0.0,1.0,1.0,1.0,22.0,0.0,44.0,1.0,613.0973998749978,,,,,,,,,613.0908154170029,613.429484207998,614.2313324999996,614.2235700419988,614.2241217079863,614.2313324999996,614.2313324999996,614.2313324999996,617.4576038749947,,,,,,,,,,,,,,,,,,,,,,,,,,,,,,,left,0.0,3.214521166024497,,,,,,sub-046,1,random_dot,,
left,left,45.0,1.0,22.0,right,0.0,1.9476796249800827,,speed,space,5.6298582080053166,,,,,,0.0,1.0,1.0,1.0,22.0,1.0,45.0,0.0,617.4651193750033,,,,,,,,,617.4580712500028,617.8061122919898,618.598177457985,618.5901349170017,618.5907015829871,618.598177457985,618.598177457985,618.598177457985,620.5558597499912,,,,,,,,,,,,,,,,,,,,,,,,,,,,,,,right,0.0,1.9476796249800827,,,,,,sub-046,1,random_dot,,
right,right,46.0,0.0,23.0,right,1.0,4.821319915994536,,speed,space,5.6298582080053166,,,,,,0.0,1.0,1.0,1.0,23.0,0.0,46.0,1.0,620.5605577919923,,,,,,,,,620.5561894999992,621.3457087499846,622.1377613329969,622.1290847919881,622.1295250419935,622.1377613329969,622.1377613329969,622.1377613329969,626.964106792002,,,,,,,,,,,,,,,,,,,,,,,,,,,,,,,right,1.0,4.821319915994536,,,,,,sub-046,1,random_dot,,
left,left,47.0,1.0,23.0,right,0.0,2.798496125004021,,speed,space,5.6298582080053166,,,,,,0.0,1.0,1.0,1.0,23.0,1.0,47.0,0.0,626.9712902499887,,,,,,,,,626.9644231669954,627.3114864169911,628.1043966249854,628.095569541998,628.0960172079795,628.1043966249854,628.1043966249854,628.1043966249854,630.9075852920068,,,,,,,,,,,,,,,,,,,,,,,,,,,,,,,right,0.0,2.798496125004021,,,,,,sub-046,1,random_dot,,
right,right,48.0,0.0,24.0,right,1.0,4.7164842920028605,,speed,space,5.6298582080053166,,,,,,0.0,1.0,1.0,1.0,24.0,0.0,48.0,1.0,630.9147700419999,,,,,,,,,630.9080574999971,632.1059264579962,632.8972727079818,632.8897954169952,632.8902475000068,632.8972727079818,632.8972727079818,632.8972727079818,637.6238422919996,,,,,,,,,,,,,,,,,,,,,,,,,,,,,,,right,1.0,4.7164842920028605,,,,,,sub-046,1,random_dot,,
left,left,49.0,1.0,24.0,left,1.0,3.4418826250184797,,speed,space,5.6298582080053166,,,,,,0.0,1.0,1.0,1.0,24.0,1.0,49.0,0.0,637.6309079999919,,,,,,,,,637.6241695829958,637.7224403329892,638.5144711250032,638.5065130419971,638.5070757920039,638.5144711250032,638.5144711250032,638.5144711250032,641.9664890419808,,,,,,,,,,,,,,,,,,,,,,,,,,,,,,,left,1.0,3.4418826250184797,,,,,,sub-046,1,random_dot,,
left,left,50.0,0.0,25.0,right,0.0,2.0420668330043554,,speed,space,5.6298582080053166,,,,,,0.0,1.0,1.0,1.0,25.0,0.0,50.0,0.0,641.9711050000042,,,,,,,,,641.9668210829841,642.3126077500056,643.1148230829858,643.1067477499892,643.1072097499855,643.1148230829858,643.1148230829858,643.1148230829858,645.1671044169925,,,,,,,,,,,,,,,,,,,,,,,,,,,,,,,right,0.0,2.0420668330043554,,,,,,sub-046,1,random_dot,,
right,right,51.0,1.0,25.0,right,1.0,2.2970973330084234,,speed,space,5.6298582080053166,,,,,,0.0,1.0,1.0,1.0,25.0,1.0,51.0,1.0,645.1718343749817,,,,,,,,,645.1674273749813,645.5122722079977,646.304173624987,646.2954946669925,646.2959284579847,646.304173624987,646.304173624987,646.304173624987,648.6073380830057,,,,,,,,,,,,,,,,,,,,,,,,,,,,,,,right,1.0,2.2970973330084234,,,,,,sub-046,1,random_dot,,
right,right,52.0,0.0,26.0,right,1.0,5.819148209004197,,speed,space,5.6298582080053166,,,,,,0.0,1.0,1.0,1.0,26.0,0.0,52.0,1.0,648.6149673750042,,,,,,,,,648.6077830419817,648.9556672080071,649.7475956249982,649.7397544579871,649.7403230829805,649.7475956249982,649.7475956249982,649.7475956249982,655.5743875829794,,,,,,,,,654.7282112499815,,,,,,,,,,,,,,,,,,,,,,right,1.0,5.819148209004197,,,,,,sub-046,1,random_dot,,
left,left,53.0,1.0,26.0,left,1.0,3.872648290998768,,speed,space,5.6298582080053166,,,,,,0.0,1.0,1.0,1.0,26.0,1.0,53.0,0.0,655.5842848329921,,,,,,,,,655.5750594169949,655.6722673329932,656.463820874982,656.4561499579868,656.4566168329911,656.463820874982,656.463820874982,656.463820874982,660.3402267920028,,,,,,,,,,,,,,,,,,,,,,,,,,,,,,,left,1.0,3.872648290998768,,,,,,sub-046,1,random_dot,,
left,left,54.0,0.0,27.0,right,0.0,2.2265963749960065,,speed,space,5.6298582080053166,,,,,,0.0,1.0,1.0,1.0,27.0,0.0,54.0,0.0,660.3472744580067,,,,,,,,,660.3405445829849,661.5388640000019,662.3311154999828,662.3229667919804,662.3235938749858,662.3311154999828,662.3311154999828,662.3311154999828,664.5630787919799,,,,,,,,,,,,,,,,,,,,,,,,,,,,,,,right,0.0,2.2265963749960065,,,,,,sub-046,1,random_dot,,
right,right,55.0,1.0,27.0,right,1.0,2.8783521250006743,,speed,space,5.6298582080053166,,,,,,0.0,1.0,1.0,1.0,27.0,1.0,55.0,1.0,664.5706857079931,,,,,,,,,664.5633978330006,664.661084583,665.4540221249918,665.4452053749992,665.4456498329819,665.4540221249918,665.4540221249918,665.4540221249918,668.3404872499814,,,,,,,,,,,,,,,,,,,,,,,,,,,,,,,right,1.0,2.8783521250006743,,,,,,sub-046,1,random_dot,,
right,right,56.0,0.0,28.0,right,1.0,1.6008432499947958,,speed,space,5.6298582080053166,,,,,,0.0,1.0,1.0,1.0,28.0,0.0,56.0,1.0,668.3483419169788,,,,,,,,,668.3409642079787,668.6886729580001,669.4802517079806,669.4727542079927,669.4732188329799,669.4802517079806,669.4802517079806,669.4802517079806,671.0890716669965,,,,,,,,,,,,,,,,,,,,,,,,,,,,,,,right,1.0,1.6008432499947958,,,,,,sub-046,1,random_dot,,
left,left,57.0,1.0,28.0,left,1.0,3.102070666005602,,speed,space,5.6298582080053166,,,,,,0.0,1.0,1.0,1.0,28.0,1.0,57.0,0.0,671.0958328330016,,,,,,,,,671.0893772080017,671.1775846669916,671.9705491669883,671.9619697080052,671.9624044579978,671.9705491669883,671.9705491669883,671.9705491669883,675.0748241669789,,,,,,,,,,,,,,,,,,,,,,,,,,,,,,,left,1.0,3.102070666005602,,,,,,sub-046,1,random_dot,,
right,right,58.0,0.0,29.0,right,1.0,3.6088576249894686,,speed,space,5.6298582080053166,,,,,,0.0,1.0,1.0,1.0,29.0,0.0,58.0,1.0,675.0824867920019,,,,,,,,,675.0754460830067,675.8721376250032,676.6642070419912,676.6561784170044,676.6566790420038,676.6642070419912,676.6642070419912,676.6642070419912,680.2830493329966,,,,,,,,,,,,,,,,,,,,,,,,,,,,,,,right,1.0,3.6088576249894686,,,,,,sub-046,1,random_dot,,
left,left,59.0,1.0,29.0,right,0.0,2.23435966699617,,speed,space,5.6298582080053166,,,,,,0.0,1.0,1.0,1.0,29.0,1.0,59.0,0.0,680.2877907920047,,,,,,,,,680.2833788330026,680.3776986250014,681.1704676669906,681.1617845419969,681.1622247500054,681.1704676669906,681.1704676669906,681.1704676669906,683.4069538330077,,,,,,,,,,,,,,,,,,,,,,,,,,,,,,,right,0.0,2.23435966699617,,,,,,sub-046,1,random_dot,,
,,1.0,1.0,0.0,,,,,speed,space,5.6298582080053166,,,,,,0.0,1.0,1.0,1.0,,,,,,,,,,,,,,,,,,,,,,,,,,,,,,,,,,,,,,,,,,,,,,,,,,,,,,,,,,,,,sub-046,1,random_dot,,
,,,,,,,,,,,,,,,,,,,,,,,,,,,,,,,,,,,,,,,,,,,,,,,,,,,,,,,,,,,,,,,,,,,,,,,,,,,,,683.4126284999948,683.4210023329942,688.4098455829953,688.4058702499897,sub-046,1,random_dot,,
