direction,corrAns,thisN,thisTrialN,thisRepN,respDots.keys,respDots.corr,respDots.rt,respDots.duration,randomInstr,respRandomInstr.keys,respRandomInstr.rt,respRandomInstr.duration,practice_trials.thisRepN,practice_trials.thisTrialN,practice_trials.thisN,practice_trials.thisIndex,instr_trials.thisRepN,instr_trials.thisTrialN,instr_trials.thisN,instr_trials.thisIndex,test_trials.thisRepN,test_trials.thisTrialN,test_trials.thisN,test_trials.thisIndex,thisRow.t,notes,general_instruction.started,textGeneralInstr.started,respGeneralInstr.started,general_instruction.stopped,respGeneralInstr.keys,respGeneralInstr.rt,respGeneralInstr.duration,ITI.started,fixcross.started,fixcross.stopped,ITI.stopped,dots.started,backgroundDots.started,stimulusDots.started,respDots.started,dots.stopped,practice_trials.respDots.keys,practice_trials.respDots.corr,practice_trials.respDots.rt,practice_trials.respDots.duration,feedback.started,textFeedback.started,feedback.stopped,stimulusDots.stopped,textFeedback.stopped,info.started,textInfo.started,keyRespInfo.started,info.stopped,keyRespInfo.keys,keyRespInfo.rt,keyRespInfo.duration,test_instruction.started,textTestInstr.started,respTestInstr.started,test_instruction.stopped,respTestInstr.keys,respTestInstr.rt,respTestInstr.duration,random_instruction.started,textRandomInstr.started,respRandomInstr.started,random_instruction.stopped,instr_trials.respRandomInstr.keys,instr_trials.respRandomInstr.rt,instr_trials.respRandomInstr.duration,test_trials.respDots.keys,test_trials.respDots.corr,test_trials.respDots.rt,test_trials.respDots.duration,goodbye.started,textGoodbye.started,participant,session,expName,frameRate,Unnamed: 86
,,,,,,,,,,,,,,,,,,,,,,,,,,,0.0065293329971609,0.0267352919981931,0.0267352919981931,2.9427684170004795,space,2.6705983749998268,,,,,,,,,,,,,,,,,,,,,,,,,,,,,,,,,,,,,,,,,,,,,,,sub-218,1.0,random_dot,,
right,right,0.0,0.0,0.0,right,1.0,0.3805762489973858,,,,,,0.0,0.0,0.0,1.0,,,,,,,,,2.9752506250006263,,,,,,,,,2.9594192919976194,3.752337041998544,4.584223916997871,4.535712041997613,4.536522541999148,4.584223916997871,4.584223916997871,4.584223916997871,4.968918541999301,right,1.0,0.3805762489973858,,4.979028707999532,5.075106874999619,5.474673124997935,,,,,,,,,,,,,,,,,,,,,,,,,,,,,,sub-218,1.0,random_dot,,
left,left,1.0,1.0,0.0,right,0.0,2.705021500001749,,,,,,0.0,1.0,1.0,0.0,,,,,,,,,5.484897667000041,,,,,,,,,5.475197916999605,5.808066624998901,6.60066820800057,6.591204374999506,6.591671250000218,6.60066820800057,6.60066820800057,6.60066820800057,9.309230541999568,right,0.0,2.705021500001749,,9.31701108299967,9.339331666997168,9.81864208299885,,,,,,,,,,,,,,,,,,,,,,,,,,,,,,sub-218,1.0,random_dot,,
left,left,2.0,0.0,1.0,left,1.0,5.56334683300156,,,,,,1.0,0.0,2.0,0.0,,,,,,,,,9.824300207998022,,,,,,,,,9.819315124997956,10.15804045799814,10.95015408299878,10.941464749997976,10.94203508300052,10.95015408299878,10.95015408299878,10.95015408299878,16.52030591699804,left,1.0,5.56334683300156,,16.52570312500029,16.533992582997598,17.018787499997416,15.934963957999573,17.024361916999624,,,,,,,,,,,,,,,,,,,,,,,,,,,,sub-218,1.0,random_dot,,
right,right,3.0,1.0,1.0,right,1.0,1.7748349989997223,,,,,,1.0,1.0,3.0,1.0,,,,,,,,,17.024361916999624,,,,,,,,,17.019396083000174,18.218438542000516,19.01068424999903,19.00211316700006,19.002829458000637,19.01068424999903,19.01068424999903,19.01068424999903,20.795765291997668,right,1.0,1.7748349989997223,,20.795899207998445,20.800995249999687,21.285367041997237,,21.29097641699991,,,,,,,,,,,,,,,,,,,,,,,,,,,,sub-218,1.0,random_dot,,
left,left,4.0,0.0,2.0,right,0.0,3.0878964160001487,,,,,,2.0,0.0,4.0,0.0,,,,,,,,,21.29097641699991,,,,,,,,,21.285998749997816,21.39114541699746,22.183453082998312,22.17495808300009,22.17541833299765,22.183453082998312,22.183453082998312,22.183453082998312,25.277156500000277,right,0.0,3.0878964160001487,,25.28088116700019,25.288533291997737,25.77379691699753,,25.78509604200008,,,,,,,,,,,,,,,,,,,,,,,,,,,,sub-218,1.0,random_dot,,
right,right,5.0,1.0,2.0,right,1.0,1.0151876240015554,,,,,,2.0,1.0,5.0,1.0,,,,,,,,,25.78509604200008,,,,,,,,,25.77425462499741,25.8743857499976,26.666794499997195,26.65795433299718,26.65839666700049,26.666794499997195,26.666794499997195,26.666794499997195,27.68637654199847,right,1.0,1.0151876240015554,,27.690928416999668,27.6990584999985,28.18549529200027,,28.191139667000243,,,,,,,,,,,,,,,,,,,,,,,,,,,,sub-218,1.0,random_dot,,
left,left,6.0,0.0,3.0,left,1.0,1.1013178330031224,,,,,,3.0,0.0,6.0,0.0,,,,,,,,,28.191139667000243,,,,,,,,,28.186120582999138,29.38506445799794,30.1765717499984,30.168746916999226,30.169513958000607,30.1765717499984,30.1765717499984,30.1765717499984,31.286205666998285,left,1.0,1.1013178330031224,,31.286347041997946,31.294164249997262,31.785212416998547,,31.79024520799794,,,,,,,,,,,,,,,,,,,,,,,,,,,,sub-218,1.0,random_dot,,
right,right,7.0,1.0,3.0,right,1.0,1.4286330409995571,,,,,,3.0,1.0,7.0,1.0,,,,,,,,,31.79024520799794,,,,,,,,,31.785694082998816,32.98517162499775,33.7771928330003,33.7688954999976,33.769593666998844,33.7771928330003,33.7771928330003,33.7771928330003,35.208837541998946,right,1.0,1.4286330409995571,,35.20897637499729,35.217035582998506,35.70217324999976,,35.70775691699964,,,,,,,,,,,,,,,,,,,,,,,,,,,,sub-218,1.0,random_dot,,
right,right,8.0,0.0,4.0,left,0.0,1.124654166000255,,,,,,4.0,0.0,8.0,1.0,,,,,,,,,35.70775691699964,,,,,,,,,35.70280154200009,36.50803429199732,37.30104824999944,37.29109570799847,37.291540041998815,37.30104824999944,37.30104824999944,37.30104824999944,38.43604199999754,left,0.0,1.124654166000255,,38.4400502919998,38.44846549999784,38.93531900000016,,38.9408643329989,,,,,,,,,,,,,,,,,,,,,,,,,,,,sub-218,1.0,random_dot,,
left,left,9.0,1.0,4.0,left,1.0,0.9406743330000608,,,,,,4.0,1.0,9.0,0.0,,,,,,,,,38.9408643329989,,,,,,,,,38.93590912499712,39.73522129199773,40.52602570799718,40.51850720799848,40.51908116699997,40.52602570799718,40.52602570799718,40.52602570799718,41.46943024999928,left,1.0,0.9406743330000608,,41.47353041699898,41.48205033299746,41.96890445799727,,41.97452979199807,,,,,,,,,,,,,,,,,,,,,,,,,,,,sub-218,1.0,random_dot,,
right,right,10.0,0.0,5.0,left,0.0,1.019219541001803,,,,,,5.0,0.0,10.0,1.0,,,,,,,,,41.97452979199807,,,,,,,,,41.96951654199802,42.76827691699873,43.56024450000041,43.55211404199872,43.55282379200071,43.56024450000041,43.56024450000041,43.56024450000041,44.58594774999801,left,0.0,1.019219541001803,,44.589943249997305,44.59818679199816,45.08539604199905,,45.090824291997706,,,,,,,,,,,,,,,,,,,,,,,,,,,,sub-218,1.0,random_dot,,
left,left,11.0,1.0,5.0,left,1.0,1.353173457999219,,,,,,5.0,1.0,11.0,0.0,,,,,,,,,45.090824291997706,,,,,,,,,45.08598824999717,45.17433633299879,45.96834674999991,45.957838207999885,45.9582726669978,45.96834674999991,45.96834674999991,45.96834674999991,47.326404374998674,left,1.0,1.353173457999219,,47.331077625000034,47.33859829199719,47.824385291998624,,47.83504883299975,,,,,,,,,,,,,,,,,,,,,,,,,,,,sub-218,1.0,random_dot,,
right,right,12.0,0.0,6.0,left,0.0,5.521438873998704,,,,,,6.0,0.0,12.0,1.0,,,,,,,,,47.83504883299975,,,,,,,,,47.82476716699966,48.17439916699732,48.97631733299932,48.968576416998985,48.9691106249993,48.97631733299932,48.97631733299932,48.97631733299932,54.50308020800003,left,0.0,5.521438873998704,,54.507412457998726,54.51693595799952,55.00223862499843,53.96735041699867,55.00832633299797,,,,,,,,,,,,,,,,,,,,,,,,,,,,sub-218,1.0,random_dot,,
left,left,13.0,1.0,6.0,left,1.0,1.0836807490013598,,,,,,6.0,1.0,13.0,0.0,,,,,,,,,55.00832633299797,,,,,,,,,55.00288649999857,55.3518554580005,56.14357579199714,56.1355001669981,56.136195332997886,56.14357579199714,56.14357579199714,56.14357579199714,57.2347232079992,left,1.0,1.0836807490013598,,57.238902417000645,57.2479921669983,57.73522241699902,,,,,,,,,,,,,,,,,,,,,,,,,,,,,,sub-218,1.0,random_dot,,
right,right,14.0,0.0,7.0,right,1.0,1.1233040820006863,,,,,,7.0,0.0,14.0,1.0,,,,,,,,,57.7406545829981,,,,,,,,,57.73587874999794,58.92434104199856,59.71680091699818,59.70785987499767,59.70830433299852,59.71680091699818,59.71680091699818,59.71680091699818,60.8433934579989,right,1.0,1.1233040820006863,,60.84353233299771,60.85329220799758,61.34107550000044,,61.35190945800059,,,,,,,,,,,,,,,,,,,,,,,,,,,,sub-218,1.0,random_dot,,
left,left,15.0,1.0,7.0,left,1.0,1.9527069159994423,,,,,,7.0,1.0,15.0,0.0,,,,,,,,,61.35190945800059,,,,,,,,,61.341486541998165,61.69126120799774,62.483364249997976,62.47452720799993,62.47506004199749,62.483364249997976,62.483364249997976,62.483364249997976,64.44274216700069,left,1.0,1.9527069159994423,,64.44286866699986,64.45082958299827,64.93554095799846,,64.94086958299886,,,,,,,,,,,,,,,,,,,,,,,,,,,,sub-218,1.0,random_dot,,
right,right,16.0,0.0,8.0,left,0.0,1.979708873997879,,,,,,8.0,0.0,16.0,1.0,,,,,,,,,64.94086958299886,,,,,,,,,64.93615379199764,66.14039612499982,66.9352118329989,66.92346291699869,66.92413300000044,66.9352118329989,66.9352118329989,66.9352118329989,68.91922641699784,left,0.0,1.979708873997879,,68.9234599579977,68.9328018749984,69.41901295799835,,69.42471466699863,,,,,,,,,,,,,,,,,,,,,,,,,,,,sub-218,1.0,random_dot,,
left,left,17.0,1.0,8.0,left,1.0,5.51841637400139,,,,,,8.0,1.0,17.0,0.0,,,,,,,,,69.42471466699863,,,,,,,,,69.41961512499984,70.6079608330001,71.40002345799803,71.3912648330006,71.3917995419979,71.40002345799803,71.40002345799803,71.40002345799803,76.92391016699912,left,1.0,5.51841637400139,,76.92688649999764,76.95132249999733,77.42497100000037,76.3850443329975,,,,,,,,,,,,,,,,,,,,,,,,,,,,,sub-218,1.0,random_dot,,
left,left,18.0,0.0,9.0,right,0.0,1.488127083001018,,,,,,9.0,0.0,18.0,0.0,,,,,,,,,77.4352429999999,,,,,,,,,77.42543591699723,78.21820925000065,79.01002566699754,79.00217604199861,79.00291424999887,79.01002566699754,79.01002566699754,79.01002566699754,80.50309079199724,right,0.0,1.488127083001018,,80.50854433299901,80.51767691699933,81.00212537499829,,81.00770783299959,,,,,,,,,,,,,,,,,,,,,,,,,,,,sub-218,1.0,random_dot,,
right,right,19.0,1.0,9.0,left,0.0,1.1935872489993926,,,,,,9.0,1.0,19.0,1.0,,,,,,,,,81.00770783299959,,,,,,,,,81.00273079199906,81.80176316699726,82.5932955419994,82.5854287919974,82.58614316699823,82.5932955419994,82.5932955419994,82.5932955419994,83.79318683299789,left,0.0,1.1935872489993926,,83.79332158299803,83.80146408300061,84.28552474999742,,84.29329499999949,,,,,,,,,,,,,,,,,,,,,,,,,,,,sub-218,1.0,random_dot,,
,,,,,,,,,,,,,,,,,,,,,,,,,,,,,,,,,,,,,,,,,,,,,,,,,,,,84.28575462499794,84.29329499999949,84.29329499999949,85.71942366700023,space,1.3977686660000472,,,,,,,,,,,,,,,,,,,,,,sub-218,1.0,random_dot,,
,,,,,,,,,,,,,,,,,,,,,,,,,,,,,,,,,,,,,,,,,,,,,,,,,,,,,,,,,,,85.7195491249986,85.73485833299856,85.73485833299856,87.00359920799747,space,1.2650692489987705,,,,,,,,,,,,,,,sub-218,1.0,random_dot,,
left,left,0.0,0.0,0.0,right,0.0,0.9786269159994844,,accuracy,space,0.8019997909977974,,,,,,0.0,0.0,0.0,0.0,0.0,0.0,0.0,0.0,87.85935508299735,,,,,,,,,87.85243524999896,87.93509862499923,88.72624245800034,88.71857662500042,88.71914524999738,88.72624245800034,88.72624245800034,88.72624245800034,89.70824779199756,,,,,,,,,,,,,,,,,,,,,,,,87.02882583300016,87.03680750000058,87.03680750000058,87.84218854199935,space,0.8019997909977974,,right,0.0,0.9786269159994844,,,,sub-218,1.0,random_dot,,
right,right,1.0,1.0,0.0,right,1.0,1.893882707998273,,accuracy,space,0.8019997909977974,,,,,,0.0,0.0,0.0,0.0,0.0,1.0,1.0,1.0,89.71683249999842,,,,,,,,,89.70876204199885,90.90776145799828,91.70090987499862,91.69102787500016,91.69154574999992,91.70090987499862,91.70090987499862,91.70090987499862,93.60292841699992,,,,,,,,,,,,,,,,,,,,,,,,,,,,,,,right,1.0,1.893882707998273,,,,sub-218,1.0,random_dot,,
left,left,2.0,0.0,1.0,left,1.0,1.5980067079981382,,accuracy,space,0.8019997909977974,,,,,,0.0,0.0,0.0,0.0,1.0,0.0,2.0,0.0,93.61064274999808,,,,,,,,,93.6035719169995,94.80160925000018,95.59379591700052,95.58545949999824,95.58615795799778,95.59379591700052,95.59379591700052,95.59379591700052,97.20316291699784,,,,,,,,,,,,,,,,,,,,,,,,,,,,,,,left,1.0,1.5980067079981382,,,,sub-218,1.0,random_dot,,
right,right,3.0,1.0,1.0,right,1.0,1.73187979100112,,accuracy,space,0.8019997909977974,,,,,,0.0,0.0,0.0,0.0,1.0,1.0,3.0,1.0,97.21148316700057,,,,,,,,,97.20382404200063,97.30159212499711,98.09369229199729,98.0854114169997,98.08615162500064,98.09369229199729,98.09369229199729,98.09369229199729,99.83598145799988,,,,,,,,,,,,,,,,,,,,,,,,,,,,,,,right,1.0,1.73187979100112,,,,sub-218,1.0,random_dot,,
right,right,4.0,0.0,2.0,left,0.0,1.5081778329986264,,accuracy,space,0.8019997909977974,,,,,,0.0,0.0,0.0,0.0,2.0,0.0,4.0,1.0,99.84391879199757,,,,,,,,,99.83650958299768,101.02442958299798,101.82640662499762,101.81857054200007,101.81910470799994,101.82640662499762,101.82640662499762,101.82640662499762,103.33619841700056,,,,,,,,,,,,,,,,,,,,,,,,,,,,,,,left,0.0,1.5081778329986264,,,,sub-218,1.0,random_dot,,
left,left,5.0,1.0,2.0,right,0.0,1.4221929989980708,,accuracy,space,0.8019997909977974,,,,,,0.0,0.0,0.0,0.0,2.0,1.0,5.0,0.0,103.34433279199948,,,,,,,,,103.33685458299806,103.4350580829996,104.228166375,104.2188650829994,104.21955795800022,104.228166375,104.228166375,104.228166375,105.66073399999732,,,,,,,,,,,,,,,,,,,,,,,,,,,,,,,right,0.0,1.4221929989980708,,,,sub-218,1.0,random_dot,,
right,right,6.0,0.0,3.0,left,0.0,1.505443041001854,,accuracy,space,0.8019997909977974,,,,,,0.0,0.0,0.0,0.0,3.0,0.0,6.0,1.0,105.66661520799973,,,,,,,,,105.66120962499916,106.0078254580003,106.80099670799972,106.79093566699883,106.791386375,106.80099670799972,106.80099670799972,106.80099670799972,108.3096079579991,,,,,,,,,,,,,,,,,,,,,,,,,,,,,,,left,0.0,1.505443041001854,,,,sub-218,1.0,random_dot,,
left,left,7.0,1.0,3.0,right,0.0,0.9718744990022968,,accuracy,space,0.8019997909977974,,,,,,0.0,0.0,0.0,0.0,3.0,1.0,7.0,0.0,108.31741133299874,,,,,,,,,108.3100849170005,109.10794541699944,109.9015115000002,109.8906375000006,109.89112141700024,109.9015115000002,109.9015115000002,109.9015115000002,110.87666504200024,,,,,,,,,,,,,,,,,,,,,,,,,,,,,,,right,0.0,0.9718744990022968,,,,sub-218,1.0,random_dot,,
right,right,8.0,0.0,4.0,right,1.0,1.0446367069998814,,accuracy,space,0.8019997909977974,,,,,,0.0,0.0,0.0,0.0,4.0,0.0,8.0,1.0,110.88444733299912,,,,,,,,,110.8771377919984,111.6744394999987,112.4676766249977,112.45773037499748,112.45820987499974,112.4676766249977,112.4676766249977,112.4676766249977,113.519614249999,,,,,,,,,,,,,,,,,,,,,,,,,,,,,,,right,1.0,1.0446367069998814,,,,sub-218,1.0,random_dot,,
left,left,9.0,1.0,4.0,left,1.0,1.5784073329996318,,accuracy,space,0.8019997909977974,,,,,,0.0,0.0,0.0,0.0,4.0,1.0,9.0,0.0,113.5281381249988,,,,,,,,,113.52028120799878,114.71858020799846,115.50973483299822,115.50191691699727,115.5024475829996,115.50973483299822,115.50973483299822,115.50973483299822,117.09264504199746,,,,,,,,,,,,,,,,,,,,,,,,,,,,,,,left,1.0,1.5784073329996318,,,,sub-218,1.0,random_dot,,
right,right,10.0,0.0,5.0,right,1.0,1.4907482490016264,,accuracy,space,0.8019997909977974,,,,,,0.0,0.0,0.0,0.0,5.0,0.0,10.0,1.0,117.1005707080003,,,,,,,,,117.09312249999856,117.192132958,117.99437329200008,117.98572158299794,117.98644729199803,117.99437329200008,117.99437329200008,117.99437329200008,119.49580445799802,,,,,,,,,,,,,,,,,,,,,,,,,,,,,,,right,1.0,1.4907482490016264,,,,sub-218,1.0,random_dot,,
left,left,11.0,1.0,5.0,left,1.0,1.63682045799942,,accuracy,space,0.8019997909977974,,,,,,0.0,0.0,0.0,0.0,5.0,1.0,11.0,0.0,119.50078770799882,,,,,,,,,119.49628749999827,120.29132433300038,121.0842802499974,121.07439804199748,121.0748559579988,121.0842802499974,121.0842802499974,121.0842802499974,122.7245338749999,,,,,,,,,,,,,,,,,,,,,,,,,,,,,,,left,1.0,1.63682045799942,,,,sub-218,1.0,random_dot,,
right,right,12.0,0.0,6.0,right,1.0,2.401302750000468,,accuracy,space,0.8019997909977974,,,,,,0.0,0.0,0.0,0.0,6.0,0.0,12.0,1.0,122.7334229579974,,,,,,,,,122.72500187499828,123.9244418749986,124.7171142499974,124.7077877499978,124.70822549999866,124.7171142499974,124.7171142499974,124.7171142499974,127.12459916700028,,,,,,,,,,,,,,,,,,,,,,,,,,,,,,,right,1.0,2.401302750000468,,,,sub-218,1.0,random_dot,,
left,left,13.0,1.0,6.0,right,0.0,3.713851041000453,,accuracy,space,0.8019997909977974,,,,,,0.0,0.0,0.0,0.0,6.0,1.0,13.0,0.0,127.13342470799762,,,,,,,,,127.12508162499944,127.92442870800004,128.7170540829975,128.70774700000038,128.70820629199807,128.7170540829975,128.7170540829975,128.7170540829975,132.4358874999998,,,,,,,,,,,,,,,,,,,,,,,,,,,,,,,right,0.0,3.713851041000453,,,,sub-218,1.0,random_dot,,
right,right,14.0,0.0,7.0,left,0.0,2.675458290999813,,accuracy,space,0.8019997909977974,,,,,,0.0,0.0,0.0,0.0,7.0,0.0,14.0,1.0,132.44438266699945,,,,,,,,,132.43655695800044,132.53509549999944,133.32701183300014,133.31877687499946,133.31950741699984,133.32701183300014,133.32701183300014,133.32701183300014,136.01290287499796,,,,,,,,,,,,,,,,,,,,,,,,,,,,,,,left,0.0,2.675458290999813,,,,sub-218,1.0,random_dot,,
left,left,15.0,1.0,7.0,left,1.0,4.344715166000242,,accuracy,space,0.8019997909977974,,,,,,0.0,0.0,0.0,0.0,7.0,1.0,15.0,0.0,136.01795199999833,,,,,,,,,136.0133877499975,136.10729945799903,136.89995604199794,136.89088291699954,136.89141483300045,136.89995604199794,136.89995604199794,136.89995604199794,141.25269487499827,,,,,,,,,,,,,,,,,,,,,,,,,,,,,,,left,1.0,4.344715166000242,,,,sub-218,1.0,random_dot,,
left,left,16.0,0.0,8.0,right,0.0,1.945412873999885,,accuracy,space,0.8019997909977974,,,,,,0.0,0.0,0.0,0.0,8.0,0.0,16.0,0.0,141.2607387499993,,,,,,,,,141.2532122499979,142.04105058300047,142.83374558300056,142.82442900000024,142.82489129199894,142.83374558300056,142.83374558300056,142.83374558300056,144.78577674999906,,,,,,,,,,,,,,,,,,,,,,,,,,,,,,,right,0.0,1.945412873999885,,,,sub-218,1.0,random_dot,,
right,right,17.0,1.0,8.0,right,1.0,2.7742925830025342,,accuracy,space,0.8019997909977974,,,,,,0.0,0.0,0.0,0.0,8.0,1.0,17.0,1.0,144.7942504169987,,,,,,,,,144.78643737499806,144.87418216699734,145.6666148330005,145.6576774999994,145.65820658300072,145.6666148330005,145.6666148330005,145.6666148330005,148.4434744999999,,,,,,,,,,,,,,,,,,,,,,,,,,,,,,,right,1.0,2.7742925830025342,,,,sub-218,1.0,random_dot,,
right,right,18.0,0.0,9.0,left,0.0,1.6783514999988256,,accuracy,space,0.8019997909977974,,,,,,0.0,0.0,0.0,0.0,9.0,0.0,18.0,1.0,148.46802024999852,,,,,,,,,148.44397274999938,148.7908599170005,149.5837215419997,149.57432891699864,149.57477170799757,149.5837215419997,149.5837215419997,149.5837215419997,151.26873362499828,,,,,,,,,,,,,,,,,,,,,,,,,,,,,,,left,0.0,1.6783514999988256,,,,sub-218,1.0,random_dot,,
left,left,19.0,1.0,9.0,left,1.0,1.8489901239991011,,accuracy,space,0.8019997909977974,,,,,,0.0,0.0,0.0,0.0,9.0,1.0,19.0,0.0,151.27660470800038,,,,,,,,,151.26920795799742,152.45798883299722,153.24996262499917,153.24107399999775,153.2416191669981,153.24996262499917,153.24996262499917,153.24996262499917,155.10120137500053,,,,,,,,,,,,,,,,,,,,,,,,,,,,,,,left,1.0,1.8489901239991011,,,,sub-218,1.0,random_dot,,
right,right,20.0,0.0,10.0,right,1.0,1.1926725409975916,,accuracy,space,0.8019997909977974,,,,,,0.0,0.0,0.0,0.0,10.0,0.0,20.0,1.0,155.10938633299884,,,,,,,,,155.10173600000053,156.29085824999856,157.08426787499775,157.07387762500002,157.07445979199838,157.08426787499775,157.08426787499775,157.08426787499775,158.28634799999782,,,,,,,,,,,,,,,,,,,,,,,,,,,,,,,right,1.0,1.1926725409975916,,,,sub-218,1.0,random_dot,,
left,left,21.0,1.0,10.0,left,1.0,1.3573761240004387,,accuracy,space,0.8019997909977974,,,,,,0.0,0.0,0.0,0.0,10.0,1.0,21.0,0.0,158.2949078749989,,,,,,,,,158.2870427079979,159.0851487079999,159.87644083299892,159.86875645799955,159.86943895799777,159.87644083299892,159.87644083299892,159.87644083299892,161.23617137499969,,,,,,,,,,,,,,,,,,,,,,,,,,,,,,,left,1.0,1.3573761240004387,,,,sub-218,1.0,random_dot,,
right,right,22.0,0.0,11.0,right,1.0,1.4925124580004194,,accuracy,space,0.8019997909977974,,,,,,0.0,0.0,0.0,0.0,11.0,0.0,22.0,1.0,161.2447026669979,,,,,,,,,161.23689329199988,162.03492908299813,162.8271533329971,162.81877262499984,162.81949791700026,162.8271533329971,162.8271533329971,162.8271533329971,164.3269212919986,,,,,,,,,,,,,,,,,,,,,,,,,,,,,,,right,1.0,1.4925124580004194,,,,sub-218,1.0,random_dot,,
left,left,23.0,1.0,11.0,left,1.0,1.0014133320000838,,accuracy,space,0.8019997909977974,,,,,,0.0,0.0,0.0,0.0,11.0,1.0,23.0,0.0,164.33454237499973,,,,,,,,,164.3273939999999,165.5240902919977,166.31818712499808,166.30765733299995,166.30810533299882,166.31818712499808,166.31818712499808,166.31818712499808,167.32624904199838,,,,,,,,,,,,,,,,,,,,,,,,,,,,,,,left,1.0,1.0014133320000838,,,,sub-218,1.0,random_dot,,
left,left,24.0,0.0,12.0,right,0.0,1.6063382910033397,,accuracy,space,0.8019997909977974,,,,,,0.0,0.0,0.0,0.0,12.0,0.0,24.0,0.0,167.3344498330007,,,,,,,,,167.3267241249996,168.1245393749996,168.92627908299983,168.91864062499735,168.91919441699793,168.92627908299983,168.92627908299983,168.92627908299983,170.53496537499814,,,,,,,,,,,,,,,,,,,,,,,,,,,,,,,right,0.0,1.6063382910033397,,,,sub-218,1.0,random_dot,,
right,right,25.0,1.0,12.0,left,0.0,5.517482623999968,,accuracy,space,0.8019997909977974,,,,,,0.0,0.0,0.0,0.0,12.0,1.0,25.0,1.0,170.54309937499784,,,,,,,,,170.535455792,170.62455654199948,171.41808833299729,171.40762841700052,171.40807691699956,171.41808833299729,171.41808833299729,171.41808833299729,176.9429120829991,,,,,,,,176.4016604999997,,,,,,,,,,,,,,,,,,,,,,,left,0.0,5.517482623999968,,,,sub-218,1.0,random_dot,,
right,right,26.0,0.0,13.0,right,1.0,5.173336290998122,,accuracy,space,0.8019997909977974,,,,,,0.0,0.0,0.0,0.0,13.0,0.0,26.0,1.0,176.95133579200046,,,,,,,,,176.9435365419995,178.14118954199876,178.93336287499915,178.9244665419974,178.92490887500026,178.93336287499915,178.93336287499915,178.93336287499915,184.10804433299927,,,,,,,,183.9182307919982,,,,,,,,,,,,,,,,,,,,,,,right,1.0,5.173336290998122,,,,sub-218,1.0,random_dot,,
left,left,27.0,1.0,13.0,left,1.0,3.2344437909996486,,accuracy,space,0.8019997909977974,,,,,,0.0,0.0,0.0,0.0,13.0,1.0,27.0,0.0,184.11746762499752,,,,,,,,,184.1088669169985,184.90779308299895,185.6999231669979,185.6912260829995,185.6916752500001,185.6999231669979,185.6999231669979,185.6999231669979,188.93598570799804,,,,,,,,,,,,,,,,,,,,,,,,,,,,,,,left,1.0,3.2344437909996486,,,,sub-218,1.0,random_dot,,
right,right,28.0,0.0,14.0,right,1.0,2.4700936659974104,,accuracy,space,0.8019997909977974,,,,,,0.0,0.0,0.0,0.0,14.0,0.0,28.0,1.0,188.9445840419976,,,,,,,,,188.93663362499865,190.1348568329995,190.9257058330004,190.91842112499944,190.91894137499912,190.9257058330004,190.9257058330004,190.9257058330004,193.4027604170005,,,,,,,,,,,,,,,,,,,,,,,,,,,,,,,right,1.0,2.4700936659974104,,,,sub-218,1.0,random_dot,,
left,left,29.0,1.0,14.0,left,1.0,3.4271044580018497,,accuracy,space,0.8019997909977974,,,,,,0.0,0.0,0.0,0.0,14.0,1.0,29.0,0.0,193.41150487499908,,,,,,,,,193.4034126669976,193.75169220799944,194.5431220419996,194.53521954199823,194.5359194579978,194.5431220419996,194.5431220419996,194.5431220419996,197.97487833299965,,,,,,,,,,,,,,,,,,,,,,,,,,,,,,,left,1.0,3.4271044580018497,,,,sub-218,1.0,random_dot,,
left,left,30.0,0.0,15.0,right,0.0,1.866847332999896,,accuracy,space,0.8019997909977974,,,,,,0.0,0.0,0.0,0.0,15.0,0.0,30.0,0.0,197.98355524999715,,,,,,,,,197.9753351670006,198.07438233299763,198.86682799999835,198.8583835419995,198.8588177499987,198.86682799999835,198.86682799999835,198.86682799999835,200.73595504200057,,,,,,,,,,,,,,,,,,,,,,,,,,,,,,,right,0.0,1.866847332999896,,,,sub-218,1.0,random_dot,,
right,right,31.0,1.0,15.0,right,1.0,2.361943957999756,,accuracy,space,0.8019997909977974,,,,,,0.0,0.0,0.0,0.0,15.0,1.0,31.0,1.0,200.7444775419972,,,,,,,,,200.7365033749993,201.53490820799925,202.32668495799956,202.31859083299787,202.31929387499983,202.32668495799956,202.32668495799956,202.32668495799956,204.6925961249981,,,,,,,,,,,,,,,,,,,,,,,,,,,,,,,right,1.0,2.361943957999756,,,,sub-218,1.0,random_dot,,
right,right,32.0,0.0,16.0,left,0.0,2.066573749001691,,accuracy,space,0.8019997909977974,,,,,,0.0,0.0,0.0,0.0,16.0,0.0,32.0,1.0,204.700788416998,,,,,,,,,204.6930682499988,204.7911733330002,205.5849322920003,205.5741523329998,205.57459254199784,205.5849322920003,205.5849322920003,205.5849322920003,207.6625611669988,,,,,,,,,,,,,,,,,,,,,,,,,,,,,,,left,0.0,2.066573749001691,,,,sub-218,1.0,random_dot,,
left,left,33.0,1.0,16.0,right,0.0,2.6927512910006044,,accuracy,space,0.8019997909977974,,,,,,0.0,0.0,0.0,0.0,16.0,1.0,33.0,0.0,207.6674372919988,,,,,,,,,207.663006625,208.45770691699727,209.25774595799885,209.2514945829971,209.25184991700007,209.25774595799885,209.25774595799885,209.25774595799885,211.952376792,,,,,,,,,,,,,,,,,,,,,,,,,,,,,,,right,0.0,2.6927512910006044,,,,sub-218,1.0,random_dot,,
right,right,34.0,0.0,17.0,left,0.0,2.3359312909997243,,accuracy,space,0.8019997909977974,,,,,,0.0,0.0,0.0,0.0,17.0,0.0,34.0,1.0,211.96064445799857,,,,,,,,,211.952862457998,212.041260916998,212.833147041998,212.8243338749999,212.82484383299743,212.833147041998,212.833147041998,212.833147041998,215.17943633299728,,,,,,,,,,,,,,,,,,,,,,,,,,,,,,,left,0.0,2.3359312909997243,,,,sub-218,1.0,random_dot,,
left,left,35.0,1.0,17.0,left,1.0,2.856628207002359,,accuracy,space,0.8019997909977974,,,,,,0.0,0.0,0.0,0.0,17.0,1.0,35.0,0.0,215.184266166998,,,,,,,,,215.17989595799736,215.27348916700063,216.06840612499943,216.05735941699825,216.05778895799813,216.06840612499943,216.06840612499943,216.06840612499943,218.9516736250007,,,,,,,,,,,,,,,,,,,,,,,,,,,,,,,left,1.0,2.856628207002359,,,,sub-218,1.0,random_dot,,
left,left,36.0,0.0,18.0,right,0.0,4.531083958001545,,accuracy,space,0.8019997909977974,,,,,,0.0,0.0,0.0,0.0,18.0,0.0,36.0,0.0,218.96833683300065,,,,,,,,,218.95227545799932,220.14064170799972,220.9343733329988,220.92403049999848,220.92446220800048,220.9343733329988,220.9343733329988,220.9343733329988,225.4694171249976,,,,,,,,,,,,,,,,,,,,,,,,,,,,,,,right,0.0,4.531083958001545,,,,sub-218,1.0,random_dot,,
right,right,37.0,1.0,18.0,left,0.0,3.362608998999349,,accuracy,space,0.8019997909977974,,,,,,0.0,0.0,0.0,0.0,18.0,1.0,37.0,1.0,225.47821058299812,,,,,,,,,225.4700949580001,225.81831041699843,226.6095564999996,226.60191079200013,226.6026057919989,226.6095564999996,226.6095564999996,226.6095564999996,229.97608149999724,,,,,,,,,,,,,,,,,,,,,,,,,,,,,,,left,0.0,3.362608998999349,,,,sub-218,1.0,random_dot,,
left,left,38.0,0.0,19.0,left,1.0,1.0240508330025475,,accuracy,space,0.8019997909977974,,,,,,0.0,0.0,0.0,0.0,19.0,0.0,38.0,0.0,229.9842584170001,,,,,,,,,229.9765460419985,230.77452466699836,231.5668851249975,231.55760999999984,231.5580310419973,231.5668851249975,231.5668851249975,231.5668851249975,232.59410362500057,,,,,,,,,,,,,,,,,,,,,,,,,,,,,,,left,1.0,1.0240508330025475,,,,sub-218,1.0,random_dot,,
right,right,39.0,1.0,19.0,right,1.0,2.667135415998928,,accuracy,space,0.8019997909977974,,,,,,0.0,0.0,0.0,0.0,19.0,1.0,39.0,1.0,232.60349858299745,,,,,,,,,232.5946992499994,232.69102383299835,233.492702042,233.4851133329976,233.48564949999852,233.492702042,233.492702042,233.492702042,236.16782500000045,,,,,,,,,,,,,,,,,,,,,,,,,,,,,,,right,1.0,2.667135415998928,,,,sub-218,1.0,random_dot,,
right,right,40.0,0.0,20.0,left,0.0,2.604566041001817,,accuracy,space,0.8019997909977974,,,,,,0.0,0.0,0.0,0.0,20.0,0.0,40.0,1.0,236.17586624999967,,,,,,,,,236.1683173329984,237.3576778329989,238.1498290419986,238.14106441699917,238.1415931249976,238.1498290419986,238.1498290419986,238.1498290419986,240.75917679199847,,,,,,,,,,,,,,,,,,,,,,,,,,,,,,,left,0.0,2.604566041001817,,,,sub-218,1.0,random_dot,,
left,left,41.0,1.0,20.0,left,1.0,1.2562521660001948,,accuracy,space,0.8019997909977974,,,,,,0.0,0.0,0.0,0.0,20.0,1.0,41.0,0.0,240.7667302079972,,,,,,,,,240.75961545799876,241.10760870800004,241.9016585419995,241.89085429199983,241.89128162499765,241.9016585419995,241.9016585419995,241.9016585419995,243.16791416699925,,,,,,,,,,,,,,,,,,,,,,,,,,,,,,,left,1.0,1.2562521660001948,,,,sub-218,1.0,random_dot,,
left,left,42.0,0.0,21.0,right,0.0,1.808379623998917,,accuracy,space,0.8019997909977974,,,,,,0.0,0.0,0.0,0.0,21.0,0.0,42.0,0.0,243.17181954199987,,,,,,,,,243.16838370799812,243.26678291699864,244.0575542080005,244.05173270799787,244.05221641699973,244.0575542080005,244.0575542080005,244.0575542080005,245.8683921669981,,,,,,,,,,,,,,,,,,,,,,,,,,,,,,,right,0.0,1.808379623998917,,,,sub-218,1.0,random_dot,,
right,right,43.0,1.0,21.0,left,0.0,1.258707790999324,,accuracy,space,0.8019997909977974,,,,,,0.0,0.0,0.0,0.0,21.0,1.0,43.0,1.0,245.8748406249979,,,,,,,,,245.8690229579988,247.0668908329972,247.86129987499956,247.8522646249985,247.8531555419977,247.86129987499956,247.86129987499956,247.86129987499956,249.1268766249996,,,,,,,,,,,,,,,,,,,,,,,,,,,,,,,left,0.0,1.258707790999324,,,,sub-218,1.0,random_dot,,
right,right,44.0,0.0,22.0,left,0.0,1.2491645829977642,,accuracy,space,0.8019997909977974,,,,,,0.0,0.0,0.0,0.0,22.0,0.0,44.0,1.0,249.13659883299988,,,,,,,,,249.12734862499929,250.324533125,251.1166398329988,251.1077898330004,251.10824283299732,251.1166398329988,251.1166398329988,251.1166398329988,252.3695371670001,,,,,,,,,,,,,,,,,,,,,,,,,,,,,,,left,0.0,1.2491645829977642,,,,sub-218,1.0,random_dot,,
left,left,45.0,1.0,22.0,left,1.0,2.6074308320021373,,accuracy,space,0.8019997909977974,,,,,,0.0,0.0,0.0,0.0,22.0,1.0,45.0,0.0,252.37911104199884,,,,,,,,,252.3702011669993,253.56824158299787,254.360383291998,254.35206812499743,254.3527825829988,254.360383291998,254.360383291998,254.360383291998,256.96912254199924,,,,,,,,,,,,,,,,,,,,,,,,,,,,,,,left,1.0,2.6074308320021373,,,,sub-218,1.0,random_dot,,
right,right,46.0,0.0,23.0,right,1.0,1.1004479570001422,,accuracy,space,0.8019997909977974,,,,,,0.0,0.0,0.0,0.0,23.0,0.0,46.0,1.0,256.97741620799934,,,,,,,,,256.9696023329998,257.3077360829993,258.0998782499992,258.0913124580002,258.0917396250006,258.0998782499992,258.0998782499992,258.0998782499992,259.2024985419994,,,,,,,,,,,,,,,,,,,,,,,,,,,,,,,right,1.0,1.1004479570001422,,,,sub-218,1.0,random_dot,,
left,left,47.0,1.0,23.0,left,1.0,1.6671027500015043,,accuracy,space,0.8019997909977974,,,,,,0.0,0.0,0.0,0.0,23.0,1.0,47.0,0.0,259.2113247499983,,,,,,,,,259.2030038749981,259.2902679580002,260.08323287500025,260.074432292,260.0748862500004,260.08323287500025,260.08323287500025,260.08323287500025,261.7517835830004,,,,,,,,,,,,,,,,,,,,,,,,,,,,,,,left,1.0,1.6671027500015043,,,,sub-218,1.0,random_dot,,
left,left,48.0,0.0,24.0,right,0.0,3.787240915997245,,accuracy,space,0.8019997909977974,,,,,,0.0,0.0,0.0,0.0,24.0,0.0,48.0,0.0,261.7593281249974,,,,,,,,,261.75226762499733,261.8404067499978,262.6332400829997,262.6247572499997,262.6252285829978,262.6332400829997,262.6332400829997,262.6332400829997,266.42641899999944,,,,,,,,,,,,,,,,,,,,,,,,,,,,,,,right,0.0,3.787240915997245,,,,sub-218,1.0,random_dot,,
right,right,49.0,1.0,24.0,left,0.0,1.1955107069989026,,accuracy,space,0.8019997909977974,,,,,,0.0,0.0,0.0,0.0,24.0,1.0,49.0,1.0,266.434615457998,,,,,,,,,266.4268940000002,266.7742973329987,267.5681757079983,267.55708208299984,267.5575074999979,267.5681757079983,267.5681757079983,267.5681757079983,268.76935133299776,,,,,,,,,,,,,,,,,,,,,,,,,,,,,,,left,0.0,1.1955107069989026,,,,sub-218,1.0,random_dot,,
left,left,50.0,0.0,25.0,left,1.0,2.8285490829985065,,accuracy,space,0.8019997909977974,,,,,,0.0,0.0,0.0,0.0,25.0,0.0,50.0,0.0,268.77814558299724,,,,,,,,,268.7700029579973,269.5577515419973,270.34992695799883,270.3408727499991,270.341406042,270.34992695799883,270.34992695799883,270.34992695799883,273.1858039580002,,,,,,,,,,,,,,,,,,,,,,,,,,,,,,,left,1.0,2.8285490829985065,,,,sub-218,1.0,random_dot,,
right,right,51.0,1.0,25.0,right,1.0,0.968675540996628,,accuracy,space,0.8019997909977974,,,,,,0.0,0.0,0.0,0.0,25.0,1.0,51.0,1.0,273.1942789169989,,,,,,,,,273.1863099580005,273.5244929999972,274.3164710829988,274.3074012500001,274.307933666998,274.3164710829988,274.3164710829988,274.3164710829988,275.29545012499875,,,,,,,,,,,,,,,,,,,,,,,,,,,,,,,right,1.0,0.968675540996628,,,,sub-218,1.0,random_dot,,
right,right,52.0,0.0,26.0,left,0.0,1.284846707003453,,accuracy,space,0.8019997909977974,,,,,,0.0,0.0,0.0,0.0,26.0,0.0,52.0,1.0,275.3001679579975,,,,,,,,,275.2958988749997,275.3908924999996,276.18317749999915,276.1744097919982,276.1749708749994,276.18317749999915,276.18317749999915,276.18317749999915,277.4799173749998,,,,,,,,,,,,,,,,,,,,,,,,,,,,,,,left,0.0,1.284846707003453,,,,sub-218,1.0,random_dot,,
left,left,53.0,1.0,26.0,right,0.0,5.231155874000251,,accuracy,space,0.8019997909977974,,,,,,0.0,0.0,0.0,0.0,26.0,1.0,53.0,0.0,277.5011432079991,,,,,,,,,277.48040062499786,277.5740226249982,278.3667977080004,278.3577922919976,278.3583198749984,278.3667977080004,278.3667977080004,278.3667977080004,283.6033874169989,,,,,,,,283.351390374999,,,,,,,,,,,,,,,,,,,,,,,right,0.0,5.231155874000251,,,,sub-218,1.0,random_dot,,
left,left,54.0,0.0,27.0,left,1.0,1.667951165996783,,accuracy,space,0.8019997909977974,,,,,,0.0,0.0,0.0,0.0,27.0,0.0,54.0,0.0,283.6127344999986,,,,,,,,,283.6043621249992,283.95146708299944,284.7431664579999,284.73479574999874,284.73555512500025,284.7431664579999,284.7431664579999,284.7431664579999,286.41791462499896,,,,,,,,,,,,,,,,,,,,,,,,,,,,,,,left,1.0,1.667951165996783,,,,sub-218,1.0,random_dot,,
right,right,55.0,1.0,27.0,right,1.0,1.8237197490016115,,accuracy,space,0.8019997909977974,,,,,,0.0,0.0,0.0,0.0,27.0,1.0,55.0,1.0,286.4260274999979,,,,,,,,,286.41840362499715,286.50744974999907,287.2997964999995,287.2912723329973,287.29181441699984,287.2997964999995,287.2997964999995,287.2997964999995,289.12615195800026,,,,,,,,,,,,,,,,,,,,,,,,,,,,,,,right,1.0,1.8237197490016115,,,,sub-218,1.0,random_dot,,
left,left,56.0,0.0,28.0,left,1.0,1.8939056250019348,,accuracy,space,0.8019997909977974,,,,,,0.0,0.0,0.0,0.0,28.0,0.0,56.0,0.0,289.13439608299814,,,,,,,,,289.1266324169992,290.3239916249986,291.1164447499977,291.10759916700044,291.10812995800006,291.1164447499977,291.1164447499977,291.1164447499977,293.01930291700046,,,,,,,,,,,,,,,,,,,,,,,,,,,,,,,left,1.0,1.8939056250019348,,,,sub-218,1.0,random_dot,,
right,right,57.0,1.0,28.0,right,1.0,1.1779573320018244,,accuracy,space,0.8019997909977974,,,,,,0.0,0.0,0.0,0.0,28.0,1.0,57.0,1.0,293.027602457998,,,,,,,,,293.0198187919996,293.8179993749982,294.61045312499846,294.60193416699985,294.60262695799975,294.61045312499846,294.61045312499846,294.61045312499846,295.7931189169976,,,,,,,,,,,,,,,,,,,,,,,,,,,,,,,right,1.0,1.1779573320018244,,,,sub-218,1.0,random_dot,,
right,right,58.0,0.0,29.0,right,1.0,3.4243357080013084,,accuracy,space,0.8019997909977974,,,,,,0.0,0.0,0.0,0.0,29.0,0.0,58.0,1.0,295.8179754999983,,,,,,,,,295.7935923749974,296.9911507500001,297.78349058299864,297.77423374999853,297.77468379199854,297.78349058299864,297.78349058299864,297.78349058299864,301.21838291699896,,,,,,,,,,,,,,,,,,,,,,,,,,,,,,,right,1.0,3.4243357080013084,,,,sub-218,1.0,random_dot,,
left,left,59.0,1.0,29.0,left,1.0,1.2686657500016736,,accuracy,space,0.8019997909977974,,,,,,0.0,0.0,0.0,0.0,29.0,1.0,59.0,0.0,301.2234110829995,,,,,,,,,301.21885333299724,302.4076526249992,303.1997182919986,303.1909980829987,303.19152066699826,303.1997182919986,303.1997182919986,303.1997182919986,304.4803526249998,,,,,,,,,,,,,,,,,,,,,,,,,,,,,,,left,1.0,1.2686657500016736,,,,sub-218,1.0,random_dot,,
,,0.0,0.0,0.0,,,,,accuracy,space,0.8019997909977974,,,,,,0.0,0.0,0.0,0.0,,,,,,,,,,,,,,,,,,,,,,,,,,,,,,,,,,,,,,,,,,,,,,,,,,,,,,,,,,,sub-218,1.0,random_dot,,
left,left,0.0,0.0,0.0,right,0.0,2.859791040998971,,speed,space,2.307941708000726,,,,,,0.0,1.0,1.0,1.0,0.0,0.0,0.0,0.0,306.8465513329975,,,,,,,,,306.8388723749995,307.1681078750007,307.9593528330006,307.9515764579992,307.95215345799807,307.9593528330006,307.9593528330006,307.9593528330006,310.8294325829993,,,,,,,,,,,,,,,,,,,,,,,,304.49954649999927,304.50442225000006,304.50442225000006,306.82041041699995,space,2.307941708000726,,right,0.0,2.859791040998971,,,,sub-218,1.0,random_dot,,
right,right,1.0,1.0,0.0,left,0.0,2.2816410820014426,,speed,space,2.307941708000726,,,,,,0.0,1.0,1.0,1.0,0.0,1.0,1.0,1.0,310.83429154199985,,,,,,,,,310.82989191699744,311.6241052499972,312.41748279199965,312.407430542,312.4078647919996,312.41748279199965,312.41748279199965,312.41748279199965,314.7023721669975,,,,,,,,,,,,,,,,,,,,,,,,,,,,,,,left,0.0,2.2816410820014426,,,,sub-218,1.0,random_dot,,
left,left,2.0,0.0,1.0,left,1.0,3.906130666000536,,speed,space,2.307941708000726,,,,,,0.0,1.0,1.0,1.0,1.0,0.0,2.0,0.0,314.7106845419985,,,,,,,,,314.7028868749985,315.9014601669988,316.6924669999971,316.68509699999777,316.6856670829984,316.6924669999971,316.6924669999971,316.6924669999971,320.6012982079992,,,,,,,,,,,,,,,,,,,,,,,,,,,,,,,left,1.0,3.906130666000536,,,,sub-218,1.0,random_dot,,
right,right,3.0,1.0,1.0,right,1.0,1.806157125000027,,speed,space,2.307941708000726,,,,,,0.0,1.0,1.0,1.0,1.0,1.0,3.0,1.0,320.6095874169987,,,,,,,,,320.60177354199914,321.7906536249975,322.5831252079988,322.57423887500045,322.5747836249975,322.5831252079988,322.5831252079988,322.5831252079988,324.3932372499985,,,,,,,,,,,,,,,,,,,,,,,,,,,,,,,right,1.0,1.806157125000027,,,,sub-218,1.0,random_dot,,
left,left,4.0,0.0,2.0,right,0.0,1.59848729100122,,speed,space,2.307941708000726,,,,,,0.0,1.0,1.0,1.0,2.0,0.0,4.0,0.0,324.4178807919998,,,,,,,,,324.39370295799745,325.5903591669994,326.3846339999982,326.3734717499974,326.3739319999986,326.3846339999982,326.3846339999982,326.3846339999982,327.9915784170007,,,,,,,,,,,,,,,,,,,,,,,,,,,,,,,right,0.0,1.59848729100122,,,,sub-218,1.0,random_dot,,
right,right,5.0,1.0,2.0,left,0.0,1.0886974160021057,,speed,space,2.307941708000726,,,,,,0.0,1.0,1.0,1.0,2.0,1.0,5.0,1.0,328.0013012499985,,,,,,,,,327.9919378329978,329.19139749999886,329.98440183300045,329.97402491699904,329.9744470000005,329.98440183300045,329.98440183300045,329.98440183300045,331.0763463330004,,,,,,,,,,,,,,,,,,,,,,,,,,,,,,,left,0.0,1.0886974160021057,,,,sub-218,1.0,random_dot,,
left,left,6.0,0.0,3.0,right,0.0,1.595462748999125,,speed,space,2.307941708000726,,,,,,0.0,1.0,1.0,1.0,3.0,0.0,6.0,0.0,331.0840337919981,,,,,,,,,331.0768242079976,331.8727515419996,332.6665364170003,332.65772783300054,332.6584244579972,332.6665364170003,332.6665364170003,332.6665364170003,334.26910645799944,,,,,,,,,,,,,,,,,,,,,,,,,,,,,,,right,0.0,1.595462748999125,,,,sub-218,1.0,random_dot,,
right,right,7.0,1.0,3.0,right,1.0,5.1277037910003855,,speed,space,2.307941708000726,,,,,,0.0,1.0,1.0,1.0,3.0,1.0,7.0,1.0,334.27701937500024,,,,,,,,,334.26964637499987,335.4679658749992,336.2613191249984,336.25189258299724,336.25259062499754,336.2613191249984,336.2613191249984,336.2613191249984,341.39189695799723,,,,,,,,341.24022666699966,,,,,,,,,,,,,,,,,,,,,,,right,1.0,5.1277037910003855,,,,sub-218,1.0,random_dot,,
left,left,8.0,0.0,4.0,left,1.0,1.0962555410005734,,speed,space,2.307941708000726,,,,,,0.0,1.0,1.0,1.0,4.0,0.0,8.0,0.0,341.4002917500002,,,,,,,,,341.39247758299825,342.5909900000006,343.38321150000047,343.37474762499915,343.3751999579981,343.38321150000047,343.38321150000047,343.38321150000047,344.4847661669992,,,,,,,,,,,,,,,,,,,,,,,,,,,,,,,left,1.0,1.0962555410005734,,,,sub-218,1.0,random_dot,,
right,right,9.0,1.0,4.0,right,1.0,1.071805707000749,,speed,space,2.307941708000726,,,,,,0.0,1.0,1.0,1.0,4.0,1.0,9.0,1.0,344.4936397079982,,,,,,,,,344.48539125000025,344.82224145799773,345.6165724579987,345.60777679199964,345.60822941699735,345.6165724579987,345.6165724579987,345.6165724579987,346.6923169170004,,,,,,,,,,,,,,,,,,,,,,,,,,,,,,,right,1.0,1.071805707000749,,,,sub-218,1.0,random_dot,,
left,left,10.0,0.0,5.0,left,1.0,0.955607207997673,,speed,space,2.307941708000726,,,,,,0.0,1.0,1.0,1.0,5.0,0.0,10.0,0.0,346.7007392499981,,,,,,,,,346.69279345799805,347.8915461249999,348.6937825829991,348.6852531669974,348.6859804999985,348.6937825829991,348.6937825829991,348.6937825829991,349.6524758329979,,,,,,,,,,,,,,,,,,,,,,,,,,,,,,,left,1.0,0.955607207997673,,,,sub-218,1.0,random_dot,,
right,right,11.0,1.0,5.0,right,1.0,0.9041054160006752,,speed,space,2.307941708000726,,,,,,0.0,1.0,1.0,1.0,5.0,1.0,11.0,1.0,349.66093162499965,,,,,,,,,349.65298766699925,350.45139816699884,351.24329383299846,351.23530183299954,351.23602958300035,351.24329383299846,351.24329383299846,351.24329383299846,352.1527719579972,,,,,,,,,,,,,,,,,,,,,,,,,,,,,,,right,1.0,0.9041054160006752,,,,sub-218,1.0,random_dot,,
right,right,12.0,0.0,6.0,left,0.0,1.0123249579992262,,speed,space,2.307941708000726,,,,,,0.0,1.0,1.0,1.0,6.0,0.0,12.0,1.0,352.1615951249987,,,,,,,,,352.1534348749992,352.95128804200067,353.7430057499987,353.7352006669971,353.7358967500004,353.7430057499987,353.7430057499987,353.7430057499987,354.75935754199963,,,,,,,,,,,,,,,,,,,,,,,,,,,,,,,left,0.0,1.0123249579992262,,,,sub-218,1.0,random_dot,,
left,left,13.0,1.0,6.0,right,0.0,1.4224173740003607,,speed,space,2.307941708000726,,,,,,0.0,1.0,1.0,1.0,6.0,1.0,13.0,0.0,354.76757966699734,,,,,,,,,354.7598212919984,355.95732558300006,356.75085195800057,356.7408607079997,356.7412860419972,356.75085195800057,356.75085195800057,356.75085195800057,358.1758469169981,,,,,,,,,,,,,,,,,,,,,,,,,,,,,,,right,0.0,1.4224173740003607,,,,sub-218,1.0,random_dot,,
left,left,14.0,0.0,7.0,left,1.0,1.146261083002173,,speed,space,2.307941708000726,,,,,,0.0,1.0,1.0,1.0,7.0,0.0,14.0,0.0,358.18407583299995,,,,,,,,,358.17631099999926,358.274348125,359.0679267919986,359.0570793749976,359.0575843330007,359.0679267919986,359.0679267919986,359.0679267919986,360.2193892079995,,,,,,,,,,,,,,,,,,,,,,,,,,,,,,,left,1.0,1.146261083002173,,,,sub-218,1.0,random_dot,,
right,right,15.0,1.0,7.0,left,0.0,1.0772293319969322,,speed,space,2.307941708000726,,,,,,0.0,1.0,1.0,1.0,7.0,1.0,15.0,1.0,360.2283555419999,,,,,,,,,360.22005366699887,361.4179478749975,362.2099298329995,362.2018370000005,362.2025390419985,362.2099298329995,362.2099298329995,362.2099298329995,363.2921938750005,,,,,,,,,,,,,,,,,,,,,,,,,,,,,,,left,0.0,1.0772293319969322,,,,sub-218,1.0,random_dot,,
right,right,16.0,0.0,8.0,left,0.0,5.558800373997656,,speed,space,2.307941708000726,,,,,,0.0,1.0,1.0,1.0,8.0,0.0,16.0,1.0,363.3008864580006,,,,,,,,,363.29269354200005,363.6405758330002,364.44359741699736,364.4355356669985,364.4362409169989,364.44359741699736,364.44359741699736,364.44359741699736,370.0098055419985,,,,,,,,369.4237406249995,,,,,,,,,,,,,,,,,,,,,,,left,0.0,5.558800373997656,,,,sub-218,1.0,random_dot,,
left,left,17.0,1.0,8.0,right,0.0,2.0252479990012944,,speed,space,2.307941708000726,,,,,,0.0,1.0,1.0,1.0,8.0,1.0,17.0,0.0,370.0198862500001,,,,,,,,,370.0105195830001,371.20550162499785,372.007735332998,372.00097883299895,372.0016803750004,372.007735332998,372.007735332998,372.007735332998,374.0354612079973,,,,,,,,,,,,,,,,,,,,,,,,,,,,,,,right,0.0,2.0252479990012944,,,,sub-218,1.0,random_dot,,
right,right,18.0,0.0,9.0,left,0.0,1.335837333001109,,speed,space,2.307941708000726,,,,,,0.0,1.0,1.0,1.0,9.0,0.0,18.0,1.0,374.0421862080002,,,,,,,,,374.0357849579996,374.3736120829999,375.17605770799855,375.1682899999978,375.1688338749991,375.17605770799855,375.17605770799855,375.17605770799855,376.5179004579986,,,,,,,,,,,,,,,,,,,,,,,,,,,,,,,left,0.0,1.335837333001109,,,,sub-218,1.0,random_dot,,
left,left,19.0,1.0,9.0,left,1.0,1.6836830819993338,,speed,space,2.307941708000726,,,,,,0.0,1.0,1.0,1.0,9.0,1.0,19.0,0.0,376.5264459579994,,,,,,,,,376.5183877079981,377.70758849999766,378.5000110830006,378.4913405829975,378.49192454199874,378.5000110830006,378.5000110830006,378.5000110830006,380.1956049999972,,,,,,,,,,,,,,,,,,,,,,,,,,,,,,,left,1.0,1.6836830819993338,,,,sub-218,1.0,random_dot,,
right,right,20.0,0.0,10.0,right,1.0,1.6854418749971956,,speed,space,2.307941708000726,,,,,,0.0,1.0,1.0,1.0,10.0,0.0,20.0,1.0,380.1997308329992,,,,,,,,,380.196014582998,381.3910450829972,382.1831450419995,382.17462604200045,382.1750958749981,382.1831450419995,382.1831450419995,382.1831450419995,383.875038457998,,,,,,,,,,,,,,,,,,,,,,,,,,,,,,,right,1.0,1.6854418749971956,,,,sub-218,1.0,random_dot,,
left,left,21.0,1.0,10.0,left,1.0,1.67879183200057,,speed,space,2.307941708000726,,,,,,0.0,1.0,1.0,1.0,10.0,1.0,21.0,0.0,383.88378066699806,,,,,,,,,383.8755213330005,385.0742606249987,385.8667535419991,385.8578759999982,385.8583624169987,385.8667535419991,385.8667535419991,385.8667535419991,387.5520632499975,,,,,,,,,,,,,,,,,,,,,,,,,,,,,,,left,1.0,1.67879183200057,,,,sub-218,1.0,random_dot,,
right,right,22.0,0.0,11.0,right,1.0,3.556394874001853,,speed,space,2.307941708000726,,,,,,0.0,1.0,1.0,1.0,11.0,0.0,22.0,1.0,387.5605346669981,,,,,,,,,387.552568916999,388.3412645829994,389.1335088329979,389.124119707998,389.1246455830005,389.1335088329979,389.1335088329979,389.1335088329979,392.6926933750001,,,,,,,,,,,,,,,,,,,,,,,,,,,,,,,right,1.0,3.556394874001853,,,,sub-218,1.0,random_dot,,
left,left,23.0,1.0,11.0,left,1.0,2.450381957001809,,speed,space,2.307941708000726,,,,,,0.0,1.0,1.0,1.0,11.0,1.0,23.0,0.0,392.703042541998,,,,,,,,,392.6931832919981,393.04112916699887,393.8330672499978,393.8242085419988,393.8246613329975,393.8330672499978,393.8330672499978,393.8330672499978,396.2858484999997,,,,,,,,,,,,,,,,,,,,,,,,,,,,,,,left,1.0,2.450381957001809,,,,sub-218,1.0,random_dot,,
left,left,24.0,0.0,12.0,left,1.0,1.4546952079981563,,speed,space,2.307941708000726,,,,,,0.0,1.0,1.0,1.0,12.0,0.0,24.0,0.0,396.2950159579996,,,,,,,,,396.28652370800046,397.4848095829984,398.2766174169992,398.26847520799856,398.2691948749998,398.2766174169992,398.2766174169992,398.2766174169992,399.7349587079989,,,,,,,,,,,,,,,,,,,,,,,,,,,,,,,left,1.0,1.4546952079981563,,,,sub-218,1.0,random_dot,,
right,right,25.0,1.0,12.0,right,1.0,2.5008219579976867,,speed,space,2.307941708000726,,,,,,0.0,1.0,1.0,1.0,12.0,1.0,25.0,1.0,399.7441054169976,,,,,,,,,399.73562241699983,400.07387883299816,400.8664581669982,400.85757745799856,400.8580091250005,400.8664581669982,400.8664581669982,400.8664581669982,403.3693812499987,,,,,,,,,,,,,,,,,,,,,,,,,,,,,,,right,1.0,2.5008219579976867,,,,sub-218,1.0,random_dot,,
left,left,26.0,0.0,13.0,left,1.0,1.3725278330020956,,speed,space,2.307941708000726,,,,,,0.0,1.0,1.0,1.0,13.0,0.0,26.0,0.0,403.3780889169975,,,,,,,,,403.370033291998,403.71804883299774,404.5106768330006,404.5019528749981,404.5026628329979,404.5106768330006,404.5106768330006,404.5106768330006,405.8857997499981,,,,,,,,,,,,,,,,,,,,,,,,,,,,,,,left,1.0,1.3725278330020956,,,,sub-218,1.0,random_dot,,
right,right,27.0,1.0,13.0,right,1.0,1.1007072489992424,,speed,space,2.307941708000726,,,,,,0.0,1.0,1.0,1.0,13.0,1.0,27.0,1.0,405.89467024999976,,,,,,,,,405.8863211669996,406.6745573329972,407.4663266669995,407.45757666699865,407.4581188329976,407.4663266669995,407.4663266669995,407.4663266669995,408.568583166998,,,,,,,,,,,,,,,,,,,,,,,,,,,,,,,right,1.0,1.1007072489992424,,,,sub-218,1.0,random_dot,,
right,right,28.0,0.0,14.0,left,0.0,2.343175791000249,,speed,space,2.307941708000726,,,,,,0.0,1.0,1.0,1.0,14.0,0.0,28.0,1.0,408.5771138749988,,,,,,,,,408.5690698750004,409.7576884999981,410.54981874999794,410.5408037919988,410.5413451249988,410.54981874999794,410.54981874999794,410.54981874999794,412.9197233749983,,,,,,,,,,,,,,,,,,,,,,,,,,,,,,,left,0.0,2.343175791000249,,,,sub-218,1.0,random_dot,,
left,left,29.0,1.0,14.0,right,0.0,1.2797532490003505,,speed,space,2.307941708000726,,,,,,0.0,1.0,1.0,1.0,14.0,1.0,29.0,0.0,412.9347465829997,,,,,,,,,412.9207636669999,413.7179244580002,414.50985929200033,414.5016027499987,414.5023558749999,414.50985929200033,414.50985929200033,414.50985929200033,415.79275245799727,,,,,,,,,,,,,,,,,,,,,,,,,,,,,,,right,0.0,1.2797532490003505,,,,sub-218,1.0,random_dot,,
right,right,30.0,0.0,15.0,left,0.0,1.5295977909991052,,speed,space,2.307941708000726,,,,,,0.0,1.0,1.0,1.0,15.0,0.0,30.0,1.0,415.8009424579977,,,,,,,,,415.79322020799736,416.14038920799794,416.934022292,416.9239006249991,416.9243454579992,416.934022292,416.934022292,416.934022292,418.46922624999934,,,,,,,,,,,,,,,,,,,,,,,,,,,,,,,left,0.0,1.5295977909991052,,,,sub-218,1.0,random_dot,,
left,left,31.0,1.0,15.0,right,0.0,1.3127038330021603,,speed,space,2.307941708000726,,,,,,0.0,1.0,1.0,1.0,15.0,1.0,31.0,0.0,418.4780518329972,,,,,,,,,418.4698560830002,419.6680853750004,420.4598405830002,420.45169604200055,420.45244708300015,420.4598405830002,420.4598405830002,420.4598405830002,421.7764927499993,,,,,,,,,,,,,,,,,,,,,,,,,,,,,,,right,0.0,1.3127038330021603,,,,sub-218,1.0,random_dot,,
right,right,32.0,0.0,16.0,right,1.0,2.927701665998029,,speed,space,2.307941708000726,,,,,,0.0,1.0,1.0,1.0,16.0,0.0,32.0,1.0,421.80116991699833,,,,,,,,,421.7769567920004,422.5736588330001,423.3679618749993,423.3567308749989,423.3571582919976,423.3679618749993,423.3679618749993,423.3679618749993,426.3026251669981,,,,,,,,,,,,,,,,,,,,,,,,,,,,,,,right,1.0,2.927701665998029,,,,sub-218,1.0,random_dot,,
left,left,33.0,1.0,16.0,left,1.0,1.641833375000715,,speed,space,2.307941708000726,,,,,,0.0,1.0,1.0,1.0,16.0,1.0,33.0,0.0,426.311902292,,,,,,,,,426.30332304200056,427.1013943750004,427.8933867499982,427.8851846670004,427.8859307079984,427.8933867499982,427.8933867499982,427.8933867499982,429.5457064999973,,,,,,,,,,,,,,,,,,,,,,,,,,,,,,,left,1.0,1.641833375000715,,,,sub-218,1.0,random_dot,,
left,left,34.0,0.0,17.0,right,0.0,1.472188998999627,,speed,space,2.307941708000726,,,,,,0.0,1.0,1.0,1.0,17.0,0.0,34.0,0.0,429.5506925419977,,,,,,,,,429.5461687499992,430.3405169580001,431.1340019999989,431.12429037499896,431.1247410830001,431.1340019999989,431.1340019999989,431.1340019999989,432.6090726250004,,,,,,,,,,,,,,,,,,,,,,,,,,,,,,,right,0.0,1.472188998999627,,,,sub-218,1.0,random_dot,,
right,right,35.0,1.0,17.0,left,0.0,1.0593939569989743,,speed,space,2.307941708000726,,,,,,0.0,1.0,1.0,1.0,17.0,1.0,35.0,1.0,432.6172783330003,,,,,,,,,432.6095327500007,433.8071235419993,434.5996955829978,434.5911826249976,434.59166149999874,434.5996955829978,434.5996955829978,434.5996955829978,435.66908362499817,,,,,,,,,,,,,,,,,,,,,,,,,,,,,,,left,0.0,1.0593939569989743,,,,sub-218,1.0,random_dot,,
right,right,36.0,0.0,18.0,right,1.0,1.3034361239988357,,speed,space,2.307941708000726,,,,,,0.0,1.0,1.0,1.0,18.0,0.0,36.0,1.0,435.6776112080006,,,,,,,,,435.6696114999977,436.46804662499926,437.26050937499895,437.2519479580005,437.2526503329973,437.26050937499895,437.26050937499895,437.26050937499895,438.5684340000007,,,,,,,,,,,,,,,,,,,,,,,,,,,,,,,right,1.0,1.3034361239988357,,,,sub-218,1.0,random_dot,,
left,left,37.0,1.0,18.0,left,1.0,1.2883852910017597,,speed,space,2.307941708000726,,,,,,0.0,1.0,1.0,1.0,18.0,1.0,37.0,0.0,438.57709799999793,,,,,,,,,438.568957083,439.7566391670007,440.5496222500005,440.5408136669976,440.5413805419994,440.5496222500005,440.5496222500005,440.5496222500005,441.84289374999935,,,,,,,,,,,,,,,,,,,,,,,,,,,,,,,left,1.0,1.2883852910017597,,,,sub-218,1.0,random_dot,,
right,right,38.0,0.0,19.0,right,1.0,1.9230287489990587,,speed,space,2.307941708000726,,,,,,0.0,1.0,1.0,1.0,19.0,0.0,38.0,1.0,441.8509857919999,,,,,,,,,441.84336254200025,441.9404597920002,442.73389054200015,442.7235766249978,442.7241327919983,442.73389054200015,442.73389054200015,442.73389054200015,444.6592747079994,,,,,,,,,,,,,,,,,,,,,,,,,,,,,,,right,1.0,1.9230287489990587,,,,sub-218,1.0,random_dot,,
left,left,39.0,1.0,19.0,left,1.0,1.235066541001288,,speed,space,2.307941708000726,,,,,,0.0,1.0,1.0,1.0,19.0,1.0,39.0,0.0,444.6674388329993,,,,,,,,,444.6597297080007,445.8575420419984,446.6497022500007,446.6407196670007,446.6411689999986,446.6497022500007,446.6497022500007,446.6497022500007,447.8961071669983,,,,,,,,,,,,,,,,,,,,,,,,,,,,,,,left,1.0,1.235066541001288,,,,sub-218,1.0,random_dot,,
right,right,40.0,0.0,20.0,right,1.0,1.4895952490005584,,speed,space,2.307941708000726,,,,,,0.0,1.0,1.0,1.0,20.0,0.0,40.0,1.0,447.9008439999998,,,,,,,,,447.8965623749973,447.990039332999,448.7841423329992,448.7741757500007,448.7746222919996,448.7841423329992,448.7841423329992,448.7841423329992,450.28446774999975,,,,,,,,,,,,,,,,,,,,,,,,,,,,,,,right,1.0,1.4895952490005584,,,,sub-218,1.0,random_dot,,
left,left,41.0,1.0,20.0,left,1.0,1.8996934989991128,,speed,space,2.307941708000726,,,,,,0.0,1.0,1.0,1.0,20.0,1.0,41.0,0.0,450.2896081250001,,,,,,,,,450.2849457919983,451.4739104999972,452.2679557919983,452.2568472079984,452.25732141700064,452.2679557919983,452.2679557919983,452.2679557919983,454.1690846249985,,,,,,,,,,,,,,,,,,,,,,,,,,,,,,,left,1.0,1.8996934989991128,,,,sub-218,1.0,random_dot,,
left,left,42.0,0.0,21.0,right,0.0,1.9278839999969928,,speed,space,2.307941708000726,,,,,,0.0,1.0,1.0,1.0,21.0,0.0,42.0,0.0,454.1779102500004,,,,,,,,,454.16974995800047,455.3681069999984,456.16059695799777,456.15201041699765,456.15277604199946,456.16059695799777,456.16059695799777,456.16059695799777,458.092335207999,,,,,,,,,,,,,,,,,,,,,,,,,,,,,,,right,0.0,1.9278839999969928,,,,sub-218,1.0,random_dot,,
right,right,43.0,1.0,21.0,right,1.0,1.6237498319969743,,speed,space,2.307941708000726,,,,,,0.0,1.0,1.0,1.0,21.0,1.0,43.0,1.0,458.1005125419979,,,,,,,,,458.09280195799874,459.2905981250005,460.0927516249976,460.0849940419976,460.0855347920005,460.0927516249976,460.0927516249976,460.0927516249976,461.7192378750005,,,,,,,,,,,,,,,,,,,,,,,,,,,,,,,right,1.0,1.6237498319969743,,,,sub-218,1.0,random_dot,,
right,right,44.0,0.0,22.0,left,0.0,2.16975499900218,,speed,space,2.307941708000726,,,,,,0.0,1.0,1.0,1.0,22.0,0.0,44.0,1.0,461.72860608299743,,,,,,,,,461.7199278329972,462.0678219580004,462.85959204199753,462.85170283299885,462.85242775000006,462.85959204199753,462.85959204199753,462.85959204199753,465.0344691249993,,,,,,,,,,,,,,,,,,,,,,,,,,,,,,,left,0.0,2.16975499900218,,,,sub-218,1.0,random_dot,,
left,left,45.0,1.0,22.0,right,0.0,3.36826387399924,,speed,space,2.307941708000726,,,,,,0.0,1.0,1.0,1.0,22.0,1.0,45.0,0.0,465.04275566700016,,,,,,,,,465.0349469169996,465.1239945829984,465.9168008749984,465.9075605420003,465.9080143329993,465.9168008749984,465.9168008749984,465.9168008749984,469.2963776249999,,,,,,,,,,,,,,,,,,,,,,,,,,,,,,,right,0.0,3.36826387399924,,,,sub-218,1.0,random_dot,,
left,left,46.0,0.0,23.0,right,0.0,3.032882581999729,,speed,space,2.307941708000726,,,,,,0.0,1.0,1.0,1.0,23.0,0.0,46.0,0.0,469.31772695799737,,,,,,,,,469.2968337499988,469.6409837079991,470.4423926669988,470.4349372920005,470.4354813329992,470.4423926669988,470.4423926669988,470.4423926669988,473.48670395799854,,,,,,,,,,,,,,,,,,,,,,,,,,,,,,,right,0.0,3.032882581999729,,,,sub-218,1.0,random_dot,,
right,right,47.0,1.0,23.0,left,0.0,1.3891001250012778,,speed,space,2.307941708000726,,,,,,0.0,1.0,1.0,1.0,23.0,1.0,47.0,1.0,473.5011223330002,,,,,,,,,473.4871248749987,473.83450858300057,474.62671045800016,474.61835616700046,474.6190784999999,474.62671045800016,474.62671045800016,474.62671045800016,476.0176542079971,,,,,,,,,,,,,,,,,,,,,,,,,,,,,,,left,0.0,1.3891001250012778,,,,sub-218,1.0,random_dot,,
right,right,48.0,0.0,24.0,right,1.0,1.3315195409995797,,speed,space,2.307941708000726,,,,,,0.0,1.0,1.0,1.0,24.0,0.0,48.0,1.0,476.02600316700045,,,,,,,,,476.01815449999776,476.357489916998,477.15027933300007,477.1404909169978,477.1409207079996,477.15027933300007,477.15027933300007,477.15027933300007,478.4856907499998,,,,,,,,,,,,,,,,,,,,,,,,,,,,,,,right,1.0,1.3315195409995797,,,,sub-218,1.0,random_dot,,
left,left,49.0,1.0,24.0,left,1.0,1.7588219159988512,,speed,space,2.307941708000726,,,,,,0.0,1.0,1.0,1.0,24.0,1.0,49.0,0.0,478.49456587500026,,,,,,,,,478.4862214999994,478.8346170829973,479.6258778329975,479.61818395799855,479.6187792499986,479.6258778329975,479.6258778329975,479.6258778329975,481.3952382919997,,,,,,,,,,,,,,,,,,,,,,,,,,,,,,,left,1.0,1.7588219159988512,,,,sub-218,1.0,random_dot,,
left,left,50.0,0.0,25.0,left,1.0,2.653614666000067,,speed,space,2.307941708000726,,,,,,0.0,1.0,1.0,1.0,25.0,0.0,50.0,0.0,481.4003816669974,,,,,,,,,481.3957132920005,482.5904524170001,483.3844955419991,483.3737664580003,483.37425854200046,483.3844955419991,483.3844955419991,483.3844955419991,486.043214041998,,,,,,,,,,,,,,,,,,,,,,,,,,,,,,,left,1.0,2.653614666000067,,,,sub-218,1.0,random_dot,,
right,right,51.0,1.0,25.0,right,1.0,0.6692988329996297,,speed,space,2.307941708000726,,,,,,0.0,1.0,1.0,1.0,25.0,1.0,51.0,1.0,486.0526610419984,,,,,,,,,486.0436969999973,487.240348583,488.0334542919991,488.0243424580003,488.0247842079989,488.0334542919991,488.0334542919991,488.0334542919991,488.70802374999766,,,,,,,,,,,,,,,,,,,,,,,,,,,,,,,right,1.0,0.6692988329996297,,,,sub-218,1.0,random_dot,,
left,left,52.0,0.0,26.0,left,1.0,1.4961366660027124,,speed,space,2.307941708000726,,,,,,0.0,1.0,1.0,1.0,26.0,0.0,52.0,0.0,488.7171812499983,,,,,,,,,488.70848108299833,488.807374,489.60057787500045,489.5908071669983,489.5912472079981,489.60057787500045,489.60057787500045,489.60057787500045,491.10240299999714,,,,,,,,,,,,,,,,,,,,,,,,,,,,,,,left,1.0,1.4961366660027124,,,,sub-218,1.0,random_dot,,
right,right,53.0,1.0,26.0,right,1.0,0.887247540998942,,speed,space,2.307941708000726,,,,,,0.0,1.0,1.0,1.0,26.0,1.0,53.0,1.0,491.1114270830003,,,,,,,,,491.1030596249984,491.4510964170004,492.2422504999995,492.23472366699934,492.2352502499998,492.2422504999995,492.2422504999995,492.2422504999995,493.1357149579999,,,,,,,,,,,,,,,,,,,,,,,,,,,,,,,right,1.0,0.887247540998942,,,,sub-218,1.0,random_dot,,
right,right,54.0,0.0,27.0,left,0.0,1.2181564159982372,,speed,space,2.307941708000726,,,,,,0.0,1.0,1.0,1.0,27.0,0.0,54.0,1.0,493.1445023749984,,,,,,,,,493.13635325,493.4846011249974,494.2753074169996,494.2682194579975,494.2686712920004,494.2753074169996,494.2753074169996,494.2753074169996,495.50222845799726,,,,,,,,,,,,,,,,,,,,,,,,,,,,,,,left,0.0,1.2181564159982372,,,,sub-218,1.0,random_dot,,
left,left,55.0,1.0,27.0,right,0.0,1.5330507489998126,,speed,space,2.307941708000726,,,,,,0.0,1.0,1.0,1.0,27.0,1.0,55.0,0.0,495.5106531249985,,,,,,,,,495.5027660419983,495.5909532919977,496.3833937079981,496.3745336669999,496.37497812499714,496.3833937079981,496.3833937079981,496.3833937079981,497.9187060419972,,,,,,,,,,,,,,,,,,,,,,,,,,,,,,,right,0.0,1.5330507489998126,,,,sub-218,1.0,random_dot,,
right,right,56.0,0.0,28.0,right,1.0,1.1250350820009771,,speed,space,2.307941708000726,,,,,,0.0,1.0,1.0,1.0,28.0,0.0,56.0,1.0,497.9271033749974,,,,,,,,,497.9191975419999,499.1076208749983,499.9003709169992,499.8905689999992,499.89099524999983,499.9003709169992,499.9003709169992,499.9003709169992,501.0358748750005,,,,,,,,,,,,,,,,,,,,,,,,,,,,,,,right,1.0,1.1250350820009771,,,,sub-218,1.0,random_dot,,
left,left,57.0,1.0,28.0,left,1.0,1.7190515829970536,,speed,space,2.307941708000726,,,,,,0.0,1.0,1.0,1.0,28.0,1.0,57.0,0.0,501.04101833299865,,,,,,,,,501.0363538329984,502.2345616249986,503.0272946669975,503.01822979200006,503.01890937499775,503.0272946669975,503.0272946669975,503.0272946669975,504.7522826249988,,,,,,,,,,,,,,,,,,,,,,,,,,,,,,,left,1.0,1.7190515829970536,,,,sub-218,1.0,random_dot,,
left,left,58.0,0.0,29.0,right,0.0,0.9246804160029568,,speed,space,2.307941708000726,,,,,,0.0,1.0,1.0,1.0,29.0,0.0,58.0,0.0,504.7607652080005,,,,,,,,,504.7527801670003,505.1012703749984,505.8915869999983,505.8846412499988,505.8850689169994,505.8915869999983,505.8915869999983,505.8915869999983,506.81790595799976,,,,,,,,,,,,,,,,,,,,,,,,,,,,,,,right,0.0,0.9246804160029568,,,,sub-218,1.0,random_dot,,
right,right,59.0,1.0,29.0,left,0.0,1.203942291002022,,speed,space,2.307941708000726,,,,,,0.0,1.0,1.0,1.0,29.0,1.0,59.0,1.0,506.826484833,,,,,,,,,506.818402375,506.9070153329994,507.7003263330007,507.69041449999713,507.6909423750003,507.7003263330007,507.7003263330007,507.7003263330007,508.9089517499997,,,,,,,,,,,,,,,,,,,,,,,,,,,,,,,left,0.0,1.203942291002022,,,,sub-218,1.0,random_dot,,
,,1.0,1.0,0.0,,,,,speed,space,2.307941708000726,,,,,,0.0,1.0,1.0,1.0,,,,,,,,,,,,,,,,,,,,,,,,,,,,,,,,,,,,,,,,,,,,,,,,,,,,,,,,,,,sub-218,1.0,random_dot,,
,,,,,,,,,,,,,,,,,,,,,,,,,,,,,,,,,,,,,,,,,,,,,,,,,,,,,,,,,,,,,,,,,,,,,,,,,,,,,508.9174946669991,508.9266862919976,sub-218,,,,
