wordCTK,colorCTK,corrAnsCTK,congruentCTK,thisN,thisTrialN,thisRepN,keyResp_CTK.keys,keyResp_CTK.corr,keyResp_CTK.rt,keyResp_CTK.duration,wordPractice,colorPractice,corrAnsPractice,congruentPractice,respPractice.keys,respPractice.corr,respPractice.rt,respPractice.duration,word,color,corrAns,congruent,keyResp_test_run.keys,keyResp_test_run.corr,keyResp_test_run.rt,keyResp_test_run.duration,trials_CTK.thisRepN,trials_CTK.thisTrialN,trials_CTK.thisN,trials_CTK.thisIndex,trials_practice.thisRepN,trials_practice.thisTrialN,trials_practice.thisN,trials_practice.thisIndex,trials_test.thisRepN,trials_test.thisTrialN,trials_test.thisN,trials_test.thisIndex,thisRow.t,notes,instruction.started,instr_text.started,instr_image.started,instr_resp.started,instruction.stopped,instr_resp.keys,instr_resp.rt,instr_resp.duration,instr_color_to_key.started,instr_ctk.started,resp_ctk.started,instr_color_to_key.stopped,resp_ctk.keys,resp_ctk.rt,resp_ctk.duration,ITI.started,fixcross.started,fixcross.stopped,ITI.stopped,color_to_key_run.started,stimulus_CTK.started,keyResp_CTK.started,color_to_key_run.stopped,trials_CTK.keyResp_CTK.keys,trials_CTK.keyResp_CTK.corr,trials_CTK.keyResp_CTK.rt,trials_CTK.keyResp_CTK.duration,instr_practice.started,instr_practice_text.started,instr_practice_resp.started,instr_practice.stopped,instr_practice_resp.keys,instr_practice_resp.rt,instr_practice_resp.duration,practice_run.started,stimulus_practice.started,respPractice.started,practice_run.stopped,trials_practice.respPractice.keys,trials_practice.respPractice.corr,trials_practice.respPractice.rt,trials_practice.respPractice.duration,feedback.started,textFeedback.started,textFeedback.stopped,feedback.stopped,instr_test.started,instr_test_text.started,instr_test_resp.started,instr_test.stopped,instr_test_resp.keys,instr_test_resp.rt,instr_test_resp.duration,test_run.started,stimulus_test_run.started,keyResp_test_run.started,test_run.stopped,trials_test.keyResp_test_run.keys,trials_test.keyResp_test_run.corr,trials_test.keyResp_test_run.rt,trials_test.keyResp_test_run.duration,goodbye.started,textGoodbye.started,textGoodbye.stopped,goodbye.stopped,participant,session,expName,frameRate,Unnamed: 113
,,,,,,,,,,,,,,,,,,,,,,,,,,,,,,,,,,,,,,,,,0.008315300000504,0.0160355000007257,0.0160355000007257,0.0160355000007257,34.874445899999955,space,34.85497349999969,,,,,,,,,,,,,,,,,,,,,,,,,,,,,,,,,,,,,,,,,,,,,,,,,,,,,,,,,,,sub-120,1,stroop_test,121.5809905690804,
,,,,,,,,,,,,,,,,,,,,,,,,,,,,,,,,,,,,,,,,,,,,,,,,,34.87449950000064,34.88225870000042,34.88225870000042,41.42434560000038,space,6.537620900000547,,,,,,,,,,,,,,,,,,,,,,,,,,,,,,,,,,,,,,,,,,,,,,,,,,,,sub-120,1,stroop_test,121.5809905690804,
test,red,r,1.0,0.0,0.0,0.0,r,1.0,1.4876929000001835,,,,,,,,,,,,,,,,,,0.0,0.0,0.0,0.0,,,,,,,,,41.44478530000015,,,,,,,,,,,,,,,,,41.43330930000048,42.61947250000048,43.41222270000071,43.403437800000574,43.40851580000072,43.41222270000071,43.41222270000071,44.90480389999993,r,1.0,1.4876929000001835,,,,,,,,,,,,,,,,,,,,,,,,,,,,,,,,,,,,,,,,sub-120,1,stroop_test,121.5809905690804,
test,yellow,g,1.0,1.0,1.0,0.0,b,0.0,1.4856533000001946,,,,,,,,,,,,,,,,,,0.0,1.0,1.0,1.0,,,,,,,,,44.91213420000077,,,,,,,,,,,,,,,,,44.90507810000054,44.995973900000536,45.78677289999996,45.78084350000063,45.78147500000068,45.78677289999996,45.78677289999996,47.28028300000005,b,0.0,1.4856533000001946,,,,,,,,,,,,,,,,,,,,,,,,,,,,,,,,,,,,,,,,sub-120,1,stroop_test,121.5809905690804,
test,blue,b,1.0,2.0,2.0,0.0,b,1.0,1.146266900000228,,,,,,,,,,,,,,,,,,0.0,2.0,2.0,2.0,,,,,,,,,47.2875468000002,,,,,,,,,,,,,,,,,47.28056319999996,48.0789635000001,48.87047870000061,48.86319240000012,48.86375980000048,48.87047870000061,48.87047870000061,50.02167370000007,b,1.0,1.146266900000228,,,,,,,,,,,,,,,,,,,,,,,,,,,,,,,,,,,,,,,,sub-120,1,stroop_test,121.5809905690804,
test,blue,b,1.0,3.0,0.0,1.0,b,1.0,0.9979130000001531,,,,,,,,,,,,,,,,,,1.0,0.0,3.0,2.0,,,,,,,,,50.02904310000031,,,,,,,,,,,,,,,,,50.02195660000052,51.2124088999999,52.00422419999995,51.9966701000003,51.9973056000008,52.00422419999995,52.00422419999995,53.00484320000032,b,1.0,0.9979130000001531,,,,,,,,,,,,,,,,,,,,,,,,,,,,,,,,,,,,,,,,sub-120,1,stroop_test,121.5809905690804,
test,yellow,g,1.0,4.0,1.0,1.0,g,1.0,1.7825430000002598,,,,,,,,,,,,,,,,,,1.0,1.0,4.0,1.0,,,,,,,,,53.01315430000068,,,,,,,,,,,,,,,,,53.005128000000695,54.19568440000057,54.9873331000008,54.98030870000002,54.98072090000005,54.9873331000008,54.9873331000008,56.77165580000019,g,1.0,1.7825430000002598,,,,,,,,,,,,,,,,,,,,,,,,,,,,,,,,,,,,,,,,sub-120,1,stroop_test,121.5809905690804,
test,red,r,1.0,5.0,2.0,1.0,r,1.0,0.5627611999998408,,,,,,,,,,,,,,,,,,1.0,2.0,5.0,0.0,,,,,,,,,56.77899230000003,,,,,,,,,,,,,,,,,56.771940700000414,57.570513100000426,58.36240100000032,58.354495999999926,58.3548821000004,58.36240100000032,58.36240100000032,58.929781200000434,r,1.0,0.5627611999998408,,,,,,,,,,,,,,,,,,,,,,,,,,,,,,,,,,,,,,,,sub-120,1,stroop_test,121.5809905690804,
test,red,r,1.0,6.0,0.0,2.0,r,1.0,0.5326559000004636,,,,,,,,,,,,,,,,,,2.0,0.0,6.0,0.0,,,,,,,,,58.93770280000081,,,,,,,,,,,,,,,,,58.93005429999994,59.02067520000037,59.81246060000012,59.80449900000076,59.80511380000007,59.81246060000012,59.81246060000012,60.3469098000005,r,1.0,0.5326559000004636,,,,,,,,,,,,,,,,,,,,,,,,,,,,,,,,,,,,,,,,sub-120,1,stroop_test,121.5809905690804,
test,blue,b,1.0,7.0,1.0,2.0,b,1.0,0.6635661999998774,,,,,,,,,,,,,,,,,,2.0,1.0,7.0,2.0,,,,,,,,,60.35397490000014,,,,,,,,,,,,,,,,,60.34719220000079,60.69563870000002,61.48743390000072,61.47940800000015,61.47981820000041,61.48743390000072,61.48743390000072,62.1552969000004,b,1.0,0.6635661999998774,,,,,,,,,,,,,,,,,,,,,,,,,,,,,,,,,,,,,,,,sub-120,1,stroop_test,121.5809905690804,
test,yellow,g,1.0,8.0,2.0,2.0,g,1.0,0.3353540999996767,,,,,,,,,,,,,,,,,,2.0,2.0,8.0,1.0,,,,,,,,,62.16241160000027,,,,,,,,,,,,,,,,,62.15572680000059,62.50397770000018,63.29573260000052,63.28781770000023,63.288239700000304,63.29573260000052,63.29573260000052,63.638661500000126,g,1.0,0.3353540999996767,,,,,,,,,,,,,,,,,,,,,,,,,,,,,,,,,,,,,,,,sub-120,1,stroop_test,121.5809905690804,
test,yellow,g,1.0,9.0,0.0,3.0,g,1.0,0.8716733999999633,,,,,,,,,,,,,,,,,,3.0,0.0,9.0,1.0,,,,,,,,,63.646013000000494,,,,,,,,,,,,,,,,,63.63894250000067,63.73739540000042,64.52904930000022,64.52125200000046,64.52164450000055,64.52904930000022,64.52904930000022,65.40500190000057,g,1.0,0.8716733999999633,,,,,,,,,,,,,,,,,,,,,,,,,,,,,,,,,,,,,,,,sub-120,1,stroop_test,121.5809905690804,
test,red,r,1.0,10.0,1.0,3.0,r,1.0,0.4606660999997984,,,,,,,,,,,,,,,,,,3.0,1.0,10.0,0.0,,,,,,,,,65.41240130000006,,,,,,,,,,,,,,,,,65.40528660000018,66.19566940000004,66.98775850000038,66.97968860000037,66.98007140000027,66.98775850000038,66.98775850000038,67.45482700000048,r,1.0,0.4606660999997984,,,,,,,,,,,,,,,,,,,,,,,,,,,,,,,,,,,,,,,,sub-120,1,stroop_test,121.5809905690804,
test,blue,b,1.0,11.0,2.0,3.0,b,1.0,0.6541939999997339,,,,,,,,,,,,,,,,,,3.0,2.0,11.0,2.0,,,,,,,,,67.4623199000007,,,,,,,,,,,,,,,,,67.4551105999999,68.6458462999999,69.43727810000019,69.42981970000073,69.43043620000026,69.43727810000019,69.43727810000019,70.0967571000001,b,1.0,0.6541939999997339,,,,,,,,,,,,,,,,,,,,,,,,,,,,,,,,,,,,,,,,sub-120,1,stroop_test,121.5809905690804,
,,,,,,,,,,,,,,,,,,,,,,,,,,,,,,,,,,,,,,,,,,,,,,,,,,,,,,,,,,,,,,,,,,,,70.09690540000065,70.10434900000018,70.10434900000018,80.4216103000008,space,10.311421999999766,,,,,,,,,,,,,,,,,,,,,,,,,,,,,,,,,sub-120,1,stroop_test,121.5809905690804,
,,,,0.0,0.0,0.0,,,,,gelb,yellow,g,1.0,g,1.0,0.8937034000000494,,,,,,,,,,,,,,0.0,0.0,0.0,10.0,,,,,80.43290100000013,,,,,,,,,,,,,,,,,80.42956360000062,80.76641480000035,81.55971930000032,81.55058540000027,,,,,,,,,,,,,,,,81.55549210000027,81.55971930000032,81.55971930000032,82.46085570000014,g,1.0,0.8937034000000494,,82.46607640000002,82.47027800000069,83.46206400000028,83.45430360000046,,,,,,,,,,,,,,,,,,,,sub-120,1,stroop_test,121.5809905690804,
,,,,1.0,1.0,0.0,,,,,rot,red,r,1.0,r,1.0,0.6508978000001662,,,,,,,,,,,,,,0.0,1.0,1.0,1.0,,,,,83.46206400000028,,,,,,,,,,,,,,,,,83.4546089000005,83.55390650000027,84.34519930000079,84.33778990000064,,,,,,,,,,,,,,,,84.34147150000081,84.34519930000079,84.34519930000079,85.00465280000026,r,1.0,0.6508978000001662,,85.00507130000005,85.01224410000032,86.00381080000079,85.99612310000066,,,,,,,,,,,,,,,,,,,,sub-120,1,stroop_test,121.5809905690804,
,,,,2.0,2.0,0.0,,,,,blau,red,r,0.0,r,1.0,1.9154879000006984,,,,,,,,,,,,,,0.0,2.0,2.0,4.0,,,,,86.00381080000079,,,,,,,,,,,,,,,,,85.9963970000008,87.19631490000029,87.98688260000017,87.97937660000025,,,,,,,,,,,,,,,,87.98325260000001,87.98688260000017,87.98688260000017,89.90489610000077,r,1.0,1.9154879000006984,,89.90587920000053,89.91196209999998,90.9037296000006,90.8958859000004,,,,,,,,,,,,,,,,,,,,sub-120,1,stroop_test,121.5809905690804,
,,,,3.0,3.0,0.0,,,,,rot,yellow,g,0.0,g,1.0,1.0984134999998787,,,,,,,,,,,,,,0.0,3.0,3.0,3.0,,,,,90.9037296000006,,,,,,,,,,,,,,,,,90.89614620000066,91.00383000000056,91.79493960000036,91.78765620000011,,,,,,,,,,,,,,,,91.79003640000064,91.79493960000036,91.79493960000036,92.8966205000006,g,1.0,1.0984134999998787,,92.89708510000035,92.90403080000031,93.89549560000069,93.88764410000022,,,,,,,,,,,,,,,,,,,,sub-120,1,stroop_test,121.5809905690804,
,,,,4.0,4.0,0.0,,,,,blau,blue,b,1.0,b,1.0,1.2514562999995178,,,,,,,,,,,,,,0.0,4.0,4.0,6.0,,,,,93.89549560000069,,,,,,,,,,,,,,,,,93.8879622000004,95.0956053,95.8870213,95.8794544000002,,,,,,,,,,,,,,,,95.88204769999992,95.8870213,95.8870213,97.14796650000062,b,1.0,1.2514562999995178,,97.1484059000004,97.15345760000037,98.14583810000022,98.13792749999992,,,,,,,,,,,,,,,,,,,,sub-120,1,stroop_test,121.5809905690804,
,,,,5.0,5.0,0.0,,,,,rot,red,r,1.0,r,1.0,1.666758200000004,,,,,,,,,,,,,,0.0,5.0,5.0,0.0,,,,,98.14583810000022,,,,,,,,,,,,,,,,,98.13819030000012,98.4954684000004,99.2869825000007,99.2794444000001,,,,,,,,,,,,,,,,99.2817031000004,99.2869825000007,99.2869825000007,100.95523800000046,r,1.0,1.666758200000004,,100.95565979999992,100.96217010000056,101.95399390000055,101.9461443,,,,,,,,,,,,,,,,,,,,sub-120,1,stroop_test,121.5809905690804,
,,,,6.0,6.0,0.0,,,,,gelb,blue,b,0.0,b,1.0,0.7917705999998361,,,,,,,,,,,,,,0.0,6.0,6.0,9.0,,,,,101.95399390000055,,,,,,,,,,,,,,,,,101.94642310000016,102.75391420000052,103.54497660000015,103.53791360000014,,,,,,,,,,,,,,,,103.54032220000045,103.54497660000015,103.54497660000015,104.33839540000008,b,1.0,0.7917705999998361,,104.33882840000024,104.345644,105.33729440000025,105.32913800000006,,,,,,,,,,,,,,,,,,,,sub-120,1,stroop_test,121.5809905690804,
,,,,7.0,7.0,0.0,,,,,gelb,yellow,g,1.0,g,1.0,0.5303326000002926,,,,,,,,,,,,,,0.0,7.0,7.0,11.0,,,,,105.33729440000025,,,,,,,,,,,,,,,,,105.32939609999994,105.42893470000035,106.22048240000004,106.21256230000016,,,,,,,,,,,,,,,,106.21294519999992,106.22048240000004,106.22048240000004,106.75481300000048,g,1.0,0.5303326000002926,,106.75522080000064,106.76227390000076,107.75398930000028,107.74608480000006,,,,,,,,,,,,,,,,,,,,sub-120,1,stroop_test,121.5809905690804,
,,,,8.0,8.0,0.0,,,,,blau,yellow,g,0.0,g,1.0,0.5845974999992904,,,,,,,,,,,,,,0.0,8.0,8.0,7.0,,,,,107.75398930000028,,,,,,,,,,,,,,,,,107.7463514000001,108.0955556000008,108.88661570000022,108.87982270000066,,,,,,,,,,,,,,,,108.88215750000018,108.88661570000022,108.88661570000022,109.47996289999992,g,1.0,0.5845974999992904,,109.48039140000036,109.4870546000002,110.47921120000046,110.4715326000005,,,,,,,,,,,,,,,,,,,,sub-120,1,stroop_test,121.5809905690804,
,,,,9.0,9.0,0.0,,,,,gelb,red,r,0.0,r,1.0,1.1087511999994604,,,,,,,,,,,,,,0.0,9.0,9.0,8.0,,,,,110.47921120000046,,,,,,,,,,,,,,,,,110.47197959999994,110.82884700000068,111.62035470000046,111.61289550000038,,,,,,,,,,,,,,,,111.6151086,111.62035470000046,111.62035470000046,112.7302752000005,r,1.0,1.1087511999994604,,112.73068289999992,112.73717820000002,113.72954070000014,113.72109920000004,,,,,,,,,,,,,,,,,,,,sub-120,1,stroop_test,121.5809905690804,
,,,,10.0,10.0,0.0,,,,,rot,blue,b,0.0,b,1.0,1.7571585999994568,,,,,,,,,,,,,,0.0,10.0,10.0,2.0,,,,,113.72954070000014,,,,,,,,,,,,,,,,,113.72136430000046,114.5288999000004,115.32010960000024,115.31249079999998,,,,,,,,,,,,,,,,115.31519160000062,115.32010960000024,115.32010960000024,117.08073790000071,b,1.0,1.7571585999994568,,117.0811489000007,117.08837519999996,118.08018590000027,118.07259590000012,,,,,,,,,,,,,,,,,,,,sub-120,1,stroop_test,121.5809905690804,
,,,,11.0,11.0,0.0,,,,,blau,blue,b,1.0,b,1.0,2.551055499999165,,,,,,,,,,,,,,0.0,11.0,11.0,5.0,,,,,118.08018590000027,,,,,,,,,,,,,,,,,118.07302960000015,119.27199950000067,120.06334050000078,120.05617070000062,,,,,,,,,,,,,,,,120.0584288,120.06334050000078,120.06334050000078,122.6227273000004,b,1.0,2.551055499999165,,122.62313910000012,122.63029840000036,123.62200080000002,123.61423700000068,,,,,,,,,,,,,,,,,,,,sub-120,1,stroop_test,121.5809905690804,
,,,,12.0,0.0,1.0,,,,,rot,yellow,g,0.0,g,1.0,2.9133931999995184,,,,,,,,,,,,,,1.0,0.0,12.0,3.0,,,,,123.62200080000002,,,,,,,,,,,,,,,,,123.6145163000001,123.71376090000012,124.5047852000007,124.4972416999999,,,,,,,,,,,,,,,,124.49958500000048,124.5047852000007,124.5047852000007,127.42316630000003,g,1.0,2.9133931999995184,,127.42378090000057,127.43008129999998,128.42186050000055,128.41433940000024,,,,,,,,,,,,,,,,,,,,sub-120,1,stroop_test,121.5809905690804,
,,,,13.0,1.0,1.0,,,,,blau,blue,b,1.0,b,1.0,3.5391720999996323,,,,,,,,,,,,,,1.0,1.0,13.0,5.0,,,,,128.42186050000055,,,,,,,,,,,,,,,,,128.4146077000005,128.51400640000065,129.30511350000052,129.29724740000074,,,,,,,,,,,,,,,,129.2994047000002,129.30511350000052,129.30511350000052,132.84771770000043,b,1.0,3.5391720999996323,,132.84813940000004,132.85505290000037,133.84687420000046,133.83905290000075,,,,,,,,,,,,,,,,,,,,sub-120,1,stroop_test,121.5809905690804,
,,,,14.0,2.0,1.0,,,,,blau,blue,b,1.0,b,1.0,1.2453374999995503,,,,,,,,,,,,,,1.0,2.0,14.0,6.0,,,,,133.84687420000046,,,,,,,,,,,,,,,,,133.83930910000072,135.0385782000003,135.83011720000013,135.82277720000002,,,,,,,,,,,,,,,,135.82318600000053,135.83011720000013,135.83011720000013,137.08116390000032,b,1.0,1.2453374999995503,,137.08164470000065,137.08837870000025,138.08012320000034,138.07218009999997,,,,,,,,,,,,,,,,,,,,sub-120,1,stroop_test,121.5809905690804,
,,,,15.0,3.0,1.0,,,,,gelb,yellow,g,1.0,g,1.0,5.417333999999755,,,,,,,,,,,,,,1.0,3.0,15.0,10.0,,,,,138.08012320000034,,,,,,,,,,,,,,,,,138.0724734000005,138.42201509999995,139.2133771000008,139.2060018000002,,,,,,,,,,,,,,,,139.20827510000072,139.2133771000008,139.2133771000008,144.63921990000017,g,1.0,5.417333999999755,,144.63963110000077,144.64689870000075,145.63864140000078,145.63086060000023,,,,,,,,,,,,,,,,,,,,sub-120,1,stroop_test,121.5809905690804,
,,,,16.0,4.0,1.0,,,,,gelb,yellow,g,1.0,g,1.0,1.410674000000654,,,,,,,,,,,,,,1.0,4.0,16.0,11.0,,,,,145.63864140000078,,,,,,,,,,,,,,,,,145.63120049999998,145.98023040000044,146.7721704000005,146.76414840000052,,,,,,,,,,,,,,,,146.7645325000003,146.7721704000005,146.7721704000005,148.18977040000027,g,1.0,1.410674000000654,,148.1905157000001,148.19642360000034,149.1886424000004,149.18097540000053,,,,,,,,,,,,,,,,,,,,sub-120,1,stroop_test,121.5809905690804,
,,,,17.0,5.0,1.0,,,,,rot,red,r,1.0,r,1.0,2.3782225000004478,,,,,,,,,,,,,,1.0,5.0,17.0,1.0,,,,,149.1886424000004,,,,,,,,,,,,,,,,,149.18135789999997,149.5385049000006,150.33011760000045,150.32254030000058,,,,,,,,,,,,,,,,150.3255248000005,150.33011760000045,150.33011760000045,152.71451060000072,r,1.0,2.3782225000004478,,152.7149339000007,152.72181940000064,153.71394050000072,153.70615799999996,,,,,,,,,,,,,,,,,,,,sub-120,1,stroop_test,121.5809905690804,
,,,,18.0,6.0,1.0,,,,,rot,blue,b,0.0,b,1.0,0.6202964000003703,,,,,,,,,,,,,,1.0,6.0,18.0,2.0,,,,,153.71394050000072,,,,,,,,,,,,,,,,,153.70658240000012,153.80536269999993,154.5968567,154.58916940000017,,,,,,,,,,,,,,,,154.58955779999997,154.5968567,154.5968567,155.2227788,b,1.0,0.6202964000003703,,155.22322690000055,155.23005379999995,156.2220893000003,156.21451490000072,,,,,,,,,,,,,,,,,,,,sub-120,1,stroop_test,121.5809905690804,
,,,,19.0,7.0,1.0,,,,,gelb,red,r,0.0,r,1.0,0.6116485000002285,,,,,,,,,,,,,,1.0,7.0,19.0,8.0,,,,,156.2220893000003,,,,,,,,,,,,,,,,,156.21478680000018,157.0136224000007,157.80640490000042,157.79894480000075,,,,,,,,,,,,,,,,157.8021134999999,157.80640490000042,157.80640490000042,158.4243432000003,r,1.0,0.6116485000002285,,158.42493110000032,158.43111930000032,159.42319920000045,159.4153206000001,,,,,,,,,,,,,,,,,,,,sub-120,1,stroop_test,121.5809905690804,
,,,,20.0,8.0,1.0,,,,,gelb,blue,b,0.0,b,1.0,0.6586545000000115,,,,,,,,,,,,,,1.0,8.0,20.0,9.0,,,,,159.42319920000045,,,,,,,,,,,,,,,,,159.41568740000002,160.21534610000072,161.0072826000005,160.9985682000006,,,,,,,,,,,,,,,,160.9992015000007,161.0072826000005,161.0072826000005,161.67419539999992,b,1.0,0.6586545000000115,,161.6747346000002,161.68127170000025,162.67305110000052,162.66672910000034,,,,,,,,,,,,,,,,,,,,sub-120,1,stroop_test,121.5809905690804,
,,,,21.0,9.0,1.0,,,,,blau,red,r,0.0,r,1.0,2.3427764999996725,,,,,,,,,,,,,,1.0,9.0,21.0,4.0,,,,,162.67305110000052,,,,,,,,,,,,,,,,,162.66720430000078,162.77303389999997,163.56463910000002,163.55717499999992,,,,,,,,,,,,,,,,163.5593402000004,163.56463910000002,163.56463910000002,165.9158752000003,r,1.0,2.3427764999996725,,165.91642560000037,165.92259110000032,166.9152451,166.90708690000065,,,,,,,,,,,,,,,,,,,,sub-120,1,stroop_test,121.5809905690804,
,,,,22.0,10.0,1.0,,,,,blau,yellow,g,0.0,g,1.0,0.7975117000005412,,,,,,,,,,,,,,1.0,10.0,22.0,7.0,,,,,166.9152451,,,,,,,,,,,,,,,,,166.90736360000028,167.26483710000048,168.05650090000017,168.0486714000008,,,,,,,,,,,,,,,,168.0490608,168.05650090000017,168.05650090000017,168.85723920000055,g,1.0,0.7975117000005412,,168.85765260000062,168.86491449999994,169.8568025000004,169.84892760000002,,,,,,,,,,,,,,,,,,,,sub-120,1,stroop_test,121.5809905690804,
,,,,23.0,11.0,1.0,,,,,rot,red,r,1.0,r,1.0,1.0689886999998637,,,,,,,,,,,,,,1.0,11.0,23.0,0.0,,,,,169.8568025000004,,,,,,,,,,,,,,,,,169.84936259999995,171.04825800000071,171.83950860000004,171.83215700000073,,,,,,,,,,,,,,,,171.83513650000077,171.83950860000004,171.83950860000004,172.91604310000002,r,1.0,1.0689886999998637,,172.91647470000044,172.92364420000013,173.91447610000068,173.90857050000068,,,,,,,,,,,,,,,,,,,,sub-120,1,stroop_test,121.5809905690804,
,,,,,,,,,,,,,,,,,,,,,,,,,,,,,,,,,,,,,,,,,,,,,,,,,,,,,,,,,,,,,,,,,,,,,,,,,,,,,,,,,,,,,,,173.90868279999995,173.91447610000068,173.91447610000068,179.02386939999997,space,5.106055199999901,,,,,,,,,,,,,,sub-120,1,stroop_test,121.5809905690804,
,,,,0.0,0.0,0.0,,,,,,,,,,,,,rot,red,r,1.0,r,1.0,0.8980929999997898,,,,,,,,,,0.0,0.0,0.0,0.0,179.04409060000037,,,,,,,,,,,,,,,,,179.03353040000002,179.81878630000028,180.6104609000004,180.6027882000008,,,,,,,,,,,,,,,,,,,,,,,,,,,,,,,,,,,180.6050948000002,180.6104609000004,180.6104609000004,181.51142030000028,r,1.0,0.8980929999997898,,,,,,sub-120,1,stroop_test,121.5809905690804,
,,,,1.0,1.0,0.0,,,,,,,,,,,,,gelb,yellow,g,1.0,g,1.0,1.1851056999994398,,,,,,,,,,0.0,1.0,1.0,10.0,181.51915590000044,,,,,,,,,,,,,,,,,181.51173990000007,181.6021744,182.3934661000003,182.38613450000048,,,,,,,,,,,,,,,,,,,,,,,,,,,,,,,,,,,182.3886637000005,182.3934661000003,182.3934661000003,183.58653520000007,g,1.0,1.1851056999994398,,,,,,sub-120,1,stroop_test,121.5809905690804,
,,,,2.0,2.0,0.0,,,,,,,,,,,,,blau,yellow,g,0.0,g,1.0,0.6817516000000978,,,,,,,,,,0.0,2.0,2.0,7.0,183.5940946000001,,,,,,,,,,,,,,,,,183.5869132000007,184.78581470000063,185.57698230000003,185.56953890000025,,,,,,,,,,,,,,,,,,,,,,,,,,,,,,,,,,,185.57252120000064,185.57698230000003,185.57698230000003,186.2614764,g,1.0,0.6817516000000978,,,,,,sub-120,1,stroop_test,121.5809905690804,
,,,,3.0,3.0,0.0,,,,,,,,,,,,,rot,blue,b,0.0,b,1.0,0.8169723999999405,,,,,,,,,,0.0,3.0,3.0,2.0,186.26890920000005,,,,,,,,,,,,,,,,,186.2617804000001,187.45291700000053,188.24376420000044,188.2371426,,,,,,,,,,,,,,,,,,,,,,,,,,,,,,,,,,,188.23947709999996,188.24376420000044,188.24376420000044,189.06233560000052,b,1.0,0.8169723999999405,,,,,,sub-120,1,stroop_test,121.5809905690804,
,,,,4.0,4.0,0.0,,,,,,,,,,,,,gelb,blue,b,0.0,b,1.0,1.2358207000006587,,,,,,,,,,0.0,4.0,4.0,9.0,189.0688012999999,,,,,,,,,,,,,,,,,189.06278220000056,189.41082800000004,190.20198940000049,190.1944656000005,,,,,,,,,,,,,,,,,,,,,,,,,,,,,,,,,,,190.19788080000035,190.20198940000049,190.20198940000049,191.44491930000004,b,1.0,1.2358207000006587,,,,,,sub-120,1,stroop_test,121.5809905690804,
,,,,5.0,5.0,0.0,,,,,,,,,,,,,gelb,red,r,0.0,r,1.0,0.967717200000152,,,,,,,,,,0.0,5.0,5.0,8.0,191.4523427000004,,,,,,,,,,,,,,,,,191.4453312000005,192.6438662999999,193.43588660000023,193.4280924000004,,,,,,,,,,,,,,,,,,,,,,,,,,,,,,,,,,,193.42848610000053,193.43588660000023,193.43588660000023,194.41187919999996,r,1.0,0.967717200000152,,,,,,sub-120,1,stroop_test,121.5809905690804,
,,,,6.0,6.0,0.0,,,,,,,,,,,,,rot,red,r,1.0,r,1.0,0.592538599999898,,,,,,,,,,0.0,6.0,6.0,1.0,194.41901020000023,,,,,,,,,,,,,,,,,194.41217899999992,195.21063660000075,196.0020175,195.99486370000068,,,,,,,,,,,,,,,,,,,,,,,,,,,,,,,,,,,195.9971261999999,196.0020175,196.0020175,196.5960621000004,r,1.0,0.592538599999898,,,,,,sub-120,1,stroop_test,121.5809905690804,
,,,,7.0,7.0,0.0,,,,,,,,,,,,,rot,yellow,g,0.0,g,1.0,1.6819648999999115,,,,,,,,,,0.0,7.0,7.0,3.0,196.6023046,,,,,,,,,,,,,,,,,196.59637770000063,196.69407300000057,197.4857303000008,197.4781507000007,,,,,,,,,,,,,,,,,,,,,,,,,,,,,,,,,,,197.4787820000001,197.4857303000008,197.4857303000008,199.16983299999995,g,1.0,1.6819648999999115,,,,,,sub-120,1,stroop_test,121.5809905690804,
,,,,8.0,8.0,0.0,,,,,,,,,,,,,gelb,yellow,g,1.0,g,1.0,1.750798300000497,,,,,,,,,,0.0,8.0,8.0,11.0,199.1771892000006,,,,,,,,,,,,,,,,,199.17013260000024,199.2609553000002,200.05202610000012,200.0450075000008,,,,,,,,,,,,,,,,,,,,,,,,,,,,,,,,,,,200.04723020000077,200.05202610000012,200.05202610000012,201.8047096,g,1.0,1.750798300000497,,,,,,sub-120,1,stroop_test,121.5809905690804,
,,,,9.0,9.0,0.0,,,,,,,,,,,,,blau,red,r,0.0,r,1.0,1.3603477000006023,,,,,,,,,,0.0,9.0,9.0,4.0,201.8104539000005,,,,,,,,,,,,,,,,,201.8050235000001,202.15225590000043,202.94356590000007,202.93684780000055,,,,,,,,,,,,,,,,,,,,,,,,,,,,,,,,,,,202.93904550000025,202.94356590000007,202.94356590000007,204.3117588000005,r,1.0,1.3603477000006023,,,,,,sub-120,1,stroop_test,121.5809905690804,
,,,,10.0,10.0,0.0,,,,,,,,,,,,,blau,blue,b,1.0,b,1.0,0.8011626999996224,,,,,,,,,,0.0,10.0,10.0,6.0,204.31903480000076,,,,,,,,,,,,,,,,,204.3120696000005,205.10249079999997,205.89421630000012,205.8864327000001,,,,,,,,,,,,,,,,,,,,,,,,,,,,,,,,,,,205.8868106,205.89421630000012,205.89421630000012,206.7036218000003,b,1.0,0.8011626999996224,,,,,,sub-120,1,stroop_test,121.5809905690804,
,,,,11.0,11.0,0.0,,,,,,,,,,,,,blau,blue,b,1.0,b,1.0,0.800771000000168,,,,,,,,,,0.0,11.0,11.0,5.0,206.71087530000025,,,,,,,,,,,,,,,,,206.7039254000001,207.0526199000005,207.84404429999995,207.8367178000008,,,,,,,,,,,,,,,,,,,,,,,,,,,,,,,,,,,207.83712150000065,207.84404429999995,207.84404429999995,208.65319309999995,b,1.0,0.800771000000168,,,,,,sub-120,1,stroop_test,121.5809905690804,
,,,,12.0,0.0,1.0,,,,,,,,,,,,,rot,blue,b,0.0,b,1.0,2.0231631999995443,,,,,,,,,,1.0,0.0,12.0,2.0,208.66082129999995,,,,,,,,,,,,,,,,,208.65348470000023,209.8440625000003,210.6355318000005,210.6281414000005,,,,,,,,,,,,,,,,,,,,,,,,,,,,,,,,,,,210.6310396000008,210.6355318000005,210.6355318000005,212.6619623000006,b,1.0,2.0231631999995443,,,,,,sub-120,1,stroop_test,121.5809905690804,
,,,,13.0,1.0,1.0,,,,,,,,,,,,,rot,red,r,1.0,r,1.0,0.6048283999998603,,,,,,,,,,1.0,1.0,13.0,1.0,212.66897659999995,,,,,,,,,,,,,,,,,212.66235330000015,212.7607265000006,213.55259110000043,213.54472170000008,,,,,,,,,,,,,,,,,,,,,,,,,,,,,,,,,,,213.54511690000072,213.55259110000043,213.55259110000043,214.1618330000001,r,1.0,0.6048283999998603,,,,,,sub-120,1,stroop_test,121.5809905690804,
,,,,14.0,2.0,1.0,,,,,,,,,,,,,rot,red,r,1.0,r,1.0,0.4441026999993482,,,,,,,,,,1.0,2.0,14.0,0.0,214.1691335000005,,,,,,,,,,,,,,,,,214.1621236000001,214.51081890000023,215.30254289999996,215.29473030000008,,,,,,,,,,,,,,,,,,,,,,,,,,,,,,,,,,,215.2952533000007,215.30254289999996,215.30254289999996,215.7532860000001,r,1.0,0.4441026999993482,,,,,,sub-120,1,stroop_test,121.5809905690804,
,,,,15.0,3.0,1.0,,,,,,,,,,,,,blau,blue,b,1.0,b,1.0,0.6227651999997761,,,,,,,,,,1.0,3.0,15.0,5.0,215.76078570000027,,,,,,,,,,,,,,,,,215.75358320000032,215.84416480000075,216.6355576000005,216.62796870000057,,,,,,,,,,,,,,,,,,,,,,,,,,,,,,,,,,,216.63008640000044,216.6355576000005,216.6355576000005,217.26172570000017,b,1.0,0.6227651999997761,,,,,,sub-120,1,stroop_test,121.5809905690804,
,,,,16.0,4.0,1.0,,,,,,,,,,,,,blau,red,r,0.0,r,1.0,1.0076287000001685,,,,,,,,,,1.0,4.0,16.0,4.0,217.26905760000045,,,,,,,,,,,,,,,,,217.2620542000004,217.36073860000036,218.15291950000028,218.14467090000016,,,,,,,,,,,,,,,,,,,,,,,,,,,,,,,,,,,218.14506840000013,218.15291950000028,218.15291950000028,219.16185270000005,r,1.0,1.0076287000001685,,,,,,sub-120,1,stroop_test,121.5809905690804,
,,,,17.0,5.0,1.0,,,,,,,,,,,,,gelb,yellow,g,1.0,g,1.0,0.7061268999996173,,,,,,,,,,1.0,5.0,17.0,11.0,219.1690860000008,,,,,,,,,,,,,,,,,219.16214050000053,220.3526017000004,221.14387050000005,221.1362775000007,,,,,,,,,,,,,,,,,,,,,,,,,,,,,,,,,,,221.1385052000005,221.14387050000005,221.14387050000005,221.8532520000008,g,1.0,0.7061268999996173,,,,,,sub-120,1,stroop_test,121.5809905690804,
,,,,18.0,6.0,1.0,,,,,,,,,,,,,gelb,blue,b,0.0,b,1.0,0.5628770000002987,,,,,,,,,,1.0,6.0,18.0,9.0,221.86089580000043,,,,,,,,,,,,,,,,,221.85354670000012,222.64406570000028,223.43578830000024,223.42792510000072,,,,,,,,,,,,,,,,,,,,,,,,,,,,,,,,,,,223.4283624,223.43578830000024,223.43578830000024,224.00357890000032,b,1.0,0.5628770000002987,,,,,,sub-120,1,stroop_test,121.5809905690804,
,,,,19.0,7.0,1.0,,,,,,,,,,,,,rot,yellow,g,0.0,g,1.0,0.7579461000004812,,,,,,,,,,1.0,7.0,19.0,3.0,224.0109691000007,,,,,,,,,,,,,,,,,224.0039179000005,225.1941658000005,225.98572570000036,225.97848040000008,,,,,,,,,,,,,,,,,,,,,,,,,,,,,,,,,,,225.98085850000007,225.98572570000036,225.98572570000036,226.74554540000008,g,1.0,0.7579461000004812,,,,,,sub-120,1,stroop_test,121.5809905690804,
,,,,20.0,8.0,1.0,,,,,,,,,,,,,blau,yellow,g,0.0,g,1.0,0.9431577000004836,,,,,,,,,,1.0,8.0,20.0,7.0,226.75240699999995,,,,,,,,,,,,,,,,,226.7459776000005,227.9439950000005,228.73559100000057,228.7279462000006,,,,,,,,,,,,,,,,,,,,,,,,,,,,,,,,,,,228.73016520000056,228.73559100000057,228.73559100000057,229.6864661,g,1.0,0.9431577000004836,,,,,,sub-120,1,stroop_test,121.5809905690804,
,,,,21.0,9.0,1.0,,,,,,,,,,,,,blau,blue,b,1.0,b,1.0,0.5923894999996264,,,,,,,,,,1.0,9.0,21.0,6.0,229.6940498000004,,,,,,,,,,,,,,,,,229.6867708,230.8775796,231.6691169000005,231.66130190000055,,,,,,,,,,,,,,,,,,,,,,,,,,,,,,,,,,,231.66174450000017,231.6691169000005,231.6691169000005,232.26998210000056,b,1.0,0.5923894999996264,,,,,,sub-120,1,stroop_test,121.5809905690804,
,,,,22.0,10.0,1.0,,,,,,,,,,,,,gelb,red,r,0.0,r,1.0,0.5411493000001428,,,,,,,,,,1.0,10.0,22.0,8.0,232.27758810000068,,,,,,,,,,,,,,,,,232.2702922000008,233.46096360000047,234.2522071000003,234.24482590000025,,,,,,,,,,,,,,,,,,,,,,,,,,,,,,,,,,,234.2482403000004,234.2522071000003,234.2522071000003,234.79539640000075,r,1.0,0.5411493000001428,,,,,,sub-120,1,stroop_test,121.5809905690804,
,,,,23.0,11.0,1.0,,,,,,,,,,,,,gelb,yellow,g,1.0,g,1.0,0.7532641999996486,,,,,,,,,,1.0,11.0,23.0,10.0,234.8028323000008,,,,,,,,,,,,,,,,,234.7956968000008,235.99416640000072,236.78574460000075,236.7788816000002,,,,,,,,,,,,,,,,,,,,,,,,,,,,,,,,,,,236.77940930000025,236.78574460000075,236.78574460000075,237.54557019999996,g,1.0,0.7532641999996486,,,,,,sub-120,1,stroop_test,121.5809905690804,
,,,,24.0,0.0,2.0,,,,,,,,,,,,,rot,blue,b,0.0,b,1.0,1.2223555999999007,,,,,,,,,,2.0,0.0,24.0,2.0,237.55242910000013,,,,,,,,,,,,,,,,,237.5458912000004,238.7362954,239.52690860000075,239.5196965000005,,,,,,,,,,,,,,,,,,,,,,,,,,,,,,,,,,,239.5221023000004,239.52690860000075,239.52690860000075,240.75330420000049,b,1.0,1.2223555999999007,,,,,,sub-120,1,stroop_test,121.5809905690804,
,,,,25.0,1.0,2.0,,,,,,,,,,,,,rot,yellow,g,0.0,g,1.0,0.7565863999998328,,,,,,,,,,2.0,1.0,25.0,3.0,240.76074430000065,,,,,,,,,,,,,,,,,240.75373190000028,241.0947182,241.88569570000072,241.87788700000056,,,,,,,,,,,,,,,,,,,,,,,,,,,,,,,,,,,241.8784314000004,241.88569570000072,241.88569570000072,242.64489310000044,g,1.0,0.7565863999998328,,,,,,sub-120,1,stroop_test,121.5809905690804,
,,,,26.0,2.0,2.0,,,,,,,,,,,,,rot,red,r,1.0,r,1.0,0.5198152000002665,,,,,,,,,,2.0,2.0,26.0,0.0,242.6533377000005,,,,,,,,,,,,,,,,,242.64519569999996,242.98576230000072,243.77747739999995,243.7698629000006,,,,,,,,,,,,,,,,,,,,,,,,,,,,,,,,,,,243.77050390000025,243.77747739999995,243.77747739999995,244.30361840000023,r,1.0,0.5198152000002665,,,,,,sub-120,1,stroop_test,121.5809905690804,
,,,,27.0,3.0,2.0,,,,,,,,,,,,,blau,red,r,0.0,b,0.0,3.44165029999931,,,,,,,,,,2.0,3.0,27.0,4.0,244.31091990000004,,,,,,,,,,,,,,,,,244.3039163000003,245.10247810000052,245.89386280000053,245.8865747,,,,,,,,,,,,,,,,,,,,,,,,,,,,,,,,,,,245.88914900000051,245.89386280000053,245.89386280000053,249.3370464,b,0.0,3.44165029999931,,,,,,sub-120,1,stroop_test,121.5809905690804,
,,,,28.0,4.0,2.0,,,,,,,,,,,,,blau,blue,b,1.0,b,1.0,0.6488632000000507,,,,,,,,,,2.0,4.0,28.0,6.0,249.3441468000001,,,,,,,,,,,,,,,,,249.33738820000053,250.13599700000032,250.9277435000004,250.9202464,,,,,,,,,,,,,,,,,,,,,,,,,,,,,,,,,,,250.9206219000007,250.9277435000004,250.9277435000004,251.57887000000028,b,1.0,0.6488632000000507,,,,,,sub-120,1,stroop_test,121.5809905690804,
,,,,29.0,5.0,2.0,,,,,,,,,,,,,rot,red,r,1.0,r,1.0,0.6451145999999426,,,,,,,,,,2.0,5.0,29.0,1.0,251.5857425000004,,,,,,,,,,,,,,,,,251.5791966000006,251.9282903000003,252.71879330000047,252.7117791000001,,,,,,,,,,,,,,,,,,,,,,,,,,,,,,,,,,,252.71418940000055,252.71879330000047,252.71879330000047,253.36988070000007,r,1.0,0.6451145999999426,,,,,,sub-120,1,stroop_test,121.5809905690804,
,,,,30.0,6.0,2.0,,,,,,,,,,,,,blau,yellow,g,0.0,g,1.0,0.8194528999993054,,,,,,,,,,2.0,6.0,30.0,7.0,253.3774959000002,,,,,,,,,,,,,,,,,253.370175,253.7108619999999,254.50267280000023,254.4960179,,,,,,,,,,,,,,,,,,,,,,,,,,,,,,,,,,,254.49871840000012,254.50267280000023,254.50267280000023,255.3289116000005,g,1.0,0.8194528999993054,,,,,,sub-120,1,stroop_test,121.5809905690804,
,,,,31.0,7.0,2.0,,,,,,,,,,,,,gelb,red,r,0.0,r,1.0,0.9449152000006508,,,,,,,,,,2.0,7.0,31.0,8.0,255.33605680000076,,,,,,,,,,,,,,,,,255.32921350000012,256.12794420000046,256.91912610000054,256.91168780000044,,,,,,,,,,,,,,,,,,,,,,,,,,,,,,,,,,,256.91494240000065,256.91912610000054,256.91912610000054,257.8707850999999,r,1.0,0.9449152000006508,,,,,,sub-120,1,stroop_test,121.5809905690804,
,,,,32.0,8.0,2.0,,,,,,,,,,,,,blau,blue,b,1.0,b,1.0,1.1610234999998283,,,,,,,,,,2.0,8.0,32.0,5.0,257.8782060000003,,,,,,,,,,,,,,,,,257.8710854000001,257.9695853000003,258.7610377000001,258.7531962000003,,,,,,,,,,,,,,,,,,,,,,,,,,,,,,,,,,,258.75529390000065,258.7610377000001,258.7610377000001,259.9289725000008,b,1.0,1.1610234999998283,,,,,,sub-120,1,stroop_test,121.5809905690804,
,,,,33.0,9.0,2.0,,,,,,,,,,,,,gelb,yellow,g,1.0,g,1.0,1.0726180000001475,,,,,,,,,,2.0,9.0,33.0,10.0,259.9362346000007,,,,,,,,,,,,,,,,,259.92930870000055,260.7278685000001,261.51935390000017,261.51200320000044,,,,,,,,,,,,,,,,,,,,,,,,,,,,,,,,,,,261.51449780000075,261.51935390000017,261.51935390000017,262.5954462,g,1.0,1.0726180000001475,,,,,,sub-120,1,stroop_test,121.5809905690804,
,,,,34.0,10.0,2.0,,,,,,,,,,,,,gelb,blue,b,0.0,b,1.0,0.8585659000000305,,,,,,,,,,2.0,10.0,34.0,9.0,262.6034361000002,,,,,,,,,,,,,,,,,262.5957552,263.7863503000008,264.57799890000024,264.5703556000008,,,,,,,,,,,,,,,,,,,,,,,,,,,,,,,,,,,264.5708199999999,264.57799890000024,264.57799890000024,265.4380716000005,b,1.0,0.8585659000000305,,,,,,sub-120,1,stroop_test,121.5809905690804,
,,,,35.0,11.0,2.0,,,,,,,,,,,,,gelb,yellow,g,1.0,g,1.0,1.483558599999924,,,,,,,,,,2.0,11.0,35.0,11.0,265.4446508000001,,,,,,,,,,,,,,,,,265.43836530000044,266.2362529000002,267.0278457000004,267.0213551000006,,,,,,,,,,,,,,,,,,,,,,,,,,,,,,,,,,,267.0221022000005,267.0278457000004,267.0278457000004,268.5127201000005,g,1.0,1.483558599999924,,,,,,sub-120,1,stroop_test,121.5809905690804,
,,,,36.0,0.0,3.0,,,,,,,,,,,,,gelb,yellow,g,1.0,g,1.0,3.2911114999997158,,,,,,,,,,3.0,0.0,36.0,11.0,268.5196183000008,,,,,,,,,,,,,,,,,268.51301820000026,269.31147670000064,270.10280150000017,270.0950585999999,,,,,,,,,,,,,,,,,,,,,,,,,,,,,,,,,,,270.0955040000008,270.10280150000017,270.10280150000017,273.39568940000026,g,1.0,3.2911114999997158,,,,,,sub-120,1,stroop_test,121.5809905690804,
,,,,37.0,1.0,3.0,,,,,,,,,,,,,rot,yellow,g,0.0,g,1.0,1.1699578999996447,,,,,,,,,,3.0,1.0,37.0,3.0,273.4028879000007,,,,,,,,,,,,,,,,,273.3959776000001,273.7447039000008,274.5356986000006,274.5286494000002,,,,,,,,,,,,,,,,,,,,,,,,,,,,,,,,,,,274.5310993000003,274.5356986000006,274.5356986000006,275.7125730000007,g,1.0,1.1699578999996447,,,,,,sub-120,1,stroop_test,121.5809905690804,
,,,,38.0,2.0,3.0,,,,,,,,,,,,,gelb,blue,b,0.0,b,1.0,2.9436506000001827,,,,,,,,,,3.0,2.0,38.0,9.0,275.71974990000035,,,,,,,,,,,,,,,,,275.71290150000004,276.06127220000053,276.85256110000046,276.8454442000002,,,,,,,,,,,,,,,,,,,,,,,,,,,,,,,,,,,276.84853360000034,276.85256110000046,276.85256110000046,279.80356550000033,b,1.0,2.9436506000001827,,,,,,sub-120,1,stroop_test,121.5809905690804,
,,,,39.0,3.0,3.0,,,,,,,,,,,,,gelb,red,r,0.0,r,1.0,0.560444999999163,,,,,,,,,,3.0,3.0,39.0,8.0,279.8114306000007,,,,,,,,,,,,,,,,,279.8040520000004,280.1448069000008,280.9363671000001,280.92876570000044,,,,,,,,,,,,,,,,,,,,,,,,,,,,,,,,,,,280.9292992999999,280.9363671000001,280.9363671000001,281.5041725000001,r,1.0,0.560444999999163,,,,,,sub-120,1,stroop_test,121.5809905690804,
,,,,40.0,4.0,3.0,,,,,,,,,,,,,blau,blue,b,1.0,b,1.0,0.926153599999452,,,,,,,,,,3.0,4.0,40.0,6.0,281.5113667000005,,,,,,,,,,,,,,,,,281.50456440000016,281.84517890000006,282.6358358000007,282.6289136000005,,,,,,,,,,,,,,,,,,,,,,,,,,,,,,,,,,,282.6312429,282.6358358000007,282.6358358000007,283.57048290000057,b,1.0,0.926153599999452,,,,,,sub-120,1,stroop_test,121.5809905690804,
,,,,41.0,5.0,3.0,,,,,,,,,,,,,rot,red,r,1.0,r,1.0,0.627619699999741,,,,,,,,,,3.0,5.0,41.0,1.0,283.5779218000007,,,,,,,,,,,,,,,,,283.5708955,284.76122510000005,285.5526179000008,285.5449376000006,,,,,,,,,,,,,,,,,,,,,,,,,,,,,,,,,,,285.5483767000005,285.5526179000008,285.5526179000008,286.1876784000005,r,1.0,0.627619699999741,,,,,,sub-120,1,stroop_test,121.5809905690804,
,,,,42.0,6.0,3.0,,,,,,,,,,,,,blau,yellow,g,0.0,b,0.0,2.9706990000004225,,,,,,,,,,3.0,6.0,42.0,7.0,286.1949646000003,,,,,,,,,,,,,,,,,286.1881749000004,286.53637960000015,287.32775889999994,287.3208588000007,,,,,,,,,,,,,,,,,,,,,,,,,,,,,,,,,,,287.3233912000005,287.32775889999994,287.32775889999994,290.3047650000008,b,0.0,2.9706990000004225,,,,,,sub-120,1,stroop_test,121.5809905690804,
,,,,43.0,7.0,3.0,,,,,,,,,,,,,blau,red,r,0.0,r,1.0,1.2741306999996596,,,,,,,,,,3.0,7.0,43.0,4.0,290.3111185000007,,,,,,,,,,,,,,,,,290.30524590000005,291.1036369000003,291.8946756000005,291.88705690000006,,,,,,,,,,,,,,,,,,,,,,,,,,,,,,,,,,,291.8874781000004,291.8946756000005,291.8946756000005,293.17074050000065,r,1.0,1.2741306999996596,,,,,,sub-120,1,stroop_test,121.5809905690804,
,,,,44.0,8.0,3.0,,,,,,,,,,,,,rot,red,r,1.0,r,1.0,1.1978558999999225,,,,,,,,,,3.0,8.0,44.0,0.0,293.1785124000007,,,,,,,,,,,,,,,,,293.17104520000066,293.26989870000034,294.0609658000003,294.0537112000002,,,,,,,,,,,,,,,,,,,,,,,,,,,,,,,,,,,294.05605280000054,294.0609658000003,294.0609658000003,295.2620878000007,r,1.0,1.1978558999999225,,,,,,sub-120,1,stroop_test,121.5809905690804,
,,,,45.0,9.0,3.0,,,,,,,,,,,,,gelb,yellow,g,1.0,g,1.0,0.6216886999991402,,,,,,,,,,3.0,9.0,45.0,10.0,295.2698231000004,,,,,,,,,,,,,,,,,295.26238210000065,295.60319040000013,296.3946270000006,296.3877190000003,,,,,,,,,,,,,,,,,,,,,,,,,,,,,,,,,,,296.3907908000001,296.3946270000006,296.3946270000006,297.0208861000001,g,1.0,0.6216886999991402,,,,,,sub-120,1,stroop_test,121.5809905690804,
,,,,46.0,10.0,3.0,,,,,,,,,,,,,blau,blue,b,1.0,b,1.0,0.8289844999999332,,,,,,,,,,3.0,10.0,46.0,5.0,297.0281650000006,,,,,,,,,,,,,,,,,297.02119700000003,298.2201864000008,299.0112818000007,299.00371930000074,,,,,,,,,,,,,,,,,,,,,,,,,,,,,,,,,,,299.0058803000002,299.0112818000007,299.0112818000007,299.8458748000003,b,1.0,0.8289844999999332,,,,,,sub-120,1,stroop_test,121.5809905690804,
,,,,47.0,11.0,3.0,,,,,,,,,,,,,rot,blue,b,0.0,b,1.0,0.829291000000012,,,,,,,,,,3.0,11.0,47.0,2.0,299.85334280000006,,,,,,,,,,,,,,,,,299.84636150000006,300.1948719000002,300.9862256000006,300.9788954000005,,,,,,,,,,,,,,,,,,,,,,,,,,,,,,,,,,,300.98112820000006,300.9862256000006,300.9862256000006,301.82119650000004,b,1.0,0.829291000000012,,,,,,sub-120,1,stroop_test,121.5809905690804,
,,,,48.0,0.0,4.0,,,,,,,,,,,,,rot,red,r,1.0,r,1.0,0.5770491000002949,,,,,,,,,,4.0,0.0,48.0,1.0,301.8283162000007,,,,,,,,,,,,,,,,,301.82158680000066,302.62005860000045,303.4115025000001,303.40396540000074,,,,,,,,,,,,,,,,,,,,,,,,,,,,,,,,,,,303.40436020000016,303.4115025000001,303.4115025000001,303.9958494000002,r,1.0,0.5770491000002949,,,,,,sub-120,1,stroop_test,121.5809905690804,
,,,,49.0,1.0,4.0,,,,,,,,,,,,,blau,yellow,g,0.0,g,1.0,0.7937199999996665,,,,,,,,,,4.0,1.0,49.0,7.0,304.003283,,,,,,,,,,,,,,,,,303.99615859999994,304.0869709000008,304.8783849000001,304.8710721000007,,,,,,,,,,,,,,,,,,,,,,,,,,,,,,,,,,,304.87359670000023,304.8783849000001,304.8783849000001,305.6794934,g,1.0,0.7937199999996665,,,,,,sub-120,1,stroop_test,121.5809905690804,
,,,,50.0,2.0,4.0,,,,,,,,,,,,,rot,red,r,1.0,r,1.0,0.6145100000003367,,,,,,,,,,4.0,2.0,50.0,0.0,305.6869320000005,,,,,,,,,,,,,,,,,305.6797910000005,306.8711353000008,307.6695900000004,307.66218860000026,,,,,,,,,,,,,,,,,,,,,,,,,,,,,,,,,,,307.6646331000002,307.6695900000004,307.6695900000004,308.2876573000003,r,1.0,0.6145100000003367,,,,,,sub-120,1,stroop_test,121.5809905690804,
,,,,51.0,3.0,4.0,,,,,,,,,,,,,gelb,red,r,0.0,r,1.0,0.5520293999998103,,,,,,,,,,4.0,3.0,51.0,8.0,308.2950981000004,,,,,,,,,,,,,,,,,308.2881047000001,308.6285497000008,309.4214443999999,309.4126008000003,,,,,,,,,,,,,,,,,,,,,,,,,,,,,,,,,,,309.41673040000023,309.4214443999999,309.4214443999999,309.9823572000005,r,1.0,0.5520293999998103,,,,,,sub-120,1,stroop_test,121.5809905690804,
,,,,52.0,4.0,4.0,,,,,,,,,,,,,gelb,blue,b,0.0,b,1.0,0.5670311000003494,,,,,,,,,,4.0,4.0,52.0,9.0,309.9876890000005,,,,,,,,,,,,,,,,,309.98289730000033,310.0797454000003,310.8714938000003,310.86361840000063,,,,,,,,,,,,,,,,,,,,,,,,,,,,,,,,,,,310.8640133000008,310.8714938000003,310.8714938000003,311.44701110000005,b,1.0,0.5670311000003494,,,,,,sub-120,1,stroop_test,121.5809905690804,
,,,,53.0,5.0,4.0,,,,,,,,,,,,,rot,yellow,g,0.0,g,1.0,0.6305355000004056,,,,,,,,,,4.0,5.0,53.0,3.0,311.4548035000007,,,,,,,,,,,,,,,,,311.4473114000002,311.5383388,312.3294582000008,312.3218160000006,,,,,,,,,,,,,,,,,,,,,,,,,,,,,,,,,,,312.32411910000064,312.3294582000008,312.3294582000008,312.9637898000001,g,1.0,0.6305355000004056,,,,,,sub-120,1,stroop_test,121.5809905690804,
,,,,54.0,6.0,4.0,,,,,,,,,,,,,blau,blue,b,1.0,b,1.0,0.9390941000001476,,,,,,,,,,4.0,6.0,54.0,6.0,312.97137010000006,,,,,,,,,,,,,,,,,312.96410090000063,314.15467010000066,314.9460385000002,314.9395955,,,,,,,,,,,,,,,,,,,,,,,,,,,,,,,,,,,314.9421476000007,314.9460385000002,314.9460385000002,315.8888053999999,b,1.0,0.9390941000001476,,,,,,sub-120,1,stroop_test,121.5809905690804,
,,,,55.0,7.0,4.0,,,,,,,,,,,,,blau,red,r,0.0,r,1.0,1.002101899999616,,,,,,,,,,4.0,7.0,55.0,4.0,315.89673050000056,,,,,,,,,,,,,,,,,315.8891046000008,316.6796353,317.4712999000003,317.4634698,,,,,,,,,,,,,,,,,,,,,,,,,,,,,,,,,,,317.46402620000026,317.4712999000003,317.4712999000003,318.4808243000007,r,1.0,1.002101899999616,,,,,,sub-120,1,stroop_test,121.5809905690804,
,,,,56.0,8.0,4.0,,,,,,,,,,,,,blau,blue,b,1.0,b,1.0,1.9043535999999224,,,,,,,,,,4.0,8.0,56.0,5.0,318.48806719999993,,,,,,,,,,,,,,,,,318.4811245000001,318.57967460000054,319.3714264,319.36341170000014,,,,,,,,,,,,,,,,,,,,,,,,,,,,,,,,,,,319.36379790000046,319.3714264,319.3714264,321.28082170000016,b,1.0,1.9043535999999224,,,,,,sub-120,1,stroop_test,121.5809905690804,
,,,,57.0,9.0,4.0,,,,,,,,,,,,,rot,blue,b,0.0,b,1.0,0.5853680000000168,,,,,,,,,,4.0,9.0,57.0,2.0,321.2886434000002,,,,,,,,,,,,,,,,,321.28111590000026,321.3713082000004,322.16257960000075,322.15570520000074,,,,,,,,,,,,,,,,,,,,,,,,,,,,,,,,,,,322.1580790000007,322.16257960000075,322.16257960000075,322.7557927000007,b,1.0,0.5853680000000168,,,,,,sub-120,1,stroop_test,121.5809905690804,
,,,,58.0,10.0,4.0,,,,,,,,,,,,,gelb,yellow,g,1.0,g,1.0,0.3613719999993918,,,,,,,,,,4.0,10.0,58.0,11.0,322.76309290000063,,,,,,,,,,,,,,,,,322.7561274,323.55494270000054,324.3460175,324.3383343000005,,,,,,,,,,,,,,,,,,,,,,,,,,,,,,,,,,,324.3410416000006,324.3460175,324.3460175,324.71379780000007,g,1.0,0.3613719999993918,,,,,,sub-120,1,stroop_test,121.5809905690804,
,,,,59.0,11.0,4.0,,,,,,,,,,,,,gelb,yellow,g,1.0,g,1.0,0.8056401000003461,,,,,,,,,,4.0,11.0,59.0,10.0,324.72149420000005,,,,,,,,,,,,,,,,,324.71427420000055,325.06298160000006,325.8546538999999,325.8468681000004,,,,,,,,,,,,,,,,,,,,,,,,,,,,,,,,,,,325.84725700000035,325.8546538999999,325.8546538999999,326.66411659999994,g,1.0,0.8056401000003461,,,,,,sub-120,1,stroop_test,121.5809905690804,
,,,,60.0,0.0,5.0,,,,,,,,,,,,,blau,yellow,g,0.0,g,1.0,1.0059614000001602,,,,,,,,,,5.0,0.0,60.0,7.0,326.6713178,,,,,,,,,,,,,,,,,326.6644139,327.8630402000008,328.6545864,328.6468622000002,,,,,,,,,,,,,,,,,,,,,,,,,,,,,,,,,,,328.65069250000033,328.6545864,328.6545864,329.6641030999999,g,1.0,1.0059614000001602,,,,,,sub-120,1,stroop_test,121.5809905690804,
,,,,61.0,1.0,5.0,,,,,,,,,,,,,blau,blue,b,1.0,b,1.0,0.6622405999996772,,,,,,,,,,5.0,1.0,61.0,6.0,329.6715419000002,,,,,,,,,,,,,,,,,329.6646040000005,330.0131052000006,330.80479580000065,330.79707320000034,,,,,,,,,,,,,,,,,,,,,,,,,,,,,,,,,,,330.7975374000007,330.80479580000065,330.80479580000065,331.47283530000004,b,1.0,0.6622405999996772,,,,,,sub-120,1,stroop_test,121.5809905690804,
,,,,62.0,2.0,5.0,,,,,,,,,,,,,gelb,yellow,g,1.0,g,1.0,0.518731499999376,,,,,,,,,,5.0,2.0,62.0,10.0,331.4799417000004,,,,,,,,,,,,,,,,,331.47313900000063,331.8214269,332.6130133000006,332.60523190000004,,,,,,,,,,,,,,,,,,,,,,,,,,,,,,,,,,,332.6074877000001,332.6130133000006,332.6130133000006,333.13894750000054,g,1.0,0.518731499999376,,,,,,sub-120,1,stroop_test,121.5809905690804,
,,,,63.0,3.0,5.0,,,,,,,,,,,,,gelb,yellow,g,1.0,g,1.0,0.6236613999999463,,,,,,,,,,5.0,3.0,63.0,11.0,333.1465068000007,,,,,,,,,,,,,,,,,333.1392424000005,333.4798929000008,334.2715164000001,334.26400100000046,,,,,,,,,,,,,,,,,,,,,,,,,,,,,,,,,,,334.2644193000005,334.2715164000001,334.2715164000001,334.89717590000055,g,1.0,0.6236613999999463,,,,,,sub-120,1,stroop_test,121.5809905690804,
,,,,64.0,4.0,5.0,,,,,,,,,,,,,blau,blue,b,1.0,b,1.0,0.6394624999993539,,,,,,,,,,5.0,4.0,64.0,5.0,334.9047473999999,,,,,,,,,,,,,,,,,334.8974713000007,335.2382286000002,336.0295421999999,336.02212710000003,,,,,,,,,,,,,,,,,,,,,,,,,,,,,,,,,,,336.02547159999995,336.0295421999999,336.0295421999999,336.6721065000001,b,1.0,0.6394624999993539,,,,,,sub-120,1,stroop_test,121.5809905690804,
,,,,65.0,5.0,5.0,,,,,,,,,,,,,rot,yellow,g,0.0,g,1.0,1.2490324000000328,,,,,,,,,,5.0,5.0,65.0,3.0,336.68000370000027,,,,,,,,,,,,,,,,,336.6724028000008,337.46318410000003,338.2546308000001,338.24694420000014,,,,,,,,,,,,,,,,,,,,,,,,,,,,,,,,,,,338.2503756000005,338.2546308000001,338.2546308000001,339.5060631000006,g,1.0,1.2490324000000328,,,,,,sub-120,1,stroop_test,121.5809905690804,
,,,,66.0,6.0,5.0,,,,,,,,,,,,,gelb,red,r,0.0,r,1.0,0.993662800000493,,,,,,,,,,5.0,6.0,66.0,8.0,339.51345500000025,,,,,,,,,,,,,,,,,339.5063640000008,339.6048381999999,340.3961791000001,340.3887816000006,,,,,,,,,,,,,,,,,,,,,,,,,,,,,,,,,,,340.3918934000003,340.3961791000001,340.3961791000001,341.3976515000004,r,1.0,0.993662800000493,,,,,,sub-120,1,stroop_test,121.5809905690804,
,,,,67.0,7.0,5.0,,,,,,,,,,,,,blau,red,r,0.0,r,1.0,0.5700336999998399,,,,,,,,,,5.0,7.0,67.0,4.0,341.4048557000005,,,,,,,,,,,,,,,,,341.39811700000064,341.74672420000024,342.5381599000002,342.53081680000014,,,,,,,,,,,,,,,,,,,,,,,,,,,,,,,,,,,342.5336147000007,342.5381599000002,342.5381599000002,343.1139912000008,r,1.0,0.5700336999998399,,,,,,sub-120,1,stroop_test,121.5809905690804,
,,,,68.0,8.0,5.0,,,,,,,,,,,,,rot,blue,b,0.0,b,1.0,1.068630900000244,,,,,,,,,,5.0,8.0,68.0,2.0,343.1214342000003,,,,,,,,,,,,,,,,,343.1142842,343.4548721000001,344.2462927000006,344.23904820000007,,,,,,,,,,,,,,,,,,,,,,,,,,,,,,,,,,,344.2418116000008,344.2462927000006,344.2462927000006,345.32309350000014,b,1.0,1.068630900000244,,,,,,sub-120,1,stroop_test,121.5809905690804,
,,,,69.0,9.0,5.0,,,,,,,,,,,,,gelb,blue,b,0.0,b,1.0,1.111789999999928,,,,,,,,,,5.0,9.0,69.0,9.0,345.3298971000004,,,,,,,,,,,,,,,,,345.3234078000005,345.42156160000013,346.2125706000006,346.2052270000004,,,,,,,,,,,,,,,,,,,,,,,,,,,,,,,,,,,346.20761610000045,346.2125706000006,346.2125706000006,347.3309282,b,1.0,1.111789999999928,,,,,,sub-120,1,stroop_test,121.5809905690804,
,,,,70.0,10.0,5.0,,,,,,,,,,,,,rot,red,r,1.0,g,0.0,0.5729888999994728,,,,,,,,,,5.0,10.0,70.0,0.0,347.3382354000005,,,,,,,,,,,,,,,,,347.33129240000017,347.4297378000001,348.2211030000008,348.21367700000064,,,,,,,,,,,,,,,,,,,,,,,,,,,,,,,,,,,348.2162182000002,348.2211030000008,348.2211030000008,348.7972811,g,0.0,0.5729888999994728,,,,,,sub-120,1,stroop_test,121.5809905690804,
,,,,71.0,11.0,5.0,,,,,,,,,,,,,rot,red,r,1.0,r,1.0,0.6191273000004003,,,,,,,,,,5.0,11.0,71.0,1.0,348.80485000000044,,,,,,,,,,,,,,,,,348.7975838000002,349.58820770000057,350.3801635,350.3722172000007,,,,,,,,,,,,,,,,,,,,,,,,,,,,,,,,,,,350.37260610000067,350.3801635,350.3801635,351.0060640000001,r,1.0,0.6191273000004003,,,,,,sub-120,1,stroop_test,121.5809905690804,
,,,,72.0,0.0,6.0,,,,,,,,,,,,,rot,red,r,1.0,r,1.0,1.579623000000538,,,,,,,,,,6.0,0.0,72.0,0.0,351.0131582000004,,,,,,,,,,,,,,,,,351.0064019000001,352.2048012000005,352.9972152,352.98888480000005,,,,,,,,,,,,,,,,,,,,,,,,,,,,,,,,,,,352.98926740000024,352.9972152,352.9972152,354.5809149000006,r,1.0,1.579623000000538,,,,,,sub-120,1,stroop_test,121.5809905690804,
,,,,73.0,1.0,6.0,,,,,,,,,,,,,blau,red,r,0.0,r,1.0,0.9614729000004444,,,,,,,,,,6.0,1.0,73.0,4.0,354.5882953,,,,,,,,,,,,,,,,,354.5813012000008,354.9298548000006,355.7212785000001,355.71388019999995,,,,,,,,,,,,,,,,,,,,,,,,,,,,,,,,,,,355.7168436000002,355.7212785000001,355.7212785000001,356.6889927000002,r,1.0,0.9614729000004444,,,,,,sub-120,1,stroop_test,121.5809905690804,
,,,,74.0,2.0,6.0,,,,,,,,,,,,,blau,blue,b,1.0,b,1.0,1.2592587999997704,,,,,,,,,,6.0,2.0,74.0,6.0,356.6965187000005,,,,,,,,,,,,,,,,,356.68928790000064,356.7880847000006,357.58005090000006,357.57192920000034,,,,,,,,,,,,,,,,,,,,,,,,,,,,,,,,,,,357.5723480000006,357.58005090000006,357.58005090000006,358.84733680000045,b,1.0,1.2592587999997704,,,,,,sub-120,1,stroop_test,121.5809905690804,
,,,,75.0,3.0,6.0,,,,,,,,,,,,,rot,blue,b,0.0,b,1.0,0.610202500000014,,,,,,,,,,6.0,3.0,75.0,2.0,358.85514220000005,,,,,,,,,,,,,,,,,358.8476266000007,359.6381583000002,360.4294862000006,360.4221830000006,,,,,,,,,,,,,,,,,,,,,,,,,,,,,,,,,,,360.4249798999999,360.4294862000006,360.4294862000006,361.04773530000057,b,1.0,0.610202500000014,,,,,,sub-120,1,stroop_test,121.5809905690804,
,,,,76.0,4.0,6.0,,,,,,,,,,,,,gelb,yellow,g,1.0,g,1.0,0.6413758999997299,,,,,,,,,,6.0,4.0,76.0,10.0,361.054881,,,,,,,,,,,,,,,,,361.0481749000001,361.8468841000004,362.637823,362.63037410000015,,,,,,,,,,,,,,,,,,,,,,,,,,,,,,,,,,,362.6329393000005,362.637823,362.637823,363.2808289000004,g,1.0,0.6413758999997299,,,,,,sub-120,1,stroop_test,121.5809905690804,
,,,,77.0,5.0,6.0,,,,,,,,,,,,,gelb,blue,b,0.0,b,1.0,3.256373000000167,,,,,,,,,,6.0,5.0,77.0,9.0,363.2882812000007,,,,,,,,,,,,,,,,,363.2811486000001,363.37992290000057,364.1718112000008,364.1639293000008,,,,,,,,,,,,,,,,,,,,,,,,,,,,,,,,,,,364.1645615000007,364.1718112000008,364.1718112000008,367.43072070000017,b,1.0,3.256373000000167,,,,,,sub-120,1,stroop_test,121.5809905690804,
,,,,78.0,6.0,6.0,,,,,,,,,,,,,blau,blue,b,1.0,b,1.0,6.013122800000019,,,,,,,,,,6.0,6.0,78.0,5.0,367.4385186,,,,,,,,,,,,,,,,,367.4310283000004,367.7717326000002,368.5626511,368.5553166,,,,,,,,,,,,,,,,,,,,,,,,,,,,,,,,,,,368.5574839000001,368.5626511,368.5626511,374.5808783000002,b,1.0,6.013122800000019,,,,,,sub-120,1,stroop_test,121.5809905690804,
,,,,79.0,7.0,6.0,,,,,,,,,,,,,gelb,yellow,g,1.0,g,1.0,0.889606200000344,,,,,,,,,,6.0,7.0,79.0,11.0,374.58827400000064,,,,,,,,,,,,,,,,,374.5811868999999,375.37150310000015,376.1630180000002,376.1552828000004,,,,,,,,,,,,,,,,,,,,,,,,,,,,,,,,,,,376.1575141000003,376.1630180000002,376.1630180000002,377.0557605000004,g,1.0,0.889606200000344,,,,,,sub-120,1,stroop_test,121.5809905690804,
,,,,80.0,8.0,6.0,,,,,,,,,,,,,gelb,red,r,0.0,r,1.0,3.308691900000668,,,,,,,,,,6.0,8.0,80.0,8.0,377.0633240000007,,,,,,,,,,,,,,,,,377.05605770000057,377.85492760000034,378.6467232000005,378.6386392000004,,,,,,,,,,,,,,,,,,,,,,,,,,,,,,,,,,,378.6390115000004,378.6467232000005,378.6467232000005,381.9639734000002,r,1.0,3.308691900000668,,,,,,sub-120,1,stroop_test,121.5809905690804,
,,,,81.0,9.0,6.0,,,,,,,,,,,,,rot,red,r,1.0,r,1.0,1.2713137000000645,,,,,,,,,,6.0,9.0,81.0,1.0,381.9716150000004,,,,,,,,,,,,,,,,,381.964344,382.05498050000006,382.8460577000005,382.8387521000004,,,,,,,,,,,,,,,,,,,,,,,,,,,,,,,,,,,382.8413086999999,382.8460577000005,382.8460577000005,384.1227259000007,r,1.0,1.2713137000000645,,,,,,sub-120,1,stroop_test,121.5809905690804,
,,,,82.0,10.0,6.0,,,,,,,,,,,,,rot,yellow,g,0.0,g,1.0,1.0836693999999625,,,,,,,,,,6.0,10.0,82.0,3.0,384.1303223000005,,,,,,,,,,,,,,,,,384.1230202000006,385.3216379000005,386.1132533,386.1052645,,,,,,,,,,,,,,,,,,,,,,,,,,,,,,,,,,,386.1056439000004,386.1132533,386.1132533,387.2058197000006,g,1.0,1.0836693999999625,,,,,,sub-120,1,stroop_test,121.5809905690804,
,,,,83.0,11.0,6.0,,,,,,,,,,,,,blau,yellow,g,0.0,g,1.0,2.824612699999306,,,,,,,,,,6.0,11.0,83.0,7.0,387.2132784000005,,,,,,,,,,,,,,,,,387.2061864000007,387.5467523000007,388.33815700000014,388.3306605000007,,,,,,,,,,,,,,,,,,,,,,,,,,,,,,,,,,,388.33343220000006,388.33815700000014,388.33815700000014,391.1642934000001,g,1.0,2.824612699999306,,,,,,sub-120,1,stroop_test,121.5809905690804,
,,,,84.0,0.0,7.0,,,,,,,,,,,,,blau,blue,b,1.0,b,1.0,0.7231649000004836,,,,,,,,,,7.0,0.0,84.0,6.0,391.1714861,,,,,,,,,,,,,,,,,391.1645844000004,391.2550191,392.0469730000004,392.0391447000002,,,,,,,,,,,,,,,,,,,,,,,,,,,,,,,,,,,392.03952930000014,392.0469730000004,392.0469730000004,392.7725088000007,b,1.0,0.7231649000004836,,,,,,sub-120,1,stroop_test,121.5809905690804,
,,,,85.0,1.0,7.0,,,,,,,,,,,,,blau,blue,b,1.0,b,1.0,0.4457081999998991,,,,,,,,,,7.0,1.0,85.0,5.0,392.7799959000004,,,,,,,,,,,,,,,,,392.7728065000001,393.5633528000008,394.3551321000005,394.3472217000008,,,,,,,,,,,,,,,,,,,,,,,,,,,,,,,,,,,394.347597,394.3551321000005,394.3551321000005,394.8058271,b,1.0,0.4457081999998991,,,,,,sub-120,1,stroop_test,121.5809905690804,
,,,,86.0,2.0,7.0,,,,,,,,,,,,,gelb,red,r,0.0,r,1.0,0.6839072000002488,,,,,,,,,,7.0,2.0,86.0,8.0,394.8133257,,,,,,,,,,,,,,,,,394.8061219000001,395.1467759000007,395.9377718000005,395.9310394000004,,,,,,,,,,,,,,,,,,,,,,,,,,,,,,,,,,,395.9332777,395.9377718000005,395.9377718000005,396.6232486000008,r,1.0,0.6839072000002488,,,,,,sub-120,1,stroop_test,121.5809905690804,
,,,,87.0,3.0,7.0,,,,,,,,,,,,,blau,red,r,0.0,r,1.0,0.520792899999833,,,,,,,,,,7.0,3.0,87.0,4.0,396.6301685000008,,,,,,,,,,,,,,,,,396.6235525000002,396.7134770000002,397.5050623000007,397.4980105000004,,,,,,,,,,,,,,,,,,,,,,,,,,,,,,,,,,,397.5005220000003,397.5050623000007,397.5050623000007,398.0306209,r,1.0,0.520792899999833,,,,,,sub-120,1,stroop_test,121.5809905690804,
,,,,88.0,4.0,7.0,,,,,,,,,,,,,gelb,yellow,g,1.0,g,1.0,0.8709018999998079,,,,,,,,,,7.0,4.0,88.0,11.0,398.03838150000047,,,,,,,,,,,,,,,,,398.0309143000004,398.1216556,398.91283360000034,398.9060268000003,,,,,,,,,,,,,,,,,,,,,,,,,,,,,,,,,,,398.9082559000008,398.91283360000034,398.91283360000034,399.7915052000008,g,1.0,0.8709018999998079,,,,,,sub-120,1,stroop_test,121.5809905690804,
,,,,89.0,5.0,7.0,,,,,,,,,,,,,blau,yellow,g,0.0,g,1.0,0.6710555999998178,,,,,,,,,,7.0,5.0,89.0,7.0,399.79643250000026,,,,,,,,,,,,,,,,,399.7919516000002,399.8885092,400.67946550000033,400.6725739000003,,,,,,,,,,,,,,,,,,,,,,,,,,,,,,,,,,,400.67473860000064,400.67946550000033,400.67946550000033,401.3559518000002,g,1.0,0.6710555999998178,,,,,,sub-120,1,stroop_test,121.5809905690804,
,,,,90.0,6.0,7.0,,,,,,,,,,,,,gelb,blue,b,0.0,b,1.0,0.6479665000006207,,,,,,,,,,7.0,6.0,90.0,9.0,401.3633619000002,,,,,,,,,,,,,,,,,401.3562459000004,402.5468594000004,403.3385834999999,403.33059610000055,,,,,,,,,,,,,,,,,,,,,,,,,,,,,,,,,,,403.3348548000004,403.3385834999999,403.3385834999999,403.9895491000007,b,1.0,0.6479665000006207,,,,,,sub-120,1,stroop_test,121.5809905690804,
,,,,91.0,7.0,7.0,,,,,,,,,,,,,rot,blue,b,0.0,b,1.0,0.5748387000003277,,,,,,,,,,7.0,7.0,91.0,2.0,403.9973627,,,,,,,,,,,,,,,,,403.98983750000025,405.1811856000004,405.9716333000006,405.9646992000007,,,,,,,,,,,,,,,,,,,,,,,,,,,,,,,,,,,405.9671167000006,405.9716333000006,405.9716333000006,406.5480045000004,b,1.0,0.5748387000003277,,,,,,sub-120,1,stroop_test,121.5809905690804,
,,,,92.0,8.0,7.0,,,,,,,,,,,,,rot,yellow,g,0.0,g,1.0,0.5734593999995923,,,,,,,,,,7.0,8.0,92.0,3.0,406.5554186,,,,,,,,,,,,,,,,,406.5482863000007,407.3388349000006,408.13084100000015,408.1227776000005,,,,,,,,,,,,,,,,,,,,,,,,,,,,,,,,,,,408.1231805000007,408.13084100000015,408.13084100000015,408.7067096999999,g,1.0,0.5734593999995923,,,,,,sub-120,1,stroop_test,121.5809905690804,
,,,,93.0,9.0,7.0,,,,,,,,,,,,,rot,red,r,1.0,r,1.0,0.5122569999994084,,,,,,,,,,7.0,9.0,93.0,0.0,408.7140827000003,,,,,,,,,,,,,,,,,408.7070179000002,409.9056696000007,410.6971427000008,410.6893381,,,,,,,,,,,,,,,,,,,,,,,,,,,,,,,,,,,410.68971910000073,410.6971427000008,410.6971427000008,411.2147880000002,r,1.0,0.5122569999994084,,,,,,sub-120,1,stroop_test,121.5809905690804,
,,,,94.0,10.0,7.0,,,,,,,,,,,,,gelb,yellow,g,1.0,g,1.0,0.5548296999995728,,,,,,,,,,7.0,10.0,94.0,10.0,411.2222999000005,,,,,,,,,,,,,,,,,411.2150872000002,411.3055919000008,412.0969658000004,412.0892088999999,,,,,,,,,,,,,,,,,,,,,,,,,,,,,,,,,,,412.0913611000005,412.0969658000004,412.0969658000004,412.6563295000005,g,1.0,0.5548296999995728,,,,,,sub-120,1,stroop_test,121.5809905690804,
,,,,95.0,11.0,7.0,,,,,,,,,,,,,rot,red,r,1.0,r,1.0,0.4852866999999605,,,,,,,,,,7.0,11.0,95.0,1.0,412.6636928000007,,,,,,,,,,,,,,,,,412.6566276000003,412.7472415000002,413.5388612000006,413.5315397000004,,,,,,,,,,,,,,,,,,,,,,,,,,,,,,,,,,,413.5337903,413.5388612000006,413.5388612000006,414.0312881,r,1.0,0.4852866999999605,,,,,,sub-120,1,stroop_test,121.5809905690804,
,,,,96.0,0.0,8.0,,,,,,,,,,,,,blau,yellow,g,0.0,g,1.0,0.3491493999999875,,,,,,,,,,8.0,0.0,96.0,7.0,414.0390087000005,,,,,,,,,,,,,,,,,414.0315803000003,415.2221224000005,416.0138066,416.00605540000015,,,,,,,,,,,,,,,,,,,,,,,,,,,,,,,,,,,416.0082353000007,416.0138066,416.0138066,416.3647800000008,g,1.0,0.3491493999999875,,,,,,sub-120,1,stroop_test,121.5809905690804,
,,,,97.0,1.0,8.0,,,,,,,,,,,,,rot,blue,b,0.0,b,1.0,0.8244721000000936,,,,,,,,,,8.0,1.0,97.0,2.0,416.3722453,,,,,,,,,,,,,,,,,416.3650706000008,417.5556971000005,418.3469802,418.33942670000033,,,,,,,,,,,,,,,,,,,,,,,,,,,,,,,,,,,418.3428974000008,418.3469802,418.3469802,419.1731394000008,b,1.0,0.8244721000000936,,,,,,sub-120,1,stroop_test,121.5809905690804,
,,,,98.0,2.0,8.0,,,,,,,,,,,,,blau,red,r,0.0,r,1.0,0.9717660000005708,,,,,,,,,,8.0,2.0,98.0,4.0,419.1806822000008,,,,,,,,,,,,,,,,,419.1735357000007,419.52205520000007,420.3135267000007,420.3064664000003,,,,,,,,,,,,,,,,,,,,,,,,,,,,,,,,,,,420.3086164000006,420.3135267000007,420.3135267000007,421.28957720000017,r,1.0,0.9717660000005708,,,,,,sub-120,1,stroop_test,121.5809905690804,
,,,,99.0,3.0,8.0,,,,,,,,,,,,,gelb,red,r,0.0,r,1.0,0.543925500000114,,,,,,,,,,8.0,3.0,99.0,8.0,421.2975005000008,,,,,,,,,,,,,,,,,421.2898632000006,421.6308293000002,422.4220759,422.4145229000005,,,,,,,,,,,,,,,,,,,,,,,,,,,,,,,,,,,422.4167553000007,422.4220759,422.4220759,422.9735906000005,r,1.0,0.543925500000114,,,,,,sub-120,1,stroop_test,121.5809905690804,
,,,,100.0,4.0,8.0,,,,,,,,,,,,,blau,blue,b,1.0,b,1.0,1.4275872999996864,,,,,,,,,,8.0,4.0,100.0,6.0,422.9808584000002,,,,,,,,,,,,,,,,,422.97402280000006,423.3143251000001,424.1056105000007,424.09899510000014,,,,,,,,,,,,,,,,,,,,,,,,,,,,,,,,,,,424.1011864000002,424.1056105000007,424.1056105000007,425.54041510000025,b,1.0,1.4275872999996864,,,,,,sub-120,1,stroop_test,121.5809905690804,
,,,,101.0,5.0,8.0,,,,,,,,,,,,,rot,red,r,1.0,r,1.0,0.9063694999995278,,,,,,,,,,8.0,5.0,101.0,1.0,425.5475493000004,,,,,,,,,,,,,,,,,425.5407203000004,425.889529,426.68076590000055,426.67354070000056,,,,,,,,,,,,,,,,,,,,,,,,,,,,,,,,,,,426.6762418000008,426.68076590000055,426.68076590000055,427.5901473000004,r,1.0,0.9063694999995278,,,,,,sub-120,1,stroop_test,121.5809905690804,
,,,,102.0,6.0,8.0,,,,,,,,,,,,,rot,red,r,1.0,r,1.0,0.9484235999998418,,,,,,,,,,8.0,6.0,102.0,0.0,427.5977822000005,,,,,,,,,,,,,,,,,427.5904548000008,428.7811244000004,429.57259130000057,429.5646882000001,,,,,,,,,,,,,,,,,,,,,,,,,,,,,,,,,,,429.5650956,429.57259130000057,429.57259130000057,430.5234215,r,1.0,0.9484235999998418,,,,,,sub-120,1,stroop_test,121.5809905690804,
,,,,103.0,7.0,8.0,,,,,,,,,,,,,gelb,yellow,g,1.0,g,1.0,1.341627499999959,,,,,,,,,,8.0,7.0,103.0,11.0,430.5315077000005,,,,,,,,,,,,,,,,,430.5237167000005,431.7144304000003,432.5063480000008,432.4994891000006,,,,,,,,,,,,,,,,,,,,,,,,,,,,,,,,,,,432.5023025,432.5063480000008,432.5063480000008,433.84942020000017,g,1.0,1.341627499999959,,,,,,sub-120,1,stroop_test,121.5809905690804,
,,,,104.0,8.0,8.0,,,,,,,,,,,,,gelb,blue,b,0.0,b,1.0,0.6707239999996091,,,,,,,,,,8.0,8.0,104.0,9.0,433.85657850000007,,,,,,,,,,,,,,,,,433.8497120000002,435.0405408000006,435.8313042,435.8250044000006,,,,,,,,,,,,,,,,,,,,,,,,,,,,,,,,,,,435.82557910000014,435.8313042,435.8313042,436.5074989000004,b,1.0,0.6707239999996091,,,,,,sub-120,1,stroop_test,121.5809905690804,
,,,,105.0,9.0,8.0,,,,,,,,,,,,,rot,yellow,g,0.0,g,1.0,0.6189416999995956,,,,,,,,,,8.0,9.0,105.0,3.0,436.5149573000008,,,,,,,,,,,,,,,,,436.5077932000004,437.7065388000001,438.49789620000047,438.490366,,,,,,,,,,,,,,,,,,,,,,,,,,,,,,,,,,,438.4929864000005,438.49789620000047,438.49789620000047,439.1238944000006,g,1.0,0.6189416999995956,,,,,,sub-120,1,stroop_test,121.5809905690804,
,,,,106.0,10.0,8.0,,,,,,,,,,,,,gelb,yellow,g,1.0,g,1.0,0.9302202999997462,,,,,,,,,,8.0,10.0,106.0,10.0,439.13149610000073,,,,,,,,,,,,,,,,,439.1241822000002,439.2149379000002,440.0062418000007,439.9987404000003,,,,,,,,,,,,,,,,,,,,,,,,,,,,,,,,,,,440.00113990000045,440.0062418000007,440.0062418000007,440.9407081,g,1.0,0.9302202999997462,,,,,,sub-120,1,stroop_test,121.5809905690804,
,,,,107.0,11.0,8.0,,,,,,,,,,,,,blau,blue,b,1.0,b,1.0,1.3462768999997934,,,,,,,,,,8.0,11.0,107.0,5.0,440.9480866000004,,,,,,,,,,,,,,,,,440.9411379000003,441.7316613000002,442.5238543000005,442.5171280000004,,,,,,,,,,,,,,,,,,,,,,,,,,,,,,,,,,,442.5194905000008,442.5238543000005,442.5238543000005,443.87479070000063,b,1.0,1.3462768999997934,,,,,,sub-120,1,stroop_test,121.5809905690804,
,,,,108.0,0.0,9.0,,,,,,,,,,,,,blau,red,r,0.0,r,1.0,1.264886099999785,,,,,,,,,,9.0,0.0,108.0,4.0,443.8821959000006,,,,,,,,,,,,,,,,,443.8752355000006,445.07384450000063,445.86531360000026,445.8587174000004,,,,,,,,,,,,,,,,,,,,,,,,,,,,,,,,,,,445.85932159999993,445.86531360000026,445.86531360000026,447.13304250000056,r,1.0,1.264886099999785,,,,,,sub-120,1,stroop_test,121.5809905690804,
,,,,109.0,1.0,9.0,,,,,,,,,,,,,gelb,blue,b,0.0,b,1.0,1.7849931000000652,,,,,,,,,,9.0,1.0,109.0,9.0,447.1404576000005,,,,,,,,,,,,,,,,,447.1333456000002,448.3238764000007,449.1151097000002,449.10858180000014,,,,,,,,,,,,,,,,,,,,,,,,,,,,,,,,,,,449.1108558000005,449.1151097000002,449.1151097000002,450.9083851000005,b,1.0,1.7849931000000652,,,,,,sub-120,1,stroop_test,121.5809905690804,
,,,,110.0,2.0,9.0,,,,,,,,,,,,,rot,red,r,1.0,r,1.0,3.94145860000026,,,,,,,,,,9.0,2.0,110.0,1.0,450.9154787000007,,,,,,,,,,,,,,,,,450.9086923000005,451.007087,451.79895660000057,451.79130460000033,,,,,,,,,,,,,,,,,,,,,,,,,,,,,,,,,,,451.7947012000004,451.79895660000057,451.79895660000057,455.7418200000002,r,1.0,3.94145860000026,,,,,,sub-120,1,stroop_test,121.5809905690804,
,,,,111.0,3.0,9.0,,,,,,,,,,,,,blau,yellow,g,0.0,g,1.0,1.7822070000001986,,,,,,,,,,9.0,3.0,111.0,7.0,455.74898980000034,,,,,,,,,,,,,,,,,455.74210630000016,455.84078640000007,456.63189180000063,456.62487340000007,,,,,,,,,,,,,,,,,,,,,,,,,,,,,,,,,,,456.62704720000056,456.63189180000063,456.63189180000063,458.4166748000007,g,1.0,1.7822070000001986,,,,,,sub-120,1,stroop_test,121.5809905690804,
,,,,112.0,4.0,9.0,,,,,,,,,,,,,rot,blue,b,0.0,b,1.0,2.602307799999835,,,,,,,,,,9.0,4.0,112.0,2.0,458.42396480000025,,,,,,,,,,,,,,,,,458.41697980000026,458.7656997000004,459.5570523000006,459.5497677000003,,,,,,,,,,,,,,,,,,,,,,,,,,,,,,,,,,,459.5526731,459.5570523000006,459.5570523000006,462.1667384000002,b,1.0,2.602307799999835,,,,,,sub-120,1,stroop_test,121.5809905690804,
,,,,113.0,5.0,9.0,,,,,,,,,,,,,rot,yellow,g,0.0,g,1.0,1.0011027000000468,,,,,,,,,,9.0,5.0,113.0,3.0,462.1740588000002,,,,,,,,,,,,,,,,,462.1670309000001,462.2579731000005,463.0490301,463.04137770000034,,,,,,,,,,,,,,,,,,,,,,,,,,,,,,,,,,,463.0419164000005,463.0490301,463.0490301,464.0524664000004,g,1.0,1.0011027000000468,,,,,,sub-120,1,stroop_test,121.5809905690804,
,,,,114.0,6.0,9.0,,,,,,,,,,,,,rot,red,r,1.0,r,1.0,1.0341462000005777,,,,,,,,,,9.0,6.0,114.0,0.0,464.057366,,,,,,,,,,,,,,,,,464.0527818000001,464.8489849000007,465.6407945000001,465.6329078000008,,,,,,,,,,,,,,,,,,,,,,,,,,,,,,,,,,,465.63334470000063,465.6407945000001,465.6407945000001,466.6836469,r,1.0,1.0341462000005777,,,,,,sub-120,1,stroop_test,121.5809905690804,
,,,,115.0,7.0,9.0,,,,,,,,,,,,,blau,blue,b,1.0,b,1.0,4.062482799999998,,,,,,,,,,9.0,7.0,115.0,6.0,466.69077760000073,,,,,,,,,,,,,,,,,466.68403620000026,466.78246110000055,467.5736436000007,467.5666852000004,,,,,,,,,,,,,,,,,,,,,,,,,,,,,,,,,,,467.5688532000004,467.5736436000007,467.5736436000007,471.6429877000001,b,1.0,4.062482799999998,,,,,,sub-120,1,stroop_test,121.5809905690804,
,,,,116.0,8.0,9.0,,,,,,,,,,,,,gelb,red,r,0.0,r,1.0,1.230956800000058,,,,,,,,,,9.0,8.0,116.0,8.0,471.6491167000004,,,,,,,,,,,,,,,,,471.6433771000002,472.8409995000002,473.63187890000063,473.6250885,,,,,,,,,,,,,,,,,,,,,,,,,,,,,,,,,,,473.6273137000008,473.63187890000063,473.63187890000063,474.86696780000057,r,1.0,1.230956800000058,,,,,,sub-120,1,stroop_test,121.5809905690804,
,,,,117.0,9.0,9.0,,,,,,,,,,,,,gelb,yellow,g,1.0,g,1.0,1.2754000999993875,,,,,,,,,,9.0,9.0,117.0,10.0,474.8741700000001,,,,,,,,,,,,,,,,,474.8673657,475.2159907000005,476.0074504000004,475.9994378000001,,,,,,,,,,,,,,,,,,,,,,,,,,,,,,,,,,,475.9998282000006,476.0074504000004,476.0074504000004,477.2842238000003,g,1.0,1.2754000999993875,,,,,,sub-120,1,stroop_test,121.5809905690804,
,,,,118.0,10.0,9.0,,,,,,,,,,,,,blau,blue,b,1.0,b,1.0,0.8087311999997837,,,,,,,,,,9.0,10.0,118.0,5.0,477.2908270000007,,,,,,,,,,,,,,,,,477.2845181000002,478.0828237000005,478.8736153,478.8664265000007,,,,,,,,,,,,,,,,,,,,,,,,,,,,,,,,,,,478.8691529000007,478.8736153,478.8736153,479.6839658000008,b,1.0,0.8087311999997837,,,,,,sub-120,1,stroop_test,121.5809905690804,
,,,,119.0,11.0,9.0,,,,,,,,,,,,,gelb,yellow,g,1.0,g,1.0,1.1611958000003142,,,,,,,,,,9.0,11.0,119.0,11.0,479.69076330000007,,,,,,,,,,,,,,,,,479.6842924000002,480.8826132000004,481.6740038000007,481.66624690000026,,,,,,,,,,,,,,,,,,,,,,,,,,,,,,,,,,,481.6684672000001,481.6740038000007,481.6740038000007,482.8421713000007,g,1.0,1.1611958000003142,,,,,,sub-120,1,stroop_test,121.5809905690804,
,,,,,,,,,,,,,,,,,,,,,,,,,,,,,,,,,,,,,,,,,,,,,,,,,,,,,,,,,,,,,,,,,,,,,,,,,,,,,,,,,,,,,,,,,,,,,,,,,,,,,,482.8423147000003,482.8490532000005,487.8409447000004,487.8331902,sub-120,1,stroop_test,121.5809905690804,
