direction,corrAns,thisN,thisTrialN,thisRepN,respDots.keys,respDots.corr,respDots.rt,respDots.duration,randomInstr,respRandomInstr.keys,respRandomInstr.rt,respRandomInstr.duration,practice_trials.thisRepN,practice_trials.thisTrialN,practice_trials.thisN,practice_trials.thisIndex,instr_trials.thisRepN,instr_trials.thisTrialN,instr_trials.thisN,instr_trials.thisIndex,test_trials.thisRepN,test_trials.thisTrialN,test_trials.thisN,test_trials.thisIndex,thisRow.t,notes,general_instruction.started,textGeneralInstr.started,respGeneralInstr.started,general_instruction.stopped,respGeneralInstr.keys,respGeneralInstr.rt,respGeneralInstr.duration,ITI.started,fixcross.started,fixcross.stopped,ITI.stopped,dots.started,backgroundDots.started,stimulusDots.started,respDots.started,stimulusDots.stopped,dots.stopped,practice_trials.respDots.keys,practice_trials.respDots.corr,practice_trials.respDots.rt,practice_trials.respDots.duration,feedback.started,textFeedback.started,feedback.stopped,textFeedback.stopped,info.started,textInfo.started,keyRespInfo.started,info.stopped,keyRespInfo.keys,keyRespInfo.rt,keyRespInfo.duration,test_instruction.started,textTestInstr.started,respTestInstr.started,test_instruction.stopped,respTestInstr.keys,respTestInstr.rt,respTestInstr.duration,random_instruction.started,textRandomInstr.started,respRandomInstr.started,random_instruction.stopped,instr_trials.respRandomInstr.keys,instr_trials.respRandomInstr.rt,instr_trials.respRandomInstr.duration,test_trials.respDots.keys,test_trials.respDots.corr,test_trials.respDots.rt,test_trials.respDots.duration,goodbye.started,textGoodbye.started,goodbye.stopped,participant,session,expName,frameRate,Unnamed: 87
,,,,,,,,,,,,,,,,,,,,,,,,,,,0.0095999580007628,0.0201020000022253,0.0201020000022253,34.22988404100033,space,34.16382045899809,,,,,,,,,,,,,,,,,,,,,,,,,,,,,,,,,,,,,,,,,,,,,,,,sub-167,1,random_dot,120.14026328344592,
right,right,0.0,0.0,0.0,left,0.0,5.182027082999412,,,,,,0.0,0.0,0.0,1.0,,,,,,,,,34.29046129100607,,,,,,,,,34.25427033300366,35.43196708300093,36.46217550000438,36.21710662500118,36.21762091600249,36.46217550000438,36.46217550000438,36.46217550000438,41.2062663329998,41.651944500001264,left,0.0,5.182027082999412,,41.66018079100468,41.76706237500184,42.15514062500006,,,,,,,,,,,,,,,,,,,,,,,,,,,,,,sub-167,1,random_dot,120.14026328344592,
left,left,1.0,1.0,0.0,left,1.0,5.391228583001066,,,,,,0.0,1.0,1.0,0.0,,,,,,,,,42.16673608300334,,,,,,,,,42.15554566600622,42.25011112500215,43.042070791001606,43.03400654100551,43.03449720800563,43.042070791001606,43.042070791001606,43.042070791001606,48.03314437500376,48.43625970800349,left,1.0,5.391228583001066,,48.44329537500016,48.468521625,48.93887141600135,,,,,,,,,,,,,,,,,,,,,,,,,,,,,,sub-167,1,random_dot,120.14026328344592,
right,right,2.0,0.0,1.0,right,1.0,0.6938221669988707,,,,,,1.0,0.0,2.0,1.0,,,,,,,,,48.950257791002514,,,,,,,,,48.93932287500502,49.73326512500353,50.525176416005706,50.517329833004624,50.517800833004,50.525176416005706,50.525176416005706,50.525176416005706,,51.22509925000486,right,1.0,0.6938221669988707,,51.22521362500265,51.23376708300202,51.717971958001726,51.7245632080012,,,,,,,,,,,,,,,,,,,,,,,,,,,,,sub-167,1,random_dot,120.14026328344592,
left,left,3.0,1.0,1.0,right,0.0,0.9446115829996417,,,,,,1.0,1.0,3.0,0.0,,,,,,,,,51.7245632080012,,,,,,,,,51.71848829100054,52.073488708003424,52.875862208005856,52.86763270800293,52.8680975410025,52.875862208005856,52.875862208005856,52.875862208005856,,53.82531666600698,right,0.0,0.9446115829996417,,53.82840399999986,53.8368118330036,54.322621666004125,54.33348870800546,,,,,,,,,,,,,,,,,,,,,,,,,,,,,sub-167,1,random_dot,120.14026328344592,
right,right,4.0,0.0,2.0,right,1.0,2.006329999996524,,,,,,2.0,0.0,4.0,1.0,,,,,,,,,54.33348870800546,,,,,,,,,54.32295441600581,54.67251379100344,55.46668104100536,55.455796291003935,55.4561845000062,55.46668104100536,55.46668104100536,55.46668104100536,,57.4753283750033,right,1.0,2.006329999996524,,57.47845995800162,57.487189500003296,57.972858708002605,57.983759958005976,,,,,,,,,,,,,,,,,,,,,,,,,,,,,sub-167,1,random_dot,120.14026328344592,
left,left,5.0,1.0,2.0,left,1.0,1.156399457999214,,,,,,2.0,1.0,5.0,0.0,,,,,,,,,57.983759958005976,,,,,,,,,57.973310666006,58.073495374999766,58.86645408300683,58.85704379100207,58.85758395800076,58.86645408300683,58.86645408300683,58.86645408300683,,60.0256647500064,left,1.0,1.156399457999214,,60.02577808299975,60.03403316600452,60.51764904100128,60.5237841660055,,,,,,,,,,,,,,,,,,,,,,,,,,,,,sub-167,1,random_dot,120.14026328344592,
right,right,6.0,0.0,3.0,left,0.0,1.8091279590007616,,,,,,3.0,0.0,6.0,1.0,,,,,,,,,60.5237841660055,,,,,,,,,60.51809129100002,60.87380366599973,61.666800541002885,61.65722295800515,61.65768700000626,61.666800541002885,61.666800541002885,61.666800541002885,,63.48510712500138,left,0.0,1.8091279590007616,,63.48826791600004,63.4968643750035,63.98449954100215,63.99049420800293,,,,,,,,,,,,,,,,,,,,,,,,,,,,,sub-167,1,random_dot,120.14026328344592,
left,left,7.0,1.0,3.0,left,1.0,1.938344916998176,,,,,,3.0,1.0,7.0,0.0,,,,,,,,,63.99049420800293,,,,,,,,,63.98495170800015,64.33382295800402,65.12512908300414,65.11757020799996,65.1180415830022,65.12512908300414,65.12512908300414,65.12512908300414,,67.06860104100633,left,1.0,1.938344916998176,,67.07180691600661,67.0806215410048,67.56785145800677,67.57363579100638,,,,,,,,,,,,,,,,,,,,,,,,,,,,,sub-167,1,random_dot,120.14026328344592,
left,left,8.0,0.0,4.0,right,0.0,1.5338357079963316,,,,,,4.0,0.0,8.0,0.0,,,,,,,,,67.57363579100638,,,,,,,,,67.56823387500481,68.3672871250019,69.15944745800516,69.151174000006,69.15163358300197,69.15944745800516,69.15944745800516,69.15944745800516,,70.7019800410053,right,0.0,1.5338357079963316,,70.7050915830041,70.71329579099984,71.20134545800101,71.20715733300312,,,,,,,,,,,,,,,,,,,,,,,,,,,,,sub-167,1,random_dot,120.14026328344592,
right,right,9.0,1.0,4.0,left,0.0,2.124909708996711,,,,,,4.0,1.0,9.0,1.0,,,,,,,,,71.20715733300312,,,,,,,,,71.20172183300019,71.55047887500405,72.34265750000486,72.33455125000182,72.33500125000137,72.34265750000486,72.34265750000486,72.34265750000486,,74.47579337500065,left,0.0,2.124909708996711,,74.47593158300151,74.48434329100564,74.96817212500173,74.97390333300427,,,,,,,,,,,,,,,,,,,,,,,,,,,,,sub-167,1,random_dot,120.14026328344592,
right,right,10.0,0.0,5.0,right,1.0,0.9500934169991524,,,,,,5.0,0.0,10.0,1.0,,,,,,,,,74.97390333300427,,,,,,,,,74.968549833,75.77428129100008,76.5769663750034,76.5683944160046,76.5689327910004,76.5769663750034,76.5769663750034,76.5769663750034,,77.53541716600012,right,1.0,0.9500934169991524,,77.53861437500018,77.54684529100632,78.03524066600221,78.04148875000101,,,,,,,,,,,,,,,,,,,,,,,,,,,,,sub-167,1,random_dot,120.14026328344592,
left,left,11.0,1.0,5.0,right,0.0,3.698784290994809,,,,,,5.0,1.0,11.0,0.0,,,,,,,,,78.04148875000101,,,,,,,,,78.03569654100284,79.23427274999995,80.02642083300452,80.01809079100349,80.01856866600428,80.02642083300452,80.02642083300452,80.02642083300452,,83.73586320800678,right,0.0,3.698784290994809,,83.73901079100324,83.74813408300543,84.23497429100098,84.24065783300466,,,,,,,,,,,,,,,,,,,,,,,,,,,,,sub-167,1,random_dot,120.14026328344592,
right,right,12.0,0.0,6.0,left,0.0,1.01065783300146,,,,,,6.0,0.0,12.0,1.0,,,,,,,,,84.24065783300466,,,,,,,,,84.23536191600579,85.03431329100567,85.82641087500087,85.81823695800267,85.81877683300263,85.82641087500087,85.82641087500087,85.82641087500087,,86.8425013330052,left,0.0,1.01065783300146,,86.84260962500412,86.85037216600176,87.33522729100514,87.34099950000382,,,,,,,,,,,,,,,,,,,,,,,,,,,,,sub-167,1,random_dot,120.14026328344592,
left,left,13.0,1.0,6.0,left,1.0,2.09721449999779,,,,,,6.0,1.0,13.0,0.0,,,,,,,,,87.34099950000382,,,,,,,,,87.33561491600267,88.54092541600403,89.34285725000518,89.33496700000251,89.33542350000062,89.34285725000518,89.34285725000518,89.34285725000518,,91.44262716600495,left,1.0,2.09721449999779,,91.4457442500061,91.45414533300207,91.9406600000002,91.95124212500376,,,,,,,,,,,,,,,,,,,,,,,,,,,,,sub-167,1,random_dot,120.14026328344592,
right,right,14.0,0.0,7.0,right,1.0,0.9862982500053477,,,,,,7.0,0.0,14.0,1.0,,,,,,,,,91.95124212500376,,,,,,,,,91.94103995800106,93.14135375000478,93.9340400000001,93.92473012499975,93.92520570800116,93.9340400000001,93.9340400000001,93.9340400000001,,94.92635995800084,right,1.0,0.9862982500053477,,94.92647441600276,94.95088883300195,95.4347840410046,,,,,,,,,,,,,,,,,,,,,,,,,,,,,,sub-167,1,random_dot,120.14026328344592,
left,left,15.0,1.0,7.0,right,0.0,1.7117897500065735,,,,,,7.0,1.0,15.0,0.0,,,,,,,,,95.43994316600585,,,,,,,,,95.43516175000696,95.77504800000315,96.56686466600512,96.55867450000368,96.55916345800506,96.56686466600512,96.56686466600512,96.56686466600512,,98.28579708300094,right,0.0,1.7117897500065735,,98.28922570800204,98.29815950000192,98.78546291600652,98.79149933300504,,,,,,,,,,,,,,,,,,,,,,,,,,,,,sub-167,1,random_dot,120.14026328344592,
left,left,16.0,0.0,8.0,right,0.0,1.87470312500227,,,,,,8.0,0.0,16.0,0.0,,,,,,,,,98.79149933300504,,,,,,,,,98.78590266600077,99.58479362500655,100.37669679100507,100.36848950000422,100.3689577910045,100.37669679100507,100.37669679100507,100.37669679100507,,102.26095345800422,right,0.0,1.87470312500227,,102.26106579100453,102.26934895800514,102.75721258300472,102.76803437500348,,,,,,,,,,,,,,,,,,,,,,,,,,,,,sub-167,1,random_dot,120.14026328344592,
right,right,17.0,1.0,8.0,left,0.0,1.5071373749960912,,,,,,8.0,1.0,17.0,1.0,,,,,,,,,102.76803437500348,,,,,,,,,102.75760454100237,103.95704141600436,104.75083962500504,104.74083891600458,104.741317333006,104.75083962500504,104.75083962500504,104.75083962500504,,106.26024291600334,left,0.0,1.5071373749960912,,106.26036070800184,106.28443462500582,106.7683469160038,,,,,,,,,,,,,,,,,,,,,,,,,,,,,,sub-167,1,random_dot,120.14026328344592,
right,right,18.0,0.0,9.0,left,0.0,1.1798661249995348,,,,,,9.0,0.0,18.0,1.0,,,,,,,,,106.77348408300168,,,,,,,,,106.7687272500043,106.85755820800114,107.65088812500473,107.64092350000284,107.6414795410019,107.65088812500473,107.65088812500473,107.65088812500473,,108.8364452080059,left,0.0,1.1798661249995348,,108.83655970800464,108.8452132080056,109.33566858300036,109.34152887500386,,,,,,,,,,,,,,,,,,,,,,,,,,,,,sub-167,1,random_dot,120.14026328344592,
left,left,19.0,1.0,9.0,left,1.0,3.6927450000002864,,,,,,9.0,1.0,19.0,0.0,,,,,,,,,109.34152887500386,,,,,,,,,109.33605300000636,109.68471220799984,110.4769940000042,110.46884679100184,110.4693084160026,110.4769940000042,110.4769940000042,110.4769940000042,,114.17644320800171,left,1.0,3.6927450000002864,,114.17957020800532,114.18777783300176,114.67437162500572,114.68437083300525,,,,,,,,,,,,,,,,,,,,,,,,,,,,,sub-167,1,random_dot,120.14026328344592,
,,,,,,,,,,,,,,,,,,,,,,,,,,,,,,,,,,,,,,,,,,,,,,,,,,,,114.67452920800132,114.68437083300525,114.68437083300525,119.0539988330056,space,4.364286208001431,,,,,,,,,,,,,,,,,,,,,,,sub-167,1,random_dot,120.14026328344592,
,,,,,,,,,,,,,,,,,,,,,,,,,,,,,,,,,,,,,,,,,,,,,,,,,,,,,,,,,,,119.05410237500472,119.0654061660025,119.0654061660025,142.80446729100368,space,23.72947537500295,,,,,,,,,,,,,,,,sub-167,1,random_dot,120.14026328344592,
right,right,0.0,0.0,0.0,left,0.0,3.3648779169961927,,accuracy,space,3.8437629579930217,,,,,,0.0,0.0,0.0,0.0,0.0,0.0,0.0,1.0,146.7044642500041,,,,,,,,,146.6955584160023,146.78574620800646,147.57800654099992,147.5696506250024,147.57014316600544,147.57800654099992,147.57800654099992,147.57800654099992,,150.96975937500247,,,,,,,,,,,,,,,,,,,,,,,142.82718325000317,142.83639816600044,142.83639816600044,146.6878062080068,space,3.8437629579930217,,left,0.0,3.3648779169961927,,,,,sub-167,1,random_dot,120.14026328344592,
left,left,1.0,1.0,0.0,left,1.0,5.451871042001585,,accuracy,space,3.8437629579930217,,,,,,0.0,0.0,0.0,0.0,0.0,1.0,1.0,0.0,150.98598795800353,,,,,,,,,150.9701677500052,151.7593366660003,152.55205145800574,152.54242658300063,152.54288195800473,152.55205145800574,152.55205145800574,152.55205145800574,157.53570041600324,158.01127966600325,,,,,,,,,,,,,,,,,,,,,,,,,,,,,,left,1.0,5.451871042001585,,,,,sub-167,1,random_dot,120.14026328344592,
left,left,2.0,0.0,1.0,right,0.0,3.547738749999553,,accuracy,space,3.8437629579930217,,,,,,0.0,0.0,0.0,0.0,1.0,0.0,2.0,0.0,158.03570391600078,,,,,,,,,158.01181391600403,158.3595785409998,159.15214733300672,159.14279666600487,159.14327125000273,159.15214733300672,159.15214733300672,159.15214733300672,,162.7040552910039,,,,,,,,,,,,,,,,,,,,,,,,,,,,,,right,0.0,3.547738749999553,,,,,sub-167,1,random_dot,120.14026328344592,
right,right,3.0,1.0,1.0,right,1.0,5.291884082995239,,accuracy,space,3.8437629579930217,,,,,,0.0,0.0,0.0,0.0,1.0,1.0,3.0,1.0,162.70972195800277,,,,,,,,,162.70445437500166,163.90283633299987,164.69495070800622,164.68671241600532,164.6871715830057,164.69495070800622,164.69495070800622,164.69495070800622,169.6750466250014,169.9946114580016,,,,,,,,,,,,,,,,,,,,,,,,,,,,,,right,1.0,5.291884082995239,,,,,sub-167,1,random_dot,120.14026328344592,
left,left,4.0,0.0,2.0,left,1.0,2.010597375003272,,accuracy,space,3.8437629579930217,,,,,,0.0,0.0,0.0,0.0,2.0,0.0,4.0,0.0,170.01924766600132,,,,,,,,,169.995137291,170.792985125001,171.58541387500009,171.57705750000605,171.5775741660036,171.58541387500009,171.58541387500009,171.58541387500009,,173.60443541600398,,,,,,,,,,,,,,,,,,,,,,,,,,,,,,left,1.0,2.010597375003272,,,,,sub-167,1,random_dot,120.14026328344592,
right,right,5.0,1.0,2.0,right,1.0,4.51459445799992,,accuracy,space,3.8437629579930217,,,,,,0.0,0.0,0.0,0.0,2.0,1.0,5.0,1.0,173.61284383300517,,,,,,,,,173.6048385000031,173.7029881250055,174.4951205000034,174.48709200000303,174.48754620800173,174.4951205000034,174.4951205000034,174.4951205000034,,179.0119248330011,,,,,,,,,,,,,,,,,,,,,,,,,,,,,,right,1.0,4.51459445799992,,,,,sub-167,1,random_dot,120.14026328344592,
left,left,6.0,0.0,3.0,right,0.0,3.1057338750033523,,accuracy,space,3.8437629579930217,,,,,,0.0,0.0,0.0,0.0,3.0,0.0,6.0,0.0,179.0361515830009,,,,,,,,,179.01231908300542,179.35983283300448,180.1525821660034,180.14340862500103,180.14389912500337,180.1525821660034,180.1525821660034,180.1525821660034,,183.26171904100192,,,,,,,,,,,,,,,,,,,,,,,,,,,,,,right,0.0,3.1057338750033523,,,,,sub-167,1,random_dot,120.14026328344592,
right,right,7.0,1.0,3.0,left,0.0,4.1657821249973495,,accuracy,space,3.8437629579930217,,,,,,0.0,0.0,0.0,0.0,3.0,1.0,7.0,1.0,183.27023312500387,,,,,,,,,183.26210779100077,183.60999970800185,184.4118983330045,184.4038277910004,184.4042832910054,184.4118983330045,184.4118983330045,184.4118983330045,,188.58813066600123,,,,,,,,,,,,,,,,,,,,,,,,,,,,,,left,0.0,4.1657821249973495,,,,,sub-167,1,random_dot,120.14026328344592,
left,left,8.0,0.0,4.0,left,1.0,2.454030041997612,,accuracy,space,3.8437629579930217,,,,,,0.0,0.0,0.0,0.0,4.0,0.0,8.0,0.0,188.5963325000048,,,,,,,,,188.58853537500545,188.93637358300475,189.7280707500031,189.7204190000048,189.72088104100112,189.7280707500031,189.7280707500031,189.7280707500031,,192.18791345800128,,,,,,,,,,,,,,,,,,,,,,,,,,,,,,left,1.0,2.454030041997612,,,,,sub-167,1,random_dot,120.14026328344592,
right,right,9.0,1.0,4.0,right,1.0,1.3104734169974108,,accuracy,space,3.8437629579930217,,,,,,0.0,0.0,0.0,0.0,4.0,1.0,9.0,1.0,192.1964634160031,,,,,,,,,192.188311291,192.2866260830051,193.0799394160058,193.07075570800225,193.0713476660021,193.0799394160058,193.0799394160058,193.0799394160058,,194.39515437500089,,,,,,,,,,,,,,,,,,,,,,,,,,,,,,right,1.0,1.3104734169974108,,,,,sub-167,1,random_dot,120.14026328344592,
left,left,10.0,0.0,5.0,left,1.0,4.614906999995583,,accuracy,space,3.8437629579930217,,,,,,0.0,0.0,0.0,0.0,5.0,0.0,10.0,0.0,194.40341912500296,,,,,,,,,194.39554350000253,194.74348908300453,195.54565262500543,195.53764016600329,195.53812225,195.54565262500543,195.54565262500543,195.54565262500543,,200.17408666600383,,,,,,,,,,,,,,,,,,,,,,,,,,,,,,left,1.0,4.614906999995583,,,,,sub-167,1,random_dot,120.14026328344592,
right,right,11.0,1.0,5.0,right,1.0,1.5796848329991915,,accuracy,space,3.8437629579930217,,,,,,0.0,0.0,0.0,0.0,5.0,1.0,11.0,1.0,200.187007958004,,,,,,,,,200.1746149580067,201.37047500000332,202.16246145800687,202.15431858300144,202.15479120800592,202.16246145800687,202.16246145800687,202.16246145800687,,203.745494958006,,,,,,,,,,,,,,,,,,,,,,,,,,,,,,right,1.0,1.5796848329991915,,,,,sub-167,1,random_dot,120.14026328344592,
left,left,12.0,0.0,6.0,right,0.0,2.267230332996405,,accuracy,space,3.8437629579930217,,,,,,0.0,0.0,0.0,0.0,6.0,0.0,12.0,0.0,203.7533774580006,,,,,,,,,203.74589662500512,204.94325620800373,205.7364737500029,205.72656595800072,205.7270964160052,205.7364737500029,205.7364737500029,205.7364737500029,,208.00610466600483,,,,,,,,,,,,,,,,,,,,,,,,,,,,,,right,0.0,2.267230332996405,,,,,sub-167,1,random_dot,120.14026328344592,
right,right,13.0,1.0,6.0,right,1.0,4.195696458999009,,accuracy,space,3.8437629579930217,,,,,,0.0,0.0,0.0,0.0,6.0,1.0,13.0,1.0,208.0120779160061,,,,,,,,,208.00651129100152,208.35400775000016,209.14589937500568,209.1378316250048,209.13827641600076,209.14589937500568,209.14589937500568,209.14589937500568,,213.3454793750061,,,,,,,,,,,,,,,,,,,,,,,,,,,,,,right,1.0,4.195696458999009,,,,,sub-167,1,random_dot,120.14026328344592,
left,left,14.0,0.0,7.0,left,1.0,4.134521375002805,,accuracy,space,3.8437629579930217,,,,,,0.0,0.0,0.0,0.0,7.0,0.0,14.0,0.0,213.3534790410049,,,,,,,,,213.3458712080028,213.44395854100003,214.2461720410065,214.237940583007,214.23841179100415,214.2461720410065,214.2461720410065,214.2461720410065,,218.38885783300063,,,,,,,,,,,,,,,,,,,,,,,,,,,,,,left,1.0,4.134521375002805,,,,,sub-167,1,random_dot,120.14026328344592,
right,right,15.0,1.0,7.0,right,1.0,1.5742719170011696,,accuracy,space,3.8437629579930217,,,,,,0.0,0.0,0.0,0.0,7.0,1.0,15.0,1.0,218.3972352500059,,,,,,,,,218.3892690000066,219.18722375000647,219.98015804100575,219.9716832500053,219.9722756660049,219.98015804100575,219.98015804100575,219.98015804100575,,221.5637257910057,,,,,,,,,,,,,,,,,,,,,,,,,,,,,,right,1.0,1.5742719170011696,,,,,sub-167,1,random_dot,120.14026328344592,
right,right,16.0,0.0,8.0,left,0.0,2.0958358329953626,,accuracy,space,3.8437629579930217,,,,,,0.0,0.0,0.0,0.0,8.0,0.0,16.0,1.0,221.57287145800365,,,,,,,,,221.56411237500288,221.9108695000032,222.7136991250009,222.70508925000468,222.7056977500033,222.7136991250009,222.7136991250009,222.7136991250009,,224.81238100000337,,,,,,,,,,,,,,,,,,,,,,,,,,,,,,left,0.0,2.0958358329953626,,,,,sub-167,1,random_dot,120.14026328344592,
left,left,17.0,1.0,8.0,left,1.0,1.3948783749947324,,accuracy,space,3.8437629579930217,,,,,,0.0,0.0,0.0,0.0,8.0,1.0,17.0,0.0,224.82034020800347,,,,,,,,,224.81278150000435,225.16038050000495,225.9531260830045,225.94487683300397,225.9453555,225.9531260830045,225.9531260830045,225.9531260830045,,227.3557403330051,,,,,,,,,,,,,,,,,,,,,,,,,,,,,,left,1.0,1.3948783749947324,,,,,sub-167,1,random_dot,120.14026328344592,
left,left,18.0,0.0,9.0,right,0.0,3.148998874996323,,accuracy,space,3.8437629579930217,,,,,,0.0,0.0,0.0,0.0,9.0,0.0,18.0,0.0,227.3642979160068,,,,,,,,,227.356188208003,228.15408229100285,228.94640783300565,228.9382256250028,228.9386820830041,228.94640783300565,228.94640783300565,228.94640783300565,,232.10604054100256,,,,,,,,,,,,,,,,,,,,,,,,,,,,,,right,0.0,3.148998874996323,,,,,sub-167,1,random_dot,120.14026328344592,
right,right,19.0,1.0,9.0,left,0.0,5.659305749999476,,accuracy,space,3.8437629579930217,,,,,,0.0,0.0,0.0,0.0,9.0,1.0,19.0,1.0,232.11449387500036,,,,,,,,,232.10644670800684,232.45424116600043,233.24583983300545,233.2381489160034,233.23860666600376,233.24583983300545,233.24583983300545,233.24583983300545,238.2264612910003,238.91649370800587,,,,,,,,,,,,,,,,,,,,,,,,,,,,,,left,0.0,5.659305749999476,,,,,sub-167,1,random_dot,120.14026328344592,
right,right,20.0,0.0,10.0,right,1.0,3.767773915998987,,accuracy,space,3.8437629579930217,,,,,,0.0,0.0,0.0,0.0,10.0,0.0,20.0,1.0,238.92262787500655,,,,,,,,,238.91691504100163,239.71113208300085,240.5036867910021,240.49533583300217,240.49580779100503,240.5036867910021,240.5036867910021,240.5036867910021,,244.27940212500107,,,,,,,,,,,,,,,,,,,,,,,,,,,,,,right,1.0,3.767773915998987,,,,,sub-167,1,random_dot,120.14026328344592,
left,left,21.0,1.0,10.0,left,1.0,1.0595543750023353,,accuracy,space,3.8437629579930217,,,,,,0.0,0.0,0.0,0.0,10.0,1.0,21.0,0.0,244.2874021250027,,,,,,,,,244.27982062500087,245.47796712499985,246.2799477910012,246.272112000006,246.2725755410065,246.2799477910012,246.2799477910012,246.2799477910012,,247.34646358300236,,,,,,,,,,,,,,,,,,,,,,,,,,,,,,left,1.0,1.0595543750023353,,,,,sub-167,1,random_dot,120.14026328344592,
left,left,22.0,0.0,11.0,left,1.0,1.8204933339948184,,accuracy,space,3.8437629579930217,,,,,,0.0,0.0,0.0,0.0,11.0,0.0,22.0,0.0,247.3544217910021,,,,,,,,,247.3468627080001,248.14504991600552,248.93750416600236,248.9282450000028,248.92870870800107,248.93750416600236,248.93750416600236,248.93750416600236,,250.76301079100085,,,,,,,,,,,,,,,,,,,,,,,,,,,,,,left,1.0,1.8204933339948184,,,,,sub-167,1,random_dot,120.14026328344592,
right,right,23.0,1.0,11.0,left,0.0,2.4389808749983786,,accuracy,space,3.8437629579930217,,,,,,0.0,0.0,0.0,0.0,11.0,1.0,23.0,1.0,250.7712669580069,,,,,,,,,250.763406666003,251.96146616600163,252.76321941600327,252.75532729100087,252.7557893750054,252.76321941600327,252.76321941600327,252.76321941600327,,255.2061660410036,,,,,,,,,,,,,,,,,,,,,,,,,,,,,,left,0.0,2.4389808749983786,,,,,sub-167,1,random_dot,120.14026328344592,
right,right,24.0,0.0,12.0,left,0.0,1.317507250001654,,accuracy,space,3.8437629579930217,,,,,,0.0,0.0,0.0,0.0,12.0,0.0,24.0,1.0,255.21429387500396,,,,,,,,,255.20656845800116,256.0047808750023,256.7971984579999,256.7889187910041,256.78938787500374,256.7971984579999,256.7971984579999,256.7971984579999,,258.1227154160006,,,,,,,,,,,,,,,,,,,,,,,,,,,,,,left,0.0,1.317507250001654,,,,,sub-167,1,random_dot,120.14026328344592,
left,left,25.0,1.0,12.0,left,1.0,2.4623407920007594,,accuracy,space,3.8437629579930217,,,,,,0.0,0.0,0.0,0.0,12.0,1.0,25.0,0.0,258.131060041007,,,,,,,,,258.12312204100454,258.47147387500445,259.2646489580002,259.255961750001,259.2565651660043,259.2646489580002,259.2646489580002,259.2646489580002,,261.72969670800376,,,,,,,,,,,,,,,,,,,,,,,,,,,,,,left,1.0,2.4623407920007594,,,,,sub-167,1,random_dot,120.14026328344592,
left,left,26.0,0.0,13.0,right,0.0,1.2185732500001905,,accuracy,space,3.8437629579930217,,,,,,0.0,0.0,0.0,0.0,13.0,0.0,26.0,0.0,261.7378472910059,,,,,,,,,261.7300994160032,262.52825275000214,263.3301697080024,263.3223900000012,263.3228538750045,263.3301697080024,263.3301697080024,263.3301697080024,,264.5562530410025,,,,,,,,,,,,,,,,,,,,,,,,,,,,,,right,0.0,1.2185732500001905,,,,,sub-167,1,random_dot,120.14026328344592,
right,right,27.0,1.0,13.0,right,1.0,2.716970542001945,,accuracy,space,3.8437629579930217,,,,,,0.0,0.0,0.0,0.0,13.0,1.0,27.0,1.0,264.5645312080014,,,,,,,,,264.55666395800654,265.7552476250057,266.54764487500506,266.5393679580011,266.53989400000137,266.54764487500506,266.54764487500506,266.54764487500506,,269.2732221660044,,,,,,,,,,,,,,,,,,,,,,,,,,,,,,right,1.0,2.716970542001945,,,,,sub-167,1,random_dot,120.14026328344592,
right,right,28.0,0.0,14.0,right,1.0,2.082499958996777,,accuracy,space,3.8437629579930217,,,,,,0.0,0.0,0.0,0.0,14.0,0.0,28.0,1.0,269.28172070800065,,,,,,,,,269.2736294580027,270.471719125002,271.2646544160016,271.2561746660067,271.2566995000016,271.2646544160016,271.2646544160016,271.2646544160016,,273.3565416250058,,,,,,,,,,,,,,,,,,,,,,,,,,,,,,right,1.0,2.082499958996777,,,,,sub-167,1,random_dot,120.14026328344592,
left,left,29.0,1.0,14.0,left,1.0,1.8925010839957397,,accuracy,space,3.8437629579930217,,,,,,0.0,0.0,0.0,0.0,14.0,1.0,29.0,0.0,273.36501275000046,,,,,,,,,273.35694645800686,274.15530445800687,274.9471806250003,274.9392429580039,274.9397026660008,274.9471806250003,274.9471806250003,274.9471806250003,,276.8469500830033,,,,,,,,,,,,,,,,,,,,,,,,,,,,,,left,1.0,1.8925010839957397,,,,,sub-167,1,random_dot,120.14026328344592,
right,right,30.0,0.0,15.0,right,1.0,3.417355541998404,,accuracy,space,3.8437629579930217,,,,,,0.0,0.0,0.0,0.0,15.0,0.0,30.0,1.0,276.85551391600166,,,,,,,,,276.84734545800166,277.1951083330059,277.9875997910058,277.97944516600546,277.9799276660051,277.9875997910058,277.9875997910058,277.9875997910058,,281.4073854160015,,,,,,,,,,,,,,,,,,,,,,,,,,,,,,right,1.0,3.417355541998404,,,,,sub-167,1,random_dot,120.14026328344592,
left,left,31.0,1.0,15.0,left,1.0,2.799694291999913,,accuracy,space,3.8437629579930217,,,,,,0.0,0.0,0.0,0.0,15.0,1.0,31.0,0.0,281.41300791600224,,,,,,,,,281.407792500002,281.7555766250007,282.5472030000019,282.53917908300355,282.5396456660019,282.5472030000019,282.5472030000019,282.5472030000019,,285.3564188330056,,,,,,,,,,,,,,,,,,,,,,,,,,,,,,left,1.0,2.799694291999913,,,,,sub-167,1,random_dot,120.14026328344592,
left,left,32.0,0.0,16.0,left,1.0,1.7911475840010098,,accuracy,space,3.8437629579930217,,,,,,0.0,0.0,0.0,0.0,16.0,0.0,32.0,0.0,285.3624787500012,,,,,,,,,285.35663683300663,286.14575300000433,286.9476604160009,286.9394838750013,286.93997795800533,286.9476604160009,286.9476604160009,286.9476604160009,,288.74095387499983,,,,,,,,,,,,,,,,,,,,,,,,,,,,,,left,1.0,1.7911475840010098,,,,,sub-167,1,random_dot,120.14026328344592,
right,right,33.0,1.0,16.0,left,0.0,3.043525749999389,,accuracy,space,3.8437629579930217,,,,,,0.0,0.0,0.0,0.0,16.0,1.0,33.0,1.0,288.74678487500205,,,,,,,,,288.7413548750046,289.0890232080056,289.88042029100325,289.8727357080061,289.87319141600165,289.88042029100325,289.88042029100325,289.88042029100325,,292.93076825000026,,,,,,,,,,,,,,,,,,,,,,,,,,,,,,left,0.0,3.043525749999389,,,,,sub-167,1,random_dot,120.14026328344592,
left,left,34.0,0.0,17.0,left,1.0,3.41235137500189,,accuracy,space,3.8437629579930217,,,,,,0.0,0.0,0.0,0.0,17.0,0.0,34.0,0.0,292.93929383300565,,,,,,,,,292.93116900000314,294.1292888750031,294.92208125000616,294.91278712500207,294.91325812500145,294.92208125000616,294.92208125000616,294.92208125000616,,298.34051804100454,,,,,,,,,,,,,,,,,,,,,,,,,,,,,,left,1.0,3.41235137500189,,,,,sub-167,1,random_dot,120.14026328344592,
right,right,35.0,1.0,17.0,left,0.0,2.6548706670000684,,accuracy,space,3.8437629579930217,,,,,,0.0,0.0,0.0,0.0,17.0,1.0,35.0,1.0,298.34892445800506,,,,,,,,,298.340928291007,298.43826000000263,299.2311277080007,299.22305645800225,299.2235155410017,299.2311277080007,299.2311277080007,299.2311277080007,,301.89036379100435,,,,,,,,,,,,,,,,,,,,,,,,,,,,,,left,0.0,2.6548706670000684,,,,,sub-167,1,random_dot,120.14026328344592,
left,left,36.0,0.0,18.0,left,1.0,3.3995613329971093,,accuracy,space,3.8437629579930217,,,,,,0.0,0.0,0.0,0.0,18.0,0.0,36.0,0.0,301.8987861660062,,,,,,,,,301.8907621660037,302.239499000003,303.03159333300573,303.02302887500264,303.0234852499998,303.03159333300573,303.03159333300573,303.03159333300573,,306.4406766250031,,,,,,,,,,,,,,,,,,,,,,,,,,,,,,left,1.0,3.3995613329971093,,,,,sub-167,1,random_dot,120.14026328344592,
right,right,37.0,1.0,18.0,right,1.0,1.2211065419978695,,accuracy,space,3.8437629579930217,,,,,,0.0,0.0,0.0,0.0,18.0,1.0,37.0,1.0,306.4490076250004,,,,,,,,,306.44109929100523,307.2391526660067,308.031128583003,308.0233317500024,308.0237780000025,308.031128583003,308.031128583003,308.031128583003,,309.257455125,,,,,,,,,,,,,,,,,,,,,,,,,,,,,,right,1.0,1.2211065419978695,,,,,sub-167,1,random_dot,120.14026328344592,
right,right,38.0,0.0,19.0,left,0.0,1.5670581250014948,,accuracy,space,3.8437629579930217,,,,,,0.0,0.0,0.0,0.0,19.0,0.0,38.0,1.0,309.26569470800314,,,,,,,,,309.25786950000474,310.0559180830023,310.8486309159998,310.8403259160041,310.8408795830037,310.8486309159998,310.8486309159998,310.8486309159998,,312.4240476250052,,,,,,,,,,,,,,,,,,,,,,,,,,,,,,left,0.0,1.5670581250014948,,,,,sub-167,1,random_dot,120.14026328344592,
left,left,39.0,1.0,19.0,right,0.0,1.393021583004156,,accuracy,space,3.8437629579930217,,,,,,0.0,0.0,0.0,0.0,19.0,1.0,39.0,0.0,312.4324878330008,,,,,,,,,312.42446854100126,313.62302612500207,314.41545304100146,314.40703804100485,314.40757070800464,314.41545304100146,314.41545304100146,314.41545304100146,,315.8147018330056,,,,,,,,,,,,,,,,,,,,,,,,,,,,,,right,0.0,1.393021583004156,,,,,sub-167,1,random_dot,120.14026328344592,
left,left,40.0,0.0,20.0,left,1.0,5.617722874994797,,accuracy,space,3.8437629579930217,,,,,,0.0,0.0,0.0,0.0,20.0,0.0,40.0,0.0,315.8232683750029,,,,,,,,,315.8151079160016,316.61179175000143,317.4057095830067,317.39531587500096,317.3958103330005,317.4057095830067,317.4057095830067,317.4057095830067,322.3894825000025,323.03223366600287,,,,,,,,,,,,,,,,,,,,,,,,,,,,,,left,1.0,5.617722874994797,,,,,sub-167,1,random_dot,120.14026328344592,
right,right,41.0,1.0,20.0,left,0.0,2.129909041002975,,accuracy,space,3.8437629579930217,,,,,,0.0,0.0,0.0,0.0,20.0,1.0,41.0,1.0,323.0559817500034,,,,,,,,,323.0326427079999,323.82994837500155,324.6316356660027,324.62374100000306,324.6242066660052,324.6316356660027,324.6316356660027,324.6316356660027,,326.76492362499994,,,,,,,,,,,,,,,,,,,,,,,,,,,,,,left,0.0,2.129909041002975,,,,,sub-167,1,random_dot,120.14026328344592,
left,left,42.0,0.0,21.0,right,0.0,2.1911488749974524,,accuracy,space,3.8437629579930217,,,,,,0.0,0.0,0.0,0.0,21.0,0.0,42.0,0.0,326.7735507910038,,,,,,,,,326.765319750004,327.563049041004,328.355961375004,328.34660333300417,328.3471245000037,328.355961375004,328.355961375004,328.355961375004,,330.5737686660068,,,,,,,,,,,,,,,,,,,,,,,,,,,,,,right,0.0,2.1911488749974524,,,,,sub-167,1,random_dot,120.14026328344592,
right,right,43.0,1.0,21.0,left,0.0,1.887455083000532,,accuracy,space,3.8437629579930217,,,,,,0.0,0.0,0.0,0.0,21.0,1.0,43.0,1.0,330.5900305000032,,,,,,,,,330.574176208007,330.6621505000003,331.45604833300604,331.4467297500014,331.4472062910063,331.45604833300604,331.45604833300604,331.45604833300604,,333.3482500410028,,,,,,,,,,,,,,,,,,,,,,,,,,,,,,left,0.0,1.887455083000532,,,,,sub-167,1,random_dot,120.14026328344592,
left,left,44.0,0.0,22.0,left,1.0,3.341153458000917,,accuracy,space,3.8437629579930217,,,,,,0.0,0.0,0.0,0.0,22.0,0.0,44.0,0.0,333.3567629160025,,,,,,,,,333.3486632500062,334.5466960410049,335.3488065410056,335.34062658300536,335.3410762910062,335.3488065410056,335.3488065410056,335.3488065410056,,338.6921530000036,,,,,,,,,,,,,,,,,,,,,,,,,,,,,,left,1.0,3.341153458000917,,,,,sub-167,1,random_dot,120.14026328344592,
right,right,45.0,1.0,22.0,right,1.0,0.9626870420033812,,accuracy,space,3.8437629579930217,,,,,,0.0,0.0,0.0,0.0,22.0,1.0,45.0,1.0,338.69805050000286,,,,,,,,,338.69255275000614,339.04007837500103,339.8321738330051,339.8240807500042,339.8245475410004,339.8321738330051,339.8321738330051,339.8321738330051,,340.7984037910064,,,,,,,,,,,,,,,,,,,,,,,,,,,,,,right,1.0,0.9626870420033812,,,,,sub-167,1,random_dot,120.14026328344592,
right,right,46.0,0.0,23.0,right,1.0,1.1837339170015184,,accuracy,space,3.8437629579930217,,,,,,0.0,0.0,0.0,0.0,23.0,0.0,46.0,1.0,340.8069694160004,,,,,,,,,340.7988035410017,341.5969837080047,342.3891357910033,342.38084266600345,342.38140175000444,342.3891357910033,342.3891357910033,342.3891357910033,,343.5749288330044,,,,,,,,,,,,,,,,,,,,,,,,,,,,,,right,1.0,1.1837339170015184,,,,,sub-167,1,random_dot,120.14026328344592,
left,left,47.0,1.0,23.0,left,1.0,1.2673895419939072,,accuracy,space,3.8437629579930217,,,,,,0.0,0.0,0.0,0.0,23.0,1.0,47.0,0.0,343.5805889580006,,,,,,,,,343.5753292080044,344.7735499160044,345.5655369580054,345.55752691600355,345.5580012500068,345.5655369580054,345.5655369580054,345.5655369580054,,346.841580625005,,,,,,,,,,,,,,,,,,,,,,,,,,,,,,left,1.0,1.2673895419939072,,,,,sub-167,1,random_dot,120.14026328344592,
left,left,48.0,0.0,24.0,right,0.0,1.264022457995452,,accuracy,space,3.8437629579930217,,,,,,0.0,0.0,0.0,0.0,24.0,0.0,48.0,0.0,346.850443000003,,,,,,,,,346.8419900000008,347.1901400830029,347.9824411660011,347.9743911250044,347.9748411660039,347.9824411660011,347.9824411660011,347.9824411660011,,349.2486510410017,,,,,,,,,,,,,,,,,,,,,,,,,,,,,,right,0.0,1.264022457995452,,,,,sub-167,1,random_dot,120.14026328344592,
right,right,49.0,1.0,24.0,left,0.0,1.2507773750039632,,accuracy,space,3.8437629579930217,,,,,,0.0,0.0,0.0,0.0,24.0,1.0,49.0,1.0,349.25726404099987,,,,,,,,,349.24903545800044,349.3465552080015,350.13976512500085,350.1306522910017,350.13114358300663,350.13976512500085,350.13976512500085,350.13976512500085,,351.399916375005,,,,,,,,,,,,,,,,,,,,,,,,,,,,,,left,0.0,1.2507773750039632,,,,,sub-167,1,random_dot,120.14026328344592,
right,right,50.0,0.0,25.0,left,0.0,1.5868125000051805,,accuracy,space,3.8437629579930217,,,,,,0.0,0.0,0.0,0.0,25.0,0.0,50.0,1.0,351.40872225000203,,,,,,,,,351.40030295800534,352.59707595800137,353.389569125,353.3812801660024,353.3817682500012,353.389569125,353.389569125,353.389569125,,354.9821695000064,,,,,,,,,,,,,,,,,,,,,,,,,,,,,,left,0.0,1.5868125000051805,,,,,sub-167,1,random_dot,120.14026328344592,
left,left,51.0,1.0,25.0,left,1.0,1.3517260420048842,,accuracy,space,3.8437629579930217,,,,,,0.0,0.0,0.0,0.0,25.0,1.0,51.0,0.0,354.9907145410034,,,,,,,,,354.98257625000406,356.1802051660052,356.97319587500533,356.9633690410046,356.96385520800686,356.97319587500533,356.97319587500533,356.97319587500533,,358.332003500007,,,,,,,,,,,,,,,,,,,,,,,,,,,,,,left,1.0,1.3517260420048842,,,,,sub-167,1,random_dot,120.14026328344592,
right,right,52.0,0.0,26.0,left,0.0,1.7443908329951228,,accuracy,space,3.8437629579930217,,,,,,0.0,0.0,0.0,0.0,26.0,0.0,52.0,1.0,358.3402429160051,,,,,,,,,358.3323929160033,359.1303334580007,359.93286512500345,359.9243727080029,359.92482816600386,359.93286512500345,359.93286512500345,359.93286512500345,,361.6820745830046,,,,,,,,,,,,,,,,,,,,,,,,,,,,,,left,0.0,1.7443908329951228,,,,,sub-167,1,random_dot,120.14026328344592,
left,left,53.0,1.0,26.0,left,1.0,4.154429374997562,,accuracy,space,3.8437629579930217,,,,,,0.0,0.0,0.0,0.0,26.0,1.0,53.0,0.0,361.69028850000177,,,,,,,,,361.6824794580025,362.4802615830049,363.2734002500001,363.2637601250026,363.2642651250062,363.2734002500001,363.2734002500001,363.2734002500001,,367.4324412080023,,,,,,,,,,,,,,,,,,,,,,,,,,,,,,left,1.0,4.154429374997562,,,,,sub-167,1,random_dot,120.14026328344592,
left,left,54.0,0.0,27.0,right,0.0,1.8257145839961595,,accuracy,space,3.8437629579930217,,,,,,0.0,0.0,0.0,0.0,27.0,0.0,54.0,0.0,367.4405071250003,,,,,,,,,367.4328372910022,367.530477750006,368.3234176250044,368.313425750006,368.3139038750014,368.3234176250044,368.3234176250044,368.3234176250044,,370.1587600000057,,,,,,,,,,,,,,,,,,,,,,,,,,,,,,right,0.0,1.8257145839961595,,,,,sub-167,1,random_dot,120.14026328344592,
right,right,55.0,1.0,27.0,left,0.0,1.452206957997987,,accuracy,space,3.8437629579930217,,,,,,0.0,0.0,0.0,0.0,27.0,1.0,55.0,1.0,370.16727908300527,,,,,,,,,370.15916383300646,370.9575488750052,371.74938512500376,371.7413533330037,371.7418121660012,371.74938512500376,371.74938512500376,371.74938512500376,,373.2085595000026,,,,,,,,,,,,,,,,,,,,,,,,,,,,,,left,0.0,1.452206957997987,,,,,sub-167,1,random_dot,120.14026328344592,
right,right,56.0,0.0,28.0,left,0.0,2.858239792003588,,accuracy,space,3.8437629579930217,,,,,,0.0,0.0,0.0,0.0,28.0,0.0,56.0,1.0,373.2170072080044,,,,,,,,,373.2089697910051,373.5575449160024,374.349694291006,374.34124658300425,374.34169195800496,374.349694291006,374.349694291006,374.349694291006,,377.2157513330021,,,,,,,,,,,,,,,,,,,,,,,,,,,,,,left,0.0,2.858239792003588,,,,,sub-167,1,random_dot,120.14026328344592,
left,left,57.0,1.0,28.0,left,1.0,4.007320165997953,,accuracy,space,3.8437629579930217,,,,,,0.0,0.0,0.0,0.0,28.0,1.0,57.0,0.0,377.2238407910045,,,,,,,,,377.2161400000041,378.0116651250064,378.8063945410031,378.7981992080022,378.79868675000034,378.8063945410031,378.8063945410031,378.8063945410031,,382.8160741250031,,,,,,,,,,,,,,,,,,,,,,,,,,,,,,left,1.0,4.007320165997953,,,,,sub-167,1,random_dot,120.14026328344592,
right,right,58.0,0.0,29.0,left,0.0,1.2541396250016987,,accuracy,space,3.8437629579930217,,,,,,0.0,0.0,0.0,0.0,29.0,0.0,58.0,1.0,382.8246928330045,,,,,,,,,382.81648558300367,383.16431695800566,383.9662131250007,383.9583100410018,383.95876595800655,383.9662131250007,383.9662131250007,383.9662131250007,,385.2258690830058,,,,,,,,,,,,,,,,,,,,,,,,,,,,,,left,0.0,1.2541396250016987,,,,,sub-167,1,random_dot,120.14026328344592,
left,left,59.0,1.0,29.0,left,1.0,2.242383124998014,,accuracy,space,3.8437629579930217,,,,,,0.0,0.0,0.0,0.0,29.0,1.0,59.0,0.0,385.234232958006,,,,,,,,,385.2262786250066,385.3245857910006,386.1164173330035,386.1083384580052,386.1087931660004,386.1164173330035,386.1164173330035,386.1164173330035,,388.3660367500052,,,,,,,,,,,,,,,,,,,,,,,,,,,,,,left,1.0,2.242383124998014,,,,,sub-167,1,random_dot,120.14026328344592,
,,0.0,0.0,0.0,,,,,accuracy,space,3.8437629579930217,,,,,,0.0,0.0,0.0,0.0,,,,,,,,,,,,,,,,,,,,,,,,,,,,,,,,,,,,,,,,,,,,,,,,,,,,,,,,,,,,sub-167,1,random_dot,120.14026328344592,
right,right,0.0,0.0,0.0,left,0.0,3.724753332993714,,speed,space,4.817885541997384,,,,,,0.0,1.0,1.0,1.0,0.0,0.0,0.0,1.0,393.23325987499993,,,,,,,,,393.2245669160038,394.0143676250009,394.8168737500018,394.8084142500011,394.8088915410044,394.8168737500018,394.8168737500018,394.8168737500018,,398.5529181250022,,,,,,,,,,,,,,,,,,,,,,,388.3835520410066,388.3912396250016,388.3912396250016,393.2158415410013,space,4.817885541997384,,left,0.0,3.724753332993714,,,,,sub-167,1,random_dot,120.14026328344592,
left,left,1.0,1.0,0.0,right,0.0,0.5884743749993504,,speed,space,4.817885541997384,,,,,,0.0,1.0,1.0,1.0,0.0,1.0,1.0,0.0,398.5744010410053,,,,,,,,,398.553320250001,398.64808762500616,399.45066758300527,399.4421677500068,399.4427052910032,399.45066758300527,399.45066758300527,399.45066758300527,,400.04269687500346,,,,,,,,,,,,,,,,,,,,,,,,,,,,,,right,0.0,0.5884743749993504,,,,,sub-167,1,random_dot,120.14026328344592,
left,left,2.0,0.0,1.0,left,1.0,0.5393129580043023,,speed,space,4.817885541997384,,,,,,0.0,1.0,1.0,1.0,1.0,0.0,2.0,0.0,400.0509286660017,,,,,,,,,400.04308808300266,400.8415792910018,401.6331238330022,401.6253498750011,401.62580966600217,401.6331238330022,401.6331238330022,401.6331238330022,,402.175900041002,,,,,,,,,,,,,,,,,,,,,,,,,,,,,,left,1.0,0.5393129580043023,,,,,sub-167,1,random_dot,120.14026328344592,
right,right,3.0,1.0,1.0,right,1.0,0.5072842910012696,,speed,space,4.817885541997384,,,,,,0.0,1.0,1.0,1.0,1.0,1.0,3.0,1.0,402.1815416660029,,,,,,,,,402.17630587500025,402.9747963750051,403.7679357080051,403.7590606660015,403.759651458,403.7679357080051,403.7679357080051,403.7679357080051,,404.28346920800686,,,,,,,,,,,,,,,,,,,,,,,,,,,,,,right,1.0,0.5072842910012696,,,,,sub-167,1,random_dot,120.14026328344592,
left,left,4.0,0.0,2.0,left,1.0,0.4218849590033642,,speed,space,4.817885541997384,,,,,,0.0,1.0,1.0,1.0,2.0,0.0,4.0,0.0,404.30771595800616,,,,,,,,,404.2839645410058,405.08035529100016,405.8738978330002,405.8656166660003,405.8661336250007,405.8738978330002,405.8738978330002,405.8738978330002,,406.3000480000046,,,,,,,,,,,,,,,,,,,,,,,,,,,,,,left,1.0,0.4218849590033642,,,,,sub-167,1,random_dot,120.14026328344592,
right,right,5.0,1.0,2.0,left,0.0,2.631623875000514,,speed,space,4.817885541997384,,,,,,0.0,1.0,1.0,1.0,2.0,1.0,5.0,1.0,406.3080034160012,,,,,,,,,406.3004437080017,406.39860075000615,407.2013095410002,407.1924886660054,407.1930953750052,407.2013095410002,407.2013095410002,407.2013095410002,,409.84282229100063,,,,,,,,,,,,,,,,,,,,,,,,,,,,,,left,0.0,2.631623875000514,,,,,sub-167,1,random_dot,120.14026328344592,
right,right,6.0,0.0,3.0,right,1.0,0.8005037080001784,,speed,space,4.817885541997384,,,,,,0.0,1.0,1.0,1.0,3.0,0.0,6.0,1.0,409.8511125410005,,,,,,,,,409.8432392080067,410.1915266249998,410.9831623330029,410.9755315000002,410.97600154100655,410.9831623330029,410.9831623330029,410.9831623330029,,411.7932007080017,,,,,,,,,,,,,,,,,,,,,,,,,,,,,,right,1.0,0.8005037080001784,,,,,sub-167,1,random_dot,120.14026328344592,
left,left,7.0,1.0,3.0,left,1.0,0.6991264579992276,,speed,space,4.817885541997384,,,,,,0.0,1.0,1.0,1.0,3.0,1.0,7.0,0.0,411.80152450000605,,,,,,,,,411.7935995000007,412.5915519580012,413.3843616660015,413.37583354100207,413.37643404100527,413.3843616660015,413.3843616660015,413.3843616660015,,414.0932355000041,,,,,,,,,,,,,,,,,,,,,,,,,,,,,,left,1.0,0.6991264579992276,,,,,sub-167,1,random_dot,120.14026328344592,
right,right,8.0,0.0,4.0,left,0.0,0.541575749994081,,speed,space,4.817885541997384,,,,,,0.0,1.0,1.0,1.0,4.0,0.0,8.0,1.0,414.1016825000042,,,,,,,,,414.09363529100665,414.8918035410025,415.68366029100434,415.675646583004,415.67616166600055,415.68366029100434,415.68366029100434,415.68366029100434,,416.2343911660064,,,,,,,,,,,,,,,,,,,,,,,,,,,,,,left,0.0,0.541575749994081,,,,,sub-167,1,random_dot,120.14026328344592,
left,left,9.0,1.0,4.0,left,1.0,0.5479197089953232,,speed,space,4.817885541997384,,,,,,0.0,1.0,1.0,1.0,4.0,1.0,9.0,0.0,416.2579855830045,,,,,,,,,416.2347776250026,416.5814465830045,417.3745146250003,417.3645288330008,417.3650009580015,417.3745146250003,417.3745146250003,417.3745146250003,,417.9263790410041,,,,,,,,,,,,,,,,,,,,,,,,,,,,,,left,1.0,0.5479197089953232,,,,,sub-167,1,random_dot,120.14026328344592,
left,left,10.0,0.0,5.0,right,0.0,0.6500245000061113,,speed,space,4.817885541997384,,,,,,0.0,1.0,1.0,1.0,5.0,0.0,10.0,0.0,417.9320724160061,,,,,,,,,417.9267754160028,418.27526883300015,419.06765920800535,419.0593097080055,419.0597699160062,419.06765920800535,419.06765920800535,419.06765920800535,,419.72627237500274,,,,,,,,,,,,,,,,,,,,,,,,,,,,,,right,0.0,0.6500245000061113,,,,,sub-167,1,random_dot,120.14026328344592,
right,right,11.0,1.0,5.0,right,1.0,1.051980707998155,,speed,space,4.817885541997384,,,,,,0.0,1.0,1.0,1.0,5.0,1.0,11.0,1.0,419.7347642500026,,,,,,,,,419.72666341600416,420.5152802500015,421.3080943750029,421.2989509580002,421.2994211250043,421.3080943750029,421.3080943750029,421.3080943750029,,422.36726950000593,,,,,,,,,,,,,,,,,,,,,,,,,,,,,,right,1.0,1.051980707998155,,,,,sub-167,1,random_dot,120.14026328344592,
right,right,12.0,0.0,6.0,left,0.0,0.6120600829963223,,speed,space,4.817885541997384,,,,,,0.0,1.0,1.0,1.0,6.0,0.0,12.0,1.0,422.3757158330045,,,,,,,,,422.367656541006,422.4653254160002,423.2571750000061,423.2491034580016,423.2495737080026,423.2571750000061,423.2571750000061,423.2571750000061,,423.8764321250055,,,,,,,,,,,,,,,,,,,,,,,,,,,,,,left,0.0,0.6120600829963223,,,,,sub-167,1,random_dot,120.14026328344592,
left,left,13.0,1.0,6.0,right,0.0,0.627065250002488,,speed,space,4.817885541997384,,,,,,0.0,1.0,1.0,1.0,6.0,1.0,13.0,0.0,423.8850511660057,,,,,,,,,423.8768232910006,424.675063708004,425.4671284580036,425.4593342500011,425.4598246250025,425.4671284580036,425.4671284580036,425.4671284580036,,426.1003797080048,,,,,,,,,,,,,,,,,,,,,,,,,,,,,,right,0.0,0.627065250002488,,,,,sub-167,1,random_dot,120.14026328344592,
left,left,14.0,0.0,7.0,right,0.0,0.4026842919993214,,speed,space,4.817885541997384,,,,,,0.0,1.0,1.0,1.0,7.0,0.0,14.0,0.0,426.1087711250002,,,,,,,,,426.10077291600464,426.89875904100336,427.6915378750055,427.6821755000056,427.6826542080016,427.6915378750055,427.6915378750055,427.6915378750055,,428.10061895800027,,,,,,,,,,,,,,,,,,,,,,,,,,,,,,right,0.0,0.4026842919993214,,,,,sub-167,1,random_dot,120.14026328344592,
right,right,15.0,1.0,7.0,right,1.0,0.4800234170033945,,speed,space,4.817885541997384,,,,,,0.0,1.0,1.0,1.0,7.0,1.0,15.0,1.0,428.10899304100167,,,,,,,,,428.1010219160016,428.4488252500014,429.2410789160058,429.232717208004,429.2332788750064,429.2410789160058,429.2410789160058,429.2410789160058,,429.7268649160033,,,,,,,,,,,,,,,,,,,,,,,,,,,,,,right,1.0,0.4800234170033945,,,,,sub-167,1,random_dot,120.14026328344592,
left,left,16.0,0.0,8.0,left,1.0,0.3748613749994547,,speed,space,4.817885541997384,,,,,,0.0,1.0,1.0,1.0,8.0,0.0,16.0,0.0,429.73516100000415,,,,,,,,,429.727271583004,429.82558704100666,430.61771445800696,430.6094304160069,430.6098817080056,430.61771445800696,430.61771445800696,430.61771445800696,,431.00016437500017,,,,,,,,,,,,,,,,,,,,,,,,,,,,,,left,1.0,0.3748613749994547,,,,,sub-167,1,random_dot,120.14026328344592,
right,right,17.0,1.0,8.0,left,0.0,0.5133364170033019,,speed,space,4.817885541997384,,,,,,0.0,1.0,1.0,1.0,8.0,1.0,17.0,1.0,431.0081127080048,,,,,,,,,431.0005636250062,431.0986945830009,431.8918038750053,431.88238795800135,431.8829348330037,431.8918038750053,431.8918038750053,431.8918038750053,,432.41012225000304,,,,,,,,,,,,,,,,,,,,,,,,,,,,,,left,0.0,0.5133364170033019,,,,,sub-167,1,random_dot,120.14026328344592,
right,right,18.0,0.0,9.0,left,0.0,0.5010934170059045,,speed,space,4.817885541997384,,,,,,0.0,1.0,1.0,1.0,9.0,0.0,18.0,1.0,432.4181214160053,,,,,,,,,432.4105240830031,432.7588282910001,433.5513933330003,433.5430216250024,433.5436183750062,433.5513933330003,433.5513933330003,433.5513933330003,,434.0599802500001,,,,,,,,,,,,,,,,,,,,,,,,,,,,,,left,0.0,0.5010934170059045,,,,,sub-167,1,random_dot,120.14026328344592,
left,left,19.0,1.0,9.0,left,1.0,0.8247913340019295,,speed,space,4.817885541997384,,,,,,0.0,1.0,1.0,1.0,9.0,1.0,19.0,0.0,434.0681858750031,,,,,,,,,434.0603816250005,434.1492600000056,434.951049041003,434.9425904160016,434.9430630000061,434.951049041003,434.951049041003,434.951049041003,,435.78777204100334,,,,,,,,,,,,,,,,,,,,,,,,,,,,,,left,1.0,0.8247913340019295,,,,,sub-167,1,random_dot,120.14026328344592,
right,right,20.0,0.0,10.0,right,1.0,0.6529789579944918,,speed,space,4.817885541997384,,,,,,0.0,1.0,1.0,1.0,10.0,0.0,20.0,1.0,435.793910458,,,,,,,,,435.7881319580047,436.582769916,437.3741659160005,437.3660206660061,437.3665221250049,437.3741659160005,437.3741659160005,437.3741659160005,,438.0344666250021,,,,,,,,,,,,,,,,,,,,,,,,,,,,,,right,1.0,0.6529789579944918,,,,,sub-167,1,random_dot,120.14026328344592,
left,left,21.0,1.0,10.0,left,1.0,0.619418084002973,,speed,space,4.817885541997384,,,,,,0.0,1.0,1.0,1.0,10.0,1.0,21.0,0.0,438.0593130410052,,,,,,,,,438.0349126660003,438.83252837500186,439.634651750006,439.6264261250035,439.626899916002,439.634651750006,439.634651750006,439.634651750006,,440.26032820800174,,,,,,,,,,,,,,,,,,,,,,,,,,,,,,left,1.0,0.619418084002973,,,,,sub-167,1,random_dot,120.14026328344592,
left,left,22.0,0.0,11.0,left,1.0,0.5361982909962535,,speed,space,4.817885541997384,,,,,,0.0,1.0,1.0,1.0,11.0,0.0,22.0,0.0,440.26808500000334,,,,,,,,,440.26073020800686,440.3589505000055,441.151612833004,441.1427892080028,441.14325383300456,441.151612833004,441.151612833004,441.151612833004,,441.6934614580023,,,,,,,,,,,,,,,,,,,,,,,,,,,,,,left,1.0,0.5361982909962535,,,,,sub-167,1,random_dot,120.14026328344592,
right,right,23.0,1.0,11.0,right,1.0,0.6120115410012659,,speed,space,4.817885541997384,,,,,,0.0,1.0,1.0,1.0,11.0,1.0,23.0,1.0,441.7017185410005,,,,,,,,,441.6938553330037,442.0423116250022,442.8346617500065,442.8263216660053,442.8267637080062,442.8346617500065,442.8346617500065,442.8346617500065,,443.4505657910049,,,,,,,,,,,,,,,,,,,,,,,,,,,,,,right,1.0,0.6120115410012659,,,,,sub-167,1,random_dot,120.14026328344592,
right,right,24.0,0.0,12.0,left,0.0,0.91938345899689,,speed,space,4.817885541997384,,,,,,0.0,1.0,1.0,1.0,12.0,0.0,24.0,1.0,443.4586334160049,,,,,,,,,443.4509885410007,444.249549541004,445.0418319160017,445.0326187080064,445.0330983330059,445.0418319160017,445.0418319160017,445.0418319160017,,445.9673261250064,,,,,,,,,,,,,,,,,,,,,,,,,,,,,,left,0.0,0.91938345899689,,,,,sub-167,1,random_dot,120.14026328344592,
left,left,25.0,1.0,12.0,left,1.0,0.5745245419966523,,speed,space,4.817885541997384,,,,,,0.0,1.0,1.0,1.0,12.0,1.0,25.0,0.0,445.9755796660029,,,,,,,,,445.96772791600233,446.765574750003,447.5675958749998,447.559584583003,447.5600566250069,447.5675958749998,447.5675958749998,447.5675958749998,,448.1441850830015,,,,,,,,,,,,,,,,,,,,,,,,,,,,,,left,1.0,0.5745245419966523,,,,,sub-167,1,random_dot,120.14026328344592,
right,right,26.0,0.0,13.0,left,0.0,0.7589972909991047,,speed,space,4.817885541997384,,,,,,0.0,1.0,1.0,1.0,13.0,0.0,26.0,1.0,448.1501927500067,,,,,,,,,448.14458845800254,449.3425247500054,450.1345562500064,450.1263647500018,450.1268431250064,450.1345562500064,450.1345562500064,450.1345562500064,,450.9007860000056,,,,,,,,,,,,,,,,,,,,,,,,,,,,,,left,0.0,0.7589972909991047,,,,,sub-167,1,random_dot,120.14026328344592,
left,left,27.0,1.0,13.0,right,0.0,0.7622014590015169,,speed,space,4.817885541997384,,,,,,0.0,1.0,1.0,1.0,13.0,1.0,27.0,0.0,450.9088035830064,,,,,,,,,450.9011735410022,451.69923958300205,452.5011695410067,452.4932367500005,452.4936877080036,452.5011695410067,452.5011695410067,452.5011695410067,,453.2674345830019,,,,,,,,,,,,,,,,,,,,,,,,,,,,,,right,0.0,0.7622014590015169,,,,,sub-167,1,random_dot,120.14026328344592,
right,right,28.0,0.0,14.0,right,1.0,0.6282568339956924,,speed,space,4.817885541997384,,,,,,0.0,1.0,1.0,1.0,14.0,0.0,28.0,1.0,453.275462291007,,,,,,,,,453.2678253750055,454.46639445800247,455.31912695800565,455.3103286660044,455.3106602910048,455.31912695800565,455.31912695800565,455.31912695800565,,455.951155833005,,,,,,,,,,,,,,,,,,,,,,,,,,,,,,right,1.0,0.6282568339956924,,,,,sub-167,1,random_dot,120.14026328344592,
left,left,29.0,1.0,14.0,right,0.0,0.7751557079973281,,speed,space,4.817885541997384,,,,,,0.0,1.0,1.0,1.0,14.0,1.0,29.0,0.0,455.9756926660048,,,,,,,,,455.951581375004,457.1496332910028,457.9511321250029,457.9431900000054,457.94368108300114,457.9511321250029,457.9511321250029,457.9511321250029,,458.7357642080024,,,,,,,,,,,,,,,,,,,,,,,,,,,,,,right,0.0,0.7751557079973281,,,,,sub-167,1,random_dot,120.14026328344592,
right,right,30.0,0.0,15.0,left,0.0,1.6754463329998543,,speed,space,4.817885541997384,,,,,,0.0,1.0,1.0,1.0,15.0,0.0,30.0,1.0,458.7445965000006,,,,,,,,,458.736153333004,459.5327007500018,460.325102958006,460.3165440410012,460.317041291004,460.325102958006,460.325102958006,460.325102958006,,462.0109886660066,,,,,,,,,,,,,,,,,,,,,,,,,,,,,,left,0.0,1.6754463329998543,,,,,sub-167,1,random_dot,120.14026328344592,
left,left,31.0,1.0,15.0,right,0.0,0.3858856669976376,,speed,space,4.817885541997384,,,,,,0.0,1.0,1.0,1.0,15.0,1.0,31.0,0.0,462.01945908300695,,,,,,,,,462.0114003330018,462.10963650000485,462.9018629580023,462.8936676660014,462.894212791005,462.9018629580023,462.9018629580023,462.9018629580023,,463.293845375003,,,,,,,,,,,,,,,,,,,,,,,,,,,,,,right,0.0,0.3858856669976376,,,,,sub-167,1,random_dot,120.14026328344592,
right,right,32.0,0.0,16.0,right,1.0,0.5664996670020628,,speed,space,4.817885541997384,,,,,,0.0,1.0,1.0,1.0,16.0,0.0,32.0,1.0,463.302123458001,,,,,,,,,463.2942697910039,463.6429065830016,464.435587333006,464.4265329160044,464.4270104160023,464.435587333006,464.435587333006,464.435587333006,,465.0107275830014,,,,,,,,,,,,,,,,,,,,,,,,,,,,,,right,1.0,0.5664996670020628,,,,,sub-167,1,random_dot,120.14026328344592,
left,left,33.0,1.0,16.0,left,1.0,0.6407067500040284,,speed,space,4.817885541997384,,,,,,0.0,1.0,1.0,1.0,16.0,1.0,33.0,0.0,465.01944495800126,,,,,,,,,465.0111520410064,465.809532916006,466.6019710830005,466.5936702079998,466.59414162500616,466.6019710830005,466.6019710830005,466.6019710830005,,467.2448511660041,,,,,,,,,,,,,,,,,,,,,,,,,,,,,,left,1.0,0.6407067500040284,,,,,sub-167,1,random_dot,120.14026328344592,
right,right,34.0,0.0,17.0,right,1.0,0.5272478749975562,,speed,space,4.817885541997384,,,,,,0.0,1.0,1.0,1.0,17.0,0.0,34.0,1.0,467.250627791007,,,,,,,,,467.245245750004,468.0428224580028,468.83469300000434,468.8268109160053,468.8272763330024,468.83469300000434,468.83469300000434,468.83469300000434,,469.3685852080016,,,,,,,,,,,,,,,,,,,,,,,,,,,,,,right,1.0,0.5272478749975562,,,,,sub-167,1,random_dot,120.14026328344592,
left,left,35.0,1.0,17.0,left,1.0,0.4922099999967031,,speed,space,4.817885541997384,,,,,,0.0,1.0,1.0,1.0,17.0,1.0,35.0,0.0,469.3924550830052,,,,,,,,,469.3689702500051,470.5655530830045,471.3592652080042,471.3498817080035,471.3503681660004,471.3592652080042,471.3592652080042,471.3592652080042,,471.8608962080034,,,,,,,,,,,,,,,,,,,,,,,,,,,,,,left,1.0,0.4922099999967031,,,,,sub-167,1,random_dot,120.14026328344592,
left,left,36.0,0.0,18.0,right,0.0,0.5766893330001039,,speed,space,4.817885541997384,,,,,,0.0,1.0,1.0,1.0,18.0,0.0,36.0,0.0,471.8695094160066,,,,,,,,,471.8613126660057,471.95974283300166,472.7525037910018,472.7436871250029,472.7442442500033,472.7525037910018,472.7525037910018,472.7525037910018,,473.3348850000039,,,,,,,,,,,,,,,,,,,,,,,,,,,,,,right,0.0,0.5766893330001039,,,,,sub-167,1,random_dot,120.14026328344592,
right,right,37.0,1.0,18.0,left,0.0,0.6661408330037375,,speed,space,4.817885541997384,,,,,,0.0,1.0,1.0,1.0,18.0,1.0,37.0,1.0,473.34305258300446,,,,,,,,,473.3352745000011,474.5334663330068,475.33508491600514,475.3270567910004,475.32752920799976,475.33508491600514,475.33508491600514,475.33508491600514,,476.011153833002,,,,,,,,,,,,,,,,,,,,,,,,,,,,,,left,0.0,0.6661408330037375,,,,,sub-167,1,random_dot,120.14026328344592,
left,left,38.0,0.0,19.0,right,0.0,0.6346839159959927,,speed,space,4.817885541997384,,,,,,0.0,1.0,1.0,1.0,19.0,0.0,38.0,0.0,476.0194902910007,,,,,,,,,476.0115720829999,476.8097330000018,477.601862375006,477.5937659580013,477.5942343330025,477.601862375006,477.601862375006,477.601862375006,,478.2444884160068,,,,,,,,,,,,,,,,,,,,,,,,,,,,,,right,0.0,0.6346839159959927,,,,,sub-167,1,random_dot,120.14026328344592,
right,right,39.0,1.0,19.0,left,0.0,0.6434353330041631,,speed,space,4.817885541997384,,,,,,0.0,1.0,1.0,1.0,19.0,1.0,39.0,1.0,478.25297633300215,,,,,,,,,478.2449041660002,478.5933470410018,479.3856410410008,479.3771111660026,479.3776307500011,479.3856410410008,479.3856410410008,479.3856410410008,,480.0371024160049,,,,,,,,,,,,,,,,,,,,,,,,,,,,,,left,0.0,0.6434353330041631,,,,,sub-167,1,random_dot,120.14026328344592,
right,right,40.0,0.0,20.0,right,1.0,0.8637493330024881,,speed,space,4.817885541997384,,,,,,0.0,1.0,1.0,1.0,20.0,0.0,40.0,1.0,480.0446783750013,,,,,,,,,480.03754783300246,480.843110875001,481.6545965000041,481.6388944999999,481.63918212499993,481.6545965000041,481.6545965000041,481.6545965000041,,482.5276697910013,,,,,,,,,,,,,,,,,,,,,,,,,,,,,,right,1.0,0.8637493330024881,,,,,sub-167,1,random_dot,120.14026328344592,
left,left,41.0,1.0,20.0,left,1.0,0.7658894999985932,,speed,space,4.817885541997384,,,,,,0.0,1.0,1.0,1.0,20.0,1.0,41.0,0.0,482.53687162500137,,,,,,,,,482.5288373750009,483.72608112500166,484.5173773750066,484.51016179100407,484.510678041006,484.5173773750066,484.5173773750066,484.5173773750066,,485.2950592500056,,,,,,,,,,,,,,,,,,,,,,,,,,,,,,left,1.0,0.7658894999985932,,,,,sub-167,1,random_dot,120.14026328344592,
left,left,42.0,0.0,21.0,right,0.0,0.5891192499984754,,speed,space,4.817885541997384,,,,,,0.0,1.0,1.0,1.0,21.0,0.0,42.0,0.0,485.3033048330035,,,,,,,,,485.2956224580048,486.4928585000016,487.2849325410061,487.2771735830029,487.2775945410031,487.2849325410061,487.2849325410061,487.2849325410061,,487.87843212500593,,,,,,,,,,,,,,,,,,,,,,,,,,,,,,right,0.0,0.5891192499984754,,,,,sub-167,1,random_dot,120.14026328344592,
right,right,43.0,1.0,21.0,left,0.0,0.9316553750031744,,speed,space,4.817885541997384,,,,,,0.0,1.0,1.0,1.0,21.0,1.0,43.0,1.0,487.8857453750024,,,,,,,,,487.8788974160052,488.6764817080039,489.4652705410044,489.4598392910048,489.46004420800455,489.4652705410044,489.4652705410044,489.4652705410044,,490.4025765410042,,,,,,,,,,,,,,,,,,,,,,,,,,,,,,left,0.0,0.9316553750031744,,,,,sub-167,1,random_dot,120.14026328344592,
right,right,44.0,0.0,22.0,right,1.0,2.390273666998837,,speed,space,4.817885541997384,,,,,,0.0,1.0,1.0,1.0,22.0,0.0,44.0,1.0,490.4102752500039,,,,,,,,,490.4029110000047,491.199789708,491.9927208750014,491.98427712500416,491.9847766250023,491.9927208750014,491.9927208750014,491.9927208750014,,494.38524300000427,,,,,,,,,,,,,,,,,,,,,,,,,,,,,,right,1.0,2.390273666998837,,,,,sub-167,1,random_dot,120.14026328344592,
left,left,45.0,1.0,22.0,left,1.0,0.6436247919991729,,speed,space,4.817885541997384,,,,,,0.0,1.0,1.0,1.0,22.0,1.0,45.0,0.0,494.3932609160038,,,,,,,,,494.3856494580032,494.4838793330055,495.2857255410054,495.2775707910041,495.2780372910056,495.2857255410054,495.2857255410054,495.2857255410054,,495.93518058300106,,,,,,,,,,,,,,,,,,,,,,,,,,,,,,left,1.0,0.6436247919991729,,,,,sub-167,1,random_dot,120.14026328344592,
right,right,46.0,0.0,23.0,right,1.0,0.6244996660025208,,speed,space,4.817885541997384,,,,,,0.0,1.0,1.0,1.0,23.0,0.0,46.0,1.0,495.9433702500028,,,,,,,,,495.9355876250047,496.0338750830051,496.8356476660047,496.8274525000015,496.8279049580015,496.8356476660047,496.8356476660047,496.8356476660047,,497.4621862080021,,,,,,,,,,,,,,,,,,,,,,,,,,,,,,right,1.0,0.6244996660025208,,,,,sub-167,1,random_dot,120.14026328344592,
left,left,47.0,1.0,23.0,left,1.0,0.5087019170023268,,speed,space,4.817885541997384,,,,,,0.0,1.0,1.0,1.0,23.0,1.0,47.0,0.0,497.4702511659998,,,,,,,,,497.4625946660017,498.25984304099984,499.05316125000536,499.0446826660045,499.0452115410008,499.05316125000536,499.05316125000536,499.05316125000536,,499.5686686660047,,,,,,,,,,,,,,,,,,,,,,,,,,,,,,left,1.0,0.5087019170023268,,,,,sub-167,1,random_dot,120.14026328344592,
right,right,48.0,0.0,24.0,right,1.0,0.5431259999968461,,speed,space,4.817885541997384,,,,,,0.0,1.0,1.0,1.0,24.0,0.0,48.0,1.0,499.57723808300216,,,,,,,,,499.56906283300486,499.91766391600686,500.7188662910048,500.7109592910056,500.7114393750017,500.7188662910048,500.7188662910048,500.7188662910048,,501.2689930410052,,,,,,,,,,,,,,,,,,,,,,,,,,,,,,right,1.0,0.5431259999968461,,,,,sub-167,1,random_dot,120.14026328344592,
left,left,49.0,1.0,24.0,right,0.0,0.7872027500052354,,speed,space,4.817885541997384,,,,,,0.0,1.0,1.0,1.0,24.0,1.0,49.0,0.0,501.27705937500286,,,,,,,,,501.2693963750062,502.0675803330014,502.8697647080044,502.8612175410017,502.8617677500006,502.8697647080044,502.8697647080044,502.8697647080044,,503.6615319160046,,,,,,,,,,,,,,,,,,,,,,,,,,,,,,right,0.0,0.7872027500052354,,,,,sub-167,1,random_dot,120.14026328344592,
left,left,50.0,0.0,25.0,left,1.0,0.576717332995031,,speed,space,4.817885541997384,,,,,,0.0,1.0,1.0,1.0,25.0,0.0,50.0,0.0,503.6695925830063,,,,,,,,,503.6619296660065,504.8600798330008,505.6520765410023,505.6444663750008,505.6449556660009,505.6520765410023,505.6520765410023,505.6520765410023,,506.23451183300494,,,,,,,,,,,,,,,,,,,,,,,,,,,,,,left,1.0,0.576717332995031,,,,,sub-167,1,random_dot,120.14026328344592,
right,right,51.0,1.0,25.0,right,1.0,0.5780919589960831,,speed,space,4.817885541997384,,,,,,0.0,1.0,1.0,1.0,25.0,1.0,51.0,1.0,506.2428932910043,,,,,,,,,506.2346860410034,506.33193970800494,507.1265387500025,507.1154892500053,507.11574929100607,507.1265387500025,507.1265387500025,507.1265387500025,,507.7107407080039,,,,,,,,,,,,,,,,,,,,,,,,,,,,,,right,1.0,0.5780919589960831,,,,,sub-167,1,random_dot,120.14026328344592,
right,right,52.0,0.0,26.0,left,0.0,0.3337202499969862,,speed,space,4.817885541997384,,,,,,0.0,1.0,1.0,1.0,26.0,0.0,52.0,1.0,507.7159405410057,,,,,,,,,507.71091758300463,508.0490671660009,508.84327295800176,508.8322101660015,508.8324998750031,508.84327295800176,508.84327295800176,508.84327295800176,,509.17912445800175,,,,,,,,,,,,,,,,,,,,,,,,,,,,,,left,0.0,0.3337202499969862,,,,,sub-167,1,random_dot,120.14026328344592,
left,left,53.0,1.0,26.0,right,0.0,0.2832544159973622,,speed,space,4.817885541997384,,,,,,0.0,1.0,1.0,1.0,26.0,1.0,53.0,0.0,509.1847478330019,,,,,,,,,509.17953887500335,509.9766924580035,510.7672051250047,510.76057875000697,510.7609719580069,510.7672051250047,510.7672051250047,510.7672051250047,,511.0610499579998,,,,,,,,,,,,,,,,,,,,,,,,,,,,,,right,0.0,0.2832544159973622,,,,,sub-167,1,random_dot,120.14026328344592,
left,left,54.0,0.0,27.0,left,1.0,0.7337946249972447,,speed,space,4.817885541997384,,,,,,0.0,1.0,1.0,1.0,27.0,0.0,54.0,0.0,511.06725912500406,,,,,,,,,511.0613104160002,511.4001585830047,512.202100458002,512.1942115830025,512.1947130410044,512.202100458002,512.202100458002,512.202100458002,,512.9452598750067,,,,,,,,,,,,,,,,,,,,,,,,,,,,,,left,1.0,0.7337946249972447,,,,,sub-167,1,random_dot,120.14026328344592,
right,right,55.0,1.0,27.0,right,1.0,0.6136388339946279,,speed,space,4.817885541997384,,,,,,0.0,1.0,1.0,1.0,27.0,1.0,55.0,1.0,512.9534707500061,,,,,,,,,512.9457000830007,514.1434155410025,514.9356363330007,514.9278226660026,514.9282900830003,514.9356363330007,514.9356363330007,514.9356363330007,,515.5523944580054,,,,,,,,,,,,,,,,,,,,,,,,,,,,,,right,1.0,0.6136388339946279,,,,,sub-167,1,random_dot,120.14026328344592,
right,right,56.0,0.0,28.0,right,1.0,0.7171644579939311,,speed,space,4.817885541997384,,,,,,0.0,1.0,1.0,1.0,28.0,0.0,56.0,1.0,515.5600571660034,,,,,,,,,515.552789666006,516.7505030829998,517.5432891660021,517.5336863330012,517.5342215410055,517.5432891660021,517.5432891660021,517.5432891660021,,518.2625228329998,,,,,,,,,,,,,,,,,,,,,,,,,,,,,,right,1.0,0.7171644579939311,,,,,sub-167,1,random_dot,120.14026328344592,
left,left,57.0,1.0,28.0,left,1.0,0.8501744999957737,,speed,space,4.817885541997384,,,,,,0.0,1.0,1.0,1.0,28.0,1.0,57.0,0.0,518.2707629160068,,,,,,,,,518.2629230830062,518.3603748750029,519.1526965410012,519.1446662910021,519.1451291660051,519.1526965410012,519.1526965410012,519.1526965410012,,520.012000833005,,,,,,,,,,,,,,,,,,,,,,,,,,,,,,left,1.0,0.8501744999957737,,,,,sub-167,1,random_dot,120.14026328344592,
right,right,58.0,0.0,29.0,right,1.0,0.5388568749986007,,speed,space,4.817885541997384,,,,,,0.0,1.0,1.0,1.0,29.0,0.0,58.0,1.0,520.0204853750038,,,,,,,,,520.0124179160048,520.3604883330045,521.1523475830036,521.1445221660033,521.1449866660041,521.1523475830036,521.1523475830036,521.1523475830036,,521.6953423750019,,,,,,,,,,,,,,,,,,,,,,,,,,,,,,right,1.0,0.5388568749986007,,,,,sub-167,1,random_dot,120.14026328344592,
left,left,59.0,1.0,29.0,left,1.0,0.7428822500005481,,speed,space,4.817885541997384,,,,,,0.0,1.0,1.0,1.0,29.0,1.0,59.0,0.0,521.7007367910046,,,,,,,,,521.6957422080013,522.8940545830046,523.6862173750051,523.6780798750042,523.6785403330068,523.6862173750051,523.6862173750051,523.6862173750051,,524.4356024580047,,,,,,,,,,,,,,,,,,,,,,,,,,,,,,left,1.0,0.7428822500005481,,,,,sub-167,1,random_dot,120.14026328344592,
,,1.0,1.0,0.0,,,,,speed,space,4.817885541997384,,,,,,0.0,1.0,1.0,1.0,,,,,,,,,,,,,,,,,,,,,,,,,,,,,,,,,,,,,,,,,,,,,,,,,,,,,,,,,,,,sub-167,1,random_dot,120.14026328344592,
,,,,,,,,,,,,,,,,,,,,,,,,,,,,,,,,,,,,,,,,,,,,,,,,,,,,,,,,,,,,,,,,,,,,,,,,,,,,,524.4528576250013,524.4638917500051,529.443901000006,sub-167,1,random_dot,120.14026328344592,
