wordCTK,colorCTK,corrAnsCTK,congruentCTK,thisN,thisTrialN,thisRepN,keyResp_CTK.keys,keyResp_CTK.corr,keyResp_CTK.rt,keyResp_CTK.duration,wordPractice,colorPractice,corrAnsPractice,congruentPractice,respPractice.keys,respPractice.corr,respPractice.rt,respPractice.duration,word,color,corrAns,congruent,keyResp_test_run.keys,keyResp_test_run.corr,keyResp_test_run.rt,keyResp_test_run.duration,trials_CTK.thisRepN,trials_CTK.thisTrialN,trials_CTK.thisN,trials_CTK.thisIndex,trials_practice.thisRepN,trials_practice.thisTrialN,trials_practice.thisN,trials_practice.thisIndex,trials_test.thisRepN,trials_test.thisTrialN,trials_test.thisN,trials_test.thisIndex,thisRow.t,notes,instruction.started,instr_text.started,instr_image.started,instr_resp.started,instruction.stopped,instr_resp.keys,instr_resp.rt,instr_resp.duration,instr_color_to_key.started,instr_ctk.started,resp_ctk.started,instr_color_to_key.stopped,resp_ctk.keys,resp_ctk.rt,resp_ctk.duration,ITI.started,fixcross.started,fixcross.stopped,ITI.stopped,color_to_key_run.started,stimulus_CTK.started,keyResp_CTK.started,color_to_key_run.stopped,trials_CTK.keyResp_CTK.keys,trials_CTK.keyResp_CTK.corr,trials_CTK.keyResp_CTK.rt,trials_CTK.keyResp_CTK.duration,instr_practice.started,instr_practice_text.started,instr_practice_resp.started,instr_practice.stopped,instr_practice_resp.keys,instr_practice_resp.rt,instr_practice_resp.duration,practice_run.started,stimulus_practice.started,respPractice.started,practice_run.stopped,trials_practice.respPractice.keys,trials_practice.respPractice.corr,trials_practice.respPractice.rt,trials_practice.respPractice.duration,feedback.started,textFeedback.started,feedback.stopped,textFeedback.stopped,instr_test.started,instr_test_text.started,instr_test_resp.started,instr_test.stopped,instr_test_resp.keys,instr_test_resp.rt,instr_test_resp.duration,test_run.started,stimulus_test_run.started,keyResp_test_run.started,test_run.stopped,trials_test.keyResp_test_run.keys,trials_test.keyResp_test_run.corr,trials_test.keyResp_test_run.rt,trials_test.keyResp_test_run.duration,goodbye.started,textGoodbye.started,goodbye.stopped,participant,session,date,expName,psychopyVersion,frameRate,expStart
,,,,,,,,,,,,,,,,,,,,,,,,,,,,,,,,,,,,,,,,,0.0149147,0.0854526,0.0854526,0.0854526,61.9148831,space,61.8199821,None,,,,,,,,,,,,,,,,,,,,,,,,,,,,,,,,,,,,,,,,,,,,,,,,,,,,,,,,,sub-009,1,2025-03-13_13h06.58.724,stroop_test,04.02.2024,59.80954249,2025-03-13 13h07.26.265646 +0100
,,,,,,,,,,,,,,,,,,,,,,,,,,,,,,,,,,,,,,,,,,,,,,,,,61.9149433,61.9419298,61.9419298,75.164202,space,13.2105376,None,,,,,,,,,,,,,,,,,,,,,,,,,,,,,,,,,,,,,,,,,,,,,,,,,,sub-009,1,2025-03-13_13h06.58.724,stroop_test,04.02.2024,59.80954249,2025-03-13 13h07.26.265646 +0100
test,red,r,1,0,0,0,b,0,4.8200884,None,,,,,,,,,,,,,,,,,0,0,0,0,,,,,,,,,75.1902452,,,,,,,,,,,,,,,,,75.1842914,75.2751069,76.0911372,76.065819,76.0715172,76.0911372,76.0911372,80.9137332,b,0,4.8200884,None,,,,,,,,,,,,,,,,,,,,,,,,,,,,,,,,,,,,,,sub-009,1,2025-03-13_13h06.58.724,stroop_test,04.02.2024,59.80954249,2025-03-13 13h07.26.265646 +0100
test,blue,b,1,1,1,0,b,1,5.0883436,None,,,,,,,,,,,,,,,,,0,1,1,2,,,,,,,,,80.9243745,,,,,,,,,,,,,,,,,80.9141059,81.274822,82.0742639,82.063658,82.0640467,82.0742639,82.0742639,87.1638391,b,1,5.0883436,None,,,,,,,,,,,,,,,,,,,,,,,,,,,,,,,,,,,,,,sub-009,1,2025-03-13_13h06.58.724,stroop_test,04.02.2024,59.80954249,2025-03-13 13h07.26.265646 +0100
test,yellow,g,1,2,2,0,g,1,1.8049096,None,,,,,,,,,,,,,,,,,0,2,2,1,,,,,,,,,87.1738347,,,,,,,,,,,,,,,,,87.1641912,87.9745112,88.7741574,88.7635003,88.7640114,88.7741574,88.7741574,90.5958564,g,1,1.8049096,None,,,,,,,,,,,,,,,,,,,,,,,,,,,,,,,,,,,,,,sub-009,1,2025-03-13_13h06.58.724,stroop_test,04.02.2024,59.80954249,2025-03-13 13h07.26.265646 +0100
test,yellow,g,1,3,0,1,g,1,0.6330348,None,,,,,,,,,,,,,,,,,1,0,3,1,,,,,,,,,90.6076558,,,,,,,,,,,,,,,,,90.5961692,90.9583768,91.7579943,91.7446455,91.7448978,91.7579943,91.7579943,92.3975718,g,1,0.6330348,None,,,,,,,,,,,,,,,,,,,,,,,,,,,,,,,,,,,,,,sub-009,1,2025-03-13_13h06.58.724,stroop_test,04.02.2024,59.80954249,2025-03-13 13h07.26.265646 +0100
test,blue,b,1,4,1,1,b,1,0.4318973,None,,,,,,,,,,,,,,,,,1,1,4,2,,,,,,,,,92.4071147,,,,,,,,,,,,,,,,,92.3979447,93.6080123,94.4080935,94.3990591,94.3993677,94.4080935,94.4080935,94.8457091,b,1,0.4318973,None,,,,,,,,,,,,,,,,,,,,,,,,,,,,,,,,,,,,,,sub-009,1,2025-03-13_13h06.58.724,stroop_test,04.02.2024,59.80954249,2025-03-13 13h07.26.265646 +0100
test,red,r,1,5,2,1,r,1,0.8827128,None,,,,,,,,,,,,,,,,,1,2,5,0,,,,,,,,,94.8573615,,,,,,,,,,,,,,,,,94.8459873,95.2078952,96.0070053,95.9953795,95.9957706,96.0070053,96.0070053,96.8972366,r,1,0.8827128,None,,,,,,,,,,,,,,,,,,,,,,,,,,,,,,,,,,,,,,sub-009,1,2025-03-13_13h06.58.724,stroop_test,04.02.2024,59.80954249,2025-03-13 13h07.26.265646 +0100
test,blue,b,1,6,0,2,b,1,0.8339703,None,,,,,,,,,,,,,,,,,2,0,6,2,,,,,,,,,96.90684,,,,,,,,,,,,,,,,,96.8975163,97.0072649,97.8077344,97.7951884,97.7955539,97.8077344,97.8077344,98.6477668,b,1,0.8339703,None,,,,,,,,,,,,,,,,,,,,,,,,,,,,,,,,,,,,,,sub-009,1,2025-03-13_13h06.58.724,stroop_test,04.02.2024,59.80954249,2025-03-13 13h07.26.265646 +0100
test,red,r,1,7,1,2,r,1,3.2516309,None,,,,,,,,,,,,,,,,,2,1,7,0,,,,,,,,,98.6568853,,,,,,,,,,,,,,,,,98.6480693,98.7578638,99.5575736,99.5459087,99.5464349,99.5575736,99.5575736,102.8155349,r,1,3.2516309,None,,,,,,,,,,,,,,,,,,,,,,,,,,,,,,,,,,,,,,sub-009,1,2025-03-13_13h06.58.724,stroop_test,04.02.2024,59.80954249,2025-03-13 13h07.26.265646 +0100
test,yellow,g,1,8,2,2,g,1,0.7974708,None,,,,,,,,,,,,,,,,,2,2,8,1,,,,,,,,,102.8236673,,,,,,,,,,,,,,,,,102.8159488,103.1744397,103.9902898,103.9790766,103.9794947,103.9902898,103.9902898,104.7954994,g,1,0.7974708,None,,,,,,,,,,,,,,,,,,,,,,,,,,,,,,,,,,,,,,sub-009,1,2025-03-13_13h06.58.724,stroop_test,04.02.2024,59.80954249,2025-03-13 13h07.26.265646 +0100
test,yellow,g,1,9,0,3,g,1,0.6679622,None,,,,,,,,,,,,,,,,,3,0,9,1,,,,,,,,,104.8069187,,,,,,,,,,,,,,,,,104.7958011,104.9069091,105.7066712,105.6970153,105.6975211,105.7066712,105.7066712,106.3790938,g,1,0.6679622,None,,,,,,,,,,,,,,,,,,,,,,,,,,,,,,,,,,,,,,sub-009,1,2025-03-13_13h06.58.724,stroop_test,04.02.2024,59.80954249,2025-03-13 13h07.26.265646 +0100
test,red,r,1,10,1,3,r,1,0.7335662,None,,,,,,,,,,,,,,,,,3,1,10,0,,,,,,,,,106.3906458,,,,,,,,,,,,,,,,,106.3793406,107.1904387,107.9899475,107.9764626,107.9767215,107.9899475,107.9899475,108.7291855,r,1,0.7335662,None,,,,,,,,,,,,,,,,,,,,,,,,,,,,,,,,,,,,,,sub-009,1,2025-03-13_13h06.58.724,stroop_test,04.02.2024,59.80954249,2025-03-13 13h07.26.265646 +0100
test,blue,b,1,11,2,3,b,1,0.4072625,None,,,,,,,,,,,,,,,,,3,2,11,2,,,,,,,,,108.7402785,,,,,,,,,,,,,,,,,108.7295153,109.9401884,110.7399866,110.7292479,110.7298072,110.7399866,110.7399866,111.1615443,b,1,0.4072625,None,,,,,,,,,,,,,,,,,,,,,,,,,,,,,,,,,,,,,,sub-009,1,2025-03-13_13h06.58.724,stroop_test,04.02.2024,59.80954249,2025-03-13 13h07.26.265646 +0100
,,,,,,,,,,,,,,,,,,,,,,,,,,,,,,,,,,,,,,,,,,,,,,,,,,,,,,,,,,,,,,,,,,,,111.1616759,111.1730741,111.1730741,121.0115105,space,9.823717,None,,,,,,,,,,,,,,,,,,,,,,,,,,,,,,,sub-009,1,2025-03-13_13h06.58.724,stroop_test,04.02.2024,59.80954249,2025-03-13 13h07.26.265646 +0100
,,,,0,0,0,,,,,gelb,blue,b,0,b,1,15.3750042,None,,,,,,,,,,,,,0,0,0,9,,,,,121.037967,,,,,,,,,,,,,,,,,121.0203406,122.2234913,123.0543819,123.0174099,,,,,,,,,,,,,,,,123.0343513,123.0543819,123.0543819,138.4436996,b,1,15.3750042,None,138.4493297,138.4704833,139.4598789,,,,,,,,,,,,,,,,,,,,sub-009,1,2025-03-13_13h06.58.724,stroop_test,04.02.2024,59.80954249,2025-03-13 13h07.26.265646 +0100
,,,,1,1,0,,,,,gelb,yellow,g,1,g,1,5.3665406,None,,,,,,,,,,,,,0,1,1,11,,,,,139.4723918,,,,,,,,,,,,,,,,,139.4602361,140.655448,141.4565743,141.4441093,,,,,,,,,,,,,,,,141.4446934,141.4565743,141.4565743,146.8272301,g,1,5.3665406,None,146.8276386,146.8380981,147.8262429,147.8391067,,,,,,,,,,,,,,,,,,,sub-009,1,2025-03-13_13h06.58.724,stroop_test,04.02.2024,59.80954249,2025-03-13 13h07.26.265646 +0100
,,,,2,2,0,,,,,rot,red,r,1,r,1,1.3688124,None,,,,,,,,,,,,,0,2,2,0,,,,,147.8391067,,,,,,,,,,,,,,,,,147.8265743,149.0388359,149.8370253,149.8269295,,,,,,,,,,,,,,,,149.8319141,149.8370253,149.8370253,151.2097158,r,1,1.3688124,None,151.2101406,151.2205163,152.2101531,152.2209289,,,,,,,,,,,,,,,,,,,sub-009,1,2025-03-13_13h06.58.724,stroop_test,04.02.2024,59.80954249,2025-03-13 13h07.26.265646 +0100
,,,,3,3,0,,,,,rot,blue,b,0,r,0,1.4532505,None,,,,,,,,,,,,,0,3,3,2,,,,,152.2209289,,,,,,,,,,,,,,,,,152.2104731,152.3231119,153.138508,153.1291972,,,,,,,,,,,,,,,,153.1298106,153.138508,153.138508,154.5942144,r,0,1.4532505,None,154.609671,154.6197049,155.6087655,,,,,,,,,,,,,,,,,,,,sub-009,1,2025-03-13_13h06.58.724,stroop_test,04.02.2024,59.80954249,2025-03-13 13h07.26.265646 +0100
,,,,4,4,0,,,,,gelb,yellow,g,1,g,1,1.4828507,None,,,,,,,,,,,,,0,4,4,10,,,,,155.6219624,,,,,,,,,,,,,,,,,155.6090466,155.7050206,156.5044788,156.4925333,,,,,,,,,,,,,,,,156.4951917,156.5044788,156.5044788,157.9933454,g,1,1.4828507,None,157.9980686,158.0199269,159.0111832,,,,,,,,,,,,,,,,,,,,sub-009,1,2025-03-13_13h06.58.724,stroop_test,04.02.2024,59.80954249,2025-03-13 13h07.26.265646 +0100
,,,,5,5,0,,,,,blau,blue,b,1,b,1,2.145353,None,,,,,,,,,,,,,0,5,5,5,,,,,159.0205287,,,,,,,,,,,,,,,,,159.0117078,159.1060267,159.9205038,159.9090434,,,,,,,,,,,,,,,,159.913393,159.9205038,159.9205038,162.0791507,b,1,2.145353,None,162.0796094,162.0870685,163.0752372,163.0877434,,,,,,,,,,,,,,,,,,,sub-009,1,2025-03-13_13h06.58.724,stroop_test,04.02.2024,59.80954249,2025-03-13 13h07.26.265646 +0100
,,,,6,6,0,,,,,rot,red,r,1,g,0,1.0479491,None,,,,,,,,,,,,,0,6,6,1,,,,,163.0877434,,,,,,,,,,,,,,,,,163.0754951,163.4382809,164.2367651,164.2250984,,,,,,,,,,,,,,,,164.2275354,164.2367651,164.2367651,165.2911164,g,0,1.0479491,None,165.2940597,165.3031061,166.2912681,166.3034709,,,,,,,,,,,,,,,,,,,sub-009,1,2025-03-13_13h06.58.724,stroop_test,04.02.2024,59.80954249,2025-03-13 13h07.26.265646 +0100
,,,,7,7,0,,,,,blau,yellow,g,0,g,1,2.1028086,None,,,,,,,,,,,,,0,7,7,7,,,,,166.3034709,,,,,,,,,,,,,,,,,166.2915311,166.6544794,167.4537516,167.4423248,,,,,,,,,,,,,,,,167.4452577,167.4537516,167.4537516,169.5583936,g,1,2.1028086,None,169.5611406,169.5701645,170.5577949,170.5699025,,,,,,,,,,,,,,,,,,,sub-009,1,2025-03-13_13h06.58.724,stroop_test,04.02.2024,59.80954249,2025-03-13 13h07.26.265646 +0100
,,,,8,8,0,,,,,blau,red,r,0,r,1,2.0512004,None,,,,,,,,,,,,,0,8,8,4,,,,,170.5699025,,,,,,,,,,,,,,,,,170.5581114,171.7703312,172.5701433,172.5587092,,,,,,,,,,,,,,,,172.5591469,172.5701433,172.5701433,174.6258198,r,1,2.0512004,None,174.6266844,174.636536,175.6275411,,,,,,,,,,,,,,,,,,,,sub-009,1,2025-03-13_13h06.58.724,stroop_test,04.02.2024,59.80954249,2025-03-13 13h07.26.265646 +0100
,,,,9,9,0,,,,,rot,yellow,g,0,g,1,4.7464127,None,,,,,,,,,,,,,0,9,9,3,,,,,175.6374232,,,,,,,,,,,,,,,,,175.6278811,175.737209,176.5364654,176.5262193,,,,,,,,,,,,,,,,176.5296319,176.5364654,176.5364654,181.2933211,g,1,4.7464127,None,181.2941846,181.3019018,182.2918231,182.303764,,,,,,,,,,,,,,,,,,,sub-009,1,2025-03-13_13h06.58.724,stroop_test,04.02.2024,59.80954249,2025-03-13 13h07.26.265646 +0100
,,,,10,10,0,,,,,blau,blue,b,1,b,1,1.4145048,None,,,,,,,,,,,,,0,10,10,6,,,,,182.303764,,,,,,,,,,,,,,,,,182.2921139,182.6531647,183.469079,183.4455478,,,,,,,,,,,,,,,,183.4500357,183.469079,183.469079,184.8962149,b,1,1.4145048,None,184.8969215,184.9182952,185.9093955,,,,,,,,,,,,,,,,,,,,sub-009,1,2025-03-13_13h06.58.724,stroop_test,04.02.2024,59.80954249,2025-03-13 13h07.26.265646 +0100
,,,,11,11,0,,,,,gelb,red,r,0,r,1,5.4296486,None,,,,,,,,,,,,,0,11,11,8,,,,,185.9201023,,,,,,,,,,,,,,,,,185.9097916,186.2526919,187.0523152,187.0401434,,,,,,,,,,,,,,,,187.0425948,187.0523152,187.0523152,192.4912755,r,1,5.4296486,None,192.4917279,192.5021586,193.4914216,193.5022281,,,,,,,,,,,,,,,,,,,sub-009,1,2025-03-13_13h06.58.724,stroop_test,04.02.2024,59.80954249,2025-03-13 13h07.26.265646 +0100
,,,,12,0,1,,,,,rot,red,r,1,r,1,2.0365821,None,,,,,,,,,,,,,1,0,12,0,,,,,193.5022281,,,,,,,,,,,,,,,,,193.4917778,194.3023092,195.1022864,195.0913662,,,,,,,,,,,,,,,,195.0944225,195.1022864,195.1022864,197.1423222,r,1,2.0365821,None,197.1428693,197.1528965,198.1428136,198.1525672,,,,,,,,,,,,,,,,,,,sub-009,1,2025-03-13_13h06.58.724,stroop_test,04.02.2024,59.80954249,2025-03-13 13h07.26.265646 +0100
,,,,13,1,1,,,,,gelb,blue,b,0,b,1,1.5718479,None,,,,,,,,,,,,,1,1,13,9,,,,,198.1525672,,,,,,,,,,,,,,,,,198.1431895,198.2520077,199.0682629,199.0406467,,,,,,,,,,,,,,,,199.0458271,199.0682629,199.0682629,200.6419483,b,1,1.5718479,None,200.6424005,200.6519356,201.6423677,201.6521275,,,,,,,,,,,,,,,,,,,sub-009,1,2025-03-13_13h06.58.724,stroop_test,04.02.2024,59.80954249,2025-03-13 13h07.26.265646 +0100
,,,,14,2,1,,,,,rot,red,r,1,r,1,1.3746338,None,,,,,,,,,,,,,1,2,14,1,,,,,201.6521275,,,,,,,,,,,,,,,,,201.6426781,202.8539855,203.6682117,203.659454,,,,,,,,,,,,,,,,203.6623495,203.6682117,203.6682117,205.0561166,r,1,1.3746338,None,205.0564667,205.0679221,206.0577329,,,,,,,,,,,,,,,,,,,,sub-009,1,2025-03-13_13h06.58.724,stroop_test,04.02.2024,59.80954249,2025-03-13 13h07.26.265646 +0100
,,,,15,3,1,,,,,gelb,red,r,0,r,1,5.1622843,None,,,,,,,,,,,,,1,3,15,8,,,,,206.0696373,,,,,,,,,,,,,,,,,206.0580948,207.2707756,208.0846759,208.0732254,,,,,,,,,,,,,,,,208.0761838,208.0846759,208.0846759,213.2569793,r,1,5.1622843,None,213.257345,213.2683397,214.2568084,214.2677207,,,,,,,,,,,,,,,,,,,sub-009,1,2025-03-13_13h06.58.724,stroop_test,04.02.2024,59.80954249,2025-03-13 13h07.26.265646 +0100
,,,,16,4,1,,,,,blau,yellow,g,0,g,1,3.4794021,None,,,,,,,,,,,,,1,4,16,7,,,,,214.2677207,,,,,,,,,,,,,,,,,214.2571352,215.0686476,215.8680616,215.8562725,,,,,,,,,,,,,,,,215.8589985,215.8680616,215.8680616,219.3577388,g,1,3.4794021,None,219.3582579,219.3676994,220.3566485,220.3682519,,,,,,,,,,,,,,,,,,,sub-009,1,2025-03-13_13h06.58.724,stroop_test,04.02.2024,59.80954249,2025-03-13 13h07.26.265646 +0100
,,,,17,5,1,,,,,gelb,yellow,g,1,g,1,4.0819639,None,,,,,,,,,,,,,1,5,17,10,,,,,220.3682519,,,,,,,,,,,,,,,,,220.3569447,221.5675431,222.3674096,222.3562326,,,,,,,,,,,,,,,,222.3590965,222.3674096,222.3674096,226.4616746,g,1,4.0819639,None,226.4623769,226.4835628,227.4722293,,,,,,,,,,,,,,,,,,,,sub-009,1,2025-03-13_13h06.58.724,stroop_test,04.02.2024,59.80954249,2025-03-13 13h07.26.265646 +0100
,,,,18,6,1,,,,,blau,blue,b,1,b,1,1.2894229,None,,,,,,,,,,,,,1,6,18,6,,,,,227.4848367,,,,,,,,,,,,,,,,,227.472608,228.2677809,229.0665991,229.0540308,,,,,,,,,,,,,,,,229.0564939,229.0665991,229.0665991,230.3611418,b,1,1.2894229,None,230.3616254,230.3855791,231.3709638,,,,,,,,,,,,,,,,,,,,sub-009,1,2025-03-13_13h06.58.724,stroop_test,04.02.2024,59.80954249,2025-03-13 13h07.26.265646 +0100
,,,,19,7,1,,,,,gelb,yellow,g,1,g,1,3.3469863,None,,,,,,,,,,,,,1,7,19,11,,,,,231.3839434,,,,,,,,,,,,,,,,,231.3712592,231.4684539,232.2836063,232.2722689,,,,,,,,,,,,,,,,232.2751998,232.2836063,232.2836063,235.6398398,g,1,3.3469863,None,235.6402343,235.6501397,236.6391194,236.651949,,,,,,,,,,,,,,,,,,,sub-009,1,2025-03-13_13h06.58.724,stroop_test,04.02.2024,59.80954249,2025-03-13 13h07.26.265646 +0100
,,,,20,8,1,,,,,rot,blue,b,0,b,1,2.1126311,None,,,,,,,,,,,,,1,8,20,2,,,,,236.651949,,,,,,,,,,,,,,,,,236.6394272,237.0005304,237.8002905,237.7885596,,,,,,,,,,,,,,,,237.7916685,237.8002905,237.8002905,239.9234281,b,1,2.1126311,None,239.9239983,239.933436,240.9238534,240.933126,,,,,,,,,,,,,,,,,,,sub-009,1,2025-03-13_13h06.58.724,stroop_test,04.02.2024,59.80954249,2025-03-13 13h07.26.265646 +0100
,,,,21,9,1,,,,,blau,red,r,0,r,1,2.6776002,None,,,,,,,,,,,,,1,9,21,4,,,,,240.933126,,,,,,,,,,,,,,,,,240.9241367,242.1334739,242.9496192,242.9246501,,,,,,,,,,,,,,,,242.9287851,242.9496192,242.9496192,245.6405053,r,1,2.6776002,None,245.6410533,245.6511848,246.6567461,,,,,,,,,,,,,,,,,,,,sub-009,1,2025-03-13_13h06.58.724,stroop_test,04.02.2024,59.80954249,2025-03-13 13h07.26.265646 +0100
,,,,22,10,1,,,,,rot,yellow,g,0,g,1,2.8088848,None,,,,,,,,,,,,,1,10,22,3,,,,,246.6659491,,,,,,,,,,,,,,,,,246.6570996,247.8506431,248.6670512,248.6423089,,,,,,,,,,,,,,,,248.6470715,248.6670512,248.6670512,251.4869371,g,1,2.8088848,None,251.487608,251.4994674,252.4875745,,,,,,,,,,,,,,,,,,,,sub-009,1,2025-03-13_13h06.58.724,stroop_test,04.02.2024,59.80954249,2025-03-13 13h07.26.265646 +0100
,,,,23,11,1,,,,,blau,blue,b,1,b,1,1.103269,None,,,,,,,,,,,,,1,11,23,5,,,,,252.4991268,,,,,,,,,,,,,,,,,252.487908,253.2996579,254.0990338,254.0885202,,,,,,,,,,,,,,,,254.0915191,254.0990338,254.0990338,255.2065209,b,1,1.103269,None,255.2069885,255.2156634,256.2044814,256.2158412,,,,,,,,,,,,,,,,,,,sub-009,1,2025-03-13_13h06.58.724,stroop_test,04.02.2024,59.80954249,2025-03-13 13h07.26.265646 +0100
,,,,,,,,,,,,,,,,,,,,,,,,,,,,,,,,,,,,,,,,,,,,,,,,,,,,,,,,,,,,,,,,,,,,,,,,,,,,,,,,,,,,,,,256.2046152,256.2158412,256.2158412,269.4215709,space,13.1921293,None,,,,,,,,,,,,sub-009,1,2025-03-13_13h06.58.724,stroop_test,04.02.2024,59.80954249,2025-03-13 13h07.26.265646 +0100
,,,,0,0,0,,,,,,,,,,,,,gelb,yellow,g,1,g,1,1.7153798,None,,,,,,,,,0,0,0,11,269.4475782,,,,,,,,,,,,,,,,,269.4329372,269.782128,270.59712,270.5730219,,,,,,,,,,,,,,,,,,,,,,,,,,,,,,,,,,,270.576345,270.59712,270.59712,272.3204703,g,1,1.7153798,None,,,,sub-009,1,2025-03-13_13h06.58.724,stroop_test,04.02.2024,59.80954249,2025-03-13 13h07.26.265646 +0100
,,,,1,1,0,,,,,,,,,,,,,rot,red,r,1,g,0,2.2522547,None,,,,,,,,,0,1,1,1,272.3312635,,,,,,,,,,,,,,,,,272.3208738,272.4317964,273.2313569,273.2207367,,,,,,,,,,,,,,,,,,,,,,,,,,,,,,,,,,,273.2238229,273.2313569,273.2313569,275.4874567,g,0,2.2522547,None,,,,sub-009,1,2025-03-13_13h06.58.724,stroop_test,04.02.2024,59.80954249,2025-03-13 13h07.26.265646 +0100
,,,,2,2,0,,,,,,,,,,,,,blau,blue,b,1,b,1,1.7859569,None,,,,,,,,,0,2,2,6,275.497809,,,,,,,,,,,,,,,,,275.4877677,276.6983507,277.5139142,277.4892551,,,,,,,,,,,,,,,,,,,,,,,,,,,,,,,,,,,277.492412,277.5139142,277.5139142,279.3046605,b,1,1.7859569,None,,,,sub-009,1,2025-03-13_13h06.58.724,stroop_test,04.02.2024,59.80954249,2025-03-13 13h07.26.265646 +0100
,,,,3,3,0,,,,,,,,,,,,,blau,blue,b,1,b,1,0.8191838,None,,,,,,,,,0,3,3,5,279.3149151,,,,,,,,,,,,,,,,,279.3051302,280.1153538,280.9149441,280.9034627,,,,,,,,,,,,,,,,,,,,,,,,,,,,,,,,,,,280.9038322,280.9149441,280.9149441,281.7359024,b,1,0.8191838,None,,,,sub-009,1,2025-03-13_13h06.58.724,stroop_test,04.02.2024,59.80954249,2025-03-13 13h07.26.265646 +0100
,,,,4,4,0,,,,,,,,,,,,,blau,yellow,g,0,g,1,2.5303364,None,,,,,,,,,0,4,4,7,281.7475793,,,,,,,,,,,,,,,,,281.7361518,282.5494753,283.3483521,283.3378865,,,,,,,,,,,,,,,,,,,,,,,,,,,,,,,,,,,283.3383168,283.3483521,283.3483521,285.8873703,g,1,2.5303364,None,,,,sub-009,1,2025-03-13_13h06.58.724,stroop_test,04.02.2024,59.80954249,2025-03-13 13h07.26.265646 +0100
,,,,5,5,0,,,,,,,,,,,,,gelb,yellow,g,1,g,1,3.1871723,None,,,,,,,,,0,5,5,10,285.8975707,,,,,,,,,,,,,,,,,285.8878123,286.6978984,287.4978368,287.4865437,,,,,,,,,,,,,,,,,,,,,,,,,,,,,,,,,,,287.4901472,287.4978368,287.4978368,290.7015884,g,1,3.1871723,None,,,,sub-009,1,2025-03-13_13h06.58.724,stroop_test,04.02.2024,59.80954249,2025-03-13 13h07.26.265646 +0100
,,,,6,6,0,,,,,,,,,,,,,rot,yellow,g,0,r,0,2.954144,None,,,,,,,,,0,6,6,3,290.7144843,,,,,,,,,,,,,,,,,290.7018224,291.5158789,292.3136036,292.3031533,,,,,,,,,,,,,,,,,,,,,,,,,,,,,,,,,,,292.3060847,292.3136036,292.3136036,295.2721369,r,0,2.954144,None,,,,sub-009,1,2025-03-13_13h06.58.724,stroop_test,04.02.2024,59.80954249,2025-03-13 13h07.26.265646 +0100
,,,,7,7,0,,,,,,,,,,,,,gelb,red,r,0,g,0,1.2279604,None,,,,,,,,,0,7,7,8,295.2803057,,,,,,,,,,,,,,,,,295.2725252,296.4811674,297.2802887,297.2676053,,,,,,,,,,,,,,,,,,,,,,,,,,,,,,,,,,,297.2702151,297.2802887,297.2802887,298.5182716,g,0,1.2279604,None,,,,sub-009,1,2025-03-13_13h06.58.724,stroop_test,04.02.2024,59.80954249,2025-03-13 13h07.26.265646 +0100
,,,,8,8,0,,,,,,,,,,,,,rot,blue,b,0,b,1,2.2788662,None,,,,,,,,,0,8,8,2,298.5302196,,,,,,,,,,,,,,,,,298.5185575,298.6309854,299.4306932,299.4201131,,,,,,,,,,,,,,,,,,,,,,,,,,,,,,,,,,,299.4231929,299.4306932,299.4306932,301.7194035,b,1,2.2788662,None,,,,sub-009,1,2025-03-13_13h06.58.724,stroop_test,04.02.2024,59.80954249,2025-03-13 13h07.26.265646 +0100
,,,,9,9,0,,,,,,,,,,,,,gelb,blue,b,0,b,1,1.1884499,None,,,,,,,,,0,9,9,9,301.7301406,,,,,,,,,,,,,,,,,301.7197131,302.5301373,303.3298195,303.3191127,,,,,,,,,,,,,,,,,,,,,,,,,,,,,,,,,,,303.322573,303.3298195,303.3298195,304.5347933,b,1,1.1884499,None,,,,sub-009,1,2025-03-13_13h06.58.724,stroop_test,04.02.2024,59.80954249,2025-03-13 13h07.26.265646 +0100
,,,,10,10,0,,,,,,,,,,,,,rot,red,r,1,r,1,1.9584484,None,,,,,,,,,0,10,10,0,304.5468374,,,,,,,,,,,,,,,,,304.5350663,305.7469729,306.5469564,306.5356839,,,,,,,,,,,,,,,,,,,,,,,,,,,,,,,,,,,306.5389563,306.5469564,306.5469564,308.518769,r,1,1.9584484,None,,,,sub-009,1,2025-03-13_13h06.58.724,stroop_test,04.02.2024,59.80954249,2025-03-13 13h07.26.265646 +0100
,,,,11,11,0,,,,,,,,,,,,,blau,red,r,0,b,0,2.4162733,None,,,,,,,,,0,11,11,4,308.5300928,,,,,,,,,,,,,,,,,308.5190973,308.6302902,309.4297495,309.4181992,,,,,,,,,,,,,,,,,,,,,,,,,,,,,,,,,,,309.421217,309.4297495,309.4297495,311.8537633,b,0,2.4162733,None,,,,sub-009,1,2025-03-13_13h06.58.724,stroop_test,04.02.2024,59.80954249,2025-03-13 13h07.26.265646 +0100
,,,,12,0,1,,,,,,,,,,,,,blau,blue,b,1,b,1,1.0318392,None,,,,,,,,,1,0,12,5,311.862135,,,,,,,,,,,,,,,,,311.8540809,312.2135247,313.0130931,313.0015898,,,,,,,,,,,,,,,,,,,,,,,,,,,,,,,,,,,313.0020765,313.0130931,313.0130931,314.0525145,b,1,1.0318392,None,,,,sub-009,1,2025-03-13_13h06.58.724,stroop_test,04.02.2024,59.80954249,2025-03-13 13h07.26.265646 +0100
,,,,13,1,1,,,,,,,,,,,,,rot,red,r,1,r,1,1.3226837,None,,,,,,,,,1,1,13,1,314.0628542,,,,,,,,,,,,,,,,,314.0529852,314.8628775,315.6626982,315.6492949,,,,,,,,,,,,,,,,,,,,,,,,,,,,,,,,,,,315.6515006,315.6626982,315.6626982,317.0012497,r,1,1.3226837,None,,,,sub-009,1,2025-03-13_13h06.58.724,stroop_test,04.02.2024,59.80954249,2025-03-13 13h07.26.265646 +0100
,,,,14,2,1,,,,,,,,,,,,,rot,red,r,1,r,1,0.6992833,None,,,,,,,,,1,2,14,0,317.0127082,,,,,,,,,,,,,,,,,317.0015675,317.3628137,318.1800701,318.1562574,,,,,,,,,,,,,,,,,,,,,,,,,,,,,,,,,,,318.1568928,318.1800701,318.1800701,318.8853725,r,1,0.6992833,None,,,,sub-009,1,2025-03-13_13h06.58.724,stroop_test,04.02.2024,59.80954249,2025-03-13 13h07.26.265646 +0100
,,,,15,3,1,,,,,,,,,,,,,gelb,yellow,g,1,g,1,1.2467595,None,,,,,,,,,1,3,15,10,318.8960824,,,,,,,,,,,,,,,,,318.8857924,318.9968425,319.7953756,319.7851392,,,,,,,,,,,,,,,,,,,,,,,,,,,,,,,,,,,319.7882391,319.7953756,319.7953756,321.0501755,g,1,1.2467595,None,,,,sub-009,1,2025-03-13_13h06.58.724,stroop_test,04.02.2024,59.80954249,2025-03-13 13h07.26.265646 +0100
,,,,16,4,1,,,,,,,,,,,,,gelb,yellow,g,1,g,1,0.7296269,None,,,,,,,,,1,4,16,11,321.062853,,,,,,,,,,,,,,,,,321.0504128,321.4125539,322.2125034,322.2040224,,,,,,,,,,,,,,,,,,,,,,,,,,,,,,,,,,,322.2047324,322.2125034,322.2125034,322.9512858,g,1,0.7296269,None,,,,sub-009,1,2025-03-13_13h06.58.724,stroop_test,04.02.2024,59.80954249,2025-03-13 13h07.26.265646 +0100
,,,,17,5,1,,,,,,,,,,,,,blau,red,r,0,b,0,1.8139295,None,,,,,,,,,1,5,17,4,322.9626902,,,,,,,,,,,,,,,,,322.9515692,324.1633849,324.9625832,324.9505969,,,,,,,,,,,,,,,,,,,,,,,,,,,,,,,,,,,324.9539097,324.9625832,324.9625832,326.7865723,b,0,1.8139295,None,,,,sub-009,1,2025-03-13_13h06.58.724,stroop_test,04.02.2024,59.80954249,2025-03-13 13h07.26.265646 +0100
,,,,18,6,1,,,,,,,,,,,,,rot,blue,b,0,r,0,1.8352489,None,,,,,,,,,1,6,18,2,326.7953024,,,,,,,,,,,,,,,,,326.786947,327.5954476,328.4127384,328.3871378,,,,,,,,,,,,,,,,,,,,,,,,,,,,,,,,,,,328.3910573,328.4127384,328.4127384,330.2542326,r,0,1.8352489,None,,,,sub-009,1,2025-03-13_13h06.58.724,stroop_test,04.02.2024,59.80954249,2025-03-13 13h07.26.265646 +0100
,,,,19,7,1,,,,,,,,,,,,,rot,yellow,g,0,r,0,0.7597121,None,,,,,,,,,1,7,19,3,330.2619143,,,,,,,,,,,,,,,,,330.2548199,331.0624024,331.8618047,331.8508728,,,,,,,,,,,,,,,,,,,,,,,,,,,,,,,,,,,331.8511911,331.8618047,331.8618047,332.6361709,r,0,0.7597121,None,,,,sub-009,1,2025-03-13_13h06.58.724,stroop_test,04.02.2024,59.80954249,2025-03-13 13h07.26.265646 +0100
,,,,20,8,1,,,,,,,,,,,,,gelb,red,r,0,g,0,1.7145183,None,,,,,,,,,1,8,20,8,332.6447956,,,,,,,,,,,,,,,,,332.6368358,332.7468398,333.5780243,333.5523464,,,,,,,,,,,,,,,,,,,,,,,,,,,,,,,,,,,333.5558293,333.5780243,333.5780243,335.3008937,g,0,1.7145183,None,,,,sub-009,1,2025-03-13_13h06.58.724,stroop_test,04.02.2024,59.80954249,2025-03-13 13h07.26.265646 +0100
,,,,21,9,1,,,,,,,,,,,,,blau,blue,b,1,b,1,0.7228191,None,,,,,,,,,1,9,21,6,335.3116054,,,,,,,,,,,,,,,,,335.3012555,335.6621465,336.4619404,336.4495993,,,,,,,,,,,,,,,,,,,,,,,,,,,,,,,,,,,336.4528045,336.4619404,336.4619404,337.1867544,b,1,0.7228191,None,,,,sub-009,1,2025-03-13_13h06.58.724,stroop_test,04.02.2024,59.80954249,2025-03-13 13h07.26.265646 +0100
,,,,22,10,1,,,,,,,,,,,,,gelb,blue,b,0,g,0,1.2866311,None,,,,,,,,,1,10,22,9,337.1950363,,,,,,,,,,,,,,,,,337.1871823,337.9966385,338.827878,338.8029885,,,,,,,,,,,,,,,,,,,,,,,,,,,,,,,,,,,338.8068545,338.827878,338.827878,340.1174487,g,0,1.2866311,None,,,,sub-009,1,2025-03-13_13h06.58.724,stroop_test,04.02.2024,59.80954249,2025-03-13 13h07.26.265646 +0100
,,,,23,11,1,,,,,,,,,,,,,blau,yellow,g,0,g,1,1.0196538,None,,,,,,,,,1,11,23,7,340.1282072,,,,,,,,,,,,,,,,,340.1178431,340.9287522,341.7442521,341.7194461,,,,,,,,,,,,,,,,,,,,,,,,,,,,,,,,,,,341.7237302,341.7442521,341.7442521,342.7667479,g,1,1.0196538,None,,,,sub-009,1,2025-03-13_13h06.58.724,stroop_test,04.02.2024,59.80954249,2025-03-13 13h07.26.265646 +0100
,,,,24,0,2,,,,,,,,,,,,,rot,yellow,g,0,r,0,2.0420859,None,,,,,,,,,2,0,24,3,342.7773623,,,,,,,,,,,,,,,,,342.7670423,343.579688,344.3941062,344.368393,,,,,,,,,,,,,,,,,,,,,,,,,,,,,,,,,,,344.3727305,344.3941062,344.3941062,346.4488938,r,0,2.0420859,None,,,,sub-009,1,2025-03-13_13h06.58.724,stroop_test,04.02.2024,59.80954249,2025-03-13 13h07.26.265646 +0100
,,,,25,1,2,,,,,,,,,,,,,blau,blue,b,1,b,1,3.2943708,None,,,,,,,,,2,1,25,5,346.4614072,,,,,,,,,,,,,,,,,346.4492122,347.6614075,348.4606049,348.4489068,,,,,,,,,,,,,,,,,,,,,,,,,,,,,,,,,,,348.4514339,348.4606049,348.4606049,351.7648982,b,1,3.2943708,None,,,,sub-009,1,2025-03-13_13h06.58.724,stroop_test,04.02.2024,59.80954249,2025-03-13 13h07.26.265646 +0100
,,,,26,2,2,,,,,,,,,,,,,gelb,yellow,g,1,g,1,2.0795082,None,,,,,,,,,2,2,26,11,351.7779121,,,,,,,,,,,,,,,,,351.7651646,352.578088,353.3934795,353.3692228,,,,,,,,,,,,,,,,,,,,,,,,,,,,,,,,,,,353.3726294,353.3934795,353.3934795,355.4825308,g,1,2.0795082,None,,,,sub-009,1,2025-03-13_13h06.58.724,stroop_test,04.02.2024,59.80954249,2025-03-13 13h07.26.265646 +0100
,,,,27,3,2,,,,,,,,,,,,,rot,red,r,1,r,1,1.7781206,None,,,,,,,,,2,3,27,1,355.4943868,,,,,,,,,,,,,,,,,355.4828691,355.5942647,356.3936422,356.3825469,,,,,,,,,,,,,,,,,,,,,,,,,,,,,,,,,,,356.3859912,356.3936422,356.3936422,358.1813271,r,1,1.7781206,None,,,,sub-009,1,2025-03-13_13h06.58.724,stroop_test,04.02.2024,59.80954249,2025-03-13 13h07.26.265646 +0100
,,,,28,4,2,,,,,,,,,,,,,blau,red,r,0,b,0,1.5119445,None,,,,,,,,,2,4,28,4,358.1935816,,,,,,,,,,,,,,,,,358.1816634,358.2946149,359.0943476,359.082649,,,,,,,,,,,,,,,,,,,,,,,,,,,,,,,,,,,359.0859546,359.0943476,359.0943476,360.6152477,b,0,1.5119445,None,,,,sub-009,1,2025-03-13_13h06.58.724,stroop_test,04.02.2024,59.80954249,2025-03-13 13h07.26.265646 +0100
,,,,29,5,2,,,,,,,,,,,,,blau,blue,b,1,b,1,0.7980097,None,,,,,,,,,2,5,29,6,360.6279013,,,,,,,,,,,,,,,,,360.6156243,361.827402,362.6275243,362.6164042,,,,,,,,,,,,,,,,,,,,,,,,,,,,,,,,,,,362.6168236,362.6275243,362.6275243,363.4327062,b,1,0.7980097,None,,,,sub-009,1,2025-03-13_13h06.58.724,stroop_test,04.02.2024,59.80954249,2025-03-13 13h07.26.265646 +0100
,,,,30,6,2,,,,,,,,,,,,,gelb,red,r,0,g,0,4.5278277,None,,,,,,,,,2,6,30,8,363.4432894,,,,,,,,,,,,,,,,,363.4329541,364.2441259,365.0428036,365.0336454,,,,,,,,,,,,,,,,,,,,,,,,,,,,,,,,,,,365.0362651,365.0428036,365.0428036,369.5824702,g,0,4.5278277,None,,,,sub-009,1,2025-03-13_13h06.58.724,stroop_test,04.02.2024,59.80954249,2025-03-13 13h07.26.265646 +0100
,,,,31,7,2,,,,,,,,,,,,,gelb,blue,b,0,g,0,0.8757262,None,,,,,,,,,2,7,31,9,369.5933953,,,,,,,,,,,,,,,,,369.5828269,369.9444909,370.743455,370.731987,,,,,,,,,,,,,,,,,,,,,,,,,,,,,,,,,,,370.7323771,370.743455,370.743455,371.6334747,g,0,0.8757262,None,,,,sub-009,1,2025-03-13_13h06.58.724,stroop_test,04.02.2024,59.80954249,2025-03-13 13h07.26.265646 +0100
,,,,32,8,2,,,,,,,,,,,,,rot,blue,b,0,r,0,1.5381556,None,,,,,,,,,2,8,32,2,371.6428188,,,,,,,,,,,,,,,,,371.6340371,371.7438699,372.5601162,372.5342303,,,,,,,,,,,,,,,,,,,,,,,,,,,,,,,,,,,372.5375403,372.5601162,372.5601162,374.1141653,r,0,1.5381556,None,,,,sub-009,1,2025-03-13_13h06.58.724,stroop_test,04.02.2024,59.80954249,2025-03-13 13h07.26.265646 +0100
,,,,33,9,2,,,,,,,,,,,,,blau,yellow,g,0,b,0,0.9713648,None,,,,,,,,,2,9,33,7,374.125544,,,,,,,,,,,,,,,,,374.1145305,374.4774967,375.2760155,375.2634976,,,,,,,,,,,,,,,,,,,,,,,,,,,,,,,,,,,375.2653762,375.2760155,375.2760155,376.2490661,b,0,0.9713648,None,,,,sub-009,1,2025-03-13_13h06.58.724,stroop_test,04.02.2024,59.80954249,2025-03-13 13h07.26.265646 +0100
,,,,34,10,2,,,,,,,,,,,,,rot,red,r,1,r,1,0.9997178,None,,,,,,,,,2,10,34,0,376.2594068,,,,,,,,,,,,,,,,,376.2494165,377.0610858,377.8923577,377.8683716,,,,,,,,,,,,,,,,,,,,,,,,,,,,,,,,,,,377.8717116,377.8923577,377.8923577,378.8979511,r,1,0.9997178,None,,,,sub-009,1,2025-03-13_13h06.58.724,stroop_test,04.02.2024,59.80954249,2025-03-13 13h07.26.265646 +0100
,,,,35,11,2,,,,,,,,,,,,,gelb,yellow,g,1,g,1,0.9297389,None,,,,,,,,,2,11,35,10,378.9089023,,,,,,,,,,,,,,,,,378.8982636,379.2598777,380.0760485,380.0510346,,,,,,,,,,,,,,,,,,,,,,,,,,,,,,,,,,,380.0549242,380.0760485,380.0760485,381.0176315,g,1,0.9297389,None,,,,sub-009,1,2025-03-13_13h06.58.724,stroop_test,04.02.2024,59.80954249,2025-03-13 13h07.26.265646 +0100
,,,,36,0,3,,,,,,,,,,,,,blau,red,r,0,b,0,1.1733979,None,,,,,,,,,3,0,36,4,381.0259034,,,,,,,,,,,,,,,,,381.0179443,382.2282649,383.0423619,383.0324516,,,,,,,,,,,,,,,,,,,,,,,,,,,,,,,,,,,383.0357122,383.0423619,383.0423619,384.2289387,b,0,1.1733979,None,,,,sub-009,1,2025-03-13_13h06.58.724,stroop_test,04.02.2024,59.80954249,2025-03-13 13h07.26.265646 +0100
,,,,37,1,3,,,,,,,,,,,,,gelb,red,r,0,g,0,2.2407093,None,,,,,,,,,3,1,37,8,384.2424694,,,,,,,,,,,,,,,,,384.2291461,385.4435378,386.2423342,386.2302864,,,,,,,,,,,,,,,,,,,,,,,,,,,,,,,,,,,386.2327541,386.2423342,386.2423342,388.4864283,g,0,2.2407093,None,,,,sub-009,1,2025-03-13_13h06.58.724,stroop_test,04.02.2024,59.80954249,2025-03-13 13h07.26.265646 +0100
,,,,38,2,3,,,,,,,,,,,,,rot,blue,b,0,r,0,3.4031416,None,,,,,,,,,3,2,38,2,388.493364,,,,,,,,,,,,,,,,,388.4868465,389.2931195,390.1082486,390.085149,,,,,,,,,,,,,,,,,,,,,,,,,,,,,,,,,,,390.0890195,390.1082486,390.1082486,393.5145318,r,0,3.4031416,None,,,,sub-009,1,2025-03-13_13h06.58.724,stroop_test,04.02.2024,59.80954249,2025-03-13 13h07.26.265646 +0100
,,,,39,3,3,,,,,,,,,,,,,rot,red,r,1,r,1,0.7690154,None,,,,,,,,,3,3,39,0,393.525445,,,,,,,,,,,,,,,,,393.5148094,393.8762571,394.6757392,394.6636099,,,,,,,,,,,,,,,,,,,,,,,,,,,,,,,,,,,394.6641353,394.6757392,394.6757392,395.4479619,r,1,0.7690154,None,,,,sub-009,1,2025-03-13_13h06.58.724,stroop_test,04.02.2024,59.80954249,2025-03-13 13h07.26.265646 +0100
,,,,40,4,3,,,,,,,,,,,,,gelb,yellow,g,1,g,1,1.0129195,None,,,,,,,,,3,4,40,10,395.4589018,,,,,,,,,,,,,,,,,395.4483179,396.2584073,397.0581142,397.0481435,,,,,,,,,,,,,,,,,,,,,,,,,,,,,,,,,,,397.0508758,397.0581142,397.0581142,398.0798446,g,1,1.0129195,None,,,,sub-009,1,2025-03-13_13h06.58.724,stroop_test,04.02.2024,59.80954249,2025-03-13 13h07.26.265646 +0100
,,,,41,5,3,,,,,,,,,,,,,blau,yellow,g,0,b,0,2.5646051,None,,,,,,,,,3,5,41,7,398.0914779,,,,,,,,,,,,,,,,,398.0800604,398.4416328,399.2417378,399.2299158,,,,,,,,,,,,,,,,,,,,,,,,,,,,,,,,,,,399.2335456,399.2417378,399.2417378,401.8170335,b,0,2.5646051,None,,,,sub-009,1,2025-03-13_13h06.58.724,stroop_test,04.02.2024,59.80954249,2025-03-13 13h07.26.265646 +0100
,,,,42,6,3,,,,,,,,,,,,,rot,yellow,g,0,r,0,1.8095857,None,,,,,,,,,3,6,42,3,401.8253994,,,,,,,,,,,,,,,,,401.8174929,403.0252519,403.8243725,403.8126387,,,,,,,,,,,,,,,,,,,,,,,,,,,,,,,,,,,403.8152907,403.8243725,403.8243725,405.6477726,r,0,1.8095857,None,,,,sub-009,1,2025-03-13_13h06.58.724,stroop_test,04.02.2024,59.80954249,2025-03-13 13h07.26.265646 +0100
,,,,43,7,3,,,,,,,,,,,,,rot,red,r,1,r,1,0.8150383,None,,,,,,,,,3,7,43,1,405.657552,,,,,,,,,,,,,,,,,405.6481758,406.8589715,407.6579275,407.6459379,,,,,,,,,,,,,,,,,,,,,,,,,,,,,,,,,,,407.6462626,407.6579275,407.6579275,408.4805612,r,1,0.8150383,None,,,,sub-009,1,2025-03-13_13h06.58.724,stroop_test,04.02.2024,59.80954249,2025-03-13 13h07.26.265646 +0100
,,,,44,8,3,,,,,,,,,,,,,blau,blue,b,1,b,1,1.1904958,None,,,,,,,,,3,8,44,6,408.491158,,,,,,,,,,,,,,,,,408.4809236,408.8408268,409.6419271,409.6291273,,,,,,,,,,,,,,,,,,,,,,,,,,,,,,,,,,,409.6319351,409.6419271,409.6419271,410.8451786,b,1,1.1904958,None,,,,sub-009,1,2025-03-13_13h06.58.724,stroop_test,04.02.2024,59.80954249,2025-03-13 13h07.26.265646 +0100
,,,,45,9,3,,,,,,,,,,,,,gelb,blue,b,0,g,0,1.5902889,None,,,,,,,,,3,9,45,9,410.8587899,,,,,,,,,,,,,,,,,410.8455225,411.658248,412.4574317,412.4440957,,,,,,,,,,,,,,,,,,,,,,,,,,,,,,,,,,,412.4463876,412.4574317,412.4574317,414.0491374,g,0,1.5902889,None,,,,sub-009,1,2025-03-13_13h06.58.724,stroop_test,04.02.2024,59.80954249,2025-03-13 13h07.26.265646 +0100
,,,,46,10,3,,,,,,,,,,,,,gelb,yellow,g,1,g,1,1.7116106,None,,,,,,,,,3,10,46,11,414.057069,,,,,,,,,,,,,,,,,414.0496211,415.2578952,416.0582496,416.046391,,,,,,,,,,,,,,,,,,,,,,,,,,,,,,,,,,,416.0468484,416.0582496,416.0582496,417.779838,g,1,1.7116106,None,,,,sub-009,1,2025-03-13_13h06.58.724,stroop_test,04.02.2024,59.80954249,2025-03-13 13h07.26.265646 +0100
,,,,47,11,3,,,,,,,,,,,,,blau,blue,b,1,b,1,1.4227849,None,,,,,,,,,3,11,47,5,417.790296,,,,,,,,,,,,,,,,,417.7801403,418.5909872,419.4066104,419.3825962,,,,,,,,,,,,,,,,,,,,,,,,,,,,,,,,,,,419.3856344,419.4066104,419.4066104,420.8341253,b,1,1.4227849,None,,,,sub-009,1,2025-03-13_13h06.58.724,stroop_test,04.02.2024,59.80954249,2025-03-13 13h07.26.265646 +0100
,,,,48,0,4,,,,,,,,,,,,,blau,yellow,g,0,b,0,2.3146461,None,,,,,,,,,4,0,48,7,420.8408338,,,,,,,,,,,,,,,,,420.8346653,422.0429255,422.8576406,422.8462037,,,,,,,,,,,,,,,,,,,,,,,,,,,,,,,,,,,422.8466099,422.8576406,422.8576406,425.1804304,b,0,2.3146461,None,,,,sub-009,1,2025-03-13_13h06.58.724,stroop_test,04.02.2024,59.80954249,2025-03-13 13h07.26.265646 +0100
,,,,49,1,4,,,,,,,,,,,,,gelb,yellow,g,1,g,1,1.2671843,None,,,,,,,,,4,1,49,11,425.1900623,,,,,,,,,,,,,,,,,425.1807689,425.541337,426.3406109,426.3289957,,,,,,,,,,,,,,,,,,,,,,,,,,,,,,,,,,,426.3320213,426.3406109,426.3406109,427.6137614,g,1,1.2671843,None,,,,sub-009,1,2025-03-13_13h06.58.724,stroop_test,04.02.2024,59.80954249,2025-03-13 13h07.26.265646 +0100
,,,,50,2,4,,,,,,,,,,,,,blau,blue,b,1,b,1,0.8806837,None,,,,,,,,,4,2,50,5,427.6235044,,,,,,,,,,,,,,,,,427.6140778,427.9742188,428.7738247,428.7623684,,,,,,,,,,,,,,,,,,,,,,,,,,,,,,,,,,,428.765919,428.7738247,428.7738247,429.6618659,b,1,0.8806837,None,,,,sub-009,1,2025-03-13_13h06.58.724,stroop_test,04.02.2024,59.80954249,2025-03-13 13h07.26.265646 +0100
,,,,51,3,4,,,,,,,,,,,,,blau,blue,b,1,b,1,0.8614567,None,,,,,,,,,4,3,51,6,429.6735707,,,,,,,,,,,,,,,,,429.662168,430.8736458,431.6744897,431.6616695,,,,,,,,,,,,,,,,,,,,,,,,,,,,,,,,,,,431.6621591,431.6744897,431.6744897,432.5479766,b,1,0.8614567,None,,,,sub-009,1,2025-03-13_13h06.58.724,stroop_test,04.02.2024,59.80954249,2025-03-13 13h07.26.265646 +0100
,,,,52,4,4,,,,,,,,,,,,,blau,red,r,0,b,0,1.6541449,None,,,,,,,,,4,4,52,4,432.5570811,,,,,,,,,,,,,,,,,432.5483039,433.357543,434.1568483,434.1461025,,,,,,,,,,,,,,,,,,,,,,,,,,,,,,,,,,,434.1465306,434.1568483,434.1568483,435.8270572,b,0,1.6541449,None,,,,sub-009,1,2025-03-13_13h06.58.724,stroop_test,04.02.2024,59.80954249,2025-03-13 13h07.26.265646 +0100
,,,,53,5,4,,,,,,,,,,,,,rot,red,r,1,r,1,2.8176517,None,,,,,,,,,4,5,53,0,435.8403602,,,,,,,,,,,,,,,,,435.8273224,435.9405514,436.7397033,436.7290512,,,,,,,,,,,,,,,,,,,,,,,,,,,,,,,,,,,436.7319471,436.7397033,436.7397033,439.5604829,r,1,2.8176517,None,,,,sub-009,1,2025-03-13_13h06.58.724,stroop_test,04.02.2024,59.80954249,2025-03-13 13h07.26.265646 +0100
,,,,54,6,4,,,,,,,,,,,,,gelb,yellow,g,1,g,1,0.9695036,None,,,,,,,,,4,6,54,10,439.5730317,,,,,,,,,,,,,,,,,439.5606878,439.9242465,440.7560378,440.7296839,,,,,,,,,,,,,,,,,,,,,,,,,,,,,,,,,,,440.7331719,440.7560378,440.7560378,441.7267768,g,1,0.9695036,None,,,,sub-009,1,2025-03-13_13h06.58.724,stroop_test,04.02.2024,59.80954249,2025-03-13 13h07.26.265646 +0100
,,,,55,7,4,,,,,,,,,,,,,rot,red,r,1,r,1,0.6796185,None,,,,,,,,,4,7,55,1,441.7392366,,,,,,,,,,,,,,,,,441.727035,442.0905883,442.8891189,442.8786694,,,,,,,,,,,,,,,,,,,,,,,,,,,,,,,,,,,442.8815313,442.8891189,442.8891189,443.5825104,r,1,0.6796185,None,,,,sub-009,1,2025-03-13_13h06.58.724,stroop_test,04.02.2024,59.80954249,2025-03-13 13h07.26.265646 +0100
,,,,56,8,4,,,,,,,,,,,,,rot,yellow,g,0,r,0,1.0746441,None,,,,,,,,,4,8,56,3,443.5895632,,,,,,,,,,,,,,,,,443.5830558,444.7901775,445.5896693,445.5788939,,,,,,,,,,,,,,,,,,,,,,,,,,,,,,,,,,,445.5793069,445.5896693,445.5896693,446.6778822,r,0,1.0746441,None,,,,sub-009,1,2025-03-13_13h06.58.724,stroop_test,04.02.2024,59.80954249,2025-03-13 13h07.26.265646 +0100
,,,,57,9,4,,,,,,,,,,,,,gelb,blue,b,0,g,0,1.3480913,None,,,,,,,,,4,9,57,9,446.6886583,,,,,,,,,,,,,,,,,446.6781428,446.7896412,447.589994,447.5793164,,,,,,,,,,,,,,,,,,,,,,,,,,,,,,,,,,,447.5819771,447.589994,447.589994,448.9476811,g,0,1.3480913,None,,,,sub-009,1,2025-03-13_13h06.58.724,stroop_test,04.02.2024,59.80954249,2025-03-13 13h07.26.265646 +0100
,,,,58,10,4,,,,,,,,,,,,,rot,blue,b,0,r,0,2.5840221,None,,,,,,,,,4,10,58,2,448.9557962,,,,,,,,,,,,,,,,,448.948115,449.0568553,449.8560128,449.8437271,,,,,,,,,,,,,,,,,,,,,,,,,,,,,,,,,,,449.8467014,449.8560128,449.8560128,452.4475282,r,0,2.5840221,None,,,,sub-009,1,2025-03-13_13h06.58.724,stroop_test,04.02.2024,59.80954249,2025-03-13 13h07.26.265646 +0100
,,,,59,11,4,,,,,,,,,,,,,gelb,red,r,0,g,0,1.4134802,None,,,,,,,,,4,11,59,8,452.4554434,,,,,,,,,,,,,,,,,452.4480303,453.6558868,454.4729989,454.4474951,,,,,,,,,,,,,,,,,,,,,,,,,,,,,,,,,,,454.4512979,454.4729989,454.4729989,455.8952405,g,0,1.4134802,None,,,,sub-009,1,2025-03-13_13h06.58.724,stroop_test,04.02.2024,59.80954249,2025-03-13 13h07.26.265646 +0100
,,,,60,0,5,,,,,,,,,,,,,rot,red,r,1,r,1,0.8086352,None,,,,,,,,,5,0,60,0,455.9060734,,,,,,,,,,,,,,,,,455.8956277,456.0059592,456.8051435,456.7928133,,,,,,,,,,,,,,,,,,,,,,,,,,,,,,,,,,,456.7951691,456.8051435,456.8051435,457.6259591,r,1,0.8086352,None,,,,sub-009,1,2025-03-13_13h06.58.724,stroop_test,04.02.2024,59.80954249,2025-03-13 13h07.26.265646 +0100
,,,,61,1,5,,,,,,,,,,,,,rot,red,r,1,r,1,0.768373,None,,,,,,,,,5,1,61,1,457.6387536,,,,,,,,,,,,,,,,,457.6262342,458.4394624,459.2390192,459.2258462,,,,,,,,,,,,,,,,,,,,,,,,,,,,,,,,,,,459.2261613,459.2390192,459.2390192,460.0132042,r,1,0.768373,None,,,,sub-009,1,2025-03-13_13h06.58.724,stroop_test,04.02.2024,59.80954249,2025-03-13 13h07.26.265646 +0100
,,,,62,2,5,,,,,,,,,,,,,rot,blue,b,0,r,0,1.2594987,None,,,,,,,,,5,2,62,2,460.0229878,,,,,,,,,,,,,,,,,460.0136022,460.3724539,461.1720108,461.1622894,,,,,,,,,,,,,,,,,,,,,,,,,,,,,,,,,,,461.1632958,461.1720108,461.1720108,462.4436051,r,0,1.2594987,None,,,,sub-009,1,2025-03-13_13h06.58.724,stroop_test,04.02.2024,59.80954249,2025-03-13 13h07.26.265646 +0100
,,,,63,3,5,,,,,,,,,,,,,rot,yellow,g,0,r,0,0.9896907,None,,,,,,,,,5,3,63,3,462.4560465,,,,,,,,,,,,,,,,,462.4439267,462.5562433,463.3552443,463.3454293,,,,,,,,,,,,,,,,,,,,,,,,,,,,,,,,,,,463.3460212,463.3552443,463.3552443,464.3613574,r,0,0.9896907,None,,,,sub-009,1,2025-03-13_13h06.58.724,stroop_test,04.02.2024,59.80954249,2025-03-13 13h07.26.265646 +0100
,,,,64,4,5,,,,,,,,,,,,,blau,red,r,0,b,0,1.799808,None,,,,,,,,,5,4,64,4,464.3719183,,,,,,,,,,,,,,,,,464.361721,465.5726057,466.3717155,466.3604094,,,,,,,,,,,,,,,,,,,,,,,,,,,,,,,,,,,466.3644864,466.3717155,466.3717155,468.1779628,b,0,1.799808,None,,,,sub-009,1,2025-03-13_13h06.58.724,stroop_test,04.02.2024,59.80954249,2025-03-13 13h07.26.265646 +0100
,,,,65,5,5,,,,,,,,,,,,,blau,blue,b,1,b,1,0.7016266,None,,,,,,,,,5,5,65,5,468.1886311,,,,,,,,,,,,,,,,,468.1782429,469.3896339,470.2049479,470.1934162,,,,,,,,,,,,,,,,,,,,,,,,,,,,,,,,,,,470.1937923,470.2049479,470.2049479,470.9126788,b,1,0.7016266,None,,,,sub-009,1,2025-03-13_13h06.58.724,stroop_test,04.02.2024,59.80954249,2025-03-13 13h07.26.265646 +0100
,,,,66,6,5,,,,,,,,,,,,,gelb,yellow,g,1,g,1,1.0850921,None,,,,,,,,,5,6,66,11,470.9215824,,,,,,,,,,,,,,,,,470.9131011,471.022125,471.8209959,471.8100145,,,,,,,,,,,,,,,,,,,,,,,,,,,,,,,,,,,471.8128167,471.8209959,471.8209959,472.9113334,g,1,1.0850921,None,,,,sub-009,1,2025-03-13_13h06.58.724,stroop_test,04.02.2024,59.80954249,2025-03-13 13h07.26.265646 +0100
,,,,67,7,5,,,,,,,,,,,,,blau,blue,b,1,b,1,1.2455751,None,,,,,,,,,5,7,67,6,472.9220284,,,,,,,,,,,,,,,,,472.9116933,473.0217131,473.8380304,473.8109569,,,,,,,,,,,,,,,,,,,,,,,,,,,,,,,,,,,473.8147617,473.8380304,473.8380304,475.0967091,b,1,1.2455751,None,,,,sub-009,1,2025-03-13_13h06.58.724,stroop_test,04.02.2024,59.80954249,2025-03-13 13h07.26.265646 +0100
,,,,68,8,5,,,,,,,,,,,,,gelb,yellow,g,1,g,1,0.7438739,None,,,,,,,,,5,8,68,10,475.1051733,,,,,,,,,,,,,,,,,475.0970597,475.9062487,476.7202047,476.6942135,,,,,,,,,,,,,,,,,,,,,,,,,,,,,,,,,,,476.6984157,476.7202047,476.7202047,477.4767121,g,1,0.7438739,None,,,,sub-009,1,2025-03-13_13h06.58.724,stroop_test,04.02.2024,59.80954249,2025-03-13 13h07.26.265646 +0100
,,,,69,9,5,,,,,,,,,,,,,gelb,blue,b,0,g,0,1.1339742,None,,,,,,,,,5,9,69,9,477.4877817,,,,,,,,,,,,,,,,,477.4770601,477.5885502,478.3878144,478.3760289,,,,,,,,,,,,,,,,,,,,,,,,,,,,,,,,,,,478.3763623,478.3878144,478.3878144,479.5261273,g,0,1.1339742,None,,,,sub-009,1,2025-03-13_13h06.58.724,stroop_test,04.02.2024,59.80954249,2025-03-13 13h07.26.265646 +0100
,,,,70,10,5,,,,,,,,,,,,,blau,yellow,g,0,b,0,2.4802017,None,,,,,,,,,5,10,70,7,479.5378904,,,,,,,,,,,,,,,,,479.5264031,479.888792,480.6881828,480.6761887,,,,,,,,,,,,,,,,,,,,,,,,,,,,,,,,,,,480.6789458,480.6881828,480.6881828,483.177626,b,0,2.4802017,None,,,,sub-009,1,2025-03-13_13h06.58.724,stroop_test,04.02.2024,59.80954249,2025-03-13 13h07.26.265646 +0100
,,,,71,11,5,,,,,,,,,,,,,gelb,red,r,0,g,0,1.7419203,None,,,,,,,,,5,11,71,8,483.1876621,,,,,,,,,,,,,,,,,483.1779163,483.9883837,484.787342,484.7756198,,,,,,,,,,,,,,,,,,,,,,,,,,,,,,,,,,,484.7783156,484.787342,484.787342,486.5408986,g,0,1.7419203,None,,,,sub-009,1,2025-03-13_13h06.58.724,stroop_test,04.02.2024,59.80954249,2025-03-13 13h07.26.265646 +0100
,,,,72,0,6,,,,,,,,,,,,,gelb,blue,b,0,g,0,0.6494497,None,,,,,,,,,6,0,72,9,486.554271,,,,,,,,,,,,,,,,,486.541147,487.3535109,488.153826,488.1428293,,,,,,,,,,,,,,,,,,,,,,,,,,,,,,,,,,,488.143199,488.153826,488.153826,488.8104176,g,0,0.6494497,None,,,,sub-009,1,2025-03-13_13h06.58.724,stroop_test,04.02.2024,59.80954249,2025-03-13 13h07.26.265646 +0100
,,,,73,1,6,,,,,,,,,,,,,rot,red,r,1,r,1,0.9208596,None,,,,,,,,,6,1,73,1,488.8206222,,,,,,,,,,,,,,,,,488.8108287,489.1708285,489.9701097,489.9592445,,,,,,,,,,,,,,,,,,,,,,,,,,,,,,,,,,,489.962762,489.9701097,489.9701097,490.8955737,r,1,0.9208596,None,,,,sub-009,1,2025-03-13_13h06.58.724,stroop_test,04.02.2024,59.80954249,2025-03-13 13h07.26.265646 +0100
,,,,74,2,6,,,,,,,,,,,,,gelb,yellow,g,1,g,1,1.1136759,None,,,,,,,,,6,2,74,10,490.9041966,,,,,,,,,,,,,,,,,490.8960255,491.7041254,492.5031376,492.4921247,,,,,,,,,,,,,,,,,,,,,,,,,,,,,,,,,,,492.4950731,492.5031376,492.5031376,493.6285582,g,1,1.1136759,None,,,,sub-009,1,2025-03-13_13h06.58.724,stroop_test,04.02.2024,59.80954249,2025-03-13 13h07.26.265646 +0100
,,,,75,3,6,,,,,,,,,,,,,rot,red,r,1,r,1,0.6584517,None,,,,,,,,,6,3,75,0,493.6372674,,,,,,,,,,,,,,,,,493.6289719,493.9874082,494.785997,494.7753827,,,,,,,,,,,,,,,,,,,,,,,,,,,,,,,,,,,494.7782388,494.785997,494.785997,495.4584446,r,1,0.6584517,None,,,,sub-009,1,2025-03-13_13h06.58.724,stroop_test,04.02.2024,59.80954249,2025-03-13 13h07.26.265646 +0100
,,,,76,4,6,,,,,,,,,,,,,blau,blue,b,1,b,1,1.233535,None,,,,,,,,,6,4,76,6,495.4701079,,,,,,,,,,,,,,,,,495.4588101,495.8201475,496.6200057,496.6098997,,,,,,,,,,,,,,,,,,,,,,,,,,,,,,,,,,,496.613361,496.6200057,496.6200057,497.858398,b,1,1.233535,None,,,,sub-009,1,2025-03-13_13h06.58.724,stroop_test,04.02.2024,59.80954249,2025-03-13 13h07.26.265646 +0100
,,,,77,5,6,,,,,,,,,,,,,rot,yellow,g,0,r,0,1.2266794,None,,,,,,,,,6,5,77,3,497.8699205,,,,,,,,,,,,,,,,,497.8586851,497.9697457,498.7701885,498.75762,,,,,,,,,,,,,,,,,,,,,,,,,,,,,,,,,,,498.7603788,498.7701885,498.7701885,500.0070517,r,0,1.2266794,None,,,,sub-009,1,2025-03-13_13h06.58.724,stroop_test,04.02.2024,59.80954249,2025-03-13 13h07.26.265646 +0100
,,,,78,6,6,,,,,,,,,,,,,rot,blue,b,0,r,0,0.749414,None,,,,,,,,,6,6,78,2,500.0203773,,,,,,,,,,,,,,,,,500.0072962,500.3716965,501.1866145,501.1752272,,,,,,,,,,,,,,,,,,,,,,,,,,,,,,,,,,,501.1757157,501.1866145,501.1866145,501.9429122,r,0,0.749414,None,,,,sub-009,1,2025-03-13_13h06.58.724,stroop_test,04.02.2024,59.80954249,2025-03-13 13h07.26.265646 +0100
,,,,79,7,6,,,,,,,,,,,,,blau,yellow,g,0,b,0,1.0027501,None,,,,,,,,,6,7,79,7,501.9536352,,,,,,,,,,,,,,,,,501.9434494,502.7539871,503.5529011,503.5416487,,,,,,,,,,,,,,,,,,,,,,,,,,,,,,,,,,,503.545322,503.5529011,503.5529011,504.5588017,b,0,1.0027501,None,,,,sub-009,1,2025-03-13_13h06.58.724,stroop_test,04.02.2024,59.80954249,2025-03-13 13h07.26.265646 +0100
,,,,80,8,6,,,,,,,,,,,,,blau,red,r,0,b,0,0.721211,None,,,,,,,,,6,8,80,4,504.570277,,,,,,,,,,,,,,,,,504.559116,504.9214155,505.7225918,505.7094789,,,,,,,,,,,,,,,,,,,,,,,,,,,,,,,,,,,505.7101512,505.7225918,505.7225918,506.4561681,b,0,0.721211,None,,,,sub-009,1,2025-03-13_13h06.58.724,stroop_test,04.02.2024,59.80954249,2025-03-13 13h07.26.265646 +0100
,,,,81,9,6,,,,,,,,,,,,,gelb,yellow,g,1,g,1,3.4378608,None,,,,,,,,,6,9,81,11,506.4695867,,,,,,,,,,,,,,,,,506.4564021,507.2713235,508.0690358,508.0581635,,,,,,,,,,,,,,,,,,,,,,,,,,,,,,,,,,,508.0613503,508.0690358,508.0690358,511.5123364,g,1,3.4378608,None,,,,sub-009,1,2025-03-13_13h06.58.724,stroop_test,04.02.2024,59.80954249,2025-03-13 13h07.26.265646 +0100
,,,,82,10,6,,,,,,,,,,,,,gelb,red,r,0,g,0,0.5986349,None,,,,,,,,,6,10,82,8,511.5193652,,,,,,,,,,,,,,,,,511.5127534,511.8704944,512.687339,512.6626816,,,,,,,,,,,,,,,,,,,,,,,,,,,,,,,,,,,512.6632507,512.687339,512.687339,513.2927502,g,0,0.5986349,None,,,,sub-009,1,2025-03-13_13h06.58.724,stroop_test,04.02.2024,59.80954249,2025-03-13 13h07.26.265646 +0100
,,,,83,11,6,,,,,,,,,,,,,blau,blue,b,1,b,1,0.6290418,None,,,,,,,,,6,11,83,5,513.3020018,,,,,,,,,,,,,,,,,513.293078,513.6529139,514.454789,514.4402234,,,,,,,,,,,,,,,,,,,,,,,,,,,,,,,,,,,514.4428771,514.454789,514.454789,515.0912288,b,1,0.6290418,None,,,,sub-009,1,2025-03-13_13h06.58.724,stroop_test,04.02.2024,59.80954249,2025-03-13 13h07.26.265646 +0100
,,,,84,0,7,,,,,,,,,,,,,gelb,yellow,g,1,g,1,1.0338246,None,,,,,,,,,7,0,84,10,515.1027615,,,,,,,,,,,,,,,,,515.0915117,515.2040587,516.0198092,515.9923706,,,,,,,,,,,,,,,,,,,,,,,,,,,,,,,,,,,515.9968352,516.0198092,516.0198092,517.0599794,g,1,1.0338246,None,,,,sub-009,1,2025-03-13_13h06.58.724,stroop_test,04.02.2024,59.80954249,2025-03-13 13h07.26.265646 +0100
,,,,85,1,7,,,,,,,,,,,,,gelb,yellow,g,1,g,1,0.5583264,None,,,,,,,,,7,1,85,11,517.0688214,,,,,,,,,,,,,,,,,517.060329,517.1847182,517.9867873,517.9757393,,,,,,,,,,,,,,,,,,,,,,,,,,,,,,,,,,,517.9762503,517.9867873,517.9867873,518.5568235,g,1,0.5583264,None,,,,sub-009,1,2025-03-13_13h06.58.724,stroop_test,04.02.2024,59.80954249,2025-03-13 13h07.26.265646 +0100
,,,,86,2,7,,,,,,,,,,,,,blau,blue,b,1,b,1,0.9659686,None,,,,,,,,,7,2,86,5,518.5690037,,,,,,,,,,,,,,,,,518.5572163,519.3703813,520.202822,520.1773934,,,,,,,,,,,,,,,,,,,,,,,,,,,,,,,,,,,520.1807997,520.202822,520.202822,521.174645,b,1,0.9659686,None,,,,sub-009,1,2025-03-13_13h06.58.724,stroop_test,04.02.2024,59.80954249,2025-03-13 13h07.26.265646 +0100
,,,,87,3,7,,,,,,,,,,,,,blau,red,r,0,b,0,0.9240258,None,,,,,,,,,7,3,87,4,521.1854721,,,,,,,,,,,,,,,,,521.174902,522.3860609,523.1852986,523.174503,,,,,,,,,,,,,,,,,,,,,,,,,,,,,,,,,,,523.1748451,523.1852986,523.1852986,524.1216156,b,0,0.9240258,None,,,,sub-009,1,2025-03-13_13h06.58.724,stroop_test,04.02.2024,59.80954249,2025-03-13 13h07.26.265646 +0100
,,,,88,4,7,,,,,,,,,,,,,rot,yellow,g,0,r,0,0.7362154,None,,,,,,,,,7,4,88,3,524.1353894,,,,,,,,,,,,,,,,,524.1218251,524.2360823,525.0355901,525.0240557,,,,,,,,,,,,,,,,,,,,,,,,,,,,,,,,,,,525.028576,525.0355901,525.0355901,525.7744153,r,0,0.7362154,None,,,,sub-009,1,2025-03-13_13h06.58.724,stroop_test,04.02.2024,59.80954249,2025-03-13 13h07.26.265646 +0100
,,,,89,5,7,,,,,,,,,,,,,rot,red,r,1,r,1,0.4145001,None,,,,,,,,,7,5,89,1,525.7847338,,,,,,,,,,,,,,,,,525.7747064,526.1354142,526.9356084,526.9258432,,,,,,,,,,,,,,,,,,,,,,,,,,,,,,,,,,,526.9263033,526.9356084,526.9356084,527.3592037,r,1,0.4145001,None,,,,sub-009,1,2025-03-13_13h06.58.724,stroop_test,04.02.2024,59.80954249,2025-03-13 13h07.26.265646 +0100
,,,,90,6,7,,,,,,,,,,,,,blau,yellow,g,0,b,0,0.8532894,None,,,,,,,,,7,6,90,7,527.3692233,,,,,,,,,,,,,,,,,527.359628,527.7182071,528.5347498,528.5078001,,,,,,,,,,,,,,,,,,,,,,,,,,,,,,,,,,,528.5116505,528.5347498,528.5347498,529.3911943,b,0,0.8532894,None,,,,sub-009,1,2025-03-13_13h06.58.724,stroop_test,04.02.2024,59.80954249,2025-03-13 13h07.26.265646 +0100
,,,,91,7,7,,,,,,,,,,,,,rot,blue,b,0,r,0,0.7786851,None,,,,,,,,,7,7,91,2,529.4023596,,,,,,,,,,,,,,,,,529.391606,529.7523351,530.567933,530.5414942,,,,,,,,,,,,,,,,,,,,,,,,,,,,,,,,,,,530.5467113,530.567933,530.567933,531.356806,r,0,0.7786851,None,,,,sub-009,1,2025-03-13_13h06.58.724,stroop_test,04.02.2024,59.80954249,2025-03-13 13h07.26.265646 +0100
,,,,92,8,7,,,,,,,,,,,,,gelb,blue,b,0,g,0,1.2421018,None,,,,,,,,,7,8,92,9,531.3681477,,,,,,,,,,,,,,,,,531.3571965,532.1695127,532.9843103,532.9591827,,,,,,,,,,,,,,,,,,,,,,,,,,,,,,,,,,,532.9627523,532.9843103,532.9843103,534.2397902,g,0,1.2421018,None,,,,sub-009,1,2025-03-13_13h06.58.724,stroop_test,04.02.2024,59.80954249,2025-03-13 13h07.26.265646 +0100
,,,,93,9,7,,,,,,,,,,,,,rot,red,r,1,r,1,0.8884404,None,,,,,,,,,7,9,93,0,534.2519911,,,,,,,,,,,,,,,,,534.2401067,534.6018927,535.4015579,535.3907649,,,,,,,,,,,,,,,,,,,,,,,,,,,,,,,,,,,535.3937162,535.4015579,535.4015579,536.2933152,r,1,0.8884404,None,,,,sub-009,1,2025-03-13_13h06.58.724,stroop_test,04.02.2024,59.80954249,2025-03-13 13h07.26.265646 +0100
,,,,94,10,7,,,,,,,,,,,,,gelb,red,r,0,g,0,1.3792839,None,,,,,,,,,7,10,94,8,536.3024841,,,,,,,,,,,,,,,,,536.2938311,537.1032328,537.9170226,537.8931398,,,,,,,,,,,,,,,,,,,,,,,,,,,,,,,,,,,537.8967,537.9170226,537.9170226,539.3061169,g,0,1.3792839,None,,,,sub-009,1,2025-03-13_13h06.58.724,stroop_test,04.02.2024,59.80954249,2025-03-13 13h07.26.265646 +0100
,,,,95,11,7,,,,,,,,,,,,,blau,blue,b,1,b,1,1.3773148,None,,,,,,,,,7,11,95,6,539.3183349,,,,,,,,,,,,,,,,,539.3064591,539.6687067,540.4677266,540.4569451,,,,,,,,,,,,,,,,,,,,,,,,,,,,,,,,,,,540.4600212,540.4677266,540.4677266,541.8550499,b,1,1.3773148,None,,,,sub-009,1,2025-03-13_13h06.58.724,stroop_test,04.02.2024,59.80954249,2025-03-13 13h07.26.265646 +0100
,,,,96,0,8,,,,,,,,,,,,,blau,blue,b,1,b,1,0.7094583,None,,,,,,,,,8,0,96,6,541.8672289,,,,,,,,,,,,,,,,,541.8552987,543.0675092,543.8693377,543.8567757,,,,,,,,,,,,,,,,,,,,,,,,,,,,,,,,,,,543.857245,543.8693377,543.8693377,544.5890682,b,1,0.7094583,None,,,,sub-009,1,2025-03-13_13h06.58.724,stroop_test,04.02.2024,59.80954249,2025-03-13 13h07.26.265646 +0100
,,,,97,1,8,,,,,,,,,,,,,gelb,blue,b,0,g,0,0.9037528,None,,,,,,,,,8,1,97,9,544.60111,,,,,,,,,,,,,,,,,544.5893493,544.9666122,545.7843212,545.7605122,,,,,,,,,,,,,,,,,,,,,,,,,,,,,,,,,,,545.7643937,545.7843212,545.7843212,546.6936621,g,0,0.9037528,None,,,,sub-009,1,2025-03-13_13h06.58.724,stroop_test,04.02.2024,59.80954249,2025-03-13 13h07.26.265646 +0100
,,,,98,2,8,,,,,,,,,,,,,gelb,yellow,g,1,g,1,0.4350905,None,,,,,,,,,8,2,98,10,546.7008944,,,,,,,,,,,,,,,,,546.6941933,547.5016355,548.3015115,548.2890311,,,,,,,,,,,,,,,,,,,,,,,,,,,,,,,,,,,548.2894624,548.3015115,548.3015115,548.7399051,g,1,0.4350905,None,,,,sub-009,1,2025-03-13_13h06.58.724,stroop_test,04.02.2024,59.80954249,2025-03-13 13h07.26.265646 +0100
,,,,99,3,8,,,,,,,,,,,,,gelb,yellow,g,1,g,1,0.5133155,None,,,,,,,,,8,3,99,11,548.7506762,,,,,,,,,,,,,,,,,548.7402362,548.8513932,549.6506818,549.6396928,,,,,,,,,,,,,,,,,,,,,,,,,,,,,,,,,,,549.640566,549.6506818,549.6506818,550.1722863,g,1,0.5133155,None,,,,sub-009,1,2025-03-13_13h06.58.724,stroop_test,04.02.2024,59.80954249,2025-03-13 13h07.26.265646 +0100
,,,,100,4,8,,,,,,,,,,,,,rot,red,r,1,r,1,0.5548282,None,,,,,,,,,8,4,100,0,550.1830518,,,,,,,,,,,,,,,,,550.1726165,550.9849689,551.7845179,551.7718348,,,,,,,,,,,,,,,,,,,,,,,,,,,,,,,,,,,551.7748161,551.7845179,551.7845179,552.3421383,r,1,0.5548282,None,,,,sub-009,1,2025-03-13_13h06.58.724,stroop_test,04.02.2024,59.80954249,2025-03-13 13h07.26.265646 +0100
,,,,101,5,8,,,,,,,,,,,,,blau,red,r,0,b,0,0.7255985,None,,,,,,,,,8,5,101,4,552.3503123,,,,,,,,,,,,,,,,,552.3424357,552.4507142,553.2501817,553.2382596,,,,,,,,,,,,,,,,,,,,,,,,,,,,,,,,,,,553.2408064,553.2501817,553.2501817,553.9891446,b,0,0.7255985,None,,,,sub-009,1,2025-03-13_13h06.58.724,stroop_test,04.02.2024,59.80954249,2025-03-13 13h07.26.265646 +0100
,,,,102,6,8,,,,,,,,,,,,,blau,yellow,g,0,b,0,0.7041036,None,,,,,,,,,8,6,102,7,554.0009404,,,,,,,,,,,,,,,,,553.9894574,555.2018965,556.000984,555.9918941,,,,,,,,,,,,,,,,,,,,,,,,,,,,,,,,,,,555.9924334,556.000984,556.000984,556.7081712,b,0,0.7041036,None,,,,sub-009,1,2025-03-13_13h06.58.724,stroop_test,04.02.2024,59.80954249,2025-03-13 13h07.26.265646 +0100
,,,,103,7,8,,,,,,,,,,,,,gelb,red,r,0,g,0,0.8029936,None,,,,,,,,,8,7,103,8,556.7168916,,,,,,,,,,,,,,,,,556.7085534,557.5181611,558.3167201,558.3053181,,,,,,,,,,,,,,,,,,,,,,,,,,,,,,,,,,,558.3086003,558.3167201,558.3167201,559.1265729,g,0,0.8029936,None,,,,sub-009,1,2025-03-13_13h06.58.724,stroop_test,04.02.2024,59.80954249,2025-03-13 13h07.26.265646 +0100
,,,,104,8,8,,,,,,,,,,,,,rot,red,r,1,r,1,0.445246,None,,,,,,,,,8,8,104,1,559.1350331,,,,,,,,,,,,,,,,,559.1271628,560.3342278,561.1496454,561.1242186,,,,,,,,,,,,,,,,,,,,,,,,,,,,,,,,,,,561.1284107,561.1496454,561.1496454,561.6045999,r,1,0.445246,None,,,,sub-009,1,2025-03-13_13h06.58.724,stroop_test,04.02.2024,59.80954249,2025-03-13 13h07.26.265646 +0100
,,,,105,9,8,,,,,,,,,,,,,rot,yellow,g,0,r,0,0.5602157,None,,,,,,,,,8,9,105,3,561.6158908,,,,,,,,,,,,,,,,,561.6049586,561.7168106,562.5168924,562.5050734,,,,,,,,,,,,,,,,,,,,,,,,,,,,,,,,,,,562.5055139,562.5168924,562.5168924,563.0874765,r,0,0.5602157,None,,,,sub-009,1,2025-03-13_13h06.58.724,stroop_test,04.02.2024,59.80954249,2025-03-13 13h07.26.265646 +0100
,,,,106,10,8,,,,,,,,,,,,,rot,blue,b,0,r,0,0.6163661,None,,,,,,,,,8,10,106,2,563.1002019,,,,,,,,,,,,,,,,,563.0877607,564.3005144,565.1002301,565.088489,,,,,,,,,,,,,,,,,,,,,,,,,,,,,,,,,,,565.088892,565.1002301,565.1002301,565.7227986,r,0,0.6163661,None,,,,sub-009,1,2025-03-13_13h06.58.724,stroop_test,04.02.2024,59.80954249,2025-03-13 13h07.26.265646 +0100
,,,,107,11,8,,,,,,,,,,,,,blau,blue,b,1,g,0,0.5659199,None,,,,,,,,,8,11,107,5,565.7325519,,,,,,,,,,,,,,,,,565.7233155,566.5337021,567.3487792,567.3249939,,,,,,,,,,,,,,,,,,,,,,,,,,,,,,,,,,,567.3290799,567.3487792,567.3487792,567.9255607,g,0,0.5659199,None,,,,sub-009,1,2025-03-13_13h06.58.724,stroop_test,04.02.2024,59.80954249,2025-03-13 13h07.26.265646 +0100
,,,,108,0,9,,,,,,,,,,,,,gelb,yellow,g,1,r,0,1.5181896,None,,,,,,,,,9,0,108,11,567.9339352,,,,,,,,,,,,,,,,,567.9259911,569.1335035,569.9334034,569.9214178,,,,,,,,,,,,,,,,,,,,,,,,,,,,,,,,,,,569.9249803,569.9334034,569.9334034,571.4557407,r,0,1.5181896,None,,,,sub-009,1,2025-03-13_13h06.58.724,stroop_test,04.02.2024,59.80954249,2025-03-13 13h07.26.265646 +0100
,,,,109,1,9,,,,,,,,,,,,,rot,yellow,g,0,r,0,2.7022285,None,,,,,,,,,9,1,109,3,571.4665732,,,,,,,,,,,,,,,,,571.4559864,572.6671573,573.4823628,573.4573908,,,,,,,,,,,,,,,,,,,,,,,,,,,,,,,,,,,573.4620474,573.4823628,573.4823628,576.1918672,r,0,2.7022285,None,,,,sub-009,1,2025-03-13_13h06.58.724,stroop_test,04.02.2024,59.80954249,2025-03-13 13h07.26.265646 +0100
,,,,110,2,9,,,,,,,,,,,,,gelb,red,r,0,g,0,1.136626,None,,,,,,,,,9,2,110,8,576.1999164,,,,,,,,,,,,,,,,,576.1923716,577.400269,578.1985947,578.1881779,,,,,,,,,,,,,,,,,,,,,,,,,,,,,,,,,,,578.1910637,578.1985947,578.1985947,579.3394207,g,0,1.136626,None,,,,sub-009,1,2025-03-13_13h06.58.724,stroop_test,04.02.2024,59.80954249,2025-03-13 13h07.26.265646 +0100
,,,,111,3,9,,,,,,,,,,,,,blau,blue,b,1,b,1,0.7103091,None,,,,,,,,,9,3,111,5,579.3490422,,,,,,,,,,,,,,,,,579.339775,580.1493811,580.9493762,580.9379371,,,,,,,,,,,,,,,,,,,,,,,,,,,,,,,,,,,580.9416943,580.9493762,580.9493762,581.671894,b,1,0.7103091,None,,,,sub-009,1,2025-03-13_13h06.58.724,stroop_test,04.02.2024,59.80954249,2025-03-13 13h07.26.265646 +0100
,,,,112,4,9,,,,,,,,,,,,,gelb,yellow,g,1,g,1,1.09889,None,,,,,,,,,9,4,112,10,581.6824836,,,,,,,,,,,,,,,,,581.672165,582.033781,582.8488369,582.8351946,,,,,,,,,,,,,,,,,,,,,,,,,,,,,,,,,,,582.8376174,582.8488369,582.8488369,583.9553619,g,1,1.09889,None,,,,sub-009,1,2025-03-13_13h06.58.724,stroop_test,04.02.2024,59.80954249,2025-03-13 13h07.26.265646 +0100
,,,,113,5,9,,,,,,,,,,,,,rot,red,r,1,r,1,2.2048507,None,,,,,,,,,9,5,113,0,583.9655595,,,,,,,,,,,,,,,,,583.955841,585.1659206,585.9656807,585.9544083,,,,,,,,,,,,,,,,,,,,,,,,,,,,,,,,,,,585.95785,585.9656807,585.9656807,588.1890747,r,1,2.2048507,None,,,,sub-009,1,2025-03-13_13h06.58.724,stroop_test,04.02.2024,59.80954249,2025-03-13 13h07.26.265646 +0100
,,,,114,6,9,,,,,,,,,,,,,blau,yellow,g,0,b,0,2.9819236,None,,,,,,,,,9,6,114,7,588.1990267,,,,,,,,,,,,,,,,,588.1894612,588.5508025,589.3654023,589.3539589,,,,,,,,,,,,,,,,,,,,,,,,,,,,,,,,,,,589.3566941,589.3654023,589.3654023,592.3566401,b,0,2.9819236,None,,,,sub-009,1,2025-03-13_13h06.58.724,stroop_test,04.02.2024,59.80954249,2025-03-13 13h07.26.265646 +0100
,,,,115,7,9,,,,,,,,,,,,,rot,red,r,1,r,1,0.8116379,None,,,,,,,,,9,7,115,1,592.3648739,,,,,,,,,,,,,,,,,592.3569312,592.7157365,593.5151249,593.5031813,,,,,,,,,,,,,,,,,,,,,,,,,,,,,,,,,,,593.5058816,593.5151249,593.5151249,594.3367144,r,1,0.8116379,None,,,,sub-009,1,2025-03-13_13h06.58.724,stroop_test,04.02.2024,59.80954249,2025-03-13 13h07.26.265646 +0100
,,,,116,8,9,,,,,,,,,,,,,gelb,blue,b,0,g,0,1.136129,None,,,,,,,,,9,8,116,9,594.348393,,,,,,,,,,,,,,,,,594.337043,594.44968,595.2490764,595.2377585,,,,,,,,,,,,,,,,,,,,,,,,,,,,,,,,,,,595.2410396,595.2490764,595.2490764,596.3914056,g,0,1.136129,None,,,,sub-009,1,2025-03-13_13h06.58.724,stroop_test,04.02.2024,59.80954249,2025-03-13 13h07.26.265646 +0100
,,,,117,9,9,,,,,,,,,,,,,blau,blue,b,1,b,1,1.348672,None,,,,,,,,,9,9,117,6,596.3980469,,,,,,,,,,,,,,,,,596.3919796,597.5988861,598.3976091,598.3863185,,,,,,,,,,,,,,,,,,,,,,,,,,,,,,,,,,,598.388616,598.3976091,598.3976091,599.7555891,b,1,1.348672,None,,,,sub-009,1,2025-03-13_13h06.58.724,stroop_test,04.02.2024,59.80954249,2025-03-13 13h07.26.265646 +0100
,,,,118,10,9,,,,,,,,,,,,,rot,blue,b,0,r,0,0.7310992,None,,,,,,,,,9,10,118,2,599.7658064,,,,,,,,,,,,,,,,,599.7559044,599.8646174,600.6822142,600.6568121,,,,,,,,,,,,,,,,,,,,,,,,,,,,,,,,,,,600.6624182,600.6822142,600.6822142,601.4204084,r,0,0.7310992,None,,,,sub-009,1,2025-03-13_13h06.58.724,stroop_test,04.02.2024,59.80954249,2025-03-13 13h07.26.265646 +0100
,,,,119,11,9,,,,,,,,,,,,,blau,red,r,0,b,0,2.823185,None,,,,,,,,,9,11,119,4,601.4312228,,,,,,,,,,,,,,,,,601.4206945,601.782289,602.5970413,602.5750956,,,,,,,,,,,,,,,,,,,,,,,,,,,,,,,,,,,602.5810528,602.5970413,602.5970413,605.435587,b,0,2.823185,None,,,,sub-009,1,2025-03-13_13h06.58.724,stroop_test,04.02.2024,59.80954249,2025-03-13 13h07.26.265646 +0100
,,,,,,,,,,,,,,,,,,,,,,,,,,,,,,,,,,,,,,,,,,,,,,,,,,,,,,,,,,,,,,,,,,,,,,,,,,,,,,,,,,,,,,,,,,,,,,,,,,,,,,605.4357312,605.447796,610.4367481,sub-009,1,2025-03-13_13h06.58.724,stroop_test,04.02.2024,59.80954249,2025-03-13 13h07.26.265646 +0100
