wordCTK,colorCTK,corrAnsCTK,congruentCTK,thisN,thisTrialN,thisRepN,keyResp_CTK.keys,keyResp_CTK.corr,keyResp_CTK.rt,keyResp_CTK.duration,wordPractice,colorPractice,corrAnsPractice,congruentPractice,respPractice.keys,respPractice.corr,respPractice.rt,respPractice.duration,word,color,corrAns,congruent,keyResp_test_run.keys,keyResp_test_run.corr,keyResp_test_run.rt,keyResp_test_run.duration,trials_CTK.thisRepN,trials_CTK.thisTrialN,trials_CTK.thisN,trials_CTK.thisIndex,trials_practice.thisRepN,trials_practice.thisTrialN,trials_practice.thisN,trials_practice.thisIndex,trials_test.thisRepN,trials_test.thisTrialN,trials_test.thisN,trials_test.thisIndex,thisRow.t,notes,instruction.started,instr_text.started,instr_image.started,instr_resp.started,instruction.stopped,instr_resp.keys,instr_resp.rt,instr_resp.duration,instr_color_to_key.started,instr_ctk.started,resp_ctk.started,instr_color_to_key.stopped,resp_ctk.keys,resp_ctk.rt,resp_ctk.duration,ITI.started,fixcross.started,fixcross.stopped,ITI.stopped,color_to_key_run.started,stimulus_CTK.started,keyResp_CTK.started,color_to_key_run.stopped,trials_CTK.keyResp_CTK.keys,trials_CTK.keyResp_CTK.corr,trials_CTK.keyResp_CTK.rt,trials_CTK.keyResp_CTK.duration,instr_practice.started,instr_practice_text.started,instr_practice_resp.started,instr_practice.stopped,instr_practice_resp.keys,instr_practice_resp.rt,instr_practice_resp.duration,practice_run.started,stimulus_practice.started,respPractice.started,practice_run.stopped,trials_practice.respPractice.keys,trials_practice.respPractice.corr,trials_practice.respPractice.rt,trials_practice.respPractice.duration,feedback.started,textFeedback.started,feedback.stopped,textFeedback.stopped,instr_test.started,instr_test_text.started,instr_test_resp.started,instr_test.stopped,instr_test_resp.keys,instr_test_resp.rt,instr_test_resp.duration,test_run.started,stimulus_test_run.started,keyResp_test_run.started,test_run.stopped,trials_test.keyResp_test_run.keys,trials_test.keyResp_test_run.corr,trials_test.keyResp_test_run.rt,trials_test.keyResp_test_run.duration,goodbye.started,textGoodbye.started,textGoodbye.stopped,goodbye.stopped,participant,session,expName,frameRate,Unnamed: 113
,,,,,,,,,,,,,,,,,,,,,,,,,,,,,,,,,,,,,,,,,0.0079431670019403,0.0157258340041153,0.0157258340041153,0.0157258340041153,46.746122708995244,space,46.68859533300565,,,,,,,,,,,,,,,,,,,,,,,,,,,,,,,,,,,,,,,,,,,,,,,,,,,,,,,,,,,sub-101,1,stroop_test,,
,,,,,,,,,,,,,,,,,,,,,,,,,,,,,,,,,,,,,,,,,,,,,,,,,46.74621020900668,46.76339550000557,46.76339550000557,52.738884292004514,space,5.968434542010073,,,,,,,,,,,,,,,,,,,,,,,,,,,,,,,,,,,,,,,,,,,,,,,,,,,,sub-101,1,stroop_test,,
test,blue,b,1.0,0.0,0.0,0.0,b,1.0,1.5895436249993509,,,,,,,,,,,,,,,,,,0.0,0.0,0.0,2.0,,,,,,,,,52.77133370899537,,,,,,,,,,,,,,,,,52.75788483400538,53.09151420899434,53.89600504199916,53.88123199999973,53.88913275000232,53.89600504199916,53.89600504199916,55.48931808400084,b,1.0,1.5895436249993509,,,,,,,,,,,,,,,,,,,,,,,,,,,,,,,,,,,,,,,,sub-101,1,stroop_test,,
test,red,r,1.0,1.0,1.0,0.0,r,1.0,1.5153712920000544,,,,,,,,,,,,,,,,,,0.0,1.0,1.0,0.0,,,,,,,,,55.49960895899858,,,,,,,,,,,,,,,,,55.48992941700271,56.687519041995984,57.4790974589996,57.47059595900646,57.47120608399564,57.4790974589996,57.4790974589996,58.99899970900151,r,1.0,1.5153712920000544,,,,,,,,,,,,,,,,,,,,,,,,,,,,,,,,,,,,,,,,sub-101,1,stroop_test,,
test,yellow,g,1.0,2.0,2.0,0.0,g,1.0,0.5026024170074379,,,,,,,,,,,,,,,,,,0.0,2.0,2.0,1.0,,,,,,,,,59.00717158400221,,,,,,,,,,,,,,,,,58.9994773340004,59.3473555840028,60.139139125007205,60.13142020899977,60.13218216699897,60.139139125007205,60.139139125007205,60.64924029199756,g,1.0,0.5026024170074379,,,,,,,,,,,,,,,,,,,,,,,,,,,,,,,,,,,,,,,,sub-101,1,stroop_test,,
test,yellow,g,1.0,3.0,0.0,1.0,g,1.0,0.9422231249918696,,,,,,,,,,,,,,,,,,1.0,0.0,3.0,1.0,,,,,,,,,60.657059749995824,,,,,,,,,,,,,,,,,60.649747792005655,60.74737333400117,61.53884208400268,61.53137058399443,61.5320722089964,61.53884208400268,61.53884208400268,62.483975459006615,g,1.0,0.9422231249918696,,,,,,,,,,,,,,,,,,,,,,,,,,,,,,,,,,,,,,,,sub-101,1,stroop_test,,
test,red,r,1.0,4.0,1.0,1.0,r,1.0,2.3638012910087127,,,,,,,,,,,,,,,,,,1.0,1.0,4.0,0.0,,,,,,,,,62.49363108399848,,,,,,,,,,,,,,,,,62.48460041699582,62.83087141699798,63.622350624995306,63.61483375000535,63.61558162499568,63.622350624995306,63.622350624995306,65.98950104200048,r,1.0,2.3638012910087127,,,,,,,,,,,,,,,,,,,,,,,,,,,,,,,,,,,,,,,,sub-101,1,stroop_test,,
test,blue,b,1.0,5.0,2.0,1.0,b,1.0,1.696929249999812,,,,,,,,,,,,,,,,,,1.0,2.0,5.0,2.0,,,,,,,,,65.99921350000659,,,,,,,,,,,,,,,,,65.99000333399454,66.3375167500053,67.12917454200215,67.12108183400414,67.1216750839958,67.12917454200215,67.12917454200215,68.83278104200144,b,1.0,1.696929249999812,,,,,,,,,,,,,,,,,,,,,,,,,,,,,,,,,,,,,,,,sub-101,1,stroop_test,,
test,red,r,1.0,6.0,0.0,2.0,r,1.0,1.1588309170037974,,,,,,,,,,,,,,,,,,2.0,0.0,6.0,0.0,,,,,,,,,68.84240504199988,,,,,,,,,,,,,,,,,68.83340866700746,68.93061266699806,69.72199654199358,69.71454741699563,69.71512754200376,69.72199654199358,69.72199654199358,70.88340691699705,r,1.0,1.1588309170037974,,,,,,,,,,,,,,,,,,,,,,,,,,,,,,,,,,,,,,,,sub-101,1,stroop_test,,
test,yellow,g,1.0,7.0,1.0,2.0,g,1.0,0.8442490840097889,,,,,,,,,,,,,,,,,,2.0,1.0,7.0,1.0,,,,,,,,,70.89313895899977,,,,,,,,,,,,,,,,,70.88403537499835,71.23054008399777,72.02182133399765,72.01467887499894,72.01527925000119,72.02182133399765,72.02182133399765,72.87244783400092,g,1.0,0.8442490840097889,,,,,,,,,,,,,,,,,,,,,,,,,,,,,,,,,,,,,,,,sub-101,1,stroop_test,,
test,blue,b,1.0,8.0,2.0,2.0,b,1.0,0.8342557500000112,,,,,,,,,,,,,,,,,,2.0,2.0,8.0,2.0,,,,,,,,,72.88206754199928,,,,,,,,,,,,,,,,,72.87295645900303,72.97300458399695,73.77226508400054,73.7645573750051,73.7652967920003,73.77226508400054,73.77226508400054,74.61631158400269,b,1.0,0.8342557500000112,,,,,,,,,,,,,,,,,,,,,,,,,,,,,,,,,,,,,,,,sub-101,1,stroop_test,,
test,yellow,g,1.0,9.0,0.0,3.0,g,1.0,0.6600067920080619,,,,,,,,,,,,,,,,,,3.0,0.0,9.0,1.0,,,,,,,,,74.62597608400392,,,,,,,,,,,,,,,,,74.6169969170005,74.71244691699394,75.50548720899678,75.49806529200578,75.49882487500145,75.50548720899678,75.50548720899678,76.1724475420051,g,1.0,0.6600067920080619,,,,,,,,,,,,,,,,,,,,,,,,,,,,,,,,,,,,,,,,sub-101,1,stroop_test,,
test,red,r,1.0,10.0,1.0,3.0,r,1.0,1.039828207998653,,,,,,,,,,,,,,,,,,3.0,1.0,10.0,0.0,,,,,,,,,76.18254966700624,,,,,,,,,,,,,,,,,76.17296549999446,76.97024070899351,77.76255174999824,77.75348120900162,77.75406404200476,77.76255174999824,77.76255174999824,78.805053959004,r,1.0,1.039828207998653,,,,,,,,,,,,,,,,,,,,,,,,,,,,,,,,,,,,,,,,sub-101,1,stroop_test,,
test,blue,b,1.0,11.0,2.0,3.0,b,1.0,0.9026230839954223,,,,,,,,,,,,,,,,,,3.0,2.0,11.0,2.0,,,,,,,,,78.81546779199562,,,,,,,,,,,,,,,,,78.80554099999426,79.15320858400082,79.94578545900004,79.93711754199467,79.93770104199939,79.94578545900004,79.94578545900004,80.85576516699803,b,1.0,0.9026230839954223,,,,,,,,,,,,,,,,,,,,,,,,,,,,,,,,,,,,,,,,sub-101,1,stroop_test,,
,,,,,,,,,,,,,,,,,,,,,,,,,,,,,,,,,,,,,,,,,,,,,,,,,,,,,,,,,,,,,,,,,,,,80.85600149999664,80.86801508399367,80.86801508399367,92.69942887499928,space,11.822906667002826,,,,,,,,,,,,,,,,,,,,,,,,,,,,,,,,,sub-101,1,stroop_test,,
,,,,0.0,0.0,0.0,,,,,blau,yellow,g,0.0,g,1.0,1.662944708004943,,,,,,,,,,,,,,0.0,0.0,0.0,7.0,,,,,92.72250129199529,,,,,,,,,,,,,,,,,92.71532466700592,93.49733025000025,94.29577383400463,94.28125737499796,,,,,,,,,,,,,,,,94.28865829200367,94.29577383400463,94.29577383400463,95.96611195900186,g,1.0,1.662944708004943,,95.97522879199823,95.98390316699806,96.96960045899324,,,,,,,,,,,,,,,,,,,,,sub-101,1,stroop_test,,
,,,,1.0,1.0,0.0,,,,,gelb,yellow,g,1.0,g,1.0,0.8309812500083353,,,,,,,,,,,,,,0.0,1.0,1.0,11.0,,,,,96.98069020900584,,,,,,,,,,,,,,,,,96.97008020899376,97.064053708993,97.85989379200328,97.8480897499976,,,,,,,,,,,,,,,,97.85270937500172,97.85989379200328,97.85989379200328,98.69949929199356,g,1.0,0.8309812500083353,,98.70037070900436,98.71121649999986,99.69813458400311,99.70373374999326,,,,,,,,,,,,,,,,,,,,sub-101,1,stroop_test,,
,,,,2.0,2.0,0.0,,,,,rot,red,r,1.0,r,1.0,1.0406830830033869,,,,,,,,,,,,,,0.0,2.0,2.0,1.0,,,,,99.70373374999326,,,,,,,,,,,,,,,,,99.69865916699928,99.79740879200108,100.59446695899533,100.58146441700228,,,,,,,,,,,,,,,,100.58736454200698,100.59446695899533,100.59446695899533,101.63848691699968,r,1.0,1.0406830830033869,,101.639228,101.6511485420051,102.6377863749949,102.64727470900108,,,,,,,,,,,,,,,,,,,,sub-101,1,stroop_test,,
,,,,3.0,3.0,0.0,,,,,gelb,yellow,g,1.0,g,1.0,1.0722461249970363,,,,,,,,,,,,,,0.0,3.0,3.0,10.0,,,,,102.64727470900108,,,,,,,,,,,,,,,,,102.6382099170005,103.83705029200064,104.64328791700244,104.63166245899627,,,,,,,,,,,,,,,,104.6363272919989,104.64328791700244,104.64328791700244,105.7229865840054,g,1.0,1.0722461249970363,,105.72374495900294,105.73501725000096,106.72028583400242,106.7305715840048,,,,,,,,,,,,,,,,,,,,sub-101,1,stroop_test,,
,,,,4.0,4.0,0.0,,,,,blau,red,r,0.0,b,0.0,0.8994492909987457,,,,,,,,,,,,,,0.0,4.0,4.0,4.0,,,,,106.7305715840048,,,,,,,,,,,,,,,,,106.7206940420001,107.07014112500474,107.86554774999968,107.85391445900314,,,,,,,,,,,,,,,,107.85747995899874,107.86554774999968,107.86554774999968,108.77052679199552,b,0.0,0.8994492909987457,,108.77562041700004,108.78437850000046,109.76992058400356,109.78072037499804,,,,,,,,,,,,,,,,,,,,sub-101,1,stroop_test,,
,,,,5.0,5.0,0.0,,,,,rot,red,r,1.0,r,1.0,1.2653517500002636,,,,,,,,,,,,,,0.0,5.0,5.0,0.0,,,,,109.78072037499804,,,,,,,,,,,,,,,,,109.77035795900156,110.57021662499756,111.36553208400436,111.3536498750036,,,,,,,,,,,,,,,,111.35734016700007,111.36553208400436,111.36553208400436,112.63358483399496,r,1.0,1.2653517500002636,,112.6389277499984,112.64873200000147,113.63689720899856,,,,,,,,,,,,,,,,,,,,,sub-101,1,stroop_test,,
,,,,6.0,6.0,0.0,,,,,blau,blue,b,1.0,b,1.0,1.3940729999885662,,,,,,,,,,,,,,0.0,6.0,6.0,5.0,,,,,113.64731866700458,,,,,,,,,,,,,,,,,113.63739612500648,114.830644458998,115.62649212499672,115.61501858399424,,,,,,,,,,,,,,,,115.61913116699724,115.62649212499672,115.62649212499672,117.03266891700332,b,1.0,1.3940729999885662,,117.03347066699644,117.04356566700152,118.0312493340025,118.03677879199677,,,,,,,,,,,,,,,,,,,,sub-101,1,stroop_test,,
,,,,7.0,7.0,0.0,,,,,gelb,blue,b,0.0,g,0.0,1.022317082999507,,,,,,,,,,,,,,0.0,7.0,7.0,9.0,,,,,118.03677879199677,,,,,,,,,,,,,,,,,118.031678542,118.1306628750026,118.9258356670034,118.91451583399612,,,,,,,,,,,,,,,,118.9186929169955,118.9258356670034,118.9258356670034,119.96074224999757,g,0.0,1.022317082999507,,119.96509879200312,119.97119412499887,120.95427395899604,120.96393399999944,,,,,,,,,,,,,,,,,,,,sub-101,1,stroop_test,,
,,,,8.0,8.0,0.0,,,,,blau,blue,b,1.0,b,1.0,1.3375983750011071,,,,,,,,,,,,,,0.0,8.0,8.0,6.0,,,,,120.96393399999944,,,,,,,,,,,,,,,,,120.9546854999935,121.05412645899924,121.8599099169951,121.8481792090024,,,,,,,,,,,,,,,,121.85255037499884,121.8599099169951,121.8599099169951,123.20018233399604,b,1.0,1.3375983750011071,,123.20514629200623,123.21523408399662,124.20320241700392,,,,,,,,,,,,,,,,,,,,,sub-101,1,stroop_test,,
,,,,9.0,9.0,0.0,,,,,gelb,red,r,0.0,g,0.0,1.2249074170103995,,,,,,,,,,,,,,0.0,9.0,9.0,8.0,,,,,124.21390370899462,,,,,,,,,,,,,,,,,124.20372270900408,125.39743470899704,126.1935540419945,126.18155745900005,,,,,,,,,,,,,,,,126.18644029200368,126.1935540419945,126.1935540419945,127.42197799999848,g,0.0,1.2249074170103995,,127.42712837499856,127.43797970899324,128.43085233400052,,,,,,,,,,,,,,,,,,,,,sub-101,1,stroop_test,,
,,,,10.0,10.0,0.0,,,,,rot,blue,b,0.0,b,1.0,2.0218284169968683,,,,,,,,,,,,,,0.0,10.0,10.0,2.0,,,,,128.4367144590069,,,,,,,,,,,,,,,,,128.4314443750045,129.6202662919968,130.41554837500735,130.4039530000009,,,,,,,,,,,,,,,,130.40753295899776,130.41554837500735,130.41554837500735,132.4397988749988,b,1.0,2.0218284169968683,,132.4447110839974,132.45375062500534,133.4373786250071,133.4473591249989,,,,,,,,,,,,,,,,,,,,sub-101,1,stroop_test,,
,,,,11.0,11.0,0.0,,,,,rot,yellow,g,0.0,g,1.0,1.6018970419972902,,,,,,,,,,,,,,0.0,11.0,11.0,3.0,,,,,133.4473591249989,,,,,,,,,,,,,,,,,133.4377898340026,133.78680299999542,134.57910745899426,134.57075558400538,,,,,,,,,,,,,,,,134.5713527500047,134.57910745899426,134.57910745899426,136.18360887499875,g,1.0,1.6018970419972902,,136.18458829200245,136.1955239999952,137.18143779199454,137.18672733400308,,,,,,,,,,,,,,,,,,,,sub-101,1,stroop_test,,
,,,,12.0,0.0,1.0,,,,,blau,blue,b,1.0,b,1.0,1.6413294169906294,,,,,,,,,,,,,,1.0,0.0,12.0,5.0,,,,,137.18672733400308,,,,,,,,,,,,,,,,,137.18186149999383,137.53067104199727,138.32675062499766,138.31490275000397,,,,,,,,,,,,,,,,138.3194359170011,138.32675062499766,138.32675062499766,139.9720883340051,b,1.0,1.6413294169906294,,139.9728418339946,139.98435491700366,140.97074729199812,140.980600416995,,,,,,,,,,,,,,,,,,,,sub-101,1,stroop_test,,
,,,,13.0,1.0,1.0,,,,,blau,yellow,g,0.0,g,1.0,1.1262180420017105,,,,,,,,,,,,,,1.0,1.0,13.0,7.0,,,,,140.980600416995,,,,,,,,,,,,,,,,,140.971166000003,142.1708804170048,142.97257379199436,142.9649190420023,,,,,,,,,,,,,,,,142.965677375003,142.97257379199436,142.97257379199436,144.10615058400435,g,1.0,1.1262180420017105,,144.1069570840045,144.11835670900473,145.10377141699428,145.11393941700226,,,,,,,,,,,,,,,,,,,,sub-101,1,stroop_test,,
,,,,14.0,2.0,1.0,,,,,gelb,yellow,g,1.0,g,1.0,0.7874837499985006,,,,,,,,,,,,,,1.0,2.0,14.0,10.0,,,,,145.11393941700226,,,,,,,,,,,,,,,,,145.10420687499573,146.30414312500216,147.098805792004,147.08732150000287,,,,,,,,,,,,,,,,147.09102024999447,147.098805792004,147.098805792004,147.88876066700325,g,1.0,0.7874837499985006,,147.88966066700232,147.9016569170053,148.8862689170055,148.8973029589979,,,,,,,,,,,,,,,,,,,,sub-101,1,stroop_test,,
,,,,15.0,3.0,1.0,,,,,gelb,blue,b,0.0,b,1.0,1.0273001250025118,,,,,,,,,,,,,,1.0,3.0,15.0,9.0,,,,,148.8973029589979,,,,,,,,,,,,,,,,,148.88662787500652,150.08679712499725,150.88767116700183,150.88118995900732,,,,,,,,,,,,,,,,150.881659125007,150.88767116700183,150.88767116700183,151.92213216700475,b,1.0,1.0273001250025118,,151.92297666700324,151.93489099999715,152.92070600000443,152.9306582499994,,,,,,,,,,,,,,,,,,,,sub-101,1,stroop_test,,
,,,,16.0,4.0,1.0,,,,,gelb,red,r,0.0,r,1.0,0.991781958990032,,,,,,,,,,,,,,1.0,4.0,16.0,8.0,,,,,152.9306582499994,,,,,,,,,,,,,,,,,152.92112050000287,154.1208885840024,154.92285329199512,154.91498929199588,,,,,,,,,,,,,,,,154.91575112499413,154.92285329199512,154.92285329199512,155.91704604199913,r,1.0,0.991781958990032,,155.9176238749933,155.92635399999563,156.91493104200345,156.92055999999866,,,,,,,,,,,,,,,,,,,,sub-101,1,stroop_test,,
,,,,17.0,5.0,1.0,,,,,rot,red,r,1.0,r,1.0,0.9496809580014088,,,,,,,,,,,,,,1.0,5.0,17.0,0.0,,,,,156.92055999999866,,,,,,,,,,,,,,,,,156.91544416699617,158.11419420900347,158.91004699999758,158.89794983400498,,,,,,,,,,,,,,,,158.90283254199312,158.91004699999758,158.91004699999758,159.8662567499996,r,1.0,0.9496809580014088,,159.8671392499964,159.87766974999977,160.86467995900605,160.87021908399765,,,,,,,,,,,,,,,,,,,,sub-101,1,stroop_test,,
,,,,18.0,6.0,1.0,,,,,blau,blue,b,1.0,b,1.0,1.0650217500078725,,,,,,,,,,,,,,1.0,6.0,18.0,6.0,,,,,160.87021908399765,,,,,,,,,,,,,,,,,160.86510220900527,160.9641030000057,161.75978829199448,161.748160749994,,,,,,,,,,,,,,,,161.75270287500462,161.75978829199448,161.75978829199448,162.8323962919967,b,1.0,1.0650217500078725,,162.8331548749993,162.84250208399317,163.83150983399537,163.8373338340025,,,,,,,,,,,,,,,,,,,,sub-101,1,stroop_test,,
,,,,19.0,7.0,1.0,,,,,rot,blue,b,0.0,b,1.0,2.3130040830001235,,,,,,,,,,,,,,1.0,7.0,19.0,2.0,,,,,163.8373338340025,,,,,,,,,,,,,,,,,163.8320538340049,164.1807949590002,164.9760648340016,164.9647366249992,,,,,,,,,,,,,,,,164.96863608399872,164.9760648340016,164.9760648340016,167.29943920900405,b,1.0,2.3130040830001235,,167.30031049999525,167.31073558400385,168.2983136249968,168.30405670900657,,,,,,,,,,,,,,,,,,,,sub-101,1,stroop_test,,
,,,,20.0,8.0,1.0,,,,,blau,red,r,0.0,r,1.0,1.2045932920009363,,,,,,,,,,,,,,1.0,8.0,20.0,4.0,,,,,168.30405670900657,,,,,,,,,,,,,,,,,168.29884241700347,169.49745266699756,170.2931256669981,170.28139158399426,,,,,,,,,,,,,,,,170.2857822090009,170.2931256669981,170.2931256669981,171.50117991700245,r,1.0,1.2045932920009363,,171.5022115419997,171.51484729199728,172.49810108399834,172.5037920839968,,,,,,,,,,,,,,,,,,,,sub-101,1,stroop_test,,
,,,,21.0,9.0,1.0,,,,,rot,yellow,g,0.0,g,1.0,1.01360074999684,,,,,,,,,,,,,,1.0,9.0,21.0,3.0,,,,,172.5037920839968,,,,,,,,,,,,,,,,,172.49857137500658,173.6974073750025,174.4924330000067,174.48133199999577,,,,,,,,,,,,,,,,174.48516933400242,174.4924330000067,174.4924330000067,175.5162190419942,g,1.0,1.01360074999684,,175.51718283399532,175.52940724999644,176.51462591699965,176.5201449169981,,,,,,,,,,,,,,,,,,,,sub-101,1,stroop_test,,
,,,,22.0,10.0,1.0,,,,,rot,red,r,1.0,r,1.0,1.9866128330031645,,,,,,,,,,,,,,1.0,10.0,22.0,1.0,,,,,176.5201449169981,,,,,,,,,,,,,,,,,176.51506674999837,176.86408454200136,177.65588370899786,177.64828595900326,,,,,,,,,,,,,,,,177.64903720900475,177.65588370899786,177.65588370899786,179.64936962499633,r,1.0,1.9866128330031645,,179.65033979200234,179.66313462500693,180.6480893340049,180.65344566700517,,,,,,,,,,,,,,,,,,,,sub-101,1,stroop_test,,
,,,,23.0,11.0,1.0,,,,,gelb,yellow,g,1.0,g,1.0,0.8226652500015916,,,,,,,,,,,,,,1.0,11.0,23.0,11.0,,,,,180.65344566700517,,,,,,,,,,,,,,,,,180.6485271669953,180.997398749998,181.7926199170033,181.78142749999824,,,,,,,,,,,,,,,,181.7854836250044,181.7926199170033,181.7926199170033,182.62225345900515,g,1.0,0.8226652500015916,,182.62305358400044,182.6354263749963,183.6203477920062,183.6290847920027,,,,,,,,,,,,,,,,,,,,sub-101,1,stroop_test,,
,,,,,,,,,,,,,,,,,,,,,,,,,,,,,,,,,,,,,,,,,,,,,,,,,,,,,,,,,,,,,,,,,,,,,,,,,,,,,,,,,,,,,,,183.6205109589937,183.6290847920027,183.6290847920027,199.4388163749973,space,15.807034458994169,,,,,,,,,,,,,,sub-101,1,stroop_test,,
,,,,0.0,0.0,0.0,,,,,,,,,,,,,gelb,yellow,g,1.0,g,1.0,1.5446241669997107,,,,,,,,,,0.0,0.0,0.0,11.0,199.4629320420063,,,,,,,,,,,,,,,,,199.45628829199995,199.78699754200352,200.5971691669984,200.5702046249935,,,,,,,,,,,,,,,,,,,,,,,,,,,,,,,,,,,200.57386087499617,200.5971691669984,200.5971691669984,202.14943929199944,g,1.0,1.5446241669997107,,,,,,sub-101,1,stroop_test,,
,,,,1.0,1.0,0.0,,,,,,,,,,,,,rot,red,r,1.0,r,1.0,1.1461749590089312,,,,,,,,,,0.0,1.0,1.0,1.0,202.15907429199436,,,,,,,,,,,,,,,,,202.150098625003,202.4973265419976,203.29244579200167,203.28122416700356,,,,,,,,,,,,,,,,,,,,,,,,,,,,,,,,,,,203.28505849999783,203.29244579200167,203.29244579200167,204.4493586669996,r,1.0,1.1461749590089312,,,,,,sub-101,1,stroop_test,,
,,,,2.0,2.0,0.0,,,,,,,,,,,,,rot,blue,b,0.0,b,1.0,1.35856112500187,,,,,,,,,,0.0,2.0,2.0,2.0,204.45899337499577,,,,,,,,,,,,,,,,,204.45000454199908,204.79739208400133,205.5894704590028,205.5817289169936,,,,,,,,,,,,,,,,,,,,,,,,,,,,,,,,,,,205.58247875000237,205.5894704590028,205.5894704590028,206.96078370900068,b,1.0,1.35856112500187,,,,,,sub-101,1,stroop_test,,
,,,,3.0,3.0,0.0,,,,,,,,,,,,,rot,red,r,1.0,r,1.0,2.109043250005925,,,,,,,,,,0.0,3.0,3.0,0.0,206.9651515000005,,,,,,,,,,,,,,,,,206.9612002089998,207.3036096249998,208.1057620420033,208.09827050000604,,,,,,,,,,,,,,,,,,,,,,,,,,,,,,,,,,,208.099019375004,208.1057620420033,208.1057620420033,210.2271442920028,r,1.0,2.109043250005925,,,,,,sub-101,1,stroop_test,,
,,,,4.0,4.0,0.0,,,,,,,,,,,,,gelb,blue,b,0.0,b,1.0,1.6124461250001332,,,,,,,,,,0.0,4.0,4.0,9.0,210.2321054170025,,,,,,,,,,,,,,,,,210.22760095899864,210.57040808399324,211.3657335839962,211.3541214589932,,,,,,,,,,,,,,,,,,,,,,,,,,,,,,,,,,,211.3577636669943,211.3657335839962,211.3657335839962,212.98267220900743,b,1.0,1.6124461250001332,,,,,,sub-101,1,stroop_test,,
,,,,5.0,5.0,0.0,,,,,,,,,,,,,blau,blue,b,1.0,b,1.0,0.9886027079919586,,,,,,,,,,0.0,5.0,5.0,5.0,212.99267683399376,,,,,,,,,,,,,,,,,212.98333387500315,213.0806636250054,213.87636354200367,213.86474508400715,,,,,,,,,,,,,,,,,,,,,,,,,,,,,,,,,,,213.8692034169944,213.87636354200367,213.87636354200367,214.87209308400637,b,1.0,0.9886027079919586,,,,,,sub-101,1,stroop_test,,
,,,,6.0,6.0,0.0,,,,,,,,,,,,,rot,yellow,g,0.0,g,1.0,0.9120394159981516,,,,,,,,,,0.0,6.0,6.0,3.0,214.8825026669947,,,,,,,,,,,,,,,,,214.8726383750036,216.070411875,216.8656597090012,216.85392449999927,,,,,,,,,,,,,,,,,,,,,,,,,,,,,,,,,,,216.85756829200545,216.8656597090012,216.8656597090012,217.7827069589985,g,1.0,0.9120394159981516,,,,,,sub-101,1,stroop_test,,
,,,,7.0,7.0,0.0,,,,,,,,,,,,,blau,red,r,0.0,r,1.0,1.4534680000069784,,,,,,,,,,0.0,7.0,7.0,4.0,217.7936244589946,,,,,,,,,,,,,,,,,217.78340583399404,218.98076550000405,219.7778011250048,219.76483520900365,,,,,,,,,,,,,,,,,,,,,,,,,,,,,,,,,,,219.77065637499615,219.7778011250048,219.7778011250048,221.24442462499428,r,1.0,1.4534680000069784,,,,,,sub-101,1,stroop_test,,
,,,,8.0,8.0,0.0,,,,,,,,,,,,,gelb,yellow,g,1.0,g,1.0,0.7429921250004554,,,,,,,,,,0.0,8.0,8.0,10.0,221.24825666699329,,,,,,,,,,,,,,,,,221.2447707090032,221.33633754200127,222.13234791699503,222.1206800420041,,,,,,,,,,,,,,,,,,,,,,,,,,,,,,,,,,,222.1242871669965,222.13234791699503,222.13234791699503,222.88277962499703,g,1.0,0.7429921250004554,,,,,,sub-101,1,stroop_test,,
,,,,9.0,9.0,0.0,,,,,,,,,,,,,blau,yellow,g,0.0,g,1.0,1.365418208995834,,,,,,,,,,0.0,9.0,9.0,7.0,222.8936582919996,,,,,,,,,,,,,,,,,222.8833805000031,223.23078933400396,224.0264437089936,224.01483924999772,,,,,,,,,,,,,,,,,,,,,,,,,,,,,,,,,,,224.0192778339988,224.0264437089936,224.0264437089936,225.39952162500413,g,1.0,1.365418208995834,,,,,,sub-101,1,stroop_test,,
,,,,10.0,10.0,0.0,,,,,,,,,,,,,blau,blue,b,1.0,b,1.0,1.3189263329986716,,,,,,,,,,0.0,10.0,10.0,6.0,225.4105056249973,,,,,,,,,,,,,,,,,225.40012958399893,226.1972546670004,226.9887377499981,226.98145487500005,,,,,,,,,,,,,,,,,,,,,,,,,,,,,,,,,,,226.98202633399345,226.9887377499981,226.9887377499981,228.31597120899823,b,1.0,1.3189263329986716,,,,,,sub-101,1,stroop_test,,
,,,,11.0,11.0,0.0,,,,,,,,,,,,,gelb,red,r,0.0,r,1.0,1.1616923749970738,,,,,,,,,,0.0,11.0,11.0,8.0,228.3244953340036,,,,,,,,,,,,,,,,,228.31651866699397,229.11400995899749,229.91036829199584,229.8981989169988,,,,,,,,,,,,,,,,,,,,,,,,,,,,,,,,,,,229.9025434590003,229.91036829199584,229.91036829199584,231.0828123749961,r,1.0,1.1616923749970738,,,,,,sub-101,1,stroop_test,,
,,,,12.0,0.0,1.0,,,,,,,,,,,,,gelb,yellow,g,1.0,g,1.0,1.4764285839919469,,,,,,,,,,1.0,0.0,12.0,10.0,231.09459420900384,,,,,,,,,,,,,,,,,231.0835751669947,231.8806586249993,232.6722759999975,232.66475149999317,,,,,,,,,,,,,,,,,,,,,,,,,,,,,,,,,,,232.66545724999744,232.6722759999975,232.6722759999975,234.1558324170037,g,1.0,1.4764285839919469,,,,,,sub-101,1,stroop_test,,
,,,,13.0,1.0,1.0,,,,,,,,,,,,,blau,blue,b,1.0,b,1.0,0.8218993749906076,,,,,,,,,,1.0,1.0,13.0,5.0,234.16843141699792,,,,,,,,,,,,,,,,,234.15642020899395,235.3534854169993,236.1590235839976,236.148056459002,,,,,,,,,,,,,,,,,,,,,,,,,,,,,,,,,,,236.15206337500425,236.1590235839976,236.1590235839976,236.98374641699772,b,1.0,0.8218993749906076,,,,,,sub-101,1,stroop_test,,
,,,,14.0,2.0,1.0,,,,,,,,,,,,,gelb,yellow,g,1.0,g,1.0,0.9218222079944098,,,,,,,,,,1.0,2.0,14.0,11.0,236.9948838749988,,,,,,,,,,,,,,,,,236.98451799999748,237.7807337919949,238.5765519169945,238.5648716249998,,,,,,,,,,,,,,,,,,,,,,,,,,,,,,,,,,,238.5693974589958,238.5765519169945,238.5765519169945,239.50531224999577,g,1.0,0.9218222079944098,,,,,,sub-101,1,stroop_test,,
,,,,15.0,3.0,1.0,,,,,,,,,,,,,gelb,blue,b,0.0,b,1.0,1.4295630839915248,,,,,,,,,,1.0,3.0,15.0,9.0,239.51645349999308,,,,,,,,,,,,,,,,,239.50589674999355,239.6035403340065,240.3958695839974,240.3869757920038,,,,,,,,,,,,,,,,,,,,,,,,,,,,,,,,,,,240.3875633340067,240.3958695839974,240.3958695839974,241.8330854999949,b,1.0,1.4295630839915248,,,,,,sub-101,1,stroop_test,,
,,,,16.0,4.0,1.0,,,,,,,,,,,,,blau,yellow,g,0.0,g,1.0,1.303067667002324,,,,,,,,,,1.0,4.0,16.0,7.0,241.84415879199517,,,,,,,,,,,,,,,,,241.83386937499745,242.1807617500017,242.97809145899373,242.96494320899365,,,,,,,,,,,,,,,,,,,,,,,,,,,,,,,,,,,242.9704278749996,242.97809145899373,242.97809145899373,244.28385354200145,g,1.0,1.303067667002324,,,,,,sub-101,1,stroop_test,,
,,,,17.0,5.0,1.0,,,,,,,,,,,,,rot,red,r,1.0,r,1.0,0.8887600000016391,,,,,,,,,,1.0,5.0,17.0,1.0,244.29575849999677,,,,,,,,,,,,,,,,,244.2846530420065,245.48080554199987,246.27706375000707,246.26477475000135,,,,,,,,,,,,,,,,,,,,,,,,,,,,,,,,,,,246.26939962500185,246.27706375000707,246.27706375000707,247.17233499999568,r,1.0,0.8887600000016391,,,,,,sub-101,1,stroop_test,,
,,,,18.0,6.0,1.0,,,,,,,,,,,,,rot,blue,b,0.0,b,1.0,1.37264062500617,,,,,,,,,,1.0,6.0,18.0,2.0,247.185643083998,,,,,,,,,,,,,,,,,247.17296233400705,247.97030516699303,248.7624325420038,248.75367591700345,,,,,,,,,,,,,,,,,,,,,,,,,,,,,,,,,,,248.75432941700277,248.7624325420038,248.7624325420038,250.13855716699615,b,1.0,1.37264062500617,,,,,,sub-101,1,stroop_test,,
,,,,19.0,7.0,1.0,,,,,,,,,,,,,rot,yellow,g,0.0,g,1.0,1.0119637079915265,,,,,,,,,,1.0,7.0,19.0,3.0,250.14946066700213,,,,,,,,,,,,,,,,,250.13913758400304,250.4864234590059,251.27924166699813,251.27031837499817,,,,,,,,,,,,,,,,,,,,,,,,,,,,,,,,,,,251.2709067090036,251.27924166699813,251.27924166699813,252.2997727089969,g,1.0,1.0119637079915265,,,,,,sub-101,1,stroop_test,,
,,,,20.0,8.0,1.0,,,,,,,,,,,,,blau,red,r,0.0,r,1.0,0.8457615829975111,,,,,,,,,,1.0,8.0,20.0,4.0,252.3105732499971,,,,,,,,,,,,,,,,,252.30053595900245,252.3973376250069,253.19365037500395,253.1816252090066,,,,,,,,,,,,,,,,,,,,,,,,,,,,,,,,,,,253.1863812090014,253.19365037500395,253.19365037500395,254.0495015839988,r,1.0,0.8457615829975111,,,,,,sub-101,1,stroop_test,,
,,,,21.0,9.0,1.0,,,,,,,,,,,,,gelb,red,r,0.0,r,1.0,1.09003891699831,,,,,,,,,,1.0,9.0,21.0,8.0,254.06037454199395,,,,,,,,,,,,,,,,,254.050224791994,254.8473931250046,255.64327966699784,255.63147020900212,,,,,,,,,,,,,,,,,,,,,,,,,,,,,,,,,,,255.63611495899383,255.64327966699784,255.64327966699784,256.73876012499386,r,1.0,1.09003891699831,,,,,,sub-101,1,stroop_test,,
,,,,22.0,10.0,1.0,,,,,,,,,,,,,blau,blue,b,1.0,b,1.0,0.7108946249936707,,,,,,,,,,1.0,10.0,22.0,6.0,256.74973329200293,,,,,,,,,,,,,,,,,256.73939637500735,257.93720962500083,258.73233745900507,258.720668916998,,,,,,,,,,,,,,,,,,,,,,,,,,,,,,,,,,,258.72435633400164,258.73233745900507,258.73233745900507,259.4496987089952,b,1.0,0.7108946249936707,,,,,,sub-101,1,stroop_test,,
,,,,23.0,11.0,1.0,,,,,,,,,,,,,rot,red,r,1.0,r,1.0,0.7220761670032516,,,,,,,,,,1.0,11.0,23.0,0.0,259.46074408400455,,,,,,,,,,,,,,,,,259.4504645840061,260.64743454199925,261.44272487499984,261.43141645900323,,,,,,,,,,,,,,,,,,,,,,,,,,,,,,,,,,,261.4352734169952,261.44272487499984,261.44272487499984,262.1785032089974,r,1.0,0.7220761670032516,,,,,,sub-101,1,stroop_test,,
,,,,24.0,0.0,2.0,,,,,,,,,,,,,rot,red,r,1.0,r,1.0,0.6427351670135977,,,,,,,,,,2.0,0.0,24.0,1.0,262.1836407499941,,,,,,,,,,,,,,,,,262.1790547499986,262.27128387500125,263.07180725000217,263.06469250000373,,,,,,,,,,,,,,,,,,,,,,,,,,,,,,,,,,,263.0652871670027,263.07180725000217,263.07180725000217,263.71804474999954,r,1.0,0.6427351670135977,,,,,,sub-101,1,stroop_test,,
,,,,25.0,1.0,2.0,,,,,,,,,,,,,rot,yellow,g,0.0,g,1.0,0.7702000830031466,,,,,,,,,,2.0,1.0,25.0,3.0,263.72928612500255,,,,,,,,,,,,,,,,,263.7187965000048,264.91402558400296,265.7055138750002,265.6981981249992,,,,,,,,,,,,,,,,,,,,,,,,,,,,,,,,,,,265.6987827090052,265.7055138750002,265.7055138750002,266.4828426669992,g,1.0,0.7702000830031466,,,,,,sub-101,1,stroop_test,,
,,,,26.0,2.0,2.0,,,,,,,,,,,,,gelb,blue,b,0.0,b,1.0,0.7460370829940075,,,,,,,,,,2.0,2.0,26.0,9.0,266.49392824999813,,,,,,,,,,,,,,,,,266.4836484999978,267.680642124993,268.4781862499949,268.4648904170026,,,,,,,,,,,,,,,,,,,,,,,,,,,,,,,,,,,268.4708729999984,268.4781862499949,268.4781862499949,269.23274754200247,b,1.0,0.7460370829940075,,,,,,sub-101,1,stroop_test,,
,,,,27.0,3.0,2.0,,,,,,,,,,,,,rot,red,r,1.0,r,1.0,0.9269661250000354,,,,,,,,,,2.0,3.0,27.0,0.0,269.242189334007,,,,,,,,,,,,,,,,,269.2333728340018,270.03062191700155,270.82626204199914,270.81472479199874,,,,,,,,,,,,,,,,,,,,,,,,,,,,,,,,,,,270.8186355000071,270.82626204199914,270.82626204199914,271.7558277089993,r,1.0,0.9269661250000354,,,,,,sub-101,1,stroop_test,,
,,,,28.0,4.0,2.0,,,,,,,,,,,,,blau,yellow,g,0.0,g,1.0,0.6754020840016892,,,,,,,,,,2.0,4.0,28.0,7.0,271.76633995899465,,,,,,,,,,,,,,,,,271.7565108340059,271.85293183400063,272.66378716699546,272.6366677920014,,,,,,,,,,,,,,,,,,,,,,,,,,,,,,,,,,,272.6403964170022,272.66378716699546,272.66378716699546,273.3494690840016,g,1.0,0.6754020840016892,,,,,,sub-101,1,stroop_test,,
,,,,29.0,5.0,2.0,,,,,,,,,,,,,gelb,yellow,g,1.0,g,1.0,0.6219872079964262,,,,,,,,,,2.0,5.0,29.0,10.0,273.35996491700644,,,,,,,,,,,,,,,,,273.35017200000584,273.6974086249975,274.4923957090068,274.4813159170008,,,,,,,,,,,,,,,,,,,,,,,,,,,,,,,,,,,274.4852360840014,274.4923957090068,274.4923957090068,275.11711083400587,g,1.0,0.6219872079964262,,,,,,sub-101,1,stroop_test,,
,,,,30.0,6.0,2.0,,,,,,,,,,,,,gelb,yellow,g,1.0,g,1.0,0.621599582998897,,,,,,,,,,2.0,6.0,30.0,11.0,275.1276550420007,,,,,,,,,,,,,,,,,275.1178490839957,275.46395908399427,276.2559567499993,276.24830537500384,,,,,,,,,,,,,,,,,,,,,,,,,,,,,,,,,,,276.249100999994,276.2559567499993,276.2559567499993,276.882790417003,g,1.0,0.621599582998897,,,,,,sub-101,1,stroop_test,,
,,,,31.0,7.0,2.0,,,,,,,,,,,,,blau,red,r,0.0,r,1.0,0.9212770419981098,,,,,,,,,,2.0,7.0,31.0,4.0,276.8939682920027,,,,,,,,,,,,,,,,,276.883549709004,277.68069525000465,278.4763864590059,278.4648548749974,,,,,,,,,,,,,,,,,,,,,,,,,,,,,,,,,,,278.4692910419981,278.4763864590059,278.4763864590059,279.40030108399515,r,1.0,0.9212770419981098,,,,,,sub-101,1,stroop_test,,
,,,,32.0,8.0,2.0,,,,,,,,,,,,,gelb,red,r,0.0,r,1.0,1.0491427920060232,,,,,,,,,,2.0,8.0,32.0,8.0,279.41127562499605,,,,,,,,,,,,,,,,,279.4010763340048,279.497321584,280.292587709002,280.28126166699803,,,,,,,,,,,,,,,,,,,,,,,,,,,,,,,,,,,280.28518391700345,280.292587709002,280.292587709002,281.3495666249946,r,1.0,1.0491427920060232,,,,,,sub-101,1,stroop_test,,
,,,,33.0,9.0,2.0,,,,,,,,,,,,,blau,blue,b,1.0,b,1.0,0.6471177079947665,,,,,,,,,,2.0,9.0,33.0,5.0,281.3599799999938,,,,,,,,,,,,,,,,,281.3502803750016,281.69739604200004,282.49234429199714,282.48123995900096,,,,,,,,,,,,,,,,,,,,,,,,,,,,,,,,,,,282.4853016669949,282.49234429199714,282.49234429199714,283.149672583997,b,1.0,0.6471177079947665,,,,,,sub-101,1,stroop_test,,
,,,,34.0,10.0,2.0,,,,,,,,,,,,,rot,blue,b,0.0,b,1.0,0.4641790419991594,,,,,,,,,,2.0,10.0,34.0,2.0,283.16015116700146,,,,,,,,,,,,,,,,,283.15041166699666,283.94743270899926,284.74586999999883,284.73132837499725,,,,,,,,,,,,,,,,,,,,,,,,,,,,,,,,,,,284.73857866700564,284.74586999999883,284.74586999999883,285.21612079199986,b,1.0,0.4641790419991594,,,,,,sub-101,1,stroop_test,,
,,,,35.0,11.0,2.0,,,,,,,,,,,,,blau,blue,b,1.0,b,1.0,0.4215545829938492,,,,,,,,,,2.0,11.0,35.0,6.0,285.2273292500031,,,,,,,,,,,,,,,,,285.2168668749946,286.0140680420009,286.8092440000037,286.79798241700337,,,,,,,,,,,,,,,,,,,,,,,,,,,,,,,,,,,286.8021286250005,286.8092440000037,286.8092440000037,287.2334335839987,b,1.0,0.4215545829938492,,,,,,sub-101,1,stroop_test,,
,,,,36.0,0.0,3.0,,,,,,,,,,,,,blau,red,r,0.0,r,1.0,1.2652378330094507,,,,,,,,,,3.0,0.0,36.0,4.0,287.24446533400624,,,,,,,,,,,,,,,,,287.23417954200704,288.43073712500336,289.22297383399564,289.2148634589976,,,,,,,,,,,,,,,,,,,,,,,,,,,,,,,,,,,289.2156399999949,289.22297383399564,289.22297383399564,290.4997846250044,r,1.0,1.2652378330094507,,,,,,sub-101,1,stroop_test,,
,,,,37.0,1.0,3.0,,,,,,,,,,,,,rot,blue,b,0.0,b,1.0,0.7818838749954011,,,,,,,,,,3.0,1.0,37.0,2.0,290.5118636249972,,,,,,,,,,,,,,,,,290.5006257920031,290.8473951250053,291.6434663340042,291.6314138339949,,,,,,,,,,,,,,,,,,,,,,,,,,,,,,,,,,,291.6359448339936,291.6434663340042,291.6434663340042,292.43283666699426,b,1.0,0.7818838749954011,,,,,,sub-101,1,stroop_test,,
,,,,38.0,2.0,3.0,,,,,,,,,,,,,rot,yellow,g,0.0,g,1.0,0.8823723329987843,,,,,,,,,,3.0,2.0,38.0,3.0,292.4444441670057,,,,,,,,,,,,,,,,,292.4335209590063,293.6307622919994,294.42240237499936,294.4147702500049,,,,,,,,,,,,,,,,,,,,,,,,,,,,,,,,,,,294.41554529199493,294.42240237499936,294.42240237499936,295.31616387500253,g,1.0,0.8823723329987843,,,,,,sub-101,1,stroop_test,,
,,,,39.0,3.0,3.0,,,,,,,,,,,,,gelb,blue,b,0.0,b,1.0,0.913188791993889,,,,,,,,,,3.0,3.0,39.0,9.0,295.327785750007,,,,,,,,,,,,,,,,,295.31694904199685,295.6642422500008,296.45968800000264,296.4480752499949,,,,,,,,,,,,,,,,,,,,,,,,,,,,,,,,,,,296.4525540839968,296.45968800000264,296.45968800000264,297.38297495899315,b,1.0,0.913188791993889,,,,,,sub-101,1,stroop_test,,
,,,,40.0,4.0,3.0,,,,,,,,,,,,,rot,red,r,1.0,r,1.0,0.9278481669898612,,,,,,,,,,3.0,4.0,40.0,0.0,297.3941458339977,,,,,,,,,,,,,,,,,297.38378104199364,298.5807604169968,299.37604433399974,299.3646465839993,,,,,,,,,,,,,,,,,,,,,,,,,,,,,,,,,,,299.36880254199787,299.37604433399974,299.37604433399974,300.31576500000665,r,1.0,0.9278481669898612,,,,,,sub-101,1,stroop_test,,
,,,,41.0,5.0,3.0,,,,,,,,,,,,,gelb,yellow,g,1.0,g,1.0,0.5734234580013435,,,,,,,,,,3.0,5.0,41.0,11.0,300.324424749997,,,,,,,,,,,,,,,,,300.3164246249944,300.414166417002,301.2092366249999,301.1978983339941,,,,,,,,,,,,,,,,,,,,,,,,,,,,,,,,,,,301.20209366700146,301.2092366249999,301.2092366249999,301.789108625002,g,1.0,0.5734234580013435,,,,,,sub-101,1,stroop_test,,
,,,,42.0,6.0,3.0,,,,,,,,,,,,,gelb,red,r,0.0,r,1.0,1.2751598749891857,,,,,,,,,,3.0,6.0,42.0,8.0,301.7993066670024,,,,,,,,,,,,,,,,,301.7896725419996,302.5870792920032,303.37958016700577,303.3705173750059,,,,,,,,,,,,,,,,,,,,,,,,,,,,,,,,,,,303.37110341699736,303.37958016700577,303.37958016700577,304.66604854199977,r,1.0,1.2751598749891857,,,,,,sub-101,1,stroop_test,,
,,,,43.0,7.0,3.0,,,,,,,,,,,,,gelb,yellow,g,1.0,g,1.0,0.7379792090068804,,,,,,,,,,3.0,7.0,43.0,10.0,304.6762095419981,,,,,,,,,,,,,,,,,304.6667826670018,305.46403854200616,306.2557219169976,306.24815112499346,,,,,,,,,,,,,,,,,,,,,,,,,,,,,,,,,,,306.2487784999976,306.2557219169976,306.2557219169976,306.9992073339963,g,1.0,0.7379792090068804,,,,,,sub-101,1,stroop_test,,
,,,,44.0,8.0,3.0,,,,,,,,,,,,,blau,yellow,g,0.0,g,1.0,0.5969141669920646,,,,,,,,,,3.0,8.0,44.0,7.0,307.0087110000022,,,,,,,,,,,,,,,,,306.999811917005,307.09744483399845,307.89431754199904,307.8813919170061,,,,,,,,,,,,,,,,,,,,,,,,,,,,,,,,,,,307.8873089169938,307.89431754199904,307.89431754199904,308.49953537499823,g,1.0,0.5969141669920646,,,,,,sub-101,1,stroop_test,,
,,,,45.0,9.0,3.0,,,,,,,,,,,,,blau,blue,b,1.0,b,1.0,0.5657975829963107,,,,,,,,,,3.0,9.0,45.0,6.0,308.5100319589983,,,,,,,,,,,,,,,,,308.50025508399995,308.8474331670004,309.6388659590011,309.6313669590017,,,,,,,,,,,,,,,,,,,,,,,,,,,,,,,,,,,309.6319577499962,309.6388659590011,309.6388659590011,310.2161292920064,b,1.0,0.5657975829963107,,,,,,sub-101,1,stroop_test,,
,,,,46.0,10.0,3.0,,,,,,,,,,,,,blau,blue,b,1.0,b,1.0,0.4417415419884491,,,,,,,,,,3.0,10.0,46.0,5.0,310.2268146249989,,,,,,,,,,,,,,,,,310.2168593749957,310.3141806670028,311.10586825000064,311.09813729200687,,,,,,,,,,,,,,,,,,,,,,,,,,,,,,,,,,,311.0988639999996,311.10586825000064,311.10586825000064,311.5501187089976,b,1.0,0.4417415419884491,,,,,,sub-101,1,stroop_test,,
,,,,47.0,11.0,3.0,,,,,,,,,,,,,rot,red,r,1.0,r,1.0,0.6728182499937247,,,,,,,,,,3.0,11.0,47.0,1.0,311.56077620899305,,,,,,,,,,,,,,,,,311.5508838340029,311.6475472500024,312.4436549170059,312.43157541699475,,,,,,,,,,,,,,,,,,,,,,,,,,,,,,,,,,,312.4361432089936,312.4436549170059,312.4436549170059,313.1221548339963,r,1.0,0.6728182499937247,,,,,,sub-101,1,stroop_test,,
,,,,48.0,0.0,4.0,,,,,,,,,,,,,rot,yellow,g,0.0,g,1.0,0.9312280410085804,,,,,,,,,,4.0,0.0,48.0,3.0,313.1327370000072,,,,,,,,,,,,,,,,,313.1227429590072,313.92069945900585,314.7129959589947,314.70411520899506,,,,,,,,,,,,,,,,,,,,,,,,,,,,,,,,,,,314.7046918749984,314.7129959589947,314.7129959589947,315.6495525420032,g,1.0,0.9312280410085804,,,,,,sub-101,1,stroop_test,,
,,,,49.0,1.0,4.0,,,,,,,,,,,,,blau,red,r,0.0,r,1.0,0.9543989999947372,,,,,,,,,,4.0,1.0,49.0,4.0,315.66008287499426,,,,,,,,,,,,,,,,,315.6502911669959,316.84740433399566,317.6435017920012,317.6316562919965,,,,,,,,,,,,,,,,,,,,,,,,,,,,,,,,,,,317.6362945419969,317.6435017920012,317.6435017920012,318.6108341670042,r,1.0,0.9543989999947372,,,,,,sub-101,1,stroop_test,,
,,,,50.0,2.0,4.0,,,,,,,,,,,,,rot,blue,b,0.0,b,1.0,0.7352971250074916,,,,,,,,,,4.0,2.0,50.0,2.0,318.61504187500395,,,,,,,,,,,,,,,,,318.6112498339935,319.4033818750031,320.19870620900474,320.1869149169943,,,,,,,,,,,,,,,,,,,,,,,,,,,,,,,,,,,320.190638125001,320.19870620900474,320.19870620900474,320.93848116700246,b,1.0,0.7352971250074916,,,,,,sub-101,1,stroop_test,,
,,,,51.0,3.0,4.0,,,,,,,,,,,,,gelb,yellow,g,1.0,g,1.0,0.9048515419999604,,,,,,,,,,4.0,3.0,51.0,11.0,320.9488037919946,,,,,,,,,,,,,,,,,320.939094166999,321.73745754199626,322.5432189590065,322.531401041997,,,,,,,,,,,,,,,,,,,,,,,,,,,,,,,,,,,322.5360269170051,322.5432189590065,322.5432189590065,323.46104570900206,g,1.0,0.9048515419999604,,,,,,sub-101,1,stroop_test,,
,,,,52.0,4.0,4.0,,,,,,,,,,,,,rot,red,r,1.0,r,1.0,0.638489999997546,,,,,,,,,,4.0,4.0,52.0,1.0,323.465514334006,,,,,,,,,,,,,,,,,323.4614857919951,324.25356949999696,325.0486504169967,325.0370995840058,,,,,,,,,,,,,,,,,,,,,,,,,,,,,,,,,,,325.0406923749979,325.0486504169967,325.0486504169967,325.7146449590073,r,1.0,0.638489999997546,,,,,,sub-101,1,stroop_test,,
,,,,53.0,5.0,4.0,,,,,,,,,,,,,gelb,yellow,g,1.0,g,1.0,0.559268750002957,,,,,,,,,,4.0,5.0,53.0,10.0,325.73068624999723,,,,,,,,,,,,,,,,,325.7150778750074,326.9042971250019,327.7115859170008,327.6982761669933,,,,,,,,,,,,,,,,,,,,,,,,,,,,,,,,,,,327.70442687500326,327.7115859170008,327.7115859170008,328.2733553339931,g,1.0,0.559268750002957,,,,,,sub-101,1,stroop_test,,
,,,,54.0,6.0,4.0,,,,,,,,,,,,,gelb,red,r,0.0,r,1.0,0.7448762089916272,,,,,,,,,,4.0,6.0,54.0,8.0,328.2844739590073,,,,,,,,,,,,,,,,,328.27411587499955,328.3695600420033,329.1629582500027,329.1541483750043,,,,,,,,,,,,,,,,,,,,,,,,,,,,,,,,,,,329.15472637499624,329.1629582500027,329.1629582500027,329.91622545900464,r,1.0,0.7448762089916272,,,,,,sub-101,1,stroop_test,,
,,,,55.0,7.0,4.0,,,,,,,,,,,,,gelb,blue,b,0.0,b,1.0,0.5488189170137048,,,,,,,,,,4.0,7.0,55.0,9.0,329.9261785419949,,,,,,,,,,,,,,,,,329.9169870839978,330.26410229199973,331.05608916700294,331.0483086250024,,,,,,,,,,,,,,,,,,,,,,,,,,,,,,,,,,,331.0490911670058,331.05608916700294,331.05608916700294,331.616062999994,b,1.0,0.5488189170137048,,,,,,sub-101,1,stroop_test,,
,,,,56.0,8.0,4.0,,,,,,,,,,,,,rot,red,r,1.0,r,1.0,0.6582955419871723,,,,,,,,,,4.0,8.0,56.0,0.0,331.6260285000026,,,,,,,,,,,,,,,,,331.6167603750073,331.96410691700294,332.75951891699515,332.74803633400006,,,,,,,,,,,,,,,,,,,,,,,,,,,,,,,,,,,332.7521923750028,332.75951891699515,332.75951891699515,333.4228159170016,r,1.0,0.6582955419871723,,,,,,sub-101,1,stroop_test,,
,,,,57.0,9.0,4.0,,,,,,,,,,,,,blau,yellow,g,0.0,g,1.0,1.2125572499935515,,,,,,,,,,4.0,9.0,57.0,7.0,333.43277116700483,,,,,,,,,,,,,,,,,333.4234077089932,334.62006987500354,335.41567345900694,335.4041775420046,,,,,,,,,,,,,,,,,,,,,,,,,,,,,,,,,,,335.40784612500283,335.41567345900694,335.41567345900694,336.6329681250063,g,1.0,1.2125572499935515,,,,,,sub-101,1,stroop_test,,
,,,,58.0,10.0,4.0,,,,,,,,,,,,,blau,blue,b,1.0,b,1.0,0.5811867919983342,,,,,,,,,,4.0,10.0,58.0,6.0,336.6432254170068,,,,,,,,,,,,,,,,,336.6337370840047,336.73072845900606,337.5225875000033,337.51482500000566,,,,,,,,,,,,,,,,,,,,,,,,,,,,,,,,,,,337.51555558400287,337.5225875000033,337.5225875000033,338.10619191700243,b,1.0,0.5811867919983342,,,,,,sub-101,1,stroop_test,,
,,,,59.0,11.0,4.0,,,,,,,,,,,,,blau,blue,b,1.0,b,1.0,0.474922332999995,,,,,,,,,,4.0,11.0,59.0,5.0,338.1160567920015,,,,,,,,,,,,,,,,,338.10691683400364,338.20359120900685,338.99626287500723,338.98749004199635,,,,,,,,,,,,,,,,,,,,,,,,,,,,,,,,,,,338.98806575000344,338.99626287500723,338.99626287500723,339.4828031250072,b,1.0,0.474922332999995,,,,,,sub-101,1,stroop_test,,
,,,,60.0,0.0,5.0,,,,,,,,,,,,,gelb,blue,b,0.0,b,1.0,0.5294666669942671,,,,,,,,,,5.0,0.0,60.0,9.0,339.49330916699546,,,,,,,,,,,,,,,,,339.483538208995,340.28084137500264,341.0762503750011,341.06489154200244,,,,,,,,,,,,,,,,,,,,,,,,,,,,,,,,,,,341.0692036249966,341.0762503750011,341.0762503750011,341.616064834001,b,1.0,0.5294666669942671,,,,,,sub-101,1,stroop_test,,
,,,,61.0,1.0,5.0,,,,,,,,,,,,,blau,blue,b,1.0,b,1.0,0.5546275410015369,,,,,,,,,,5.0,1.0,61.0,6.0,341.62642991699977,,,,,,,,,,,,,,,,,341.6168020000041,341.7132149999961,342.5096447090036,342.49825116699503,,,,,,,,,,,,,,,,,,,,,,,,,,,,,,,,,,,342.50259141699644,342.5096447090036,342.5096447090036,343.0667526670004,b,1.0,0.5546275410015369,,,,,,sub-101,1,stroop_test,,
,,,,62.0,2.0,5.0,,,,,,,,,,,,,rot,blue,b,0.0,b,1.0,0.495287833007751,,,,,,,,,,5.0,2.0,62.0,2.0,343.0774192920071,,,,,,,,,,,,,,,,,343.06749537499854,343.1639900839946,343.9598597500008,343.9482027500053,,,,,,,,,,,,,,,,,,,,,,,,,,,,,,,,,,,343.952720375004,343.9598597500008,343.9598597500008,344.466153166999,b,1.0,0.495287833007751,,,,,,sub-101,1,stroop_test,,
,,,,63.0,3.0,5.0,,,,,,,,,,,,,rot,red,r,1.0,r,1.0,0.669078165999963,,,,,,,,,,5.0,3.0,63.0,1.0,344.47675341699505,,,,,,,,,,,,,,,,,344.4669399169943,344.564159542002,345.3558501249936,345.3481619170052,,,,,,,,,,,,,,,,,,,,,,,,,,,,,,,,,,,345.3489171669935,345.3558501249936,345.3558501249936,346.0331517500017,r,1.0,0.669078165999963,,,,,,sub-101,1,stroop_test,,
,,,,64.0,4.0,5.0,,,,,,,,,,,,,blau,red,r,0.0,r,1.0,0.4866074580058921,,,,,,,,,,5.0,4.0,64.0,4.0,346.04361570900073,,,,,,,,,,,,,,,,,346.0339400840021,346.83080491700093,347.62756387499394,347.6148328749987,,,,,,,,,,,,,,,,,,,,,,,,,,,,,,,,,,,347.6205925420072,347.62756387499394,347.62756387499394,348.11699133399816,r,1.0,0.4866074580058921,,,,,,sub-101,1,stroop_test,,
,,,,65.0,5.0,5.0,,,,,,,,,,,,,rot,red,r,1.0,r,1.0,0.6336892079998506,,,,,,,,,,5.0,5.0,65.0,0.0,348.1277421669947,,,,,,,,,,,,,,,,,348.1177486249944,348.46397545900254,349.2598372920038,349.24816508400545,,,,,,,,,,,,,,,,,,,,,,,,,,,,,,,,,,,349.2521509999933,349.2598372920038,349.2598372920038,349.8997309999977,r,1.0,0.6336892079998506,,,,,,sub-101,1,stroop_test,,
,,,,66.0,6.0,5.0,,,,,,,,,,,,,blau,blue,b,1.0,b,1.0,0.5998456669913139,,,,,,,,,,5.0,6.0,66.0,5.0,349.91185449999466,,,,,,,,,,,,,,,,,349.9005435839936,349.99742741699447,350.7933162499976,350.78160816700256,,,,,,,,,,,,,,,,,,,,,,,,,,,,,,,,,,,350.7861804999993,350.7933162499976,350.7933162499976,351.39966720899974,b,1.0,0.5998456669913139,,,,,,sub-101,1,stroop_test,,
,,,,67.0,7.0,5.0,,,,,,,,,,,,,gelb,yellow,g,1.0,g,1.0,0.5443066250008997,,,,,,,,,,5.0,7.0,67.0,11.0,351.41142733399465,,,,,,,,,,,,,,,,,351.400478459007,351.74738466700364,352.5429684999981,352.5315602920018,,,,,,,,,,,,,,,,,,,,,,,,,,,,,,,,,,,352.5356579999934,352.5429684999981,352.5429684999981,353.10077204200206,g,1.0,0.5443066250008997,,,,,,sub-101,1,stroop_test,,
,,,,68.0,8.0,5.0,,,,,,,,,,,,,rot,yellow,g,0.0,g,1.0,0.414090957987355,,,,,,,,,,5.0,8.0,68.0,3.0,353.1140474169952,,,,,,,,,,,,,,,,,353.1011892920069,354.29757045900624,355.0935077089962,355.0818022089952,,,,,,,,,,,,,,,,,,,,,,,,,,,,,,,,,,,355.0862288750068,355.0935077089962,355.0935077089962,355.5163049999974,g,1.0,0.414090957987355,,,,,,sub-101,1,stroop_test,,
,,,,69.0,9.0,5.0,,,,,,,,,,,,,gelb,red,r,0.0,r,1.0,0.7877890829986427,,,,,,,,,,5.0,9.0,69.0,8.0,355.5281718750048,,,,,,,,,,,,,,,,,355.517015999998,355.86408245899656,356.65968437500123,356.648203417004,,,,,,,,,,,,,,,,,,,,,,,,,,,,,,,,,,,356.6525154999981,356.65968437500123,356.65968437500123,357.4499469589937,r,1.0,0.7877890829986427,,,,,,sub-101,1,stroop_test,,
,,,,70.0,10.0,5.0,,,,,,,,,,,,,gelb,yellow,g,1.0,g,1.0,0.5886495000013383,,,,,,,,,,5.0,10.0,70.0,10.0,357.4616458749952,,,,,,,,,,,,,,,,,357.4506864169962,358.64731562499946,359.4386036670039,359.43142758400063,,,,,,,,,,,,,,,,,,,,,,,,,,,,,,,,,,,359.4320288750023,359.4386036670039,359.4386036670039,360.0330642089976,g,1.0,0.5886495000013383,,,,,,sub-101,1,stroop_test,,
,,,,71.0,11.0,5.0,,,,,,,,,,,,,blau,yellow,g,0.0,g,1.0,0.5228750410024077,,,,,,,,,,5.0,11.0,71.0,7.0,360.04482308399747,,,,,,,,,,,,,,,,,360.03386779199354,360.3807611670054,361.1767812089965,361.1648799170071,,,,,,,,,,,,,,,,,,,,,,,,,,,,,,,,,,,361.169434084004,361.1767812089965,361.1767812089965,361.7054119999957,g,1.0,0.5228750410024077,,,,,,sub-101,1,stroop_test,,
,,,,72.0,0.0,6.0,,,,,,,,,,,,,blau,blue,b,1.0,b,1.0,0.5382797499914886,,,,,,,,,,6.0,0.0,72.0,6.0,361.71637191700574,,,,,,,,,,,,,,,,,361.70600691699656,362.5035830840061,363.2958999169932,363.2876497499965,,,,,,,,,,,,,,,,,,,,,,,,,,,,,,,,,,,363.2882229999959,363.2958999169932,363.2958999169932,363.8394255419989,b,1.0,0.5382797499914886,,,,,,sub-101,1,stroop_test,,
,,,,73.0,1.0,6.0,,,,,,,,,,,,,rot,blue,b,0.0,b,1.0,0.4607627079967642,,,,,,,,,,6.0,1.0,73.0,2.0,363.8516328340047,,,,,,,,,,,,,,,,,363.8401718749956,364.63663362500665,365.4325308749976,365.4205774169968,,,,,,,,,,,,,,,,,,,,,,,,,,,,,,,,,,,365.4252360840037,365.4325308749976,365.4325308749976,365.8996381670004,b,1.0,0.4607627079967642,,,,,,sub-101,1,stroop_test,,
,,,,74.0,2.0,6.0,,,,,,,,,,,,,gelb,red,r,0.0,r,1.0,0.6876224160077982,,,,,,,,,,6.0,2.0,74.0,8.0,365.9100969590072,,,,,,,,,,,,,,,,,365.9004151249974,367.09735891700257,367.8932385420048,367.88139804199454,,,,,,,,,,,,,,,,,,,,,,,,,,,,,,,,,,,367.8860589999968,367.8932385420048,367.8932385420048,368.5828626669973,r,1.0,0.6876224160077982,,,,,,sub-101,1,stroop_test,,
,,,,75.0,3.0,6.0,,,,,,,,,,,,,rot,red,r,1.0,r,1.0,0.3914230829977896,,,,,,,,,,6.0,3.0,75.0,0.0,368.5904780419951,,,,,,,,,,,,,,,,,368.5832792919973,368.93078166700434,369.7266355000029,369.7149802089989,,,,,,,,,,,,,,,,,,,,,,,,,,,,,,,,,,,369.71943679200194,369.7266355000029,369.7266355000029,370.1224789169937,r,1.0,0.3914230829977896,,,,,,sub-101,1,stroop_test,,
,,,,76.0,4.0,6.0,,,,,,,,,,,,,blau,red,r,0.0,r,1.0,0.4990567920031026,,,,,,,,,,6.0,4.0,76.0,4.0,370.1324367089983,,,,,,,,,,,,,,,,,370.1230199590064,370.220139291996,371.0156982920016,371.0037582499936,,,,,,,,,,,,,,,,,,,,,,,,,,,,,,,,,,,371.00762025000586,371.0156982920016,371.0156982920016,371.5257850839989,r,1.0,0.4990567920031026,,,,,,sub-101,1,stroop_test,,
,,,,77.0,5.0,6.0,,,,,,,,,,,,,rot,yellow,g,0.0,g,1.0,0.611811333001242,,,,,,,,,,6.0,5.0,77.0,3.0,371.5298553339962,,,,,,,,,,,,,,,,,371.5261653339985,372.7201201249991,373.515568584,373.5036828750017,,,,,,,,,,,,,,,,,,,,,,,,,,,,,,,,,,,373.5073528339999,373.515568584,373.515568584,374.13272445900657,g,1.0,0.611811333001242,,,,,,sub-101,1,stroop_test,,
,,,,78.0,6.0,6.0,,,,,,,,,,,,,blau,yellow,g,0.0,g,1.0,0.5315750419977121,,,,,,,,,,6.0,6.0,78.0,7.0,374.1432622919965,,,,,,,,,,,,,,,,,374.1333589999995,374.4808399589965,375.2767616670026,375.26489249999577,,,,,,,,,,,,,,,,,,,,,,,,,,,,,,,,,,,375.2694088340068,375.2767616670026,375.2767616670026,375.8163300000015,g,1.0,0.5315750419977121,,,,,,sub-101,1,stroop_test,,
,,,,79.0,7.0,6.0,,,,,,,,,,,,,gelb,blue,b,0.0,b,1.0,0.5158020000089891,,,,,,,,,,6.0,7.0,79.0,9.0,375.826925625006,,,,,,,,,,,,,,,,,375.816980292002,376.1640761250019,376.95903687500686,376.9480285000027,,,,,,,,,,,,,,,,,,,,,,,,,,,,,,,,,,,376.9519287919975,376.95903687500686,376.95903687500686,377.4829689589969,b,1.0,0.5158020000089891,,,,,,sub-101,1,stroop_test,,
,,,,80.0,8.0,6.0,,,,,,,,,,,,,rot,red,r,1.0,r,1.0,0.6292017080122605,,,,,,,,,,6.0,8.0,80.0,1.0,377.4928650000074,,,,,,,,,,,,,,,,,377.4836272920074,378.2808267920045,379.07740300000296,379.064727584002,,,,,,,,,,,,,,,,,,,,,,,,,,,,,,,,,,,379.0701706249965,379.07740300000296,379.07740300000296,379.7162973749946,r,1.0,0.6292017080122605,,,,,,sub-101,1,stroop_test,,
,,,,81.0,9.0,6.0,,,,,,,,,,,,,gelb,yellow,g,1.0,g,1.0,0.6226224999991246,,,,,,,,,,6.0,9.0,81.0,10.0,379.72675962500216,,,,,,,,,,,,,,,,,379.7169837090041,379.81406912500097,380.609210249997,380.5980272500019,,,,,,,,,,,,,,,,,,,,,,,,,,,,,,,,,,,380.6019902499975,380.609210249997,380.609210249997,381.23862208399805,g,1.0,0.6226224999991246,,,,,,sub-101,1,stroop_test,,
,,,,82.0,10.0,6.0,,,,,,,,,,,,,blau,blue,b,1.0,b,1.0,0.5202870420034742,,,,,,,,,,6.0,10.0,82.0,5.0,381.2494084589998,,,,,,,,,,,,,,,,,381.239214375004,382.0366789590044,382.8471156250016,382.8204556249984,,,,,,,,,,,,,,,,,,,,,,,,,,,,,,,,,,,382.82408925000345,382.8471156250016,382.8471156250016,383.37200829200447,b,1.0,0.5202870420034742,,,,,,sub-101,1,stroop_test,,
,,,,83.0,11.0,6.0,,,,,,,,,,,,,gelb,yellow,g,1.0,g,1.0,0.73226508400694,,,,,,,,,,6.0,11.0,83.0,11.0,383.38274208399525,,,,,,,,,,,,,,,,,383.3725929170032,383.470422917002,384.2654829999956,384.25395045899495,,,,,,,,,,,,,,,,,,,,,,,,,,,,,,,,,,,384.2576329589938,384.2654829999956,384.2654829999956,385.0003798749967,g,1.0,0.73226508400694,,,,,,sub-101,1,stroop_test,,
,,,,84.0,0.0,7.0,,,,,,,,,,,,,rot,red,r,1.0,r,1.0,0.6051362500002142,,,,,,,,,,7.0,0.0,84.0,1.0,385.0108384170017,,,,,,,,,,,,,,,,,385.00104820900015,385.0974561250041,385.8937299590034,385.8817500839941,,,,,,,,,,,,,,,,,,,,,,,,,,,,,,,,,,,385.8862995840027,385.8937299590034,385.8937299590034,386.505659167,r,1.0,0.6051362500002142,,,,,,sub-101,1,stroop_test,,
,,,,85.0,1.0,7.0,,,,,,,,,,,,,blau,blue,b,1.0,b,1.0,0.6056823339895345,,,,,,,,,,7.0,1.0,85.0,5.0,386.5162089170044,,,,,,,,,,,,,,,,,386.50623658399854,387.3052069999976,388.10993716699886,388.098318874996,,,,,,,,,,,,,,,,,,,,,,,,,,,,,,,,,,,388.1029450420028,388.10993716699886,388.10993716699886,388.7229981669952,b,1.0,0.6056823339895345,,,,,,sub-101,1,stroop_test,,
,,,,86.0,2.0,7.0,,,,,,,,,,,,,gelb,yellow,g,1.0,g,1.0,1.0991377089958403,,,,,,,,,,7.0,2.0,86.0,11.0,388.7329309589986,,,,,,,,,,,,,,,,,388.72361645899946,389.5207397920021,390.3158032920037,390.3043105420074,,,,,,,,,,,,,,,,,,,,,,,,,,,,,,,,,,,390.3080043749942,390.3158032920037,390.3158032920037,391.42339762499614,g,1.0,1.0991377089958403,,,,,,sub-101,1,stroop_test,,
,,,,87.0,3.0,7.0,,,,,,,,,,,,,gelb,red,r,0.0,r,1.0,0.544724249994033,,,,,,,,,,7.0,3.0,87.0,8.0,391.4353020840063,,,,,,,,,,,,,,,,,391.4238859589968,392.62031212500005,393.4126647090016,393.4036992089968,,,,,,,,,,,,,,,,,,,,,,,,,,,,,,,,,,,393.404277374997,393.4126647090016,393.4126647090016,393.96616358400206,r,1.0,0.544724249994033,,,,,,sub-101,1,stroop_test,,
,,,,88.0,4.0,7.0,,,,,,,,,,,,,gelb,blue,b,0.0,b,1.0,0.5793494999961695,,,,,,,,,,7.0,4.0,88.0,9.0,393.9762811249966,,,,,,,,,,,,,,,,,393.9668069170002,394.3141342089948,395.1061724589963,395.0983827500022,,,,,,,,,,,,,,,,,,,,,,,,,,,,,,,,,,,395.099142334002,395.1061724589963,395.1061724589963,395.68861487500544,b,1.0,0.5793494999961695,,,,,,sub-101,1,stroop_test,,
,,,,89.0,5.0,7.0,,,,,,,,,,,,,blau,red,r,0.0,r,1.0,1.182145541999489,,,,,,,,,,7.0,5.0,89.0,4.0,395.69896891700046,,,,,,,,,,,,,,,,,395.6892050419992,396.88720562499657,397.682432333997,397.67044425000495,,,,,,,,,,,,,,,,,,,,,,,,,,,,,,,,,,,397.6751694169943,397.682432333997,397.682432333997,398.8672880420054,r,1.0,1.182145541999489,,,,,,sub-101,1,stroop_test,,
,,,,90.0,6.0,7.0,,,,,,,,,,,,,rot,yellow,g,0.0,g,1.0,0.6067750420043012,,,,,,,,,,7.0,6.0,90.0,3.0,398.8783868339961,,,,,,,,,,,,,,,,,398.8680332090007,399.21412579200114,400.0093035839964,399.9979989590065,,,,,,,,,,,,,,,,,,,,,,,,,,,,,,,,,,,400.0019823750045,400.0093035839964,400.0093035839964,400.6222182920028,g,1.0,0.6067750420043012,,,,,,sub-101,1,stroop_test,,
,,,,91.0,7.0,7.0,,,,,,,,,,,,,rot,blue,b,0.0,b,1.0,0.601561417002813,,,,,,,,,,7.0,7.0,91.0,2.0,400.6469587500033,,,,,,,,,,,,,,,,,400.6227260839951,401.82035491699935,402.61263362500176,402.6045456669963,,,,,,,,,,,,,,,,,,,,,,,,,,,,,,,,,,,402.6051551249984,402.61263362500176,402.61263362500176,403.2167467499967,b,1.0,0.601561417002813,,,,,,sub-101,1,stroop_test,,
,,,,92.0,8.0,7.0,,,,,,,,,,,,,rot,red,r,1.0,r,1.0,0.6548063329973957,,,,,,,,,,7.0,8.0,92.0,0.0,403.2266530839988,,,,,,,,,,,,,,,,,403.2174563339941,404.0141033340042,404.8061482500052,404.79843929200433,,,,,,,,,,,,,,,,,,,,,,,,,,,,,,,,,,,404.79921349999495,404.8061482500052,404.8061482500052,405.4662232499977,r,1.0,0.6548063329973957,,,,,,sub-101,1,stroop_test,,
,,,,93.0,9.0,7.0,,,,,,,,,,,,,blau,blue,b,1.0,b,1.0,0.6820445000048494,,,,,,,,,,7.0,9.0,93.0,6.0,405.4762464170053,,,,,,,,,,,,,,,,,405.46694004199526,405.8140973749978,406.6095312499965,406.5981543749949,,,,,,,,,,,,,,,,,,,,,,,,,,,,,,,,,,,406.602541041997,406.6095312499965,406.6095312499965,407.29957858400303,b,1.0,0.6820445000048494,,,,,,sub-101,1,stroop_test,,
,,,,94.0,10.0,7.0,,,,,,,,,,,,,gelb,yellow,g,1.0,g,1.0,0.4994527910021133,,,,,,,,,,7.0,10.0,94.0,10.0,407.3094631669956,,,,,,,,,,,,,,,,,407.3002653750009,408.09739708399866,408.8926507090073,408.88133604200266,,,,,,,,,,,,,,,,,,,,,,,,,,,,,,,,,,,408.88580045900017,408.8926507090073,408.8926507090073,409.3993694999954,g,1.0,0.4994527910021133,,,,,,sub-101,1,stroop_test,,
,,,,95.0,11.0,7.0,,,,,,,,,,,,,blau,yellow,g,0.0,b,0.0,0.904714124990278,,,,,,,,,,7.0,11.0,95.0,7.0,409.4091592089972,,,,,,,,,,,,,,,,,409.4000214999978,409.747407584,410.5428330839932,410.5313809999934,,,,,,,,,,,,,,,,,,,,,,,,,,,,,,,,,,,410.5356833749975,410.5428330839932,410.5428330839932,411.4502961249964,b,0.0,0.904714124990278,,,,,,sub-101,1,stroop_test,,
,,,,96.0,0.0,8.0,,,,,,,,,,,,,rot,red,r,1.0,r,1.0,0.6386137920053443,,,,,,,,,,8.0,0.0,96.0,0.0,411.4609384170035,,,,,,,,,,,,,,,,,411.451038291998,412.6475768340024,413.4441174590029,413.4318243339949,,,,,,,,,,,,,,,,,,,,,,,,,,,,,,,,,,,413.43651050000335,413.4441174590029,413.4441174590029,414.0890342920029,r,1.0,0.6386137920053443,,,,,,sub-101,1,stroop_test,,
,,,,97.0,1.0,8.0,,,,,,,,,,,,,gelb,yellow,g,1.0,g,1.0,0.6445173749962123,,,,,,,,,,8.0,1.0,97.0,10.0,414.0991590420017,,,,,,,,,,,,,,,,,414.08959183399566,414.436777416995,415.2326477919996,415.2206612500013,,,,,,,,,,,,,,,,,,,,,,,,,,,,,,,,,,,415.2257852920011,415.2326477919996,415.2326477919996,415.8828862499941,g,1.0,0.6445173749962123,,,,,,sub-101,1,stroop_test,,
,,,,98.0,2.0,8.0,,,,,,,,,,,,,gelb,red,r,0.0,r,1.0,0.6922005840024212,,,,,,,,,,8.0,2.0,98.0,8.0,415.893348084006,,,,,,,,,,,,,,,,,415.8835919590056,415.980799041994,416.77223887499713,416.7647656250047,,,,,,,,,,,,,,,,,,,,,,,,,,,,,,,,,,,416.7654375840066,416.77223887499713,416.77223887499713,417.46721575000265,r,1.0,0.6922005840024212,,,,,,sub-101,1,stroop_test,,
,,,,99.0,3.0,8.0,,,,,,,,,,,,,blau,blue,b,1.0,b,1.0,0.5435451669909526,,,,,,,,,,8.0,3.0,99.0,6.0,417.4777704169974,,,,,,,,,,,,,,,,,417.4679545840045,417.81402720899496,418.6089881249936,418.5979355839954,,,,,,,,,,,,,,,,,,,,,,,,,,,,,,,,,,,418.60197483400407,418.6089881249936,418.6089881249936,419.1561076250073,b,1.0,0.5435451669909526,,,,,,sub-101,1,stroop_test,,
,,,,100.0,4.0,8.0,,,,,,,,,,,,,blau,yellow,g,0.0,g,1.0,0.7786416659946553,,,,,,,,,,8.0,4.0,100.0,7.0,419.1663746249978,,,,,,,,,,,,,,,,,419.1567606250028,419.2536648340029,420.05599062499823,420.0483459170064,,,,,,,,,,,,,,,,,,,,,,,,,,,,,,,,,,,420.0491171670001,420.05599062499823,420.05599062499823,420.8385650840064,g,1.0,0.7786416659946553,,,,,,sub-101,1,stroop_test,,
,,,,101.0,5.0,8.0,,,,,,,,,,,,,rot,red,r,1.0,r,1.0,0.5688045830029296,,,,,,,,,,8.0,5.0,101.0,1.0,420.8490985840035,,,,,,,,,,,,,,,,,420.8391324169934,421.18723333399976,421.9823699169938,421.97085791699647,,,,,,,,,,,,,,,,,,,,,,,,,,,,,,,,,,,421.9743777919939,421.9823699169938,421.9823699169938,422.5553710420063,r,1.0,0.5688045830029296,,,,,,sub-101,1,stroop_test,,
,,,,102.0,6.0,8.0,,,,,,,,,,,,,rot,blue,b,0.0,b,1.0,0.7025755419890629,,,,,,,,,,8.0,6.0,102.0,2.0,422.5659726250015,,,,,,,,,,,,,,,,,422.5559435000032,423.35372570900654,424.1467812920018,424.1367589589936,,,,,,,,,,,,,,,,,,,,,,,,,,,,,,,,,,,424.13734137499705,424.1467812920018,424.1467812920018,424.8556572499947,b,1.0,0.7025755419890629,,,,,,sub-101,1,stroop_test,,
,,,,103.0,7.0,8.0,,,,,,,,,,,,,gelb,yellow,g,1.0,g,1.0,0.57770100000198,,,,,,,,,,8.0,7.0,103.0,11.0,424.86641050000617,,,,,,,,,,,,,,,,,424.856229291996,424.9531952919933,425.7638366669999,425.7366651670018,,,,,,,,,,,,,,,,,,,,,,,,,,,,,,,,,,,425.74036075000186,425.7638366669999,425.7638366669999,426.3496236670034,g,1.0,0.57770100000198,,,,,,sub-101,1,stroop_test,,
,,,,104.0,8.0,8.0,,,,,,,,,,,,,blau,red,r,0.0,r,1.0,0.8839080000034301,,,,,,,,,,8.0,8.0,104.0,4.0,426.36003770900425,,,,,,,,,,,,,,,,,426.3503674999956,426.69737812499807,427.4936194589973,427.4818030419992,,,,,,,,,,,,,,,,,,,,,,,,,,,,,,,,,,,427.4864607089985,427.4936194589973,427.4936194589973,428.3829137919965,r,1.0,0.8839080000034301,,,,,,sub-101,1,stroop_test,,
,,,,105.0,9.0,8.0,,,,,,,,,,,,,rot,yellow,g,0.0,g,1.0,0.6721521250001388,,,,,,,,,,8.0,9.0,105.0,3.0,428.3939437920053,,,,,,,,,,,,,,,,,428.3836733750068,428.73076029200456,429.5259521249973,429.51466620899737,,,,,,,,,,,,,,,,,,,,,,,,,,,,,,,,,,,429.5186725840031,429.5259521249973,429.5259521249973,430.2113675419969,g,1.0,0.6721521250001388,,,,,,sub-101,1,stroop_test,,
,,,,106.0,10.0,8.0,,,,,,,,,,,,,blau,blue,b,1.0,b,1.0,0.5746447499986971,,,,,,,,,,8.0,10.0,106.0,5.0,430.2165259589965,,,,,,,,,,,,,,,,,430.2117799169937,430.55312850000337,431.34980195900425,431.3372116670071,,,,,,,,,,,,,,,,,,,,,,,,,,,,,,,,,,,431.3424498340028,431.34980195900425,431.34980195900425,431.9328859590023,b,1.0,0.5746447499986971,,,,,,sub-101,1,stroop_test,,
,,,,107.0,11.0,8.0,,,,,,,,,,,,,gelb,blue,b,0.0,b,1.0,0.7978943750058534,,,,,,,,,,8.0,11.0,107.0,9.0,431.94397974999447,,,,,,,,,,,,,,,,,431.9335964589991,432.7308234999946,433.52636808399984,433.5149171670055,,,,,,,,,,,,,,,,,,,,,,,,,,,,,,,,,,,433.51929912499327,433.52636808399984,433.52636808399984,434.3328312499944,b,1.0,0.7978943750058534,,,,,,sub-101,1,stroop_test,,
,,,,108.0,0.0,9.0,,,,,,,,,,,,,blau,yellow,g,0.0,g,1.0,0.6139057910040719,,,,,,,,,,9.0,0.0,108.0,7.0,434.3437575419957,,,,,,,,,,,,,,,,,434.33352320900303,434.4307969170041,435.226178041994,435.2147727499978,,,,,,,,,,,,,,,,,,,,,,,,,,,,,,,,,,,435.2187364999991,435.226178041994,435.226178041994,435.8495412089978,g,1.0,0.6139057910040719,,,,,,sub-101,1,stroop_test,,
,,,,109.0,1.0,9.0,,,,,,,,,,,,,gelb,yellow,g,1.0,g,1.0,0.6157354169990867,,,,,,,,,,9.0,1.0,109.0,10.0,435.8613373340049,,,,,,,,,,,,,,,,,435.85026679199655,435.9464835419931,436.7433428749937,436.73156537499744,,,,,,,,,,,,,,,,,,,,,,,,,,,,,,,,,,,436.73615670899744,436.7433428749937,436.7433428749937,437.3662402500049,g,1.0,0.6157354169990867,,,,,,sub-101,1,stroop_test,,
,,,,110.0,2.0,9.0,,,,,,,,,,,,,rot,yellow,g,0.0,g,1.0,0.5079199589963537,,,,,,,,,,9.0,2.0,110.0,3.0,437.3783063750016,,,,,,,,,,,,,,,,,437.3670046250045,438.1641014589986,438.95976549999614,438.9481815420004,,,,,,,,,,,,,,,,,,,,,,,,,,,,,,,,,,,438.952269625006,438.95976549999614,438.95976549999614,439.4729525839939,g,1.0,0.5079199589963537,,,,,,sub-101,1,stroop_test,,
,,,,111.0,3.0,9.0,,,,,,,,,,,,,blau,blue,b,1.0,b,1.0,0.5597550829988904,,,,,,,,,,9.0,3.0,111.0,6.0,439.4852178339934,,,,,,,,,,,,,,,,,439.4736143339978,440.270440459004,441.06555816699984,441.0539025839971,,,,,,,,,,,,,,,,,,,,,,,,,,,,,,,,,,,441.05755162499554,441.06555816699984,441.06555816699984,441.6332266249956,b,1.0,0.5597550829988904,,,,,,sub-101,1,stroop_test,,
,,,,112.0,4.0,9.0,,,,,,,,,,,,,blau,red,r,0.0,r,1.0,0.7924313330004225,,,,,,,,,,9.0,4.0,112.0,4.0,441.6441664169979,,,,,,,,,,,,,,,,,441.633948667004,441.730171999996,442.5218876250001,442.51470687499386,,,,,,,,,,,,,,,,,,,,,,,,,,,,,,,,,,,442.5152946250018,442.5218876250001,442.5218876250001,443.3168582090002,r,1.0,0.7924313330004225,,,,,,sub-101,1,stroop_test,,
,,,,113.0,5.0,9.0,,,,,,,,,,,,,rot,red,r,1.0,r,1.0,0.449796332992264,,,,,,,,,,9.0,5.0,113.0,0.0,443.3278877090052,,,,,,,,,,,,,,,,,443.3175988750008,443.6641462919943,444.45925833399815,444.4480615420034,,,,,,,,,,,,,,,,,,,,,,,,,,,,,,,,,,,444.4518862090045,444.45925833399815,444.45925833399815,444.9162646670011,r,1.0,0.449796332992264,,,,,,sub-101,1,stroop_test,,
,,,,114.0,6.0,9.0,,,,,,,,,,,,,blau,blue,b,1.0,b,1.0,0.5201886669965461,,,,,,,,,,9.0,6.0,114.0,5.0,444.9274072499975,,,,,,,,,,,,,,,,,444.9170203340036,445.7141563750047,446.5107453340024,446.4981200420007,,,,,,,,,,,,,,,,,,,,,,,,,,,,,,,,,,,446.5033247920073,446.5107453340024,446.5107453340024,447.03368929200224,b,1.0,0.5201886669965461,,,,,,sub-101,1,stroop_test,,
,,,,115.0,7.0,9.0,,,,,,,,,,,,,rot,red,r,1.0,r,1.0,0.7380694169987692,,,,,,,,,,9.0,7.0,115.0,1.0,447.0448613339977,,,,,,,,,,,,,,,,,447.03445245900366,447.1306670000049,447.9265630419977,447.9149907090032,,,,,,,,,,,,,,,,,,,,,,,,,,,,,,,,,,,447.9193215419946,447.9265630419977,447.9265630419977,448.6672180419992,r,1.0,0.7380694169987692,,,,,,sub-101,1,stroop_test,,
,,,,116.0,8.0,9.0,,,,,,,,,,,,,gelb,yellow,g,1.0,g,1.0,0.7455372910044389,,,,,,,,,,9.0,8.0,116.0,11.0,448.6782093749935,,,,,,,,,,,,,,,,,448.6679443750036,449.0142039170023,449.8091510840022,449.79819154199504,,,,,,,,,,,,,,,,,,,,,,,,,,,,,,,,,,,449.8021016669954,449.8091510840022,449.8091510840022,450.5664901669952,g,1.0,0.7455372910044389,,,,,,sub-101,1,stroop_test,,
,,,,117.0,9.0,9.0,,,,,,,,,,,,,gelb,blue,b,0.0,b,1.0,0.6500778339977842,,,,,,,,,,9.0,9.0,117.0,9.0,450.5775639589992,,,,,,,,,,,,,,,,,450.5672662919969,451.7641842089943,452.5557164170023,452.5482402089983,,,,,,,,,,,,,,,,,,,,,,,,,,,,,,,,,,,452.5489769590058,452.5557164170023,452.5557164170023,453.21625995899376,b,1.0,0.6500778339977842,,,,,,sub-101,1,stroop_test,,
,,,,118.0,10.0,9.0,,,,,,,,,,,,,rot,blue,b,0.0,b,1.0,0.7558811670023715,,,,,,,,,,9.0,10.0,118.0,2.0,453.2273165420047,,,,,,,,,,,,,,,,,453.2170262919972,454.0140396250063,454.8100727919955,454.79828966700006,,,,,,,,,,,,,,,,,,,,,,,,,,,,,,,,,,,454.8026684170036,454.8100727919955,454.8100727919955,455.571796499993,b,1.0,0.7558811670023715,,,,,,sub-101,1,stroop_test,,
,,,,119.0,11.0,9.0,,,,,,,,,,,,,gelb,red,r,0.0,r,1.0,0.7625160830066307,,,,,,,,,,9.0,11.0,119.0,8.0,455.57977758400375,,,,,,,,,,,,,,,,,455.5721799589956,455.9199598340056,456.7304693750048,456.7037157089944,,,,,,,,,,,,,,,,,,,,,,,,,,,,,,,,,,,456.7074102500046,456.7304693750048,456.7304693750048,457.499429375006,r,1.0,0.7625160830066307,,,,,,sub-101,1,stroop_test,,
,,,,,,,,,,,,,,,,,,,,,,,,,,,,,,,,,,,,,,,,,,,,,,,,,,,,,,,,,,,,,,,,,,,,,,,,,,,,,,,,,,,,,,,,,,,,,,,,,,,,,,457.49972725000407,457.5117380419979,462.5019257499953,462.4981616669975,sub-101,1,stroop_test,,
