wordCTK,colorCTK,corrAnsCTK,congruentCTK,thisN,thisTrialN,thisRepN,keyResp_CTK.keys,keyResp_CTK.corr,keyResp_CTK.rt,keyResp_CTK.duration,wordPractice,colorPractice,corrAnsPractice,congruentPractice,respPractice.keys,respPractice.corr,respPractice.rt,respPractice.duration,word,color,corrAns,congruent,keyResp_test_run.keys,keyResp_test_run.corr,keyResp_test_run.rt,keyResp_test_run.duration,trials_CTK.thisRepN,trials_CTK.thisTrialN,trials_CTK.thisN,trials_CTK.thisIndex,trials_practice.thisRepN,trials_practice.thisTrialN,trials_practice.thisN,trials_practice.thisIndex,trials_test.thisRepN,trials_test.thisTrialN,trials_test.thisN,trials_test.thisIndex,thisRow.t,notes,instruction.started,instr_text.started,instr_image.started,instr_resp.started,instruction.stopped,instr_resp.keys,instr_resp.rt,instr_resp.duration,instr_color_to_key.started,instr_ctk.started,resp_ctk.started,instr_color_to_key.stopped,resp_ctk.keys,resp_ctk.rt,resp_ctk.duration,ITI.started,fixcross.started,fixcross.stopped,ITI.stopped,color_to_key_run.started,stimulus_CTK.started,keyResp_CTK.started,color_to_key_run.stopped,trials_CTK.keyResp_CTK.keys,trials_CTK.keyResp_CTK.corr,trials_CTK.keyResp_CTK.rt,trials_CTK.keyResp_CTK.duration,instr_practice.started,instr_practice_text.started,instr_practice_resp.started,instr_practice.stopped,instr_practice_resp.keys,instr_practice_resp.rt,instr_practice_resp.duration,practice_run.started,stimulus_practice.started,respPractice.started,practice_run.stopped,trials_practice.respPractice.keys,trials_practice.respPractice.corr,trials_practice.respPractice.rt,trials_practice.respPractice.duration,feedback.started,textFeedback.started,feedback.stopped,textFeedback.stopped,instr_test.started,instr_test_text.started,instr_test_resp.started,instr_test.stopped,instr_test_resp.keys,instr_test_resp.rt,instr_test_resp.duration,test_run.started,stimulus_test_run.started,keyResp_test_run.started,test_run.stopped,trials_test.keyResp_test_run.keys,trials_test.keyResp_test_run.corr,trials_test.keyResp_test_run.rt,trials_test.keyResp_test_run.duration,goodbye.started,textGoodbye.started,goodbye.stopped,participant,session,expName,frameRate,Unnamed: 112
,,,,,,,,,,,,,,,,,,,,,,,,,,,,,,,,,,,,,,,,,0.0033435000004828,0.0448190000006434,0.0448190000006434,0.0448190000006434,53.35062110000035,space,53.28613910000058,,,,,,,,,,,,,,,,,,,,,,,,,,,,,,,,,,,,,,,,,,,,,,,,,,,,,,,,,,sub-153,1,stroop_test,59.99433653450358,
,,,,,,,,,,,,,,,,,,,,,,,,,,,,,,,,,,,,,,,,,,,,,,,,,53.35070170000108,53.35865999999987,53.35865999999987,64.09348930000124,space,10.730105399999957,,,,,,,,,,,,,,,,,,,,,,,,,,,,,,,,,,,,,,,,,,,,,,,,,,,sub-153,1,stroop_test,59.99433653450358,
test,red,r,1.0,0.0,0.0,0.0,r,1.0,1.8561305000002903,,,,,,,,,,,,,,,,,,0.0,0.0,0.0,0.0,,,,,,,,,64.16076489999978,,,,,,,,,,,,,,,,,64.15756650000003,64.90855490000104,65.71266699999978,65.69330760000048,65.70798860000104,65.71266699999978,65.71266699999978,67.57888749999984,r,1.0,1.8561305000002903,,,,,,,,,,,,,,,,,,,,,,,,,,,,,,,,,,,,,,,sub-153,1,stroop_test,59.99433653450358,
test,blue,b,1.0,1.0,1.0,0.0,b,1.0,2.733595900001092,,,,,,,,,,,,,,,,,,0.0,1.0,1.0,2.0,,,,,,,,,67.59390560000065,,,,,,,,,,,,,,,,,67.57943119999982,68.79453960000137,69.59516890000123,69.5794603000013,69.58027709999988,69.59516890000123,69.59516890000123,72.33236250000118,b,1.0,2.733595900001092,,,,,,,,,,,,,,,,,,,,,,,,,,,,,,,,,,,,,,,sub-153,1,stroop_test,59.99433653450358,
test,yellow,g,1.0,2.0,2.0,0.0,g,1.0,1.350936400000137,,,,,,,,,,,,,,,,,,0.0,2.0,2.0,1.0,,,,,,,,,72.34730370000034,,,,,,,,,,,,,,,,,72.33295809999981,72.44708720000017,73.24762360000022,73.23202700000002,73.23267790000136,73.24762360000022,73.24762360000022,74.60139440000057,g,1.0,1.350936400000137,,,,,,,,,,,,,,,,,,,,,,,,,,,,,,,,,,,,,,,sub-153,1,stroop_test,59.99433653450358,
test,yellow,g,1.0,3.0,0.0,1.0,g,1.0,1.313399799999388,,,,,,,,,,,,,,,,,,1.0,0.0,3.0,1.0,,,,,,,,,74.61522870000044,,,,,,,,,,,,,,,,,74.60206170000129,75.41582569999991,76.21628400000009,76.20074730000124,76.20150190000095,76.21628400000009,76.21628400000009,77.53576109999995,g,1.0,1.313399799999388,,,,,,,,,,,,,,,,,,,,,,,,,,,,,,,,,,,,,,,sub-153,1,stroop_test,59.99433653450358,
test,blue,b,1.0,4.0,1.0,1.0,b,1.0,2.3083717999998044,,,,,,,,,,,,,,,,,,1.0,1.0,4.0,2.0,,,,,,,,,77.55036230000042,,,,,,,,,,,,,,,,,77.53624470000068,77.6507472000012,78.45104979999996,78.43552380000074,78.43635069999982,78.45104979999996,78.45104979999996,80.77173140000014,b,1.0,2.3083717999998044,,,,,,,,,,,,,,,,,,,,,,,,,,,,,,,,,,,,,,,sub-153,1,stroop_test,59.99433653450358,
test,red,r,1.0,5.0,2.0,1.0,r,1.0,1.1212895999997272,,,,,,,,,,,,,,,,,,1.0,2.0,5.0,0.0,,,,,,,,,80.78601320000053,,,,,,,,,,,,,,,,,80.77221199999985,81.58669499999996,82.38731999999982,82.37153190000026,82.37233840000044,82.38731999999982,82.38731999999982,83.5232730000007,r,1.0,1.1212895999997272,,,,,,,,,,,,,,,,,,,,,,,,,,,,,,,,,,,,,,,sub-153,1,stroop_test,59.99433653450358,
test,blue,b,1.0,6.0,0.0,2.0,b,1.0,2.169968300000619,,,,,,,,,,,,,,,,,,2.0,0.0,6.0,2.0,,,,,,,,,83.53785849999986,,,,,,,,,,,,,,,,,83.5239003000006,84.33843010000055,85.13897550000002,85.12337060000027,85.12404470000001,85.13897550000002,85.13897550000002,87.32566589999988,b,1.0,2.169968300000619,,,,,,,,,,,,,,,,,,,,,,,,,,,,,,,,,,,,,,,sub-153,1,stroop_test,59.99433653450358,
test,red,r,1.0,7.0,1.0,2.0,r,1.0,0.8576933999993344,,,,,,,,,,,,,,,,,,2.0,1.0,7.0,0.0,,,,,,,,,87.34040360000108,,,,,,,,,,,,,,,,,87.32623430000058,87.69070939999983,88.49139509999986,88.47594220000065,88.47668650000014,88.49139509999986,88.49139509999986,89.36084459999984,r,1.0,0.8576933999993344,,,,,,,,,,,,,,,,,,,,,,,,,,,,,,,,,,,,,,,sub-153,1,stroop_test,59.99433653450358,
test,yellow,g,1.0,8.0,2.0,2.0,g,1.0,0.7639459000001807,,,,,,,,,,,,,,,,,,2.0,2.0,8.0,1.0,,,,,,,,,89.37556039999981,,,,,,,,,,,,,,,,,89.36146780000126,89.47566879999977,90.27589460000128,90.26028570000015,90.2610667000008,90.27589460000128,90.27589460000128,91.0452236000001,g,1.0,0.7639459000001807,,,,,,,,,,,,,,,,,,,,,,,,,,,,,,,,,,,,,,,sub-153,1,stroop_test,59.99433653450358,
test,red,r,1.0,9.0,0.0,3.0,r,1.0,0.8689013000002888,,,,,,,,,,,,,,,,,,3.0,0.0,9.0,0.0,,,,,,,,,91.0600226000006,,,,,,,,,,,,,,,,,91.0457477,91.15981150000152,91.96040920000088,91.94480420000036,91.94561330000032,91.96040920000088,91.96040920000088,92.84611399999994,r,1.0,0.8689013000002888,,,,,,,,,,,,,,,,,,,,,,,,,,,,,,,,,,,,,,,sub-153,1,stroop_test,59.99433653450358,
test,blue,b,1.0,10.0,1.0,3.0,b,1.0,0.5575645999997505,,,,,,,,,,,,,,,,,,3.0,1.0,10.0,2.0,,,,,,,,,92.860924300001,,,,,,,,,,,,,,,,,92.84665730000052,92.96099230000073,93.76146700000028,93.74618569999984,93.74691730000086,93.76146700000028,93.76146700000028,94.330874700001,b,1.0,0.5575645999997505,,,,,,,,,,,,,,,,,,,,,,,,,,,,,,,,,,,,,,,sub-153,1,stroop_test,59.99433653450358,
test,yellow,g,1.0,11.0,2.0,3.0,g,1.0,0.4444442000003619,,,,,,,,,,,,,,,,,,3.0,2.0,11.0,1.0,,,,,,,,,94.34507920000031,,,,,,,,,,,,,,,,,94.3314119000006,94.69557680000072,95.49627090000104,95.48051190000116,95.48124749999988,95.49627090000104,95.49627090000104,95.94853540000076,g,1.0,0.4444442000003619,,,,,,,,,,,,,,,,,,,,,,,,,,,,,,,,,,,,,,,sub-153,1,stroop_test,59.99433653450358,
,,,,,,,,,,,,,,,,,,,,,,,,,,,,,,,,,,,,,,,,,,,,,,,,,,,,,,,,,,,,,,,,,,,,95.9488145000014,95.96317520000048,95.96317520000048,108.07376960000148,space,12.107411399998457,,,,,,,,,,,,,,,,,,,,,,,,,,,,,,,,sub-153,1,stroop_test,59.99433653450358,
,,,,0.0,0.0,0.0,,,,,rot,blue,b,0.0,b,1.0,3.555310699999609,,,,,,,,,,,,,,0.0,0.0,0.0,2.0,,,,,108.1342507999998,,,,,,,,,,,,,,,,,108.1308628000006,108.1879243000003,108.99460450000151,108.97304470000016,,,,,,,,,,,,,,,,108.98583120000148,108.99460450000151,108.99460450000151,112.55981000000064,b,1.0,3.555310699999609,,112.5771220000006,112.58448480000152,113.57534880000094,,,,,,,,,,,,,,,,,,,,sub-153,1,stroop_test,59.99433653450358,
,,,,1.0,1.0,0.0,,,,,rot,red,r,1.0,r,1.0,0.5102852999989409,,,,,,,,,,,,,,0.0,1.0,1.0,0.0,,,,,113.59174680000068,,,,,,,,,,,,,,,,,113.5758962,114.75916320000032,115.55977490000078,115.54430980000144,,,,,,,,,,,,,,,,115.54540249999992,115.55977490000078,115.55977490000078,116.07911400000012,r,1.0,0.5102852999989409,,116.07968059999985,116.0937844,117.07857510000032,117.09436090000054,,,,,,,,,,,,,,,,,,,sub-153,1,stroop_test,59.99433653450358,
,,,,2.0,2.0,0.0,,,,,gelb,blue,b,0.0,b,1.0,1.542993999999453,,,,,,,,,,,,,,0.0,2.0,2.0,9.0,,,,,117.09436090000054,,,,,,,,,,,,,,,,,117.07908010000028,117.4443725000001,118.2474256000005,118.22916220000116,,,,,,,,,,,,,,,,118.2410233999999,118.2474256000005,118.2474256000005,119.7986918000006,b,1.0,1.542993999999453,,119.79983250000078,119.81292010000108,120.79810960000032,120.81347020000068,,,,,,,,,,,,,,,,,,,sub-153,1,stroop_test,59.99433653450358,
,,,,3.0,3.0,0.0,,,,,blau,red,r,0.0,r,1.0,0.7452601000004506,,,,,,,,,,,,,,0.0,3.0,3.0,4.0,,,,,120.81347020000068,,,,,,,,,,,,,,,,,120.79857690000064,121.61411130000124,122.41447100000003,122.39883910000026,,,,,,,,,,,,,,,,122.4086195,122.41447100000003,122.41447100000003,123.16689159999989,r,1.0,0.7452601000004506,,123.16770230000112,123.1819142000004,124.16673300000002,124.18260830000143,,,,,,,,,,,,,,,,,,,sub-153,1,stroop_test,59.99433653450358,
,,,,4.0,4.0,0.0,,,,,gelb,yellow,g,1.0,g,1.0,0.6767522000009194,,,,,,,,,,,,,,0.0,4.0,4.0,10.0,,,,,124.18260830000143,,,,,,,,,,,,,,,,,124.1671726000004,124.28256210000109,125.08303490000073,125.0678536000014,,,,,,,,,,,,,,,,125.0740190000015,125.08303490000073,125.08303490000073,125.7685919000014,g,1.0,0.6767522000009194,,125.76942830000009,125.78352720000112,126.7685403000014,126.78433450000011,,,,,,,,,,,,,,,,,,,sub-153,1,stroop_test,59.99433653450358,
,,,,5.0,5.0,0.0,,,,,rot,red,r,1.0,r,1.0,0.7442325999982131,,,,,,,,,,,,,,0.0,5.0,5.0,1.0,,,,,126.78433450000011,,,,,,,,,,,,,,,,,126.769068900001,126.88415890000032,127.68493080000007,127.669289200001,,,,,,,,,,,,,,,,127.67598060000093,127.68493080000007,127.68493080000007,128.43726330000027,r,1.0,0.7442325999982131,,128.43807150000066,128.45195550000062,129.4370214999999,129.45271670000147,,,,,,,,,,,,,,,,,,,sub-153,1,stroop_test,59.99433653450358,
,,,,6.0,6.0,0.0,,,,,blau,blue,b,1.0,b,1.0,1.6165842999998858,,,,,,,,,,,,,,0.0,6.0,6.0,6.0,,,,,129.45271670000147,,,,,,,,,,,,,,,,,129.4375187000005,129.80293189999975,130.60362180000084,130.58796430000075,,,,,,,,,,,,,,,,130.5943944999999,130.60362180000084,130.60362180000084,132.22289720000117,b,1.0,1.6165842999998858,,132.2236509000013,132.23786459999974,133.2229582,133.23853150000105,,,,,,,,,,,,,,,,,,,sub-153,1,stroop_test,59.99433653450358,
,,,,7.0,7.0,0.0,,,,,gelb,red,r,0.0,r,1.0,0.5380680999987817,,,,,,,,,,,,,,0.0,7.0,7.0,8.0,,,,,133.23853150000105,,,,,,,,,,,,,,,,,133.22345360000145,134.42242960000112,135.22325210000054,135.2077601000001,,,,,,,,,,,,,,,,135.2140543000005,135.22325210000054,135.22325210000054,135.77570390000074,r,1.0,0.5380680999987817,,135.77645219999977,135.790441000001,136.7757271999999,136.79088159999992,,,,,,,,,,,,,,,,,,,sub-153,1,stroop_test,59.99433653450358,
,,,,8.0,8.0,0.0,,,,,blau,blue,b,1.0,b,1.0,1.3237135999988825,,,,,,,,,,,,,,0.0,8.0,8.0,5.0,,,,,136.79088159999992,,,,,,,,,,,,,,,,,136.77649870000096,137.9750178000013,138.77561109999988,138.76038289999997,,,,,,,,,,,,,,,,138.7672648000007,138.77561109999988,138.77561109999988,140.1119933000009,b,1.0,1.3237135999988825,,140.11279980000108,140.1265921000013,141.11161540000103,141.12728229999993,,,,,,,,,,,,,,,,,,,sub-153,1,stroop_test,59.99433653450358,
,,,,9.0,9.0,0.0,,,,,blau,yellow,g,0.0,g,1.0,0.6580341000008048,,,,,,,,,,,,,,0.0,9.0,9.0,7.0,,,,,141.12728229999993,,,,,,,,,,,,,,,,,141.11214830000063,141.91111380000075,142.71177809999972,142.69630620000137,,,,,,,,,,,,,,,,142.6970239000002,142.71177809999972,142.71177809999972,143.38136040000063,g,1.0,0.6580341000008048,,143.38216620000094,143.3956287000001,144.38091350000104,144.3961106000006,,,,,,,,,,,,,,,,,,,sub-153,1,stroop_test,59.99433653450358,
,,,,10.0,10.0,0.0,,,,,rot,yellow,g,0.0,g,1.0,0.7716904999997496,,,,,,,,,,,,,,0.0,10.0,10.0,3.0,,,,,144.3961106000006,,,,,,,,,,,,,,,,,144.38142430000153,145.19677480000064,145.9974080000011,145.98168570000053,,,,,,,,,,,,,,,,145.98838299999989,145.9974080000011,145.9974080000011,146.7828539000002,g,1.0,0.7716904999997496,,146.78367849999995,146.79825700000038,147.78318770000078,147.79852930000015,,,,,,,,,,,,,,,,,,,sub-153,1,stroop_test,59.99433653450358,
,,,,11.0,11.0,0.0,,,,,gelb,yellow,g,1.0,g,1.0,0.6096068000006198,,,,,,,,,,,,,,0.0,11.0,11.0,11.0,,,,,147.79852930000015,,,,,,,,,,,,,,,,,147.78365600000143,147.89860539999972,148.6994093000012,148.68339000000014,,,,,,,,,,,,,,,,148.68902880000132,148.6994093000012,148.6994093000012,149.31782380000004,g,1.0,0.6096068000006198,,149.3185592000009,149.33305070000097,150.31807760000083,150.3335304000011,,,,,,,,,,,,,,,,,,,sub-153,1,stroop_test,59.99433653450358,
,,,,12.0,0.0,1.0,,,,,gelb,blue,b,0.0,b,1.0,1.102945799999361,,,,,,,,,,,,,,1.0,0.0,12.0,9.0,,,,,150.3335304000011,,,,,,,,,,,,,,,,,150.3186593999999,150.6673421000014,151.46765080000114,151.45203290000063,,,,,,,,,,,,,,,,151.45281890000115,151.46765080000114,151.46765080000114,152.5869915000003,b,1.0,1.102945799999361,,152.58776190000026,152.60221770000135,153.5875797000008,153.60243940000146,,,,,,,,,,,,,,,,,,,sub-153,1,stroop_test,59.99433653450358,
,,,,13.0,1.0,1.0,,,,,rot,blue,b,0.0,b,1.0,0.905960900001446,,,,,,,,,,,,,,1.0,1.0,13.0,2.0,,,,,153.60243940000146,,,,,,,,,,,,,,,,,153.58805810000013,153.95290940000086,154.75321740000072,154.73747360000016,,,,,,,,,,,,,,,,154.74318550000137,154.75321740000072,154.75321740000072,155.67286700000113,b,1.0,0.905960900001446,,155.67372460000115,155.6872273000008,156.67264799999975,156.68795649999993,,,,,,,,,,,,,,,,,,,sub-153,1,stroop_test,59.99433653450358,
,,,,14.0,2.0,1.0,,,,,blau,blue,b,1.0,b,1.0,0.730798100001266,,,,,,,,,,,,,,1.0,2.0,14.0,6.0,,,,,156.68795649999993,,,,,,,,,,,,,,,,,156.67311300000074,156.7880881000001,157.58838880000076,157.5728835000009,,,,,,,,,,,,,,,,157.57854620000035,157.58838880000076,157.58838880000076,158.3244322999999,b,1.0,0.730798100001266,,158.32528900000034,158.33903220000138,159.32410119999986,159.33975570000075,,,,,,,,,,,,,,,,,,,sub-153,1,stroop_test,59.99433653450358,
,,,,15.0,3.0,1.0,,,,,rot,red,r,1.0,r,1.0,0.699486399998932,,,,,,,,,,,,,,1.0,3.0,15.0,1.0,,,,,159.33975570000075,,,,,,,,,,,,,,,,,159.32460100000026,159.69000290000076,160.49072030000025,160.47495960000015,,,,,,,,,,,,,,,,160.48196009999992,160.49072030000025,160.49072030000025,161.19298549999985,r,1.0,0.699486399998932,,161.19390130000102,161.2079029000015,162.19309919999978,162.20856989999993,,,,,,,,,,,,,,,,,,,sub-153,1,stroop_test,59.99433653450358,
,,,,16.0,4.0,1.0,,,,,gelb,red,r,0.0,r,1.0,0.8478343999995559,,,,,,,,,,,,,,1.0,4.0,16.0,8.0,,,,,162.20856989999993,,,,,,,,,,,,,,,,,162.19356620000144,162.54206500000146,163.3427515000003,163.3267338000005,,,,,,,,,,,,,,,,163.33253270000023,163.3427515000003,163.3427515000003,164.195421800001,r,1.0,0.8478343999995559,,164.1962725000012,164.20986380000068,165.1951439000004,165.21051230000012,,,,,,,,,,,,,,,,,,,sub-153,1,stroop_test,59.99433653450358,
,,,,17.0,5.0,1.0,,,,,blau,blue,b,1.0,b,1.0,0.8681571000015538,,,,,,,,,,,,,,1.0,5.0,17.0,5.0,,,,,165.21051230000012,,,,,,,,,,,,,,,,,165.195641100001,166.01105720000123,166.81139880000046,166.7962578000006,,,,,,,,,,,,,,,,166.80240589999994,166.81139880000046,166.81139880000046,167.6819030000006,b,1.0,0.8681571000015538,,167.68291050000153,167.69570750000094,168.68059210000138,168.69625310000083,,,,,,,,,,,,,,,,,,,sub-153,1,stroop_test,59.99433653450358,
,,,,18.0,6.0,1.0,,,,,gelb,yellow,g,1.0,g,1.0,0.6140347000000475,,,,,,,,,,,,,,1.0,6.0,18.0,11.0,,,,,168.69625310000083,,,,,,,,,,,,,,,,,168.6811727000004,168.79626590000044,169.59731079999983,169.5813775000006,,,,,,,,,,,,,,,,169.5900872000002,169.59731079999983,169.59731079999983,170.21621520000008,g,1.0,0.6140347000000475,,170.21696740000152,170.23058180000044,171.21571480000057,171.23111020000033,,,,,,,,,,,,,,,,,,,sub-153,1,stroop_test,59.99433653450358,
,,,,19.0,7.0,1.0,,,,,blau,red,r,0.0,r,1.0,0.8066180999994685,,,,,,,,,,,,,,1.0,7.0,19.0,4.0,,,,,171.23111020000033,,,,,,,,,,,,,,,,,171.2162361999999,171.58155500000066,172.38392250000106,172.36683059999996,,,,,,,,,,,,,,,,172.37471879999975,172.38392250000106,172.38392250000106,173.20143690000077,r,1.0,0.8066180999994685,,173.20225530000062,173.21589820000008,174.20134900000085,174.2167100000006,,,,,,,,,,,,,,,,,,,sub-153,1,stroop_test,59.99433653450358,
,,,,20.0,8.0,1.0,,,,,rot,red,r,1.0,r,1.0,0.6089353999996092,,,,,,,,,,,,,,1.0,8.0,20.0,0.0,,,,,174.2167100000006,,,,,,,,,,,,,,,,,174.20185409999976,175.4007040000015,176.20122430000083,176.1857097000011,,,,,,,,,,,,,,,,176.1911127000003,176.20122430000083,176.20122430000083,176.82016550000117,r,1.0,0.6089353999996092,,176.82095029999982,176.83533630000056,177.8202276000011,177.83578900000066,,,,,,,,,,,,,,,,,,,sub-153,1,stroop_test,59.99433653450358,
,,,,21.0,9.0,1.0,,,,,gelb,yellow,g,1.0,g,1.0,0.7450540999998339,,,,,,,,,,,,,,1.0,9.0,21.0,10.0,,,,,177.83578900000066,,,,,,,,,,,,,,,,,177.82086309999977,178.61942530000124,179.42482250000103,179.4044102000007,,,,,,,,,,,,,,,,179.41099010000107,179.42482250000103,179.42482250000103,180.1728187000008,g,1.0,0.7450540999998339,,180.17365550000068,180.1875645,181.17253230000097,181.18811930000084,,,,,,,,,,,,,,,,,,,sub-153,1,stroop_test,59.99433653450358,
,,,,22.0,10.0,1.0,,,,,rot,yellow,g,0.0,g,1.0,0.678771400000187,,,,,,,,,,,,,,1.0,10.0,22.0,3.0,,,,,181.18811930000084,,,,,,,,,,,,,,,,,181.17304870000044,181.28803599999992,182.0919102000007,182.0731109000008,,,,,,,,,,,,,,,,182.0795082000004,182.0919102000007,182.0919102000007,182.774391500001,g,1.0,0.678771400000187,,182.7752959999998,182.78930450000007,183.7741428999998,183.78976930000132,,,,,,,,,,,,,,,,,,,sub-153,1,stroop_test,59.99433653450358,
,,,,23.0,11.0,1.0,,,,,blau,yellow,g,0.0,g,1.0,0.5771899000010308,,,,,,,,,,,,,,1.0,11.0,23.0,7.0,,,,,183.78976930000132,,,,,,,,,,,,,,,,,183.7746790000001,184.57386490000133,185.47346199999996,185.35905570000068,,,,,,,,,,,,,,,,185.46153870000128,185.47346199999996,185.47346199999996,186.0597245000008,g,1.0,0.5771899000010308,,186.0605325000015,186.07491310000117,187.0598980000013,187.07648560000047,,,,,,,,,,,,,,,,,,,sub-153,1,stroop_test,59.99433653450358,
,,,,,,,,,,,,,,,,,,,,,,,,,,,,,,,,,,,,,,,,,,,,,,,,,,,,,,,,,,,,,,,,,,,,,,,,,,,,,,,,,,,,,,,187.06019900000135,187.07648560000047,187.07648560000047,196.1170533000004,space,9.023801000001184,,,,,,,,,,,,,sub-153,1,stroop_test,59.99433653450358,
,,,,0.0,0.0,0.0,,,,,,,,,,,,,rot,red,r,1.0,r,1.0,0.7034503999984736,,,,,,,,,,0.0,0.0,0.0,0.0,196.1735066000001,,,,,,,,,,,,,,,,,196.1704234000008,197.31629480000083,198.11677539999985,198.10086899999988,,,,,,,,,,,,,,,,,,,,,,,,,,,,,,,,,,,198.1038578000007,198.11677539999985,198.11677539999985,198.8350397000013,r,1.0,0.7034503999984736,,,,,sub-153,1,stroop_test,59.99433653450358,
,,,,1.0,1.0,0.0,,,,,,,,,,,,,gelb,red,r,0.0,r,1.0,0.5055731999982527,,,,,,,,,,0.0,1.0,1.0,8.0,198.8510071000001,,,,,,,,,,,,,,,,,198.83537930000057,200.03487440000023,200.83478220000143,200.8193108000014,,,,,,,,,,,,,,,,,,,,,,,,,,,,,,,,,,,200.82596019999983,200.83478220000143,200.83478220000143,201.3541528000005,r,1.0,0.5055731999982527,,,,,sub-153,1,stroop_test,59.99433653450358,
,,,,2.0,2.0,0.0,,,,,,,,,,,,,rot,yellow,g,0.0,g,1.0,0.6706466000014188,,,,,,,,,,0.0,2.0,2.0,3.0,201.3684987000015,,,,,,,,,,,,,,,,,201.3547193000013,202.56945749999977,203.36979090000025,203.3541556,,,,,,,,,,,,,,,,,,,,,,,,,,,,,,,,,,,203.3601649000011,203.36979090000025,203.36979090000025,204.0555576000006,g,1.0,0.6706466000014188,,,,,sub-153,1,stroop_test,59.99433653450358,
,,,,3.0,3.0,0.0,,,,,,,,,,,,,rot,blue,b,0.0,b,1.0,0.708209700000225,,,,,,,,,,0.0,3.0,3.0,2.0,204.0703078000006,,,,,,,,,,,,,,,,,204.05621380000048,204.87094679999973,205.67154200000004,205.65593190000072,,,,,,,,,,,,,,,,,,,,,,,,,,,,,,,,,,,205.65665249999984,205.67154200000004,205.67154200000004,206.3907295000008,b,1.0,0.708209700000225,,,,,sub-153,1,stroop_test,59.99433653450358,
,,,,4.0,4.0,0.0,,,,,,,,,,,,,gelb,yellow,g,1.0,g,1.0,2.195032300000093,,,,,,,,,,0.0,4.0,4.0,11.0,206.405299,,,,,,,,,,,,,,,,,206.39127879999975,207.20586019999973,208.0063231000004,207.9910275000002,,,,,,,,,,,,,,,,,,,,,,,,,,,,,,,,,,,207.9975997000001,208.0063231000004,208.0063231000004,210.20980580000105,g,1.0,2.195032300000093,,,,,sub-153,1,stroop_test,59.99433653450358,
,,,,5.0,5.0,0.0,,,,,,,,,,,,,blau,red,r,0.0,r,1.0,0.7451786000001448,,,,,,,,,,0.0,5.0,5.0,4.0,210.2248475000015,,,,,,,,,,,,,,,,,210.2104014000015,210.57475350000092,211.3755029000004,211.35978010000144,,,,,,,,,,,,,,,,,,,,,,,,,,,,,,,,,,,211.36642650000067,211.3755029000004,211.3755029000004,212.12796030000027,r,1.0,0.7451786000001448,,,,,sub-153,1,stroop_test,59.99433653450358,
,,,,6.0,6.0,0.0,,,,,,,,,,,,,blau,yellow,g,0.0,g,1.0,0.9277028999986214,,,,,,,,,,0.0,6.0,6.0,7.0,212.1429196000008,,,,,,,,,,,,,,,,,212.12856450000072,212.2426841000015,213.04315230000063,213.02760690000105,,,,,,,,,,,,,,,,,,,,,,,,,,,,,,,,,,,213.0283630000013,213.04315230000063,213.04315230000063,213.9789766000013,g,1.0,0.9277028999986214,,,,,sub-153,1,stroop_test,59.99433653450358,
,,,,7.0,7.0,0.0,,,,,,,,,,,,,gelb,yellow,g,1.0,g,1.0,0.5941936999988684,,,,,,,,,,0.0,7.0,7.0,10.0,213.99387040000147,,,,,,,,,,,,,,,,,213.979569000001,214.3441703000008,215.14644709999996,215.1292615000002,,,,,,,,,,,,,,,,,,,,,,,,,,,,,,,,,,,215.1365225000009,215.14644709999996,215.14644709999996,215.74702640000032,g,1.0,0.5941936999988684,,,,,sub-153,1,stroop_test,59.99433653450358,
,,,,8.0,8.0,0.0,,,,,,,,,,,,,rot,red,r,1.0,r,1.0,0.388569799999459,,,,,,,,,,0.0,8.0,8.0,1.0,215.76169889999983,,,,,,,,,,,,,,,,,215.74767190000057,216.11189300000115,216.9124972999998,216.89694790000067,,,,,,,,,,,,,,,,,,,,,,,,,,,,,,,,,,,216.90319249999996,216.9124972999998,216.9124972999998,217.31466360000013,r,1.0,0.388569799999459,,,,,sub-153,1,stroop_test,59.99433653450358,
,,,,9.0,9.0,0.0,,,,,,,,,,,,,gelb,blue,b,0.0,b,1.0,0.4182072000003245,,,,,,,,,,0.0,9.0,9.0,9.0,217.32940550000055,,,,,,,,,,,,,,,,,217.31531069999983,218.53011510000036,219.3316264000005,219.3155328000012,,,,,,,,,,,,,,,,,,,,,,,,,,,,,,,,,,,219.3220859000012,219.3316264000005,219.3316264000005,219.76635540000095,b,1.0,0.4182072000003245,,,,,sub-153,1,stroop_test,59.99433653450358,
,,,,10.0,10.0,0.0,,,,,,,,,,,,,blau,blue,b,1.0,b,1.0,0.4173847000001842,,,,,,,,,,0.0,10.0,10.0,6.0,219.78106670000125,,,,,,,,,,,,,,,,,219.7669818000013,220.9820636000004,221.78255619999985,221.76684980000027,,,,,,,,,,,,,,,,,,,,,,,,,,,,,,,,,,,221.7734676,221.78255619999985,221.78255619999985,222.20206850000068,b,1.0,0.4173847000001842,,,,,sub-153,1,stroop_test,59.99433653450358,
,,,,11.0,11.0,0.0,,,,,,,,,,,,,blau,blue,b,1.0,b,1.0,0.4531889999998384,,,,,,,,,,0.0,11.0,11.0,5.0,222.2161371000002,,,,,,,,,,,,,,,,,222.2027209000007,222.5662382999999,223.3670215000002,223.35108460000083,,,,,,,,,,,,,,,,,,,,,,,,,,,,,,,,,,,223.35176870000032,223.3670215000002,223.3670215000002,223.836261800001,b,1.0,0.4531889999998384,,,,,sub-153,1,stroop_test,59.99433653450358,
,,,,12.0,0.0,1.0,,,,,,,,,,,,,rot,red,r,1.0,r,1.0,0.5998311999992438,,,,,,,,,,1.0,0.0,12.0,1.0,223.8507129999998,,,,,,,,,,,,,,,,,223.8371875000012,224.20107860000095,225.00118350000048,224.9858055000004,,,,,,,,,,,,,,,,,,,,,,,,,,,,,,,,,,,224.9923525000013,225.00118350000048,225.00118350000048,225.60400500000105,r,1.0,0.5998311999992438,,,,,sub-153,1,stroop_test,59.99433653450358,
,,,,13.0,1.0,1.0,,,,,,,,,,,,,rot,yellow,g,0.0,g,1.0,0.5709024999996473,,,,,,,,,,1.0,1.0,13.0,3.0,225.61844790000032,,,,,,,,,,,,,,,,,225.60475420000148,225.71860340000055,226.51903200000012,226.50355000000127,,,,,,,,,,,,,,,,,,,,,,,,,,,,,,,,,,,226.5043188,226.51903200000012,226.51903200000012,227.10481310000068,g,1.0,0.5709024999996473,,,,,sub-153,1,stroop_test,59.99433653450358,
,,,,14.0,2.0,1.0,,,,,,,,,,,,,rot,red,r,1.0,r,1.0,0.8111429000000498,,,,,,,,,,1.0,2.0,14.0,0.0,227.1194282000015,,,,,,,,,,,,,,,,,227.10549920000085,227.2195186000008,228.02010880000125,228.0043532,,,,,,,,,,,,,,,,,,,,,,,,,,,,,,,,,,,228.0064763000009,228.02010880000125,228.02010880000125,228.8391515000003,r,1.0,0.8111429000000498,,,,,sub-153,1,stroop_test,59.99433653450358,
,,,,15.0,3.0,1.0,,,,,,,,,,,,,rot,blue,b,0.0,b,1.0,0.8046240000003309,,,,,,,,,,1.0,3.0,15.0,2.0,228.8541012000005,,,,,,,,,,,,,,,,,228.83973789999985,230.05491020000045,230.8554810000005,230.8395959999998,,,,,,,,,,,,,,,,,,,,,,,,,,,,,,,,,,,230.84032050000133,230.8554810000005,230.8554810000005,231.6742911000001,b,1.0,0.8046240000003309,,,,,sub-153,1,stroop_test,59.99433653450358,
,,,,16.0,4.0,1.0,,,,,,,,,,,,,gelb,yellow,g,1.0,g,1.0,0.6296856999997544,,,,,,,,,,1.0,4.0,16.0,11.0,231.68924100000004,,,,,,,,,,,,,,,,,231.6750064000007,232.48972959999992,233.2902907000007,233.2748423000012,,,,,,,,,,,,,,,,,,,,,,,,,,,,,,,,,,,233.28159830000004,233.2902907000007,233.2902907000007,233.92575940000097,g,1.0,0.6296856999997544,,,,,sub-153,1,stroop_test,59.99433653450358,
,,,,17.0,5.0,1.0,,,,,,,,,,,,,gelb,yellow,g,1.0,g,1.0,0.5344082999999955,,,,,,,,,,1.0,5.0,17.0,10.0,233.94092420000013,,,,,,,,,,,,,,,,,233.92631600000092,235.1250084000003,235.9254794000008,235.9099059,,,,,,,,,,,,,,,,,,,,,,,,,,,,,,,,,,,235.91068950000044,235.9254794000008,235.9254794000008,236.4619025000011,g,1.0,0.5344082999999955,,,,,sub-153,1,stroop_test,59.99433653450358,
,,,,18.0,6.0,1.0,,,,,,,,,,,,,blau,red,r,0.0,r,1.0,0.79451280000103,,,,,,,,,,1.0,6.0,18.0,4.0,236.4757965000008,,,,,,,,,,,,,,,,,236.46256809999977,236.57599800000023,237.3765551000015,237.361074800001,,,,,,,,,,,,,,,,,,,,,,,,,,,,,,,,,,,237.36752070000148,237.3765551000015,237.3765551000015,238.17953430000125,r,1.0,0.79451280000103,,,,,sub-153,1,stroop_test,59.99433653450358,
,,,,19.0,7.0,1.0,,,,,,,,,,,,,blau,blue,b,1.0,b,1.0,0.605746100000033,,,,,,,,,,1.0,7.0,19.0,5.0,238.1939194000006,,,,,,,,,,,,,,,,,238.18026360000115,238.9941349000001,239.79495940000012,239.7791971000006,,,,,,,,,,,,,,,,,,,,,,,,,,,,,,,,,,,239.7799219000008,239.79495940000012,239.79495940000012,240.41421770000125,b,1.0,0.605746100000033,,,,,sub-153,1,stroop_test,59.99433653450358,
,,,,20.0,8.0,1.0,,,,,,,,,,,,,blau,yellow,g,0.0,g,1.0,0.7829204000008758,,,,,,,,,,1.0,8.0,20.0,7.0,240.4286146000013,,,,,,,,,,,,,,,,,240.4149078999999,240.52904710000075,241.3293191000012,241.3136212999998,,,,,,,,,,,,,,,,,,,,,,,,,,,,,,,,,,,241.31436750000103,241.3293191000012,241.3293191000012,242.1151786999999,g,1.0,0.7829204000008758,,,,,sub-153,1,stroop_test,59.99433653450358,
,,,,21.0,9.0,1.0,,,,,,,,,,,,,gelb,red,r,0.0,r,1.0,0.7609609000010096,,,,,,,,,,1.0,9.0,21.0,8.0,242.1295796000013,,,,,,,,,,,,,,,,,242.11578870000085,242.93035580000105,243.7309514000008,243.71560150000005,,,,,,,,,,,,,,,,,,,,,,,,,,,,,,,,,,,243.72198500000013,243.7309514000008,243.7309514000008,244.5000811000009,r,1.0,0.7609609000010096,,,,,sub-153,1,stroop_test,59.99433653450358,
,,,,22.0,10.0,1.0,,,,,,,,,,,,,gelb,blue,b,0.0,b,1.0,0.874326099999962,,,,,,,,,,1.0,10.0,22.0,9.0,244.5148480000007,,,,,,,,,,,,,,,,,244.5007421000009,245.7154891999999,246.5162784000004,246.5006368000013,,,,,,,,,,,,,,,,,,,,,,,,,,,,,,,,,,,246.50149430000056,246.5162784000004,246.5162784000004,247.4020360000013,b,1.0,0.874326099999962,,,,,sub-153,1,stroop_test,59.99433653450358,
,,,,23.0,11.0,1.0,,,,,,,,,,,,,blau,blue,b,1.0,b,1.0,1.0218348999987938,,,,,,,,,,1.0,11.0,23.0,6.0,247.41689750000117,,,,,,,,,,,,,,,,,247.4027743000006,247.51674190000085,248.3179744000008,248.3020871000008,,,,,,,,,,,,,,,,,,,,,,,,,,,,,,,,,,,248.30994250000003,248.3179744000008,248.3179744000008,249.35363289999987,b,1.0,1.0218348999987938,,,,,sub-153,1,stroop_test,59.99433653450358,
,,,,24.0,0.0,2.0,,,,,,,,,,,,,gelb,blue,b,0.0,b,1.0,0.4492059999993216,,,,,,,,,,2.0,0.0,24.0,9.0,249.36794670000015,,,,,,,,,,,,,,,,,249.35422910000125,249.4680292000012,250.27172820000123,250.25330530000065,,,,,,,,,,,,,,,,,,,,,,,,,,,,,,,,,,,250.26010790000143,250.27172820000123,250.27172820000123,250.73818630000096,b,1.0,0.4492059999993216,,,,,sub-153,1,stroop_test,59.99433653450358,
,,,,25.0,1.0,2.0,,,,,,,,,,,,,gelb,red,r,0.0,r,1.0,1.4982280999993236,,,,,,,,,,2.0,1.0,25.0,8.0,250.75239920000055,,,,,,,,,,,,,,,,,250.7388354000013,251.5528101,252.3537137000003,252.3381074000008,,,,,,,,,,,,,,,,,,,,,,,,,,,,,,,,,,,252.3388984000012,252.3537137000003,252.3537137000003,253.85655700000095,r,1.0,1.4982280999993236,,,,,sub-153,1,stroop_test,59.99433653450358,
,,,,26.0,2.0,2.0,,,,,,,,,,,,,blau,yellow,g,0.0,g,1.0,0.7989197000006243,,,,,,,,,,2.0,2.0,26.0,7.0,253.87115770000128,,,,,,,,,,,,,,,,,253.8571989000011,255.0720996,255.87302770000133,255.85715530000016,,,,,,,,,,,,,,,,,,,,,,,,,,,,,,,,,,,255.86385979999977,255.87302770000133,255.87302770000133,256.67508350000026,g,1.0,0.7989197000006243,,,,,sub-153,1,stroop_test,59.99433653450358,
,,,,27.0,3.0,2.0,,,,,,,,,,,,,gelb,yellow,g,1.0,g,1.0,0.4903272999999899,,,,,,,,,,2.0,3.0,27.0,10.0,256.68964750000123,,,,,,,,,,,,,,,,,256.675793800001,257.89054209999995,258.6912194000015,258.67561600000045,,,,,,,,,,,,,,,,,,,,,,,,,,,,,,,,,,,258.68245800000113,258.6912194000015,258.6912194000015,259.1933927000009,g,1.0,0.4903272999999899,,,,,sub-153,1,stroop_test,59.99433653450358,
,,,,28.0,4.0,2.0,,,,,,,,,,,,,rot,red,r,1.0,r,1.0,0.6417263999992429,,,,,,,,,,2.0,4.0,28.0,1.0,259.2080395000012,,,,,,,,,,,,,,,,,259.1940101,260.00874620000104,260.8090174000008,260.79384890000074,,,,,,,,,,,,,,,,,,,,,,,,,,,,,,,,,,,260.8014895000015,260.8090174000008,260.8090174000008,261.4624658000012,r,1.0,0.6417263999992429,,,,,sub-153,1,stroop_test,59.99433653450358,
,,,,29.0,5.0,2.0,,,,,,,,,,,,,blau,red,r,0.0,r,1.0,0.5131990999998379,,,,,,,,,,2.0,5.0,29.0,4.0,261.4773475000002,,,,,,,,,,,,,,,,,261.4630003000002,262.67702570000074,263.4775544000004,263.4634344000005,,,,,,,,,,,,,,,,,,,,,,,,,,,,,,,,,,,263.4715258000015,263.4775544000004,263.4775544000004,263.99659240000074,r,1.0,0.5131990999998379,,,,,sub-153,1,stroop_test,59.99433653450358,
,,,,30.0,6.0,2.0,,,,,,,,,,,,,rot,blue,b,0.0,b,1.0,0.8756455999991886,,,,,,,,,,2.0,6.0,30.0,2.0,264.0114007000011,,,,,,,,,,,,,,,,,263.99721800000043,264.3614944000001,265.1652227000013,265.14653760000147,,,,,,,,,,,,,,,,,,,,,,,,,,,,,,,,,,,265.15356200000133,265.1652227000013,265.1652227000013,266.0479900999999,b,1.0,0.8756455999991886,,,,,sub-153,1,stroop_test,59.99433653450358,
,,,,31.0,7.0,2.0,,,,,,,,,,,,,rot,red,r,1.0,r,1.0,0.5929142000004504,,,,,,,,,,2.0,7.0,31.0,0.0,266.0629179000007,,,,,,,,,,,,,,,,,266.0489856000004,267.2470216000001,268.04765130000123,268.0319743,,,,,,,,,,,,,,,,,,,,,,,,,,,,,,,,,,,268.0327586000003,268.04765130000123,268.04765130000123,268.6500410000008,r,1.0,0.5929142000004504,,,,,sub-153,1,stroop_test,59.99433653450358,
,,,,32.0,8.0,2.0,,,,,,,,,,,,,gelb,yellow,g,1.0,g,1.0,0.6740230999985215,,,,,,,,,,2.0,8.0,32.0,11.0,268.6647369000002,,,,,,,,,,,,,,,,,268.6505964000007,269.0148903999998,269.8181800000002,269.79969990000063,,,,,,,,,,,,,,,,,,,,,,,,,,,,,,,,,,,269.8058722000005,269.8181800000002,269.8181800000002,270.5011071000008,g,1.0,0.6740230999985215,,,,,sub-153,1,stroop_test,59.99433653450358,
,,,,33.0,9.0,2.0,,,,,,,,,,,,,blau,blue,b,1.0,b,1.0,1.1616057999999612,,,,,,,,,,2.0,9.0,33.0,6.0,270.5157620000009,,,,,,,,,,,,,,,,,270.5016570000007,270.6160525000014,271.419460000001,271.4012511000001,,,,,,,,,,,,,,,,,,,,,,,,,,,,,,,,,,,271.4076578000004,271.419460000001,271.419460000001,272.5862936000012,b,1.0,1.1616057999999612,,,,,sub-153,1,stroop_test,59.99433653450358,
,,,,34.0,10.0,2.0,,,,,,,,,,,,,rot,yellow,g,0.0,g,1.0,0.7836041999998997,,,,,,,,,,2.0,10.0,34.0,3.0,272.6005363000004,,,,,,,,,,,,,,,,,272.58712130000094,273.80156910000005,274.6075183000012,274.5868040000005,,,,,,,,,,,,,,,,,,,,,,,,,,,,,,,,,,,274.5928844000009,274.6075183000012,274.6075183000012,275.4042279000005,g,1.0,0.7836041999998997,,,,,sub-153,1,stroop_test,59.99433653450358,
,,,,35.0,11.0,2.0,,,,,,,,,,,,,blau,blue,b,1.0,b,1.0,0.7902065999987826,,,,,,,,,,2.0,11.0,35.0,5.0,275.4191100000007,,,,,,,,,,,,,,,,,275.40480209999987,276.2196672000009,277.02034300000014,277.0045758000015,,,,,,,,,,,,,,,,,,,,,,,,,,,,,,,,,,,277.01184000000103,277.02034300000014,277.02034300000014,277.8229790000005,b,1.0,0.7902065999987826,,,,,sub-153,1,stroop_test,59.99433653450358,
,,,,36.0,0.0,3.0,,,,,,,,,,,,,blau,blue,b,1.0,b,1.0,0.7619159000005311,,,,,,,,,,3.0,0.0,36.0,6.0,277.83746059999976,,,,,,,,,,,,,,,,,277.82376769999973,278.6381001999998,279.43865950000145,279.4230177999998,,,,,,,,,,,,,,,,,,,,,,,,,,,,,,,,,,,279.4238335000009,279.43865950000145,279.43865950000145,280.2079062000012,b,1.0,0.7619159000005311,,,,,sub-153,1,stroop_test,59.99433653450358,
,,,,37.0,1.0,3.0,,,,,,,,,,,,,gelb,yellow,g,1.0,g,1.0,0.6967624999997497,,,,,,,,,,3.0,1.0,37.0,10.0,280.2224772999998,,,,,,,,,,,,,,,,,280.20872580000105,281.423127,282.223796100001,282.2081324999999,,,,,,,,,,,,,,,,,,,,,,,,,,,,,,,,,,,282.2143369000005,282.223796100001,282.223796100001,282.92575860000034,g,1.0,0.6967624999997497,,,,,sub-153,1,stroop_test,59.99433653450358,
,,,,38.0,2.0,3.0,,,,,,,,,,,,,rot,blue,b,0.0,b,1.0,0.8938316000003397,,,,,,,,,,3.0,2.0,38.0,2.0,282.9409749000006,,,,,,,,,,,,,,,,,282.92621080000026,283.2911780000013,284.0982417000014,284.0767358000012,,,,,,,,,,,,,,,,,,,,,,,,,,,,,,,,,,,284.08473980000053,284.0982417000014,284.0982417000014,284.9947477000005,b,1.0,0.8938316000003397,,,,,sub-153,1,stroop_test,59.99433653450358,
,,,,39.0,3.0,3.0,,,,,,,,,,,,,rot,red,r,1.0,r,1.0,0.6620309999998426,,,,,,,,,,3.0,3.0,39.0,1.0,285.00917560000016,,,,,,,,,,,,,,,,,284.99541409999983,285.3594434000006,286.15991720000056,286.14415010000084,,,,,,,,,,,,,,,,,,,,,,,,,,,,,,,,,,,286.14490020000085,286.15991720000056,286.15991720000056,286.8293986000008,r,1.0,0.6620309999998426,,,,,sub-153,1,stroop_test,59.99433653450358,
,,,,40.0,4.0,3.0,,,,,,,,,,,,,gelb,blue,b,0.0,b,1.0,0.8475719999987632,,,,,,,,,,3.0,4.0,40.0,9.0,286.8441813999998,,,,,,,,,,,,,,,,,286.82994510000026,286.9436908000007,287.74423900000147,287.728454600001,,,,,,,,,,,,,,,,,,,,,,,,,,,,,,,,,,,287.7349047000007,287.74423900000147,287.74423900000147,288.5969524000011,b,1.0,0.8475719999987632,,,,,sub-153,1,stroop_test,59.99433653450358,
,,,,41.0,5.0,3.0,,,,,,,,,,,,,gelb,red,r,0.0,r,1.0,0.6679810999994515,,,,,,,,,,3.0,5.0,41.0,8.0,288.6117369000003,,,,,,,,,,,,,,,,,288.59753230000024,288.961765,289.76300430000083,289.7463318000009,,,,,,,,,,,,,,,,,,,,,,,,,,,,,,,,,,,289.74688010000136,289.76300430000083,289.76300430000083,290.4480015000008,r,1.0,0.6679810999994515,,,,,sub-153,1,stroop_test,59.99433653450358,
,,,,42.0,6.0,3.0,,,,,,,,,,,,,rot,red,r,1.0,r,1.0,0.7585982000000513,,,,,,,,,,3.0,6.0,42.0,0.0,290.4626766000001,,,,,,,,,,,,,,,,,290.4488340000007,290.5629327000006,291.3633750000008,291.3477297999998,,,,,,,,,,,,,,,,,,,,,,,,,,,,,,,,,,,291.35544560000017,291.3633750000008,291.3633750000008,292.1326294999999,r,1.0,0.7585982000000513,,,,,sub-153,1,stroop_test,59.99433653450358,
,,,,43.0,7.0,3.0,,,,,,,,,,,,,blau,yellow,g,0.0,g,1.0,0.790763999999399,,,,,,,,,,3.0,7.0,43.0,7.0,292.147428100001,,,,,,,,,,,,,,,,,292.1332473000002,292.4977317000012,293.3010232000015,293.2823679000012,,,,,,,,,,,,,,,,,,,,,,,,,,,,,,,,,,,293.2888995000012,293.3010232000015,293.3010232000015,294.10099770000124,g,1.0,0.790763999999399,,,,,sub-153,1,stroop_test,59.99433653450358,
,,,,44.0,8.0,3.0,,,,,,,,,,,,,gelb,yellow,g,1.0,g,1.0,0.9135879000004934,,,,,,,,,,3.0,8.0,44.0,11.0,294.1152296,,,,,,,,,,,,,,,,,294.1017980000015,294.21533610000006,295.0185218000006,295.0002486000012,,,,,,,,,,,,,,,,,,,,,,,,,,,,,,,,,,,295.0064171000013,295.0185218000006,295.0185218000006,295.9352647000014,g,1.0,0.9135879000004934,,,,,sub-153,1,stroop_test,59.99433653450358,
,,,,45.0,9.0,3.0,,,,,,,,,,,,,blau,blue,b,1.0,b,1.0,0.9061571000002004,,,,,,,,,,3.0,9.0,45.0,5.0,295.949951300001,,,,,,,,,,,,,,,,,295.93584700000065,296.0501944000007,296.85502500000075,296.83485850000034,,,,,,,,,,,,,,,,,,,,,,,,,,,,,,,,,,,296.8419721999999,296.85502500000075,296.85502500000075,297.76963010000145,b,1.0,0.9061571000002004,,,,,sub-153,1,stroop_test,59.99433653450358,
,,,,46.0,10.0,3.0,,,,,,,,,,,,,blau,red,r,0.0,r,1.0,0.8469716999989032,,,,,,,,,,3.0,10.0,46.0,4.0,297.78432630000134,,,,,,,,,,,,,,,,,297.77023670000017,297.8847463000002,298.68501110000034,298.66978420000123,,,,,,,,,,,,,,,,,,,,,,,,,,,,,,,,,,,298.67049990000123,298.68501110000034,298.68501110000034,299.53787310000007,r,1.0,0.8469716999989032,,,,,sub-153,1,stroop_test,59.99433653450358,
,,,,47.0,11.0,3.0,,,,,,,,,,,,,rot,yellow,g,0.0,r,0.0,1.3276132000009966,,,,,,,,,,3.0,11.0,47.0,3.0,299.5524389000002,,,,,,,,,,,,,,,,,299.5384863,299.9027936000002,300.7029919000015,300.68735019999986,,,,,,,,,,,,,,,,,,,,,,,,,,,,,,,,,,,300.6937873000006,300.7029919000015,300.7029919000015,302.0396989000001,r,0.0,1.3276132000009966,,,,,sub-153,1,stroop_test,59.99433653450358,
,,,,48.0,0.0,4.0,,,,,,,,,,,,,blau,yellow,g,0.0,g,1.0,0.9961445000008098,,,,,,,,,,4.0,0.0,48.0,7.0,302.05407490000107,,,,,,,,,,,,,,,,,302.0402931000008,302.4044621000012,303.20467890000145,303.18926210000063,,,,,,,,,,,,,,,,,,,,,,,,,,,,,,,,,,,303.19737200000054,303.20467890000145,303.20467890000145,304.20787519999976,g,1.0,0.9961445000008098,,,,,sub-153,1,stroop_test,59.99433653450358,
,,,,49.0,1.0,4.0,,,,,,,,,,,,,gelb,yellow,g,1.0,g,1.0,7.843559800001458,,,,,,,,,,4.0,1.0,49.0,10.0,304.2221887000014,,,,,,,,,,,,,,,,,304.2084477000008,305.02267700000084,305.82345840000016,305.8076185000009,,,,,,,,,,,,,,,,,,,,,,,,,,,,,,,,,,,305.8141204000003,305.82345840000016,305.82345840000016,313.66928390000066,g,1.0,7.843559800001458,,,,,sub-153,1,stroop_test,59.99433653450358,
,,,,50.0,2.0,4.0,,,,,,,,,,,,,blau,blue,b,1.0,b,1.0,0.6926296999990882,,,,,,,,,,4.0,2.0,50.0,6.0,313.6836961000008,,,,,,,,,,,,,,,,,313.6699505000015,314.88452850000067,315.68499789999987,315.66944140000123,,,,,,,,,,,,,,,,,,,,,,,,,,,,,,,,,,,315.6749667000004,315.68499789999987,315.68499789999987,316.3873639000012,b,1.0,0.6926296999990882,,,,,sub-153,1,stroop_test,59.99433653450358,
,,,,51.0,3.0,4.0,,,,,,,,,,,,,blau,blue,b,1.0,b,1.0,0.513436899998851,,,,,,,,,,4.0,3.0,51.0,5.0,316.4022358000002,,,,,,,,,,,,,,,,,316.3879678000012,317.6029520000011,318.4036141000015,318.3882360000007,,,,,,,,,,,,,,,,,,,,,,,,,,,,,,,,,,,318.3891629999998,318.4036141000015,318.4036141000015,318.9226649000011,b,1.0,0.513436899998851,,,,,sub-153,1,stroop_test,59.99433653450358,
,,,,52.0,4.0,4.0,,,,,,,,,,,,,rot,yellow,g,0.0,b,0.0,3.628884800000378,,,,,,,,,,4.0,4.0,52.0,3.0,318.9373489999998,,,,,,,,,,,,,,,,,318.92325300000084,319.2874376,320.0880496000009,320.0725639000011,,,,,,,,,,,,,,,,,,,,,,,,,,,,,,,,,,,320.0788339999999,320.0880496000009,320.0880496000009,323.7255901000008,b,0.0,3.628884800000378,,,,,sub-153,1,stroop_test,59.99433653450358,
,,,,53.0,5.0,4.0,,,,,,,,,,,,,gelb,red,r,0.0,r,1.0,0.7857427999988431,,,,,,,,,,4.0,5.0,53.0,8.0,323.7405257999999,,,,,,,,,,,,,,,,,323.72614000000067,324.5409588000002,325.3416311000001,325.3259756000007,,,,,,,,,,,,,,,,,,,,,,,,,,,,,,,,,,,325.3335275999998,325.3416311000001,325.3416311000001,326.1437913000009,r,1.0,0.7857427999988431,,,,,sub-153,1,stroop_test,59.99433653450358,
,,,,54.0,6.0,4.0,,,,,,,,,,,,,rot,red,r,1.0,r,1.0,1.1269470999995974,,,,,,,,,,4.0,6.0,54.0,1.0,326.1587446000012,,,,,,,,,,,,,,,,,326.1443627000008,327.35977060000005,328.1600285000004,328.1445386000014,,,,,,,,,,,,,,,,,,,,,,,,,,,,,,,,,,,328.1506292000013,328.1600285000004,328.1600285000004,329.29609280000113,r,1.0,1.1269470999995974,,,,,sub-153,1,stroop_test,59.99433653450358,
,,,,55.0,7.0,4.0,,,,,,,,,,,,,rot,red,r,1.0,r,1.0,0.5959865000004356,,,,,,,,,,4.0,7.0,55.0,0.0,329.31087450000086,,,,,,,,,,,,,,,,,329.29670670000087,330.5115093000004,331.3124125000013,331.29692460000115,,,,,,,,,,,,,,,,,,,,,,,,,,,,,,,,,,,331.2975793000005,331.3124125000013,331.3124125000013,331.9147014000009,r,1.0,0.5959865000004356,,,,,sub-153,1,stroop_test,59.99433653450358,
,,,,56.0,8.0,4.0,,,,,,,,,,,,,gelb,yellow,g,1.0,g,1.0,1.337084099999629,,,,,,,,,,4.0,8.0,56.0,11.0,331.92946459999985,,,,,,,,,,,,,,,,,331.9152996000012,332.7298778000004,333.5304102000009,333.5149590000001,,,,,,,,,,,,,,,,,,,,,,,,,,,,,,,,,,,333.5216498000009,333.5304102000009,333.5304102000009,334.88342980000016,g,1.0,1.337084099999629,,,,,sub-153,1,stroop_test,59.99433653450358,
,,,,57.0,9.0,4.0,,,,,,,,,,,,,blau,red,r,0.0,r,1.0,1.3002112000012858,,,,,,,,,,4.0,9.0,57.0,4.0,334.8981906000008,,,,,,,,,,,,,,,,,334.88401479999993,334.9982832000005,335.7986725999999,335.78314130000035,,,,,,,,,,,,,,,,,,,,,,,,,,,,,,,,,,,335.7896120000005,335.7986725999999,335.7986725999999,337.10184970000046,r,1.0,1.3002112000012858,,,,,sub-153,1,stroop_test,59.99433653450358,
,,,,58.0,10.0,4.0,,,,,,,,,,,,,gelb,blue,b,0.0,b,1.0,0.7106991999989987,,,,,,,,,,4.0,10.0,58.0,9.0,337.1162451,,,,,,,,,,,,,,,,,337.1025618000004,337.91698520000136,338.71745400000145,338.7016001000011,,,,,,,,,,,,,,,,,,,,,,,,,,,,,,,,,,,338.7081771000012,338.71745400000145,338.71745400000145,339.43651280000086,b,1.0,0.7106991999989987,,,,,sub-153,1,stroop_test,59.99433653450358,
,,,,59.0,11.0,4.0,,,,,,,,,,,,,rot,blue,b,0.0,b,1.0,0.7660316999990755,,,,,,,,,,4.0,11.0,59.0,2.0,339.45143720000124,,,,,,,,,,,,,,,,,339.4371561000007,340.652198400001,341.452505700001,341.4373260000011,,,,,,,,,,,,,,,,,,,,,,,,,,,,,,,,,,,341.4436747,341.452505700001,341.452505700001,342.22133680000115,b,1.0,0.7660316999990755,,,,,sub-153,1,stroop_test,59.99433653450358,
,,,,60.0,0.0,5.0,,,,,,,,,,,,,rot,red,r,1.0,r,1.0,0.7970771000000241,,,,,,,,,,5.0,0.0,60.0,1.0,342.2366469000008,,,,,,,,,,,,,,,,,342.2219804000015,343.4206030000005,344.2210887000001,344.205536200001,,,,,,,,,,,,,,,,,,,,,,,,,,,,,,,,,,,344.2062772999998,344.2210887000001,344.2210887000001,345.0236765000009,r,1.0,0.7970771000000241,,,,,sub-153,1,stroop_test,59.99433653450358,
,,,,61.0,1.0,5.0,,,,,,,,,,,,,blau,blue,b,1.0,b,1.0,1.1477568999998766,,,,,,,,,,5.0,1.0,61.0,5.0,345.0383399000002,,,,,,,,,,,,,,,,,345.02428920000057,345.3885850000006,346.18914810000024,346.1736187000006,,,,,,,,,,,,,,,,,,,,,,,,,,,,,,,,,,,346.1797185000014,346.18914810000024,346.18914810000024,347.341742300001,b,1.0,1.1477568999998766,,,,,sub-153,1,stroop_test,59.99433653450358,
,,,,62.0,2.0,5.0,,,,,,,,,,,,,gelb,blue,b,0.0,b,1.0,0.5996463999999833,,,,,,,,,,5.0,2.0,62.0,9.0,347.3566361000012,,,,,,,,,,,,,,,,,347.342321600001,348.5575226000001,349.35810110000057,349.3424006000005,,,,,,,,,,,,,,,,,,,,,,,,,,,,,,,,,,,349.3485159000011,349.35810110000057,349.35810110000057,349.96078210000087,b,1.0,0.5996463999999833,,,,,sub-153,1,stroop_test,59.99433653450358,
,,,,63.0,3.0,5.0,,,,,,,,,,,,,rot,blue,b,0.0,b,1.0,0.5102436999986821,,,,,,,,,,5.0,3.0,63.0,2.0,349.9751059000009,,,,,,,,,,,,,,,,,349.9613902000001,351.1759086000002,351.9766993000012,351.9608207000001,,,,,,,,,,,,,,,,,,,,,,,,,,,,,,,,,,,351.9664358000009,351.9766993000012,351.9766993000012,352.49569990000055,b,1.0,0.5102436999986821,,,,,sub-153,1,stroop_test,59.99433653450358,
,,,,64.0,4.0,5.0,,,,,,,,,,,,,blau,yellow,g,0.0,g,1.0,0.8165353999993386,,,,,,,,,,5.0,4.0,64.0,7.0,352.51017180000053,,,,,,,,,,,,,,,,,352.4962501000009,353.7109588000003,354.5114486000002,354.49590180000087,,,,,,,,,,,,,,,,,,,,,,,,,,,,,,,,,,,354.50459560000127,354.5114486000002,354.5114486000002,355.3309180000015,g,1.0,0.8165353999993386,,,,,sub-153,1,stroop_test,59.99433653450358,
,,,,65.0,5.0,5.0,,,,,,,,,,,,,blau,blue,b,1.0,b,1.0,0.621089899999788,,,,,,,,,,5.0,5.0,65.0,6.0,355.34534170000006,,,,,,,,,,,,,,,,,355.3315168000008,355.44533010000123,356.2458275000008,356.2303591,,,,,,,,,,,,,,,,,,,,,,,,,,,,,,,,,,,356.2311900000004,356.2458275000008,356.2458275000008,356.88250960000005,b,1.0,0.621089899999788,,,,,sub-153,1,stroop_test,59.99433653450358,
,,,,66.0,6.0,5.0,,,,,,,,,,,,,gelb,red,r,0.0,r,1.0,0.6687581999995018,,,,,,,,,,5.0,6.0,66.0,8.0,356.8965530000005,,,,,,,,,,,,,,,,,356.88330880000103,358.0972500000007,358.89793570000074,358.8823303999998,,,,,,,,,,,,,,,,,,,,,,,,,,,,,,,,,,,358.8883322000001,358.89793570000074,358.89793570000074,359.5833026,r,1.0,0.6687581999995018,,,,,sub-153,1,stroop_test,59.99433653450358,
,,,,67.0,7.0,5.0,,,,,,,,,,,,,rot,red,r,1.0,r,1.0,0.5685984000010649,,,,,,,,,,5.0,7.0,67.0,0.0,359.5983421000001,,,,,,,,,,,,,,,,,359.5839592000011,360.39886579999984,361.1993938000014,361.1837974000009,,,,,,,,,,,,,,,,,,,,,,,,,,,,,,,,,,,361.18974420000086,361.1993938000014,361.1993938000014,361.7854325000008,r,1.0,0.5685984000010649,,,,,sub-153,1,stroop_test,59.99433653450358,
,,,,68.0,8.0,5.0,,,,,,,,,,,,,gelb,yellow,g,1.0,g,1.0,0.7869553000000451,,,,,,,,,,5.0,8.0,68.0,10.0,361.80017060000137,,,,,,,,,,,,,,,,,361.7861045999998,361.8998376,362.7002678000008,362.6851361000008,,,,,,,,,,,,,,,,,,,,,,,,,,,,,,,,,,,362.6916767000002,362.7002678000008,362.7002678000008,363.50292980000086,g,1.0,0.7869553000000451,,,,,sub-153,1,stroop_test,59.99433653450358,
,,,,69.0,9.0,5.0,,,,,,,,,,,,,blau,red,r,0.0,r,1.0,0.8879591999993863,,,,,,,,,,5.0,9.0,69.0,4.0,363.5176093000009,,,,,,,,,,,,,,,,,363.50356269999975,364.3182625999998,365.1189652000012,365.1033636000011,,,,,,,,,,,,,,,,,,,,,,,,,,,,,,,,,,,365.1098938000014,365.1189652000012,365.1189652000012,366.0212670000001,r,1.0,0.8879591999993863,,,,,sub-153,1,stroop_test,59.99433653450358,
,,,,70.0,10.0,5.0,,,,,,,,,,,,,rot,yellow,g,0.0,g,1.0,1.5915710999997827,,,,,,,,,,5.0,10.0,70.0,3.0,366.0360842000009,,,,,,,,,,,,,,,,,366.0219189,366.13612269999976,366.9366252,366.92102410000007,,,,,,,,,,,,,,,,,,,,,,,,,,,,,,,,,,,366.9282210000001,366.9366252,366.9366252,368.5396724000002,g,1.0,1.5915710999997827,,,,,sub-153,1,stroop_test,59.99433653450358,
,,,,71.0,11.0,5.0,,,,,,,,,,,,,gelb,yellow,g,1.0,g,1.0,0.7109964000010223,,,,,,,,,,5.0,11.0,71.0,11.0,368.55442930000027,,,,,,,,,,,,,,,,,368.5402884000014,369.75529540000025,370.5560165000006,370.5403227000006,,,,,,,,,,,,,,,,,,,,,,,,,,,,,,,,,,,370.5461926000007,370.5560165000006,370.5560165000006,371.27486490000047,g,1.0,0.7109964000010223,,,,,sub-153,1,stroop_test,59.99433653450358,
,,,,72.0,0.0,6.0,,,,,,,,,,,,,gelb,yellow,g,1.0,g,1.0,0.6272468999995908,,,,,,,,,,6.0,0.0,72.0,11.0,371.2898187999999,,,,,,,,,,,,,,,,,371.2754655999997,371.3896502000007,372.1902092,372.1746746000008,,,,,,,,,,,,,,,,,,,,,,,,,,,,,,,,,,,372.1754441000012,372.1902092,372.1902092,372.82657480000125,g,1.0,0.6272468999995908,,,,,sub-153,1,stroop_test,59.99433653450358,
,,,,73.0,1.0,6.0,,,,,,,,,,,,,blau,yellow,g,0.0,g,1.0,0.7161138000010396,,,,,,,,,,6.0,1.0,73.0,7.0,372.84085250000135,,,,,,,,,,,,,,,,,372.8271572000013,373.64128470000105,374.4418492000004,374.4262686000002,,,,,,,,,,,,,,,,,,,,,,,,,,,,,,,,,,,374.43291730000055,374.4418492000004,374.4418492000004,375.16123010000047,g,1.0,0.7161138000010396,,,,,sub-153,1,stroop_test,59.99433653450358,
,,,,74.0,2.0,6.0,,,,,,,,,,,,,blau,red,r,0.0,r,1.0,0.8999912999988737,,,,,,,,,,6.0,2.0,74.0,4.0,375.1756960000002,,,,,,,,,,,,,,,,,375.1618346000014,375.9762394999998,376.7766701000001,376.76136060000135,,,,,,,,,,,,,,,,,,,,,,,,,,,,,,,,,,,376.7623432,376.7766701000001,376.7766701000001,377.679247,r,1.0,0.8999912999988737,,,,,sub-153,1,stroop_test,59.99433653450358,
,,,,75.0,3.0,6.0,,,,,,,,,,,,,rot,red,r,1.0,r,1.0,0.5326771000000008,,,,,,,,,,6.0,3.0,75.0,0.0,377.69420020000143,,,,,,,,,,,,,,,,,377.67968720000135,378.0443711000007,378.8448238000001,378.82951420000063,,,,,,,,,,,,,,,,,,,,,,,,,,,,,,,,,,,378.8365756000003,378.8448238000001,378.8448238000001,379.38064980000127,r,1.0,0.5326771000000008,,,,,sub-153,1,stroop_test,59.99433653450358,
,,,,76.0,4.0,6.0,,,,,,,,,,,,,rot,yellow,g,0.0,g,1.0,1.1616314000002603,,,,,,,,,,6.0,4.0,76.0,3.0,379.3952807000005,,,,,,,,,,,,,,,,,379.381269200001,380.19567240000106,380.9962997000002,380.981023100001,,,,,,,,,,,,,,,,,,,,,,,,,,,,,,,,,,,380.9817801999998,380.9962997000002,380.9962997000002,382.1659529999997,g,1.0,1.1616314000002603,,,,,sub-153,1,stroop_test,59.99433653450358,
,,,,77.0,5.0,6.0,,,,,,,,,,,,,rot,blue,b,0.0,b,1.0,0.995300300000963,,,,,,,,,,6.0,5.0,77.0,2.0,382.180493400001,,,,,,,,,,,,,,,,,382.1667157000011,382.98104520000015,383.7816008000009,383.7658091000012,,,,,,,,,,,,,,,,,,,,,,,,,,,,,,,,,,,383.7666461000008,383.7816008000009,383.7816008000009,384.7842754000012,b,1.0,0.995300300000963,,,,,sub-153,1,stroop_test,59.99433653450358,
,,,,78.0,6.0,6.0,,,,,,,,,,,,,gelb,blue,b,0.0,b,1.0,1.8570844000005309,,,,,,,,,,6.0,6.0,78.0,9.0,384.7988326000013,,,,,,,,,,,,,,,,,384.78488430000107,385.599560300001,386.3999359999998,386.3845086000001,,,,,,,,,,,,,,,,,,,,,,,,,,,,,,,,,,,386.3924870999999,386.3999359999998,386.3999359999998,388.26959739999984,b,1.0,1.8570844000005309,,,,,sub-153,1,stroop_test,59.99433653450358,
,,,,79.0,7.0,6.0,,,,,,,,,,,,,gelb,red,r,0.0,r,1.0,1.002311800000825,,,,,,,,,,6.0,7.0,79.0,8.0,388.284557500001,,,,,,,,,,,,,,,,,388.2702132000013,388.3848566000015,389.1852875000004,389.1698078999998,,,,,,,,,,,,,,,,,,,,,,,,,,,,,,,,,,,389.1706654999998,389.1852875000004,389.1852875000004,390.2044724000007,r,1.0,1.002311800000825,,,,,sub-153,1,stroop_test,59.99433653450358,
,,,,80.0,8.0,6.0,,,,,,,,,,,,,rot,red,r,1.0,r,1.0,0.5764168000005157,,,,,,,,,,6.0,8.0,80.0,1.0,390.219207600001,,,,,,,,,,,,,,,,,390.2050759000013,391.01998060000005,391.8205353000012,391.805072000001,,,,,,,,,,,,,,,,,,,,,,,,,,,,,,,,,,,391.8109936000001,391.8205353000012,391.8205353000012,392.40613980000126,r,1.0,0.5764168000005157,,,,,sub-153,1,stroop_test,59.99433653450358,
,,,,81.0,9.0,6.0,,,,,,,,,,,,,blau,blue,b,1.0,b,1.0,0.6262247000013303,,,,,,,,,,6.0,9.0,81.0,6.0,392.42075410000143,,,,,,,,,,,,,,,,,392.4067689000003,392.7711927,393.5715533000002,393.5563675000012,,,,,,,,,,,,,,,,,,,,,,,,,,,,,,,,,,,393.5625823999999,393.5715533000002,393.5715533000002,394.2077319,b,1.0,0.6262247000013303,,,,,sub-153,1,stroop_test,59.99433653450358,
,,,,82.0,10.0,6.0,,,,,,,,,,,,,blau,blue,b,1.0,b,1.0,0.5266525000006368,,,,,,,,,,6.0,10.0,82.0,5.0,394.2219556,,,,,,,,,,,,,,,,,394.208300100001,394.3220130999998,395.1225419000002,395.10706279999977,,,,,,,,,,,,,,,,,,,,,,,,,,,,,,,,,,,395.10799080000106,395.1225419000002,395.1225419000002,395.6584242000008,b,1.0,0.5266525000006368,,,,,sub-153,1,stroop_test,59.99433653450358,
,,,,83.0,11.0,6.0,,,,,,,,,,,,,gelb,yellow,g,1.0,g,1.0,0.6523438999993232,,,,,,,,,,6.0,11.0,83.0,10.0,395.6730017000009,,,,,,,,,,,,,,,,,395.6590391999998,396.8738874999999,397.69608270000026,397.6588925000015,,,,,,,,,,,,,,,,,,,,,,,,,,,,,,,,,,,397.6878396000011,397.69608270000026,397.69608270000026,398.3602110000011,g,1.0,0.6523438999993232,,,,,sub-153,1,stroop_test,59.99433653450358,
,,,,84.0,0.0,7.0,,,,,,,,,,,,,gelb,blue,b,0.0,b,1.0,0.6116948999988381,,,,,,,,,,7.0,0.0,84.0,9.0,398.3749512000013,,,,,,,,,,,,,,,,,398.3608148000003,399.57567890000064,400.3762734000011,400.3610630000003,,,,,,,,,,,,,,,,,,,,,,,,,,,,,,,,,,,400.3618962000001,400.3762734000011,400.3762734000011,400.995117800001,b,1.0,0.6116948999988381,,,,,sub-153,1,stroop_test,59.99433653450358,
,,,,85.0,1.0,7.0,,,,,,,,,,,,,rot,red,r,1.0,r,1.0,0.7369992000003549,,,,,,,,,,7.0,1.0,85.0,1.0,401.0097335999999,,,,,,,,,,,,,,,,,400.9958490000008,401.1100919,401.9106275000013,401.8949485000012,,,,,,,,,,,,,,,,,,,,,,,,,,,,,,,,,,,401.9024160000008,401.9106275000013,401.9106275000013,402.66304730000047,r,1.0,0.7369992000003549,,,,,sub-153,1,stroop_test,59.99433653450358,
,,,,86.0,2.0,7.0,,,,,,,,,,,,,gelb,yellow,g,1.0,g,1.0,0.7600134000003891,,,,,,,,,,7.0,2.0,86.0,10.0,402.6778209000004,,,,,,,,,,,,,,,,,402.663739900001,403.87857280000026,404.67935110000144,404.6633168000008,,,,,,,,,,,,,,,,,,,,,,,,,,,,,,,,,,,404.6695877000002,404.67935110000144,404.67935110000144,405.4487094000015,g,1.0,0.7600134000003891,,,,,sub-153,1,stroop_test,59.99433653450358,
,,,,87.0,3.0,7.0,,,,,,,,,,,,,blau,blue,b,1.0,b,1.0,0.5852202999994915,,,,,,,,,,7.0,3.0,87.0,5.0,405.4631558000001,,,,,,,,,,,,,,,,,405.4494645000013,405.8132138000001,406.6138342000013,406.59816649999993,,,,,,,,,,,,,,,,,,,,,,,,,,,,,,,,,,,406.6045814000008,406.6138342000013,406.6138342000013,407.21608560000095,b,1.0,0.5852202999994915,,,,,sub-153,1,stroop_test,59.99433653450358,
,,,,88.0,4.0,7.0,,,,,,,,,,,,,gelb,red,r,0.0,r,1.0,1.205303400000048,,,,,,,,,,7.0,4.0,88.0,8.0,407.2310034000002,,,,,,,,,,,,,,,,,407.2166388000005,408.0316098000003,408.83222829999977,408.8164717,,,,,,,,,,,,,,,,,,,,,,,,,,,,,,,,,,,408.8227864,408.83222829999977,408.83222829999977,410.0513388,r,1.0,1.205303400000048,,,,,sub-153,1,stroop_test,59.99433653450358,
,,,,89.0,5.0,7.0,,,,,,,,,,,,,rot,yellow,g,0.0,g,1.0,0.7799764999999752,,,,,,,,,,7.0,5.0,89.0,3.0,410.0661574000005,,,,,,,,,,,,,,,,,410.0519065000008,411.2668880000001,412.0675160999999,412.05183860000034,,,,,,,,,,,,,,,,,,,,,,,,,,,,,,,,,,,412.0577567,412.0675160999999,412.0675160999999,412.8535514000014,g,1.0,0.7799764999999752,,,,,sub-153,1,stroop_test,59.99433653450358,
,,,,90.0,6.0,7.0,,,,,,,,,,,,,rot,red,r,1.0,r,1.0,0.659093499998562,,,,,,,,,,7.0,6.0,90.0,0.0,412.867969500001,,,,,,,,,,,,,,,,,412.8542081000014,412.96837940000114,413.7686493000001,413.7533316000008,,,,,,,,,,,,,,,,,,,,,,,,,,,,,,,,,,,413.75404739999976,413.7686493000001,413.7686493000001,414.4376427000007,r,1.0,0.659093499998562,,,,,sub-153,1,stroop_test,59.99433653450358,
,,,,91.0,7.0,7.0,,,,,,,,,,,,,blau,red,r,0.0,r,1.0,0.6537113000013051,,,,,,,,,,7.0,7.0,91.0,4.0,414.4523731999998,,,,,,,,,,,,,,,,,414.4382155000003,415.2534313000015,416.0538832000002,416.0373731,,,,,,,,,,,,,,,,,,,,,,,,,,,,,,,,,,,416.0420050000012,416.0538832000002,416.0538832000002,416.7223952000004,r,1.0,0.6537113000013051,,,,,sub-153,1,stroop_test,59.99433653450358,
,,,,92.0,8.0,7.0,,,,,,,,,,,,,blau,yellow,g,0.0,g,1.0,0.980981900000188,,,,,,,,,,7.0,8.0,92.0,7.0,416.7376872000005,,,,,,,,,,,,,,,,,416.7230403000012,416.8374345000011,417.6380301999998,417.6225789,,,,,,,,,,,,,,,,,,,,,,,,,,,,,,,,,,,417.6233978,417.6380301999998,417.6380301999998,418.62464640000144,g,1.0,0.980981900000188,,,,,sub-153,1,stroop_test,59.99433653450358,
,,,,93.0,9.0,7.0,,,,,,,,,,,,,gelb,yellow,g,1.0,g,1.0,0.6186290999994526,,,,,,,,,,7.0,9.0,93.0,11.0,418.6389593000004,,,,,,,,,,,,,,,,,418.6253075000004,418.7389567999999,419.53936090000025,419.5236549000001,,,,,,,,,,,,,,,,,,,,,,,,,,,,,,,,,,,419.5296631000001,419.53936090000025,419.53936090000025,420.1749815000003,g,1.0,0.6186290999994526,,,,,sub-153,1,stroop_test,59.99433653450358,
,,,,94.0,10.0,7.0,,,,,,,,,,,,,rot,blue,b,0.0,b,1.0,0.8864133000006404,,,,,,,,,,7.0,10.0,94.0,2.0,420.18993000000046,,,,,,,,,,,,,,,,,420.1756385000008,421.3908176000005,422.1911087000008,422.1755442000013,,,,,,,,,,,,,,,,,,,,,,,,,,,,,,,,,,,422.1820879000006,422.1911087000008,422.1911087000008,423.093629500001,b,1.0,0.8864133000006404,,,,,sub-153,1,stroop_test,59.99433653450358,
,,,,95.0,11.0,7.0,,,,,,,,,,,,,blau,blue,b,1.0,b,1.0,0.6589266000009957,,,,,,,,,,7.0,11.0,95.0,6.0,423.108375400001,,,,,,,,,,,,,,,,,423.0942277000013,424.3092589000007,425.1097037,425.0942011000007,,,,,,,,,,,,,,,,,,,,,,,,,,,,,,,,,,,425.10112310000113,425.1097037,425.1097037,425.77888170000006,b,1.0,0.6589266000009957,,,,,sub-153,1,stroop_test,59.99433653450358,
,,,,96.0,0.0,8.0,,,,,,,,,,,,,blau,blue,b,1.0,b,1.0,0.5828844999996363,,,,,,,,,,8.0,0.0,96.0,5.0,425.7938709000009,,,,,,,,,,,,,,,,,425.7795408000002,425.89390880000064,426.6944474000011,426.6786463000008,,,,,,,,,,,,,,,,,,,,,,,,,,,,,,,,,,,426.6793843000014,426.6944474000011,426.6944474000011,427.28007340000113,b,1.0,0.5828844999996363,,,,,sub-153,1,stroop_test,59.99433653450358,
,,,,97.0,1.0,8.0,,,,,,,,,,,,,rot,yellow,g,0.0,g,1.0,0.742877500000759,,,,,,,,,,8.0,1.0,97.0,3.0,427.2946107000007,,,,,,,,,,,,,,,,,427.280936000001,428.09535160000087,428.8959251000015,428.8800654000006,,,,,,,,,,,,,,,,,,,,,,,,,,,,,,,,,,,428.8893404999999,428.8959251000015,428.8959251000015,429.64875010000105,g,1.0,0.742877500000759,,,,,sub-153,1,stroop_test,59.99433653450358,
,,,,98.0,2.0,8.0,,,,,,,,,,,,,rot,blue,b,0.0,b,1.0,1.3234542999998666,,,,,,,,,,8.0,2.0,98.0,2.0,429.6628156000006,,,,,,,,,,,,,,,,,429.6492909000008,430.4634548000013,431.2641306000005,431.2486091999999,,,,,,,,,,,,,,,,,,,,,,,,,,,,,,,,,,,431.24928720000025,431.2641306000005,431.2641306000005,432.6000694000013,b,1.0,1.3234542999998666,,,,,sub-153,1,stroop_test,59.99433653450358,
,,,,99.0,3.0,8.0,,,,,,,,,,,,,rot,red,r,1.0,r,1.0,0.6416994000010163,,,,,,,,,,8.0,3.0,99.0,0.0,432.61521490000086,,,,,,,,,,,,,,,,,432.6008117000001,432.9653444000014,433.7656612999999,433.75045710000086,,,,,,,,,,,,,,,,,,,,,,,,,,,,,,,,,,,433.751160400001,433.7656612999999,433.7656612999999,434.4184593999999,r,1.0,0.6416994000010163,,,,,sub-153,1,stroop_test,59.99433653450358,
,,,,100.0,4.0,8.0,,,,,,,,,,,,,gelb,blue,b,0.0,b,1.0,0.5446214999992662,,,,,,,,,,8.0,4.0,100.0,9.0,434.43282030000046,,,,,,,,,,,,,,,,,434.4190058000004,434.5331265000005,435.3335036000008,435.3178994000009,,,,,,,,,,,,,,,,,,,,,,,,,,,,,,,,,,,435.3241426000004,435.3335036000008,435.3335036000008,435.8861393000007,b,1.0,0.5446214999992662,,,,,sub-153,1,stroop_test,59.99433653450358,
,,,,101.0,5.0,8.0,,,,,,,,,,,,,gelb,red,r,0.0,r,1.0,0.4062393999993219,,,,,,,,,,8.0,5.0,101.0,8.0,435.9005242000003,,,,,,,,,,,,,,,,,435.8869752999999,436.70116340000095,437.5015638000005,437.4864386000008,,,,,,,,,,,,,,,,,,,,,,,,,,,,,,,,,,,437.4872412000004,437.5015638000005,437.5015638000005,437.9204987000012,r,1.0,0.4062393999993219,,,,,sub-153,1,stroop_test,59.99433653450358,
,,,,102.0,6.0,8.0,,,,,,,,,,,,,blau,red,r,0.0,r,1.0,0.7311348000002909,,,,,,,,,,8.0,6.0,102.0,4.0,437.9353303000007,,,,,,,,,,,,,,,,,437.9212358000004,438.7358925000008,439.5365158000004,439.5207324000002,,,,,,,,,,,,,,,,,,,,,,,,,,,,,,,,,,,439.5268551999998,439.5365158000004,439.5365158000004,440.2723025000014,r,1.0,0.7311348000002909,,,,,sub-153,1,stroop_test,59.99433653450358,
,,,,103.0,7.0,8.0,,,,,,,,,,,,,blau,blue,b,1.0,b,1.0,0.8102555999994365,,,,,,,,,,8.0,7.0,103.0,6.0,440.2869053000013,,,,,,,,,,,,,,,,,440.27300110000033,441.0874615000012,441.8880786999998,441.872286400001,,,,,,,,,,,,,,,,,,,,,,,,,,,,,,,,,,,441.8730465000008,441.8880786999998,441.8880786999998,442.7075548000012,b,1.0,0.8102555999994365,,,,,sub-153,1,stroop_test,59.99433653450358,
,,,,104.0,8.0,8.0,,,,,,,,,,,,,gelb,yellow,g,1.0,g,1.0,1.0749424000005092,,,,,,,,,,8.0,8.0,104.0,10.0,442.7221320999997,,,,,,,,,,,,,,,,,442.7081226000009,443.9227231000005,444.7232941000002,444.7076792000007,,,,,,,,,,,,,,,,,,,,,,,,,,,,,,,,,,,444.71384600000056,444.7232941000002,444.7232941000002,445.8090848000011,g,1.0,1.0749424000005092,,,,,sub-153,1,stroop_test,59.99433653450358,
,,,,105.0,9.0,8.0,,,,,,,,,,,,,rot,red,r,1.0,r,1.0,1.3842593000008492,,,,,,,,,,8.0,9.0,105.0,1.0,445.8239159000004,,,,,,,,,,,,,,,,,445.80979690000095,446.62457520000135,447.42506570000114,447.4096534,,,,,,,,,,,,,,,,,,,,,,,,,,,,,,,,,,,447.4166552000006,447.42506570000114,447.42506570000114,448.8118500000001,r,1.0,1.3842593000008492,,,,,sub-153,1,stroop_test,59.99433653450358,
,,,,106.0,10.0,8.0,,,,,,,,,,,,,blau,yellow,g,0.0,g,1.0,1.5210680999989563,,,,,,,,,,8.0,10.0,106.0,7.0,448.8258878000015,,,,,,,,,,,,,,,,,448.8127210000002,450.026729000001,450.82743780000055,450.8118103000015,,,,,,,,,,,,,,,,,,,,,,,,,,,,,,,,,,,450.8187131000013,450.82743780000055,450.82743780000055,452.3639843000001,g,1.0,1.5210680999989563,,,,,sub-153,1,stroop_test,59.99433653450358,
,,,,107.0,11.0,8.0,,,,,,,,,,,,,gelb,yellow,g,1.0,g,1.0,0.6490228999991814,,,,,,,,,,8.0,11.0,107.0,11.0,452.3784137000002,,,,,,,,,,,,,,,,,452.3645713000005,452.7288385000011,453.5292835,453.51370700000007,,,,,,,,,,,,,,,,,,,,,,,,,,,,,,,,,,,453.520767,453.5292835,453.5292835,454.1819154000004,g,1.0,0.6490228999991814,,,,,sub-153,1,stroop_test,59.99433653450358,
,,,,108.0,0.0,9.0,,,,,,,,,,,,,blau,blue,b,1.0,b,1.0,0.5610123999995267,,,,,,,,,,9.0,0.0,108.0,5.0,454.1963893000011,,,,,,,,,,,,,,,,,454.1824343000008,454.5466580000011,455.3470909000007,455.3316187,,,,,,,,,,,,,,,,,,,,,,,,,,,,,,,,,,,455.3388457000001,455.3470909000007,455.3470909000007,455.9162709000011,b,1.0,0.5610123999995267,,,,,sub-153,1,stroop_test,59.99433653450358,
,,,,109.0,1.0,9.0,,,,,,,,,,,,,gelb,red,r,0.0,r,1.0,0.8248402000008355,,,,,,,,,,9.0,1.0,109.0,8.0,455.93106460000126,,,,,,,,,,,,,,,,,455.91690590000144,457.1316241000004,457.9324988000008,457.917002600001,,,,,,,,,,,,,,,,,,,,,,,,,,,,,,,,,,,457.9235626000009,457.9324988000008,457.9324988000008,458.7678838000011,r,1.0,0.8248402000008355,,,,,sub-153,1,stroop_test,59.99433653450358,
,,,,110.0,2.0,9.0,,,,,,,,,,,,,rot,red,r,1.0,r,1.0,0.6338667999989411,,,,,,,,,,9.0,2.0,110.0,0.0,458.7829008999997,,,,,,,,,,,,,,,,,458.768654200001,459.5833175000007,460.3839258000007,460.3683065000005,,,,,,,,,,,,,,,,,,,,,,,,,,,,,,,,,,,460.3752153000005,460.3839258000007,460.3839258000007,461.0193534999999,r,1.0,0.6338667999989411,,,,,sub-153,1,stroop_test,59.99433653450358,
,,,,111.0,3.0,9.0,,,,,,,,,,,,,blau,blue,b,1.0,b,1.0,0.5922341999994387,,,,,,,,,,9.0,3.0,111.0,6.0,461.0342438000007,,,,,,,,,,,,,,,,,461.0198981000012,461.384705800001,462.185059200001,462.169527,,,,,,,,,,,,,,,,,,,,,,,,,,,,,,,,,,,462.1762434000011,462.185059200001,462.185059200001,462.7878593000005,b,1.0,0.5922341999994387,,,,,sub-153,1,stroop_test,59.99433653450358,
,,,,112.0,4.0,9.0,,,,,,,,,,,,,blau,red,r,0.0,r,1.0,0.7237425999992411,,,,,,,,,,9.0,4.0,112.0,4.0,462.8022783000015,,,,,,,,,,,,,,,,,462.7885051000012,464.0032350000001,464.8035873999997,464.7881675000008,,,,,,,,,,,,,,,,,,,,,,,,,,,,,,,,,,,464.7888625000014,464.8035873999997,464.8035873999997,465.539617800001,r,1.0,0.7237425999992411,,,,,sub-153,1,stroop_test,59.99433653450358,
,,,,113.0,5.0,9.0,,,,,,,,,,,,,rot,blue,b,0.0,b,1.0,0.7623432999989745,,,,,,,,,,9.0,5.0,113.0,2.0,465.55437510000047,,,,,,,,,,,,,,,,,465.5401751999998,466.3546131000003,467.1556225000004,467.1401714000003,,,,,,,,,,,,,,,,,,,,,,,,,,,,,,,,,,,467.1436106000001,467.1556225000004,467.1556225000004,467.9237548000001,b,1.0,0.7623432999989745,,,,,sub-153,1,stroop_test,59.99433653450358,
,,,,114.0,6.0,9.0,,,,,,,,,,,,,gelb,yellow,g,1.0,g,1.0,0.9286393000002136,,,,,,,,,,9.0,6.0,114.0,10.0,467.9397583999999,,,,,,,,,,,,,,,,,467.92406219999975,468.2893065000008,469.0900124,469.0752056000001,,,,,,,,,,,,,,,,,,,,,,,,,,,,,,,,,,,469.0815454000003,469.0900124,469.0900124,470.02564470000107,g,1.0,0.9286393000002136,,,,,sub-153,1,stroop_test,59.99433653450358,
,,,,115.0,7.0,9.0,,,,,,,,,,,,,rot,red,r,1.0,r,1.0,0.6073305000008986,,,,,,,,,,9.0,7.0,115.0,1.0,470.0406281000014,,,,,,,,,,,,,,,,,470.0263270000014,470.1407809000011,470.9411903,470.9254837999997,,,,,,,,,,,,,,,,,,,,,,,,,,,,,,,,,,,470.9313609000001,470.9411903,470.9411903,471.56002679999983,r,1.0,0.6073305000008986,,,,,sub-153,1,stroop_test,59.99433653450358,
,,,,116.0,8.0,9.0,,,,,,,,,,,,,gelb,yellow,g,1.0,g,1.0,0.6632320999997319,,,,,,,,,,9.0,8.0,116.0,11.0,471.5747334000007,,,,,,,,,,,,,,,,,471.5606517000015,471.9252234000014,472.7256492000015,472.7104560000007,,,,,,,,,,,,,,,,,,,,,,,,,,,,,,,,,,,472.7177740000007,472.7256492000015,472.7256492000015,473.3949112999999,g,1.0,0.6632320999997319,,,,,sub-153,1,stroop_test,59.99433653450358,
,,,,117.0,9.0,9.0,,,,,,,,,,,,,gelb,blue,b,0.0,b,1.0,0.6473838000001706,,,,,,,,,,9.0,9.0,117.0,9.0,473.4095318,,,,,,,,,,,,,,,,,473.3954856,474.6102852000004,475.41102820000015,475.3952700000009,,,,,,,,,,,,,,,,,,,,,,,,,,,,,,,,,,,475.3960096999999,475.41102820000015,475.41102820000015,476.0633209000007,b,1.0,0.6473838000001706,,,,,sub-153,1,stroop_test,59.99433653450358,
,,,,118.0,10.0,9.0,,,,,,,,,,,,,blau,yellow,g,0.0,g,1.0,1.0695109000007506,,,,,,,,,,9.0,10.0,118.0,7.0,476.0781170000009,,,,,,,,,,,,,,,,,476.0638794000006,477.27871760000016,478.0792888000015,478.0641163,,,,,,,,,,,,,,,,,,,,,,,,,,,,,,,,,,,478.0709461000006,478.0792888000015,478.0792888000015,479.1656104000013,g,1.0,1.0695109000007506,,,,,sub-153,1,stroop_test,59.99433653450358,
,,,,119.0,11.0,9.0,,,,,,,,,,,,,rot,yellow,g,0.0,g,1.0,0.947404300000926,,,,,,,,,,9.0,11.0,119.0,3.0,479.1802065000011,,,,,,,,,,,,,,,,,479.1661464000008,480.38097560000097,481.1816671000015,481.1661883000015,,,,,,,,,,,,,,,,,,,,,,,,,,,,,,,,,,,481.1724817000013,481.1816671000015,481.1816671000015,482.1338501999999,g,1.0,0.947404300000926,,,,,sub-153,1,stroop_test,59.99433653450358,
,,,,,,,,,,,,,,,,,,,,,,,,,,,,,,,,,,,,,,,,,,,,,,,,,,,,,,,,,,,,,,,,,,,,,,,,,,,,,,,,,,,,,,,,,,,,,,,,,,,,,,482.1342553000013,482.1489448000011,487.1361546000008,sub-153,1,stroop_test,59.99433653450358,
