direction,corrAns,thisN,thisTrialN,thisRepN,respDots.keys,respDots.corr,respDots.rt,respDots.duration,randomInstr,respRandomInstr.keys,respRandomInstr.rt,respRandomInstr.duration,practice_trials.thisRepN,practice_trials.thisTrialN,practice_trials.thisN,practice_trials.thisIndex,instr_trials.thisRepN,instr_trials.thisTrialN,instr_trials.thisN,instr_trials.thisIndex,test_trials.thisRepN,test_trials.thisTrialN,test_trials.thisN,test_trials.thisIndex,thisRow.t,notes,general_instruction.started,textGeneralInstr.started,respGeneralInstr.started,general_instruction.stopped,respGeneralInstr.keys,respGeneralInstr.rt,respGeneralInstr.duration,ITI.started,fixcross.started,fixcross.stopped,ITI.stopped,dots.started,backgroundDots.started,stimulusDots.started,respDots.started,stimulusDots.stopped,dots.stopped,practice_trials.respDots.keys,practice_trials.respDots.corr,practice_trials.respDots.rt,practice_trials.respDots.duration,feedback.started,textFeedback.started,feedback.stopped,textFeedback.stopped,info.started,textInfo.started,keyRespInfo.started,info.stopped,keyRespInfo.keys,keyRespInfo.rt,keyRespInfo.duration,test_instruction.started,textTestInstr.started,respTestInstr.started,test_instruction.stopped,respTestInstr.keys,respTestInstr.rt,respTestInstr.duration,random_instruction.started,textRandomInstr.started,respRandomInstr.started,random_instruction.stopped,instr_trials.respRandomInstr.keys,instr_trials.respRandomInstr.rt,instr_trials.respRandomInstr.duration,test_trials.respDots.keys,test_trials.respDots.corr,test_trials.respDots.rt,test_trials.respDots.duration,goodbye.started,textGoodbye.started,goodbye.stopped,participant,session,expName,frameRate,Unnamed: 87
,,,,,,,,,,,,,,,,,,,,,,,,,,,0.0122260169591754,0.0333265219815075,0.0333265219815075,39.89088762598112,space,39.76411713601556,,,,,,,,,,,,,,,,,,,,,,,,,,,,,,,,,,,,,,,,,,,,,,,,sub-103,1,random_dot,60.740561193700245,
right,right,0.0,0.0,0.0,left,0.0,12.46008177299518,,,,,,0.0,0.0,0.0,1.0,,,,,,,,,39.90911075496115,,,,,,,,,39.897289319953416,39.99262953194557,40.79688305495074,40.77634337398922,40.776745832990855,40.79688305495074,40.79688305495074,40.79688305495074,45.77688922599191,53.26206384197576,left,0.0,12.46008177299518,,53.267157044960186,53.28180833195802,53.77826696599368,,,,,,,,,,,,,,,,,,,,,,,,,,,,,,sub-103,1,random_dot,60.740561193700245,
left,left,1.0,1.0,0.0,right,0.0,3.06018003995996,,,,,,0.0,1.0,1.0,0.0,,,,,,,,,53.79488803795539,,,,,,,,,53.778625311970245,54.96170598897152,55.76180133299204,55.74563241499709,55.7460224419483,55.76180133299204,55.76180133299204,55.76180133299204,,58.82958541397238,right,0.0,3.06018003995996,,58.829676754947286,58.84576525900047,59.32948402897455,59.34585246996721,,,,,,,,,,,,,,,,,,,,,,,,,,,,,sub-103,1,random_dot,60.740561193700245,
right,right,2.0,0.0,1.0,right,1.0,2.7182035830337554,,,,,,1.0,0.0,2.0,1.0,,,,,,,,,59.34585246996721,,,,,,,,,59.32981262396788,60.52896862698253,61.34252378199017,61.3194702869514,61.31984548899345,61.34252378199017,61.34252378199017,61.34252378199017,,64.06378074595705,right,1.0,2.7182035830337554,,64.06753308698535,64.08015986497048,64.56368829094572,64.5801233969978,,,,,,,,,,,,,,,,,,,,,,,,,,,,,sub-103,1,random_dot,60.740561193700245,
left,left,3.0,1.0,1.0,left,1.0,1.3219745219685135,,,,,,1.0,1.0,3.0,0.0,,,,,,,,,64.5801233969978,,,,,,,,,64.56402286799857,65.76364166295389,66.56395727000199,66.54742420196999,66.54780848498922,66.56395727000199,66.56395727000199,66.56395727000199,,67.89842310297536,left,1.0,1.3219745219685135,,67.89854716899572,67.91395437996835,68.40721679094713,,,,,,,,,,,,,,,,,,,,,,,,,,,,,,sub-103,1,random_dot,60.740561193700245,
left,left,4.0,0.0,2.0,right,0.0,1.240475600992795,,,,,,2.0,0.0,4.0,0.0,,,,,,,,,68.42372512997827,,,,,,,,,68.40756492695073,68.51399469497846,69.32531305594603,69.3032276929589,69.3036105169449,69.32531305594603,69.32531305594603,69.32531305594603,,70.5822449689731,right,0.0,1.240475600992795,,70.58549131499603,70.59769563999726,71.08135028998367,71.09774352097884,,,,,,,,,,,,,,,,,,,,,,,,,,,,,sub-103,1,random_dot,60.740561193700245,
right,right,5.0,1.0,2.0,right,1.0,1.0995365609996952,,,,,,2.0,1.0,5.0,1.0,,,,,,,,,71.09774352097884,,,,,,,,,71.08167773199966,71.89791831496404,72.69841321796412,72.68172788794618,72.68211217899807,72.69841321796412,72.69841321796412,72.69841321796412,,73.79898719495395,right,1.0,1.0995365609996952,,73.80124801094644,73.81500572100049,74.29860443394864,74.3167611399549,,,,,,,,,,,,,,,,,,,,,,,,,,,,,sub-103,1,random_dot,60.740561193700245,
left,left,6.0,0.0,3.0,left,1.0,1.243415582983289,,,,,,3.0,0.0,6.0,0.0,,,,,,,,,74.3167611399549,,,,,,,,,74.29893242899561,75.09857468499104,75.89860514295287,75.88244766596472,75.8828349369578,75.89860514295287,75.89860514295287,75.89860514295287,,77.14911785098957,left,1.0,1.243415582983289,,77.14920851396164,77.16544684994733,77.64918710797792,77.66549639595905,,,,,,,,,,,,,,,,,,,,,,,,,,,,,sub-103,1,random_dot,60.740561193700245,
right,right,7.0,1.0,3.0,right,1.0,1.614431264984887,,,,,,3.0,1.0,7.0,1.0,,,,,,,,,77.66549639595905,,,,,,,,,77.6495175549644,78.44916515098885,79.24925804400118,79.23283918894595,79.23321915394627,79.24925804400118,79.24925804400118,79.24925804400118,,80.86669815698406,right,1.0,1.614431264984887,,80.8667803889839,80.88287777698133,81.36899877694668,,,,,,,,,,,,,,,,,,,,,,,,,,,,,,sub-103,1,random_dot,60.740561193700245,
right,right,8.0,0.0,4.0,right,1.0,1.42624453100143,,,,,,4.0,0.0,8.0,1.0,,,,,,,,,81.38836336095119,,,,,,,,,81.36935017898213,82.16651473898673,82.98147257295204,82.95847123395652,82.95885155099677,82.98147257295204,82.98147257295204,82.98147257295204,,84.40884569397895,right,1.0,1.42624453100143,,84.40894519997528,84.42596467596013,84.91695785196498,,,,,,,,,,,,,,,,,,,,,,,,,,,,,,sub-103,1,random_dot,60.740561193700245,
left,left,9.0,1.0,4.0,left,1.0,2.377859467000235,,,,,,4.0,1.0,9.0,0.0,,,,,,,,,84.93346927699167,,,,,,,,,84.91730933997314,85.71702565695159,86.53231047897134,86.50966832099948,86.51005212997552,86.53231047897134,86.53231047897134,86.53231047897134,,88.91806573799113,left,1.0,2.377859467000235,,88.9181563089951,88.93416776199592,89.41783175396267,89.43975081900135,,,,,,,,,,,,,,,,,,,,,,,,,,,,,sub-103,1,random_dot,60.740561193700245,
right,right,10.0,0.0,5.0,right,1.0,1.191699774004519,,,,,,5.0,0.0,10.0,1.0,,,,,,,,,89.43975081900135,,,,,,,,,89.41816172399558,89.52476182900136,90.3344882459496,90.31804270198336,90.31842281797437,90.3344882459496,90.3344882459496,90.3344882459496,,91.53514552797424,right,1.0,1.191699774004519,,91.5352353679482,91.5513605659944,92.03492867399471,92.05144273495534,,,,,,,,,,,,,,,,,,,,,,,,,,,,,sub-103,1,random_dot,60.740561193700245,
left,left,11.0,1.0,5.0,right,0.0,1.9459997699595988,,,,,,5.0,1.0,11.0,0.0,,,,,,,,,92.05144273495534,,,,,,,,,92.0352577759768,92.38474496098934,93.18483035400276,93.16844567196677,93.16882660595002,93.18483035400276,93.18483035400276,93.18483035400276,,95.13580167398322,right,0.0,1.9459997699595988,,95.13819716096624,95.15195163496536,95.63553160097216,95.65186218597228,,,,,,,,,,,,,,,,,,,,,,,,,,,,,sub-103,1,random_dot,60.740561193700245,
left,left,12.0,0.0,6.0,left,1.0,1.2927025299868546,,,,,,6.0,0.0,12.0,0.0,,,,,,,,,95.65186218597228,,,,,,,,,95.63586037798086,96.83515169698512,97.63581774599152,97.61923492595088,97.61962244898314,97.63581774599152,97.63581774599152,97.63581774599152,,98.93638790096156,left,1.0,1.2927025299868546,,98.93882252200274,98.95254326798022,99.4362548450008,99.452442298003,,,,,,,,,,,,,,,,,,,,,,,,,,,,,sub-103,1,random_dot,60.740561193700245,
right,right,13.0,1.0,6.0,right,1.0,1.9186317920102736,,,,,,6.0,1.0,13.0,1.0,,,,,,,,,99.452442298003,,,,,,,,,99.43658307695296,99.54253590595908,100.35248490294909,100.33612202299992,100.33650174399372,100.35248490294909,100.35248490294909,100.35248490294909,,102.28724413295276,right,1.0,1.9186317920102736,,102.28736782696797,102.30285260494566,102.78654218296288,102.80316145496909,,,,,,,,,,,,,,,,,,,,,,,,,,,,,sub-103,1,random_dot,60.740561193700245,
right,right,14.0,0.0,7.0,right,1.0,2.817245370009914,,,,,,7.0,0.0,14.0,1.0,,,,,,,,,102.80316145496909,,,,,,,,,102.78686711197952,102.88640078995375,103.70212388399524,103.68005235400052,103.68045052798698,103.70212388399524,103.70212388399524,103.70212388399524,,106.52108567894902,right,1.0,2.817245370009914,,106.52117256994823,106.5371929409448,107.02091896894854,107.0372508589644,,,,,,,,,,,,,,,,,,,,,,,,,,,,,sub-103,1,random_dot,60.740561193700245,
left,left,15.0,1.0,7.0,left,1.0,1.2226460140082054,,,,,,7.0,1.0,15.0,0.0,,,,,,,,,107.0372508589644,,,,,,,,,107.02124589396408,107.12061271298444,107.92080488899956,107.9045740099973,107.90495932596968,107.92080488899956,107.92080488899956,107.92080488899956,,109.1549492549966,left,1.0,1.2226460140082054,,109.1550411239732,109.17101993499092,109.66352329496294,,,,,,,,,,,,,,,,,,,,,,,,,,,,,,sub-103,1,random_dot,60.740561193700245,
right,right,16.0,0.0,8.0,right,1.0,1.3001311960397288,,,,,,8.0,0.0,16.0,1.0,,,,,,,,,109.68049767898628,,,,,,,,,109.66387323499656,109.76209124096204,110.5711983469664,110.55481769394828,110.555200695002,110.5711983469664,110.5711983469664,110.5711983469664,,111.8722151319962,right,1.0,1.3001311960397288,,111.87230050994548,111.88812418997986,112.37170267797774,112.38820494397078,,,,,,,,,,,,,,,,,,,,,,,,,,,,,sub-103,1,random_dot,60.740561193700245,
left,left,17.0,1.0,8.0,left,1.0,1.055679693992715,,,,,,8.0,1.0,17.0,0.0,,,,,,,,,112.38820494397078,,,,,,,,,112.37203054694692,112.47152414097218,113.28779674798716,113.26486144697992,113.26524228899508,113.28779674798716,113.28779674798716,113.28779674798716,,114.35585699096556,left,1.0,1.055679693992715,,114.35594592394771,114.37198878696654,114.8553973659873,114.8719206219539,,,,,,,,,,,,,,,,,,,,,,,,,,,,,sub-103,1,random_dot,60.740561193700245,
right,right,18.0,0.0,9.0,right,1.0,1.129046714049764,,,,,,9.0,0.0,18.0,1.0,,,,,,,,,114.8719206219539,,,,,,,,,114.85572646395303,116.05536877998384,116.85587254195708,116.83922790695216,116.83960745600052,116.85587254195708,116.85587254195708,116.85587254195708,,117.98970772698522,right,1.0,1.129046714049764,,117.98981361195912,118.00563313695602,118.48944011097774,118.505969773978,,,,,,,,,,,,,,,,,,,,,,,,,,,,,sub-103,1,random_dot,60.740561193700245,
left,left,19.0,1.0,9.0,left,1.0,1.3880511019960975,,,,,,9.0,1.0,19.0,0.0,,,,,,,,,118.505969773978,,,,,,,,,118.48977279500104,119.69637535995572,120.50622057897272,120.49009326298255,120.49047498300206,120.50622057897272,120.50622057897272,120.50622057897272,,121.90731666295324,left,1.0,1.3880511019960975,,121.90740705898496,121.92320518597262,122.40688524098368,122.42332967696711,,,,,,,,,,,,,,,,,,,,,,,,,,,,,sub-103,1,random_dot,60.740561193700245,
,,,,,,,,,,,,,,,,,,,,,,,,,,,,,,,,,,,,,,,,,,,,,,,,,,,,122.40701761498347,122.42332967696711,122.42332967696711,124.73329299897888,space,2.294823324016761,,,,,,,,,,,,,,,,,,,,,,,sub-103,1,random_dot,60.740561193700245,
,,,,,,,,,,,,,,,,,,,,,,,,,,,,,,,,,,,,,,,,,,,,,,,,,,,,,,,,,,,124.73337877099402,124.7518100820016,124.7518100820016,141.5269605880021,space,16.76259828795446,,,,,,,,,,,,,,,,sub-103,1,random_dot,60.740561193700245,
left,left,0.0,0.0,0.0,left,1.0,0.7606836699997075,,speed,space,5.580540779046714,,,,,,0.0,0.0,0.0,1.0,0.0,0.0,0.0,0.0,147.16084166697692,,,,,,,,,147.14948323200224,147.24425187997986,148.04432613699464,148.0279950289987,148.02839189599035,148.04432613699464,148.04432613699464,148.04432613699464,,148.81176265794784,,,,,,,,,,,,,,,,,,,,,,,141.54358854296152,141.55257904098835,141.55257904098835,147.14460690697888,space,5.580540779046714,,left,1.0,0.7606836699997075,,,,,sub-103,1,random_dot,60.740561193700245,
right,right,1.0,1.0,0.0,right,1.0,0.6568170649698004,,speed,space,5.580540779046714,,,,,,0.0,0.0,0.0,1.0,0.0,1.0,1.0,1.0,148.8280683089979,,,,,,,,,148.81208431796404,150.02001132298028,150.82827570097288,150.81182658299804,150.8122078430024,150.82827570097288,150.82827570097288,150.82827570097288,,151.49550974695012,,,,,,,,,,,,,,,,,,,,,,,,,,,,,,right,1.0,0.6568170649698004,,,,,sub-103,1,random_dot,60.740561193700245,
left,left,2.0,0.0,1.0,left,1.0,0.7507865470252,,speed,space,5.580540779046714,,,,,,0.0,0.0,0.0,1.0,1.0,0.0,2.0,0.0,151.5115833739983,,,,,,,,,151.4958274819655,152.69515399297234,153.51034744200297,153.4883541489835,153.48874044098193,153.51034744200297,153.51034744200297,153.51034744200297,,154.26263673097128,,,,,,,,,,,,,,,,,,,,,,,,,,,,,,left,1.0,0.7507865470252,,,,,sub-103,1,random_dot,60.740561193700245,
right,right,3.0,1.0,1.0,right,1.0,1.150929838011507,,speed,space,5.580540779046714,,,,,,0.0,0.0,0.0,1.0,1.0,1.0,3.0,1.0,154.2786959069781,,,,,,,,,154.2629247949808,155.46217287395848,156.26207408396294,156.24567129998468,156.24607830995228,156.26207408396294,156.26207408396294,156.26207408396294,,157.43032780097565,,,,,,,,,,,,,,,,,,,,,,,,,,,,,,right,1.0,1.150929838011507,,,,,sub-103,1,random_dot,60.740561193700245,
right,right,4.0,0.0,2.0,left,0.0,1.378559538978152,,speed,space,5.580540779046714,,,,,,0.0,0.0,0.0,1.0,2.0,0.0,4.0,1.0,157.4455984379747,,,,,,,,,157.4307500179857,157.79572880099295,158.60243705200264,158.58933522598818,158.58973907196196,158.60243705200264,158.60243705200264,158.60243705200264,,159.985067504982,,,,,,,,,,,,,,,,,,,,,,,,,,,,,,left,0.0,1.378559538978152,,,,,sub-103,1,random_dot,60.740561193700245,
left,left,5.0,1.0,2.0,left,1.0,1.065310811973177,,speed,space,5.580540779046714,,,,,,0.0,0.0,0.0,1.0,2.0,1.0,5.0,0.0,159.9992475019535,,,,,,,,,159.98539081495255,160.79644434596412,161.61169146298198,161.5897593049449,161.5901419489528,161.61169146298198,161.61169146298198,161.61169146298198,,162.68067200196674,,,,,,,,,,,,,,,,,,,,,,,,,,,,,,left,1.0,1.065310811973177,,,,,sub-103,1,random_dot,60.740561193700245,
left,left,6.0,0.0,3.0,right,0.0,0.8766110999858938,,speed,space,5.580540779046714,,,,,,0.0,0.0,0.0,1.0,3.0,0.0,6.0,0.0,162.6967696059728,,,,,,,,,162.6809884919785,163.8803681129939,164.68047856597695,164.66416288999608,164.66456489398843,164.68047856597695,164.68047856597695,164.68047856597695,,165.5641184829874,,,,,,,,,,,,,,,,,,,,,,,,,,,,,,right,0.0,0.8766110999858938,,,,,sub-103,1,random_dot,60.740561193700245,
right,right,7.0,1.0,3.0,right,1.0,1.5835195549880154,,speed,space,5.580540779046714,,,,,,0.0,0.0,0.0,1.0,3.0,1.0,7.0,1.0,165.5806923409691,,,,,,,,,165.56443873699754,165.6639261029777,166.46961753698997,166.44769350398565,166.4480792489485,166.46961753698997,166.46961753698997,166.46961753698997,,168.05606357299257,,,,,,,,,,,,,,,,,,,,,,,,,,,,,,right,1.0,1.5835195549880154,,,,,sub-103,1,random_dot,60.740561193700245,
right,right,8.0,0.0,4.0,right,1.0,1.3644253090023994,,speed,space,5.580540779046714,,,,,,0.0,0.0,0.0,1.0,4.0,0.0,8.0,1.0,168.06751610594802,,,,,,,,,168.0563772879541,169.2647116969456,170.0646835519583,170.04835252999328,170.04873293696437,170.0646835519583,170.0646835519583,170.0646835519583,,171.43224983499385,,,,,,,,,,,,,,,,,,,,,,,,,,,,,,right,1.0,1.3644253090023994,,,,,sub-103,1,random_dot,60.740561193700245,
left,left,9.0,1.0,4.0,left,1.0,1.3213995749829337,,speed,space,5.580540779046714,,,,,,0.0,0.0,0.0,1.0,4.0,1.0,9.0,0.0,171.4480841239565,,,,,,,,,171.43253657897003,171.53157586196903,172.33177766797598,172.31534431799082,172.31573102099355,172.33177766797598,172.33177766797598,172.33177766797598,,173.66628550196765,,,,,,,,,,,,,,,,,,,,,,,,,,,,,,left,1.0,1.3213995749829337,,,,,sub-103,1,random_dot,60.740561193700245,
left,left,10.0,0.0,5.0,left,1.0,1.591806454001926,,speed,space,5.580540779046714,,,,,,0.0,0.0,0.0,1.0,5.0,0.0,10.0,0.0,173.68183907598723,,,,,,,,,173.66670873895055,174.8655872969539,175.66597267094767,175.64936535496963,175.64975236495957,175.66597267094767,175.66597267094767,175.66597267094767,,177.26636901695747,,,,,,,,,,,,,,,,,,,,,,,,,,,,,,left,1.0,1.591806454001926,,,,,sub-103,1,random_dot,60.740561193700245,
right,right,11.0,1.0,5.0,right,1.0,0.937735296029132,,speed,space,5.580540779046714,,,,,,0.0,0.0,0.0,1.0,5.0,1.0,11.0,1.0,177.28260406496702,,,,,,,,,177.26668700599112,177.61597870197147,178.41607883299002,178.39965978998225,178.40004249999765,178.41607883299002,178.41607883299002,178.41607883299002,,179.36694216699107,,,,,,,,,,,,,,,,,,,,,,,,,,,,,,right,1.0,0.937735296029132,,,,,sub-103,1,random_dot,60.740561193700245,
right,right,12.0,0.0,6.0,right,1.0,1.3546773560228758,,speed,space,5.580540779046714,,,,,,0.0,0.0,0.0,1.0,6.0,0.0,12.0,1.0,179.38248744799057,,,,,,,,,179.36725035199197,180.1738288999768,180.98309291299665,180.9666921039461,180.96720835595625,180.98309291299665,180.98309291299665,180.98309291299665,,182.350892782968,,,,,,,,,,,,,,,,,,,,,,,,,,,,,,right,1.0,1.3546773560228758,,,,,sub-103,1,random_dot,60.740561193700245,
left,left,13.0,1.0,6.0,left,1.0,1.4243784109712578,,speed,space,5.580540779046714,,,,,,0.0,0.0,0.0,1.0,6.0,1.0,13.0,0.0,182.36688716197384,,,,,,,,,182.35120621399253,182.4500020739506,183.26539995899657,183.2434412679868,183.24384011497023,183.26539995899657,183.26539995899657,183.26539995899657,,184.70073674694868,,,,,,,,,,,,,,,,,,,,,,,,,,,,,,left,1.0,1.4243784109712578,,,,,sub-103,1,random_dot,60.740561193700245,
left,left,14.0,0.0,7.0,left,1.0,1.284901542996522,,speed,space,5.580540779046714,,,,,,0.0,0.0,0.0,1.0,7.0,0.0,14.0,0.0,184.7171233879635,,,,,,,,,184.70106815500185,185.5006246349658,186.30077120795613,186.284362537961,186.28474939998705,186.30077120795613,186.30077120795613,186.30077120795613,,187.60215759195853,,,,,,,,,,,,,,,,,,,,,,,,,,,,,,left,1.0,1.284901542996522,,,,,sub-103,1,random_dot,60.740561193700245,
right,right,15.0,1.0,7.0,left,0.0,1.0643749560113065,,speed,space,5.580540779046714,,,,,,0.0,0.0,0.0,1.0,7.0,1.0,15.0,1.0,187.6174724259763,,,,,,,,,187.6026065289625,188.80129718297397,189.60139729699583,189.5851024059812,189.58550299494527,189.60139729699583,189.60139729699583,189.60139729699583,,190.668574471958,,,,,,,,,,,,,,,,,,,,,,,,,,,,,,left,0.0,1.0643749560113065,,,,,sub-103,1,random_dot,60.740561193700245,
left,left,16.0,0.0,8.0,left,1.0,0.848289017973002,,speed,space,5.580540779046714,,,,,,0.0,0.0,0.0,1.0,8.0,0.0,16.0,0.0,190.6849715669523,,,,,,,,,190.66886378795607,191.0181900389725,191.83351926098112,191.8115686949459,191.81195313099303,191.83351926098112,191.83351926098112,191.83351926098112,,192.68579088896516,,,,,,,,,,,,,,,,,,,,,,,,,,,,,,left,1.0,0.848289017973002,,,,,sub-103,1,random_dot,60.740561193700245,
right,right,17.0,1.0,8.0,left,0.0,1.1501996539882384,,speed,space,5.580540779046714,,,,,,0.0,0.0,0.0,1.0,8.0,1.0,17.0,1.0,192.7018048829632,,,,,,,,,192.68610947398705,193.0352901189472,193.83543208095944,193.8189974440029,193.8193787779892,193.83543208095944,193.83543208095944,193.83543208095944,,195.00233394297535,,,,,,,,,,,,,,,,,,,,,,,,,,,,,,left,0.0,1.1501996539882384,,,,,sub-103,1,random_dot,60.740561193700245,
right,right,18.0,0.0,9.0,left,0.0,1.1830234050285071,,speed,space,5.580540779046714,,,,,,0.0,0.0,0.0,1.0,9.0,0.0,18.0,1.0,195.01831366994884,,,,,,,,,195.00258487695828,195.8024984819931,196.6028245709604,196.5862645599991,196.5866498579853,196.6028245709604,196.6028245709604,196.6028245709604,,197.78679958195423,,,,,,,,,,,,,,,,,,,,,,,,,,,,,,left,0.0,1.1830234050285071,,,,,sub-103,1,random_dot,60.740561193700245,
left,left,19.0,1.0,9.0,left,1.0,1.419496917980723,,speed,space,5.580540779046714,,,,,,0.0,0.0,0.0,1.0,9.0,1.0,19.0,0.0,197.8027872769744,,,,,,,,,197.7870905979653,197.8859835739713,198.68629533797505,198.66992857097648,198.6703124519554,198.68629533797505,198.68629533797505,198.68629533797505,,200.1210642719525,,,,,,,,,,,,,,,,,,,,,,,,,,,,,,left,1.0,1.419496917980723,,,,,sub-103,1,random_dot,60.740561193700245,
right,right,20.0,0.0,10.0,right,1.0,1.74261422699783,,speed,space,5.580540779046714,,,,,,0.0,0.0,0.0,1.0,10.0,0.0,20.0,1.0,200.13645856594667,,,,,,,,,200.1214896979509,201.33676695096077,202.1368204379687,202.1203685869696,202.12075296696275,202.1368204379687,202.1368204379687,202.1368204379687,,203.88741823995952,,,,,,,,,,,,,,,,,,,,,,,,,,,,,,right,1.0,1.74261422699783,,,,,sub-103,1,random_dot,60.740561193700245,
left,left,21.0,1.0,10.0,left,1.0,1.1419277139939368,,speed,space,5.580540779046714,,,,,,0.0,0.0,0.0,1.0,10.0,1.0,21.0,0.0,203.9038446779596,,,,,,,,,203.8877293789992,203.9871768169687,204.80148613394704,204.77767187694556,204.77805886097485,204.80148613394704,204.80148613394704,204.80148613394704,,205.9544128919952,,,,,,,,,,,,,,,,,,,,,,,,,,,,,,left,1.0,1.1419277139939368,,,,,sub-103,1,random_dot,60.740561193700245,
left,left,22.0,0.0,11.0,left,1.0,4.866050306998659,,speed,space,5.580540779046714,,,,,,0.0,0.0,0.0,1.0,11.0,0.0,22.0,0.0,205.97071679699,,,,,,,,,205.95473123999545,206.30400864599503,207.10439424496144,207.08796519396128,207.08834960998504,207.10439424496144,207.10439424496144,207.10439424496144,,211.97800659696804,,,,,,,,,,,,,,,,,,,,,,,,,,,,,,left,1.0,4.866050306998659,,,,,sub-103,1,random_dot,60.740561193700245,
right,right,23.0,1.0,11.0,right,1.0,3.055545691982843,,speed,space,5.580540779046714,,,,,,0.0,0.0,0.0,1.0,11.0,1.0,23.0,1.0,211.98851005296456,,,,,,,,,211.97833346994597,212.3386077179457,213.1387104469468,213.12223839299983,213.12262160994575,213.1387104469468,213.1387104469468,213.1387104469468,,216.2061379309744,,,,,,,,,,,,,,,,,,,,,,,,,,,,,,right,1.0,3.055545691982843,,,,,sub-103,1,random_dot,60.740561193700245,
right,right,24.0,0.0,12.0,right,1.0,1.904282546020113,,speed,space,5.580540779046714,,,,,,0.0,0.0,0.0,1.0,12.0,0.0,24.0,1.0,216.22209094796565,,,,,,,,,216.20646440598648,216.3077504519606,217.12215048796497,217.1056507509784,217.10602785594529,217.12215048796497,217.12215048796497,217.12215048796497,,219.04086988494964,,,,,,,,,,,,,,,,,,,,,,,,,,,,,,right,1.0,1.904282546020113,,,,,sub-103,1,random_dot,60.740561193700245,
left,left,25.0,1.0,12.0,left,1.0,0.6540074669755995,,speed,space,5.580540779046714,,,,,,0.0,0.0,0.0,1.0,12.0,1.0,25.0,0.0,219.05637752998155,,,,,,,,,219.04129571898372,219.1563244879944,219.98029535997196,219.95832360099303,219.95870783797,219.98029535997196,219.98029535997196,219.98029535997196,,220.64063782198355,,,,,,,,,,,,,,,,,,,,,,,,,,,,,,left,1.0,0.6540074669755995,,,,,sub-103,1,random_dot,60.740561193700245,
right,right,26.0,0.0,13.0,right,1.0,1.5932466630474664,,speed,space,5.580540779046714,,,,,,0.0,0.0,0.0,1.0,13.0,0.0,26.0,1.0,220.65662376600085,,,,,,,,,220.6409509659861,221.44726795895255,222.2569963109563,222.2404277099995,222.24080843495904,222.2569963109563,222.2569963109563,222.2569963109563,,223.85740510799224,,,,,,,,,,,,,,,,,,,,,,,,,,,,,,right,1.0,1.5932466630474664,,,,,sub-103,1,random_dot,60.740561193700245,
left,left,27.0,1.0,13.0,left,1.0,1.3240792049909942,,speed,space,5.580540779046714,,,,,,0.0,0.0,0.0,1.0,13.0,1.0,27.0,0.0,223.87370233098045,,,,,,,,,223.85771683295025,224.20708130399,225.0223400149844,225.0004310849472,225.000817292952,225.0223400149844,225.0223400149844,225.0223400149844,,226.3583031979506,,,,,,,,,,,,,,,,,,,,,,,,,,,,,,left,1.0,1.3240792049909942,,,,,sub-103,1,random_dot,60.740561193700245,
left,left,28.0,0.0,14.0,left,1.0,0.2925443060230464,,speed,space,5.580540779046714,,,,,,0.0,0.0,0.0,1.0,14.0,0.0,28.0,0.0,226.37879821297247,,,,,,,,,226.358633566997,227.55774368997663,228.3578038609703,228.34176759095865,228.34215147595387,228.3578038609703,228.3578038609703,228.3578038609703,,228.65830826800084,,,,,,,,,,,,,,,,,,,,,,,,,,,,,,left,1.0,0.2925443060230464,,,,,sub-103,1,random_dot,60.740561193700245,
right,right,29.0,1.0,14.0,right,1.0,0.9359758860082366,,speed,space,5.580540779046714,,,,,,0.0,0.0,0.0,1.0,14.0,1.0,29.0,1.0,228.6746610389673,,,,,,,,,228.65861792996293,229.85815961298067,230.658360085974,230.6418391459738,230.64222251297903,230.658360085974,230.658360085974,230.658360085974,,231.6008546129451,,,,,,,,,,,,,,,,,,,,,,,,,,,,,,right,1.0,0.9359758860082366,,,,,sub-103,1,random_dot,60.740561193700245,
right,right,30.0,0.0,15.0,right,1.0,1.1938920539687388,,speed,space,5.580540779046714,,,,,,0.0,0.0,0.0,1.0,15.0,0.0,30.0,1.0,231.61163328198015,,,,,,,,,231.60129990795397,232.40948972397015,233.2083914569812,233.19218860694676,233.1925660269917,233.2083914569812,233.2083914569812,233.2083914569812,,234.409484090982,,,,,,,,,,,,,,,,,,,,,,,,,,,,,,right,1.0,1.1938920539687388,,,,,sub-103,1,random_dot,60.740561193700245,
left,left,31.0,1.0,15.0,left,1.0,0.8212243730085902,,speed,space,5.580540779046714,,,,,,0.0,0.0,0.0,1.0,15.0,1.0,31.0,0.0,234.42590611695775,,,,,,,,,234.40979572595097,234.5090210219496,235.3091562949703,235.2927087189746,235.293092212989,235.3091562949703,235.3091562949703,235.3091562949703,,236.14352585596495,,,,,,,,,,,,,,,,,,,,,,,,,,,,,,left,1.0,0.8212243730085902,,,,,sub-103,1,random_dot,60.740561193700245,
right,right,32.0,0.0,16.0,right,1.0,0.8027685460401699,,speed,space,5.580540779046714,,,,,,0.0,0.0,0.0,1.0,16.0,0.0,32.0,1.0,236.1592096829554,,,,,,,,,236.14395457599312,237.35938509495463,238.15954849799164,238.14310241799103,238.1434832639643,238.15954849799164,238.15954849799164,238.15954849799164,,238.9776302929968,,,,,,,,,,,,,,,,,,,,,,,,,,,,,,right,1.0,0.8027685460401699,,,,,sub-103,1,random_dot,60.740561193700245,
left,left,33.0,1.0,16.0,left,1.0,0.7856441210024059,,speed,space,5.580540779046714,,,,,,0.0,0.0,0.0,1.0,16.0,1.0,33.0,0.0,238.99324750696545,,,,,,,,,238.9780559119536,240.1768851399538,240.97664547595195,240.9601470909547,240.96044563798927,240.97664547595195,240.97664547595195,240.97664547595195,,241.77806745498677,,,,,,,,,,,,,,,,,,,,,,,,,,,,,,left,1.0,0.7856441210024059,,,,,sub-103,1,random_dot,60.740561193700245,
left,left,34.0,0.0,17.0,left,1.0,0.9648038519662804,,speed,space,5.580540779046714,,,,,,0.0,0.0,0.0,1.0,17.0,0.0,34.0,0.0,241.793507618946,,,,,,,,,241.77849399595289,241.89351086399984,242.6935832989984,242.6771599839558,242.677544000966,242.6935832989984,242.6935832989984,242.6935832989984,,243.6713809199864,,,,,,,,,,,,,,,,,,,,,,,,,,,,,,left,1.0,0.9648038519662804,,,,,sub-103,1,random_dot,60.740561193700245,
right,right,35.0,1.0,17.0,left,0.0,1.175228190026246,,speed,space,5.580540779046714,,,,,,0.0,0.0,0.0,1.0,17.0,1.0,35.0,1.0,243.68466807395453,,,,,,,,,243.671827861981,244.0270018149749,244.82720173499547,244.81081550795352,244.8111972429906,244.82720173499547,244.82720173499547,244.82720173499547,,246.01139812800105,,,,,,,,,,,,,,,,,,,,,,,,,,,,,,left,0.0,1.175228190026246,,,,,sub-103,1,random_dot,60.740561193700245,
right,right,36.0,0.0,18.0,left,0.0,1.1033649860182777,,speed,space,5.580540779046714,,,,,,0.0,0.0,0.0,1.0,18.0,0.0,36.0,1.0,246.0274954009801,,,,,,,,,246.01171424100173,247.21085237897933,248.0110427399632,247.99463241896592,247.9950137619744,248.0110427399632,248.0110427399632,248.0110427399632,,249.12880619696807,,,,,,,,,,,,,,,,,,,,,,,,,,,,,,left,0.0,1.1033649860182777,,,,,sub-103,1,random_dot,60.740561193700245,
left,left,37.0,1.0,18.0,left,1.0,1.0178180420189165,,speed,space,5.580540779046714,,,,,,0.0,0.0,0.0,1.0,18.0,1.0,37.0,0.0,249.14499430096475,,,,,,,,,249.12912173295624,249.9282664629864,250.7284589409828,250.71168062998916,250.7121296719997,250.7284589409828,250.7284589409828,250.7284589409828,,251.7630136969965,,,,,,,,,,,,,,,,,,,,,,,,,,,,,,left,1.0,1.0178180420189165,,,,,sub-103,1,random_dot,60.740561193700245,
left,left,38.0,0.0,19.0,left,1.0,1.0016078250482678,,speed,space,5.580540779046714,,,,,,0.0,0.0,0.0,1.0,19.0,0.0,38.0,0.0,251.77856712095672,,,,,,,,,251.76344199798768,252.12869250494987,252.9286695239716,252.9122254809481,252.9126119989669,252.9286695239716,252.9286695239716,252.9286695239716,,253.94700210000155,,,,,,,,,,,,,,,,,,,,,,,,,,,,,,left,1.0,1.0016078250482678,,,,,sub-103,1,random_dot,60.740561193700245,
right,right,39.0,1.0,19.0,left,0.0,1.0878143709851429,,speed,space,5.580540779046714,,,,,,0.0,0.0,0.0,1.0,19.0,1.0,39.0,1.0,253.9625664280029,,,,,,,,,253.9474274349632,254.7625711079454,255.56254867499229,255.54629792197372,255.5466824399773,255.56254867499229,255.56254867499229,255.56254867499229,,256.66862087894697,,,,,,,,,,,,,,,,,,,,,,,,,,,,,,left,0.0,1.0878143709851429,,,,,sub-103,1,random_dot,60.740561193700245,
right,right,40.0,0.0,20.0,right,1.0,0.9543300090008416,,speed,space,5.580540779046714,,,,,,0.0,0.0,0.0,1.0,20.0,0.0,40.0,1.0,256.6872397149564,,,,,,,,,256.669046874973,257.8796966929804,258.6800703109475,258.66348523896886,258.66388552699937,258.6800703109475,258.6800703109475,258.6800703109475,,259.6406874419772,,,,,,,,,,,,,,,,,,,,,,,,,,,,,,right,1.0,0.9543300090008416,,,,,sub-103,1,random_dot,60.740561193700245,
left,left,41.0,1.0,20.0,left,1.0,1.0915454539936036,,speed,space,5.580540779046714,,,,,,0.0,0.0,0.0,1.0,20.0,1.0,41.0,0.0,259.6563684929861,,,,,,,,,259.6412382699782,260.4467177629704,261.2468664899934,261.2303433359484,261.23064418998547,261.2468664899934,261.2468664899934,261.2468664899934,,262.34762345295167,,,,,,,,,,,,,,,,,,,,,,,,,,,,,,left,1.0,1.0915454539936036,,,,,sub-103,1,random_dot,60.740561193700245,
right,right,42.0,0.0,21.0,right,1.0,1.0229274880257435,,speed,space,5.580540779046714,,,,,,0.0,0.0,0.0,1.0,21.0,0.0,42.0,1.0,262.3638359659817,,,,,,,,,262.3479515979998,263.5471996669657,264.3475331849768,264.3310379499453,264.3314193679835,264.3475331849768,264.3475331849768,264.3475331849768,,265.3813610399957,,,,,,,,,,,,,,,,,,,,,,,,,,,,,,right,1.0,1.0229274880257435,,,,,sub-103,1,random_dot,60.740561193700245,
left,left,43.0,1.0,21.0,left,1.0,1.8951040240353905,,speed,space,5.580540779046714,,,,,,0.0,0.0,0.0,1.0,21.0,1.0,43.0,0.0,265.3977706809528,,,,,,,,,265.3816721119801,265.7309262979543,266.531153688964,266.5149597209529,266.5153483869508,266.531153688964,266.531153688964,266.531153688964,,268.4321954489569,,,,,,,,,,,,,,,,,,,,,,,,,,,,,,left,1.0,1.8951040240353905,,,,,sub-103,1,random_dot,60.740561193700245,
left,left,44.0,0.0,22.0,left,1.0,1.116746487969067,,speed,space,5.580540779046714,,,,,,0.0,0.0,0.0,1.0,22.0,0.0,44.0,0.0,268.4480896189925,,,,,,,,,268.43251090997364,268.78140202199575,269.5816304169712,269.56529366597533,269.5656825259793,269.5816304169712,269.5816304169712,269.5816304169712,,270.6993589049671,,,,,,,,,,,,,,,,,,,,,,,,,,,,,,left,1.0,1.116746487969067,,,,,sub-103,1,random_dot,60.740561193700245,
right,right,45.0,1.0,22.0,right,1.0,0.9219385919859632,,speed,space,5.580540779046714,,,,,,0.0,0.0,0.0,1.0,22.0,1.0,45.0,1.0,270.7152026159456,,,,,,,,,270.69964827096555,271.064912051952,271.88047455297783,271.8585880890023,271.8589825259987,271.88047455297783,271.88047455297783,271.88047455297783,,272.81661377399,,,,,,,,,,,,,,,,,,,,,,,,,,,,,,right,1.0,0.9219385919859632,,,,,sub-103,1,random_dot,60.740561193700245,
right,right,46.0,0.0,23.0,right,1.0,1.051829860021826,,speed,space,5.580540779046714,,,,,,0.0,0.0,0.0,1.0,23.0,0.0,46.0,1.0,272.832231790002,,,,,,,,,272.8170389579609,273.1821657299879,273.9824449669686,273.9659825889976,273.9663667319692,273.9824449669686,273.9824449669686,273.9824449669686,,275.05045739898924,,,,,,,,,,,,,,,,,,,,,,,,,,,,,,right,1.0,1.051829860021826,,,,,sub-103,1,random_dot,60.740561193700245,
left,left,47.0,1.0,23.0,left,1.0,0.8801499439869076,,speed,space,5.580540779046714,,,,,,0.0,0.0,0.0,1.0,23.0,1.0,47.0,0.0,275.0658421719563,,,,,,,,,275.05088418896776,276.26610966195585,277.0661383679835,277.0498622789746,277.0502693869639,277.0661383679835,277.0661383679835,277.0661383679835,,277.95018636097666,,,,,,,,,,,,,,,,,,,,,,,,,,,,,,left,1.0,0.8801499439869076,,,,,sub-103,1,random_dot,60.740561193700245,
right,right,48.0,0.0,24.0,right,1.0,0.8476924899732694,,speed,space,5.580540779046714,,,,,,0.0,0.0,0.0,1.0,24.0,0.0,48.0,1.0,277.96634669596097,,,,,,,,,277.9504947819514,279.14976137696067,279.9545819199993,279.9403222689871,279.9407065229607,279.9545819199993,279.9545819199993,279.9545819199993,,280.81801491597435,,,,,,,,,,,,,,,,,,,,,,,,,,,,,,right,1.0,0.8476924899732694,,,,,sub-103,1,random_dot,60.740561193700245,
left,left,49.0,1.0,24.0,left,1.0,0.7606659399461932,,speed,space,5.580540779046714,,,,,,0.0,0.0,0.0,1.0,24.0,1.0,49.0,0.0,280.83346370694926,,,,,,,,,280.81845621299,281.63347112195333,282.4336500389618,282.41732674097875,282.4177138469531,282.4336500389618,282.4336500389618,282.4336500389618,,283.201532240957,,,,,,,,,,,,,,,,,,,,,,,,,,,,,,left,1.0,0.7606659399461932,,,,,sub-103,1,random_dot,60.740561193700245,
left,left,50.0,0.0,25.0,left,1.0,0.8347433899762109,,speed,space,5.580540779046714,,,,,,0.0,0.0,0.0,1.0,25.0,0.0,50.0,0.0,283.2173913239967,,,,,,,,,283.2018425369752,283.567191582988,284.3675338719622,284.3509627809981,284.3512617419474,284.3675338719622,284.3675338719622,284.3675338719622,,285.2187016499811,,,,,,,,,,,,,,,,,,,,,,,,,,,,,,left,1.0,0.8347433899762109,,,,,sub-103,1,random_dot,60.740561193700245,
right,right,51.0,1.0,25.0,right,1.0,0.8113467390066944,,speed,space,5.580540779046714,,,,,,0.0,0.0,0.0,1.0,25.0,1.0,51.0,1.0,285.2343042839784,,,,,,,,,285.21914171695244,285.58436607499607,286.39908404200105,286.37608301395085,286.3764646149939,286.39908404200105,286.39908404200105,286.39908404200105,,287.21825760399224,,,,,,,,,,,,,,,,,,,,,,,,,,,,,,right,1.0,0.8113467390066944,,,,,sub-103,1,random_dot,60.740561193700245,
right,right,52.0,0.0,26.0,right,1.0,1.1566389410290867,,speed,space,5.580540779046714,,,,,,0.0,0.0,0.0,1.0,26.0,0.0,52.0,1.0,287.2346803229884,,,,,,,,,287.21856582094915,287.568054896954,288.3817773629562,288.3585892379633,288.35897352796746,288.3817773629562,288.3817773629562,288.3817773629562,,289.5529214149574,,,,,,,,,,,,,,,,,,,,,,,,,,,,,,right,1.0,1.1566389410290867,,,,,sub-103,1,random_dot,60.740561193700245,
left,left,53.0,1.0,26.0,left,1.0,0.7455941449734382,,speed,space,5.580540779046714,,,,,,0.0,0.0,0.0,1.0,26.0,1.0,53.0,0.0,289.5684543719981,,,,,,,,,289.5533406889881,290.368516861985,291.1686768109794,291.15228312299587,291.15266682294896,291.1686768109794,291.1686768109794,291.1686768109794,,291.91984331194544,,,,,,,,,,,,,,,,,,,,,,,,,,,,,,left,1.0,0.7455941449734382,,,,,sub-103,1,random_dot,60.740561193700245,
right,right,54.0,0.0,27.0,right,1.0,1.2191864720080048,,speed,space,5.580540779046714,,,,,,0.0,0.0,0.0,1.0,27.0,0.0,54.0,1.0,291.9357242239639,,,,,,,,,291.92015559994616,292.719017239986,293.5192220649915,293.5027503139572,293.5031330859638,293.5192220649915,293.5192220649915,293.5192220649915,,294.7536055169767,,,,,,,,,,,,,,,,,,,,,,,,,,,,,,right,1.0,1.2191864720080048,,,,,sub-103,1,random_dot,60.740561193700245,
left,left,55.0,1.0,27.0,left,1.0,0.9421367349568754,,speed,space,5.580540779046714,,,,,,0.0,0.0,0.0,1.0,27.0,1.0,55.0,0.0,294.7692245579674,,,,,,,,,294.7540240410017,295.5693123029778,296.3721376119647,296.35301599500235,296.3534007239505,296.3721376119647,296.3721376119647,296.3721376119647,,297.3204385470017,,,,,,,,,,,,,,,,,,,,,,,,,,,,,,left,1.0,0.9421367349568754,,,,,sub-103,1,random_dot,60.740561193700245,
left,left,56.0,0.0,28.0,left,1.0,2.278415083012078,,speed,space,5.580540779046714,,,,,,0.0,0.0,0.0,1.0,28.0,0.0,56.0,0.0,297.3365141289541,,,,,,,,,297.32075533497846,297.41992786800256,298.2198291919776,298.20332552399486,298.20370996696874,298.2198291919776,298.2198291919776,298.2198291919776,,300.5044698579586,,,,,,,,,,,,,,,,,,,,,,,,,,,,,,left,1.0,2.278415083012078,,,,,sub-103,1,random_dot,60.740561193700245,
right,right,57.0,1.0,28.0,right,1.0,0.8526216500322334,,speed,space,5.580540779046714,,,,,,0.0,0.0,0.0,1.0,28.0,1.0,57.0,1.0,300.52030176698463,,,,,,,,,300.5047808739473,300.8536589629948,301.65369850595016,301.6373473139829,301.6377255949774,301.65369850595016,301.65369850595016,301.65369850595016,,302.52164080098737,,,,,,,,,,,,,,,,,,,,,,,,,,,,,,right,1.0,0.8526216500322334,,,,,sub-103,1,random_dot,60.740561193700245,
left,left,58.0,0.0,29.0,left,1.0,3.8784214080078527,,speed,space,5.580540779046714,,,,,,0.0,0.0,0.0,1.0,29.0,0.0,58.0,0.0,302.53725362196565,,,,,,,,,302.52206552395364,302.63730680797016,303.4373564629932,303.4209589889506,303.4213443509652,303.4373564629932,303.4373564629932,303.4373564629932,,307.32212084997445,,,,,,,,,,,,,,,,,,,,,,,,,,,,,,left,1.0,3.8784214080078527,,,,,sub-103,1,random_dot,60.740561193700245,
right,right,59.0,1.0,29.0,right,1.0,0.860205457021948,,speed,space,5.580540779046714,,,,,,0.0,0.0,0.0,1.0,29.0,1.0,59.0,1.0,307.33793814497767,,,,,,,,,307.32243281498086,307.67142322898144,308.47161375696305,308.4550622159732,308.4554446489783,308.47161375696305,308.47161375696305,308.47161375696305,,309.33890650299145,,,,,,,,,,,,,,,,,,,,,,,,,,,,,,right,1.0,0.860205457021948,,,,,sub-103,1,random_dot,60.740561193700245,
,,0.0,0.0,0.0,,,,,speed,space,5.580540779046714,,,,,,0.0,0.0,0.0,1.0,,,,,,,,,,,,,,,,,,,,,,,,,,,,,,,,,,,,,,,,,,,,,,,,,,,,,,,,,,,,sub-103,1,random_dot,60.740561193700245,
right,right,0.0,0.0,0.0,right,1.0,2.8690360150067136,,accuracy,space,2.4306863370002247,,,,,,0.0,1.0,1.0,0.0,0.0,0.0,0.0,1.0,311.80535941995913,,,,,,,,,311.79395368596306,312.1390252739657,312.9389497759985,312.92267096199794,312.92305587697774,312.9389497759985,312.9389497759985,312.9389497759985,,315.8240752799902,,,,,,,,,,,,,,,,,,,,,,,309.3490634429618,309.35720471298555,309.35720471298555,311.7894928960013,space,2.4306863370002247,,right,1.0,2.8690360150067136,,,,,sub-103,1,random_dot,60.740561193700245,
left,left,1.0,1.0,0.0,left,1.0,1.982094477978535,,accuracy,space,2.4306863370002247,,,,,,0.0,1.0,1.0,0.0,0.0,1.0,1.0,0.0,315.8395507139503,,,,,,,,,315.82450429495657,316.6395364899654,317.43980527995154,317.4233931929921,317.4237767729792,317.43980527995154,317.43980527995154,317.43980527995154,,319.4239858899964,,,,,,,,,,,,,,,,,,,,,,,,,,,,,,left,1.0,1.982094477978535,,,,,sub-103,1,random_dot,60.740561193700245,
left,left,2.0,0.0,1.0,right,0.0,6.694458351004869,,accuracy,space,2.4306863370002247,,,,,,0.0,1.0,1.0,0.0,1.0,0.0,2.0,0.0,319.44010597094893,,,,,,,,,319.4243094319827,320.62355810398003,321.4238312089583,321.40740645397455,321.4077912529465,321.4238312089583,321.4238312089583,321.4238312089583,326.40799933997914,328.1352079740027,,,,,,,,,,,,,,,,,,,,,,,,,,,,,,right,0.0,6.694458351004869,,,,,sub-103,1,random_dot,60.740561193700245,
right,right,3.0,1.0,1.0,right,1.0,2.018562322948128,,accuracy,space,2.4306863370002247,,,,,,0.0,1.0,1.0,0.0,1.0,1.0,3.0,1.0,328.151501033979,,,,,,,,,328.1356368259876,328.4916224709596,329.2918520689709,329.27541949995793,329.2758017349988,329.2918520689709,329.2918520689709,329.2918520689709,,331.31966359500075,,,,,,,,,,,,,,,,,,,,,,,,,,,,,,right,1.0,2.018562322948128,,,,,sub-103,1,random_dot,60.740561193700245,
left,left,4.0,0.0,2.0,right,0.0,1.2627775089931674,,accuracy,space,2.4306863370002247,,,,,,0.0,1.0,1.0,0.0,2.0,0.0,4.0,0.0,331.3286959299585,,,,,,,,,331.3202225219575,332.52564025996253,333.33565205999184,333.316167456971,333.31655400496675,333.33565205999184,333.33565205999184,333.33565205999184,,334.60995830700267,,,,,,,,,,,,,,,,,,,,,,,,,,,,,,right,0.0,1.2627775089931674,,,,,sub-103,1,random_dot,60.740561193700245,
right,right,5.0,1.0,2.0,right,1.0,1.1907332080299966,,accuracy,space,2.4306863370002247,,,,,,0.0,1.0,1.0,0.0,2.0,1.0,5.0,1.0,334.6260025569936,,,,,,,,,334.6102708019898,334.9593508569524,335.7595517229638,335.74310807697475,335.7434903079993,335.7595517229638,335.7595517229638,335.7595517229638,,336.96000171196647,,,,,,,,,,,,,,,,,,,,,,,,,,,,,,right,1.0,1.1907332080299966,,,,,sub-103,1,random_dot,60.740561193700245,
right,right,6.0,0.0,3.0,right,1.0,2.48592980299145,,accuracy,space,2.4306863370002247,,,,,,0.0,1.0,1.0,0.0,3.0,0.0,6.0,1.0,336.97593658196274,,,,,,,,,336.9603350779508,337.30928109399974,338.1101005389937,338.09364783595083,338.0940292229643,338.1101005389937,338.1101005389937,338.1101005389937,,340.6111581399455,,,,,,,,,,,,,,,,,,,,,,,,,,,,,,right,1.0,2.48592980299145,,,,,sub-103,1,random_dot,60.740561193700245,
left,left,7.0,1.0,3.0,left,1.0,1.1853328930446878,,accuracy,space,2.4306863370002247,,,,,,0.0,1.0,1.0,0.0,3.0,1.0,7.0,0.0,340.6269757329719,,,,,,,,,340.6114714589785,341.8107321289717,342.61067521298537,342.5944387019845,342.5948239629506,342.61067521298537,342.61067521298537,342.61067521298537,,343.8119786679745,,,,,,,,,,,,,,,,,,,,,,,,,,,,,,left,1.0,1.1853328930446878,,,,,sub-103,1,random_dot,60.740561193700245,
left,left,8.0,0.0,4.0,left,1.0,1.8589267820352688,,accuracy,space,2.4306863370002247,,,,,,0.0,1.0,1.0,0.0,4.0,0.0,8.0,0.0,343.82749899098417,,,,,,,,,343.8124067259487,344.16108485800214,344.96121999796014,344.9446620819508,344.9450473839533,344.96121999796014,344.96121999796014,344.96121999796014,,346.828377806989,,,,,,,,,,,,,,,,,,,,,,,,,,,,,,left,1.0,1.8589267820352688,,,,,sub-103,1,random_dot,60.740561193700245,
right,right,9.0,1.0,4.0,left,0.0,1.5675395680009387,,accuracy,space,2.4306863370002247,,,,,,0.0,1.0,1.0,0.0,4.0,1.0,9.0,1.0,346.8448374059517,,,,,,,,,346.82869024097454,348.0282550349948,348.8284640919883,348.81212976097595,348.81251173699275,348.8284640919883,348.8284640919883,348.8284640919883,,350.4132443149574,,,,,,,,,,,,,,,,,,,,,,,,,,,,,,left,0.0,1.5675395680009387,,,,,sub-103,1,random_dot,60.740561193700245,
right,right,10.0,0.0,5.0,left,0.0,1.688636148988735,,accuracy,space,2.4306863370002247,,,,,,0.0,1.0,1.0,0.0,5.0,0.0,10.0,1.0,350.42873610998504,,,,,,,,,350.4136638089549,350.78434513096,351.5955218069721,351.57908426295035,351.5794680929976,351.5955218069721,351.5955218069721,351.5955218069721,,353.2967711809906,,,,,,,,,,,,,,,,,,,,,,,,,,,,,,left,0.0,1.688636148988735,,,,,sub-103,1,random_dot,60.740561193700245,
left,left,11.0,1.0,5.0,left,1.0,1.5071441800100729,,accuracy,space,2.4306863370002247,,,,,,0.0,1.0,1.0,0.0,5.0,1.0,11.0,0.0,353.31246951199137,,,,,,,,,353.2971923459554,354.4988580189529,355.3129490019637,355.29767369799083,355.29805445700185,355.3129490019637,355.3129490019637,355.3129490019637,,356.8300838290015,,,,,,,,,,,,,,,,,,,,,,,,,,,,,,left,1.0,1.5071441800100729,,,,,sub-103,1,random_dot,60.740561193700245,
left,left,12.0,0.0,6.0,right,0.0,2.9444471540045924,,accuracy,space,2.4306863370002247,,,,,,0.0,1.0,1.0,0.0,6.0,0.0,12.0,0.0,356.84648117399774,,,,,,,,,356.8303950049449,357.6299090029788,358.43011703394586,358.4136629709974,358.41404899099143,358.43011703394586,358.43011703394586,358.43011703394586,,361.3812713289517,,,,,,,,,,,,,,,,,,,,,,,,,,,,,,right,0.0,2.9444471540045924,,,,,sub-103,1,random_dot,60.740561193700245,
right,right,13.0,1.0,6.0,right,1.0,1.779779492993839,,accuracy,space,2.4306863370002247,,,,,,0.0,1.0,1.0,0.0,6.0,1.0,13.0,1.0,361.3971060919576,,,,,,,,,361.3816029009759,361.73066957696574,362.5308170789504,362.5143173499964,362.5147015109542,362.5308170789504,362.5308170789504,362.5308170789504,,364.31501620297786,,,,,,,,,,,,,,,,,,,,,,,,,,,,,,right,1.0,1.779779492993839,,,,,sub-103,1,random_dot,60.740561193700245,
right,right,14.0,0.0,7.0,right,1.0,1.7513187929871492,,accuracy,space,2.4306863370002247,,,,,,0.0,1.0,1.0,0.0,7.0,0.0,14.0,1.0,364.33108620898565,,,,,,,,,364.31532944296487,364.4209320989903,365.23124292795546,365.2148636819911,365.21524740895256,365.23124292795546,365.23124292795546,365.23124292795546,,366.99929075699765,,,,,,,,,,,,,,,,,,,,,,,,,,,,,,right,1.0,1.7513187929871492,,,,,sub-103,1,random_dot,60.740561193700245,
left,left,15.0,1.0,7.0,left,1.0,1.7935067340149544,,accuracy,space,2.4306863370002247,,,,,,0.0,1.0,1.0,0.0,7.0,1.0,15.0,0.0,367.0148278499837,,,,,,,,,366.9997146539972,367.36490149999736,368.1651244609966,368.148645025969,368.1490297769778,368.1651244609966,368.1651244609966,368.1651244609966,,369.9655597999808,,,,,,,,,,,,,,,,,,,,,,,,,,,,,,left,1.0,1.7935067340149544,,,,,sub-103,1,random_dot,60.740561193700245,
right,right,16.0,0.0,8.0,right,1.0,1.824757741007488,,accuracy,space,2.4306863370002247,,,,,,0.0,1.0,1.0,0.0,8.0,0.0,16.0,1.0,369.9819547639927,,,,,,,,,369.96587081300095,370.765402031946,371.5655741779483,371.5493707299465,371.5497503989609,371.5655741779483,371.5655741779483,371.5655741779483,,373.39955137495417,,,,,,,,,,,,,,,,,,,,,,,,,,,,,,right,1.0,1.824757741007488,,,,,sub-103,1,random_dot,60.740561193700245,
left,left,17.0,1.0,8.0,left,1.0,1.378925284021534,,accuracy,space,2.4306863370002247,,,,,,0.0,1.0,1.0,0.0,8.0,1.0,17.0,0.0,373.4158301759744,,,,,,,,,373.3998653869494,373.4993415899808,374.2992779069464,374.2829338539741,374.2833169209771,374.2992779069464,374.2992779069464,374.2992779069464,,375.6834898159723,,,,,,,,,,,,,,,,,,,,,,,,,,,,,,left,1.0,1.378925284021534,,,,,sub-103,1,random_dot,60.740561193700245,
right,right,18.0,0.0,9.0,left,0.0,2.784129300969653,,accuracy,space,2.4306863370002247,,,,,,0.0,1.0,1.0,0.0,9.0,0.0,18.0,1.0,375.6995343589806,,,,,,,,,375.6838095879648,375.7829893839662,376.5831156229833,376.5665724389837,376.5669571299805,376.5831156229833,376.5831156229833,376.5831156229833,,379.3848785369773,,,,,,,,,,,,,,,,,,,,,,,,,,,,,,left,0.0,2.784129300969653,,,,,sub-103,1,random_dot,60.740561193700245,
left,left,19.0,1.0,9.0,left,1.0,2.4307889029732905,,accuracy,space,2.4306863370002247,,,,,,0.0,1.0,1.0,0.0,9.0,1.0,19.0,0.0,379.4003381799557,,,,,,,,,379.3853041109978,380.2004992099828,381.0006188959815,380.9841339190025,380.98451843694784,381.0006188959815,381.0006188959815,381.0006188959815,,383.4349978799583,,,,,,,,,,,,,,,,,,,,,,,,,,,,,,left,1.0,2.4307889029732905,,,,,sub-103,1,random_dot,60.740561193700245,
right,right,20.0,0.0,10.0,right,1.0,2.260422575986013,,accuracy,space,2.4306863370002247,,,,,,0.0,1.0,1.0,0.0,10.0,0.0,20.0,1.0,383.45103986997856,,,,,,,,,383.4352950689499,384.23440202197526,385.0346350839827,385.01818891998846,385.018487438967,385.0346350839827,385.0346350839827,385.0346350839827,,387.30213313899,,,,,,,,,,,,,,,,,,,,,,,,,,,,,,right,1.0,2.260422575986013,,,,,sub-103,1,random_dot,60.740561193700245,
left,left,21.0,1.0,10.0,left,1.0,0.7306491389754228,,accuracy,space,2.4306863370002247,,,,,,0.0,1.0,1.0,0.0,10.0,1.0,21.0,0.0,387.31812954798806,,,,,,,,,387.3024472729885,387.6588944179821,388.468502453994,388.4519189559505,388.4523046249524,388.468502453994,388.468502453994,388.468502453994,,389.2080757980002,,,,,,,,,,,,,,,,,,,,,,,,,,,,,,left,1.0,0.7306491389754228,,,,,sub-103,1,random_dot,60.740561193700245,
right,right,22.0,0.0,11.0,left,0.0,2.479823842993937,,accuracy,space,2.4306863370002247,,,,,,0.0,1.0,1.0,0.0,11.0,0.0,22.0,1.0,389.22300624498166,,,,,,,,,389.2085017679492,390.0187855580007,390.8189553339616,390.8025652189972,390.8029465159634,390.8189553339616,390.8189553339616,390.8189553339616,,393.303560774948,,,,,,,,,,,,,,,,,,,,,,,,,,,,,,left,0.0,2.479823842993937,,,,,sub-103,1,random_dot,60.740561193700245,
left,left,23.0,1.0,11.0,left,1.0,1.7929579530027695,,accuracy,space,2.4306863370002247,,,,,,0.0,1.0,1.0,0.0,11.0,1.0,23.0,0.0,393.3194357239991,,,,,,,,,393.3038768719998,393.40281273500295,394.2179598389776,394.1950965229771,394.1954822919797,394.2179598389776,394.2179598389776,394.2179598389776,,396.02044292900246,,,,,,,,,,,,,,,,,,,,,,,,,,,,,,left,1.0,1.7929579530027695,,,,,sub-103,1,random_dot,60.740561193700245,
left,left,24.0,0.0,12.0,left,1.0,3.0185148959863,,accuracy,space,2.4306863370002247,,,,,,0.0,1.0,1.0,0.0,12.0,0.0,24.0,0.0,396.0365859009908,,,,,,,,,396.0207552479697,396.8199869779637,397.6255854299525,397.6038007149473,397.604186964978,397.6255854299525,397.6255854299525,397.6255854299525,,400.6648903109599,,,,,,,,,,,,,,,,,,,,,,,,,,,,,,left,1.0,3.0185148959863,,,,,sub-103,1,random_dot,60.740561193700245,
right,right,25.0,1.0,12.0,right,1.0,2.7161090709851123,,accuracy,space,2.4306863370002247,,,,,,0.0,1.0,1.0,0.0,12.0,1.0,25.0,1.0,400.68042645795504,,,,,,,,,400.66533904796233,401.8708724329481,402.68235321098473,402.6601349689881,402.6605176489684,402.68235321098473,402.68235321098473,402.68235321098473,,405.4052169229835,,,,,,,,,,,,,,,,,,,,,,,,,,,,,,right,1.0,2.7161090709851123,,,,,sub-103,1,random_dot,60.740561193700245,
left,left,26.0,0.0,13.0,left,1.0,1.6933147020172328,,accuracy,space,2.4306863370002247,,,,,,0.0,1.0,1.0,0.0,13.0,0.0,26.0,0.0,405.42143887799466,,,,,,,,,405.4055274639977,405.5047966819839,406.30505292199086,406.2883157539764,406.2886189739802,406.30505292199086,406.30505292199086,406.30505292199086,,408.0057221579482,,,,,,,,,,,,,,,,,,,,,,,,,,,,,,left,1.0,1.6933147020172328,,,,,sub-103,1,random_dot,60.740561193700245,
right,right,27.0,1.0,13.0,right,1.0,2.268905367003754,,accuracy,space,2.4306863370002247,,,,,,0.0,1.0,1.0,0.0,13.0,1.0,27.0,1.0,408.021821362956,,,,,,,,,408.0060485099675,408.1051342539722,408.9053970949608,408.8888722889824,408.8892549189623,408.9053970949608,408.9053970949608,408.9053970949608,,411.1901935009519,,,,,,,,,,,,,,,,,,,,,,,,,,,,,,right,1.0,2.268905367003754,,,,,sub-103,1,random_dot,60.740561193700245,
left,left,28.0,0.0,14.0,right,0.0,2.5711240679956973,,accuracy,space,2.4306863370002247,,,,,,0.0,1.0,1.0,0.0,14.0,0.0,28.0,0.0,411.2057371029514,,,,,,,,,411.19061617698753,411.55561039299937,412.3710041299928,412.3488598559634,412.3492460399866,412.3710041299928,412.3710041299928,412.3710041299928,,414.9573539989651,,,,,,,,,,,,,,,,,,,,,,,,,,,,,,right,0.0,2.5711240679956973,,,,,sub-103,1,random_dot,60.740561193700245,
right,right,29.0,1.0,14.0,right,1.0,1.1929357890039682,,accuracy,space,2.4306863370002247,,,,,,0.0,1.0,1.0,0.0,14.0,1.0,29.0,1.0,414.9730003500008,,,,,,,,,414.9577805349836,415.7619698079652,416.5732997259474,416.5570405659964,416.55742032499984,416.5732997259474,416.5732997259474,416.5732997259474,,417.7740690229693,,,,,,,,,,,,,,,,,,,,,,,,,,,,,,right,1.0,1.1929357890039682,,,,,sub-103,1,random_dot,60.740561193700245,
right,right,30.0,0.0,15.0,right,1.0,0.8523824270232581,,accuracy,space,2.4306863370002247,,,,,,0.0,1.0,1.0,0.0,15.0,0.0,30.0,1.0,417.790164453967,,,,,,,,,417.7743837479502,417.8734176029684,418.6736745159724,418.65736238798127,418.6577449569595,418.6736745159724,418.6736745159724,418.6736745159724,,419.5415356089943,,,,,,,,,,,,,,,,,,,,,,,,,,,,,,right,1.0,0.8523824270232581,,,,,sub-103,1,random_dot,60.740561193700245,
left,left,31.0,1.0,15.0,left,1.0,2.3851830729981884,,accuracy,space,2.4306863370002247,,,,,,0.0,1.0,1.0,0.0,15.0,1.0,31.0,0.0,419.5571045849938,,,,,,,,,419.5419617489679,419.9072366170003,420.7074000579887,420.69087707897415,420.6912625689874,420.7074000579887,420.7074000579887,420.7074000579887,,423.108782183961,,,,,,,,,,,,,,,,,,,,,,,,,,,,,,left,1.0,2.3851830729981884,,,,,sub-103,1,random_dot,60.740561193700245,
left,left,32.0,0.0,16.0,left,1.0,0.8004931479808874,,accuracy,space,2.4306863370002247,,,,,,0.0,1.0,1.0,0.0,16.0,0.0,32.0,0.0,423.1243852609769,,,,,,,,,423.109203801956,424.307603012945,425.1080635549733,425.0917226899765,425.0921068069874,425.1080635549733,425.1080635549733,425.1080635549733,,425.9151584219653,,,,,,,,,,,,,,,,,,,,,,,,,,,,,,left,1.0,0.8004931479808874,,,,,sub-103,1,random_dot,60.740561193700245,
right,right,33.0,1.0,16.0,right,1.0,1.5722501369891688,,accuracy,space,2.4306863370002247,,,,,,0.0,1.0,1.0,0.0,16.0,1.0,33.0,1.0,425.9301288819988,,,,,,,,,425.9154713519965,426.725024845975,427.536297196988,427.51842219999526,427.5188021789654,427.536297196988,427.536297196988,427.536297196988,,429.10954943997785,,,,,,,,,,,,,,,,,,,,,,,,,,,,,,right,1.0,1.5722501369891688,,,,,sub-103,1,random_dot,60.740561193700245,
left,left,34.0,0.0,17.0,left,1.0,1.4758118139579892,,accuracy,space,2.4306863370002247,,,,,,0.0,1.0,1.0,0.0,17.0,0.0,34.0,0.0,429.1253430349752,,,,,,,,,429.10987528797705,429.2085868339637,430.0088813199545,429.9924412439577,429.9928226409829,430.0088813199545,430.0088813199545,430.0088813199545,,431.4929915369721,,,,,,,,,,,,,,,,,,,,,,,,,,,,,,left,1.0,1.4758118139579892,,,,,sub-103,1,random_dot,60.740561193700245,
right,right,35.0,1.0,17.0,left,0.0,1.5221674170461483,,accuracy,space,2.4306863370002247,,,,,,0.0,1.0,1.0,0.0,17.0,1.0,35.0,1.0,431.5089501899784,,,,,,,,,431.49330647697207,431.8425602849457,432.6425372109516,432.6261611689697,432.6265462649753,432.6425372109516,432.6425372109516,432.6425372109516,,434.1768533139839,,,,,,,,,,,,,,,,,,,,,,,,,,,,,,left,0.0,1.5221674170461483,,,,,sub-103,1,random_dot,60.740561193700245,
left,left,36.0,0.0,18.0,left,1.0,1.148057146987412,,accuracy,space,2.4306863370002247,,,,,,0.0,1.0,1.0,0.0,18.0,0.0,36.0,0.0,434.1929636329878,,,,,,,,,434.1771757469978,434.9764511359972,435.7765988749452,435.7599967769929,435.7603809379507,435.7765988749452,435.7765988749452,435.7765988749452,,436.9273297339678,,,,,,,,,,,,,,,,,,,,,,,,,,,,,,left,1.0,1.148057146987412,,,,,sub-103,1,random_dot,60.740561193700245,
right,right,37.0,1.0,18.0,right,1.0,0.8875378739903681,,accuracy,space,2.4306863370002247,,,,,,0.0,1.0,1.0,0.0,18.0,1.0,37.0,1.0,436.9434797629947,,,,,,,,,436.92761698097456,437.2768449919531,438.0770948069985,438.0604752589716,438.060859219986,438.0770948069985,438.0770948069985,438.0770948069985,,438.9830030729645,,,,,,,,,,,,,,,,,,,,,,,,,,,,,,right,1.0,0.8875378739903681,,,,,sub-103,1,random_dot,60.740561193700245,
right,right,38.0,0.0,19.0,left,0.0,0.8001069949823432,,accuracy,space,2.4306863370002247,,,,,,0.0,1.0,1.0,0.0,19.0,0.0,38.0,1.0,439.0019253459759,,,,,,,,,438.98344282299513,440.1940092279692,441.01244357496034,440.98519535997184,440.9855764359818,441.01244357496034,441.01244357496034,441.01244357496034,,441.828986359993,,,,,,,,,,,,,,,,,,,,,,,,,,,,,,left,0.0,0.8001069949823432,,,,,sub-103,1,random_dot,60.740561193700245,
left,left,39.0,1.0,19.0,left,1.0,1.328469423984643,,accuracy,space,2.4306863370002247,,,,,,0.0,1.0,1.0,0.0,19.0,1.0,39.0,0.0,441.84449089696864,,,,,,,,,441.8294093349832,443.0280702599557,443.8280798129854,443.811824126984,443.81223208497977,443.8280798129854,443.8280798129854,443.8280798129854,,445.1622438419727,,,,,,,,,,,,,,,,,,,,,,,,,,,,,,left,1.0,1.328469423984643,,,,,sub-103,1,random_dot,60.740561193700245,
right,right,40.0,0.0,20.0,right,1.0,0.9548483539838344,,accuracy,space,2.4306863370002247,,,,,,0.0,1.0,1.0,0.0,20.0,0.0,40.0,1.0,445.1781818169984,,,,,,,,,445.1625588229508,445.9616039589746,446.76184550795006,446.7454801549902,446.7458639569813,446.76184550795006,446.76184550795006,446.76184550795006,,447.7291588219814,,,,,,,,,,,,,,,,,,,,,,,,,,,,,,right,1.0,0.9548483539838344,,,,,sub-103,1,random_dot,60.740561193700245,
left,left,41.0,1.0,20.0,left,1.0,0.7481166949728504,,accuracy,space,2.4306863370002247,,,,,,0.0,1.0,1.0,0.0,20.0,1.0,41.0,0.0,447.7452184970025,,,,,,,,,447.7294867379824,448.5287376289489,449.3285455229925,449.3121658609598,449.312548672955,449.3285455229925,449.3285455229925,449.3285455229925,,450.0796136719873,,,,,,,,,,,,,,,,,,,,,,,,,,,,,,left,1.0,0.7481166949728504,,,,,sub-103,1,random_dot,60.740561193700245,
left,left,42.0,0.0,21.0,left,1.0,1.2375217989902012,,accuracy,space,2.4306863370002247,,,,,,0.0,1.0,1.0,0.0,21.0,0.0,42.0,0.0,450.0956748749595,,,,,,,,,450.0799028219772,450.87894763599616,451.6791765569942,451.6626244679792,451.663008013973,451.6791765569942,451.6791765569942,451.6791765569942,,452.9301446479512,,,,,,,,,,,,,,,,,,,,,,,,,,,,,,left,1.0,1.2375217989902012,,,,,sub-103,1,random_dot,60.740561193700245,
right,right,43.0,1.0,21.0,right,1.0,1.3031645820010451,,accuracy,space,2.4306863370002247,,,,,,0.0,1.0,1.0,0.0,21.0,1.0,43.0,1.0,452.9460844909772,,,,,,,,,452.93046091496944,453.0294665509719,453.82952359499177,453.81301768898265,453.813397255959,453.82952359499177,453.82952359499177,453.82952359499177,,455.1475328119705,,,,,,,,,,,,,,,,,,,,,,,,,,,,,,right,1.0,1.3031645820010451,,,,,sub-103,1,random_dot,60.740561193700245,
right,right,44.0,0.0,22.0,right,1.0,1.2037619660259224,,accuracy,space,2.4306863370002247,,,,,,0.0,1.0,1.0,0.0,22.0,0.0,44.0,1.0,455.1630915439455,,,,,,,,,455.1479567329516,455.5130297019496,456.3128130209516,456.2963358139969,456.29671244794736,456.3128130209516,456.3128130209516,456.3128130209516,,457.5306060749572,,,,,,,,,,,,,,,,,,,,,,,,,,,,,,right,1.0,1.2037619660259224,,,,,sub-103,1,random_dot,60.740561193700245,
left,left,45.0,1.0,22.0,left,1.0,1.1977611289476044,,accuracy,space,2.4306863370002247,,,,,,0.0,1.0,1.0,0.0,22.0,1.0,45.0,0.0,457.5520740549546,,,,,,,,,457.5309228419792,457.6356993279769,458.4468372339616,458.43050430796575,458.4308855719864,458.4468372339616,458.4468372339616,458.4468372339616,,459.6481095759664,,,,,,,,,,,,,,,,,,,,,,,,,,,,,,left,1.0,1.1977611289476044,,,,,sub-103,1,random_dot,60.740561193700245,
right,right,46.0,0.0,23.0,right,1.0,0.993266717006918,,accuracy,space,2.4306863370002247,,,,,,0.0,1.0,1.0,0.0,23.0,0.0,46.0,1.0,459.6639853869565,,,,,,,,,459.64839773095446,459.74736913800007,460.5475150869461,460.53106535895495,460.53144703200087,460.5475150869461,460.5475150869461,460.5475150869461,,461.5480779969948,,,,,,,,,,,,,,,,,,,,,,,,,,,,,,right,1.0,0.993266717006918,,,,,sub-103,1,random_dot,60.740561193700245,
left,left,47.0,1.0,23.0,left,1.0,0.92483605700545,,accuracy,space,2.4306863370002247,,,,,,0.0,1.0,1.0,0.0,23.0,1.0,47.0,0.0,461.56432966096327,,,,,,,,,461.5483935349621,461.6476579639712,462.4478193419636,462.4313407249865,462.431727638992,462.4478193419636,462.4478193419636,462.4478193419636,,463.3817555519636,,,,,,,,,,,,,,,,,,,,,,,,,,,,,,left,1.0,0.92483605700545,,,,,sub-103,1,random_dot,60.740561193700245,
left,left,48.0,0.0,24.0,left,1.0,1.3583717030123807,,accuracy,space,2.4306863370002247,,,,,,0.0,1.0,1.0,0.0,24.0,0.0,48.0,0.0,463.3980023859767,,,,,,,,,463.3820847549941,464.188613315986,464.9983189489576,464.98186322895344,464.9822510359809,464.9983189489576,464.9983189489576,464.9983189489576,,466.3658857239643,,,,,,,,,,,,,,,,,,,,,,,,,,,,,,left,1.0,1.3583717030123807,,,,,sub-103,1,random_dot,60.740561193700245,
right,right,49.0,1.0,24.0,right,1.0,1.124224346014671,,accuracy,space,2.4306863370002247,,,,,,0.0,1.0,1.0,0.0,24.0,1.0,49.0,1.0,466.3820734619512,,,,,,,,,466.3662028949475,466.4654148370028,467.28044692095136,467.2582618129673,467.2586420969456,467.28044692095136,467.28044692095136,467.28044692095136,,468.4159846199909,,,,,,,,,,,,,,,,,,,,,,,,,,,,,,right,1.0,1.124224346014671,,,,,sub-103,1,random_dot,60.740561193700245,
right,right,50.0,0.0,25.0,right,1.0,1.2289597800117915,,accuracy,space,2.4306863370002247,,,,,,0.0,1.0,1.0,0.0,25.0,0.0,50.0,1.0,468.4321816739976,,,,,,,,,468.4163170369575,468.5155699959723,469.3277226369828,469.30883288697805,469.3092162949615,469.3277226369828,469.3277226369828,469.3277226369828,,470.5661036459496,,,,,,,,,,,,,,,,,,,,,,,,,,,,,,right,1.0,1.2289597800117915,,,,,sub-103,1,random_dot,60.740561193700245,
left,left,51.0,1.0,25.0,left,1.0,0.876504446961917,,accuracy,space,2.4306863370002247,,,,,,0.0,1.0,1.0,0.0,25.0,1.0,51.0,0.0,470.5825563049875,,,,,,,,,470.56641729496187,471.3659669389599,472.1760633099475,472.1545327439672,472.1549195689731,472.1760633099475,472.1760633099475,472.1760633099475,,473.0669326979551,,,,,,,,,,,,,,,,,,,,,,,,,,,,,,left,1.0,0.876504446961917,,,,,sub-103,1,random_dot,60.740561193700245,
right,right,52.0,0.0,26.0,right,1.0,1.0202413429506123,,accuracy,space,2.4306863370002247,,,,,,0.0,1.0,1.0,0.0,26.0,0.0,52.0,1.0,473.0831769979559,,,,,,,,,473.0672604959691,473.4165173009969,474.21644817799097,474.2000688479748,474.2004509139806,474.21644817799097,474.21644817799097,474.21644817799097,,475.2509826039896,,,,,,,,,,,,,,,,,,,,,,,,,,,,,,right,1.0,1.0202413429506123,,,,,sub-103,1,random_dot,60.740561193700245,
left,left,53.0,1.0,26.0,left,1.0,0.9956810500007124,,accuracy,space,2.4306863370002247,,,,,,0.0,1.0,1.0,0.0,26.0,1.0,53.0,0.0,475.2665568959783,,,,,,,,,475.2514042899711,475.6167046600021,476.4168692759704,476.4003497769591,476.4007378449896,476.4168692759704,476.4168692759704,476.4168692759704,,477.4178834919585,,,,,,,,,,,,,,,,,,,,,,,,,,,,,,left,1.0,0.9956810500007124,,,,,sub-103,1,random_dot,60.740561193700245,
left,left,54.0,0.0,27.0,left,1.0,1.6672729710116982,,accuracy,space,2.4306863370002247,,,,,,0.0,1.0,1.0,0.0,27.0,0.0,54.0,0.0,477.4336684329901,,,,,,,,,477.4181973660016,478.2171417849604,479.0172800089931,479.0010694669909,479.00145650695777,479.0172800089931,479.0172800089931,479.0172800089931,,480.7020316799753,,,,,,,,,,,,,,,,,,,,,,,,,,,,,,left,1.0,1.6672729710116982,,,,,sub-103,1,random_dot,60.740561193700245,
right,right,55.0,1.0,27.0,right,1.0,4.747650214005262,,accuracy,space,2.4306863370002247,,,,,,0.0,1.0,1.0,0.0,27.0,1.0,55.0,1.0,480.7230166779482,,,,,,,,,480.70245412399527,481.0673055980005,481.8828468249994,481.8608318219776,481.8612105189823,481.8828468249994,481.8828468249994,481.8828468249994,,486.6356904759887,,,,,,,,,,,,,,,,,,,,,,,,,,,,,,right,1.0,4.747650214005262,,,,,sub-103,1,random_dot,60.740561193700245,
left,left,56.0,0.0,28.0,left,1.0,1.3412681189947762,,accuracy,space,2.4306863370002247,,,,,,0.0,1.0,1.0,0.0,28.0,0.0,56.0,0.0,486.6519633489661,,,,,,,,,486.63598269596696,486.9852537109982,487.7853770199581,487.7688722019666,487.7692739819759,487.7853770199581,487.7853770199581,487.7853770199581,,489.1362771719578,,,,,,,,,,,,,,,,,,,,,,,,,,,,,,left,1.0,1.3412681189947762,,,,,sub-103,1,random_dot,60.740561193700245,
right,right,57.0,1.0,28.0,right,1.0,0.9809490450425074,,accuracy,space,2.4306863370002247,,,,,,0.0,1.0,1.0,0.0,28.0,1.0,57.0,1.0,489.1522855499643,,,,,,,,,489.13659059396014,489.4857589469757,490.2895648019621,490.2694706449984,490.26985701796366,490.2895648019621,490.2895648019621,490.2895648019621,,491.2872258759453,,,,,,,,,,,,,,,,,,,,,,,,,,,,,,right,1.0,0.9809490450425074,,,,,sub-103,1,random_dot,60.740561193700245,
right,right,58.0,0.0,29.0,right,1.0,0.8955066199996509,,accuracy,space,2.4306863370002247,,,,,,0.0,1.0,1.0,0.0,29.0,0.0,58.0,1.0,491.3027493919944,,,,,,,,,491.2876522769802,492.50279892398976,493.3030101299519,493.2866289319936,493.2870127419592,493.3030101299519,493.3030101299519,493.3030101299519,,494.2042064719717,,,,,,,,,,,,,,,,,,,,,,,,,,,,,,right,1.0,0.8955066199996509,,,,,sub-103,1,random_dot,60.740561193700245,
left,left,59.0,1.0,29.0,left,1.0,1.2151219680090437,,accuracy,space,2.4306863370002247,,,,,,0.0,1.0,1.0,0.0,29.0,1.0,59.0,0.0,494.2201072399621,,,,,,,,,494.2045192119549,494.30348854494514,495.1033932429855,495.0868717989652,495.0872579650022,495.1033932429855,495.1033932429855,495.1033932429855,,496.32076929399045,,,,,,,,,,,,,,,,,,,,,,,,,,,,,,left,1.0,1.2151219680090437,,,,,sub-103,1,random_dot,60.740561193700245,
,,1.0,1.0,0.0,,,,,accuracy,space,2.4306863370002247,,,,,,0.0,1.0,1.0,0.0,,,,,,,,,,,,,,,,,,,,,,,,,,,,,,,,,,,,,,,,,,,,,,,,,,,,,,,,,,,,sub-103,1,random_dot,60.740561193700245,
,,,,,,,,,,,,,,,,,,,,,,,,,,,,,,,,,,,,,,,,,,,,,,,,,,,,,,,,,,,,,,,,,,,,,,,,,,,,,496.3245626529679,496.33673443098087,501.32133096497273,sub-103,1,random_dot,60.740561193700245,
