direction,corrAns,randomInstr,practice_trials.thisRepN,practice_trials.thisTrialN,practice_trials.thisN,practice_trials.thisIndex,instr_trials.thisRepN,instr_trials.thisTrialN,instr_trials.thisN,instr_trials.thisIndex,test_trials.thisRepN,test_trials.thisTrialN,test_trials.thisN,test_trials.thisIndex,thisRow.t,notes,general_instruction.started,textGeneralInstr.started,respGeneralInstr.started,general_instruction.stopped,respGeneralInstr.keys,respGeneralInstr.rt,respGeneralInstr.duration,ITI.started,fixcross.started,fixcross.stopped,ITI.stopped,dots.started,backgroundDots.started,stimulusDots.started,respDots.started,stimulusDots.stopped,dots.stopped,respDots.keys,respDots.corr,respDots.rt,respDots.duration,feedback.started,textFeedback.started,textFeedback.stopped,feedback.stopped,info.started,textInfo.started,keyRespInfo.started,info.stopped,keyRespInfo.keys,keyRespInfo.rt,keyRespInfo.duration,test_instruction.started,textTestInstr.started,respTestInstr.started,test_instruction.stopped,respTestInstr.keys,respTestInstr.rt,respTestInstr.duration,random_instruction.started,textRandomInstr.started,respRandomInstr.started,random_instruction.stopped,respRandomInstr.keys,respRandomInstr.rt,respRandomInstr.duration,goodbye.started,textGoodbye.started,participant,session,expName,frameRate,Unnamed: 72
,,,,,,,,,,,,,,,,,0.0021805999999742,0.0045583000000988,0.0045583000000988,13.674042699999973,space,27.850395299999946,,,,,,,,,,,,,,,,,,,,,,,,,,,,,,,,,,,,,,,,,,,sub-214,1.0,random_dot,60.08376879045064,
left,left,,0.0,0.0,0.0,0.0,,,,,,,,,13.698058899999978,,,,,,,,,13.695772300000044,14.488780599999927,15.30500559999996,15.288444300000036,15.28845769999998,15.30500559999996,15.30500559999996,15.30500559999996,20.30008880000014,22.182405300000028,left,1.0,21.04819589999988,,22.183332800000017,22.19795380000005,22.697469200000118,22.68131889999995,,,,,,,,,,,,,,,,,,,,,,,,sub-214,1.0,random_dot,60.08376879045064,
right,right,,0.0,1.0,1.0,1.0,,,,,,,,,22.697469200000118,,,,,,,,,22.68152110000005,23.496866200000117,24.29650650000008,24.279964999999947,24.27998300000013,24.29650650000008,24.29650650000008,24.29650650000008,,25.69683720000012,right,1.0,15.571451799999975,,25.69747770000004,25.711437400000023,26.211065799999915,26.194884,,,,,,,,,,,,,,,,,,,,,,,,sub-214,1.0,random_dot,60.08376879045064,
right,right,,1.0,0.0,2.0,1.0,,,,,,,,,26.211065799999915,,,,,,,,,26.19530280000004,27.409948900000018,28.209360999999944,28.19312459999992,28.193155800000117,28.209360999999944,28.209360999999944,28.209360999999944,,29.75872789999994,right,1.0,15.721013099999936,,29.759036100000003,29.774199800000133,30.273742600000105,30.25766909999993,,,,,,,,,,,,,,,,,,,,,,,,sub-214,1.0,random_dot,60.08376879045064,
left,left,,1.0,1.0,3.0,0.0,,,,,,,,,30.273742600000105,,,,,,,,,30.258084100000133,31.47245829999997,32.27228850000006,32.25543749999997,32.255451400000084,32.27228850000006,32.27228850000006,32.27228850000006,,33.688868500000126,left,1.0,15.590788699999848,,33.68951900000002,33.70393489999992,34.20342830000004,34.18748260000007,,,,,,,,,,,,,,,,,,,,,,,,sub-214,1.0,random_dot,60.08376879045064,
right,right,,2.0,0.0,4.0,1.0,,,,,,,,,34.20342830000004,,,,,,,,,34.187792400000035,34.55321870000012,35.35269970000013,35.33603949999997,35.336050200000045,35.35269970000013,35.35269970000013,35.35269970000013,,36.702902,left,0.0,15.534837499999869,,36.70318969999994,36.71756170000003,37.217457200000126,37.20162120000009,,,,,,,,,,,,,,,,,,,,,,,,sub-214,1.0,random_dot,60.08376879045064,
left,left,,2.0,1.0,5.0,0.0,,,,,,,,,37.217457200000126,,,,,,,,,37.20226350000007,37.56724170000007,38.36644589999992,38.35007420000011,38.35008560000006,38.36644589999992,38.36644589999992,38.36644589999992,,40.68201930000009,right,0.0,16.497786299999916,,40.68227300000012,40.69751210000004,41.19700680000005,41.18093279999994,,,,,,,,,,,,,,,,,,,,,,,,sub-214,1.0,random_dot,60.08376879045064,
left,left,,3.0,0.0,6.0,0.0,,,,,,,,,41.19700680000005,,,,,,,,,41.18150710000009,41.29690810000011,42.09665749999999,42.07986290000008,42.07987520000006,42.09665749999999,42.09665749999999,42.09665749999999,,45.91013700000008,left,1.0,17.98341759999994,,45.91057679999994,45.92588320000005,46.42534079999996,46.40882650000003,,,,,,,,,,,,,,,,,,,,,,,,sub-214,1.0,random_dot,60.08376879045064,
right,right,,3.0,1.0,7.0,1.0,,,,,,,,,46.42534079999996,,,,,,,,,46.409085199999936,46.525156599999946,47.32495560000007,47.308598300000085,47.30862750000006,47.32495560000007,47.32495560000007,47.32495560000007,,48.40802329999997,right,1.0,15.26388739999993,,48.40825760000007,48.423508200000015,48.92289340000002,48.9066358,,,,,,,,,,,,,,,,,,,,,,,,sub-214,1.0,random_dot,60.08376879045064,
left,left,,4.0,0.0,8.0,0.0,,,,,,,,,48.92289340000002,,,,,,,,,48.90689670000006,49.02285720000009,49.82245119999993,49.80671180000013,49.80675059999999,49.82245119999993,49.82245119999993,49.82245119999993,,51.0055926,right,0.0,15.35311929999989,,51.00594550000005,51.020945499999925,51.52047809999999,51.50473570000008,,,,,,,,,,,,,,,,,,,,,,,,sub-214,1.0,random_dot,60.08376879045064,
right,right,,4.0,1.0,9.0,1.0,,,,,,,,,51.52047809999999,,,,,,,,,51.50521830000002,52.31976970000005,53.1194038000001,53.1032325000001,53.103257100000064,53.1194038000001,53.1194038000001,53.1194038000001,,55.301325800000086,left,0.0,16.357630599999993,,55.30203640000013,55.31696170000009,55.81650029999992,55.800245899999936,,,,,,,,,,,,,,,,,,,,,,,,sub-214,1.0,random_dot,60.08376879045064,
right,right,,5.0,0.0,10.0,1.0,,,,,,,,,55.81650029999992,,,,,,,,,55.80048099999999,56.16634270000009,56.98242010000013,56.96565450000003,56.96566830000006,56.98242010000013,56.98242010000013,56.98242010000013,,59.4138739,right,1.0,16.60361419999981,,59.41418580000004,59.429763000000094,59.92943430000014,59.91325630000006,,,,,,,,,,,,,,,,,,,,,,,,sub-214,1.0,random_dot,60.08376879045064,
left,left,,5.0,1.0,11.0,0.0,,,,,,,,,59.92943430000014,,,,,,,,,59.91350720000014,60.27896880000003,61.07855210000002,61.06268449999993,61.06271579999998,61.07855210000002,61.07855210000002,61.07855210000002,,63.14406499999996,left,1.0,16.2471129999999,,63.14458089999994,63.159654400000136,63.65918970000007,63.643377999999984,,,,,,,,,,,,,,,,,,,,,,,,sub-214,1.0,random_dot,60.08376879045064,
right,right,,6.0,0.0,12.0,1.0,,,,,,,,,63.65918970000007,,,,,,,,,63.64377370000011,64.00887880000005,64.80885089999992,64.79200179999998,64.79201230000012,64.80885089999992,64.80885089999992,64.80885089999992,,67.12362740000003,right,1.0,16.48791119999987,,67.12392840000007,67.13918250000006,67.63879380000003,67.62286540000014,,,,,,,,,,,,,,,,,,,,,,,,sub-214,1.0,random_dot,60.08376879045064,
left,left,,6.0,1.0,13.0,0.0,,,,,,,,,67.63879380000003,,,,,,,,,67.62337090000005,68.83762860000002,69.63713819999998,69.62050270000009,69.6205136000001,69.63713819999998,69.63713819999998,69.63713819999998,,71.02016040000012,left,1.0,15.560610099999847,,71.02049110000007,71.03557769999998,71.53538860000003,71.51902289999998,,,,,,,,,,,,,,,,,,,,,,,,sub-214,1.0,random_dot,60.08376879045064,
left,left,,7.0,0.0,14.0,0.0,,,,,,,,,71.53538860000003,,,,,,,,,71.5192591,72.33468280000011,73.13424720000012,73.11750260000008,73.11751580000009,73.13424720000012,73.13424720000012,73.13424720000012,,74.57172689999993,right,0.0,15.607196199999862,,74.57199889999993,74.58234390000007,75.08200099999999,75.06597390000002,,,,,,,,,,,,,,,,,,,,,,,,sub-214,1.0,random_dot,60.08376879045064,
right,right,,7.0,1.0,15.0,1.0,,,,,,,,,75.08200099999999,,,,,,,,,75.06649970000012,75.88123799999994,76.68093479999993,76.66426139999999,76.66427520000002,76.68093479999993,76.68093479999993,76.68093479999993,,79.5452170000001,right,1.0,17.04316959999983,,79.54546269999992,79.56105700000012,80.06061560000012,80.04463039999996,,,,,,,,,,,,,,,,,,,,,,,,sub-214,1.0,random_dot,60.08376879045064,
right,right,,8.0,0.0,16.0,1.0,,,,,,,,,80.06061560000012,,,,,,,,,80.0449473000001,80.16059309999991,80.96028430000001,80.94384749999995,80.94387189999998,80.96028430000001,80.96028430000001,80.96028430000001,,83.72516919999998,right,1.0,16.942607199999884,,83.7256824000001,83.7405976,84.24015209999993,84.22411480000005,,,,,,,,,,,,,,,,,,,,,,,,sub-214,1.0,random_dot,60.08376879045064,
left,left,,8.0,1.0,17.0,0.0,,,,,,,,,84.24015209999993,,,,,,,,,84.22451449999994,84.5895895000001,85.38929180000014,85.37244320000013,85.37245680000001,85.38929180000014,85.38929180000014,85.38929180000014,,87.74700940000002,left,1.0,16.530655999999908,,87.74764120000009,87.75331600000004,88.25279879999994,88.23639159999993,,,,,,,,,,,,,,,,,,,,,,,,sub-214,1.0,random_dot,60.08376879045064,
right,right,,9.0,0.0,18.0,1.0,,,,,,,,,88.25279879999994,,,,,,,,,88.23663510000006,89.45190359999992,90.25142320000008,90.2347698000001,90.23479300000008,90.25142320000008,90.25142320000008,90.25142320000008,,92.1501816,right,1.0,16.072334199999887,,92.1505092,92.166017,92.66542630000004,92.64931460000004,,,,,,,,,,,,,,,,,,,,,,,,sub-214,1.0,random_dot,60.08376879045064,
left,left,,9.0,1.0,19.0,0.0,,,,,,,,,92.66542630000004,,,,,,,,,92.6497551,92.7652680000001,93.56511870000008,93.54875680000008,93.54878069999997,93.56511870000008,93.56511870000008,93.56511870000008,,96.04735440000012,left,1.0,16.660862700000052,,96.04787239999996,96.06237880000003,96.5617052,96.54554540000004,,,,,,,,,,,,,,,,,,,,,,,,sub-214,1.0,random_dot,60.08376879045064,
,,,,,,,,,,,,,,,,,,,,,,,,,,,,,,,,,,,,,,,,,,96.54558029999998,96.5617052,96.5617052,99.36053990000003,space,16.968586799999912,,,,,,,,,,,,,,,,,,sub-214,1.0,random_dot,60.08376879045064,
,,,,,,,,,,,,,,,,,,,,,,,,,,,,,,,,,,,,,,,,,,,,,,,,,99.36058159999992,99.37613400000008,99.37613400000008,105.22128199999996,space,20.02885330000004,,,,,,,,,,,sub-214,1.0,random_dot,60.08376879045064,
right,right,accuracy,,,,,0.0,0.0,0.0,0.0,0.0,0.0,0.0,1.0,109.84946059999992,,,,,,,,,109.83944910000014,110.19895760000009,110.99871150000013,110.98191930000009,110.98193340000012,110.99871150000013,110.99871150000013,110.99871150000013,,112.43207899999992,right,1.0,15.61761239999987,,,,,,,,,,,,,,,,,,,,105.22340250000002,105.2368391,105.2368391,109.83337389999996,space,18.773802199999864,,,,sub-214,1.0,random_dot,60.08376879045064,
left,left,accuracy,,,,,0.0,0.0,0.0,0.0,0.0,1.0,1.0,0.0,112.44668550000006,,,,,,,,,112.43263990000014,113.24661190000006,114.0624315,114.04562119999991,114.04563550000012,114.0624315,114.0624315,114.0624315,,116.77726740000004,left,1.0,16.898332400000072,,,,,,,,,,,,,,,,,,,,,,,,,,,,,sub-214,1.0,random_dot,60.08376879045064,
left,left,accuracy,,,,,0.0,0.0,0.0,0.0,1.0,0.0,2.0,0.0,116.79271110000012,,,,,,,,,116.77772159999996,117.14232659999992,117.94198959999994,117.92541619999996,117.9254277,117.94198959999994,117.94198959999994,117.94198959999994,,122.07206810000002,right,0.0,18.303058100000044,,,,,,,,,,,,,,,,,,,,,,,,,,,,,sub-214,1.0,random_dot,60.08376879045064,
right,right,accuracy,,,,,0.0,0.0,0.0,0.0,1.0,1.0,3.0,1.0,122.08759110000004,,,,,,,,,122.07260689999998,123.28654630000004,124.08613960000002,124.06935560000012,124.06937089999995,124.08613960000002,124.08613960000002,124.08613960000002,,127.46780190000004,right,1.0,17.56292029999986,,,,,,,,,,,,,,,,,,,,,,,,,,,,,sub-214,1.0,random_dot,60.08376879045064,
left,left,accuracy,,,,,0.0,0.0,0.0,0.0,2.0,0.0,4.0,0.0,127.48290880000012,,,,,,,,,127.46877530000006,127.58291789999998,128.38251420000006,128.3661876000001,128.36621609999997,128.38251420000006,128.38251420000006,128.38251420000006,,130.14853930000004,left,1.0,15.949888999999756,,,,,,,,,,,,,,,,,,,,,,,,,,,,,sub-214,1.0,random_dot,60.08376879045064,
right,right,accuracy,,,,,0.0,0.0,0.0,0.0,2.0,1.0,5.0,1.0,130.16368669999997,,,,,,,,,130.14894049999998,131.36282570000003,132.16232489999993,132.14563220000014,132.14564360000008,132.16232489999993,132.16232489999993,132.16232489999993,,134.44495269999993,right,1.0,16.455774299999803,,,,,,,,,,,,,,,,,,,,,,,,,,,,,sub-214,1.0,random_dot,60.08376879045064,
right,right,accuracy,,,,,0.0,0.0,0.0,0.0,3.0,0.0,6.0,1.0,134.45987790000004,,,,,,,,,134.44624629999998,134.8093662000001,135.60910020000006,135.59240849999992,135.59242089999998,135.60910020000006,135.60910020000006,135.60910020000006,,139.18977070000005,left,0.0,17.754776300000003,,,,,,,,,,,,,,,,,,,,,,,,,,,,,sub-214,1.0,random_dot,60.08376879045064,
left,left,accuracy,,,,,0.0,0.0,0.0,0.0,3.0,1.0,7.0,0.0,139.20538890000012,,,,,,,,,139.1902195,140.40415669999993,141.2038950000001,141.18758709999997,141.18761519999998,141.2038950000001,141.2038950000001,141.2038950000001,,144.36895600000005,left,1.0,17.337771199999906,,,,,,,,,,,,,,,,,,,,,,,,,,,,,sub-214,1.0,random_dot,60.08376879045064,
left,left,accuracy,,,,,0.0,0.0,0.0,0.0,4.0,0.0,8.0,0.0,144.3838601,,,,,,,,,144.3702263,145.5827709,146.38258689999998,146.3661244,146.3661552000001,146.38258689999998,146.38258689999998,146.38258689999998,151.3777424,152.3617799000001,right,0.0,20.15307839999969,,,,,,,,,,,,,,,,,,,,,,,,,,,,,sub-214,1.0,random_dot,60.08376879045064,
right,right,accuracy,,,,,0.0,0.0,0.0,0.0,4.0,1.0,9.0,1.0,152.37636390000011,,,,,,,,,152.36295910000013,152.47630129999993,153.27588360000004,153.2597263,153.25975919999996,153.27588360000004,153.27588360000004,153.27588360000004,,154.84264929999995,right,1.0,15.746647299999722,,,,,,,,,,,,,,,,,,,,,,,,,,,,,sub-214,1.0,random_dot,60.08376879045064,
left,left,accuracy,,,,,0.0,0.0,0.0,0.0,5.0,0.0,10.0,0.0,154.8573851000001,,,,,,,,,154.8439006000001,156.05624850000004,156.85597660000008,156.8395958000001,156.83962420000012,156.85597660000008,156.85597660000008,156.85597660000008,,160.5863554,left,1.0,17.914689499999895,,,,,,,,,,,,,,,,,,,,,,,,,,,,,sub-214,1.0,random_dot,60.08376879045064,
right,right,accuracy,,,,,0.0,0.0,0.0,0.0,5.0,1.0,11.0,1.0,160.6017163000001,,,,,,,,,160.58683429999996,161.40100669999993,162.20082500000012,162.18403560000002,162.1840611,162.20082500000012,162.20082500000012,162.20082500000012,,164.91606449999995,right,1.0,16.895974099999876,,,,,,,,,,,,,,,,,,,,,,,,,,,,,sub-214,1.0,random_dot,60.08376879045064,
right,right,accuracy,,,,,0.0,0.0,0.0,0.0,6.0,0.0,12.0,1.0,164.93114650000007,,,,,,,,,164.91727289999994,166.12973030000012,166.9298530000001,166.9130857,166.91309720000004,166.9298530000001,166.9298530000001,166.9298530000001,,170.51107960000013,left,0.0,17.76524019999988,,,,,,,,,,,,,,,,,,,,,,,,,,,,,sub-214,1.0,random_dot,60.08376879045064,
left,left,accuracy,,,,,0.0,0.0,0.0,0.0,6.0,1.0,13.0,0.0,170.52610329999993,,,,,,,,,170.51168559999996,171.72492089999992,172.5242624,172.50792339999998,172.50794700000006,172.5242624,172.5242624,172.5242624,,174.45670050000012,left,1.0,16.106117499999982,,,,,,,,,,,,,,,,,,,,,,,,,,,,,sub-214,1.0,random_dot,60.08376879045064,
left,left,accuracy,,,,,0.0,0.0,0.0,0.0,7.0,0.0,14.0,0.0,174.47204749999992,,,,,,,,,174.45770310000012,175.67103909999992,176.47090619999994,176.4543404000001,176.45436930000005,176.47090619999994,176.47090619999994,176.47090619999994,,179.28593780000006,left,1.0,16.98457189999999,,,,,,,,,,,,,,,,,,,,,,,,,,,,,sub-214,1.0,random_dot,60.08376879045064,
right,right,accuracy,,,,,0.0,0.0,0.0,0.0,7.0,1.0,15.0,1.0,179.30126629999995,,,,,,,,,179.28720380000004,180.5000354000001,181.2996088,181.2831649,181.2831767,181.2996088,181.2996088,181.2996088,,186.24532010000007,right,1.0,19.12135309999985,,,,,,,,,,,,,,,,,,,,,,,,,,,,,sub-214,1.0,random_dot,60.08376879045064,
left,left,accuracy,,,,,0.0,0.0,0.0,0.0,8.0,0.0,16.0,0.0,186.2610015,,,,,,,,,186.2458073,186.3609989000001,187.16095599999997,187.1447574000001,187.14479069999996,187.16095599999997,187.16095599999997,187.16095599999997,,190.65785039999992,right,0.0,17.6721364,,,,,,,,,,,,,,,,,,,,,,,,,,,,,sub-214,1.0,random_dot,60.08376879045064,
right,right,accuracy,,,,,0.0,0.0,0.0,0.0,8.0,1.0,17.0,1.0,190.67354849999992,,,,,,,,,190.6583726000001,191.87290510000005,192.6725281000001,192.65672700000005,192.65677060000007,192.6725281000001,192.6725281000001,192.6725281000001,,197.618248,right,1.0,19.1166738999998,,,,,,,,,,,,,,,,,,,,,,,,,,,,,sub-214,1.0,random_dot,60.08376879045064,
left,left,accuracy,,,,,0.0,0.0,0.0,0.0,9.0,0.0,18.0,0.0,197.63410649999992,,,,,,,,,197.6187374000001,198.43334830000003,199.2326829000001,199.21630170000003,199.2163256000001,199.2326829000001,199.2326829000001,199.2326829000001,,202.19846140000004,left,1.0,17.13886269999989,,,,,,,,,,,,,,,,,,,,,,,,,,,,,sub-214,1.0,random_dot,60.08376879045064,
right,right,accuracy,,,,,0.0,0.0,0.0,0.0,9.0,1.0,19.0,1.0,202.21312510000007,,,,,,,,,202.1996772,202.56276619999997,203.37893469999997,203.36219290000008,203.3622084000001,203.37893469999997,203.37893469999997,203.37893469999997,,207.3425763,right,1.0,18.142523899999787,,,,,,,,,,,,,,,,,,,,,,,,,,,,,sub-214,1.0,random_dot,60.08376879045064,
right,right,accuracy,,,,,0.0,0.0,0.0,0.0,10.0,0.0,20.0,1.0,207.3581934000001,,,,,,,,,207.34303720000003,207.70774210000013,208.507337,208.49058160000004,208.49059609999995,208.507337,208.507337,208.507337,213.5029902000001,214.62032810000005,right,1.0,20.294097499999907,,,,,,,,,,,,,,,,,,,,,,,,,,,,,sub-214,1.0,random_dot,60.08376879045064,
left,left,accuracy,,,,,0.0,0.0,0.0,0.0,10.0,1.0,21.0,0.0,214.6349788,,,,,,,,,214.6215690000001,215.8338569,216.64981110000008,216.63317759999995,216.6332,216.64981110000008,216.64981110000008,216.64981110000008,,219.78209760000004,left,1.0,17.302072799999905,,,,,,,,,,,,,,,,,,,,,,,,,,,,,sub-214,1.0,random_dot,60.08376879045064,
right,right,accuracy,,,,,0.0,0.0,0.0,0.0,11.0,0.0,22.0,1.0,219.7965854000001,,,,,,,,,219.78342300000008,219.89672339999996,220.71247599999992,220.6960143000001,220.6960379,220.71247599999992,220.71247599999992,220.71247599999992,,222.7962569000001,left,0.0,16.258181199999854,,,,,,,,,,,,,,,,,,,,,,,,,,,,,sub-214,1.0,random_dot,60.08376879045064,
left,left,accuracy,,,,,0.0,0.0,0.0,0.0,11.0,1.0,23.0,0.0,222.8104988,,,,,,,,,222.79752340000005,223.6094977,224.4094692000001,224.39295659999996,224.39299410000007,224.4094692000001,224.4094692000001,224.4094692000001,,227.1441734,left,1.0,16.915302999999994,,,,,,,,,,,,,,,,,,,,,,,,,,,,,sub-214,1.0,random_dot,60.08376879045064,
left,left,accuracy,,,,,0.0,0.0,0.0,0.0,12.0,0.0,24.0,0.0,227.15637659999996,,,,,,,,,227.14486119999992,227.50611260000005,228.30577459999995,228.28954109999995,228.28958450000005,228.30577459999995,228.30577459999995,228.30577459999995,,231.96952349999992,right,0.0,17.840496699999903,,,,,,,,,,,,,,,,,,,,,,,,,,,,,sub-214,1.0,random_dot,60.08376879045064,
right,right,accuracy,,,,,0.0,0.0,0.0,0.0,12.0,1.0,25.0,1.0,231.98528570000008,,,,,,,,,231.97063490000005,232.7846581000001,233.6005536,233.58363430000009,233.58364570000003,233.6005536,233.6005536,233.6005536,,235.7166942000001,right,1.0,16.29501069999992,,,,,,,,,,,,,,,,,,,,,,,,,,,,,sub-214,1.0,random_dot,60.08376879045064,
left,left,accuracy,,,,,0.0,0.0,0.0,0.0,13.0,0.0,26.0,0.0,235.7316354,,,,,,,,,235.7177306000001,236.0813753,236.88113470000008,236.86520870000004,236.8652521000001,236.88113470000008,236.88113470000008,236.88113470000008,,241.0297171,left,1.0,18.317554499999915,,,,,,,,,,,,,,,,,,,,,,,,,,,,,sub-214,1.0,random_dot,60.08376879045064,
right,right,accuracy,,,,,0.0,0.0,0.0,0.0,13.0,1.0,27.0,1.0,241.0433047000001,,,,,,,,,241.03119620000007,241.84238800000003,242.6424558000001,242.6264109000001,242.62645840000005,242.6424558000001,242.6424558000001,242.6424558000001,,246.49059549999996,right,1.0,18.01708359999975,,,,,,,,,,,,,,,,,,,,,,,,,,,,,sub-214,1.0,random_dot,60.08376879045064,
right,right,accuracy,,,,,0.0,0.0,0.0,0.0,14.0,0.0,28.0,1.0,246.5050557,,,,,,,,,246.49195579999991,246.6050494000001,247.42120350000005,247.4045932000001,247.40461699999992,247.42120350000005,247.42120350000005,247.42120350000005,,250.68526569999997,left,0.0,17.445394899999883,,,,,,,,,,,,,,,,,,,,,,,,,,,,,sub-214,1.0,random_dot,60.08376879045064,
left,left,accuracy,,,,,0.0,0.0,0.0,0.0,14.0,1.0,29.0,0.0,250.7010831,,,,,,,,,250.68580539999996,251.05069789999996,251.86697830000003,251.8503036,251.8503184000001,251.86697830000003,251.86697830000003,251.86697830000003,,253.6336215000001,left,1.0,15.950487099999918,,,,,,,,,,,,,,,,,,,,,,,,,,,,,sub-214,1.0,random_dot,60.08376879045064,
left,left,accuracy,,,,,0.0,0.0,0.0,0.0,15.0,0.0,30.0,0.0,253.64821039999995,,,,,,,,,253.6347873,254.44730499999991,255.2471998000001,255.2303449000001,255.2303594,255.2471998000001,255.2471998000001,255.2471998000001,,257.2469378999999,left,1.0,16.17924210000001,,,,,,,,,,,,,,,,,,,,,,,,,,,,,sub-214,1.0,random_dot,60.08376879045064,
right,right,accuracy,,,,,0.0,0.0,0.0,0.0,15.0,1.0,31.0,1.0,257.2616869000001,,,,,,,,,257.2481802,257.3617068000001,258.1613126,258.1450995,258.1451357000001,258.1613126,258.1613126,258.1613126,,260.06243599999993,right,1.0,16.083176599999888,,,,,,,,,,,,,,,,,,,,,,,,,,,,,sub-214,1.0,random_dot,60.08376879045064,
right,right,accuracy,,,,,0.0,0.0,0.0,0.0,16.0,0.0,32.0,1.0,260.07561239999995,,,,,,,,,260.0638884,261.2746265999999,262.0907224,262.07432229999995,262.0743539,262.0907224,262.0907224,262.0907224,,265.83876980000014,left,0.0,17.928109999999833,,,,,,,,,,,,,,,,,,,,,,,,,,,,,sub-214,1.0,random_dot,60.08376879045064,
left,left,accuracy,,,,,0.0,0.0,0.0,0.0,16.0,1.0,33.0,0.0,265.8533916000001,,,,,,,,,265.8400141,266.2028161999999,267.0028688,266.9873984999999,266.987474,267.0028688,267.0028688,267.0028688,,270.95097770000007,left,1.0,18.123842100000047,,,,,,,,,,,,,,,,,,,,,,,,,,,,,sub-214,1.0,random_dot,60.08376879045064,
left,left,accuracy,,,,,0.0,0.0,0.0,0.0,17.0,0.0,34.0,0.0,270.96554600000013,,,,,,,,,270.9522552000001,271.0653019000001,271.8648873,271.8484820000001,271.8485101000001,271.8648873,271.8648873,271.8648873,,276.46236780000004,left,1.0,18.777612099999715,,,,,,,,,,,,,,,,,,,,,,,,,,,,,sub-214,1.0,random_dot,60.08376879045064,
right,right,accuracy,,,,,0.0,0.0,0.0,0.0,17.0,1.0,35.0,1.0,276.4769874000001,,,,,,,,,276.4637435,277.27606519999995,278.0761874,278.0593160000001,278.0593387000001,278.0761874,278.0761874,278.0761874,,282.79026350000004,right,1.0,18.886293300000037,,,,,,,,,,,,,,,,,,,,,,,,,,,,,sub-214,1.0,random_dot,60.08376879045064,
left,left,accuracy,,,,,0.0,0.0,0.0,0.0,18.0,0.0,36.0,0.0,282.8045012,,,,,,,,,282.79185099999995,283.15371890000006,283.95360010000013,283.9372337,283.9372619999999,283.95360010000013,283.95360010000013,283.95360010000013,288.9485993999999,289.9989656,right,0.0,20.22034359999998,,,,,,,,,,,,,,,,,,,,,,,,,,,,,sub-214,1.0,random_dot,60.08376879045064,
right,right,accuracy,,,,,0.0,0.0,0.0,0.0,18.0,1.0,37.0,1.0,290.0139699000001,,,,,,,,,289.99984100000006,290.113965,290.9139417000001,290.8982102,290.89826459999995,290.9139417000001,290.9139417000001,290.9139417000001,,295.46203059999993,left,0.0,18.725193699999863,,,,,,,,,,,,,,,,,,,,,,,,,,,,,sub-214,1.0,random_dot,60.08376879045064,
left,left,accuracy,,,,,0.0,0.0,0.0,0.0,19.0,0.0,38.0,0.0,295.47573379999994,,,,,,,,,295.4634065,296.27476350000006,297.0746776000001,297.0587338,297.0587762,297.0746776000001,297.0746776000001,297.0746776000001,,299.5732925,right,0.0,16.670212900000024,,,,,,,,,,,,,,,,,,,,,,,,,,,,,sub-214,1.0,random_dot,60.08376879045064,
right,right,accuracy,,,,,0.0,0.0,0.0,0.0,19.0,1.0,39.0,1.0,299.5885363,,,,,,,,,299.5742779,300.38757970000006,301.1876695000001,301.1719456000001,301.1720001000001,301.1876695000001,301.1876695000001,301.1876695000001,,302.7366898,right,1.0,15.72376939999981,,,,,,,,,,,,,,,,,,,,,,,,,,,,,sub-214,1.0,random_dot,60.08376879045064,
left,left,accuracy,,,,,0.0,0.0,0.0,0.0,20.0,0.0,40.0,0.0,302.7522752,,,,,,,,,302.73774389999994,303.9513793000001,304.7510207,304.7345232,304.7345528999999,304.7510207,304.7510207,304.7510207,,308.3027035,left,1.0,17.73242099999993,,,,,,,,,,,,,,,,,,,,,,,,,,,,,sub-214,1.0,random_dot,60.08376879045064,
right,right,accuracy,,,,,0.0,0.0,0.0,0.0,20.0,1.0,41.0,1.0,308.3138233,,,,,,,,,308.3032046999999,309.5127334000001,310.31247370000006,310.2963086,310.2963578000001,310.31247370000006,310.31247370000006,310.31247370000006,,314.3758107000001,right,1.0,18.24055899999985,,,,,,,,,,,,,,,,,,,,,,,,,,,,,sub-214,1.0,random_dot,60.08376879045064,
left,left,accuracy,,,,,0.0,0.0,0.0,0.0,21.0,0.0,42.0,0.0,314.39144540000007,,,,,,,,,314.3765877000001,315.5901216,316.389962,316.37443069999995,316.3744802000001,316.389962,316.389962,316.389962,321.3851749999999,322.31965290000016,left,1.0,20.107605799999877,,,,,,,,,,,,,,,,,,,,,,,,,,,,,sub-214,1.0,random_dot,60.08376879045064,
right,right,accuracy,,,,,0.0,0.0,0.0,0.0,21.0,1.0,43.0,1.0,322.3341501,,,,,,,,,322.32094499999994,322.43379460000006,323.23347079999985,323.2177842000001,323.21782280000025,323.23347079999985,323.23347079999985,323.23347079999985,,324.8340291999998,right,1.0,15.769312499999614,,,,,,,,,,,,,,,,,,,,,,,,,,,,,sub-214,1.0,random_dot,60.08376879045064,
left,left,accuracy,,,,,0.0,0.0,0.0,0.0,22.0,0.0,44.0,0.0,324.84827369999994,,,,,,,,,324.8353582999998,325.64773019999984,326.4472612,326.43130040000005,326.4313385999999,326.4472612,326.4472612,326.4472612,,328.84677850000026,left,1.0,16.57800529999986,,,,,,,,,,,,,,,,,,,,,,,,,,,,,sub-214,1.0,random_dot,60.08376879045064,
right,right,accuracy,,,,,0.0,0.0,0.0,0.0,22.0,1.0,45.0,1.0,328.8613362000001,,,,,,,,,328.8481445000002,329.6600846000001,330.4600449999998,330.4432341000001,330.4432532000001,330.4600449999998,330.4600449999998,330.4600449999998,,332.6422748,left,0.0,16.356273599999895,,,,,,,,,,,,,,,,,,,,,,,,,,,,,sub-214,1.0,random_dot,60.08376879045064,
left,left,accuracy,,,,,0.0,0.0,0.0,0.0,23.0,0.0,46.0,0.0,332.6576857,,,,,,,,,332.6432202000001,333.00763670000015,333.8068982,333.790524,333.7905356000001,333.8068982,333.8068982,333.8068982,,337.5049948000001,left,1.0,17.871033800000077,,,,,,,,,,,,,,,,,,,,,,,,,,,,,sub-214,1.0,random_dot,60.08376879045064,
right,right,accuracy,,,,,0.0,0.0,0.0,0.0,23.0,1.0,47.0,1.0,337.5199441,,,,,,,,,337.50613810000004,337.86921269999993,338.6689830999999,338.6535302000002,338.65357619999986,338.6689830999999,338.6689830999999,338.6689830999999,,341.1525486999999,right,1.0,16.655610100000104,,,,,,,,,,,,,,,,,,,,,,,,,,,,,sub-214,1.0,random_dot,60.08376879045064,
right,right,accuracy,,,,,0.0,0.0,0.0,0.0,24.0,0.0,48.0,1.0,341.16645560000006,,,,,,,,,341.15406140000005,341.51618580000013,342.33208909999985,342.31537500000013,342.3153895999999,342.33208909999985,342.33208909999985,342.33208909999985,347.3277056000002,348.72759499999984,left,0.0,20.57547319999958,,,,,,,,,,,,,,,,,,,,,,,,,,,,,sub-214,1.0,random_dot,60.08376879045064,
left,left,accuracy,,,,,0.0,0.0,0.0,0.0,24.0,1.0,49.0,0.0,348.7426068,,,,,,,,,348.7287623000002,349.54160649999994,350.34147429999985,350.3252861000001,350.3253287000002,350.34147429999985,350.34147429999985,350.34147429999985,,352.94145359999993,left,1.0,16.77368869999964,,,,,,,,,,,,,,,,,,,,,,,,,,,,,sub-214,1.0,random_dot,60.08376879045064,
right,right,accuracy,,,,,0.0,0.0,0.0,0.0,25.0,0.0,50.0,1.0,352.95555950000016,,,,,,,,,352.9428074000002,353.0554474999999,353.8711579999999,353.85449000000017,353.8545042999999,353.8711579999999,353.8711579999999,353.8711579999999,,355.6931023000002,right,1.0,16.000908299999537,,,,,,,,,,,,,,,,,,,,,,,,,,,,,sub-214,1.0,random_dot,60.08376879045064,
left,left,accuracy,,,,,0.0,0.0,0.0,0.0,25.0,1.0,51.0,0.0,355.70278020000023,,,,,,,,,355.69415130000016,356.5019559000002,357.30180199999995,357.2855456000002,357.28557360000013,357.30180199999995,357.30180199999995,357.30180199999995,,360.9657876000001,left,1.0,17.83409309999979,,,,,,,,,,,,,,,,,,,,,,,,,,,,,sub-214,1.0,random_dot,60.08376879045064,
right,right,accuracy,,,,,0.0,0.0,0.0,0.0,26.0,0.0,52.0,1.0,360.98092700000007,,,,,,,,,360.9663952000001,361.7802155,362.57980080000016,362.5631905999999,362.5632098000001,362.57980080000016,362.57980080000016,362.57980080000016,,364.1963191,right,1.0,15.796224599999732,,,,,,,,,,,,,,,,,,,,,,,,,,,,,sub-214,1.0,random_dot,60.08376879045064,
left,left,accuracy,,,,,0.0,0.0,0.0,0.0,26.0,1.0,53.0,0.0,364.21149419999983,,,,,,,,,364.1974675000001,365.0109811000002,365.8101683,365.7945685999998,365.7946164,365.8101683,365.8101683,365.8101683,,369.6405418,left,1.0,18.007393899999897,,,,,,,,,,,,,,,,,,,,,,,,,,,,,sub-214,1.0,random_dot,60.08376879045064,
left,left,accuracy,,,,,0.0,0.0,0.0,0.0,27.0,0.0,54.0,0.0,369.6561479000002,,,,,,,,,369.6410535,370.4559029000002,371.2552962,371.2395795000002,371.239626,371.2552962,371.2552962,371.2552962,,375.4536447999999,left,1.0,18.36646919999976,,,,,,,,,,,,,,,,,,,,,,,,,,,,,sub-214,1.0,random_dot,60.08376879045064,
right,right,accuracy,,,,,0.0,0.0,0.0,0.0,27.0,1.0,55.0,1.0,375.4678450000001,,,,,,,,,375.4552609000002,375.5674082000001,376.3674406,376.35125590000007,376.3512939000002,376.3674406,376.3674406,376.3674406,,381.2806183000002,left,0.0,19.082333899999867,,,,,,,,,,,,,,,,,,,,,,,,,,,,,sub-214,1.0,random_dot,60.08376879045064,
right,right,accuracy,,,,,0.0,0.0,0.0,0.0,28.0,0.0,56.0,1.0,381.29562940000005,,,,,,,,,381.2819376000002,382.09476410000025,382.8944305999999,382.8781216000002,382.8781543,382.8944305999999,382.8944305999999,382.8944305999999,,385.342764,right,1.0,16.631776000000173,,,,,,,,,,,,,,,,,,,,,,,,,,,,,sub-214,1.0,random_dot,60.08376879045064,
left,left,accuracy,,,,,0.0,0.0,0.0,0.0,28.0,1.0,57.0,0.0,385.3583457999998,,,,,,,,,385.34361519999993,386.5572539,387.3569723999999,387.3414864000001,387.34154720000015,387.3569723999999,387.3569723999999,387.3569723999999,392.3524376999999,392.6362915,right,0.0,19.45542619999969,,,,,,,,,,,,,,,,,,,,,,,,,,,,,sub-214,1.0,random_dot,60.08376879045064,
right,right,accuracy,,,,,0.0,0.0,0.0,0.0,29.0,0.0,58.0,1.0,392.6513414000001,,,,,,,,,392.6372452999999,393.4511120000002,394.2671421,394.2507518000002,394.2507799,394.2671421,394.2671421,394.2671421,,396.2999903,right,1.0,16.21606219999967,,,,,,,,,,,,,,,,,,,,,,,,,,,,,sub-214,1.0,random_dot,60.08376879045064,
left,left,accuracy,,,,,0.0,0.0,0.0,0.0,29.0,1.0,59.0,0.0,396.3146411000002,,,,,,,,,396.300984,396.4146464999999,397.2306843000001,397.2138117999998,397.2138232000002,397.2306843000001,397.2306843000001,397.2306843000001,,399.0966675,left,1.0,16.045747799999845,,,,,,,,,,,,,,,,,,,,,,,,,,,,,sub-214,1.0,random_dot,60.08376879045064,
,,accuracy,,,,,0.0,0.0,0.0,0.0,,,,,,,,,,,,,,,,,,,,,,,,,,,,,,,,,,,,,,,,,,,,,,,,,,,,,,,sub-214,1.0,random_dot,60.08376879045064,
left,left,speed,,,,,0.0,1.0,1.0,1.0,0.0,0.0,0.0,0.0,409.38580120000006,,,,,,,,,409.38106400000015,409.4860496000001,410.30187380000007,410.28508150000016,410.28509810000014,410.30187380000007,410.30187380000007,410.30187380000007,,411.7177671,left,1.0,15.585102799999731,,,,,,,,,,,,,,,,,,,,399.0973976999999,399.1119628000001,399.1119628000001,409.3726698999999,space,24.443396099999973,,,,sub-214,1.0,random_dot,60.08376879045064,
right,right,speed,,,,,0.0,1.0,1.0,1.0,0.0,1.0,1.0,1.0,411.7334188,,,,,,,,,411.7184513000002,412.0832663000001,412.8993746000001,412.8825864,412.8826001000002,412.8993746000001,412.8993746000001,412.8993746000001,,413.7996352999999,right,1.0,15.070107899999584,,,,,,,,,,,,,,,,,,,,,,,,,,,,,sub-214,1.0,random_dot,60.08376879045064,
left,left,speed,,,,,0.0,1.0,1.0,1.0,1.0,0.0,2.0,0.0,413.8150019999998,,,,,,,,,413.8003265000002,415.0142277,415.8299777000002,415.8133468000001,415.8133603000001,415.8299777000002,415.8299777000002,415.8299777000002,,417.47906980000016,left,1.0,15.83021239999971,,,,,,,,,,,,,,,,,,,,,,,,,,,,,sub-214,1.0,random_dot,60.08376879045064,
right,right,speed,,,,,0.0,1.0,1.0,1.0,1.0,1.0,3.0,1.0,417.4946685,,,,,,,,,417.4796080000001,417.5949045000002,418.4109235000001,418.394104,418.3941163999998,418.4109235000001,418.4109235000001,418.4109235000001,,419.1944721,right,1.0,14.96176149999974,,,,,,,,,,,,,,,,,,,,,,,,,,,,,sub-214,1.0,random_dot,60.08376879045064,
right,right,speed,,,,,0.0,1.0,1.0,1.0,2.0,0.0,4.0,1.0,419.2098595000002,,,,,,,,,419.1952572999999,419.30995829999983,420.10942680000016,420.0935172,420.0935540999999,420.10942680000016,420.10942680000016,420.10942680000016,,421.0271272999999,left,0.0,15.095838100000035,,,,,,,,,,,,,,,,,,,,,,,,,,,,,sub-214,1.0,random_dot,60.08376879045064,
left,left,speed,,,,,0.0,1.0,1.0,1.0,2.0,1.0,5.0,0.0,421.04179220000015,,,,,,,,,421.0284925000001,421.8407403000001,422.6404736999998,422.6250528000001,422.6251170000001,422.6404736999998,422.6404736999998,422.6404736999998,,423.2917259000001,right,0.0,14.828561600000285,,,,,,,,,,,,,,,,,,,,,,,,,,,,,sub-214,1.0,random_dot,60.08376879045064,
right,right,speed,,,,,0.0,1.0,1.0,1.0,3.0,0.0,6.0,1.0,423.3063571000002,,,,,,,,,423.2929822000001,423.6561471999999,424.4723061999998,424.4555667,424.4555869999999,424.4723061999998,424.4723061999998,424.4723061999998,,425.4062402,right,1.0,15.10380189999978,,,,,,,,,,,,,,,,,,,,,,,,,,,,,sub-214,1.0,random_dot,60.08376879045064,
left,left,speed,,,,,0.0,1.0,1.0,1.0,3.0,1.0,7.0,0.0,425.4208861000002,,,,,,,,,425.4076700999999,426.6198376000002,427.4361695000002,427.4195970999999,427.41962250000006,427.4361695000002,427.4361695000002,427.4361695000002,,428.50253250000014,right,0.0,15.24464480000006,,,,,,,,,,,,,,,,,,,,,,,,,,,,,sub-214,1.0,random_dot,60.08376879045064,
right,right,speed,,,,,0.0,1.0,1.0,1.0,4.0,0.0,8.0,1.0,428.51776729999983,,,,,,,,,428.5030362000002,429.7170615,430.5165622999998,430.50116949999983,430.5012508,430.5165622999998,430.5165622999998,430.5165622999998,,431.3517089000002,left,0.0,15.018030599999747,,,,,,,,,,,,,,,,,,,,,,,,,,,,,sub-214,1.0,random_dot,60.08376879045064,
left,left,speed,,,,,0.0,1.0,1.0,1.0,4.0,1.0,9.0,0.0,431.3653939000001,,,,,,,,,431.3530780000001,432.56426090000014,433.3640725999999,433.3485574000001,433.3486041000001,433.3640725999999,433.3640725999999,433.3640725999999,,435.82999759999984,left,1.0,16.64206959999956,,,,,,,,,,,,,,,,,,,,,,,,,,,,,sub-214,1.0,random_dot,60.08376879045064,
left,left,speed,,,,,0.0,1.0,1.0,1.0,5.0,0.0,10.0,0.0,435.8443871999998,,,,,,,,,435.8312939000002,436.1941468,436.9938956000001,436.9779546999998,436.9779911999999,436.9938956000001,436.9938956000001,436.9938956000001,,439.0050400999999,right,0.0,16.177988099999766,,,,,,,,,,,,,,,,,,,,,,,,,,,,,sub-214,1.0,random_dot,60.08376879045064,
right,right,speed,,,,,0.0,1.0,1.0,1.0,5.0,1.0,11.0,1.0,439.0085199,,,,,,,,,439.0059664,439.8076004,440.60689319999983,440.5911995000001,440.59124310000016,440.60689319999983,440.60689319999983,440.60689319999983,,442.0075577000002,left,0.0,15.574931299999662,,,,,,,,,,,,,,,,,,,,,,,,,,,,,sub-214,1.0,random_dot,60.08376879045064,
right,right,speed,,,,,0.0,1.0,1.0,1.0,6.0,0.0,12.0,1.0,442.0221848000001,,,,,,,,,442.0089068000002,443.2208575,444.0207547999999,444.0042432999999,444.0042721,444.0207547999999,444.0207547999999,444.0207547999999,,444.9217279,right,1.0,15.083160800000314,,,,,,,,,,,,,,,,,,,,,,,,,,,,,sub-214,1.0,random_dot,60.08376879045064,
left,left,speed,,,,,0.0,1.0,1.0,1.0,6.0,1.0,13.0,0.0,444.9360617000002,,,,,,,,,444.92306240000016,445.7350078999998,446.5348540999999,446.5186724999999,446.5186862999999,446.5348540999999,446.5348540999999,446.5348540999999,,447.7684333000002,left,1.0,15.40283240000008,,,,,,,,,,,,,,,,,,,,,,,,,,,,,sub-214,1.0,random_dot,60.08376879045064,
left,left,speed,,,,,0.0,1.0,1.0,1.0,7.0,0.0,14.0,0.0,447.7833900999999,,,,,,,,,447.7695804,448.5825540000001,449.3823019000001,449.36618880000015,449.3662254999999,449.3823019000001,449.3823019000001,449.3823019000001,,450.7824439000001,right,0.0,15.578689499999657,,,,,,,,,,,,,,,,,,,,,,,,,,,,,sub-214,1.0,random_dot,60.08376879045064,
right,right,speed,,,,,0.0,1.0,1.0,1.0,7.0,1.0,15.0,1.0,450.7972636,,,,,,,,,450.7836092000002,450.8968120999998,451.6968106,451.6805132999998,451.6805436,451.6968106,451.6968106,451.6968106,,452.5970867000001,right,1.0,15.074746199999936,,,,,,,,,,,,,,,,,,,,,,,,,,,,,sub-214,1.0,random_dot,60.08376879045064,
left,left,speed,,,,,0.0,1.0,1.0,1.0,8.0,0.0,16.0,0.0,452.6121243000002,,,,,,,,,452.59805460000007,452.7123363999999,453.5117616000002,453.49618880000025,453.4962415999999,453.5117616000002,453.5117616000002,453.5117616000002,,454.2962204,right,0.0,14.963711099999728,,,,,,,,,,,,,,,,,,,,,,,,,,,,,sub-214,1.0,random_dot,60.08376879045064,
right,right,speed,,,,,0.0,1.0,1.0,1.0,8.0,1.0,17.0,1.0,454.3105227000001,,,,,,,,,454.2975237999999,455.5096202999998,456.3256609999999,456.3092809999998,456.3093050000002,456.3256609999999,456.3256609999999,456.3256609999999,,457.1434559,right,1.0,14.998850700000276,,,,,,,,,,,,,,,,,,,,,,,,,,,,,sub-214,1.0,random_dot,60.08376879045064,
right,right,speed,,,,,0.0,1.0,1.0,1.0,9.0,0.0,18.0,1.0,457.1579058000002,,,,,,,,,457.1445832,457.5079452,458.3237259000002,458.3066918,458.3067028,458.3237259000002,458.3237259000002,458.3237259000002,,459.0580114,right,1.0,14.908037799999876,,,,,,,,,,,,,,,,,,,,,,,,,,,,,sub-214,1.0,random_dot,60.08376879045064,
left,left,speed,,,,,0.0,1.0,1.0,1.0,9.0,1.0,19.0,0.0,459.0728371999999,,,,,,,,,459.05911030000016,459.1727627999999,459.9886832000002,459.9718527999999,459.97186550000015,459.9886832000002,459.9886832000002,459.9886832000002,,462.0891744000001,right,0.0,16.276696599999923,,,,,,,,,,,,,,,,,,,,,,,,,,,,,sub-214,1.0,random_dot,60.08376879045064,
right,right,speed,,,,,0.0,1.0,1.0,1.0,10.0,0.0,20.0,1.0,462.10322499999984,,,,,,,,,462.0903635999998,462.2031622999998,463.0025266000002,462.9861151999999,462.9861388,463.0025266000002,463.0025266000002,463.0025266000002,,465.5676939,left,0.0,16.735288800000035,,,,,,,,,,,,,,,,,,,,,,,,,,,,,sub-214,1.0,random_dot,60.08376879045064,
left,left,speed,,,,,0.0,1.0,1.0,1.0,10.0,1.0,21.0,0.0,465.5832614000001,,,,,,,,,465.5681909,466.3826118000002,467.1822290999999,467.1657344999999,467.1657494000001,467.1822290999999,467.1822290999999,467.1822290999999,,469.913231,left,1.0,16.910884899999928,,,,,,,,,,,,,,,,,,,,,,,,,,,,,sub-214,1.0,random_dot,60.08376879045064,
left,left,speed,,,,,0.0,1.0,1.0,1.0,11.0,0.0,22.0,0.0,469.9289812000002,,,,,,,,,469.91378410000016,470.0290046999999,470.8285460000002,470.8116900999999,470.8117041,470.8285460000002,470.8285460000002,470.8285460000002,,472.4790518,left,1.0,15.829137199999876,,,,,,,,,,,,,,,,,,,,,,,,,,,,,sub-214,1.0,random_dot,60.08376879045064,
right,right,speed,,,,,0.0,1.0,1.0,1.0,11.0,1.0,23.0,1.0,472.49358010000014,,,,,,,,,472.4803757999998,473.2928737000002,474.09252860000015,474.0761215000002,474.0761499,474.09252860000015,474.09252860000015,474.09252860000015,,476.1755618000002,right,1.0,16.254418600000008,,,,,,,,,,,,,,,,,,,,,,,,,,,,,sub-214,1.0,random_dot,60.08376879045064,
right,right,speed,,,,,0.0,1.0,1.0,1.0,12.0,0.0,24.0,1.0,476.1900618999998,,,,,,,,,476.1783464999999,476.5398491000001,477.33915560000014,477.3233492,477.3233805,477.33915560000014,477.33915560000014,477.33915560000014,,478.78891680000015,right,1.0,15.622097999999824,,,,,,,,,,,,,,,,,,,,,,,,,,,,,sub-214,1.0,random_dot,60.08376879045064,
left,left,speed,,,,,0.0,1.0,1.0,1.0,12.0,1.0,25.0,0.0,478.8042151,,,,,,,,,478.78935349999983,478.9042147999999,479.7037077999999,479.6873354,479.6873475000002,479.7037077999999,479.7037077999999,479.7037077999999,,480.8370536000002,left,1.0,15.303577199999836,,,,,,,,,,,,,,,,,,,,,,,,,,,,,sub-214,1.0,random_dot,60.08376879045064,
right,right,speed,,,,,0.0,1.0,1.0,1.0,13.0,0.0,26.0,1.0,480.85221120000006,,,,,,,,,480.83765159999984,481.20201670000006,482.0017004000001,481.9856307,481.9856708000002,482.0017004000001,482.0017004000001,482.0017004000001,,482.8685811999999,right,1.0,15.036629400000038,,,,,,,,,,,,,,,,,,,,,,,,,,,,,sub-214,1.0,random_dot,60.08376879045064,
left,left,speed,,,,,0.0,1.0,1.0,1.0,13.0,1.0,27.0,0.0,482.8838652,,,,,,,,,482.8690418000001,483.6831356000002,484.49915809999993,484.4825328000002,484.4825458999999,484.49915809999993,484.49915809999993,484.49915809999993,,486.5760332,left,1.0,16.246623999999883,,,,,,,,,,,,,,,,,,,,,,,,,,,,,sub-214,1.0,random_dot,60.08376879045064,
right,right,speed,,,,,0.0,1.0,1.0,1.0,14.0,0.0,28.0,1.0,486.5803535,,,,,,,,,486.57699090000006,486.6805024999999,487.4961862,487.4795778000002,487.4795918,487.4961862,487.4961862,487.4961862,,488.8304683000001,right,1.0,15.503558399999749,,,,,,,,,,,,,,,,,,,,,,,,,,,,,sub-214,1.0,random_dot,60.08376879045064,
left,left,speed,,,,,0.0,1.0,1.0,1.0,14.0,1.0,29.0,0.0,488.8449129999999,,,,,,,,,488.8317384000002,488.9448911,489.74457429999984,489.7279395000001,489.72796800000015,489.74457429999984,489.74457429999984,489.74457429999984,,491.01086350000014,left,1.0,15.43760039999961,,,,,,,,,,,,,,,,,,,,,,,,,,,,,sub-214,1.0,random_dot,60.08376879045064,
right,right,speed,,,,,0.0,1.0,1.0,1.0,15.0,0.0,30.0,1.0,491.0262318,,,,,,,,,491.0114161000001,492.22491290000016,493.02500640000017,493.0086084,493.0086431999998,493.02500640000017,493.02500640000017,493.02500640000017,,494.0253560000001,right,1.0,15.183043499999712,,,,,,,,,,,,,,,,,,,,,,,,,,,,,sub-214,1.0,random_dot,60.08376879045064,
left,left,speed,,,,,0.0,1.0,1.0,1.0,15.0,1.0,31.0,0.0,494.0400763000002,,,,,,,,,494.0263814,494.1398815000002,494.9392994,494.9226916000002,494.9227093,494.9392994,494.9392994,494.9392994,,496.4398239000002,right,0.0,15.676855499999874,,,,,,,,,,,,,,,,,,,,,,,,,,,,,sub-214,1.0,random_dot,60.08376879045064,
left,left,speed,,,,,0.0,1.0,1.0,1.0,16.0,0.0,32.0,0.0,496.45423230000006,,,,,,,,,496.44140030000017,496.8043072999999,497.6206477999999,497.6035459,497.6035585999998,497.6206477999999,497.6206477999999,497.6206477999999,,499.6035151000001,right,0.0,16.15512949999993,,,,,,,,,,,,,,,,,,,,,,,,,,,,,sub-214,1.0,random_dot,60.08376879045064,
right,right,speed,,,,,0.0,1.0,1.0,1.0,16.0,1.0,33.0,1.0,499.6184097999999,,,,,,,,,499.6047859,500.4174090000001,501.2170916999999,501.2012884999999,501.2013304000002,501.2170916999999,501.2170916999999,501.2170916999999,,505.1818271000002,left,0.0,18.14587879999999,,,,,,,,,,,,,,,,,,,,,,,,,,,,,sub-214,1.0,random_dot,60.08376879045064,
left,left,speed,,,,,0.0,1.0,1.0,1.0,17.0,0.0,34.0,0.0,505.1964125999998,,,,,,,,,505.1831680999999,505.9953876999998,506.7954030000001,506.7791247,506.7791639000002,506.7954030000001,506.7954030000001,506.7954030000001,,509.5278733,left,1.0,16.911169800000152,,,,,,,,,,,,,,,,,,,,,,,,,,,,,sub-214,1.0,random_dot,60.08376879045064,
right,right,speed,,,,,0.0,1.0,1.0,1.0,17.0,1.0,35.0,1.0,509.5424423,,,,,,,,,509.5292389000001,509.64194110000017,510.4417738000002,510.42636820000007,510.42642179999984,510.4417738000002,510.4417738000002,510.4417738000002,,513.8394131999999,left,0.0,17.566707299999962,,,,,,,,,,,,,,,,,,,,,,,,,,,,,sub-214,1.0,random_dot,60.08376879045064,
right,right,speed,,,,,0.0,1.0,1.0,1.0,18.0,0.0,36.0,1.0,513.8549757000001,,,,,,,,,513.8400317999999,514.6541505999999,515.4539420000001,515.4381472,515.4381939,515.4539420000001,515.4539420000001,515.4539420000001,,518.0527243000001,left,0.0,16.777670299999954,,,,,,,,,,,,,,,,,,,,,,,,,,,,,sub-214,1.0,random_dot,60.08376879045064,
left,left,speed,,,,,0.0,1.0,1.0,1.0,18.0,1.0,37.0,0.0,518.0674798,,,,,,,,,518.0541085,518.8669506000001,519.6664590999999,519.6508342000002,519.6508769000002,519.6664590999999,519.6664590999999,519.6664590999999,,520.9166816000002,left,1.0,15.431639299999915,,,,,,,,,,,,,,,,,,,,,,,,,,,,,sub-214,1.0,random_dot,60.08376879045064,
left,left,speed,,,,,0.0,1.0,1.0,1.0,19.0,0.0,38.0,0.0,520.9317896000002,,,,,,,,,520.9176508999999,521.7309783000001,522.5306853000002,522.5145566000001,522.5145950000001,522.5306853000002,522.5306853000002,522.5306853000002,,523.5132647,left,1.0,15.158658299999844,,,,,,,,,,,,,,,,,,,,,,,,,,,,,sub-214,1.0,random_dot,60.08376879045064,
right,right,speed,,,,,0.0,1.0,1.0,1.0,19.0,1.0,39.0,1.0,523.5288052000001,,,,,,,,,523.5137567000002,523.6286660999999,524.428852,524.4126280999999,524.4127493000001,524.428852,524.428852,524.428852,,525.4465888999998,left,0.0,15.194737699999678,,,,,,,,,,,,,,,,,,,,,,,,,,,,,sub-214,1.0,random_dot,60.08376879045064,
right,right,speed,,,,,0.0,1.0,1.0,1.0,20.0,0.0,40.0,1.0,525.4607655999998,,,,,,,,,525.447928,525.5607070000001,526.3604060000002,526.3439183999999,526.3439530999999,526.3604060000002,526.3604060000002,526.3604060000002,,528.6925154999999,left,0.0,16.51527569999962,,,,,,,,,,,,,,,,,,,,,,,,,,,,,sub-214,1.0,random_dot,60.08376879045064,
left,left,speed,,,,,0.0,1.0,1.0,1.0,20.0,1.0,41.0,0.0,528.7075448,,,,,,,,,528.6936249,529.9065390000001,530.7224830999999,530.7058676000001,530.7058821999999,530.7224830999999,530.7224830999999,530.7224830999999,,532.6570571000002,left,1.0,16.117002299999967,,,,,,,,,,,,,,,,,,,,,,,,,,,,,sub-214,1.0,random_dot,60.08376879045064,
right,right,speed,,,,,0.0,1.0,1.0,1.0,21.0,0.0,42.0,1.0,532.6703692000001,,,,,,,,,532.6581417000002,533.4695231000001,534.2694666000002,534.2527971,534.2528155999998,534.2694666000002,534.2694666000002,534.2694666000002,,536.3379249,left,0.0,16.248828899999808,,,,,,,,,,,,,,,,,,,,,,,,,,,,,sub-214,1.0,random_dot,60.08376879045064,
left,left,speed,,,,,0.0,1.0,1.0,1.0,21.0,1.0,43.0,0.0,536.3501510000001,,,,,,,,,536.3384230000001,536.6997678000002,537.4997091999999,537.4829709999999,537.4829863,537.4997091999999,537.4997091999999,537.4997091999999,,540.7134119000002,left,1.0,17.38303850000011,,,,,,,,,,,,,,,,,,,,,,,,,,,,,sub-214,1.0,random_dot,60.08376879045064,
right,right,speed,,,,,0.0,1.0,1.0,1.0,22.0,0.0,44.0,1.0,540.7293475000001,,,,,,,,,540.7138875,541.9284410999999,542.7278298000001,542.7112232999998,542.7112393000002,542.7278298000001,542.7278298000001,542.7278298000001,,543.8450020999999,right,1.0,15.300314299999629,,,,,,,,,,,,,,,,,,,,,,,,,,,,,sub-214,1.0,random_dot,60.08376879045064,
left,left,speed,,,,,0.0,1.0,1.0,1.0,22.0,1.0,45.0,0.0,543.8598004,,,,,,,,,543.8455190999998,543.9599601,544.7759544999999,544.7590365000001,544.7590488000001,544.7759544999999,544.7759544999999,544.7759544999999,,545.7760973,left,1.0,15.174803599999905,,,,,,,,,,,,,,,,,,,,,,,,,,,,,sub-214,1.0,random_dot,60.08376879045064,
right,right,speed,,,,,0.0,1.0,1.0,1.0,23.0,0.0,46.0,1.0,545.7912148,,,,,,,,,545.7769913000002,546.9901633999998,547.7897974000002,547.7730586000002,547.7730686999998,547.7897974000002,547.7897974000002,547.7897974000002,,548.5562183000002,right,1.0,14.936995099999876,,,,,,,,,,,,,,,,,,,,,,,,,,,,,sub-214,1.0,random_dot,60.08376879045064,
left,left,speed,,,,,0.0,1.0,1.0,1.0,23.0,1.0,47.0,0.0,548.5721831000001,,,,,,,,,548.556716,549.7709043999998,550.5706968,550.5538876999999,550.5539008999999,550.5706968,550.5706968,550.5706968,,553.1028541999999,left,1.0,16.700723599999947,,,,,,,,,,,,,,,,,,,,,,,,,,,,,sub-214,1.0,random_dot,60.08376879045064,
left,left,speed,,,,,0.0,1.0,1.0,1.0,24.0,0.0,48.0,0.0,553.1178270999999,,,,,,,,,553.1037694000001,554.3166523,555.1164868999999,555.0998279999999,555.0998398000002,555.1164868999999,555.1164868999999,555.1164868999999,,556.9663885,right,0.0,16.018846499999654,,,,,,,,,,,,,,,,,,,,,,,,,,,,,sub-214,1.0,random_dot,60.08376879045064,
right,right,speed,,,,,0.0,1.0,1.0,1.0,24.0,1.0,49.0,1.0,556.9811135999998,,,,,,,,,556.9676008000001,557.3312257000002,558.1302295999999,558.1146973999998,558.1147378000001,558.1302295999999,558.1302295999999,558.1302295999999,,559.6463010000002,right,1.0,15.685913499999517,,,,,,,,,,,,,,,,,,,,,,,,,,,,,sub-214,1.0,random_dot,60.08376879045064,
left,left,speed,,,,,0.0,1.0,1.0,1.0,25.0,0.0,50.0,0.0,559.6617983000001,,,,,,,,,559.6467363000002,559.7616225000002,560.5613569000002,560.5446631,560.5446766999999,560.5613569000002,560.5613569000002,560.5613569000002,,561.795991,left,1.0,15.41761439999982,,,,,,,,,,,,,,,,,,,,,,,,,,,,,sub-214,1.0,random_dot,60.08376879045064,
right,right,speed,,,,,0.0,1.0,1.0,1.0,25.0,1.0,51.0,1.0,561.8100645999998,,,,,,,,,561.7967285999998,562.1599424999999,562.9758704000001,562.9591823999999,562.9591962,562.9758704000001,562.9758704000001,562.9758704000001,,564.2251827,left,0.0,15.43220969999993,,,,,,,,,,,,,,,,,,,,,,,,,,,,,sub-214,1.0,random_dot,60.08376879045064,
left,left,speed,,,,,0.0,1.0,1.0,1.0,26.0,0.0,52.0,0.0,564.2407066999999,,,,,,,,,564.2257402,564.5903619999999,565.3904438,565.3738524,565.3738724999998,565.3904438,565.3904438,565.3904438,,567.6385371000001,left,1.0,16.428433399999903,,,,,,,,,,,,,,,,,,,,,,,,,,,,,sub-214,1.0,random_dot,60.08376879045064,
right,right,speed,,,,,0.0,1.0,1.0,1.0,26.0,1.0,53.0,1.0,567.6542946,,,,,,,,,567.6390393000001,568.0038493000002,568.8036453999998,568.7870011,568.7870161999999,568.8036453999998,568.8036453999998,568.8036453999998,,570.6359022000001,right,1.0,16.00760450000007,,,,,,,,,,,,,,,,,,,,,,,,,,,,,sub-214,1.0,random_dot,60.08376879045064,
left,left,speed,,,,,0.0,1.0,1.0,1.0,27.0,0.0,54.0,0.0,570.6516282000002,,,,,,,,,570.6363658999999,571.0011364000002,571.8010527000001,571.7847738,571.7848017000001,571.8010527000001,571.8010527000001,571.8010527000001,,573.587775,right,0.0,15.96495049999976,,,,,,,,,,,,,,,,,,,,,,,,,,,,,sub-214,1.0,random_dot,60.08376879045064,
right,right,speed,,,,,0.0,1.0,1.0,1.0,27.0,1.0,55.0,1.0,573.5986732000001,,,,,,,,,573.5882617000002,574.3983478,575.2147424999998,575.1984364999998,575.1984683999999,575.2147424999998,575.2147424999998,575.2147424999998,,576.5804705,right,1.0,15.53629839999985,,,,,,,,,,,,,,,,,,,,,,,,,,,,,sub-214,1.0,random_dot,60.08376879045064,
right,right,speed,,,,,0.0,1.0,1.0,1.0,28.0,0.0,56.0,1.0,576.5959398999998,,,,,,,,,576.5815855999999,576.9458997000002,577.7618133000001,577.7450070999998,577.7450367000001,577.7618133000001,577.7618133000001,577.7618133000001,,579.1776067999999,right,1.0,15.59051690000024,,,,,,,,,,,,,,,,,,,,,,,,,,,,,sub-214,1.0,random_dot,60.08376879045064,
left,left,speed,,,,,0.0,1.0,1.0,1.0,28.0,1.0,57.0,0.0,579.1933770999999,,,,,,,,,579.1780752,579.9930939999999,580.8089356,580.7921299999998,580.7921434999998,580.8089356,580.8089356,580.8089356,,581.8766054000002,left,1.0,15.242850200000248,,,,,,,,,,,,,,,,,,,,,,,,,,,,,sub-214,1.0,random_dot,60.08376879045064,
left,left,speed,,,,,0.0,1.0,1.0,1.0,29.0,0.0,58.0,0.0,581.8916130000002,,,,,,,,,581.8777921000001,582.2408777,583.0405455,583.0250787999998,583.0251293000001,583.0405455,583.0405455,583.0405455,,583.9909981000001,left,1.0,15.121877300000053,,,,,,,,,,,,,,,,,,,,,,,,,,,,,sub-214,1.0,random_dot,60.08376879045064,
right,right,speed,,,,,0.0,1.0,1.0,1.0,29.0,1.0,59.0,1.0,584.0058910000002,,,,,,,,,583.9921807000001,584.3556752,585.1551439999998,585.1385025999998,585.1385149000002,585.1551439999998,585.1551439999998,585.1551439999998,,586.5400429000001,left,0.0,15.56739289999996,,,,,,,,,,,,,,,,,,,,,,,,,,,,,sub-214,1.0,random_dot,60.08376879045064,
,,speed,,,,,0.0,1.0,1.0,1.0,,,,,,,,,,,,,,,,,,,,,,,,,,,,,,,,,,,,,,,,,,,,,,,,,,,,,,,sub-214,1.0,random_dot,60.08376879045064,
,,,,,,,,,,,,,,,,,,,,,,,,,,,,,,,,,,,,,,,,,,,,,,,,,,,,,,,,,,,,,,,586.5411961,586.5535459000002,sub-214,,,,
