wordCTK,colorCTK,corrAnsCTK,congruentCTK,thisN,thisTrialN,thisRepN,keyResp_CTK.keys,keyResp_CTK.corr,keyResp_CTK.rt,keyResp_CTK.duration,wordPractice,colorPractice,corrAnsPractice,congruentPractice,respPractice.keys,respPractice.corr,respPractice.rt,respPractice.duration,word,color,corrAns,congruent,keyResp_test_run.keys,keyResp_test_run.corr,keyResp_test_run.rt,keyResp_test_run.duration,trials_CTK.thisRepN,trials_CTK.thisTrialN,trials_CTK.thisN,trials_CTK.thisIndex,trials_practice.thisRepN,trials_practice.thisTrialN,trials_practice.thisN,trials_practice.thisIndex,trials_test.thisRepN,trials_test.thisTrialN,trials_test.thisN,trials_test.thisIndex,thisRow.t,notes,instruction.started,instr_text.started,instr_image.started,instr_resp.started,instruction.stopped,instr_resp.keys,instr_resp.rt,instr_resp.duration,instr_color_to_key.started,instr_ctk.started,resp_ctk.started,instr_color_to_key.stopped,resp_ctk.keys,resp_ctk.rt,resp_ctk.duration,ITI.started,fixcross.started,fixcross.stopped,ITI.stopped,color_to_key_run.started,stimulus_CTK.started,keyResp_CTK.started,color_to_key_run.stopped,trials_CTK.keyResp_CTK.keys,trials_CTK.keyResp_CTK.corr,trials_CTK.keyResp_CTK.rt,trials_CTK.keyResp_CTK.duration,instr_practice.started,instr_practice_text.started,instr_practice_resp.started,instr_practice.stopped,instr_practice_resp.keys,instr_practice_resp.rt,instr_practice_resp.duration,practice_run.started,stimulus_practice.started,respPractice.started,practice_run.stopped,trials_practice.respPractice.keys,trials_practice.respPractice.corr,trials_practice.respPractice.rt,trials_practice.respPractice.duration,feedback.started,textFeedback.started,feedback.stopped,textFeedback.stopped,instr_test.started,instr_test_text.started,instr_test_resp.started,instr_test.stopped,instr_test_resp.keys,instr_test_resp.rt,instr_test_resp.duration,test_run.started,stimulus_test_run.started,keyResp_test_run.started,test_run.stopped,trials_test.keyResp_test_run.keys,trials_test.keyResp_test_run.corr,trials_test.keyResp_test_run.rt,trials_test.keyResp_test_run.duration,goodbye.started,textGoodbye.started,textGoodbye.stopped,goodbye.stopped,participant,session,expName,frameRate,Unnamed: 113
,,,,,,,,,,,,,,,,,,,,,,,,,,,,,,,,,,,,,,,,,0.0095996998716145,0.0451889999676495,0.0451889999676495,0.0451889999676495,89.08213460003026,space,89.0244291999843,,,,,,,,,,,,,,,,,,,,,,,,,,,,,,,,,,,,,,,,,,,,,,,,,,,,,,,,,,,sub-171,1,stroop_test,60.06763611385583,
,,,,,,,,,,,,,,,,,,,,,,,,,,,,,,,,,,,,,,,,,,,,,,,,,89.08219209988602,89.09845190006308,89.09845190006308,97.54890679987147,space,8.444938199827448,,,,,,,,,,,,,,,,,,,,,,,,,,,,,,,,,,,,,,,,,,,,,,,,,,,,sub-171,1,stroop_test,60.06763611385583,
test,red,r,1.0,0.0,0.0,0.0,r,1.0,1.3151720999740064,,,,,,,,,,,,,,,,,,0.0,0.0,0.0,0.0,,,,,,,,,97.60178210004231,,,,,,,,,,,,,,,,,97.59260919992812,97.8976938999258,98.7010468998924,98.6812181000132,98.68830809998326,98.7010468998924,98.7010468998924,100.0324738000054,r,1.0,1.3151720999740064,,,,,,,,,,,,,,,,,,,,,,,,,,,,,,,,,,,,,,,,sub-171,1,stroop_test,60.06763611385583,
test,blue,b,1.0,1.0,1.0,0.0,b,1.0,0.9014971000142395,,,,,,,,,,,,,,,,,,0.0,1.0,1.0,2.0,,,,,,,,,100.04755720007232,,,,,,,,,,,,,,,,,100.03272769995964,100.84782969998196,101.64832430006936,101.63247630000114,101.63287209998816,101.64832430006936,101.64832430006936,102.56542519992216,b,1.0,0.9014971000142395,,,,,,,,,,,,,,,,,,,,,,,,,,,,,,,,,,,,,,,,sub-171,1,stroop_test,60.06763611385583,
test,yellow,g,1.0,2.0,2.0,0.0,g,1.0,0.5983758999500424,,,,,,,,,,,,,,,,,,0.0,2.0,2.0,1.0,,,,,,,,,102.58107910002582,,,,,,,,,,,,,,,,,102.56568949995562,102.91441609989852,103.71497890003955,103.69889319990762,103.69926179992036,103.71497890003955,103.71497890003955,104.31589640001766,g,1.0,0.5983758999500424,,,,,,,,,,,,,,,,,,,,,,,,,,,,,,,,,,,,,,,,sub-171,1,stroop_test,60.06763611385583,
test,blue,b,1.0,3.0,0.0,1.0,b,1.0,0.8236874002031982,,,,,,,,,,,,,,,,,,1.0,0.0,3.0,2.0,,,,,,,,,104.3309772000648,,,,,,,,,,,,,,,,,104.31614989996888,105.5151364998892,106.3152095999103,106.29932340001687,106.29975209990516,106.3152095999103,106.3152095999103,107.14875050005504,b,1.0,0.8236874002031982,,,,,,,,,,,,,,,,,,,,,,,,,,,,,,,,,,,,,,,,sub-171,1,stroop_test,60.06763611385583,
test,red,r,1.0,4.0,1.0,1.0,r,1.0,0.99365029996261,,,,,,,,,,,,,,,,,,1.0,1.0,4.0,0.0,,,,,,,,,107.16464879992418,,,,,,,,,,,,,,,,,107.1489719999954,107.24815190001392,108.04808939993382,108.0322020999156,108.03257959987968,108.04808939993382,108.04808939993382,109.04933569999412,r,1.0,0.99365029996261,,,,,,,,,,,,,,,,,,,,,,,,,,,,,,,,,,,,,,,,sub-171,1,stroop_test,60.06763611385583,
test,yellow,g,1.0,5.0,2.0,1.0,g,1.0,0.5038008000701666,,,,,,,,,,,,,,,,,,1.0,2.0,5.0,1.0,,,,,,,,,109.06450810004026,,,,,,,,,,,,,,,,,109.04955039988272,109.84910389990546,110.6483493000269,110.63230079994536,110.63267089985312,110.6483493000269,110.6483493000269,111.16551660001278,g,1.0,0.5038008000701666,,,,,,,,,,,,,,,,,,,,,,,,,,,,,,,,,,,,,,,,sub-171,1,stroop_test,60.06763611385583,
test,red,r,1.0,6.0,0.0,2.0,r,1.0,0.858285800088197,,,,,,,,,,,,,,,,,,2.0,0.0,6.0,0.0,,,,,,,,,111.18116410006768,,,,,,,,,,,,,,,,,111.16573400003836,112.36519569996744,113.164580399869,113.1482792000752,113.14859239989892,113.164580399869,113.164580399869,114.03254189994186,r,1.0,0.858285800088197,,,,,,,,,,,,,,,,,,,,,,,,,,,,,,,,,,,,,,,,sub-171,1,stroop_test,60.06763611385583,
test,yellow,g,1.0,7.0,1.0,2.0,g,1.0,1.0064991998951882,,,,,,,,,,,,,,,,,,2.0,1.0,7.0,1.0,,,,,,,,,114.04762730002405,,,,,,,,,,,,,,,,,114.03278720006348,115.24806889984757,116.04819560004398,116.03232829994522,116.03269669995645,116.04819560004398,116.04819560004398,117.06583689991383,g,1.0,1.0064991998951882,,,,,,,,,,,,,,,,,,,,,,,,,,,,,,,,,,,,,,,,sub-171,1,stroop_test,60.06763611385583,
test,blue,b,1.0,8.0,2.0,2.0,b,1.0,0.7972915999125689,,,,,,,,,,,,,,,,,,2.0,2.0,8.0,2.0,,,,,,,,,117.08132330002265,,,,,,,,,,,,,,,,,117.06603659992106,117.18112690001726,117.98159969993868,117.96515569998884,117.96551580005324,117.98159969993868,117.98159969993868,118.78266620007344,b,1.0,0.7972915999125689,,,,,,,,,,,,,,,,,,,,,,,,,,,,,,,,,,,,,,,,sub-171,1,stroop_test,60.06763611385583,
test,yellow,g,1.0,9.0,0.0,3.0,g,1.0,0.5731266001239419,,,,,,,,,,,,,,,,,,3.0,0.0,9.0,1.0,,,,,,,,,118.7979445999954,,,,,,,,,,,,,,,,,118.78292210004292,119.5845176000148,120.39844259992242,120.38219009991737,120.38256040005945,120.39844259992242,120.39844259992242,120.98260180000216,g,1.0,0.5731266001239419,,,,,,,,,,,,,,,,,,,,,,,,,,,,,,,,,,,,,,,,sub-171,1,stroop_test,60.06763611385583,
test,red,r,1.0,10.0,1.0,3.0,r,1.0,0.6014346999581903,,,,,,,,,,,,,,,,,,3.0,1.0,10.0,0.0,,,,,,,,,120.99818510003388,,,,,,,,,,,,,,,,,120.98286470002496,122.18185000005178,122.98191129998304,122.96579849999398,122.96617590007372,122.98191129998304,122.98191129998304,123.59964859997854,r,1.0,0.6014346999581903,,,,,,,,,,,,,,,,,,,,,,,,,,,,,,,,,,,,,,,,sub-171,1,stroop_test,60.06763611385583,
test,blue,b,1.0,11.0,2.0,3.0,b,1.0,0.5276242999825627,,,,,,,,,,,,,,,,,,3.0,2.0,11.0,2.0,,,,,,,,,123.61470909998752,,,,,,,,,,,,,,,,,123.59984519984572,124.81517590000294,125.6171651999466,125.5989846000448,125.59932209993713,125.6171651999466,125.6171651999466,126.15074569988064,b,1.0,0.5276242999825627,,,,,,,,,,,,,,,,,,,,,,,,,,,,,,,,,,,,,,,,sub-171,1,stroop_test,60.06763611385583,
,,,,,,,,,,,,,,,,,,,,,,,,,,,,,,,,,,,,,,,,,,,,,,,,,,,,,,,,,,,,,,,,,,,,126.15092549985276,126.16809459985234,126.16809459985234,132.98535059997812,space,6.807043999899179,,,,,,,,,,,,,,,,,,,,,,,,,,,,,,,,,sub-171,1,stroop_test,60.06763611385583,
,,,,0.0,0.0,0.0,,,,,rot,blue,b,0.0,b,1.0,1.706236399943009,,,,,,,,,,,,,,0.0,0.0,0.0,2.0,,,,,133.03335959999822,,,,,,,,,,,,,,,,,133.02432269998826,133.34855949995108,134.15426640002988,134.13353669992648,,,,,,,,,,,,,,,,134.14122049999423,134.15426640002988,134.15426640002988,135.86601820006035,b,1.0,1.706236399943009,,135.87241879990324,135.88638349995017,136.88217099988833,,,,,,,,,,,,,,,,,,,,,sub-171,1,stroop_test,60.06763611385583,
,,,,1.0,1.0,0.0,,,,,gelb,blue,b,0.0,b,1.0,1.411403500009328,,,,,,,,,,,,,,0.0,1.0,1.0,9.0,,,,,136.89865159988403,,,,,,,,,,,,,,,,,136.8824499999173,137.6653718999587,138.47473010001704,138.45116579998285,,,,,,,,,,,,,,,,138.4606101999525,138.47473010001704,138.47473010001704,139.899046999868,b,1.0,1.411403500009328,,139.89938409999013,139.91564309992827,140.8996560999658,140.91538110002875,,,,,,,,,,,,,,,,,,,,sub-171,1,stroop_test,60.06763611385583,
,,,,2.0,2.0,0.0,,,,,blau,yellow,g,0.0,g,1.0,1.7714400999248028,,,,,,,,,,,,,,0.0,2.0,2.0,7.0,,,,,140.91538110002875,,,,,,,,,,,,,,,,,140.89990879991092,141.24879859993234,142.05243779998273,142.0331617000047,,,,,,,,,,,,,,,,142.03838809998706,142.05243779998273,142.05243779998273,143.83335089986213,g,1.0,1.7714400999248028,,143.83368110004812,143.8503453999292,144.83370489999652,144.8496840998996,,,,,,,,,,,,,,,,,,,,sub-171,1,stroop_test,60.06763611385583,
,,,,3.0,3.0,0.0,,,,,rot,red,r,1.0,r,1.0,1.0038791000843048,,,,,,,,,,,,,,0.0,3.0,3.0,0.0,,,,,144.8496840998996,,,,,,,,,,,,,,,,,144.8340356000699,145.18335739988834,145.98270609998144,145.9673349999357,,,,,,,,,,,,,,,,145.96968519990332,145.98270609998144,145.98270609998144,147.0007867999375,r,1.0,1.0038791000843048,,147.00135109992698,147.0162126000505,148.0150808999315,,,,,,,,,,,,,,,,,,,,,sub-171,1,stroop_test,60.06763611385583,
,,,,4.0,4.0,0.0,,,,,rot,red,r,1.0,r,1.0,0.8150726000312716,,,,,,,,,,,,,,0.0,4.0,4.0,1.0,,,,,148.0319244998973,,,,,,,,,,,,,,,,,148.0153099000454,149.21633829991333,150.015134899877,149.99945080000907,,,,,,,,,,,,,,,,149.9997876000125,150.015134899877,150.015134899877,150.8332950999029,r,1.0,0.8150726000312716,,150.8336942999158,150.84841159987263,151.83301729988307,151.84886839985847,,,,,,,,,,,,,,,,,,,,sub-171,1,stroop_test,60.06763611385583,
,,,,5.0,5.0,0.0,,,,,rot,yellow,g,0.0,g,1.0,1.044393700081855,,,,,,,,,,,,,,0.0,5.0,5.0,3.0,,,,,151.84886839985847,,,,,,,,,,,,,,,,,151.83327870001085,152.1984550000634,152.99990699999034,152.9836770999245,,,,,,,,,,,,,,,,152.98421079991385,152.99990699999034,152.99990699999034,154.0502444000449,g,1.0,1.044393700081855,,154.0505617999006,154.06736540002748,155.0655825000722,,,,,,,,,,,,,,,,,,,,,sub-171,1,stroop_test,60.06763611385583,
,,,,6.0,6.0,0.0,,,,,blau,blue,b,1.0,b,1.0,0.4991192000452429,,,,,,,,,,,,,,0.0,6.0,6.0,6.0,,,,,155.08225349988788,,,,,,,,,,,,,,,,,155.0658354999032,156.26549889985472,157.0657210999634,157.04945240006782,,,,,,,,,,,,,,,,157.05207929993048,157.0657210999634,157.0657210999634,157.56648249994032,b,1.0,0.4991192000452429,,157.5668762999121,157.58184739993885,158.5662560998462,158.58216720004566,,,,,,,,,,,,,,,,,,,,sub-171,1,stroop_test,60.06763611385583,
,,,,7.0,7.0,0.0,,,,,blau,blue,b,1.0,b,1.0,0.4622178999707103,,,,,,,,,,,,,,0.0,7.0,7.0,5.0,,,,,158.58216720004566,,,,,,,,,,,,,,,,,158.56648839986883,158.66566980001517,159.46577039989643,159.44957949989475,,,,,,,,,,,,,,,,159.44994149985723,159.46577039989643,159.46577039989643,159.93333829985932,b,1.0,0.4622178999707103,,159.93372590001673,159.9486163998954,160.9339856998995,,,,,,,,,,,,,,,,,,,,,sub-171,1,stroop_test,60.06763611385583,
,,,,8.0,8.0,0.0,,,,,blau,red,r,0.0,r,1.0,0.9959940998815,,,,,,,,,,,,,,0.0,8.0,8.0,4.0,,,,,160.9506808000151,,,,,,,,,,,,,,,,,160.93439690000378,161.03398179984652,161.83408199995756,161.81820950005203,,,,,,,,,,,,,,,,161.81887750001624,161.83408199995756,161.83408199995756,162.83336000004783,r,1.0,0.9959940998815,,162.83372049988247,162.8497830000706,163.8335527998861,,,,,,,,,,,,,,,,,,,,,sub-171,1,stroop_test,60.06763611385583,
,,,,9.0,9.0,0.0,,,,,gelb,yellow,g,1.0,g,1.0,0.7226489000022411,,,,,,,,,,,,,,0.0,9.0,9.0,10.0,,,,,163.84916189988144,,,,,,,,,,,,,,,,,163.83379049994983,163.93229739996605,164.73241579998285,164.71603029989635,,,,,,,,,,,,,,,,164.71875540004112,164.73241579998285,164.73241579998285,165.46626659994945,g,1.0,0.7226489000022411,,165.4666213998571,165.48303549992852,166.46592270000838,166.48180309985764,,,,,,,,,,,,,,,,,,,,sub-171,1,stroop_test,60.06763611385583,
,,,,10.0,10.0,0.0,,,,,gelb,red,r,0.0,r,1.0,1.219828699948266,,,,,,,,,,,,,,0.0,10.0,10.0,8.0,,,,,166.48180309985764,,,,,,,,,,,,,,,,,166.46613910002634,166.81595069984903,167.61650969996117,167.60077010001987,,,,,,,,,,,,,,,,167.60111270006746,167.61650969996117,167.61650969996117,168.8501086998731,r,1.0,1.219828699948266,,168.85051029990427,168.86533409985714,169.8507021998521,169.86668609990738,,,,,,,,,,,,,,,,,,,,sub-171,1,stroop_test,60.06763611385583,
,,,,11.0,11.0,0.0,,,,,gelb,yellow,g,1.0,g,1.0,0.8323792000301182,,,,,,,,,,,,,,0.0,11.0,11.0,11.0,,,,,169.86668609990738,,,,,,,,,,,,,,,,,169.85104219987988,169.95009619998746,170.76588699989952,170.7496622998733,,,,,,,,,,,,,,,,170.7500316000078,170.76588699989952,170.76588699989952,171.600086200051,g,1.0,0.8323792000301182,,171.60047249984927,171.6153946998529,172.59989030007273,172.61578939994797,,,,,,,,,,,,,,,,,,,,sub-171,1,stroop_test,60.06763611385583,
,,,,12.0,0.0,1.0,,,,,gelb,yellow,g,1.0,g,1.0,0.5331627000123262,,,,,,,,,,,,,,1.0,0.0,12.0,11.0,,,,,172.61578939994797,,,,,,,,,,,,,,,,,172.6001605000347,172.69904109998606,173.49924069992267,173.4831790998578,,,,,,,,,,,,,,,,173.48354960000142,173.49924069992267,173.49924069992267,174.03335609985515,g,1.0,0.5331627000123262,,174.03373249992728,174.0487682998646,175.03310719993897,175.04922370007262,,,,,,,,,,,,,,,,,,,,sub-171,1,stroop_test,60.06763611385583,
,,,,13.0,1.0,1.0,,,,,blau,blue,b,1.0,b,1.0,0.6330248001031578,,,,,,,,,,,,,,1.0,1.0,13.0,6.0,,,,,175.04922370007262,,,,,,,,,,,,,,,,,175.0333435998764,175.39936190005392,176.19965919991955,176.18343729991466,,,,,,,,,,,,,,,,176.18642509984784,176.19965919991955,176.19965919991955,176.83393880003132,b,1.0,0.6330248001031578,,176.834380999906,176.8490619000513,177.83309710002504,177.84934849990532,,,,,,,,,,,,,,,,,,,,sub-171,1,stroop_test,60.06763611385583,
,,,,14.0,2.0,1.0,,,,,rot,blue,b,0.0,r,0.0,0.5896237001288682,,,,,,,,,,,,,,1.0,2.0,14.0,2.0,,,,,177.84934849990532,,,,,,,,,,,,,,,,,177.83333890000358,178.19932019989938,178.99957009986974,178.9832379000727,,,,,,,,,,,,,,,,178.9856388999615,178.99957009986974,178.99957009986974,179.60044169984758,r,0.0,0.5896237001288682,,179.60551019990817,179.6193595000077,180.61611669999547,,,,,,,,,,,,,,,,,,,,,sub-171,1,stroop_test,60.06763611385583,
,,,,15.0,3.0,1.0,,,,,rot,red,r,1.0,r,1.0,0.8979813000187278,,,,,,,,,,,,,,1.0,3.0,15.0,1.0,,,,,180.632282699924,,,,,,,,,,,,,,,,,180.61637439997867,181.39950409997252,182.19951880001463,182.18331140000373,,,,,,,,,,,,,,,,182.1837075999938,182.19951880001463,182.19951880001463,183.10056190006435,r,1.0,0.8979813000187278,,183.1038502999581,183.118141700048,184.11609839997251,,,,,,,,,,,,,,,,,,,,,sub-171,1,stroop_test,60.06763611385583,
,,,,16.0,4.0,1.0,,,,,rot,red,r,1.0,r,1.0,0.7861850999761373,,,,,,,,,,,,,,1.0,4.0,16.0,0.0,,,,,184.13293269998397,,,,,,,,,,,,,,,,,184.11638249992396,185.31628530006856,186.11608890001665,186.0999381998554,,,,,,,,,,,,,,,,186.1003546998836,186.11608890001665,186.11608890001665,186.91708280006424,r,1.0,0.7861850999761373,,186.91752379992977,186.93226590007544,187.91690870001912,187.9327185000293,,,,,,,,,,,,,,,,,,,,sub-171,1,stroop_test,60.06763611385583,
,,,,17.0,5.0,1.0,,,,,gelb,yellow,g,1.0,g,1.0,0.7917909999378026,,,,,,,,,,,,,,1.0,5.0,17.0,10.0,,,,,187.9327185000293,,,,,,,,,,,,,,,,,187.91716549987905,188.73306940007024,189.53338170005009,189.51681780000217,,,,,,,,,,,,,,,,189.5200799999293,189.53338170005009,189.53338170005009,190.33358439989388,g,1.0,0.7917909999378026,,190.333980999887,190.34898919984695,191.3331297999248,191.34904400003143,,,,,,,,,,,,,,,,,,,,sub-171,1,stroop_test,60.06763611385583,
,,,,18.0,6.0,1.0,,,,,blau,yellow,g,0.0,g,1.0,1.2918403998482972,,,,,,,,,,,,,,1.0,6.0,18.0,7.0,,,,,191.34904400003143,,,,,,,,,,,,,,,,,191.3333717000205,192.132909799926,192.9329929999076,192.91677969996817,,,,,,,,,,,,,,,,192.9197750999592,192.9329929999076,192.9329929999076,194.23376809991896,g,1.0,1.2918403998482972,,194.234196000034,194.24901709984988,195.23333319998343,195.24950599996373,,,,,,,,,,,,,,,,,,,,sub-171,1,stroop_test,60.06763611385583,
,,,,19.0,7.0,1.0,,,,,blau,blue,b,1.0,b,1.0,1.817656500032172,,,,,,,,,,,,,,1.0,7.0,19.0,5.0,,,,,195.24950599996373,,,,,,,,,,,,,,,,,195.23358909995292,196.0494665000588,196.84960249997675,196.83347689989023,,,,,,,,,,,,,,,,196.8338800999336,196.84960249997675,196.84960249997675,198.6830950998701,b,1.0,1.817656500032172,,198.6834436999634,198.699498699978,199.6835642999504,199.6992672998458,,,,,,,,,,,,,,,,,,,,sub-171,1,stroop_test,60.06763611385583,
,,,,20.0,8.0,1.0,,,,,gelb,blue,b,0.0,b,1.0,1.122844099998474,,,,,,,,,,,,,,1.0,8.0,20.0,9.0,,,,,199.6992672998458,,,,,,,,,,,,,,,,,199.6838090000674,199.7827194000129,200.5830756998621,200.56682730000463,,,,,,,,,,,,,,,,200.56970130000263,200.5830756998621,200.5830756998621,201.71707689994943,b,1.0,1.122844099998474,,201.71748899994415,201.73244030005296,202.71700809989125,202.73293070006184,,,,,,,,,,,,,,,,,,,,sub-171,1,stroop_test,60.06763611385583,
,,,,21.0,9.0,1.0,,,,,gelb,red,r,0.0,r,1.0,0.826070100069046,,,,,,,,,,,,,,1.0,9.0,21.0,8.0,,,,,202.73293070006184,,,,,,,,,,,,,,,,,202.71726020006463,203.91639759996903,204.71650659991428,204.7003531998489,,,,,,,,,,,,,,,,204.70076989987865,204.71650659991428,204.71650659991428,205.5507902998943,r,1.0,0.826070100069046,,205.5512351000216,205.56599749997255,206.54988459986637,206.5663755000569,,,,,,,,,,,,,,,,,,,,sub-171,1,stroop_test,60.06763611385583,
,,,,22.0,10.0,1.0,,,,,blau,red,r,0.0,r,1.0,0.95795559999533,,,,,,,,,,,,,,1.0,10.0,22.0,4.0,,,,,206.5663755000569,,,,,,,,,,,,,,,,,206.55013539991344,206.66648539993912,207.46708679990843,207.450362799922,,,,,,,,,,,,,,,,207.4532313998789,207.46708679990843,207.46708679990843,208.43393509997983,r,1.0,0.95795559999533,,208.43434499995783,208.44930809992368,209.43381479987875,209.44976629992016,,,,,,,,,,,,,,,,,,,,sub-171,1,stroop_test,60.06763611385583,
,,,,23.0,11.0,1.0,,,,,rot,yellow,g,0.0,g,1.0,0.9269506998825818,,,,,,,,,,,,,,1.0,11.0,23.0,3.0,,,,,209.44976629992016,,,,,,,,,,,,,,,,,209.4340715999715,209.53290249989368,210.3333109000232,210.3171753999777,,,,,,,,,,,,,,,,210.32008840003985,210.3333109000232,210.3333109000232,211.26746149989776,g,1.0,0.9269506998825818,,211.26790679991245,211.28285610000603,212.26725999987684,212.28324869996868,,,,,,,,,,,,,,,,,,,,sub-171,1,stroop_test,60.06763611385583,
,,,,,,,,,,,,,,,,,,,,,,,,,,,,,,,,,,,,,,,,,,,,,,,,,,,,,,,,,,,,,,,,,,,,,,,,,,,,,,,,,,,,,,,212.2673667999916,212.28324869996868,212.28324869996868,220.78352939989415,space,8.484117799904197,,,,,,,,,,,,,,sub-171,1,stroop_test,60.06763611385583,
,,,,0.0,0.0,0.0,,,,,,,,,,,,,blau,red,r,0.0,r,1.0,0.933835499919951,,,,,,,,,,0.0,0.0,0.0,4.0,220.82343599991876,,,,,,,,,,,,,,,,,220.81412160000764,220.88334869989197,221.6833196999505,221.6668422999792,,,,,,,,,,,,,,,,,,,,,,,,,,,,,,,,,,,221.6695649998728,221.6833196999505,221.6833196999505,222.63325189985332,r,1.0,0.933835499919951,,,,,,sub-171,1,stroop_test,60.06763611385583,
,,,,1.0,1.0,0.0,,,,,,,,,,,,,rot,blue,b,0.0,g,0.0,0.9652797000017016,,,,,,,,,,0.0,1.0,1.0,2.0,222.6498435998801,,,,,,,,,,,,,,,,,222.6334817998577,222.98307249997745,223.7831951000262,223.76700200000775,,,,,,,,,,,,,,,,,,,,,,,,,,,,,,,,,,,223.76931890007108,223.7831951000262,223.7831951000262,224.75083020003515,g,0.0,0.9652797000017016,,,,,,sub-171,1,stroop_test,60.06763611385583,
,,,,2.0,2.0,0.0,,,,,,,,,,,,,gelb,blue,b,0.0,g,0.0,0.9477972998283803,,,,,,,,,,0.0,2.0,2.0,9.0,224.7659066000488,,,,,,,,,,,,,,,,,224.75110600003973,225.5495622998569,226.35034139989875,226.3341236000415,,,,,,,,,,,,,,,,,,,,,,,,,,,,,,,,,,,226.33698719996028,226.35034139989875,226.35034139989875,227.30108119989745,g,0.0,0.9477972998283803,,,,,,sub-171,1,stroop_test,60.06763611385583,
,,,,3.0,3.0,0.0,,,,,,,,,,,,,rot,yellow,g,0.0,g,1.0,0.8648215001448989,,,,,,,,,,0.0,3.0,3.0,3.0,227.3162247000728,,,,,,,,,,,,,,,,,227.3013798000757,228.1164668998681,228.9168895999901,228.90061370003968,,,,,,,,,,,,,,,,,,,,,,,,,,,,,,,,,,,228.90331409987996,228.9168895999901,228.9168895999901,229.78462439985012,g,1.0,0.8648215001448989,,,,,,sub-171,1,stroop_test,60.06763611385583,
,,,,4.0,4.0,0.0,,,,,,,,,,,,,gelb,yellow,g,1.0,g,1.0,0.7506063999608159,,,,,,,,,,0.0,4.0,4.0,10.0,229.79944319999777,,,,,,,,,,,,,,,,,229.7849256999325,230.59996389993464,231.4001700000372,231.3840880000498,,,,,,,,,,,,,,,,,,,,,,,,,,,,,,,,,,,231.38708749995567,231.4001700000372,231.4001700000372,232.1669787999708,g,1.0,0.7506063999608159,,,,,,sub-171,1,stroop_test,60.06763611385583,
,,,,5.0,5.0,0.0,,,,,,,,,,,,,blau,blue,b,1.0,b,1.0,0.7019360000267625,,,,,,,,,,0.0,5.0,5.0,6.0,232.1833075999748,,,,,,,,,,,,,,,,,232.16721499990672,232.9664600000251,233.7670445998665,233.750645800028,,,,,,,,,,,,,,,,,,,,,,,,,,,,,,,,,,,233.75345309986733,233.7670445998665,233.7670445998665,234.4842129999306,b,1.0,0.7019360000267625,,,,,,sub-171,1,stroop_test,60.06763611385583,
,,,,6.0,6.0,0.0,,,,,,,,,,,,,gelb,red,r,0.0,r,1.0,0.9009618000127376,,,,,,,,,,0.0,6.0,6.0,8.0,234.4994775999803,,,,,,,,,,,,,,,,,234.48449880001132,235.2835528999567,236.08359399996695,236.067350700032,,,,,,,,,,,,,,,,,,,,,,,,,,,,,,,,,,,236.07009040005505,236.08359399996695,236.08359399996695,237.00039419997483,r,1.0,0.9009618000127376,,,,,,sub-171,1,stroop_test,60.06763611385583,
,,,,7.0,7.0,0.0,,,,,,,,,,,,,gelb,yellow,g,1.0,g,1.0,0.964363400125876,,,,,,,,,,0.0,7.0,7.0,11.0,237.01636140001935,,,,,,,,,,,,,,,,,237.00066630006768,238.20022069988767,239.00024900003336,238.98419720004316,,,,,,,,,,,,,,,,,,,,,,,,,,,,,,,,,,,238.98457619990225,239.00024900003336,239.00024900003336,239.96784979989752,g,1.0,0.964363400125876,,,,,,sub-171,1,stroop_test,60.06763611385583,
,,,,8.0,8.0,0.0,,,,,,,,,,,,,blau,yellow,g,0.0,g,1.0,0.9395512999035418,,,,,,,,,,0.0,8.0,8.0,7.0,239.98276320006696,,,,,,,,,,,,,,,,,239.96812330000105,240.06680019991472,240.8670929998625,240.85102729988284,,,,,,,,,,,,,,,,,,,,,,,,,,,,,,,,,,,240.85389779997055,240.8670929998625,240.8670929998625,241.81763679999855,g,1.0,0.9395512999035418,,,,,,sub-171,1,stroop_test,60.06763611385583,
,,,,9.0,9.0,0.0,,,,,,,,,,,,,rot,red,r,1.0,r,1.0,0.8407292000483721,,,,,,,,,,0.0,9.0,9.0,0.0,241.83278020005676,,,,,,,,,,,,,,,,,241.81790070002896,243.01706940005533,243.81700949999504,243.8007197000552,,,,,,,,,,,,,,,,,,,,,,,,,,,,,,,,,,,243.80338429985568,243.81700949999504,243.81700949999504,244.66768740001132,r,1.0,0.8407292000483721,,,,,,sub-171,1,stroop_test,60.06763611385583,
,,,,10.0,10.0,0.0,,,,,,,,,,,,,blau,blue,b,1.0,b,1.0,1.4118242000695318,,,,,,,,,,0.0,10.0,10.0,5.0,244.6828461000696,,,,,,,,,,,,,,,,,244.66794899990785,245.48332939995453,246.2836607999634,246.26724840002132,,,,,,,,,,,,,,,,,,,,,,,,,,,,,,,,,,,246.26985649997368,246.2836607999634,246.2836607999634,247.70095849991776,b,1.0,1.4118242000695318,,,,,,sub-171,1,stroop_test,60.06763611385583,
,,,,11.0,11.0,0.0,,,,,,,,,,,,,rot,red,r,1.0,r,1.0,0.7680278001353145,,,,,,,,,,0.0,11.0,11.0,1.0,247.71830939990468,,,,,,,,,,,,,,,,,247.7011953999754,248.90055579994805,249.70021339994852,249.6834875999484,,,,,,,,,,,,,,,,,,,,,,,,,,,,,,,,,,,249.68547739996572,249.70021339994852,249.70021339994852,250.4844903999474,r,1.0,0.7680278001353145,,,,,,sub-171,1,stroop_test,60.06763611385583,
,,,,12.0,0.0,1.0,,,,,,,,,,,,,gelb,blue,b,0.0,b,1.0,0.8633907998446375,,,,,,,,,,1.0,0.0,12.0,9.0,250.5013983999379,,,,,,,,,,,,,,,,,250.48476779996415,250.85045569995415,251.65010540001091,251.63377989991568,,,,,,,,,,,,,,,,,,,,,,,,,,,,,,,,,,,251.6359880999662,251.65010540001091,251.65010540001091,252.51770389988087,b,1.0,0.8633907998446375,,,,,,sub-171,1,stroop_test,60.06763611385583,
,,,,13.0,1.0,1.0,,,,,,,,,,,,,rot,blue,b,0.0,b,1.0,0.7290602000430226,,,,,,,,,,1.0,1.0,13.0,2.0,252.53300200006925,,,,,,,,,,,,,,,,,252.5179758998565,252.6338156000711,253.4337128999177,253.41752570006065,,,,,,,,,,,,,,,,,,,,,,,,,,,,,,,,,,,253.4199369000271,253.4337128999177,253.4337128999177,254.1675509000197,b,1.0,0.7290602000430226,,,,,,sub-171,1,stroop_test,60.06763611385583,
,,,,14.0,2.0,1.0,,,,,,,,,,,,,blau,red,r,0.0,r,1.0,0.7618622998706996,,,,,,,,,,1.0,2.0,14.0,4.0,254.1830182999838,,,,,,,,,,,,,,,,,254.1678202999756,254.26668730005625,255.0675261998549,255.05095539987087,,,,,,,,,,,,,,,,,,,,,,,,,,,,,,,,,,,255.0542009999044,255.0675261998549,255.0675261998549,255.8343978000339,r,1.0,0.7618622998706996,,,,,,sub-171,1,stroop_test,60.06763611385583,
,,,,15.0,3.0,1.0,,,,,,,,,,,,,rot,red,r,1.0,r,1.0,0.7630669998470694,,,,,,,,,,1.0,3.0,15.0,1.0,255.84996749996208,,,,,,,,,,,,,,,,,255.83462249999863,256.18379130004905,256.98387009999715,256.96761299995705,,,,,,,,,,,,,,,,,,,,,,,,,,,,,,,,,,,256.9699007999152,256.98387009999715,256.98387009999715,257.7510931000579,r,1.0,0.7630669998470694,,,,,,sub-171,1,stroop_test,60.06763611385583,
,,,,16.0,4.0,1.0,,,,,,,,,,,,,blau,blue,b,1.0,b,1.0,1.0306351999752223,,,,,,,,,,1.0,4.0,16.0,6.0,257.766535700066,,,,,,,,,,,,,,,,,257.7513140998781,258.1002489000093,258.90070850006305,258.8844915998634,,,,,,,,,,,,,,,,,,,,,,,,,,,,,,,,,,,258.8873721000273,258.90070850006305,258.90070850006305,259.93440090003423,b,1.0,1.0306351999752223,,,,,,sub-171,1,stroop_test,60.06763611385583,
,,,,17.0,5.0,1.0,,,,,,,,,,,,,blau,blue,b,1.0,b,1.0,0.541299199918285,,,,,,,,,,1.0,5.0,17.0,5.0,259.94988279999234,,,,,,,,,,,,,,,,,259.9346247999929,261.1346078000497,261.95012669987045,261.93366839992814,,,,,,,,,,,,,,,,,,,,,,,,,,,,,,,,,,,261.93396260007285,261.95012669987045,261.95012669987045,262.50125420000404,b,1.0,0.541299199918285,,,,,,sub-171,1,stroop_test,60.06763611385583,
,,,,18.0,6.0,1.0,,,,,,,,,,,,,rot,yellow,g,0.0,g,1.0,0.8897903999313712,,,,,,,,,,1.0,6.0,18.0,3.0,262.51655729999766,,,,,,,,,,,,,,,,,262.50153249991126,262.8505813998636,263.65065800002776,263.6342931999825,,,,,,,,,,,,,,,,,,,,,,,,,,,,,,,,,,,263.6369423000142,263.65065800002776,263.65065800002776,264.55141959991306,g,1.0,0.8897903999313712,,,,,,sub-171,1,stroop_test,60.06763611385583,
,,,,19.0,7.0,1.0,,,,,,,,,,,,,gelb,yellow,g,1.0,g,1.0,0.7729619999881834,,,,,,,,,,1.0,7.0,19.0,11.0,264.5665696999058,,,,,,,,,,,,,,,,,264.5517022998538,265.7666980999056,266.56723529985175,266.5511266000103,,,,,,,,,,,,,,,,,,,,,,,,,,,,,,,,,,,266.55384680000134,266.56723529985175,266.56723529985175,267.3513062999118,g,1.0,0.7729619999881834,,,,,,sub-171,1,stroop_test,60.06763611385583,
,,,,20.0,8.0,1.0,,,,,,,,,,,,,gelb,red,r,0.0,r,1.0,1.709278600057587,,,,,,,,,,1.0,8.0,20.0,8.0,267.3666029998567,,,,,,,,,,,,,,,,,267.35158440005034,267.450655200053,268.25009889993817,268.2339991000481,,,,,,,,,,,,,,,,,,,,,,,,,,,,,,,,,,,268.23436450003646,268.25009889993817,268.25009889993817,269.967804600019,r,1.0,1.709278600057587,,,,,,sub-171,1,stroop_test,60.06763611385583,
,,,,21.0,9.0,1.0,,,,,,,,,,,,,gelb,yellow,g,1.0,g,1.0,1.0657256999984384,,,,,,,,,,1.0,9.0,21.0,10.0,269.9851263000164,,,,,,,,,,,,,,,,,269.9680294999853,270.7674409998581,271.5673611999955,271.5512148998678,,,,,,,,,,,,,,,,,,,,,,,,,,,,,,,,,,,271.55161369987763,271.5673611999955,271.5673611999955,272.63450079993345,g,1.0,1.0657256999984384,,,,,,sub-171,1,stroop_test,60.06763611385583,
,,,,22.0,10.0,1.0,,,,,,,,,,,,,blau,yellow,g,0.0,g,1.0,0.4168865999672562,,,,,,,,,,1.0,10.0,22.0,7.0,272.6500134000089,,,,,,,,,,,,,,,,,272.6347689998802,273.83403979986906,274.6345563000068,274.6179293000605,,,,,,,,,,,,,,,,,,,,,,,,,,,,,,,,,,,274.62123589986004,274.6345563000068,274.6345563000068,275.0675915000029,g,1.0,0.4168865999672562,,,,,,sub-171,1,stroop_test,60.06763611385583,
,,,,23.0,11.0,1.0,,,,,,,,,,,,,rot,red,r,1.0,r,1.0,0.9077135000843556,,,,,,,,,,1.0,11.0,23.0,0.0,275.08402619999833,,,,,,,,,,,,,,,,,275.0678234999068,275.4173371999059,276.21734660002403,276.2009103000164,,,,,,,,,,,,,,,,,,,,,,,,,,,,,,,,,,,276.2031085998751,276.21734660002403,276.21734660002403,277.1350904998835,r,1.0,0.9077135000843556,,,,,,sub-171,1,stroop_test,60.06763611385583,
,,,,24.0,0.0,2.0,,,,,,,,,,,,,blau,red,r,0.0,r,1.0,0.8203027001582086,,,,,,,,,,2.0,0.0,24.0,4.0,277.1500981000718,,,,,,,,,,,,,,,,,277.1353907000739,278.3334154998884,279.1341694998555,279.1178331999108,,,,,,,,,,,,,,,,,,,,,,,,,,,,,,,,,,,279.1206420999952,279.1341694998555,279.1341694998555,279.96803499991074,r,1.0,0.8203027001582086,,,,,,sub-171,1,stroop_test,60.06763611385583,
,,,,25.0,1.0,2.0,,,,,,,,,,,,,gelb,red,r,0.0,r,1.0,0.7594278999604285,,,,,,,,,,2.0,1.0,25.0,8.0,279.9833620998543,,,,,,,,,,,,,,,,,279.96830479986966,281.1672050000634,281.9675189999398,281.95107680000365,,,,,,,,,,,,,,,,,,,,,,,,,,,,,,,,,,,281.9537642998621,281.9675189999398,281.9675189999398,282.73502009990625,r,1.0,0.7594278999604285,,,,,,sub-171,1,stroop_test,60.06763611385583,
,,,,26.0,2.0,2.0,,,,,,,,,,,,,blau,yellow,g,0.0,g,1.0,1.459182299906388,,,,,,,,,,2.0,2.0,26.0,7.0,282.7501349998638,,,,,,,,,,,,,,,,,282.7352903999854,283.0839287999552,283.8843765000347,283.8682200999465,,,,,,,,,,,,,,,,,,,,,,,,,,,,,,,,,,,283.8709480999969,283.8843765000347,283.8843765000347,285.3517473998945,g,1.0,1.459182299906388,,,,,,sub-171,1,stroop_test,60.06763611385583,
,,,,27.0,3.0,2.0,,,,,,,,,,,,,rot,red,r,1.0,r,1.0,0.95776559994556,,,,,,,,,,2.0,3.0,27.0,0.0,285.3669133998919,,,,,,,,,,,,,,,,,285.3520406000316,285.7009638999589,286.50082569988444,286.4842413000297,,,,,,,,,,,,,,,,,,,,,,,,,,,,,,,,,,,286.4867382000666,286.50082569988444,286.50082569988444,287.46855939994566,r,1.0,0.95776559994556,,,,,,sub-171,1,stroop_test,60.06763611385583,
,,,,28.0,4.0,2.0,,,,,,,,,,,,,gelb,blue,b,0.0,b,1.0,0.9708268002141268,,,,,,,,,,2.0,4.0,28.0,9.0,287.4835214000195,,,,,,,,,,,,,,,,,287.46886030002497,288.28417319990695,289.0844183000736,289.06772659998387,,,,,,,,,,,,,,,,,,,,,,,,,,,,,,,,,,,289.07031310000457,289.0844183000736,289.0844183000736,290.0684980000369,b,1.0,0.9708268002141268,,,,,,sub-171,1,stroop_test,60.06763611385583,
,,,,29.0,5.0,2.0,,,,,,,,,,,,,blau,blue,b,1.0,b,1.0,0.7035290999338031,,,,,,,,,,2.0,5.0,29.0,5.0,290.0835903999396,,,,,,,,,,,,,,,,,290.0687688998878,290.86704330006614,291.6678925000597,291.6516728999559,,,,,,,,,,,,,,,,,,,,,,,,,,,,,,,,,,,291.65440459991805,291.6678925000597,291.6678925000597,292.3851453999523,b,1.0,0.7035290999338031,,,,,,sub-171,1,stroop_test,60.06763611385583,
,,,,30.0,6.0,2.0,,,,,,,,,,,,,rot,red,r,1.0,r,1.0,0.6817995000164956,,,,,,,,,,2.0,6.0,30.0,1.0,292.4003566999454,,,,,,,,,,,,,,,,,292.38542229984887,293.1840005000122,293.98442319990136,293.968098500045,,,,,,,,,,,,,,,,,,,,,,,,,,,,,,,,,,,293.9706015998963,293.98442319990136,293.98442319990136,294.6679813000373,r,1.0,0.6817995000164956,,,,,,sub-171,1,stroop_test,60.06763611385583,
,,,,31.0,7.0,2.0,,,,,,,,,,,,,gelb,yellow,g,1.0,g,1.0,0.5838456000201404,,,,,,,,,,2.0,7.0,31.0,10.0,294.683806899935,,,,,,,,,,,,,,,,,294.6682249000296,295.4677683999762,296.2686248999089,296.2516606000718,,,,,,,,,,,,,,,,,,,,,,,,,,,,,,,,,,,296.2548674000427,296.2686248999089,296.2686248999089,296.8681739000604,g,1.0,0.5838456000201404,,,,,,sub-171,1,stroop_test,60.06763611385583,
,,,,32.0,8.0,2.0,,,,,,,,,,,,,rot,yellow,g,0.0,r,0.0,0.618001899914816,,,,,,,,,,2.0,8.0,32.0,3.0,296.88422059989534,,,,,,,,,,,,,,,,,296.8684382999781,298.06780159985647,298.8675265000202,298.85098879993893,,,,,,,,,,,,,,,,,,,,,,,,,,,,,,,,,,,298.8537834000308,298.8675265000202,298.8675265000202,299.50209599989466,r,0.0,0.618001899914816,,,,,,sub-171,1,stroop_test,60.06763611385583,
,,,,33.0,9.0,2.0,,,,,,,,,,,,,rot,blue,b,0.0,b,1.0,1.4788404998835176,,,,,,,,,,2.0,9.0,33.0,2.0,299.5170843999367,,,,,,,,,,,,,,,,,299.5023610999342,299.86775660002604,300.66774920001626,300.6514369000215,,,,,,,,,,,,,,,,,,,,,,,,,,,,,,,,,,,300.6518329998944,300.66774920001626,300.66774920001626,302.15191129990853,b,1.0,1.4788404998835176,,,,,,sub-171,1,stroop_test,60.06763611385583,
,,,,34.0,10.0,2.0,,,,,,,,,,,,,blau,blue,b,1.0,b,1.0,0.8301749001257122,,,,,,,,,,2.0,10.0,34.0,6.0,302.1669991998933,,,,,,,,,,,,,,,,,302.1521978999954,302.5178586000111,303.31743329996243,303.30108750006184,,,,,,,,,,,,,,,,,,,,,,,,,,,,,,,,,,,303.30336220003664,303.31743329996243,303.31743329996243,304.1519210999832,b,1.0,0.8301749001257122,,,,,,sub-171,1,stroop_test,60.06763611385583,
,,,,35.0,11.0,2.0,,,,,,,,,,,,,gelb,yellow,g,1.0,g,1.0,0.6373352000955492,,,,,,,,,,2.0,11.0,35.0,11.0,304.1670240999665,,,,,,,,,,,,,,,,,304.15219819988124,304.951910099946,305.75090310000814,305.7350228000432,,,,,,,,,,,,,,,,,,,,,,,,,,,,,,,,,,,305.7377353999764,305.75090310000814,305.75090310000814,306.4020233999472,g,1.0,0.6373352000955492,,,,,,sub-171,1,stroop_test,60.06763611385583,
,,,,36.0,0.0,3.0,,,,,,,,,,,,,blau,yellow,g,0.0,b,0.0,0.8570244000293314,,,,,,,,,,3.0,0.0,36.0,7.0,306.4172962000593,,,,,,,,,,,,,,,,,306.4022977000568,306.517776499968,307.31755440006964,307.30099379993044,,,,,,,,,,,,,,,,,,,,,,,,,,,,,,,,,,,307.3032100000419,307.31755440006964,307.31755440006964,308.18522930005565,b,0.0,0.8570244000293314,,,,,,sub-171,1,stroop_test,60.06763611385583,
,,,,37.0,1.0,3.0,,,,,,,,,,,,,rot,red,r,1.0,r,1.0,0.8979895999655128,,,,,,,,,,3.0,1.0,37.0,0.0,308.2008394000586,,,,,,,,,,,,,,,,,308.18550479994155,308.30125329992734,309.101272800006,309.0850362000056,,,,,,,,,,,,,,,,,,,,,,,,,,,,,,,,,,,309.0872754000593,309.101272800006,309.101272800006,310.00225619995035,r,1.0,0.8979895999655128,,,,,,sub-171,1,stroop_test,60.06763611385583,
,,,,38.0,2.0,3.0,,,,,,,,,,,,,blau,blue,b,1.0,b,1.0,1.4683868000283835,,,,,,,,,,3.0,2.0,38.0,6.0,310.01754279993474,,,,,,,,,,,,,,,,,310.0025641999673,311.21801609988324,312.02188659994863,312.0027079998981,,,,,,,,,,,,,,,,,,,,,,,,,,,,,,,,,,,312.0073989999946,312.02188659994863,312.02188659994863,313.501553399954,b,1.0,1.4683868000283835,,,,,,sub-171,1,stroop_test,60.06763611385583,
,,,,39.0,3.0,3.0,,,,,,,,,,,,,rot,blue,b,0.0,b,1.0,1.763171500060707,,,,,,,,,,3.0,3.0,39.0,2.0,313.5177754999604,,,,,,,,,,,,,,,,,313.5017816999461,314.7011045999825,315.5011092000641,315.4849700999912,,,,,,,,,,,,,,,,,,,,,,,,,,,,,,,,,,,315.48687519994564,315.5011092000641,315.5011092000641,317.26915060007013,b,1.0,1.763171500060707,,,,,,sub-171,1,stroop_test,60.06763611385583,
,,,,40.0,4.0,3.0,,,,,,,,,,,,,blau,blue,b,1.0,b,1.0,1.1394901999738067,,,,,,,,,,3.0,4.0,40.0,5.0,317.2841638000682,,,,,,,,,,,,,,,,,317.2694550000597,318.08469469984993,318.8847497999668,318.86842640000395,,,,,,,,,,,,,,,,,,,,,,,,,,,,,,,,,,,318.8714856998995,318.8847497999668,318.8847497999668,320.0368468000088,b,1.0,1.1394901999738067,,,,,,sub-171,1,stroop_test,60.06763611385583,
,,,,41.0,5.0,3.0,,,,,,,,,,,,,rot,yellow,g,0.0,g,1.0,0.9982811000663788,,,,,,,,,,3.0,5.0,41.0,3.0,320.0519101000391,,,,,,,,,,,,,,,,,320.03724119998515,320.8513472999912,321.6513098999858,321.6348651999142,,,,,,,,,,,,,,,,,,,,,,,,,,,,,,,,,,,321.6369775000494,321.6513098999858,321.6513098999858,322.6523661999963,g,1.0,0.9982811000663788,,,,,,sub-171,1,stroop_test,60.06763611385583,
,,,,42.0,6.0,3.0,,,,,,,,,,,,,gelb,yellow,g,1.0,g,1.0,0.7729905999731272,,,,,,,,,,3.0,6.0,42.0,10.0,322.66751479986124,,,,,,,,,,,,,,,,,322.652662999928,322.7679544999264,323.56821669987403,323.55188039992936,,,,,,,,,,,,,,,,,,,,,,,,,,,,,,,,,,,323.55478150001727,323.56821669987403,323.56821669987403,324.35219000000507,g,1.0,0.7729905999731272,,,,,,sub-171,1,stroop_test,60.06763611385583,
,,,,43.0,7.0,3.0,,,,,,,,,,,,,gelb,yellow,g,1.0,g,1.0,0.7418231999035925,,,,,,,,,,3.0,7.0,43.0,11.0,324.3673719000072,,,,,,,,,,,,,,,,,324.35247260006145,324.7014198999386,325.50137549987994,325.4850723000709,,,,,,,,,,,,,,,,,,,,,,,,,,,,,,,,,,,325.48546539992094,325.50137549987994,325.50137549987994,326.25228849984705,g,1.0,0.7418231999035925,,,,,,sub-171,1,stroop_test,60.06763611385583,
,,,,44.0,8.0,3.0,,,,,,,,,,,,,gelb,blue,b,0.0,b,1.0,1.3076742999255655,,,,,,,,,,3.0,8.0,44.0,9.0,326.2673990998883,,,,,,,,,,,,,,,,,326.2525692000054,326.60142729990184,327.40172480000183,327.38568890001625,,,,,,,,,,,,,,,,,,,,,,,,,,,,,,,,,,,327.38609299995005,327.40172480000183,327.40172480000183,328.7190308000427,b,1.0,1.3076742999255655,,,,,,sub-171,1,stroop_test,60.06763611385583,
,,,,45.0,9.0,3.0,,,,,,,,,,,,,blau,red,r,0.0,r,1.0,1.1082595000043511,,,,,,,,,,3.0,9.0,45.0,4.0,328.7343538999557,,,,,,,,,,,,,,,,,328.7193016000092,329.9346060999669,330.7387715000659,330.71979100001045,,,,,,,,,,,,,,,,,,,,,,,,,,,,,,,,,,,330.72442610003054,330.7387715000659,330.7387715000659,331.8521900998894,r,1.0,1.1082595000043511,,,,,,sub-171,1,stroop_test,60.06763611385583,
,,,,46.0,10.0,3.0,,,,,,,,,,,,,gelb,red,r,0.0,g,0.0,1.1517481999471784,,,,,,,,,,3.0,10.0,46.0,8.0,331.86838159989566,,,,,,,,,,,,,,,,,331.8524607999716,331.96941909985617,332.7696638999041,332.7524588999804,,,,,,,,,,,,,,,,,,,,,,,,,,,,,,,,,,,332.7558965999633,332.7696638999041,332.7696638999041,333.93581549986266,g,0.0,1.1517481999471784,,,,,,sub-171,1,stroop_test,60.06763611385583,
,,,,47.0,11.0,3.0,,,,,,,,,,,,,rot,red,r,1.0,r,1.0,0.9230132000520824,,,,,,,,,,3.0,11.0,47.0,1.0,333.95139579987153,,,,,,,,,,,,,,,,,333.9361000000499,334.304636699846,335.1188288999256,335.102538399864,,,,,,,,,,,,,,,,,,,,,,,,,,,,,,,,,,,335.1054688000586,335.1188288999256,335.1188288999256,336.0523244999349,r,1.0,0.9230132000520824,,,,,,sub-171,1,stroop_test,60.06763611385583,
,,,,48.0,0.0,4.0,,,,,,,,,,,,,rot,red,r,1.0,r,1.0,0.8001993999350816,,,,,,,,,,4.0,0.0,48.0,1.0,336.0678594999481,,,,,,,,,,,,,,,,,336.05255450005643,336.1512845999096,336.95167189999484,336.9355260999873,,,,,,,,,,,,,,,,,,,,,,,,,,,,,,,,,,,336.93592269998044,336.95167189999484,336.95167189999484,337.75292170001194,r,1.0,0.8001993999350816,,,,,,sub-171,1,stroop_test,60.06763611385583,
,,,,49.0,1.0,4.0,,,,,,,,,,,,,rot,red,r,1.0,r,1.0,0.8437204998917878,,,,,,,,,,4.0,1.0,49.0,0.0,337.7675983000081,,,,,,,,,,,,,,,,,337.75321869994514,338.56832579988986,339.3682579998858,339.352296799887,,,,,,,,,,,,,,,,,,,,,,,,,,,,,,,,,,,339.3526918999851,339.3682579998858,339.3682579998858,340.2188852999825,r,1.0,0.8437204998917878,,,,,,sub-171,1,stroop_test,60.06763611385583,
,,,,50.0,2.0,4.0,,,,,,,,,,,,,blau,red,r,0.0,r,1.0,1.1078184999059886,,,,,,,,,,4.0,2.0,50.0,4.0,340.23450480005704,,,,,,,,,,,,,,,,,340.21913199988194,341.01823769998737,341.81912739994004,341.8023593998514,,,,,,,,,,,,,,,,,,,,,,,,,,,,,,,,,,,341.80541049991734,341.81912739994004,341.81912739994004,342.9360193000175,r,1.0,1.1078184999059886,,,,,,sub-171,1,stroop_test,60.06763611385583,
,,,,51.0,3.0,4.0,,,,,,,,,,,,,rot,yellow,g,0.0,g,1.0,1.5591553999111056,,,,,,,,,,4.0,3.0,51.0,3.0,342.95092880004086,,,,,,,,,,,,,,,,,342.9362983999308,343.05164369987324,343.8518268999178,343.8356746998616,,,,,,,,,,,,,,,,,,,,,,,,,,,,,,,,,,,343.8381910999305,343.8518268999178,343.8518268999178,345.4193454000633,g,1.0,1.5591553999111056,,,,,,sub-171,1,stroop_test,60.06763611385583,
,,,,52.0,4.0,4.0,,,,,,,,,,,,,blau,blue,b,1.0,b,1.0,1.0084630998317152,,,,,,,,,,4.0,4.0,52.0,5.0,345.434462599922,,,,,,,,,,,,,,,,,345.419622000074,345.78508029994555,346.58491900004447,346.5685085998848,,,,,,,,,,,,,,,,,,,,,,,,,,,,,,,,,,,346.5713783998508,346.58491900004447,346.58491900004447,347.6030945999082,b,1.0,1.0084630998317152,,,,,,sub-171,1,stroop_test,60.06763611385583,
,,,,53.0,5.0,4.0,,,,,,,,,,,,,blau,yellow,g,0.0,g,1.0,1.112581899855286,,,,,,,,,,4.0,5.0,53.0,7.0,347.618831400061,,,,,,,,,,,,,,,,,347.6034343999345,347.7018452999182,348.5018070000224,348.485505099874,,,,,,,,,,,,,,,,,,,,,,,,,,,,,,,,,,,348.4858315999154,348.5018070000224,348.5018070000224,349.61932879989035,g,1.0,1.112581899855286,,,,,,sub-171,1,stroop_test,60.06763611385583,
,,,,54.0,6.0,4.0,,,,,,,,,,,,,rot,blue,b,0.0,b,1.0,1.4653310000430793,,,,,,,,,,4.0,6.0,54.0,2.0,349.63520379993133,,,,,,,,,,,,,,,,,349.6195689998567,350.43471679999493,351.23502349993214,351.2185380998999,,,,,,,,,,,,,,,,,,,,,,,,,,,,,,,,,,,351.2205546000041,351.23502349993214,351.23502349993214,352.70237659988925,b,1.0,1.4653310000430793,,,,,,sub-171,1,stroop_test,60.06763611385583,
,,,,55.0,7.0,4.0,,,,,,,,,,,,,gelb,red,r,0.0,r,1.0,1.4087464001495391,,,,,,,,,,4.0,7.0,55.0,8.0,352.7182149998844,,,,,,,,,,,,,,,,,352.70265350001864,353.9018399999477,354.7016823999584,354.68536880007014,,,,,,,,,,,,,,,,,,,,,,,,,,,,,,,,,,,354.68806670000777,354.7016823999584,354.7016823999584,356.1194909000769,r,1.0,1.4087464001495391,,,,,,sub-171,1,stroop_test,60.06763611385583,
,,,,56.0,8.0,4.0,,,,,,,,,,,,,gelb,yellow,g,1.0,g,1.0,0.9432481001131237,,,,,,,,,,4.0,8.0,56.0,11.0,356.13515589991584,,,,,,,,,,,,,,,,,356.1197583999019,356.9184520000126,357.718593099853,357.7024968999904,,,,,,,,,,,,,,,,,,,,,,,,,,,,,,,,,,,357.7028973998968,357.718593099853,357.718593099853,358.66919779987074,g,1.0,0.9432481001131237,,,,,,sub-171,1,stroop_test,60.06763611385583,
,,,,57.0,9.0,4.0,,,,,,,,,,,,,gelb,blue,b,0.0,b,1.0,1.1247282999102026,,,,,,,,,,4.0,9.0,57.0,9.0,358.6852182999719,,,,,,,,,,,,,,,,,358.6694690999575,358.7685725998599,359.56839519995265,359.55198489991017,,,,,,,,,,,,,,,,,,,,,,,,,,,,,,,,,,,359.5523423999548,359.56839519995265,359.56839519995265,360.7028391000349,b,1.0,1.1247282999102026,,,,,,sub-171,1,stroop_test,60.06763611385583,
,,,,58.0,10.0,4.0,,,,,,,,,,,,,gelb,yellow,g,1.0,g,1.0,1.0787982000038028,,,,,,,,,,4.0,10.0,58.0,10.0,360.71835380000994,,,,,,,,,,,,,,,,,360.70312269986607,361.0684767998755,361.8685174998827,361.8523142999038,,,,,,,,,,,,,,,,,,,,,,,,,,,,,,,,,,,361.8526840000413,361.8685174998827,361.8685174998827,362.9526918998454,g,1.0,1.0787982000038028,,,,,,sub-171,1,stroop_test,60.06763611385583,
,,,,59.0,11.0,4.0,,,,,,,,,,,,,blau,blue,b,1.0,b,1.0,1.1677077999338508,,,,,,,,,,4.0,11.0,59.0,6.0,362.9685184999835,,,,,,,,,,,,,,,,,362.9529645999428,363.3016114998609,364.10207229992375,364.085751599865,,,,,,,,,,,,,,,,,,,,,,,,,,,,,,,,,,,364.088475599885,364.10207229992375,364.10207229992375,365.2861518000718,b,1.0,1.1677077999338508,,,,,,sub-171,1,stroop_test,60.06763611385583,
,,,,60.0,0.0,5.0,,,,,,,,,,,,,blau,yellow,g,0.0,g,1.0,1.2844527999404818,,,,,,,,,,5.0,0.0,60.0,7.0,365.3018849999644,,,,,,,,,,,,,,,,,365.28643810004,366.4852819000371,367.2854645999614,367.2691124000121,,,,,,,,,,,,,,,,,,,,,,,,,,,,,,,,,,,367.26949299988337,367.2854645999614,367.2854645999614,368.5861907999497,g,1.0,1.2844527999404818,,,,,,sub-171,1,stroop_test,60.06763611385583,
,,,,61.0,1.0,5.0,,,,,,,,,,,,,gelb,blue,b,0.0,b,1.0,1.323750999988988,,,,,,,,,,5.0,1.0,61.0,9.0,368.6021026999224,,,,,,,,,,,,,,,,,368.5864682998508,368.6853980000597,369.4869704998564,369.4695222000592,,,,,,,,,,,,,,,,,,,,,,,,,,,,,,,,,,,369.4732112998609,369.4869704998564,369.4869704998564,370.8195235999301,b,1.0,1.323750999988988,,,,,,sub-171,1,stroop_test,60.06763611385583,
,,,,62.0,2.0,5.0,,,,,,,,,,,,,blau,red,r,0.0,r,1.0,0.9699607000220568,,,,,,,,,,5.0,2.0,62.0,4.0,370.8354438999668,,,,,,,,,,,,,,,,,370.81979049998336,371.6353529000189,372.43553739995696,372.4191902000457,,,,,,,,,,,,,,,,,,,,,,,,,,,,,,,,,,,372.4222680998501,372.43553739995696,372.43553739995696,373.42002830002457,r,1.0,0.9699607000220568,,,,,,sub-171,1,stroop_test,60.06763611385583,
,,,,63.0,3.0,5.0,,,,,,,,,,,,,blau,blue,b,1.0,b,1.0,1.280611300142482,,,,,,,,,,5.0,3.0,63.0,5.0,373.4355486999266,,,,,,,,,,,,,,,,,373.4203273998573,374.63559619989246,375.4355250999797,375.4194870998617,,,,,,,,,,,,,,,,,,,,,,,,,,,,,,,,,,,375.4198680999689,375.4355250999797,375.4355250999797,376.7197860998567,b,1.0,1.280611300142482,,,,,,sub-171,1,stroop_test,60.06763611385583,
,,,,64.0,4.0,5.0,,,,,,,,,,,,,gelb,red,r,0.0,r,1.0,1.2493218998424709,,,,,,,,,,5.0,4.0,64.0,8.0,376.7354717999697,,,,,,,,,,,,,,,,,376.7200531999115,377.5187482999172,378.3189550000243,378.3026638999581,,,,,,,,,,,,,,,,,,,,,,,,,,,,,,,,,,,378.3051078000572,378.3189550000243,378.3189550000243,379.5694925999269,r,1.0,1.2493218998424709,,,,,,sub-171,1,stroop_test,60.06763611385583,
,,,,65.0,5.0,5.0,,,,,,,,,,,,,gelb,yellow,g,1.0,g,1.0,1.065265699988231,,,,,,,,,,5.0,5.0,65.0,11.0,379.5851850998588,,,,,,,,,,,,,,,,,379.5697548000608,380.7687182999216,381.5687187998556,381.5527872999664,,,,,,,,,,,,,,,,,,,,,,,,,,,,,,,,,,,381.5531718998682,381.5687187998556,381.5687187998556,382.63605259987526,g,1.0,1.065265699988231,,,,,,sub-171,1,stroop_test,60.06763611385583,
,,,,66.0,6.0,5.0,,,,,,,,,,,,,rot,yellow,g,0.0,g,1.0,1.0301231001503766,,,,,,,,,,5.0,6.0,66.0,3.0,382.65211699996144,,,,,,,,,,,,,,,,,382.6363254999742,383.435518699931,384.2359412999358,384.2197946999222,,,,,,,,,,,,,,,,,,,,,,,,,,,,,,,,,,,384.22243199986406,384.2359412999358,384.2359412999358,385.2701383999083,g,1.0,1.0301231001503766,,,,,,sub-171,1,stroop_test,60.06763611385583,
,,,,67.0,7.0,5.0,,,,,,,,,,,,,gelb,yellow,g,1.0,g,1.0,0.6649943999946117,,,,,,,,,,5.0,7.0,67.0,10.0,385.2855611999985,,,,,,,,,,,,,,,,,385.2704415998887,385.3689596999902,386.1696496999357,386.1530058998615,,,,,,,,,,,,,,,,,,,,,,,,,,,,,,,,,,,386.15639090002514,386.1696496999357,386.1696496999357,386.8364711999893,g,1.0,0.6649943999946117,,,,,,sub-171,1,stroop_test,60.06763611385583,
,,,,68.0,8.0,5.0,,,,,,,,,,,,,rot,red,r,1.0,r,1.0,0.822270599892363,,,,,,,,,,5.0,8.0,68.0,0.0,386.8522204000037,,,,,,,,,,,,,,,,,386.8367436998524,388.03556260000914,388.83571380004287,388.8194577000104,,,,,,,,,,,,,,,,,,,,,,,,,,,,,,,,,,,388.8218674999662,388.83571380004287,388.83571380004287,389.6699177999981,r,1.0,0.822270599892363,,,,,,sub-171,1,stroop_test,60.06763611385583,
,,,,69.0,9.0,5.0,,,,,,,,,,,,,rot,red,r,1.0,r,1.0,0.6410982001107186,,,,,,,,,,5.0,9.0,69.0,1.0,389.68565390002914,,,,,,,,,,,,,,,,,389.6701972000301,389.7689942999277,390.5688751998823,390.5529775000177,,,,,,,,,,,,,,,,,,,,,,,,,,,,,,,,,,,390.5533401998691,390.5688751998823,390.5688751998823,391.219923599856,r,1.0,0.6410982001107186,,,,,,sub-171,1,stroop_test,60.06763611385583,
,,,,70.0,10.0,5.0,,,,,,,,,,,,,rot,blue,b,0.0,b,1.0,1.3451869999989867,,,,,,,,,,5.0,10.0,70.0,2.0,391.2356897999998,,,,,,,,,,,,,,,,,391.2201894999016,392.4189720998984,393.21918220003136,393.2030154999811,,,,,,,,,,,,,,,,,,,,,,,,,,,,,,,,,,,393.2033939999528,393.21918220003136,393.21918220003136,394.5701772999018,b,1.0,1.3451869999989867,,,,,,sub-171,1,stroop_test,60.06763611385583,
,,,,71.0,11.0,5.0,,,,,,,,,,,,,blau,blue,b,1.0,b,1.0,1.006412599934265,,,,,,,,,,5.0,11.0,71.0,6.0,394.5857871000189,,,,,,,,,,,,,,,,,394.5704640999902,394.6857974000741,395.4862631000578,395.4695337000303,,,,,,,,,,,,,,,,,,,,,,,,,,,,,,,,,,,395.4724030999933,395.4862631000578,395.4862631000578,396.5034528998658,b,1.0,1.006412599934265,,,,,,sub-171,1,stroop_test,60.06763611385583,
,,,,72.0,0.0,6.0,,,,,,,,,,,,,gelb,yellow,g,1.0,g,1.0,0.9924720998387784,,,,,,,,,,6.0,0.0,72.0,11.0,396.519155099988,,,,,,,,,,,,,,,,,396.5037420999725,396.6189935998991,397.4192115999758,397.402846199926,,,,,,,,,,,,,,,,,,,,,,,,,,,,,,,,,,,397.40584239992313,397.4192115999758,397.4192115999758,398.4198400999885,g,1.0,0.9924720998387784,,,,,,sub-171,1,stroop_test,60.06763611385583,
,,,,73.0,1.0,6.0,,,,,,,,,,,,,blau,red,r,0.0,r,1.0,1.075713299913332,,,,,,,,,,6.0,1.0,73.0,4.0,398.435704600066,,,,,,,,,,,,,,,,,398.4201110000722,398.51907350006513,399.31963529996574,399.30298470007256,,,,,,,,,,,,,,,,,,,,,,,,,,,,,,,,,,,399.3058027999941,399.31963529996574,399.31963529996574,400.4049110999331,r,1.0,1.075713299913332,,,,,,sub-171,1,stroop_test,60.06763611385583,
,,,,74.0,2.0,6.0,,,,,,,,,,,,,blau,yellow,g,0.0,g,1.0,1.0756063999142498,,,,,,,,,,6.0,2.0,74.0,7.0,400.4203725999687,,,,,,,,,,,,,,,,,400.4053459998686,400.5201923998538,401.335879500024,401.3197616999969,,,,,,,,,,,,,,,,,,,,,,,,,,,,,,,,,,,401.3201367999427,401.335879500024,401.335879500024,402.4204136000481,g,1.0,1.0756063999142498,,,,,,sub-171,1,stroop_test,60.06763611385583,
,,,,75.0,3.0,6.0,,,,,,,,,,,,,rot,red,r,1.0,r,1.0,1.0475066001527011,,,,,,,,,,6.0,3.0,75.0,1.0,402.4360867999494,,,,,,,,,,,,,,,,,402.4207285998855,403.6358095000032,404.4363273999188,404.4199701000471,,,,,,,,,,,,,,,,,,,,,,,,,,,,,,,,,,,404.42340229987167,404.4363273999188,404.4363273999188,405.4869874999858,r,1.0,1.0475066001527011,,,,,,sub-171,1,stroop_test,60.06763611385583,
,,,,76.0,4.0,6.0,,,,,,,,,,,,,gelb,blue,b,0.0,b,1.0,1.7515892998781055,,,,,,,,,,6.0,4.0,76.0,9.0,405.5024691999424,,,,,,,,,,,,,,,,,405.487275299849,405.8525606999174,406.6527702999301,406.6364642998669,,,,,,,,,,,,,,,,,,,,,,,,,,,,,,,,,,,406.639245999977,406.6527702999301,406.6527702999301,408.4201418000739,b,1.0,1.7515892998781055,,,,,,sub-171,1,stroop_test,60.06763611385583,
,,,,77.0,5.0,6.0,,,,,,,,,,,,,rot,red,r,1.0,r,1.0,1.2121868999674916,,,,,,,,,,6.0,5.0,77.0,0.0,408.4357962999493,,,,,,,,,,,,,,,,,408.420439499896,408.5192511999048,409.31930119986646,409.3028547998984,,,,,,,,,,,,,,,,,,,,,,,,,,,,,,,,,,,409.3053399999626,409.31930119986646,409.31930119986646,410.5368178000208,r,1.0,1.2121868999674916,,,,,,sub-171,1,stroop_test,60.06763611385583,
,,,,78.0,6.0,6.0,,,,,,,,,,,,,rot,yellow,g,0.0,g,1.0,2.096077299909666,,,,,,,,,,6.0,6.0,78.0,3.0,410.5526515999809,,,,,,,,,,,,,,,,,410.5370974999387,410.8856967000757,411.6860926998779,411.6699782998767,,,,,,,,,,,,,,,,,,,,,,,,,,,,,,,,,,,411.6704166999552,411.6860926998779,411.6860926998779,413.78696509986185,g,1.0,2.096077299909666,,,,,,sub-171,1,stroop_test,60.06763611385583,
,,,,79.0,7.0,6.0,,,,,,,,,,,,,blau,blue,b,1.0,b,1.0,1.2519174001645297,,,,,,,,,,6.0,7.0,79.0,5.0,413.8027027000208,,,,,,,,,,,,,,,,,413.7872582999989,414.1361118999776,414.93613360007294,414.9198302000296,,,,,,,,,,,,,,,,,,,,,,,,,,,,,,,,,,,414.9228071998805,414.93613360007294,414.93613360007294,416.2033144000452,b,1.0,1.2519174001645297,,,,,,sub-171,1,stroop_test,60.06763611385583,
,,,,80.0,8.0,6.0,,,,,,,,,,,,,rot,blue,b,0.0,b,1.0,1.3201019000262022,,,,,,,,,,6.0,8.0,80.0,2.0,416.2191280999687,,,,,,,,,,,,,,,,,416.2035821999889,417.4029272999615,418.2028788998723,418.186715599848,,,,,,,,,,,,,,,,,,,,,,,,,,,,,,,,,,,418.1893394999206,418.2028788998723,418.2028788998723,419.537201799918,b,1.0,1.3201019000262022,,,,,,sub-171,1,stroop_test,60.06763611385583,
,,,,81.0,9.0,6.0,,,,,,,,,,,,,blau,blue,b,1.0,b,1.0,0.7148353999946266,,,,,,,,,,6.0,9.0,81.0,6.0,419.5528017000761,,,,,,,,,,,,,,,,,419.5375043000095,420.7528249998577,421.55385400005616,421.536868999945,,,,,,,,,,,,,,,,,,,,,,,,,,,,,,,,,,,421.5401703999378,421.55385400005616,421.55385400005616,422.2702688998543,b,1.0,0.7148353999946266,,,,,,sub-171,1,stroop_test,60.06763611385583,
,,,,82.0,10.0,6.0,,,,,,,,,,,,,gelb,yellow,g,1.0,g,1.0,1.3572249999269843,,,,,,,,,,6.0,10.0,82.0,10.0,422.2860439000651,,,,,,,,,,,,,,,,,422.270583699923,422.3695024999324,423.1700140999165,423.1535860998556,,,,,,,,,,,,,,,,,,,,,,,,,,,,,,,,,,,423.15657250001095,423.1700140999165,423.1700140999165,424.5371780998539,g,1.0,1.3572249999269843,,,,,,sub-171,1,stroop_test,60.06763611385583,
,,,,83.0,11.0,6.0,,,,,,,,,,,,,gelb,red,r,0.0,r,1.0,1.0836438999976965,,,,,,,,,,6.0,11.0,83.0,8.0,424.5528826999944,,,,,,,,,,,,,,,,,424.5374718999956,424.636189899873,425.4362204000354,425.4201759998687,,,,,,,,,,,,,,,,,,,,,,,,,,,,,,,,,,,425.4206075000111,425.4362204000354,425.4362204000354,426.5209133999888,r,1.0,1.0836438999976965,,,,,,sub-171,1,stroop_test,60.06763611385583,
,,,,84.0,0.0,7.0,,,,,,,,,,,,,gelb,blue,b,0.0,g,0.0,2.896285800030455,,,,,,,,,,7.0,0.0,84.0,9.0,426.5363040000666,,,,,,,,,,,,,,,,,426.5212093999144,427.3360389000736,428.1362220998853,428.1201937000733,,,,,,,,,,,,,,,,,,,,,,,,,,,,,,,,,,,428.12057620007545,428.1362220998853,428.1362220998853,431.037167500006,g,0.0,2.896285800030455,,,,,,sub-171,1,stroop_test,60.06763611385583,
,,,,85.0,1.0,7.0,,,,,,,,,,,,,blau,red,r,0.0,r,1.0,1.3402998999226838,,,,,,,,,,7.0,1.0,85.0,4.0,431.0526399000082,,,,,,,,,,,,,,,,,431.0374308000319,431.40298209991306,432.2027813000605,432.186854199972,,,,,,,,,,,,,,,,,,,,,,,,,,,,,,,,,,,432.1897710999474,432.2027813000605,432.2027813000605,433.5535045000725,r,1.0,1.3402998999226838,,,,,,sub-171,1,stroop_test,60.06763611385583,
,,,,86.0,2.0,7.0,,,,,,,,,,,,,rot,blue,b,0.0,b,1.0,1.9479141000192608,,,,,,,,,,7.0,2.0,86.0,2.0,433.5695396999363,,,,,,,,,,,,,,,,,433.55377430003136,433.9027327999938,434.70311479992233,434.6866089999676,,,,,,,,,,,,,,,,,,,,,,,,,,,,,,,,,,,434.6890034999233,434.70311479992233,434.70311479992233,436.6539930000436,b,1.0,1.9479141000192608,,,,,,sub-171,1,stroop_test,60.06763611385583,
,,,,87.0,3.0,7.0,,,,,,,,,,,,,blau,blue,b,1.0,b,1.0,0.7546415999531746,,,,,,,,,,7.0,3.0,87.0,5.0,436.6697786999866,,,,,,,,,,,,,,,,,436.6542897999752,436.7696911999956,437.5699256998487,437.5537151000463,,,,,,,,,,,,,,,,,,,,,,,,,,,,,,,,,,,437.5566128999926,437.5699256998487,437.5699256998487,438.3373185999226,b,1.0,0.7546415999531746,,,,,,sub-171,1,stroop_test,60.06763611385583,
,,,,88.0,4.0,7.0,,,,,,,,,,,,,blau,blue,b,1.0,b,1.0,0.5224643000401556,,,,,,,,,,7.0,4.0,88.0,6.0,438.3528412000742,,,,,,,,,,,,,,,,,438.33760560001247,438.436337799998,439.2364697998855,439.2204670000356,,,,,,,,,,,,,,,,,,,,,,,,,,,,,,,,,,,439.2208235999569,439.2364697998855,439.2364697998855,439.77076500002295,b,1.0,0.5224643000401556,,,,,,sub-171,1,stroop_test,60.06763611385583,
,,,,89.0,5.0,7.0,,,,,,,,,,,,,gelb,yellow,g,1.0,g,1.0,1.4279736999887973,,,,,,,,,,7.0,5.0,89.0,11.0,439.7864087000489,,,,,,,,,,,,,,,,,439.77104589995,439.88617429998703,440.68677600007504,440.6702872000169,,,,,,,,,,,,,,,,,,,,,,,,,,,,,,,,,,,440.6731296998914,440.68677600007504,440.68677600007504,442.1204725999851,g,1.0,1.4279736999887973,,,,,,sub-171,1,stroop_test,60.06763611385583,
,,,,90.0,6.0,7.0,,,,,,,,,,,,,rot,yellow,g,0.0,g,1.0,1.0538476998917758,,,,,,,,,,7.0,6.0,90.0,3.0,442.1363867998589,,,,,,,,,,,,,,,,,442.1207479999866,442.4864223999903,443.2864774998743,443.2701323998626,,,,,,,,,,,,,,,,,,,,,,,,,,,,,,,,,,,443.2724609998986,443.2864774998743,443.2864774998743,444.3541754998733,g,1.0,1.0538476998917758,,,,,,sub-171,1,stroop_test,60.06763611385583,
,,,,91.0,7.0,7.0,,,,,,,,,,,,,rot,red,r,1.0,r,1.0,0.7489639001432806,,,,,,,,,,7.0,7.0,91.0,0.0,444.3696914999746,,,,,,,,,,,,,,,,,444.3544578999281,444.46918109990656,445.2699207998812,445.25376980006695,,,,,,,,,,,,,,,,,,,,,,,,,,,,,,,,,,,445.25415759999305,445.2699207998812,445.2699207998812,446.0207789000124,r,1.0,0.7489639001432806,,,,,,sub-171,1,stroop_test,60.06763611385583,
,,,,92.0,8.0,7.0,,,,,,,,,,,,,gelb,yellow,g,1.0,g,1.0,0.9253267999738456,,,,,,,,,,7.0,8.0,92.0,10.0,446.0364890999626,,,,,,,,,,,,,,,,,446.02107129991055,446.8365159998648,447.6367915999144,447.6203501999844,,,,,,,,,,,,,,,,,,,,,,,,,,,,,,,,,,,447.6232133999001,447.6367915999144,447.6367915999144,448.570559799904,g,1.0,0.9253267999738456,,,,,,sub-171,1,stroop_test,60.06763611385583,
,,,,93.0,9.0,7.0,,,,,,,,,,,,,gelb,red,r,0.0,r,1.0,1.147981399903074,,,,,,,,,,7.0,9.0,93.0,8.0,448.5863409000449,,,,,,,,,,,,,,,,,448.57084299996495,448.9199302999768,449.71995339985006,449.7036588999909,,,,,,,,,,,,,,,,,,,,,,,,,,,,,,,,,,,449.7040583998896,449.71995339985006,449.71995339985006,450.8707727999426,r,1.0,1.147981399903074,,,,,,sub-171,1,stroop_test,60.06763611385583,
,,,,94.0,10.0,7.0,,,,,,,,,,,,,blau,yellow,g,0.0,g,1.0,1.9876184999011457,,,,,,,,,,7.0,10.0,94.0,7.0,450.8865791000426,,,,,,,,,,,,,,,,,450.8710449000355,452.086657699896,452.8871652998496,452.8703447000589,,,,,,,,,,,,,,,,,,,,,,,,,,,,,,,,,,,452.8734309000429,452.8871652998496,452.8871652998496,454.8876455000136,g,1.0,1.9876184999011457,,,,,,sub-171,1,stroop_test,60.06763611385583,
,,,,95.0,11.0,7.0,,,,,,,,,,,,,rot,red,r,1.0,r,1.0,1.129818799905479,,,,,,,,,,7.0,11.0,95.0,1.0,454.9032525999937,,,,,,,,,,,,,,,,,454.887939899927,455.0033185998909,455.80356110003777,455.787322799908,,,,,,,,,,,,,,,,,,,,,,,,,,,,,,,,,,,455.7902446999215,455.80356110003777,455.80356110003777,456.9375982000493,r,1.0,1.129818799905479,,,,,,sub-171,1,stroop_test,60.06763611385583,
,,,,96.0,0.0,8.0,,,,,,,,,,,,,blau,yellow,g,0.0,g,1.0,0.9752037001308054,,,,,,,,,,8.0,0.0,96.0,7.0,456.9532772998791,,,,,,,,,,,,,,,,,456.9378932998516,458.1369872000069,458.9366698998492,458.92025829991326,,,,,,,,,,,,,,,,,,,,,,,,,,,,,,,,,,,458.92301709996536,458.9366698998492,458.9366698998492,459.92087509995326,g,1.0,0.9752037001308054,,,,,,sub-171,1,stroop_test,60.06763611385583,
,,,,97.0,1.0,8.0,,,,,,,,,,,,,rot,red,r,1.0,r,1.0,0.9892569000367076,,,,,,,,,,8.0,1.0,97.0,0.0,459.93660439993255,,,,,,,,,,,,,,,,,459.921147899935,460.0366668000352,460.8366743000224,460.8201220000629,,,,,,,,,,,,,,,,,,,,,,,,,,,,,,,,,,,460.8224935999606,460.8366743000224,460.8366743000224,461.8375425999984,r,1.0,0.9892569000367076,,,,,,sub-171,1,stroop_test,60.06763611385583,
,,,,98.0,2.0,8.0,,,,,,,,,,,,,gelb,red,r,0.0,r,1.0,1.2058113000821322,,,,,,,,,,8.0,2.0,98.0,8.0,461.8532157000154,,,,,,,,,,,,,,,,,461.8378159999848,461.9368089998607,462.7369496000465,462.7206451999955,,,,,,,,,,,,,,,,,,,,,,,,,,,,,,,,,,,462.7234934000298,462.7369496000465,462.7369496000465,463.9543919998687,r,1.0,1.2058113000821322,,,,,,sub-171,1,stroop_test,60.06763611385583,
,,,,99.0,3.0,8.0,,,,,,,,,,,,,blau,red,r,0.0,r,1.0,1.017841200111434,,,,,,,,,,8.0,3.0,99.0,4.0,463.9700956000015,,,,,,,,,,,,,,,,,463.954679899849,464.7697674999945,465.5702295999509,465.5537063998636,,,,,,,,,,,,,,,,,,,,,,,,,,,,,,,,,,,465.5563876000233,465.5702295999509,465.5702295999509,466.6042249999009,r,1.0,1.017841200111434,,,,,,sub-171,1,stroop_test,60.06763611385583,
,,,,100.0,4.0,8.0,,,,,,,,,,,,,rot,red,r,1.0,r,1.0,0.5737564999144524,,,,,,,,,,8.0,4.0,100.0,1.0,466.61980460002087,,,,,,,,,,,,,,,,,466.60449519986287,466.7201008999255,467.5202975000721,467.5040752000641,,,,,,,,,,,,,,,,,,,,,,,,,,,,,,,,,,,467.5067918000277,467.5202975000721,467.5202975000721,468.1044298000634,r,1.0,0.5737564999144524,,,,,,sub-171,1,stroop_test,60.06763611385583,
,,,,101.0,5.0,8.0,,,,,,,,,,,,,rot,blue,b,0.0,b,1.0,1.149352899985388,,,,,,,,,,8.0,5.0,101.0,2.0,468.1202237000689,,,,,,,,,,,,,,,,,468.1047505000606,469.3202517000027,470.120292800013,470.1042114000302,,,,,,,,,,,,,,,,,,,,,,,,,,,,,,,,,,,470.1046237999108,470.120292800013,470.120292800013,471.27131469990127,b,1.0,1.149352899985388,,,,,,sub-171,1,stroop_test,60.06763611385583,
,,,,102.0,6.0,8.0,,,,,,,,,,,,,gelb,yellow,g,1.0,g,1.0,0.6269532998558134,,,,,,,,,,8.0,6.0,102.0,11.0,471.28696179995313,,,,,,,,,,,,,,,,,471.271608900046,472.4868330999743,473.2884539000224,473.2711247999687,,,,,,,,,,,,,,,,,,,,,,,,,,,,,,,,,,,473.2742275998462,473.2884539000224,473.2884539000224,473.92109069996513,g,1.0,0.6269532998558134,,,,,,sub-171,1,stroop_test,60.06763611385583,
,,,,103.0,7.0,8.0,,,,,,,,,,,,,rot,yellow,g,0.0,g,1.0,0.6242170999757946,,,,,,,,,,8.0,7.0,103.0,3.0,473.9369455999695,,,,,,,,,,,,,,,,,473.9213791000657,474.2704014000483,475.0703741998877,475.0542133999989,,,,,,,,,,,,,,,,,,,,,,,,,,,,,,,,,,,475.0565947999712,475.0703741998877,475.0703741998877,475.7046481000725,g,1.0,0.6242170999757946,,,,,,sub-171,1,stroop_test,60.06763611385583,
,,,,104.0,8.0,8.0,,,,,,,,,,,,,gelb,yellow,g,1.0,g,1.0,0.5793008001055568,,,,,,,,,,8.0,8.0,104.0,10.0,475.7200086999219,,,,,,,,,,,,,,,,,475.70492969988845,476.0700844998937,476.8704621000216,476.8542026998475,,,,,,,,,,,,,,,,,,,,,,,,,,,,,,,,,,,476.8570947998669,476.8704621000216,476.8704621000216,477.45462680002674,g,1.0,0.5793008001055568,,,,,,sub-171,1,stroop_test,60.06763611385583,
,,,,105.0,9.0,8.0,,,,,,,,,,,,,gelb,blue,b,0.0,b,1.0,0.8063962999731302,,,,,,,,,,8.0,9.0,105.0,9.0,477.470351099968,,,,,,,,,,,,,,,,,477.4549155000132,477.5698613999412,478.3703677000012,478.35400209994987,,,,,,,,,,,,,,,,,,,,,,,,,,,,,,,,,,,478.3543972999323,478.3703677000012,478.3703677000012,479.1880011998583,b,1.0,0.8063962999731302,,,,,,sub-171,1,stroop_test,60.06763611385583,
,,,,106.0,10.0,8.0,,,,,,,,,,,,,blau,blue,b,1.0,b,1.0,1.3023798998910934,,,,,,,,,,8.0,10.0,106.0,5.0,479.2034912998788,,,,,,,,,,,,,,,,,479.188297299901,479.9869605000131,480.7872836000752,480.77103399997577,,,,,,,,,,,,,,,,,,,,,,,,,,,,,,,,,,,480.7740746999625,480.7872836000752,480.7872836000752,482.10453410004266,b,1.0,1.3023798998910934,,,,,,sub-171,1,stroop_test,60.06763611385583,
,,,,107.0,11.0,8.0,,,,,,,,,,,,,blau,blue,b,1.0,b,1.0,0.4424120998010039,,,,,,,,,,8.0,11.0,107.0,6.0,482.1202147000004,,,,,,,,,,,,,,,,,482.1048164998647,482.90375209995545,483.70396830001846,483.6878634998575,,,,,,,,,,,,,,,,,,,,,,,,,,,,,,,,,,,483.6882919999771,483.70396830001846,483.70396830001846,484.1547761999536,b,1.0,0.4424120998010039,,,,,,sub-171,1,stroop_test,60.06763611385583,
,,,,108.0,0.0,9.0,,,,,,,,,,,,,gelb,yellow,g,1.0,g,1.0,0.9046652999240904,,,,,,,,,,9.0,0.0,108.0,11.0,484.17061709985137,,,,,,,,,,,,,,,,,484.1550960999448,485.370278300019,486.1719312998466,486.1544561998453,,,,,,,,,,,,,,,,,,,,,,,,,,,,,,,,,,,486.1579219000414,486.1719312998466,486.1719312998466,487.0877549999859,g,1.0,0.9046652999240904,,,,,,sub-171,1,stroop_test,60.06763611385583,
,,,,109.0,1.0,9.0,,,,,,,,,,,,,gelb,yellow,g,1.0,g,1.0,0.6155408001504838,,,,,,,,,,9.0,1.0,109.0,10.0,487.1034681000747,,,,,,,,,,,,,,,,,487.0880561000668,487.88682730006985,488.6869671999011,488.6708714000415,,,,,,,,,,,,,,,,,,,,,,,,,,,,,,,,,,,488.6712301999796,488.6869671999011,488.6869671999011,489.30483609996736,g,1.0,0.6155408001504838,,,,,,sub-171,1,stroop_test,60.06763611385583,
,,,,110.0,2.0,9.0,,,,,,,,,,,,,gelb,red,r,0.0,r,1.0,0.9324656000826508,,,,,,,,,,9.0,2.0,110.0,8.0,489.32050070003606,,,,,,,,,,,,,,,,,489.305108099943,489.4202067998704,490.2205075998791,490.2045370000415,,,,,,,,,,,,,,,,,,,,,,,,,,,,,,,,,,,490.2049213000573,490.2205075998791,490.2205075998791,491.154716399964,r,1.0,0.9324656000826508,,,,,,sub-171,1,stroop_test,60.06763611385583,
,,,,111.0,3.0,9.0,,,,,,,,,,,,,rot,blue,b,0.0,b,1.0,0.7185431998223066,,,,,,,,,,9.0,3.0,111.0,2.0,491.1704512999858,,,,,,,,,,,,,,,,,491.1550096999854,491.9703609000426,492.7703843999189,492.7544145998545,,,,,,,,,,,,,,,,,,,,,,,,,,,,,,,,,,,492.75673309993,492.7703843999189,492.7703843999189,493.504615599988,b,1.0,0.7185431998223066,,,,,,sub-171,1,stroop_test,60.06763611385583,
,,,,112.0,4.0,9.0,,,,,,,,,,,,,rot,red,r,1.0,r,1.0,0.9400565000250936,,,,,,,,,,9.0,4.0,112.0,1.0,493.5203461998608,,,,,,,,,,,,,,,,,493.504890399985,494.7039246999193,495.5037622000091,495.48756809998304,,,,,,,,,,,,,,,,,,,,,,,,,,,,,,,,,,,495.487934099976,495.5037622000091,495.5037622000091,496.45467470004223,r,1.0,0.9400565000250936,,,,,,sub-171,1,stroop_test,60.06763611385583,
,,,,113.0,5.0,9.0,,,,,,,,,,,,,blau,blue,b,1.0,b,1.0,1.143471600022167,,,,,,,,,,9.0,5.0,113.0,5.0,496.4703379999846,,,,,,,,,,,,,,,,,496.45493909996,497.25381839997135,498.05393860000186,498.03768899990246,,,,,,,,,,,,,,,,,,,,,,,,,,,,,,,,,,,498.04061469994485,498.05393860000186,498.05393860000186,499.20464650006033,b,1.0,1.143471600022167,,,,,,sub-171,1,stroop_test,60.06763611385583,
,,,,114.0,6.0,9.0,,,,,,,,,,,,,blau,yellow,g,0.0,g,1.0,1.7664646999910474,,,,,,,,,,9.0,6.0,114.0,7.0,499.22033050004393,,,,,,,,,,,,,,,,,499.2049278998748,499.3203356000595,500.1203630999662,500.1043171999045,,,,,,,,,,,,,,,,,,,,,,,,,,,,,,,,,,,500.1046885000542,500.1203630999662,500.1203630999662,501.8880864998792,g,1.0,1.7664646999910474,,,,,,sub-171,1,stroop_test,60.06763611385583,
,,,,115.0,7.0,9.0,,,,,,,,,,,,,rot,yellow,g,0.0,g,1.0,0.6230393999721855,,,,,,,,,,9.0,7.0,115.0,3.0,501.9039187000599,,,,,,,,,,,,,,,,,501.8883551999461,502.6872771999333,503.4874849999324,503.4713111000601,,,,,,,,,,,,,,,,,,,,,,,,,,,,,,,,,,,503.4735650999937,503.4874849999324,503.4874849999324,504.12139889993705,g,1.0,0.6230393999721855,,,,,,sub-171,1,stroop_test,60.06763611385583,
,,,,116.0,8.0,9.0,,,,,,,,,,,,,blau,blue,b,1.0,b,1.0,0.7934340999927372,,,,,,,,,,9.0,8.0,116.0,6.0,504.1372028000187,,,,,,,,,,,,,,,,,504.1216394000221,504.2214265000075,505.0236313999631,505.00553580001,,,,,,,,,,,,,,,,,,,,,,,,,,,,,,,,,,,505.0100149000064,505.0236313999631,505.0236313999631,505.8216851998586,b,1.0,0.7934340999927372,,,,,,sub-171,1,stroop_test,60.06763611385583,
,,,,117.0,9.0,9.0,,,,,,,,,,,,,rot,red,r,1.0,r,1.0,0.7564882999286056,,,,,,,,,,9.0,9.0,117.0,0.0,505.83711560000665,,,,,,,,,,,,,,,,,505.82195840007626,506.17078229994513,506.970818700036,506.954460100038,,,,,,,,,,,,,,,,,,,,,,,,,,,,,,,,,,,506.9572322000749,506.970818700036,506.970818700036,507.7383570999373,r,1.0,0.7564882999286056,,,,,,sub-171,1,stroop_test,60.06763611385583,
,,,,118.0,10.0,9.0,,,,,,,,,,,,,gelb,blue,b,0.0,b,1.0,0.9015659999568016,,,,,,,,,,9.0,10.0,118.0,9.0,507.7540682998952,,,,,,,,,,,,,,,,,507.7386545999907,508.9375517999288,509.73757759993896,509.7209552000277,,,,,,,,,,,,,,,,,,,,,,,,,,,,,,,,,,,509.7237267999444,509.73757759993896,509.73757759993896,510.6548967999406,b,1.0,0.9015659999568016,,,,,,sub-171,1,stroop_test,60.06763611385583,
,,,,119.0,11.0,9.0,,,,,,,,,,,,,blau,red,r,0.0,r,1.0,1.2995305000804365,,,,,,,,,,9.0,11.0,119.0,4.0,510.6705853000749,,,,,,,,,,,,,,,,,510.6551707000472,511.004158299882,511.80489100003615,511.78817000007257,,,,,,,,,,,,,,,,,,,,,,,,,,,,,,,,,,,511.7912043998949,511.80489100003615,511.80489100003615,513.1054847999476,r,1.0,1.2995305000804365,,,,,,sub-171,1,stroop_test,60.06763611385583,
,,,,,,,,,,,,,,,,,,,,,,,,,,,,,,,,,,,,,,,,,,,,,,,,,,,,,,,,,,,,,,,,,,,,,,,,,,,,,,,,,,,,,,,,,,,,,,,,,,,,,,513.1056393999606,513.1210117000155,518.121041999897,518.104861299973,sub-171,1,stroop_test,60.06763611385583,
