wordCTK,colorCTK,corrAnsCTK,congruentCTK,thisN,thisTrialN,thisRepN,keyResp_CTK.keys,keyResp_CTK.corr,keyResp_CTK.rt,keyResp_CTK.duration,wordPractice,colorPractice,corrAnsPractice,congruentPractice,respPractice.keys,respPractice.corr,respPractice.rt,respPractice.duration,word,color,corrAns,congruent,keyResp_test_run.keys,keyResp_test_run.corr,keyResp_test_run.rt,keyResp_test_run.duration,trials_CTK.thisRepN,trials_CTK.thisTrialN,trials_CTK.thisN,trials_CTK.thisIndex,trials_practice.thisRepN,trials_practice.thisTrialN,trials_practice.thisN,trials_practice.thisIndex,trials_test.thisRepN,trials_test.thisTrialN,trials_test.thisN,trials_test.thisIndex,thisRow.t,notes,instruction.started,instr_text.started,instr_image.started,instr_resp.started,instruction.stopped,instr_resp.keys,instr_resp.rt,instr_resp.duration,instr_color_to_key.started,instr_ctk.started,resp_ctk.started,instr_color_to_key.stopped,resp_ctk.keys,resp_ctk.rt,resp_ctk.duration,ITI.started,fixcross.started,fixcross.stopped,ITI.stopped,color_to_key_run.started,stimulus_CTK.started,keyResp_CTK.started,color_to_key_run.stopped,trials_CTK.keyResp_CTK.keys,trials_CTK.keyResp_CTK.corr,trials_CTK.keyResp_CTK.rt,trials_CTK.keyResp_CTK.duration,instr_practice.started,instr_practice_text.started,instr_practice_resp.started,instr_practice.stopped,instr_practice_resp.keys,instr_practice_resp.rt,instr_practice_resp.duration,practice_run.started,stimulus_practice.started,respPractice.started,practice_run.stopped,trials_practice.respPractice.keys,trials_practice.respPractice.corr,trials_practice.respPractice.rt,trials_practice.respPractice.duration,feedback.started,textFeedback.started,feedback.stopped,textFeedback.stopped,instr_test.started,instr_test_text.started,instr_test_resp.started,instr_test.stopped,instr_test_resp.keys,instr_test_resp.rt,instr_test_resp.duration,test_run.started,stimulus_test_run.started,keyResp_test_run.started,test_run.stopped,trials_test.keyResp_test_run.keys,trials_test.keyResp_test_run.corr,trials_test.keyResp_test_run.rt,trials_test.keyResp_test_run.duration,goodbye.started,textGoodbye.started,textGoodbye.stopped,goodbye.stopped,participant,session,expName,frameRate,Unnamed: 113
,,,,,,,,,,,,,,,,,,,,,,,,,,,,,,,,,,,,,,,,,0.0100967909966129,0.1161842499859631,0.1161842499859631,0.1161842499859631,41.418205582987866,space,41.29934358299943,,,,,,,,,,,,,,,,,,,,,,,,,,,,,,,,,,,,,,,,,,,,,,,,,,,,,,,,,,,sub-031,1,stroop_test,120.23246995608402,
,,,,,,,,,,,,,,,,,,,,,,,,,,,,,,,,,,,,,,,,,,,,,,,,,41.41830437499448,41.45718429099361,41.45718429099361,51.41897916598828,space,9.95441408199258,,,,,,,,,,,,,,,,,,,,,,,,,,,,,,,,,,,,,,,,,,,,,,,,,,,,sub-031,1,stroop_test,120.23246995608402,
test,yellow,g,1.0,0.0,0.0,0.0,g,1.0,4.327147791002062,,,,,,,,,,,,,,,,,,0.0,0.0,0.0,1.0,,,,,,,,,51.45825733299717,,,,,,,,,,,,,,,,,51.43987595799263,51.516632999992,52.3164876249939,52.300931790989125,52.30928049999056,52.3164876249939,52.3164876249939,56.65238787498674,g,1.0,4.327147791002062,,,,,,,,,,,,,,,,,,,,,,,,,,,,,,,,,,,,,,,,sub-031,1,stroop_test,120.23246995608402,
test,red,r,1.0,1.0,1.0,0.0,r,1.0,1.481335124000907,,,,,,,,,,,,,,,,,,0.0,1.0,1.0,0.0,,,,,,,,,56.662491332986974,,,,,,,,,,,,,,,,,56.65289624998695,57.450695457999245,58.24233595799888,58.23449587498908,58.23521087499103,58.24233595799888,58.24233595799888,59.73581670799467,r,1.0,1.481335124000907,,,,,,,,,,,,,,,,,,,,,,,,,,,,,,,,,,,,,,,,sub-031,1,stroop_test,120.23246995608402,
test,blue,b,1.0,2.0,2.0,0.0,b,1.0,0.6737894989928463,,,,,,,,,,,,,,,,,,0.0,2.0,2.0,2.0,,,,,,,,,59.74548383298679,,,,,,,,,,,,,,,,,59.7362946659996,60.08436012499442,60.876861290991656,60.86780745799479,60.86876995798957,60.876861290991656,60.876861290991656,61.55204474998754,b,1.0,0.6737894989928463,,,,,,,,,,,,,,,,,,,,,,,,,,,,,,,,,,,,,,,,sub-031,1,stroop_test,120.23246995608402,
test,yellow,g,1.0,3.0,0.0,1.0,g,1.0,1.2479825820046244,,,,,,,,,,,,,,,,,,1.0,0.0,3.0,1.0,,,,,,,,,61.55802616599249,,,,,,,,,,,,,,,,,61.552627249999205,61.89193579099083,62.69269524999254,62.68468045799818,62.6854690409964,62.69269524999254,62.69269524999254,63.952673249994405,g,1.0,1.2479825820046244,,,,,,,,,,,,,,,,,,,,,,,,,,,,,,,,,,,,,,,,sub-031,1,stroop_test,120.23246995608402,
test,blue,b,1.0,4.0,1.0,1.0,b,1.0,0.8469082069932483,,,,,,,,,,,,,,,,,,1.0,1.0,4.0,2.0,,,,,,,,,63.96292799999355,,,,,,,,,,,,,,,,,63.953224874989246,65.15079583298939,65.94358366599772,65.93451274999825,65.935470832992,65.94358366599772,65.94358366599772,66.79197133299022,b,1.0,0.8469082069932483,,,,,,,,,,,,,,,,,,,,,,,,,,,,,,,,,,,,,,,,sub-031,1,stroop_test,120.23246995608402,
test,red,r,1.0,5.0,2.0,1.0,r,1.0,0.7214706239901716,,,,,,,,,,,,,,,,,,1.0,2.0,5.0,0.0,,,,,,,,,66.80089254099585,,,,,,,,,,,,,,,,,66.7924612909992,67.59223808298702,68.39330437498575,68.38487487498787,68.38569024999742,68.39330437498575,68.39330437498575,69.11910520799574,r,1.0,0.7214706239901716,,,,,,,,,,,,,,,,,,,,,,,,,,,,,,,,,,,,,,,,sub-031,1,stroop_test,120.23246995608402,
test,blue,b,1.0,6.0,0.0,2.0,b,1.0,1.1392625830048928,,,,,,,,,,,,,,,,,,2.0,0.0,6.0,2.0,,,,,,,,,69.12972191598965,,,,,,,,,,,,,,,,,69.11966241599293,69.21775358299783,70.01051699998789,70.00170962499396,70.00266591599211,70.01051699998789,70.01051699998789,71.15257229098643,b,1.0,1.1392625830048928,,,,,,,,,,,,,,,,,,,,,,,,,,,,,,,,,,,,,,,,sub-031,1,stroop_test,120.23246995608402,
test,red,r,1.0,7.0,1.0,2.0,r,1.0,1.1769308320072014,,,,,,,,,,,,,,,,,,2.0,1.0,7.0,0.0,,,,,,,,,71.16242970799794,,,,,,,,,,,,,,,,,71.15310254099313,71.25105733299279,72.04378524998901,72.03506474998721,72.03585399998701,72.04378524998901,72.04378524998901,73.22549099999014,r,1.0,1.1769308320072014,,,,,,,,,,,,,,,,,,,,,,,,,,,,,,,,,,,,,,,,sub-031,1,stroop_test,120.23246995608402,
test,yellow,g,1.0,8.0,2.0,2.0,g,1.0,0.6529250409948872,,,,,,,,,,,,,,,,,,2.0,2.0,8.0,1.0,,,,,,,,,73.23495445799199,,,,,,,,,,,,,,,,,73.2261475409905,74.02442674999475,74.81769079099467,74.80802425000002,74.80882383299468,74.81769079099467,74.81769079099467,75.47599979098595,g,1.0,0.6529250409948872,,,,,,,,,,,,,,,,,,,,,,,,,,,,,,,,,,,,,,,,sub-031,1,stroop_test,120.23246995608402,
test,red,r,1.0,9.0,0.0,3.0,r,1.0,1.0169015409919666,,,,,,,,,,,,,,,,,,3.0,0.0,9.0,0.0,,,,,,,,,75.50116645799426,,,,,,,,,,,,,,,,,75.47648291599762,76.27577404098702,77.07680129099754,77.0683668749989,77.06916437498876,77.07680129099754,77.07680129099754,78.10304674999497,r,1.0,1.0169015409919666,,,,,,,,,,,,,,,,,,,,,,,,,,,,,,,,,,,,,,,,sub-031,1,stroop_test,120.23246995608402,
test,blue,b,1.0,10.0,1.0,3.0,b,1.0,0.7645339159935247,,,,,,,,,,,,,,,,,,3.0,1.0,10.0,2.0,,,,,,,,,78.11218962499697,,,,,,,,,,,,,,,,,78.10369987499143,78.45147783299035,79.2432555409905,79.23491979099344,79.2357459999912,79.2432555409905,79.2432555409905,80.01969824999105,b,1.0,0.7645339159935247,,,,,,,,,,,,,,,,,,,,,,,,,,,,,,,,,,,,,,,,sub-031,1,stroop_test,120.23246995608402,
test,yellow,g,1.0,11.0,2.0,3.0,r,0.0,0.7724792500084732,,,,,,,,,,,,,,,,,,3.0,2.0,11.0,1.0,,,,,,,,,80.02944299999217,,,,,,,,,,,,,,,,,80.02025495799899,80.11823612499575,80.9103081249923,80.90193191599974,80.90267462498741,80.9103081249923,80.9103081249923,81.68607962499664,r,0.0,0.7724792500084732,,,,,,,,,,,,,,,,,,,,,,,,,,,,,,,,,,,,,,,,sub-031,1,stroop_test,120.23246995608402,
,,,,,,,,,,,,,,,,,,,,,,,,,,,,,,,,,,,,,,,,,,,,,,,,,,,,,,,,,,,,,,,,,,,,81.68630116598797,81.69673145799607,81.69673145799607,87.08677075000014,space,5.38111350001418,,,,,,,,,,,,,,,,,,,,,,,,,,,,,,,,,sub-031,1,stroop_test,120.23246995608402,
,,,,0.0,0.0,0.0,,,,,blau,yellow,g,0.0,g,1.0,9.77800787400338,,,,,,,,,,,,,,0.0,0.0,0.0,7.0,,,,,87.10868820799806,,,,,,,,,,,,,,,,,87.1008642079978,87.18508624999959,87.9839041249943,87.96861287498905,,,,,,,,,,,,,,,,87.97670633299276,87.9839041249943,87.9839041249943,97.77015287498944,g,1.0,9.77800787400338,,97.77811441599624,97.78794737499264,98.77515141598997,,,,,,,,,,,,,,,,,,,,,sub-031,1,stroop_test,120.23246995608402,
,,,,1.0,1.0,0.0,,,,,gelb,blue,b,0.0,b,1.0,0.9055403740057956,,,,,,,,,,,,,,0.0,1.0,1.0,9.0,,,,,98.78524770798684,,,,,,,,,,,,,,,,,98.7757574999996,99.11883179099824,99.9153502079862,99.9024919999938,,,,,,,,,,,,,,,,99.9076644579909,99.9153502079862,99.9153502079862,100.82698733299912,b,1.0,0.9055403740057956,,100.82780504098628,100.83979329098656,101.82537379099811,101.83535304099496,,,,,,,,,,,,,,,,,,,,sub-031,1,stroop_test,120.23246995608402,
,,,,2.0,2.0,0.0,,,,,gelb,red,r,0.0,r,1.0,1.489489041006891,,,,,,,,,,,,,,0.0,2.0,2.0,8.0,,,,,101.83535304099496,,,,,,,,,,,,,,,,,101.82594224999777,103.02540995799065,103.81852062499092,103.80856349998794,,,,,,,,,,,,,,,,103.80938037499436,103.81852062499092,103.81852062499092,105.30993041599868,r,1.0,1.489489041006891,,105.31076454099092,105.32330604099845,106.30938345799224,106.31884245800028,,,,,,,,,,,,,,,,,,,,sub-031,1,stroop_test,120.23246995608402,
,,,,3.0,3.0,0.0,,,,,blau,blue,b,1.0,b,1.0,0.8223056240094593,,,,,,,,,,,,,,0.0,3.0,3.0,6.0,,,,,106.31884245800028,,,,,,,,,,,,,,,,,106.30994191599892,107.10871437499009,107.90461595798844,107.89223833299184,,,,,,,,,,,,,,,,107.8967827079905,107.90461595798844,107.90461595798844,108.73761095799271,b,1.0,0.8223056240094593,,108.7385072909965,108.75040566599635,109.736325165999,109.74226587500016,,,,,,,,,,,,,,,,,,,,sub-031,1,stroop_test,120.23246995608402,
,,,,4.0,4.0,0.0,,,,,blau,blue,b,1.0,b,1.0,0.7385426250111777,,,,,,,,,,,,,,0.0,4.0,4.0,5.0,,,,,109.74226587500016,,,,,,,,,,,,,,,,,109.73700512498908,110.93564812499972,111.72846241599473,111.71944733298731,,,,,,,,,,,,,,,,111.72038591599268,111.72846241599473,111.72846241599473,112.47065779099648,b,1.0,0.7385426250111777,,112.4717249999958,112.48203754099086,113.46964216599008,113.47552895799164,,,,,,,,,,,,,,,,,,,,sub-031,1,stroop_test,120.23246995608402,
,,,,5.0,5.0,0.0,,,,,gelb,yellow,g,1.0,g,1.0,1.0299187909986358,,,,,,,,,,,,,,0.0,5.0,5.0,11.0,,,,,113.47552895799164,,,,,,,,,,,,,,,,,113.47019783299766,114.6688125829969,115.4650369999872,115.45309954098776,,,,,,,,,,,,,,,,115.45732191599382,115.4650369999872,115.4650369999872,116.50364824999996,g,1.0,1.0299187909986358,,116.50433787499789,116.51448412498576,117.502882374989,117.50880299998973,,,,,,,,,,,,,,,,,,,,sub-031,1,stroop_test,120.23246995608402,
,,,,6.0,6.0,0.0,,,,,rot,red,r,1.0,r,1.0,0.8630769989977125,,,,,,,,,,,,,,0.0,6.0,6.0,0.0,,,,,117.50880299998973,,,,,,,,,,,,,,,,,117.50343733299816,117.8424489159952,118.63909999998576,118.626392457998,,,,,,,,,,,,,,,,118.63271516599345,118.63909999998576,118.63909999998576,119.50452820799546,r,1.0,0.8630769989977125,,119.50554304099931,119.51711487499416,120.50313904098584,120.50906537499397,,,,,,,,,,,,,,,,,,,,sub-031,1,stroop_test,120.23246995608402,
,,,,7.0,7.0,0.0,,,,,rot,red,r,1.0,r,1.0,0.9083650409884284,,,,,,,,,,,,,,0.0,7.0,7.0,1.0,,,,,120.50906537499397,,,,,,,,,,,,,,,,,120.5036846659932,121.30242033299874,122.09475179099536,122.08638295799028,,,,,,,,,,,,,,,,122.08718816599868,122.09475179099536,122.09475179099536,123.01024008299282,r,1.0,0.9083650409884284,,123.01093324999964,123.021336040998,124.00923408298696,124.01958033299888,,,,,,,,,,,,,,,,,,,,sub-031,1,stroop_test,120.23246995608402,
,,,,8.0,8.0,0.0,,,,,gelb,yellow,g,1.0,g,1.0,0.8881693739967886,,,,,,,,,,,,,,0.0,8.0,8.0,10.0,,,,,124.01958033299888,,,,,,,,,,,,,,,,,124.00965862500016,124.81041595799616,125.615789915988,125.60339816600026,,,,,,,,,,,,,,,,125.60848404098942,125.615789915988,125.615789915988,126.51056124999012,g,1.0,0.8881693739967886,,126.51124979098677,126.52159045799635,127.50968204099628,127.51940416599972,,,,,,,,,,,,,,,,,,,,sub-031,1,stroop_test,120.23246995608402,
,,,,9.0,9.0,0.0,,,,,rot,blue,b,0.0,b,1.0,0.6347012079932028,,,,,,,,,,,,,,0.0,9.0,9.0,2.0,,,,,127.51940416599972,,,,,,,,,,,,,,,,,127.51028445799602,127.61097333299404,128.41659358299512,128.4033640409907,,,,,,,,,,,,,,,,128.40912545799802,128.41659358299512,128.41659358299512,129.05444062499737,b,1.0,0.6347012079932028,,129.05521462499746,129.0659681249963,130.05347354098922,130.05946158299048,,,,,,,,,,,,,,,,,,,,sub-031,1,stroop_test,120.23246995608402,
,,,,10.0,10.0,0.0,,,,,rot,yellow,g,0.0,r,0.0,1.6683937490015524,,,,,,,,,,,,,,0.0,10.0,10.0,3.0,,,,,130.05946158299048,,,,,,,,,,,,,,,,,130.05404137499863,130.85294570798578,131.64578999999503,131.636982290991,,,,,,,,,,,,,,,,131.63791270799993,131.64578999999503,131.64578999999503,133.3214403329912,r,0.0,1.6683937490015524,,133.32777049999277,133.3375277909945,134.32517062498664,,,,,,,,,,,,,,,,,,,,,sub-031,1,stroop_test,120.23246995608402,
,,,,11.0,11.0,0.0,,,,,blau,red,r,0.0,r,1.0,1.3908734579890734,,,,,,,,,,,,,,0.0,11.0,11.0,4.0,,,,,134.33677820798766,,,,,,,,,,,,,,,,,134.3258007909899,135.11989566599368,135.91624604098615,135.90376099999412,,,,,,,,,,,,,,,,135.9084892499959,135.91624604098615,135.91624604098615,137.31045262499538,r,1.0,1.3908734579890734,,137.31563337499392,137.3243904159899,138.3097424999869,138.32008666598995,,,,,,,,,,,,,,,,,,,,sub-031,1,stroop_test,120.23246995608402,
,,,,12.0,0.0,1.0,,,,,gelb,red,r,0.0,g,0.0,2.483529791003093,,,,,,,,,,,,,,1.0,0.0,12.0,8.0,,,,,138.32008666598995,,,,,,,,,,,,,,,,,138.31026008298795,138.65969912499713,139.45558816599078,139.44334158299898,,,,,,,,,,,,,,,,139.447557624997,139.45558816599078,139.45558816599078,141.9443075409945,g,0.0,2.483529791003093,,141.94866420798644,141.95786608298658,142.94361099999514,142.9533159579878,,,,,,,,,,,,,,,,,,,,sub-031,1,stroop_test,120.23246995608402,
,,,,13.0,1.0,1.0,,,,,gelb,blue,b,0.0,b,1.0,0.7939817910082638,,,,,,,,,,,,,,1.0,1.0,13.0,9.0,,,,,142.9533159579878,,,,,,,,,,,,,,,,,142.94414637499722,143.7435073749948,144.5452803329972,144.5371837499988,,,,,,,,,,,,,,,,144.5379692909919,144.5452803329972,144.5452803329972,145.34473262498796,b,1.0,0.7939817910082638,,145.3498308749986,145.35866087499016,146.34390608299873,146.35335312499956,,,,,,,,,,,,,,,,,,,,sub-031,1,stroop_test,120.23246995608402,
,,,,14.0,2.0,1.0,,,,,rot,blue,b,0.0,b,1.0,0.7083424580050632,,,,,,,,,,,,,,1.0,2.0,14.0,2.0,,,,,146.35335312499956,,,,,,,,,,,,,,,,,146.34448016599345,147.54351395799313,148.3398317079991,148.32669691598858,,,,,,,,,,,,,,,,148.33231479099777,148.3398317079991,148.3398317079991,149.05520874999638,b,1.0,0.7083424580050632,,149.05620870798884,149.0663565829891,150.05388129099447,150.05953499999305,,,,,,,,,,,,,,,,,,,,sub-031,1,stroop_test,120.23246995608402,
,,,,15.0,3.0,1.0,,,,,rot,yellow,g,0.0,g,1.0,0.9060996659973172,,,,,,,,,,,,,,1.0,3.0,15.0,3.0,,,,,150.05953499999305,,,,,,,,,,,,,,,,,150.05444899998838,151.25358666598913,152.04627674999938,152.0376252499991,,,,,,,,,,,,,,,,152.03856370798894,152.04627674999938,152.04627674999938,152.95540499998606,g,1.0,0.9060996659973172,,152.9562484999915,152.96681445799186,153.9541877499869,153.96048445798806,,,,,,,,,,,,,,,,,,,,sub-031,1,stroop_test,120.23246995608402,
,,,,16.0,4.0,1.0,,,,,blau,blue,b,1.0,b,1.0,0.5914336249988992,,,,,,,,,,,,,,1.0,4.0,16.0,6.0,,,,,153.96048445798806,,,,,,,,,,,,,,,,,153.9548180829879,154.05377341598796,154.84997191598814,154.8376801659906,,,,,,,,,,,,,,,,154.84273674999713,154.84997191598814,154.84997191598814,155.44496908299334,b,1.0,0.5914336249988992,,155.4457536659902,155.45650749999913,156.44414066598983,156.453756124989,,,,,,,,,,,,,,,,,,,,sub-031,1,stroop_test,120.23246995608402,
,,,,17.0,5.0,1.0,,,,,gelb,yellow,g,1.0,g,1.0,1.0709169159963494,,,,,,,,,,,,,,1.0,5.0,17.0,10.0,,,,,156.453756124989,,,,,,,,,,,,,,,,,156.44470870798978,156.7951545830001,157.600487290998,157.5875959579862,,,,,,,,,,,,,,,,157.5927789999987,157.600487290998,157.600487290998,158.67857195799297,g,1.0,1.0709169159963494,,158.67946141598804,158.6899566659995,159.67669495799055,159.68751879099,,,,,,,,,,,,,,,,,,,,sub-031,1,stroop_test,120.23246995608402,
,,,,18.0,6.0,1.0,,,,,blau,blue,b,1.0,b,1.0,0.8778399159928085,,,,,,,,,,,,,,1.0,6.0,18.0,5.0,,,,,159.68751879099,,,,,,,,,,,,,,,,,159.67721587499543,160.87843437498668,161.68350049998844,161.6713533749862,,,,,,,,,,,,,,,,161.67568645799474,161.68350049998844,161.68350049998844,162.57245995799894,b,1.0,0.8778399159928085,,162.57326937498874,162.58346258298843,163.57146362499043,163.5777533329965,,,,,,,,,,,,,,,,,,,,sub-031,1,stroop_test,120.23246995608402,
,,,,19.0,7.0,1.0,,,,,gelb,yellow,g,1.0,g,1.0,0.8182190820079995,,,,,,,,,,,,,,1.0,7.0,19.0,11.0,,,,,163.5777533329965,,,,,,,,,,,,,,,,,163.57217066599696,164.7708779579989,165.5660236249969,165.55441120799514,,,,,,,,,,,,,,,,165.55871054099407,165.5660236249969,165.5660236249969,166.38908429098956,g,1.0,0.8182190820079995,,166.3898766659986,166.4003600829892,167.38809279099223,167.39398770799744,,,,,,,,,,,,,,,,,,,,sub-031,1,stroop_test,120.23246995608402,
,,,,20.0,8.0,1.0,,,,,blau,yellow,g,0.0,g,1.0,0.8556041249976261,,,,,,,,,,,,,,1.0,8.0,20.0,7.0,,,,,167.39398770799744,,,,,,,,,,,,,,,,,167.388660874989,168.1875151659915,168.98373604098742,168.97141349999583,,,,,,,,,,,,,,,,168.97642079099023,168.98373604098742,168.98373604098742,169.84522649999417,g,1.0,0.8556041249976261,,169.84594345799997,169.85675999999512,170.84405258299375,170.8543639999989,,,,,,,,,,,,,,,,,,,,sub-031,1,stroop_test,120.23246995608402,
,,,,21.0,9.0,1.0,,,,,blau,red,r,0.0,r,1.0,0.8204059580020839,,,,,,,,,,,,,,1.0,9.0,21.0,4.0,,,,,170.8543639999989,,,,,,,,,,,,,,,,,170.8446178749873,171.1955578749912,171.99594091599283,171.98815645799914,,,,,,,,,,,,,,,,171.98895408298995,171.99594091599283,171.99594091599283,172.82276829099283,r,1.0,0.8204059580020839,,172.82365712498722,172.83457758299485,173.82139929098776,173.82737329098745,,,,,,,,,,,,,,,,,,,,sub-031,1,stroop_test,120.23246995608402,
,,,,22.0,10.0,1.0,,,,,rot,red,r,1.0,r,1.0,0.7592317910020938,,,,,,,,,,,,,,1.0,10.0,22.0,0.0,,,,,173.82737329098745,,,,,,,,,,,,,,,,,173.82199416599178,173.9213133329904,174.71832974998688,174.70470033299353,,,,,,,,,,,,,,,,174.7110135829862,174.71832974998688,174.71832974998688,175.48781820799925,r,1.0,0.7592317910020938,,175.48851545799698,175.49875845799397,176.48826354098856,,,,,,,,,,,,,,,,,,,,,sub-031,1,stroop_test,120.23246995608402,
,,,,23.0,11.0,1.0,,,,,rot,red,r,1.0,r,1.0,0.6195772909995867,,,,,,,,,,,,,,1.0,11.0,23.0,1.0,,,,,176.49433949998638,,,,,,,,,,,,,,,,,176.4887679159874,176.8279314579995,177.6208505409886,177.61065120798594,,,,,,,,,,,,,,,,177.61145783298707,177.6208505409886,177.6208505409886,178.24543366598664,r,1.0,0.6195772909995867,,178.24617712499457,178.2567647909891,179.24452129099518,179.25413241599745,,,,,,,,,,,,,,,,,,,,sub-031,1,stroop_test,120.23246995608402,
,,,,,,,,,,,,,,,,,,,,,,,,,,,,,,,,,,,,,,,,,,,,,,,,,,,,,,,,,,,,,,,,,,,,,,,,,,,,,,,,,,,,,,,179.24473729099554,179.25413241599745,179.25413241599745,189.356580415988,space,10.094444040994858,,,,,,,,,,,,,,sub-031,1,stroop_test,120.23246995608402,
,,,,0.0,0.0,0.0,,,,,,,,,,,,,gelb,yellow,g,1.0,g,1.0,1.204599541000789,,,,,,,,,,0.0,0.0,0.0,10.0,189.3796820409916,,,,,,,,,,,,,,,,,189.3714705829916,189.4551597499958,190.2510386249924,190.2389797079959,,,,,,,,,,,,,,,,,,,,,,,,,,,,,,,,,,,190.2435367500002,190.2510386249924,190.2510386249924,191.46257066598628,g,1.0,1.204599541000789,,,,,,sub-031,1,stroop_test,120.23246995608402,
,,,,1.0,1.0,0.0,,,,,,,,,,,,,rot,red,r,1.0,r,1.0,0.7059282080008416,,,,,,,,,,0.0,1.0,1.0,1.0,191.48821716599923,,,,,,,,,,,,,,,,,191.4631291659898,192.26158970799588,193.0576049159863,193.0450137499865,,,,,,,,,,,,,,,,,,,,,,,,,,,,,,,,,,,193.04993112498775,193.0576049159863,193.0576049159863,193.7735312909936,r,1.0,0.7059282080008416,,,,,,sub-031,1,stroop_test,120.23246995608402,
,,,,2.0,2.0,0.0,,,,,,,,,,,,,gelb,blue,b,0.0,b,1.0,1.721832583003561,,,,,,,,,,0.0,2.0,2.0,9.0,193.78469541599043,,,,,,,,,,,,,,,,,193.77431879099456,194.5715364159987,195.36879179099924,195.3554255829949,,,,,,,,,,,,,,,,,,,,,,,,,,,,,,,,,,,195.36157358299533,195.36879179099924,195.36879179099924,197.09609362499032,b,1.0,1.721832583003561,,,,,,sub-031,1,stroop_test,120.23246995608402,
,,,,3.0,3.0,0.0,,,,,,,,,,,,,rot,blue,b,0.0,b,1.0,0.7504634580109268,,,,,,,,,,0.0,3.0,3.0,2.0,197.1054905409983,,,,,,,,,,,,,,,,,197.0966924159875,197.18804508299215,197.9842934999906,197.9723757079919,,,,,,,,,,,,,,,,,,,,,,,,,,,,,,,,,,,197.97699445798932,197.9842934999906,197.9842934999906,198.74019729098652,b,1.0,0.7504634580109268,,,,,,sub-031,1,stroop_test,120.23246995608402,
,,,,4.0,4.0,0.0,,,,,,,,,,,,,rot,yellow,g,0.0,g,1.0,0.8842731659970013,,,,,,,,,,0.0,4.0,4.0,3.0,198.7508086249873,,,,,,,,,,,,,,,,,198.74084808299085,199.08888195799955,199.8813081249973,199.87237612498572,,,,,,,,,,,,,,,,,,,,,,,,,,,,,,,,,,,199.87338699999964,199.8813081249973,199.8813081249973,200.77349895799125,g,1.0,0.8842731659970013,,,,,,sub-031,1,stroop_test,120.23246995608402,
,,,,5.0,5.0,0.0,,,,,,,,,,,,,gelb,yellow,g,1.0,g,1.0,0.6273437489871867,,,,,,,,,,0.0,5.0,5.0,11.0,200.78147637499205,,,,,,,,,,,,,,,,,200.7739183329977,200.8723012499977,201.6683912909939,201.6562108329963,,,,,,,,,,,,,,,,,,,,,,,,,,,,,,,,,,,201.660948957986,201.6683912909939,201.6683912909939,202.3069930829952,g,1.0,0.6273437489871867,,,,,,sub-031,1,stroop_test,120.23246995608402,
,,,,6.0,6.0,0.0,,,,,,,,,,,,,rot,red,r,1.0,r,1.0,0.5144720410025911,,,,,,,,,,0.0,6.0,6.0,0.0,202.31794679099403,,,,,,,,,,,,,,,,,202.30765208299272,202.4055248329969,203.2012491249916,203.18890295799065,,,,,,,,,,,,,,,,,,,,,,,,,,,,,,,,,,,203.19321837498865,203.2012491249916,203.2012491249916,203.72392162498727,r,1.0,0.5144720410025911,,,,,,sub-031,1,stroop_test,120.23246995608402,
,,,,7.0,7.0,0.0,,,,,,,,,,,,,blau,yellow,g,0.0,g,1.0,1.7458903739898233,,,,,,,,,,0.0,7.0,7.0,7.0,203.73424270800024,,,,,,,,,,,,,,,,,203.72459545799936,204.0718978749937,204.86775262499577,204.85584754099543,,,,,,,,,,,,,,,,,,,,,,,,,,,,,,,,,,,204.8605249159882,204.86775262499577,204.86775262499577,206.62386424999568,g,1.0,1.7458903739898233,,,,,,sub-031,1,stroop_test,120.23246995608402,
,,,,8.0,8.0,0.0,,,,,,,,,,,,,gelb,red,r,0.0,g,0.0,1.6296284580021163,,,,,,,,,,0.0,8.0,8.0,8.0,206.6337107079889,,,,,,,,,,,,,,,,,206.6245488749992,206.7223496249935,207.5179986659932,207.50594862499565,,,,,,,,,,,,,,,,,,,,,,,,,,,,,,,,,,,207.51026670799183,207.5179986659932,207.5179986659932,209.15730958299537,g,0.0,1.6296284580021163,,,,,,sub-031,1,stroop_test,120.23246995608402,
,,,,9.0,9.0,0.0,,,,,,,,,,,,,blau,red,r,0.0,r,1.0,1.915790332001052,,,,,,,,,,0.0,9.0,9.0,4.0,209.1674769579986,,,,,,,,,,,,,,,,,209.15798687499773,209.5053049579874,210.3020367499994,210.2895028329949,,,,,,,,,,,,,,,,,,,,,,,,,,,,,,,,,,,210.29443849998643,210.3020367499994,210.3020367499994,212.22379870798613,r,1.0,1.915790332001052,,,,,,sub-031,1,stroop_test,120.23246995608402,
,,,,10.0,10.0,0.0,,,,,,,,,,,,,blau,blue,b,1.0,b,1.0,1.029192415997386,,,,,,,,,,0.0,10.0,10.0,5.0,212.233933874988,,,,,,,,,,,,,,,,,212.22448362498835,212.3220954999997,213.11458008299812,213.1060586659878,,,,,,,,,,,,,,,,,,,,,,,,,,,,,,,,,,,213.10675845798687,213.11458008299812,213.11458008299812,214.1462136249902,b,1.0,1.029192415997386,,,,,,sub-031,1,stroop_test,120.23246995608402,
,,,,11.0,11.0,0.0,,,,,,,,,,,,,blau,blue,b,1.0,b,1.0,1.379174707995844,,,,,,,,,,0.0,11.0,11.0,6.0,214.15518791599607,,,,,,,,,,,,,,,,,214.1468620409869,214.94699558299908,215.7477962079865,215.7396107079985,,,,,,,,,,,,,,,,,,,,,,,,,,,,,,,,,,,215.740398665992,215.7477962079865,215.7477962079865,217.130324999991,b,1.0,1.379174707995844,,,,,,sub-031,1,stroop_test,120.23246995608402,
,,,,12.0,0.0,1.0,,,,,,,,,,,,,blau,yellow,g,0.0,g,1.0,1.2872255829861388,,,,,,,,,,1.0,0.0,12.0,7.0,217.13941679098932,,,,,,,,,,,,,,,,,217.1308757499937,217.22927749999508,218.02264687498973,218.01236395799788,,,,,,,,,,,,,,,,,,,,,,,,,,,,,,,,,,,218.01337770799,218.02264687498973,218.02264687498973,219.31425229099116,g,1.0,1.2872255829861388,,,,,,sub-031,1,stroop_test,120.23246995608402,
,,,,13.0,1.0,1.0,,,,,,,,,,,,,gelb,yellow,g,1.0,g,1.0,0.643391250006971,,,,,,,,,,1.0,1.0,13.0,11.0,219.32489891599107,,,,,,,,,,,,,,,,,219.3148642499873,220.1137479159952,220.9185782909917,220.9064569579932,,,,,,,,,,,,,,,,,,,,,,,,,,,,,,,,,,,220.91160108298936,220.9185782909917,220.9185782909917,221.56376220799572,g,1.0,0.643391250006971,,,,,,sub-031,1,stroop_test,120.23246995608402,
,,,,14.0,2.0,1.0,,,,,,,,,,,,,gelb,red,r,0.0,r,1.0,0.8511844580061734,,,,,,,,,,1.0,2.0,14.0,8.0,221.5723824579909,,,,,,,,,,,,,,,,,221.5643615829904,222.3634134579916,223.16483358299595,223.1564122499985,,,,,,,,,,,,,,,,,,,,,,,,,,,,,,,,,,,223.15718666599423,223.16483358299595,223.16483358299595,224.02436433298865,r,1.0,0.8511844580061734,,,,,,sub-031,1,stroop_test,120.23246995608402,
,,,,15.0,3.0,1.0,,,,,,,,,,,,,gelb,blue,b,0.0,b,1.0,0.7281909159937641,,,,,,,,,,1.0,3.0,15.0,9.0,224.0327433749917,,,,,,,,,,,,,,,,,224.0248714999907,225.22282037499824,226.01479716598988,226.0064504579932,,,,,,,,,,,,,,,,,,,,,,,,,,,,,,,,,,,226.00723937498697,226.01479716598988,226.01479716598988,226.74710520799272,b,1.0,0.7281909159937641,,,,,,sub-031,1,stroop_test,120.23246995608402,
,,,,16.0,4.0,1.0,,,,,,,,,,,,,blau,red,r,0.0,r,1.0,1.431296331997146,,,,,,,,,,1.0,4.0,16.0,4.0,226.75652087498747,,,,,,,,,,,,,,,,,226.74768024998772,227.94774433299608,228.75167474999037,228.7402124999935,,,,,,,,,,,,,,,,,,,,,,,,,,,,,,,,,,,228.74454470799537,228.75167474999037,228.75167474999037,230.19144083299037,r,1.0,1.431296331997146,,,,,,sub-031,1,stroop_test,120.23246995608402,
,,,,17.0,5.0,1.0,,,,,,,,,,,,,blau,blue,b,1.0,b,1.0,1.095211374995415,,,,,,,,,,1.0,5.0,17.0,6.0,230.19992687499325,,,,,,,,,,,,,,,,,230.1920231249969,231.3898543749965,232.18181804099004,232.1734119999892,,,,,,,,,,,,,,,,,,,,,,,,,,,,,,,,,,,232.17424487498647,232.18181804099004,232.18181804099004,233.28106904099693,b,1.0,1.095211374995415,,,,,,sub-031,1,stroop_test,120.23246995608402,
,,,,18.0,6.0,1.0,,,,,,,,,,,,,rot,blue,b,0.0,b,1.0,0.7484035410016077,,,,,,,,,,1.0,6.0,18.0,2.0,233.30640891598887,,,,,,,,,,,,,,,,,233.2816797079868,233.3827308329928,234.18554537498855,234.173614290994,,,,,,,,,,,,,,,,,,,,,,,,,,,,,,,,,,,234.17785745799483,234.18554537498855,234.18554537498855,234.94129570799123,b,1.0,0.7484035410016077,,,,,,sub-031,1,stroop_test,120.23246995608402,
,,,,19.0,7.0,1.0,,,,,,,,,,,,,gelb,yellow,g,1.0,g,1.0,0.9587011249968782,,,,,,,,,,1.0,7.0,19.0,10.0,234.95122329099104,,,,,,,,,,,,,,,,,234.9419207079918,235.2897303749924,236.08628695798689,236.0736943749944,,,,,,,,,,,,,,,,,,,,,,,,,,,,,,,,,,,236.0787868329935,236.08628695798689,236.08628695798689,237.04710999999952,g,1.0,0.9587011249968782,,,,,,sub-031,1,stroop_test,120.23246995608402,
,,,,20.0,8.0,1.0,,,,,,,,,,,,,rot,red,r,1.0,r,1.0,0.6332410820032237,,,,,,,,,,1.0,8.0,20.0,1.0,237.0587873749901,,,,,,,,,,,,,,,,,237.047714165994,238.24799933299076,239.0527357079991,239.04032474999255,,,,,,,,,,,,,,,,,,,,,,,,,,,,,,,,,,,239.04466470799525,239.0527357079991,239.0527357079991,239.69156599999403,r,1.0,0.6332410820032237,,,,,,sub-031,1,stroop_test,120.23246995608402,
,,,,21.0,9.0,1.0,,,,,,,,,,,,,rot,yellow,g,0.0,g,1.0,1.3090718320017911,,,,,,,,,,1.0,9.0,21.0,3.0,239.7021767499973,,,,,,,,,,,,,,,,,239.69233495798835,240.04006329098772,240.831814249992,240.8236446249939,,,,,,,,,,,,,,,,,,,,,,,,,,,,,,,,,,,240.8244436249952,240.831814249992,240.831814249992,242.14694366599724,g,1.0,1.3090718320017911,,,,,,sub-031,1,stroop_test,120.23246995608402,
,,,,22.0,10.0,1.0,,,,,,,,,,,,,rot,red,r,1.0,r,1.0,1.4324612909986172,,,,,,,,,,1.0,10.0,22.0,0.0,242.1564012079907,,,,,,,,,,,,,,,,,242.1475257909915,242.4976762079896,243.29856158299663,243.2904472079972,,,,,,,,,,,,,,,,,,,,,,,,,,,,,,,,,,,243.29124970799603,243.29856158299663,243.29856158299663,244.74156166600005,r,1.0,1.4324612909986172,,,,,,sub-031,1,stroop_test,120.23246995608402,
,,,,23.0,11.0,1.0,,,,,,,,,,,,,blau,blue,b,1.0,b,1.0,0.7826147500018124,,,,,,,,,,1.0,11.0,23.0,5.0,244.75198733298748,,,,,,,,,,,,,,,,,244.74222595799077,244.83958083299515,245.6365272080002,245.624043207994,,,,,,,,,,,,,,,,,,,,,,,,,,,,,,,,,,,245.62945666599265,245.6365272080002,245.6365272080002,246.42504408299283,b,1.0,0.7826147500018124,,,,,,sub-031,1,stroop_test,120.23246995608402,
,,,,24.0,0.0,2.0,,,,,,,,,,,,,blau,blue,b,1.0,b,1.0,0.6051950410037534,,,,,,,,,,2.0,0.0,24.0,5.0,246.43469516599723,,,,,,,,,,,,,,,,,246.425645832991,246.52310687499997,247.31606466599624,247.3071989579912,,,,,,,,,,,,,,,,,,,,,,,,,,,,,,,,,,,247.30799204099455,247.31606466599624,247.31606466599624,247.92498224999872,b,1.0,0.6051950410037534,,,,,,sub-031,1,stroop_test,120.23246995608402,
,,,,25.0,1.0,2.0,,,,,,,,,,,,,blau,blue,b,1.0,b,1.0,0.557885123998858,,,,,,,,,,2.0,1.0,25.0,6.0,247.9350052079972,,,,,,,,,,,,,,,,,247.9256050829863,248.27336874998585,249.06618066599185,249.05737704099735,,,,,,,,,,,,,,,,,,,,,,,,,,,,,,,,,,,249.05831366599887,249.06618066599185,249.06618066599185,249.63071945798583,b,1.0,0.557885123998858,,,,,,sub-031,1,stroop_test,120.23246995608402,
,,,,26.0,2.0,2.0,,,,,,,,,,,,,rot,blue,b,0.0,b,1.0,0.6978537910035811,,,,,,,,,,2.0,2.0,26.0,2.0,249.63969312499103,,,,,,,,,,,,,,,,,249.631238499991,250.82356712498583,251.61924687499413,251.60714766599995,,,,,,,,,,,,,,,,,,,,,,,,,,,,,,,,,,,251.61161829099,251.61924687499413,251.61924687499413,252.3249342909985,b,1.0,0.6978537910035811,,,,,,sub-031,1,stroop_test,120.23246995608402,
,,,,27.0,3.0,2.0,,,,,,,,,,,,,rot,red,r,1.0,r,1.0,0.9181083330040564,,,,,,,,,,2.0,3.0,27.0,0.0,252.3332002499956,,,,,,,,,,,,,,,,,252.3253917080001,253.5147406249889,254.3160588749888,254.3073683749972,,,,,,,,,,,,,,,,,,,,,,,,,,,,,,,,,,,254.30832862498937,254.3160588749888,254.3160588749888,255.24159712498655,r,1.0,0.9181083330040564,,,,,,sub-031,1,stroop_test,120.23246995608402,
,,,,28.0,4.0,2.0,,,,,,,,,,,,,gelb,yellow,g,1.0,g,1.0,0.7704819569917163,,,,,,,,,,2.0,4.0,28.0,10.0,255.25001583299309,,,,,,,,,,,,,,,,,255.24209970798984,255.59058329099207,256.3856089579931,256.37422654099646,,,,,,,,,,,,,,,,,,,,,,,,,,,,,,,,,,,256.378661499999,256.3856089579931,256.3856089579931,257.15860516599787,g,1.0,0.7704819569917163,,,,,,sub-031,1,stroop_test,120.23246995608402,
,,,,29.0,5.0,2.0,,,,,,,,,,,,,blau,red,r,0.0,r,1.0,0.8649510410032235,,,,,,,,,,2.0,5.0,29.0,4.0,257.1684725829982,,,,,,,,,,,,,,,,,257.159226415999,258.3573128749995,259.1532543749927,259.1409385409934,,,,,,,,,,,,,,,,,,,,,,,,,,,,,,,,,,,259.1459779579891,259.1532543749927,259.1532543749927,260.0256104579894,r,1.0,0.8649510410032235,,,,,,sub-031,1,stroop_test,120.23246995608402,
,,,,30.0,6.0,2.0,,,,,,,,,,,,,gelb,red,r,0.0,r,1.0,0.5505918319977354,,,,,,,,,,2.0,6.0,30.0,8.0,260.0359997499909,,,,,,,,,,,,,,,,,260.0262539159885,260.3740764999966,261.1697796249937,261.1576689999929,,,,,,,,,,,,,,,,,,,,,,,,,,,,,,,,,,,261.1625186249876,261.1697796249937,261.1697796249937,261.72604845798924,r,1.0,0.5505918319977354,,,,,,sub-031,1,stroop_test,120.23246995608402,
,,,,31.0,7.0,2.0,,,,,,,,,,,,,blau,yellow,g,0.0,g,1.0,1.5444225410028594,,,,,,,,,,2.0,7.0,31.0,7.0,261.7371355409996,,,,,,,,,,,,,,,,,261.72679183298897,261.82410845799313,262.61977420799667,262.60782762499,,,,,,,,,,,,,,,,,,,,,,,,,,,,,,,,,,,262.61216845799936,262.61977420799667,262.61977420799667,264.1757574579969,g,1.0,1.5444225410028594,,,,,,sub-031,1,stroop_test,120.23246995608402,
,,,,32.0,8.0,2.0,,,,,,,,,,,,,gelb,blue,b,0.0,b,1.0,0.661395998991793,,,,,,,,,,2.0,8.0,32.0,9.0,264.1861950409948,,,,,,,,,,,,,,,,,264.1764646659867,265.37408983299974,266.1708182079892,266.1580747079861,,,,,,,,,,,,,,,,,,,,,,,,,,,,,,,,,,,266.16369745798875,266.1708182079892,266.1708182079892,266.8424702499906,b,1.0,0.661395998991793,,,,,,sub-031,1,stroop_test,120.23246995608402,
,,,,33.0,9.0,2.0,,,,,,,,,,,,,gelb,yellow,g,1.0,g,1.0,1.3057837490050588,,,,,,,,,,2.0,9.0,33.0,11.0,266.8525323329959,,,,,,,,,,,,,,,,,266.8430907909933,266.9411144159967,267.7335299159895,267.7245808329899,,,,,,,,,,,,,,,,,,,,,,,,,,,,,,,,,,,267.7255321249977,267.7335299159895,267.7335299159895,269.04236324998783,g,1.0,1.3057837490050588,,,,,,sub-031,1,stroop_test,120.23246995608402,
,,,,34.0,10.0,2.0,,,,,,,,,,,,,rot,yellow,g,0.0,g,1.0,0.5744889580091694,,,,,,,,,,2.0,10.0,34.0,3.0,269.05300554099085,,,,,,,,,,,,,,,,,269.0430058329948,270.2406259159907,271.0377996249881,271.02494708298764,,,,,,,,,,,,,,,,,,,,,,,,,,,,,,,,,,,271.0296987499896,271.0377996249881,271.0377996249881,271.6146565409872,g,1.0,0.5744889580091694,,,,,,sub-031,1,stroop_test,120.23246995608402,
,,,,35.0,11.0,2.0,,,,,,,,,,,,,rot,red,r,1.0,r,1.0,0.6241334999940591,,,,,,,,,,2.0,11.0,35.0,1.0,271.62423987498914,,,,,,,,,,,,,,,,,271.61523904099886,272.40731049999886,273.2001417499996,273.19157254099264,,,,,,,,,,,,,,,,,,,,,,,,,,,,,,,,,,,273.192519624994,273.2001417499996,273.2001417499996,273.82569629099453,r,1.0,0.6241334999940591,,,,,,sub-031,1,stroop_test,120.23246995608402,
,,,,36.0,0.0,3.0,,,,,,,,,,,,,rot,red,r,1.0,r,1.0,0.5267177490022732,,,,,,,,,,3.0,0.0,36.0,0.0,273.83185908298765,,,,,,,,,,,,,,,,,273.8263305829896,273.9245454159973,274.71654408299946,274.708154832988,,,,,,,,,,,,,,,,,,,,,,,,,,,,,,,,,,,274.7089364579879,274.71654408299946,274.71654408299946,275.24871583298955,r,1.0,0.5267177490022732,,,,,,sub-031,1,stroop_test,120.23246995608402,
,,,,37.0,1.0,3.0,,,,,,,,,,,,,blau,yellow,g,0.0,g,1.0,0.8844398740038741,,,,,,,,,,3.0,1.0,37.0,7.0,275.25797670798784,,,,,,,,,,,,,,,,,275.2494305829896,275.34771483299846,276.1438599159883,276.1311224579986,,,,,,,,,,,,,,,,,,,,,,,,,,,,,,,,,,,276.1365262499894,276.1438599159883,276.1438599159883,277.03163316599966,g,1.0,0.8844398740038741,,,,,,sub-031,1,stroop_test,120.23246995608402,
,,,,38.0,2.0,3.0,,,,,,,,,,,,,gelb,red,r,0.0,r,1.0,1.083393206994515,,,,,,,,,,3.0,2.0,38.0,8.0,277.0409298329905,,,,,,,,,,,,,,,,,277.032240665998,278.2242360409873,279.02104404098645,279.00841524999123,,,,,,,,,,,,,,,,,,,,,,,,,,,,,,,,,,,279.0133238329872,279.02104404098645,279.02104404098645,280.1096247499954,r,1.0,1.083393206994515,,,,,,sub-031,1,stroop_test,120.23246995608402,
,,,,39.0,3.0,3.0,,,,,,,,,,,,,gelb,yellow,g,1.0,g,1.0,0.6594342489988776,,,,,,,,,,3.0,3.0,39.0,11.0,280.11994791599864,,,,,,,,,,,,,,,,,280.110268540986,281.3080705409957,282.0998171659885,282.0916461249872,,,,,,,,,,,,,,,,,,,,,,,,,,,,,,,,,,,282.0924216249987,282.0998171659885,282.0998171659885,282.7654748329951,g,1.0,0.6594342489988776,,,,,,sub-031,1,stroop_test,120.23246995608402,
,,,,40.0,4.0,3.0,,,,,,,,,,,,,rot,blue,b,0.0,b,1.0,0.7948469990078593,,,,,,,,,,3.0,4.0,40.0,2.0,282.77445812498627,,,,,,,,,,,,,,,,,282.7660629159945,282.8646997909964,283.6596995829896,283.6475271659874,,,,,,,,,,,,,,,,,,,,,,,,,,,,,,,,,,,283.65239654098696,283.6596995829896,283.6596995829896,284.459587749996,b,1.0,0.7948469990078593,,,,,,sub-031,1,stroop_test,120.23246995608402,
,,,,41.0,5.0,3.0,,,,,,,,,,,,,gelb,yellow,g,1.0,g,1.0,1.903700666007353,,,,,,,,,,3.0,5.0,41.0,10.0,284.47022774998914,,,,,,,,,,,,,,,,,284.4602202909882,285.65849316598906,286.45380991599814,286.44211033299507,,,,,,,,,,,,,,,,,,,,,,,,,,,,,,,,,,,286.4464049579983,286.45380991599814,286.45380991599814,288.3597907079966,g,1.0,1.903700666007353,,,,,,sub-031,1,stroop_test,120.23246995608402,
,,,,42.0,6.0,3.0,,,,,,,,,,,,,rot,red,r,1.0,r,1.0,0.8186838749970775,,,,,,,,,,3.0,6.0,42.0,1.0,288.3704949999956,,,,,,,,,,,,,,,,,288.3604445409874,289.158103165988,289.95490924999467,289.94179070799146,,,,,,,,,,,,,,,,,,,,,,,,,,,,,,,,,,,289.9478862909891,289.95490924999467,289.95490924999467,290.7763870409981,r,1.0,0.8186838749970775,,,,,,sub-031,1,stroop_test,120.23246995608402,
,,,,43.0,7.0,3.0,,,,,,,,,,,,,rot,yellow,g,0.0,g,1.0,1.2023886249953648,,,,,,,,,,3.0,7.0,43.0,3.0,290.78672337498574,,,,,,,,,,,,,,,,,290.7770089159894,291.1248434159934,291.9171145829896,291.90891829099564,,,,,,,,,,,,,,,,,,,,,,,,,,,,,,,,,,,291.90970412499155,291.9171145829896,291.9171145829896,293.1266692499921,g,1.0,1.2023886249953648,,,,,,sub-031,1,stroop_test,120.23246995608402,
,,,,44.0,8.0,3.0,,,,,,,,,,,,,blau,red,r,0.0,r,1.0,0.6436722079961328,,,,,,,,,,3.0,8.0,44.0,4.0,293.1362406249973,,,,,,,,,,,,,,,,,293.12733754099463,293.9246751659957,294.72083399999246,294.7088346659875,,,,,,,,,,,,,,,,,,,,,,,,,,,,,,,,,,,294.7136741659924,294.72083399999246,294.72083399999246,295.3772295829985,r,1.0,0.6436722079961328,,,,,,sub-031,1,stroop_test,120.23246995608402,
,,,,45.0,9.0,3.0,,,,,,,,,,,,,gelb,blue,b,0.0,b,1.0,0.6410801239981083,,,,,,,,,,3.0,9.0,45.0,9.0,295.3890228329983,,,,,,,,,,,,,,,,,295.3779865409888,296.5748934999865,297.3715102499991,297.3590164999914,,,,,,,,,,,,,,,,,,,,,,,,,,,,,,,,,,,297.36388608299603,297.3715102499991,297.3715102499991,298.0164328749961,b,1.0,0.6410801239981083,,,,,,sub-031,1,stroop_test,120.23246995608402,
,,,,46.0,10.0,3.0,,,,,,,,,,,,,blau,blue,b,1.0,b,1.0,0.4831153319973964,,,,,,,,,,3.0,10.0,46.0,5.0,298.0416572909889,,,,,,,,,,,,,,,,,298.01702508299786,298.3654785829858,299.16034508298617,299.1485098749981,,,,,,,,,,,,,,,,,,,,,,,,,,,,,,,,,,,299.1529181659862,299.16034508298617,299.16034508298617,299.64984229099355,b,1.0,0.4831153319973964,,,,,,sub-031,1,stroop_test,120.23246995608402,
,,,,47.0,11.0,3.0,,,,,,,,,,,,,blau,blue,b,1.0,b,1.0,0.3842312909982865,,,,,,,,,,3.0,11.0,47.0,6.0,299.65897591599787,,,,,,,,,,,,,,,,,299.6504656659963,300.8495448749891,301.6503369159909,301.64212124999904,,,,,,,,,,,,,,,,,,,,,,,,,,,,,,,,,,,301.6429294579866,301.6503369159909,301.6503369159909,302.0435894999973,b,1.0,0.3842312909982865,,,,,,sub-031,1,stroop_test,120.23246995608402,
,,,,48.0,0.0,4.0,,,,,,,,,,,,,rot,yellow,g,0.0,g,1.0,1.2851816239999607,,,,,,,,,,4.0,0.0,48.0,3.0,302.05251308299194,,,,,,,,,,,,,,,,,302.04410649999045,302.8418174159888,303.6384802909888,303.6256743329868,,,,,,,,,,,,,,,,,,,,,,,,,,,,,,,,,,,303.6305600409978,303.6384802909888,303.6384802909888,304.9265853329998,g,1.0,1.2851816239999607,,,,,,sub-031,1,stroop_test,120.23246995608402,
,,,,49.0,1.0,4.0,,,,,,,,,,,,,gelb,red,r,0.0,r,1.0,0.6898755830043228,,,,,,,,,,4.0,1.0,49.0,8.0,304.93600958299066,,,,,,,,,,,,,,,,,304.92725883299136,305.7164449999982,306.5217554159899,306.5090451659926,,,,,,,,,,,,,,,,,,,,,,,,,,,,,,,,,,,306.5143507909961,306.5217554159899,306.5217554159899,307.2166095829889,r,1.0,0.6898755830043228,,,,,,sub-031,1,stroop_test,120.23246995608402,
,,,,50.0,2.0,4.0,,,,,,,,,,,,,blau,red,r,0.0,r,1.0,1.0303975410060957,,,,,,,,,,4.0,2.0,50.0,4.0,307.2257688329992,,,,,,,,,,,,,,,,,307.21709837499657,307.31697083299514,308.1222538749862,308.1093529999925,,,,,,,,,,,,,,,,,,,,,,,,,,,,,,,,,,,308.1151322909864,308.1222538749862,308.1222538749862,309.1606365409971,r,1.0,1.0303975410060957,,,,,,sub-031,1,stroop_test,120.23246995608402,
,,,,51.0,3.0,4.0,,,,,,,,,,,,,gelb,yellow,g,1.0,g,1.0,0.6761657489987556,,,,,,,,,,4.0,3.0,51.0,11.0,309.170728165991,,,,,,,,,,,,,,,,,309.1612442909973,309.5088628749945,310.30458379098854,310.2924342079932,,,,,,,,,,,,,,,,,,,,,,,,,,,,,,,,,,,310.2968808749865,310.30458379098854,310.30458379098854,310.98376320798707,g,1.0,0.6761657489987556,,,,,,sub-031,1,stroop_test,120.23246995608402,
,,,,52.0,4.0,4.0,,,,,,,,,,,,,rot,red,r,1.0,r,1.0,1.40279808199557,,,,,,,,,,4.0,4.0,52.0,0.0,310.9945298749953,,,,,,,,,,,,,,,,,310.9843622079934,311.3327917079878,312.137958583,312.12613749998854,,,,,,,,,,,,,,,,,,,,,,,,,,,,,,,,,,,312.1304879579984,312.137958583,312.137958583,313.5436690409988,r,1.0,1.40279808199557,,,,,,sub-031,1,stroop_test,120.23246995608402,
,,,,53.0,5.0,4.0,,,,,,,,,,,,,gelb,yellow,g,1.0,g,1.0,0.5860559580032714,,,,,,,,,,4.0,5.0,53.0,10.0,313.55370829098683,,,,,,,,,,,,,,,,,313.5443069579924,314.7426129159867,315.5377584999951,315.52613645799283,,,,,,,,,,,,,,,,,,,,,,,,,,,,,,,,,,,315.53043183298723,315.5377584999951,315.5377584999951,316.1271596659936,g,1.0,0.5860559580032714,,,,,,sub-031,1,stroop_test,120.23246995608402,
,,,,54.0,6.0,4.0,,,,,,,,,,,,,blau,yellow,g,0.0,g,1.0,1.224349666008493,,,,,,,,,,4.0,6.0,54.0,7.0,316.1367400409945,,,,,,,,,,,,,,,,,316.12778266599344,317.3257574159943,318.12138537499413,318.1096316249896,,,,,,,,,,,,,,,,,,,,,,,,,,,,,,,,,,,318.11398554100015,318.12138537499413,318.12138537499413,319.3505774159857,g,1.0,1.224349666008493,,,,,,sub-031,1,stroop_test,120.23246995608402,
,,,,55.0,7.0,4.0,,,,,,,,,,,,,rot,blue,b,0.0,b,1.0,0.5860152910026954,,,,,,,,,,4.0,7.0,55.0,2.0,319.3759388749895,,,,,,,,,,,,,,,,,319.35123316598765,320.150569874997,320.954823957989,320.9430889159994,,,,,,,,,,,,,,,,,,,,,,,,,,,,,,,,,,,320.9476677079947,320.954823957989,320.954823957989,321.5438477079879,b,1.0,0.5860152910026954,,,,,,sub-031,1,stroop_test,120.23246995608402,
,,,,56.0,8.0,4.0,,,,,,,,,,,,,blau,blue,b,1.0,b,1.0,0.5111451250122627,,,,,,,,,,4.0,8.0,56.0,6.0,321.5544524999859,,,,,,,,,,,,,,,,,321.5444845829916,322.33395783299056,323.1386965409911,323.1263609999878,,,,,,,,,,,,,,,,,,,,,,,,,,,,,,,,,,,323.13133479098906,323.1386965409911,323.1386965409911,323.66101949999575,b,1.0,0.5111451250122627,,,,,,sub-031,1,stroop_test,120.23246995608402,
,,,,57.0,9.0,4.0,,,,,,,,,,,,,blau,blue,b,1.0,b,1.0,0.5166407499928027,,,,,,,,,,4.0,9.0,57.0,5.0,323.67175587499514,,,,,,,,,,,,,,,,,323.66164312498586,324.0092484999914,324.8010856249893,324.79295270799776,,,,,,,,,,,,,,,,,,,,,,,,,,,,,,,,,,,324.7937190409866,324.8010856249893,324.8010856249893,325.3277599159919,b,1.0,0.5166407499928027,,,,,,sub-031,1,stroop_test,120.23246995608402,
,,,,58.0,10.0,4.0,,,,,,,,,,,,,gelb,blue,b,0.0,b,1.0,0.5632502490043407,,,,,,,,,,4.0,10.0,58.0,9.0,325.33765412498906,,,,,,,,,,,,,,,,,325.3284199999908,326.52602187499,327.3225383329991,327.3099088329909,,,,,,,,,,,,,,,,,,,,,,,,,,,,,,,,,,,327.3155744999967,327.3225383329991,327.3225383329991,327.89445670798887,b,1.0,0.5632502490043407,,,,,,sub-031,1,stroop_test,120.23246995608402,
,,,,59.0,11.0,4.0,,,,,,,,,,,,,rot,red,r,1.0,r,1.0,1.5128273740119766,,,,,,,,,,4.0,11.0,59.0,1.0,327.9052577909897,,,,,,,,,,,,,,,,,327.89511108299484,329.0927835409966,329.88898083299864,329.8766884999932,,,,,,,,,,,,,,,,,,,,,,,,,,,,,,,,,,,329.88103437499376,329.88898083299864,329.88898083299864,331.4114557909925,r,1.0,1.5128273740119766,,,,,,sub-031,1,stroop_test,120.23246995608402,
,,,,60.0,0.0,5.0,,,,,,,,,,,,,blau,red,r,0.0,r,1.0,0.8929057490022387,,,,,,,,,,5.0,0.0,60.0,4.0,331.4221884999861,,,,,,,,,,,,,,,,,331.4120593749976,332.2095314999897,333.0060398329952,332.9935562079918,,,,,,,,,,,,,,,,,,,,,,,,,,,,,,,,,,,332.99848162499256,333.0060398329952,333.0060398329952,333.9114911659999,r,1.0,0.8929057490022387,,,,,,sub-031,1,stroop_test,120.23246995608402,
,,,,61.0,1.0,5.0,,,,,,,,,,,,,gelb,yellow,g,1.0,g,1.0,0.6100842489977367,,,,,,,,,,5.0,1.0,61.0,11.0,333.9216681659891,,,,,,,,,,,,,,,,,333.912165457994,334.00959670799784,334.80479541599925,334.79337320799823,,,,,,,,,,,,,,,,,,,,,,,,,,,,,,,,,,,334.79773445799947,334.80479541599925,334.80479541599925,335.41639391599165,g,1.0,0.6100842489977367,,,,,,sub-031,1,stroop_test,120.23246995608402,
,,,,62.0,2.0,5.0,,,,,,,,,,,,,gelb,red,r,0.0,r,1.0,1.2987266249983804,,,,,,,,,,5.0,2.0,62.0,8.0,335.42649895799696,,,,,,,,,,,,,,,,,335.4169841659896,336.6094472909899,337.4020420829911,337.393633707994,,,,,,,,,,,,,,,,,,,,,,,,,,,,,,,,,,,337.3943997909955,337.4020420829911,337.4020420829911,338.7115542909887,r,1.0,1.2987266249983804,,,,,,sub-031,1,stroop_test,120.23246995608402,
,,,,63.0,3.0,5.0,,,,,,,,,,,,,blau,blue,b,1.0,b,1.0,0.6912099570035934,,,,,,,,,,5.0,3.0,63.0,5.0,338.7227319159865,,,,,,,,,,,,,,,,,338.7122074999934,338.8097873329971,339.60576054098783,339.5934067079943,,,,,,,,,,,,,,,,,,,,,,,,,,,,,,,,,,,339.5982733749988,339.60576054098783,339.60576054098783,340.30119687499246,b,1.0,0.6912099570035934,,,,,,sub-031,1,stroop_test,120.23246995608402,
,,,,64.0,4.0,5.0,,,,,,,,,,,,,rot,yellow,g,0.0,g,1.0,0.690267790996586,,,,,,,,,,5.0,4.0,64.0,3.0,340.3264492499875,,,,,,,,,,,,,,,,,340.30180704098893,341.5001983749971,342.29571799999394,342.2832981249958,,,,,,,,,,,,,,,,,,,,,,,,,,,,,,,,,,,342.2877673329931,342.29571799999394,342.29571799999394,342.9951895829872,g,1.0,0.690267790996586,,,,,,sub-031,1,stroop_test,120.23246995608402,
,,,,65.0,5.0,5.0,,,,,,,,,,,,,rot,red,r,1.0,r,1.0,0.8210024569998495,,,,,,,,,,5.0,5.0,65.0,1.0,343.0039951249928,,,,,,,,,,,,,,,,,342.99568941599864,343.0935468749958,343.88607945799595,343.87715424998896,,,,,,,,,,,,,,,,,,,,,,,,,,,,,,,,,,,343.87805691598624,343.88607945799595,343.88607945799595,344.7115936249902,r,1.0,0.8210024569998495,,,,,,sub-031,1,stroop_test,120.23246995608402,
,,,,66.0,6.0,5.0,,,,,,,,,,,,,blau,yellow,g,0.0,g,1.0,0.8035825410042889,,,,,,,,,,5.0,6.0,66.0,7.0,344.7215827909968,,,,,,,,,,,,,,,,,344.7122182499879,344.8102952499903,345.6073127499985,345.5939156659879,,,,,,,,,,,,,,,,,,,,,,,,,,,,,,,,,,,345.5999163749948,345.6073127499985,345.6073127499985,346.41719849999936,g,1.0,0.8035825410042889,,,,,,sub-031,1,stroop_test,120.23246995608402,
,,,,67.0,7.0,5.0,,,,,,,,,,,,,rot,red,r,1.0,r,1.0,0.5238600409938954,,,,,,,,,,5.0,7.0,67.0,0.0,346.42699633298616,,,,,,,,,,,,,,,,,346.4178062499996,347.2101566659985,348.0061767499865,347.99425699999847,,,,,,,,,,,,,,,,,,,,,,,,,,,,,,,,,,,347.9987100829894,348.0061767499865,348.0061767499865,348.535295499998,r,1.0,0.5238600409938954,,,,,,sub-031,1,stroop_test,120.23246995608402,
,,,,68.0,8.0,5.0,,,,,,,,,,,,,gelb,yellow,g,1.0,g,1.0,0.4905634580063633,,,,,,,,,,5.0,8.0,68.0,10.0,348.54541229098686,,,,,,,,,,,,,,,,,348.5359087079996,349.3347440829966,350.1394908749935,350.12741741599166,,,,,,,,,,,,,,,,,,,,,,,,,,,,,,,,,,,350.1319733749988,350.1394908749935,350.1394908749935,350.63482187499176,g,1.0,0.4905634580063633,,,,,,sub-031,1,stroop_test,120.23246995608402,
,,,,69.0,9.0,5.0,,,,,,,,,,,,,blau,blue,b,1.0,b,1.0,0.5598360410076566,,,,,,,,,,5.0,9.0,69.0,6.0,350.6458422079886,,,,,,,,,,,,,,,,,350.6354518749868,351.83517508298974,352.63927824998973,352.6273967909947,,,,,,,,,,,,,,,,,,,,,,,,,,,,,,,,,,,352.6316826659895,352.63927824998973,352.63927824998973,353.2008770829998,b,1.0,0.5598360410076566,,,,,,sub-031,1,stroop_test,120.23246995608402,
,,,,70.0,10.0,5.0,,,,,,,,,,,,,gelb,blue,b,0.0,b,1.0,0.605263832010678,,,,,,,,,,5.0,10.0,70.0,9.0,353.2102826659975,,,,,,,,,,,,,,,,,353.2014777499862,353.3012704579887,354.10577537499194,354.0938850409875,,,,,,,,,,,,,,,,,,,,,,,,,,,,,,,,,,,354.09841654099,354.10577537499194,354.10577537499194,354.7179533749877,b,1.0,0.605263832010678,,,,,,sub-031,1,stroop_test,120.23246995608402,
,,,,71.0,11.0,5.0,,,,,,,,,,,,,rot,blue,b,0.0,b,1.0,0.6218880000087665,,,,,,,,,,5.0,11.0,71.0,2.0,354.7272556659882,,,,,,,,,,,,,,,,,354.7185941249918,355.5179164579895,356.32326312499936,356.310873874987,,,,,,,,,,,,,,,,,,,,,,,,,,,,,,,,,,,356.31545716599794,356.32326312499936,356.32326312499936,356.95225570799084,b,1.0,0.6218880000087665,,,,,,sub-031,1,stroop_test,120.23246995608402,
,,,,72.0,0.0,6.0,,,,,,,,,,,,,blau,blue,b,1.0,b,1.0,0.5112627069902373,,,,,,,,,,6.0,0.0,72.0,6.0,356.9628548749897,,,,,,,,,,,,,,,,,356.9528937909927,357.3017833749909,358.10678341599123,358.0941618329962,,,,,,,,,,,,,,,,,,,,,,,,,,,,,,,,,,,358.0992952079978,358.10678341599123,358.10678341599123,358.6288534159976,b,1.0,0.5112627069902373,,,,,,sub-031,1,stroop_test,120.23246995608402,
,,,,73.0,1.0,6.0,,,,,,,,,,,,,blau,yellow,g,0.0,g,1.0,0.7296862499933923,,,,,,,,,,6.0,1.0,73.0,7.0,358.6384655409929,,,,,,,,,,,,,,,,,358.62943941599224,358.97712004098867,359.76951874999213,359.7607481659943,,,,,,,,,,,,,,,,,,,,,,,,,,,,,,,,,,,359.76169604099414,359.76951874999213,359.76951874999213,360.5021822909912,g,1.0,0.7296862499933923,,,,,,sub-031,1,stroop_test,120.23246995608402,
,,,,74.0,2.0,6.0,,,,,,,,,,,,,rot,red,r,1.0,r,1.0,0.6115396249952028,,,,,,,,,,6.0,2.0,74.0,1.0,360.5128416249936,,,,,,,,,,,,,,,,,360.5027842499985,360.8514278329967,361.65755104098935,361.6441435409943,,,,,,,,,,,,,,,,,,,,,,,,,,,,,,,,,,,361.65003866599,361.65755104098935,361.65755104098935,362.2789514579927,r,1.0,0.6115396249952028,,,,,,sub-031,1,stroop_test,120.23246995608402,
,,,,75.0,3.0,6.0,,,,,,,,,,,,,gelb,red,r,0.0,r,1.0,1.6832247910060687,,,,,,,,,,6.0,3.0,75.0,8.0,362.2900076249935,,,,,,,,,,,,,,,,,362.2797226249968,363.077307790998,363.8740532909869,363.8612204999954,,,,,,,,,,,,,,,,,,,,,,,,,,,,,,,,,,,363.8663077079982,363.8740532909869,363.8740532909869,365.56238791599753,r,1.0,1.6832247910060687,,,,,,sub-031,1,stroop_test,120.23246995608402,
,,,,76.0,4.0,6.0,,,,,,,,,,,,,rot,yellow,g,0.0,g,1.0,0.7667899990046863,,,,,,,,,,6.0,4.0,76.0,3.0,365.57350670799497,,,,,,,,,,,,,,,,,365.5631510409876,365.9111113749968,366.7064381659875,366.6943787909986,,,,,,,,,,,,,,,,,,,,,,,,,,,,,,,,,,,366.6987976249948,366.7064381659875,366.7064381659875,367.47905983300006,g,1.0,0.7667899990046863,,,,,,sub-031,1,stroop_test,120.23246995608402,
,,,,77.0,5.0,6.0,,,,,,,,,,,,,gelb,blue,b,0.0,b,1.0,0.5942772069975035,,,,,,,,,,6.0,5.0,77.0,9.0,367.4904749579873,,,,,,,,,,,,,,,,,367.4798392499943,367.8272433749953,368.6229934999865,368.6110956249904,,,,,,,,,,,,,,,,,,,,,,,,,,,,,,,,,,,368.61558495799545,368.6229934999865,368.6229934999865,369.2292432499962,b,1.0,0.5942772069975035,,,,,,sub-031,1,stroop_test,120.23246995608402,
,,,,78.0,6.0,6.0,,,,,,,,,,,,,blau,blue,b,1.0,b,1.0,0.4391635820065858,,,,,,,,,,6.0,6.0,78.0,5.0,369.2394620829873,,,,,,,,,,,,,,,,,369.2298584159871,369.5775889999932,370.37297787499847,370.3610907080001,,,,,,,,,,,,,,,,,,,,,,,,,,,,,,,,,,,370.365702332987,370.37297787499847,370.37297787499847,370.8189413329965,b,1.0,0.4391635820065858,,,,,,sub-031,1,stroop_test,120.23246995608402,
,,,,79.0,7.0,6.0,,,,,,,,,,,,,blau,red,r,0.0,r,1.0,1.1126514159986982,,,,,,,,,,6.0,7.0,79.0,4.0,370.8296617909946,,,,,,,,,,,,,,,,,370.8195559999877,370.9175456249941,371.7105984579976,371.70077179098735,,,,,,,,,,,,,,,,,,,,,,,,,,,,,,,,,,,371.70154287498735,371.7105984579976,371.7105984579976,372.8292601659923,r,1.0,1.1126514159986982,,,,,,sub-031,1,stroop_test,120.23246995608402,
,,,,80.0,8.0,6.0,,,,,,,,,,,,,gelb,yellow,g,1.0,g,1.0,0.5829999989946373,,,,,,,,,,6.0,8.0,80.0,11.0,372.8399738749868,,,,,,,,,,,,,,,,,372.829871540991,374.0276332079957,374.82428524999705,374.811442708,,,,,,,,,,,,,,,,,,,,,,,,,,,,,,,,,,,374.8167580409936,374.82428524999705,374.82428524999705,375.4123453749926,g,1.0,0.5829999989946373,,,,,,sub-031,1,stroop_test,120.23246995608402,
,,,,81.0,9.0,6.0,,,,,,,,,,,,,rot,blue,b,0.0,b,1.0,0.6791838740027742,,,,,,,,,,6.0,9.0,81.0,2.0,375.4229651659989,,,,,,,,,,,,,,,,,375.4129694159929,375.7610401659913,376.5570533329883,376.54517099999066,,,,,,,,,,,,,,,,,,,,,,,,,,,,,,,,,,,376.54995524999686,376.5570533329883,376.5570533329883,377.2465697079897,b,1.0,0.6791838740027742,,,,,,sub-031,1,stroop_test,120.23246995608402,
,,,,82.0,10.0,6.0,,,,,,,,,,,,,rot,red,r,1.0,r,1.0,0.4821616240078583,,,,,,,,,,6.0,10.0,82.0,0.0,377.261231957993,,,,,,,,,,,,,,,,,377.2473040829937,378.0443834579928,378.8370245829865,378.82815345798736,,,,,,,,,,,,,,,,,,,,,,,,,,,,,,,,,,,378.8292604999879,378.8370245829865,378.8370245829865,379.3295347079984,r,1.0,0.4821616240078583,,,,,,sub-031,1,stroop_test,120.23246995608402,
,,,,83.0,11.0,6.0,,,,,,,,,,,,,gelb,yellow,g,1.0,g,1.0,0.4006757909955922,,,,,,,,,,6.0,11.0,83.0,10.0,379.34026370799984,,,,,,,,,,,,,,,,,379.33020533299714,380.1278570409922,380.9257688749931,380.911507124998,,,,,,,,,,,,,,,,,,,,,,,,,,,,,,,,,,,380.91803508299927,380.9257688749931,380.9257688749931,381.3294128749985,g,1.0,0.4006757909955922,,,,,,sub-031,1,stroop_test,120.23246995608402,
,,,,84.0,0.0,7.0,,,,,,,,,,,,,blau,red,r,0.0,r,1.0,1.362167791012325,,,,,,,,,,7.0,0.0,84.0,4.0,381.340508082998,,,,,,,,,,,,,,,,,381.330045374998,382.5278681249911,383.3231075409858,383.3114795829897,,,,,,,,,,,,,,,,,,,,,,,,,,,,,,,,,,,383.3157964999991,383.3231075409858,383.3231075409858,384.69652512499306,r,1.0,1.362167791012325,,,,,,sub-031,1,stroop_test,120.23246995608402,
,,,,85.0,1.0,7.0,,,,,,,,,,,,,blau,yellow,g,0.0,g,1.0,0.6453725000028498,,,,,,,,,,7.0,1.0,85.0,7.0,384.707434040989,,,,,,,,,,,,,,,,,384.6972274159925,385.4944707079994,386.2870415829966,386.2786351659888,,,,,,,,,,,,,,,,,,,,,,,,,,,,,,,,,,,386.2794765829895,386.2870415829966,386.2870415829966,386.9357996249892,g,1.0,0.6453725000028498,,,,,,sub-031,1,stroop_test,120.23246995608402,
,,,,86.0,2.0,7.0,,,,,,,,,,,,,gelb,yellow,g,1.0,g,1.0,0.5948442489898298,,,,,,,,,,7.0,2.0,86.0,11.0,386.9614494999987,,,,,,,,,,,,,,,,,386.93637574999593,387.0347276249959,387.8305997079879,387.8184602909896,,,,,,,,,,,,,,,,,,,,,,,,,,,,,,,,,,,387.822931082992,387.8305997079879,387.8305997079879,388.4297041249956,g,1.0,0.5948442489898298,,,,,,sub-031,1,stroop_test,120.23246995608402,
,,,,87.0,3.0,7.0,,,,,,,,,,,,,blau,blue,b,1.0,b,1.0,0.5429928740049945,,,,,,,,,,7.0,3.0,87.0,6.0,388.4394960409991,,,,,,,,,,,,,,,,,388.4303673329996,388.7783705829934,389.57349824999983,389.5616776659881,,,,,,,,,,,,,,,,,,,,,,,,,,,,,,,,,,,389.5662635409972,389.57349824999983,389.57349824999983,390.119072165995,b,1.0,0.5429928740049945,,,,,,sub-031,1,stroop_test,120.23246995608402,
,,,,88.0,4.0,7.0,,,,,,,,,,,,,gelb,yellow,g,1.0,g,1.0,0.7434337070008041,,,,,,,,,,7.0,4.0,88.0,10.0,390.1281264999998,,,,,,,,,,,,,,,,,390.1195604579989,390.4692534999922,391.2750468329905,391.26219954098633,,,,,,,,,,,,,,,,,,,,,,,,,,,,,,,,,,,391.2674032079958,391.2750468329905,391.2750468329905,392.0302318329923,g,1.0,0.7434337070008041,,,,,,sub-031,1,stroop_test,120.23246995608402,
,,,,89.0,5.0,7.0,,,,,,,,,,,,,gelb,red,r,0.0,r,1.0,0.6263242910063127,,,,,,,,,,7.0,5.0,89.0,8.0,392.0409653749957,,,,,,,,,,,,,,,,,392.03104554099264,392.1282783749921,392.920020665988,392.9121300409897,,,,,,,,,,,,,,,,,,,,,,,,,,,,,,,,,,,392.9129344999965,392.920020665988,392.920020665988,393.5526142079907,r,1.0,0.6263242910063127,,,,,,sub-031,1,stroop_test,120.23246995608402,
,,,,90.0,6.0,7.0,,,,,,,,,,,,,blau,blue,b,1.0,b,1.0,0.5708854160038754,,,,,,,,,,7.0,6.0,90.0,5.0,393.5614218749979,,,,,,,,,,,,,,,,,393.5531774999981,394.751670624988,395.5575376249908,395.54541579099896,,,,,,,,,,,,,,,,,,,,,,,,,,,,,,,,,,,395.5503519999911,395.5575376249908,395.5575376249908,396.12971199999447,b,1.0,0.5708854160038754,,,,,,sub-031,1,stroop_test,120.23246995608402,
,,,,91.0,7.0,7.0,,,,,,,,,,,,,rot,yellow,g,0.0,r,0.0,1.626997208004468,,,,,,,,,,7.0,7.0,91.0,3.0,396.1354554579884,,,,,,,,,,,,,,,,,396.1303316249978,396.4697432909888,397.2775761249941,397.26216466599726,,,,,,,,,,,,,,,,,,,,,,,,,,,,,,,,,,,397.2703541249939,397.2775761249941,397.2775761249941,398.913769915991,r,0.0,1.626997208004468,,,,,,sub-031,1,stroop_test,120.23246995608402,
,,,,92.0,8.0,7.0,,,,,,,,,,,,,rot,blue,b,0.0,b,1.0,1.019658541001263,,,,,,,,,,7.0,8.0,92.0,2.0,398.9244860829931,,,,,,,,,,,,,,,,,398.91450787498616,399.0118340409972,399.8047881659877,399.7956979999872,,,,,,,,,,,,,,,,,,,,,,,,,,,,,,,,,,,399.796626957992,399.8047881659877,399.8047881659877,400.8300828329957,b,1.0,1.019658541001263,,,,,,sub-031,1,stroop_test,120.23246995608402,
,,,,93.0,9.0,7.0,,,,,,,,,,,,,rot,red,r,1.0,r,1.0,1.2878361659968505,,,,,,,,,,7.0,9.0,93.0,1.0,400.84000812500017,,,,,,,,,,,,,,,,,400.8307114579948,400.9287069579877,401.7205639999884,401.7124519999925,,,,,,,,,,,,,,,,,,,,,,,,,,,,,,,,,,,401.7132514579862,401.7205639999884,401.7205639999884,403.013301125,r,1.0,1.2878361659968505,,,,,,sub-031,1,stroop_test,120.23246995608402,
,,,,94.0,10.0,7.0,,,,,,,,,,,,,gelb,blue,b,0.0,b,1.0,0.7127610820025438,,,,,,,,,,7.0,10.0,94.0,9.0,403.0239533749991,,,,,,,,,,,,,,,,,403.01394304099085,403.8022334579873,404.5978331249935,404.58577795799647,,,,,,,,,,,,,,,,,,,,,,,,,,,,,,,,,,,404.59032962498895,404.5978331249935,404.5978331249935,405.3132376659924,b,1.0,0.7127610820025438,,,,,,sub-031,1,stroop_test,120.23246995608402,
,,,,95.0,11.0,7.0,,,,,,,,,,,,,rot,red,r,1.0,r,1.0,1.057809249003185,,,,,,,,,,7.0,11.0,95.0,0.0,405.3229884579923,,,,,,,,,,,,,,,,,405.31377920799423,405.4024912909954,406.2077751659963,406.1959343329945,,,,,,,,,,,,,,,,,,,,,,,,,,,,,,,,,,,406.20032766599616,406.2077751659963,406.2077751659963,407.2694859999901,r,1.0,1.057809249003185,,,,,,sub-031,1,stroop_test,120.23246995608402,
,,,,96.0,0.0,8.0,,,,,,,,,,,,,rot,red,r,1.0,r,1.0,0.6067024160001893,,,,,,,,,,8.0,0.0,96.0,0.0,407.2792893329897,,,,,,,,,,,,,,,,,407.27003604099446,408.0689583749918,408.8618327909935,408.8518257079995,,,,,,,,,,,,,,,,,,,,,,,,,,,,,,,,,,,408.8526608749962,408.8618327909935,408.8618327909935,409.4699836249929,r,1.0,0.6067024160001893,,,,,,sub-031,1,stroop_test,120.23246995608402,
,,,,97.0,1.0,8.0,,,,,,,,,,,,,blau,yellow,g,0.0,g,1.0,0.8185490830073832,,,,,,,,,,8.0,1.0,97.0,7.0,409.4785824579885,,,,,,,,,,,,,,,,,409.4705154579861,409.8189367079904,410.61414241598686,410.6021329159994,,,,,,,,,,,,,,,,,,,,,,,,,,,,,,,,,,,410.606767499994,410.61414241598686,410.61414241598686,411.4366862499882,g,1.0,0.8185490830073832,,,,,,sub-031,1,stroop_test,120.23246995608402,
,,,,98.0,2.0,8.0,,,,,,,,,,,,,gelb,blue,b,0.0,b,1.0,0.7024892909976188,,,,,,,,,,8.0,2.0,98.0,9.0,411.4453932909965,,,,,,,,,,,,,,,,,411.43722737499047,411.78563374999794,412.5811726249958,412.5685277909943,,,,,,,,,,,,,,,,,,,,,,,,,,,,,,,,,,,412.5728474579955,412.5811726249958,412.5811726249958,413.2868770829955,b,1.0,0.7024892909976188,,,,,,sub-031,1,stroop_test,120.23246995608402,
,,,,99.0,3.0,8.0,,,,,,,,,,,,,gelb,yellow,g,1.0,g,1.0,0.9796091239986708,,,,,,,,,,8.0,3.0,99.0,11.0,413.2980595409899,,,,,,,,,,,,,,,,,413.28747674998885,413.63666079098766,414.438058832995,414.42981449999206,,,,,,,,,,,,,,,,,,,,,,,,,,,,,,,,,,,414.4305692079943,414.438058832995,414.438058832995,415.4203509159997,g,1.0,0.9796091239986708,,,,,,sub-031,1,stroop_test,120.23246995608402,
,,,,100.0,4.0,8.0,,,,,,,,,,,,,rot,blue,b,0.0,b,1.0,0.6898552490019938,,,,,,,,,,8.0,4.0,100.0,2.0,415.4313233749999,,,,,,,,,,,,,,,,,415.4209615,415.7705301249953,416.5747725829861,416.5627202079922,,,,,,,,,,,,,,,,,,,,,,,,,,,,,,,,,,,416.5670811659948,416.5747725829861,416.5747725829861,417.27038816599816,b,1.0,0.6898552490019938,,,,,,sub-031,1,stroop_test,120.23246995608402,
,,,,101.0,5.0,8.0,,,,,,,,,,,,,blau,blue,b,1.0,b,1.0,0.5646286249975674,,,,,,,,,,8.0,5.0,101.0,6.0,417.2789540409867,,,,,,,,,,,,,,,,,417.2710362910002,417.36917999999423,418.1650467499858,418.1525316659972,,,,,,,,,,,,,,,,,,,,,,,,,,,,,,,,,,,418.15802937498665,418.1650467499858,418.1650467499858,418.7367863749969,b,1.0,0.5646286249975674,,,,,,sub-031,1,stroop_test,120.23246995608402,
,,,,102.0,6.0,8.0,,,,,,,,,,,,,gelb,red,r,0.0,r,1.0,0.9898683739884292,,,,,,,,,,8.0,6.0,102.0,8.0,418.74604412498593,,,,,,,,,,,,,,,,,418.73736337499577,418.8374408329983,419.6417861249938,419.6294364579953,,,,,,,,,,,,,,,,,,,,,,,,,,,,,,,,,,,419.6344062079879,419.6417861249938,419.6417861249938,420.6372323329997,r,1.0,0.9898683739884292,,,,,,sub-031,1,stroop_test,120.23246995608402,
,,,,103.0,7.0,8.0,,,,,,,,,,,,,blau,red,r,0.0,r,1.0,0.7880222490057349,,,,,,,,,,8.0,7.0,103.0,4.0,420.6624812079972,,,,,,,,,,,,,,,,,420.6378234159929,420.7362216659967,421.53175270798965,421.5197297499981,,,,,,,,,,,,,,,,,,,,,,,,,,,,,,,,,,,421.5239303329872,421.53175270798965,421.53175270798965,422.33120362499903,r,1.0,0.7880222490057349,,,,,,sub-031,1,stroop_test,120.23246995608402,
,,,,104.0,8.0,8.0,,,,,,,,,,,,,rot,yellow,g,0.0,g,1.0,0.7183170000062091,,,,,,,,,,8.0,8.0,104.0,3.0,422.3422464999894,,,,,,,,,,,,,,,,,422.3319968750002,422.679251249996,423.4755049159867,423.4633551659936,,,,,,,,,,,,,,,,,,,,,,,,,,,,,,,,,,,423.4678818749962,423.4755049159867,423.4755049159867,424.1975503329886,g,1.0,0.7183170000062091,,,,,,sub-031,1,stroop_test,120.23246995608402,
,,,,105.0,9.0,8.0,,,,,,,,,,,,,blau,blue,b,1.0,b,1.0,0.4662714580044849,,,,,,,,,,8.0,9.0,105.0,5.0,424.2080073749967,,,,,,,,,,,,,,,,,424.1983071249997,424.54586087499047,425.3414961249946,425.3296535829868,,,,,,,,,,,,,,,,,,,,,,,,,,,,,,,,,,,425.333993207998,425.3414961249946,425.3414961249946,425.8145475409983,b,1.0,0.4662714580044849,,,,,,sub-031,1,stroop_test,120.23246995608402,
,,,,106.0,10.0,8.0,,,,,,,,,,,,,rot,red,r,1.0,r,1.0,0.850366249011131,,,,,,,,,,8.0,10.0,106.0,1.0,425.8239492499997,,,,,,,,,,,,,,,,,425.81512366599054,426.61250412499066,427.4092868329899,427.396743624995,,,,,,,,,,,,,,,,,,,,,,,,,,,,,,,,,,,427.401817291,427.4092868329899,427.4092868329899,428.2641188329872,r,1.0,0.850366249011131,,,,,,sub-031,1,stroop_test,120.23246995608402,
,,,,107.0,11.0,8.0,,,,,,,,,,,,,gelb,yellow,g,1.0,g,1.0,0.4665280830085976,,,,,,,,,,8.0,11.0,107.0,10.0,428.2739638329949,,,,,,,,,,,,,,,,,428.2647310829925,429.4534949159861,430.2592885829945,430.2468163329904,,,,,,,,,,,,,,,,,,,,,,,,,,,,,,,,,,,430.2518713329919,430.2592885829945,430.2592885829945,430.7309585409967,g,1.0,0.4665280830085976,,,,,,sub-031,1,stroop_test,120.23246995608402,
,,,,108.0,0.0,9.0,,,,,,,,,,,,,rot,yellow,g,0.0,g,1.0,1.1184036659979029,,,,,,,,,,9.0,0.0,108.0,3.0,430.7412344579934,,,,,,,,,,,,,,,,,430.7315543329896,431.5298894999869,432.32652120798593,432.3131989579997,,,,,,,,,,,,,,,,,,,,,,,,,,,,,,,,,,,432.3190209999884,432.32652120798593,432.32652120798593,433.447937207995,g,1.0,1.1184036659979029,,,,,,sub-031,1,stroop_test,120.23246995608402,
,,,,109.0,1.0,9.0,,,,,,,,,,,,,blau,blue,b,1.0,b,1.0,0.435847916000057,,,,,,,,,,9.0,1.0,109.0,5.0,433.4586810829933,,,,,,,,,,,,,,,,,433.4485750409949,434.6463482909894,435.4420407079888,435.4301967499923,,,,,,,,,,,,,,,,,,,,,,,,,,,,,,,,,,,435.4344763329864,435.4420407079888,435.4420407079888,435.8809864579962,b,1.0,0.435847916000057,,,,,,sub-031,1,stroop_test,120.23246995608402,
,,,,110.0,2.0,9.0,,,,,,,,,,,,,rot,blue,b,0.0,b,1.0,0.7172084570047446,,,,,,,,,,9.0,2.0,110.0,2.0,435.8917196659895,,,,,,,,,,,,,,,,,435.8816137909889,436.229848374991,437.0255612499896,437.0136780409957,,,,,,,,,,,,,,,,,,,,,,,,,,,,,,,,,,,437.017996124996,437.0255612499896,437.0255612499896,437.74813683299,b,1.0,0.7172084570047446,,,,,,sub-031,1,stroop_test,120.23246995608402,
,,,,111.0,3.0,9.0,,,,,,,,,,,,,rot,red,r,1.0,r,1.0,0.8924929159984458,,,,,,,,,,9.0,3.0,111.0,1.0,437.7587076249911,,,,,,,,,,,,,,,,,437.7489036659972,438.9468284159957,439.7393066659861,439.7304751659976,,,,,,,,,,,,,,,,,,,,,,,,,,,,,,,,,,,439.7314357909927,439.7393066659861,439.7393066659861,440.6378303329984,r,1.0,0.8924929159984458,,,,,,sub-031,1,stroop_test,120.23246995608402,
,,,,112.0,4.0,9.0,,,,,,,,,,,,,rot,red,r,1.0,r,1.0,0.572123541001929,,,,,,,,,,9.0,4.0,112.0,0.0,440.6469165409944,,,,,,,,,,,,,,,,,440.6383755409916,441.8379574579885,442.63871716598806,442.6305457499984,,,,,,,,,,,,,,,,,,,,,,,,,,,,,,,,,,,442.6313305409858,442.63871716598806,442.63871716598806,443.21488383298856,r,1.0,0.572123541001929,,,,,,sub-031,1,stroop_test,120.23246995608402,
,,,,113.0,5.0,9.0,,,,,,,,,,,,,blau,yellow,g,0.0,g,1.0,0.7329768740019063,,,,,,,,,,9.0,5.0,113.0,7.0,443.2241837079928,,,,,,,,,,,,,,,,,443.2155108329898,443.5631300409877,444.35901712499617,444.34699162498873,,,,,,,,,,,,,,,,,,,,,,,,,,,,,,,,,,,444.3515908329864,444.35901712499617,444.35901712499617,445.0988147909957,g,1.0,0.7329768740019063,,,,,,sub-031,1,stroop_test,120.23246995608402,
,,,,114.0,6.0,9.0,,,,,,,,,,,,,gelb,yellow,g,1.0,g,1.0,0.5630167069903109,,,,,,,,,,9.0,6.0,114.0,10.0,445.1095407499961,,,,,,,,,,,,,,,,,445.09947845799616,445.4468802499905,446.2419108749891,446.2306292909925,,,,,,,,,,,,,,,,,,,,,,,,,,,,,,,,,,,446.23503779098974,446.2419108749891,446.2419108749891,446.8151617909898,g,1.0,0.5630167069903109,,,,,,sub-031,1,stroop_test,120.23246995608402,
,,,,115.0,7.0,9.0,,,,,,,,,,,,,gelb,yellow,g,1.0,g,1.0,0.4698756239959039,,,,,,,,,,9.0,7.0,115.0,11.0,446.8247389159951,,,,,,,,,,,,,,,,,446.8157342499908,447.1635541249998,447.9561272079882,447.9474303329917,,,,,,,,,,,,,,,,,,,,,,,,,,,,,,,,,,,447.9483506249962,447.9561272079882,447.9561272079882,448.4315696249978,g,1.0,0.4698756239959039,,,,,,sub-031,1,stroop_test,120.23246995608402,
,,,,116.0,8.0,9.0,,,,,,,,,,,,,blau,blue,b,1.0,b,1.0,0.6037353739957325,,,,,,,,,,9.0,8.0,116.0,6.0,448.4409160829964,,,,,,,,,,,,,,,,,448.4322237499873,449.6304082499992,450.4262663329864,450.4139111659897,,,,,,,,,,,,,,,,,,,,,,,,,,,,,,,,,,,450.4190268749953,450.4262663329864,450.4262663329864,451.03183391598577,b,1.0,0.6037353739957325,,,,,,sub-031,1,stroop_test,120.23246995608402,
,,,,117.0,9.0,9.0,,,,,,,,,,,,,blau,red,r,0.0,r,1.0,1.0517193330015289,,,,,,,,,,9.0,9.0,117.0,4.0,451.0425194579875,,,,,,,,,,,,,,,,,451.0324739159987,452.23029499998665,453.0223432079947,453.0141913749976,,,,,,,,,,,,,,,,,,,,,,,,,,,,,,,,,,,453.01496979099466,453.0223432079947,453.0223432079947,454.0821423329908,r,1.0,1.0517193330015289,,,,,,sub-031,1,stroop_test,120.23246995608402,
,,,,118.0,10.0,9.0,,,,,,,,,,,,,gelb,red,r,0.0,r,1.0,1.0327079579874408,,,,,,,,,,9.0,10.0,118.0,8.0,454.0921351249999,,,,,,,,,,,,,,,,,454.0827949159866,454.8801552079967,455.6762660409877,455.6640243749862,,,,,,,,,,,,,,,,,,,,,,,,,,,,,,,,,,,455.6693310829869,455.6762660409877,455.6762660409877,456.7155428749975,r,1.0,1.0327079579874408,,,,,,sub-031,1,stroop_test,120.23246995608402,
,,,,119.0,11.0,9.0,,,,,,,,,,,,,gelb,blue,b,0.0,b,1.0,0.7050851660023909,,,,,,,,,,9.0,11.0,119.0,9.0,456.7256908749987,,,,,,,,,,,,,,,,,456.7161943329993,456.8137778749952,457.6060383749864,457.597665874986,,,,,,,,,,,,,,,,,,,,,,,,,,,,,,,,,,,457.59848741599126,457.6060383749864,457.6060383749864,458.3156897499866,b,1.0,0.7050851660023909,,,,,,sub-031,1,stroop_test,120.23246995608402,
,,,,,,,,,,,,,,,,,,,,,,,,,,,,,,,,,,,,,,,,,,,,,,,,,,,,,,,,,,,,,,,,,,,,,,,,,,,,,,,,,,,,,,,,,,,,,,,,,,,,,,458.31605374999344,458.3274110829952,463.31923687498784,463.3144790409861,sub-031,1,stroop_test,120.23246995608402,
