wordCTK,colorCTK,corrAnsCTK,congruentCTK,thisN,thisTrialN,thisRepN,keyResp_CTK.keys,keyResp_CTK.corr,keyResp_CTK.rt,keyResp_CTK.duration,wordPractice,colorPractice,corrAnsPractice,congruentPractice,respPractice.keys,respPractice.corr,respPractice.rt,respPractice.duration,word,color,corrAns,congruent,keyResp_test_run.keys,keyResp_test_run.corr,keyResp_test_run.rt,keyResp_test_run.duration,trials_CTK.thisRepN,trials_CTK.thisTrialN,trials_CTK.thisN,trials_CTK.thisIndex,trials_practice.thisRepN,trials_practice.thisTrialN,trials_practice.thisN,trials_practice.thisIndex,trials_test.thisRepN,trials_test.thisTrialN,trials_test.thisN,trials_test.thisIndex,thisRow.t,notes,instruction.started,instr_text.started,instr_image.started,instr_resp.started,instruction.stopped,instr_resp.keys,instr_resp.rt,instr_resp.duration,instr_color_to_key.started,instr_ctk.started,resp_ctk.started,instr_color_to_key.stopped,resp_ctk.keys,resp_ctk.rt,resp_ctk.duration,ITI.started,fixcross.started,fixcross.stopped,ITI.stopped,color_to_key_run.started,stimulus_CTK.started,keyResp_CTK.started,color_to_key_run.stopped,trials_CTK.keyResp_CTK.keys,trials_CTK.keyResp_CTK.corr,trials_CTK.keyResp_CTK.rt,trials_CTK.keyResp_CTK.duration,instr_practice.started,instr_practice_text.started,instr_practice_resp.started,instr_practice.stopped,instr_practice_resp.keys,instr_practice_resp.rt,instr_practice_resp.duration,practice_run.started,stimulus_practice.started,respPractice.started,practice_run.stopped,trials_practice.respPractice.keys,trials_practice.respPractice.corr,trials_practice.respPractice.rt,trials_practice.respPractice.duration,feedback.started,textFeedback.started,feedback.stopped,instr_test.started,instr_test_text.started,instr_test_resp.started,instr_test.stopped,instr_test_resp.keys,instr_test_resp.rt,instr_test_resp.duration,test_run.started,stimulus_test_run.started,keyResp_test_run.started,test_run.stopped,trials_test.keyResp_test_run.keys,trials_test.keyResp_test_run.corr,trials_test.keyResp_test_run.rt,trials_test.keyResp_test_run.duration,goodbye.started,textGoodbye.started,goodbye.stopped,participant,session,expName,frameRate,Unnamed: 111
,,,,,,,,,,,,,,,,,,,,,,,,,,,,,,,,,,,,,,,,,0.0098885000043082,0.0774898000017856,0.0774898000017856,0.0774898000017856,5.037062400006107,space,4.939617999996699,,,,,,,,,,,,,,,,,,,,,,,,,,,,,,,,,,,,,,,,,,,,,,,,,,,,,,,,,sub-164,1,stroop_test,56.774149594724896,
,,,,,,,,,,,,,,,,,,,,,,,,,,,,,,,,,,,,,,,,,,,,,,,,,5.037220000005618,5.055030900002748,5.055030900002748,8.978288000005705,space,3.9171509000007054,,,,,,,,,,,,,,,,,,,,,,,,,,,,,,,,,,,,,,,,,,,,,,,,,,sub-164,1,stroop_test,56.774149594724896,
test,yellow,g,1.0,0.0,0.0,0.0,g,1.0,0.6793894000002183,,,,,,,,,,,,,,,,,,0.0,0.0,0.0,1.0,,,,,,,,,9.096981599999708,,,,,,,,,,,,,,,,,9.08107640000526,9.096981599999708,9.934882500005187,9.892293700002485,9.920147300006647,9.934882500005187,9.934882500005187,10.628813100003754,g,1.0,0.6793894000002183,,,,,,,,,,,,,,,,,,,,,,,,,,,,,,,,,,,,,,sub-164,1,stroop_test,56.774149594724896,
test,red,r,1.0,1.0,1.0,0.0,r,1.0,0.594811100003426,,,,,,,,,,,,,,,,,,0.0,1.0,1.0,0.0,,,,,,,,,10.64553270000033,,,,,,,,,,,,,,,,,10.63038249999954,10.74020990000281,11.545529500006523,11.525658100006694,11.527141700003996,11.545529500006523,11.545529500006523,12.142926800006537,r,1.0,0.594811100003426,,,,,,,,,,,,,,,,,,,,,,,,,,,,,,,,,,,,,,sub-164,1,stroop_test,56.774149594724896,
test,blue,b,1.0,2.0,2.0,0.0,b,1.0,0.486671300001035,,,,,,,,,,,,,,,,,,0.0,2.0,2.0,2.0,,,,,,,,,12.158270600004473,,,,,,,,,,,,,,,,,12.14374850000604,12.25668250000308,13.062421200003882,13.042483200006243,13.043967200006591,13.062421200003882,13.062421200003882,13.56201080000028,b,1.0,0.486671300001035,,,,,,,,,,,,,,,,,,,,,,,,,,,,,,,,,,,,,,sub-164,1,stroop_test,56.774149594724896,
test,blue,b,1.0,3.0,0.0,1.0,b,1.0,0.785487799999828,,,,,,,,,,,,,,,,,,1.0,0.0,3.0,2.0,,,,,,,,,13.578328200004762,,,,,,,,,,,,,,,,,13.562970200000564,14.373864900000626,15.17855160000181,15.15902250000363,15.160457199999655,15.17855160000181,15.17855160000181,15.97837580000487,b,1.0,0.785487799999828,,,,,,,,,,,,,,,,,,,,,,,,,,,,,,,,,,,,,,sub-164,1,stroop_test,56.774149594724896,
test,yellow,g,1.0,4.0,1.0,1.0,g,1.0,0.5132636999987881,,,,,,,,,,,,,,,,,,1.0,1.0,4.0,1.0,,,,,,,,,15.994646999999532,,,,,,,,,,,,,,,,,15.97953220000636,16.796343600006367,17.61293000000296,17.592431800003396,17.594006700004684,17.61293000000296,17.61293000000296,18.1459157000063,g,1.0,0.5132636999987881,,,,,,,,,,,,,,,,,,,,,,,,,,,,,,,,,,,,,,sub-164,1,stroop_test,56.774149594724896,
test,red,r,1.0,5.0,2.0,1.0,r,1.0,0.3591367999979411,,,,,,,,,,,,,,,,,,1.0,2.0,5.0,0.0,,,,,,,,,18.160096700004942,,,,,,,,,,,,,,,,,18.14674620000005,18.957061700006307,19.76189800000429,19.742226500005927,19.74377920000552,19.76189800000429,19.76189800000429,20.126446000002037,r,1.0,0.3591367999979411,,,,,,,,,,,,,,,,,,,,,,,,,,,,,,,,,,,,,,sub-164,1,stroop_test,56.774149594724896,
test,blue,b,1.0,6.0,0.0,2.0,b,1.0,0.781824300000153,,,,,,,,,,,,,,,,,,2.0,0.0,6.0,2.0,,,,,,,,,20.142288900002317,,,,,,,,,,,,,,,,,20.127467600003,21.33792180000455,22.141319000002117,22.124430000003485,22.12533580000309,22.141319000002117,22.141319000002117,22.93795030000183,b,1.0,0.781824300000153,,,,,,,,,,,,,,,,,,,,,,,,,,,,,,,,,,,,,,sub-164,1,stroop_test,56.774149594724896,
test,yellow,g,1.0,7.0,1.0,2.0,g,1.0,0.6599866999968071,,,,,,,,,,,,,,,,,,2.0,1.0,7.0,1.0,,,,,,,,,22.9532010000039,,,,,,,,,,,,,,,,,22.938432800001465,23.75322060000326,24.560448500000348,24.54174160000548,24.543044500002,24.560448500000348,24.560448500000348,25.226414400000067,g,1.0,0.6599866999968071,,,,,,,,,,,,,,,,,,,,,,,,,,,,,,,,,,,,,,sub-164,1,stroop_test,56.774149594724896,
test,red,r,1.0,8.0,2.0,2.0,r,1.0,0.532610599999316,,,,,,,,,,,,,,,,,,2.0,2.0,8.0,0.0,,,,,,,,,25.24324340000021,,,,,,,,,,,,,,,,,25.227426600002214,26.43986770000629,27.2452126000062,27.225355200003836,27.226814800000284,27.2452126000062,27.2452126000062,27.792636300000595,r,1.0,0.532610599999316,,,,,,,,,,,,,,,,,,,,,,,,,,,,,,,,,,,,,,sub-164,1,stroop_test,56.774149594724896,
test,yellow,g,1.0,9.0,0.0,3.0,g,1.0,0.712707099999534,,,,,,,,,,,,,,,,,,3.0,0.0,9.0,1.0,,,,,,,,,27.80778350000037,,,,,,,,,,,,,,,,,27.793465700000525,29.006666200002652,29.81219660000352,29.79281480000645,29.7944076000058,29.81219660000352,29.81219660000352,30.54514030000428,g,1.0,0.712707099999534,,,,,,,,,,,,,,,,,,,,,,,,,,,,,,,,,,,,,,sub-164,1,stroop_test,56.774149594724896,
test,red,r,1.0,10.0,1.0,3.0,r,1.0,0.8466171999971266,,,,,,,,,,,,,,,,,,3.0,1.0,10.0,0.0,,,,,,,,,30.5596782000066,,,,,,,,,,,,,,,,,30.54599600000074,30.6543915000002,31.4624799000012,31.442492800000764,31.44395010000153,31.4624799000012,31.4624799000012,32.31272980000358,r,1.0,0.8466171999971266,,,,,,,,,,,,,,,,,,,,,,,,,,,,,,,,,,,,,,sub-164,1,stroop_test,56.774149594724896,
test,blue,b,1.0,11.0,2.0,3.0,b,1.0,0.4291111999991699,,,,,,,,,,,,,,,,,,3.0,2.0,11.0,2.0,,,,,,,,,32.32869320000464,,,,,,,,,,,,,,,,,32.31371170000057,32.423006400000304,33.22892260000663,33.209005400000024,33.21044880000409,33.22892260000663,33.22892260000663,33.66243530000065,b,1.0,0.4291111999991699,,,,,,,,,,,,,,,,,,,,,,,,,,,,,,,,,,,,,,sub-164,1,stroop_test,56.774149594724896,
,,,,,,,,,,,,,,,,,,,,,,,,,,,,,,,,,,,,,,,,,,,,,,,,,,,,,,,,,,,,,,,,,,,,33.66290560000198,33.68139710000105,33.68139710000105,35.81186990000424,space,2.1101004000011017,,,,,,,,,,,,,,,,,,,,,,,,,,,,,,,sub-164,1,stroop_test,56.774149594724896,
,,,,0.0,0.0,0.0,,,,,gelb,yellow,g,1.0,g,1.0,0.6134719000037876,,,,,,,,,,,,,,0.0,0.0,0.0,11.0,,,,,35.889314200001536,,,,,,,,,,,,,,,,,35.878397100001166,35.922947200000635,36.75441320000391,36.709254500005045,,,,,,,,,,,,,,,,36.73787710000033,36.75441320000391,36.75441320000391,37.3799627000044,g,1.0,0.6134719000037876,,37.41227079999953,37.429631200000586,38.3911675000054,,,,,,,,,,,,,,,,,,,sub-164,1,stroop_test,56.774149594724896,
,,,,1.0,1.0,0.0,,,,,blau,blue,b,1.0,b,1.0,0.6842360000009649,,,,,,,,,,,,,,0.0,1.0,1.0,5.0,,,,,38.40755310000532,,,,,,,,,,,,,,,,,38.39208750000398,38.74042900000495,39.56484250000358,39.52636480000365,,,,,,,,,,,,,,,,39.54962610000075,39.56484250000358,39.56484250000358,40.26339530000405,b,1.0,0.6842360000009649,,40.265770600002725,40.28347770000255,41.27462500000547,,,,,,,,,,,,,,,,,,,sub-164,1,stroop_test,56.774149594724896,
,,,,2.0,2.0,0.0,,,,,rot,red,r,1.0,r,1.0,0.4539083999989088,,,,,,,,,,,,,,0.0,2.0,2.0,1.0,,,,,41.29059950000374,,,,,,,,,,,,,,,,,41.27554550000059,42.07386220000626,42.89502560000256,42.85879760000535,,,,,,,,,,,,,,,,42.87936480000644,42.89502560000256,42.89502560000256,43.36392130000604,r,1.0,0.4539083999989088,,43.36554420000175,43.38265859999956,44.37337450000632,,,,,,,,,,,,,,,,,,,sub-164,1,stroop_test,56.774149594724896,
,,,,3.0,3.0,0.0,,,,,blau,red,r,0.0,r,1.0,1.114681400002155,,,,,,,,,,,,,,0.0,3.0,3.0,4.0,,,,,44.38967570000386,,,,,,,,,,,,,,,,,44.374161300002015,44.47416890000022,45.28778960000636,45.25928720000229,,,,,,,,,,,,,,,,45.27114520000032,45.28778960000636,45.28778960000636,46.41316930000176,r,1.0,1.114681400002155,,46.41490820000036,46.43207970000367,47.42468000000372,,,,,,,,,,,,,,,,,,,sub-164,1,stroop_test,56.774149594724896,
,,,,4.0,4.0,0.0,,,,,blau,yellow,g,0.0,g,1.0,0.6041450999982771,,,,,,,,,,,,,,0.0,4.0,4.0,7.0,,,,,47.44100350000372,,,,,,,,,,,,,,,,,47.42558130000543,48.224019000001135,49.028966700003366,49.009156700005406,,,,,,,,,,,,,,,,49.01060340000549,49.028966700003366,49.028966700003366,49.6597225000005,g,1.0,0.6041450999982771,,49.66150860000198,49.6792687000052,50.67652220000309,,,,,,,,,,,,,,,,,,,sub-164,1,stroop_test,56.774149594724896,
,,,,5.0,5.0,0.0,,,,,gelb,blue,b,0.0,b,1.0,0.6329646000012872,,,,,,,,,,,,,,0.0,5.0,5.0,9.0,,,,,50.69158679999964,,,,,,,,,,,,,,,,,50.677432000004046,51.47403880000638,52.28821400000015,52.25925700000517,,,,,,,,,,,,,,,,52.27126430000499,52.28821400000015,52.28821400000015,52.92649490000622,b,1.0,0.6329646000012872,,52.92789130000165,52.945844800000486,53.93106610000541,,,,,,,,,,,,,,,,,,,sub-164,1,stroop_test,56.774149594724896,
,,,,6.0,6.0,0.0,,,,,rot,blue,b,0.0,b,1.0,0.7650508000006084,,,,,,,,,,,,,,0.0,6.0,6.0,2.0,,,,,53.95772150000266,,,,,,,,,,,,,,,,,53.93188470000314,55.14136210000288,55.95586190000176,55.92589380000573,,,,,,,,,,,,,,,,55.9388814000049,55.95586190000176,55.95586190000176,56.72697640000115,b,1.0,0.7650508000006084,,56.72870970000076,56.74538940000639,57.74273070000345,,,,,,,,,,,,,,,,,,,sub-164,1,stroop_test,56.774149594724896,
,,,,7.0,7.0,0.0,,,,,gelb,yellow,g,1.0,g,1.0,0.7049999999944703,,,,,,,,,,,,,,0.0,7.0,7.0,10.0,,,,,57.75881730000401,,,,,,,,,,,,,,,,,57.7439852000025,57.84379030000128,58.670752800004266,58.641813200003526,,,,,,,,,,,,,,,,58.654503400000976,58.670752800004266,58.670752800004266,59.39396440000564,g,1.0,0.7049999999944703,,59.395825100000366,59.41371220000292,60.406746900000144,,,,,,,,,,,,,,,,,,,sub-164,1,stroop_test,56.774149594724896,
,,,,8.0,8.0,0.0,,,,,gelb,red,r,0.0,r,1.0,1.3001561000055517,,,,,,,,,,,,,,0.0,8.0,8.0,8.0,,,,,60.42364850000013,,,,,,,,,,,,,,,,,60.40755730000092,61.60723140000482,62.41192180000508,62.39235620000545,,,,,,,,,,,,,,,,62.393808300003,62.41192180000508,62.41192180000508,63.726239300005545,r,1.0,1.3001561000055517,,63.72760530000232,63.74545370000124,64.74141240000608,,,,,,,,,,,,,,,,,,,sub-164,1,stroop_test,56.774149594724896,
,,,,9.0,9.0,0.0,,,,,blau,blue,b,1.0,b,1.0,0.8721713999984786,,,,,,,,,,,,,,0.0,9.0,9.0,6.0,,,,,64.75774280000041,,,,,,,,,,,,,,,,,64.74234940000315,65.09086050000042,65.90455950000614,65.8752667000008,,,,,,,,,,,,,,,,65.88758380000218,65.90455950000614,65.90455950000614,66.7803475000037,b,1.0,0.8721713999984786,,66.78186370000185,66.79862640000647,67.79071020000265,,,,,,,,,,,,,,,,,,,sub-164,1,stroop_test,56.774149594724896,
,,,,10.0,10.0,0.0,,,,,rot,yellow,g,0.0,g,1.0,0.9940615999948932,,,,,,,,,,,,,,0.0,10.0,10.0,3.0,,,,,67.80666970000311,,,,,,,,,,,,,,,,,67.79150360000494,68.14145010000357,68.9558690000049,68.92595080000319,,,,,,,,,,,,,,,,68.93800480000209,68.9558690000049,68.9558690000049,69.96176610000111,g,1.0,0.9940615999948932,,69.9637434000033,69.980461500003,70.97380920000433,,,,,,,,,,,,,,,,,,,sub-164,1,stroop_test,56.774149594724896,
,,,,11.0,11.0,0.0,,,,,rot,red,r,1.0,r,1.0,0.7021706000014092,,,,,,,,,,,,,,0.0,11.0,11.0,0.0,,,,,70.99065160000464,,,,,,,,,,,,,,,,,70.97473780000291,71.07476810000662,71.87958970000182,71.85985559999972,,,,,,,,,,,,,,,,71.86137830000371,71.87958970000182,71.87958970000182,72.5933079000024,r,1.0,0.7021706000014092,,72.59468420000485,72.61235450000095,73.60827200000494,,,,,,,,,,,,,,,,,,,sub-164,1,stroop_test,56.774149594724896,
,,,,12.0,0.0,1.0,,,,,blau,yellow,g,0.0,g,1.0,0.6103543999997783,,,,,,,,,,,,,,1.0,0.0,12.0,7.0,,,,,73.62475210000412,,,,,,,,,,,,,,,,,73.60928680000507,73.70794020000176,74.52204500000516,74.49297740000475,,,,,,,,,,,,,,,,74.50491820000025,74.52204500000516,74.52204500000516,75.14533320000191,g,1.0,0.6103543999997783,,75.14703420000296,75.16332800000237,76.15852450000239,,,,,,,,,,,,,,,,,,,sub-164,1,stroop_test,56.774149594724896,
,,,,13.0,1.0,1.0,,,,,gelb,yellow,g,1.0,g,1.0,0.6151772000011988,,,,,,,,,,,,,,1.0,1.0,13.0,11.0,,,,,76.17618780000339,,,,,,,,,,,,,,,,,76.15944980000495,76.95686060000298,77.77470020000328,77.74255620000622,,,,,,,,,,,,,,,,77.75692370000615,77.77470020000328,77.77470020000328,78.39591610000207,g,1.0,0.6151772000011988,,78.39758100000472,78.41458740000235,79.4083352000016,,,,,,,,,,,,,,,,,,,sub-164,1,stroop_test,56.774149594724896,
,,,,14.0,2.0,1.0,,,,,rot,yellow,g,0.0,g,1.0,0.6812244999964605,,,,,,,,,,,,,,1.0,2.0,14.0,3.0,,,,,79.42412460000196,,,,,,,,,,,,,,,,,79.40930520000256,79.75779570000304,80.57224190000125,80.54318100000091,,,,,,,,,,,,,,,,80.55450310000015,80.57224190000125,80.57224190000125,81.26139859999967,g,1.0,0.6812244999964605,,81.26348660000076,81.27948270000343,82.2750107000029,,,,,,,,,,,,,,,,,,,sub-164,1,stroop_test,56.774149594724896,
,,,,15.0,3.0,1.0,,,,,gelb,blue,b,0.0,b,1.0,0.9324234000014258,,,,,,,,,,,,,,1.0,3.0,15.0,9.0,,,,,82.29021300000022,,,,,,,,,,,,,,,,,82.27578800000629,83.47369590000017,84.2888810000004,84.25959960000182,,,,,,,,,,,,,,,,84.27163860000292,84.2888810000004,84.2888810000004,85.22844190000615,b,1.0,0.9324234000014258,,85.23009180000372,85.24688310000056,86.24186259999988,,,,,,,,,,,,,,,,,,,sub-164,1,stroop_test,56.774149594724896,
,,,,16.0,4.0,1.0,,,,,blau,blue,b,1.0,b,1.0,0.6980380000022706,,,,,,,,,,,,,,1.0,4.0,16.0,5.0,,,,,86.25822750000225,,,,,,,,,,,,,,,,,86.24276269999973,87.0416772000026,87.85637050000514,87.82647210000141,,,,,,,,,,,,,,,,87.83876550000423,87.85637050000514,87.85637050000514,88.56045720000111,b,1.0,0.6980380000022706,,88.56196970000019,88.57885030000034,89.57550660000561,,,,,,,,,,,,,,,,,,,sub-164,1,stroop_test,56.774149594724896,
,,,,17.0,5.0,1.0,,,,,gelb,yellow,g,1.0,g,1.0,0.545440800000506,,,,,,,,,,,,,,1.0,5.0,17.0,10.0,,,,,89.59156860000076,,,,,,,,,,,,,,,,,89.57643920000555,90.77520000000368,91.59172700000636,91.56022010000017,,,,,,,,,,,,,,,,91.57414150000112,91.59172700000636,91.59172700000636,92.1435890000066,g,1.0,0.545440800000506,,92.14495730000635,92.162708200005,93.15866950000054,,,,,,,,,,,,,,,,,,,sub-164,1,stroop_test,56.774149594724896,
,,,,18.0,6.0,1.0,,,,,gelb,red,r,0.0,r,1.0,0.636646799997834,,,,,,,,,,,,,,1.0,6.0,18.0,8.0,,,,,93.1753353000022,,,,,,,,,,,,,,,,,93.15956189999996,93.25839200000335,94.06366290000004,94.04288430000452,,,,,,,,,,,,,,,,94.04442030000064,94.06366290000004,94.06366290000004,94.71424660000048,r,1.0,0.636646799997834,,94.71591430000262,94.73307040000508,95.725755200001,,,,,,,,,,,,,,,,,,,sub-164,1,stroop_test,56.774149594724896,
,,,,19.0,7.0,1.0,,,,,rot,blue,b,0.0,b,1.0,0.6407507999974769,,,,,,,,,,,,,,1.0,7.0,19.0,2.0,,,,,95.74157130000094,,,,,,,,,,,,,,,,,95.7266963000002,96.0750632000054,96.88918430000194,96.85988380000344,,,,,,,,,,,,,,,,96.87188750000496,96.88918430000194,96.88918430000194,97.54313309999998,b,1.0,0.6407507999974769,,97.54450210000503,97.56705370000418,98.55889190000016,,,,,,,,,,,,,,,,,,,sub-164,1,stroop_test,56.774149594724896,
,,,,20.0,8.0,1.0,,,,,blau,blue,b,1.0,b,1.0,0.6730395999984466,,,,,,,,,,,,,,1.0,8.0,20.0,6.0,,,,,98.57545800000662,,,,,,,,,,,,,,,,,98.55981570000586,98.90883340000435,99.71940910000558,99.69322939999984,,,,,,,,,,,,,,,,99.70348000000376,99.71940910000558,99.71940910000558,100.39574189999983,b,1.0,0.6730395999984466,,100.3977348000044,100.41557730000204,101.4085994000052,,,,,,,,,,,,,,,,,,,sub-164,1,stroop_test,56.774149594724896,
,,,,21.0,9.0,1.0,,,,,rot,red,r,1.0,r,1.0,1.0836372999983723,,,,,,,,,,,,,,1.0,9.0,21.0,1.0,,,,,101.42518730000302,,,,,,,,,,,,,,,,,101.40955320000648,101.50841870000296,102.32350150000276,102.293256500001,,,,,,,,,,,,,,,,102.30569440000544,102.32350150000276,102.32350150000276,103.41522819999956,r,1.0,1.0836372999983723,,103.41682500000024,103.43401730000188,104.4254299000022,,,,,,,,,,,,,,,,,,,sub-164,1,stroop_test,56.774149594724896,
,,,,22.0,10.0,1.0,,,,,blau,red,r,0.0,r,1.0,1.1424253000004685,,,,,,,,,,,,,,1.0,10.0,22.0,4.0,,,,,104.44165610000346,,,,,,,,,,,,,,,,,104.42635950000113,104.5252357999998,105.34477950000291,105.3099874000036,,,,,,,,,,,,,,,,105.32745270000304,105.34477950000291,105.34477950000291,106.4990145000047,r,1.0,1.1424253000004685,,106.50059640000109,106.51739340000496,107.5087249000062,,,,,,,,,,,,,,,,,,,sub-164,1,stroop_test,56.774149594724896,
,,,,23.0,11.0,1.0,,,,,rot,red,r,1.0,r,1.0,0.5778828999973484,,,,,,,,,,,,,,1.0,11.0,23.0,0.0,,,,,107.52493669999969,,,,,,,,,,,,,,,,,107.50962770000478,107.60832780000057,108.42278670000088,108.39387379999972,,,,,,,,,,,,,,,,108.4055387000044,108.42278670000088,108.42278670000088,109.01120660000016,r,1.0,0.5778828999973484,,109.0128487000038,109.02964990000328,110.02546730000176,,,,,,,,,,,,,,,,,,,sub-164,1,stroop_test,56.774149594724896,
,,,,,,,,,,,,,,,,,,,,,,,,,,,,,,,,,,,,,,,,,,,,,,,,,,,,,,,,,,,,,,,,,,,,,,,,,,,,,,,,,,,,,,110.02583540000342,110.0491955000034,110.0491955000034,111.61019130000204,space,1.5546189999950002,,,,,,,,,,,,,sub-164,1,stroop_test,56.774149594724896,
,,,,0.0,0.0,0.0,,,,,,,,,,,,,gelb,blue,b,0.0,b,1.0,0.6080115000004298,,,,,,,,,,0.0,0.0,0.0,9.0,111.70632210000622,,,,,,,,,,,,,,,,,111.69576600000435,112.42550940000363,113.25455070000316,113.22570490000362,,,,,,,,,,,,,,,,,,,,,,,,,,,,,,,,,,113.23639520000144,113.25455070000316,113.25455070000316,113.87679570000182,b,1.0,0.6080115000004298,,,,,sub-164,1,stroop_test,56.774149594724896,
,,,,1.0,1.0,0.0,,,,,,,,,,,,,rot,red,r,1.0,r,1.0,0.410366600000998,,,,,,,,,,0.0,1.0,1.0,1.0,113.89238280000428,,,,,,,,,,,,,,,,,113.8777545000048,114.6916801000043,115.506965200002,115.47663930000272,,,,,,,,,,,,,,,,,,,,,,,,,,,,,,,,,,115.48918400000548,115.506965200002,115.506965200002,115.93300989999987,r,1.0,0.410366600000998,,,,,sub-164,1,stroop_test,56.774149594724896,
,,,,2.0,2.0,0.0,,,,,,,,,,,,,rot,yellow,g,0.0,g,1.0,0.3429509000052348,,,,,,,,,,0.0,2.0,2.0,3.0,115.94604600000456,,,,,,,,,,,,,,,,,115.9341046000045,116.29236230000242,117.09705880000548,117.07713880000664,,,,,,,,,,,,,,,,,,,,,,,,,,,,,,,,,,117.07862770000064,117.09705880000548,117.09705880000548,117.4603145000001,g,1.0,0.3429509000052348,,,,,sub-164,1,stroop_test,56.774149594724896,
,,,,3.0,3.0,0.0,,,,,,,,,,,,,blau,yellow,g,0.0,b,0.0,0.5574145999999018,,,,,,,,,,0.0,3.0,3.0,7.0,117.47627730000386,,,,,,,,,,,,,,,,,117.46127750000596,117.57529179999985,118.3859378000052,118.35946650000552,,,,,,,,,,,,,,,,,,,,,,,,,,,,,,,,,,118.3699906000038,118.3859378000052,118.3859378000052,118.94961140000667,b,0.0,0.5574145999999018,,,,,sub-164,1,stroop_test,56.774149594724896,
,,,,4.0,4.0,0.0,,,,,,,,,,,,,gelb,red,r,0.0,r,1.0,0.5984874999994645,,,,,,,,,,0.0,4.0,4.0,8.0,118.96586960000424,,,,,,,,,,,,,,,,,118.95070150000538,119.75863370000296,120.57436650000454,120.5440815000038,,,,,,,,,,,,,,,,,,,,,,,,,,,,,,,,,,120.5565840000054,120.57436650000454,120.57436650000454,121.1777618000051,r,1.0,0.5984874999994645,,,,,sub-164,1,stroop_test,56.774149594724896,
,,,,5.0,5.0,0.0,,,,,,,,,,,,,blau,blue,b,1.0,b,1.0,0.3386154000036185,,,,,,,,,,0.0,5.0,5.0,6.0,121.19428350000088,,,,,,,,,,,,,,,,,121.17889010000364,121.54178590000085,122.35761590000038,122.32681460000458,,,,,,,,,,,,,,,,,,,,,,,,,,,,,,,,,,122.33927790000598,122.35761590000038,122.35761590000038,122.7160972000056,b,1.0,0.3386154000036185,,,,,sub-164,1,stroop_test,56.774149594724896,
,,,,6.0,6.0,0.0,,,,,,,,,,,,,blau,blue,b,1.0,b,1.0,0.4510230000014417,,,,,,,,,,0.0,6.0,6.0,5.0,122.74111010000344,,,,,,,,,,,,,,,,,122.71710390000226,123.52515940000012,124.32970670000212,124.30974940000306,,,,,,,,,,,,,,,,,,,,,,,,,,,,,,,,,,124.31117910000468,124.32970670000212,124.32970670000212,124.79885820000344,b,1.0,0.4510230000014417,,,,,sub-164,1,stroop_test,56.774149594724896,
,,,,7.0,7.0,0.0,,,,,,,,,,,,,blau,red,r,0.0,b,0.0,0.5404564999989816,,,,,,,,,,0.0,7.0,7.0,4.0,124.82452000000194,,,,,,,,,,,,,,,,,124.79983360000188,125.60822870000266,126.41370970000573,126.39423050000188,,,,,,,,,,,,,,,,,,,,,,,,,,,,,,,,,,126.3958128000013,126.41370970000573,126.41370970000573,126.96459630000028,b,0.0,0.5404564999989816,,,,,sub-164,1,stroop_test,56.774149594724896,
,,,,8.0,8.0,0.0,,,,,,,,,,,,,gelb,yellow,g,1.0,g,1.0,0.502622899999551,,,,,,,,,,0.0,8.0,8.0,11.0,126.9810518000013,,,,,,,,,,,,,,,,,126.96573530000023,127.7755468000032,128.59201300000132,128.56045480000466,,,,,,,,,,,,,,,,,,,,,,,,,,,,,,,,,,128.5750335000048,128.59201300000132,128.59201300000132,129.0994086999999,g,1.0,0.502622899999551,,,,,sub-164,1,stroop_test,56.774149594724896,
,,,,9.0,9.0,0.0,,,,,,,,,,,,,gelb,yellow,g,1.0,g,1.0,0.4577869999993709,,,,,,,,,,0.0,9.0,9.0,10.0,129.11422880000464,,,,,,,,,,,,,,,,,129.10048920000554,129.45911010000418,130.26419490000262,130.24382020000485,,,,,,,,,,,,,,,,,,,,,,,,,,,,,,,,,,130.24528470000223,130.26419490000262,130.26419490000262,130.73386730000493,g,1.0,0.4577869999993709,,,,,sub-164,1,stroop_test,56.774149594724896,
,,,,10.0,10.0,0.0,,,,,,,,,,,,,rot,red,r,1.0,r,1.0,0.3656725000037113,,,,,,,,,,0.0,10.0,10.0,0.0,130.7477383000005,,,,,,,,,,,,,,,,,130.7349641000037,131.94251410000288,132.7576165999999,132.72769540000445,,,,,,,,,,,,,,,,,,,,,,,,,,,,,,,,,,132.73958600000333,132.7576165999999,132.7576165999999,133.12885740000638,r,1.0,0.3656725000037113,,,,,sub-164,1,stroop_test,56.774149594724896,
,,,,11.0,11.0,0.0,,,,,,,,,,,,,rot,blue,b,0.0,b,1.0,0.8750246999989031,,,,,,,,,,0.0,11.0,11.0,2.0,133.14572200000111,,,,,,,,,,,,,,,,,133.13054760000523,133.24153650000517,134.0480091000063,134.02777880000212,,,,,,,,,,,,,,,,,,,,,,,,,,,,,,,,,,134.02948100000503,134.0480091000063,134.0480091000063,134.92728960000386,b,1.0,0.8750246999989031,,,,,sub-164,1,stroop_test,56.774149594724896,
,,,,12.0,0.0,1.0,,,,,,,,,,,,,gelb,yellow,g,1.0,g,1.0,0.7583138999980292,,,,,,,,,,1.0,0.0,12.0,11.0,134.94296600000234,,,,,,,,,,,,,,,,,134.9282455000066,135.04121840000153,135.85729950000675,135.8269106000007,,,,,,,,,,,,,,,,,,,,,,,,,,,,,,,,,,135.83910370000376,135.85729950000675,135.85729950000675,136.6277698000049,g,1.0,0.7583138999980292,,,,,sub-164,1,stroop_test,56.774149594724896,
,,,,13.0,1.0,1.0,,,,,,,,,,,,,rot,yellow,g,0.0,r,0.0,0.8203369999973802,,,,,,,,,,1.0,1.0,13.0,3.0,136.64325540000573,,,,,,,,,,,,,,,,,136.62871150000137,137.84235030000127,138.6539208000031,138.62636270000075,,,,,,,,,,,,,,,,,,,,,,,,,,,,,,,,,,138.63661680000223,138.6539208000031,138.6539208000031,139.47791400000278,r,0.0,0.8203369999973802,,,,,sub-164,1,stroop_test,56.774149594724896,
,,,,14.0,2.0,1.0,,,,,,,,,,,,,blau,blue,b,1.0,b,1.0,0.635929699994449,,,,,,,,,,1.0,2.0,14.0,5.0,139.49438800000644,,,,,,,,,,,,,,,,,139.47884590000467,140.69116639999993,141.5105840000033,141.47806370000035,,,,,,,,,,,,,,,,,,,,,,,,,,,,,,,,,,141.49227190000238,141.5105840000033,141.5105840000033,142.16445329999988,b,1.0,0.635929699994449,,,,,sub-164,1,stroop_test,56.774149594724896,
,,,,15.0,3.0,1.0,,,,,,,,,,,,,rot,red,r,1.0,r,1.0,0.603476900003443,,,,,,,,,,1.0,3.0,15.0,0.0,142.17910269999993,,,,,,,,,,,,,,,,,142.16539610000473,142.9756142000042,143.79054200000246,143.76060660000076,,,,,,,,,,,,,,,,,,,,,,,,,,,,,,,,,,143.7728872000007,143.79054200000246,143.79054200000246,144.41112510000676,r,1.0,0.603476900003443,,,,,sub-164,1,stroop_test,56.774149594724896,
,,,,16.0,4.0,1.0,,,,,,,,,,,,,blau,red,r,0.0,r,1.0,1.1272993000020506,,,,,,,,,,1.0,4.0,16.0,4.0,144.4270081000068,,,,,,,,,,,,,,,,,144.41206750000129,144.77592660000664,145.58830890000536,145.55998309999995,,,,,,,,,,,,,,,,,,,,,,,,,,,,,,,,,,145.5713816000061,145.58830890000536,145.58830890000536,146.73027730000467,r,1.0,1.1272993000020506,,,,,sub-164,1,stroop_test,56.774149594724896,
,,,,17.0,5.0,1.0,,,,,,,,,,,,,gelb,yellow,g,1.0,g,1.0,1.0581872999973712,,,,,,,,,,1.0,5.0,17.0,10.0,146.74625540000125,,,,,,,,,,,,,,,,,146.73131610000564,147.54228670000157,148.35588850000204,148.32733450000524,,,,,,,,,,,,,,,,,,,,,,,,,,,,,,,,,,148.33826730000146,148.35588850000204,148.35588850000204,149.4283390000055,g,1.0,1.0581872999973712,,,,,sub-164,1,stroop_test,56.774149594724896,
,,,,18.0,6.0,1.0,,,,,,,,,,,,,blau,blue,b,1.0,b,1.0,0.5932736000031582,,,,,,,,,,1.0,6.0,18.0,6.0,149.4448807000008,,,,,,,,,,,,,,,,,149.42949770000268,149.79272520000086,150.6088931000049,150.5777799000061,,,,,,,,,,,,,,,,,,,,,,,,,,,,,,,,,,150.590019400006,150.6088931000049,150.6088931000049,151.21138190000056,b,1.0,0.5932736000031582,,,,,sub-164,1,stroop_test,56.774149594724896,
,,,,19.0,7.0,1.0,,,,,,,,,,,,,gelb,blue,b,0.0,b,1.0,0.5165489999999409,,,,,,,,,,1.0,7.0,19.0,9.0,151.2272007000065,,,,,,,,,,,,,,,,,151.2123361000049,152.42580440000165,153.24441070000466,153.21128239999962,,,,,,,,,,,,,,,,,,,,,,,,,,,,,,,,,,153.22629760000564,153.24441070000466,153.24441070000466,153.76662310000393,b,1.0,0.5165489999999409,,,,,sub-164,1,stroop_test,56.774149594724896,
,,,,20.0,8.0,1.0,,,,,,,,,,,,,rot,red,r,1.0,r,1.0,0.7851692999975057,,,,,,,,,,1.0,8.0,20.0,1.0,153.7797017000048,,,,,,,,,,,,,,,,,153.76770860000397,154.57631360000232,155.3919778000054,155.36114310000266,,,,,,,,,,,,,,,,,,,,,,,,,,,,,,,,,,155.37362779999967,155.3919778000054,155.3919778000054,156.19558600000164,r,1.0,0.7851692999975057,,,,,sub-164,1,stroop_test,56.774149594724896,
,,,,21.0,9.0,1.0,,,,,,,,,,,,,blau,yellow,g,0.0,b,0.0,1.0528825000001234,,,,,,,,,,1.0,9.0,21.0,7.0,156.2108761000054,,,,,,,,,,,,,,,,,156.19697350000206,157.00932560000365,157.82559530000435,157.7941762000046,,,,,,,,,,,,,,,,,,,,,,,,,,,,,,,,,,157.80712170000334,157.82559530000435,157.82559530000435,158.9011027000015,b,0.0,1.0528825000001234,,,,,sub-164,1,stroop_test,56.774149594724896,
,,,,22.0,10.0,1.0,,,,,,,,,,,,,gelb,red,r,0.0,r,1.0,1.3089441999982228,,,,,,,,,,1.0,10.0,22.0,8.0,158.92515060000005,,,,,,,,,,,,,,,,,158.90205000000424,159.70952840000243,160.53911030000015,160.51070410000102,,,,,,,,,,,,,,,,,,,,,,,,,,,,,,,,,,160.5232901000054,160.53911030000015,160.53911030000015,161.86529359999986,r,1.0,1.3089441999982228,,,,,sub-164,1,stroop_test,56.774149594724896,
,,,,23.0,11.0,1.0,,,,,,,,,,,,,rot,blue,b,0.0,b,1.0,1.2450500999984797,,,,,,,,,,1.0,11.0,23.0,2.0,161.8799982000055,,,,,,,,,,,,,,,,,161.86626260000048,163.07578900000226,163.88841690000118,163.86112060000596,,,,,,,,,,,,,,,,,,,,,,,,,,,,,,,,,,163.87209390000498,163.88841690000118,163.88841690000118,165.1498933000039,b,1.0,1.2450500999984797,,,,,sub-164,1,stroop_test,56.774149594724896,
,,,,24.0,0.0,2.0,,,,,,,,,,,,,rot,yellow,g,0.0,g,1.0,0.8373242000016035,,,,,,,,,,2.0,0.0,24.0,3.0,165.16852910000307,,,,,,,,,,,,,,,,,165.15104350000183,165.5092838000055,166.31484030000138,166.29481769999984,,,,,,,,,,,,,,,,,,,,,,,,,,,,,,,,,,166.29639730000054,166.31484030000138,166.31484030000138,167.1617514000027,g,1.0,0.8373242000016035,,,,,sub-164,1,stroop_test,56.774149594724896,
,,,,25.0,1.0,2.0,,,,,,,,,,,,,blau,yellow,g,0.0,g,1.0,0.6784934000024805,,,,,,,,,,2.0,1.0,25.0,7.0,167.17741760000354,,,,,,,,,,,,,,,,,167.16274390000035,168.3761427000063,169.19415339999978,169.16147430000274,,,,,,,,,,,,,,,,,,,,,,,,,,,,,,,,,,169.17625560000306,169.19415339999978,169.19415339999978,169.88300710000476,g,1.0,0.6784934000024805,,,,,sub-164,1,stroop_test,56.774149594724896,
,,,,26.0,2.0,2.0,,,,,,,,,,,,,gelb,blue,b,0.0,b,1.0,0.7590397999956622,,,,,,,,,,2.0,2.0,26.0,9.0,169.89853490000678,,,,,,,,,,,,,,,,,169.88412710000557,171.09287870000117,171.90886490000412,171.8780054000017,,,,,,,,,,,,,,,,,,,,,,,,,,,,,,,,,,171.89085370000248,171.90886490000412,171.90886490000412,172.67414710000594,b,1.0,0.7590397999956622,,,,,sub-164,1,stroop_test,56.774149594724896,
,,,,27.0,3.0,2.0,,,,,,,,,,,,,blau,blue,b,1.0,b,1.0,0.959345299997949,,,,,,,,,,2.0,3.0,27.0,5.0,172.6887915000043,,,,,,,,,,,,,,,,,172.67464690000634,172.7890384000057,173.60443460000533,173.5768065000011,,,,,,,,,,,,,,,,,,,,,,,,,,,,,,,,,,173.5874843000056,173.60443460000533,173.60443460000533,174.57803129999957,b,1.0,0.959345299997949,,,,,sub-164,1,stroop_test,56.774149594724896,
,,,,28.0,4.0,2.0,,,,,,,,,,,,,gelb,red,r,0.0,r,1.0,0.8707097000005888,,,,,,,,,,2.0,4.0,28.0,8.0,174.5936040000015,,,,,,,,,,,,,,,,,174.579009400004,175.39196600000287,176.20395819999976,176.1767547000054,,,,,,,,,,,,,,,,,,,,,,,,,,,,,,,,,,176.18815920000634,176.20395819999976,176.20395819999976,177.0781358000022,r,1.0,0.8707097000005888,,,,,sub-164,1,stroop_test,56.774149594724896,
,,,,29.0,5.0,2.0,,,,,,,,,,,,,rot,red,r,1.0,r,1.0,0.9614134000003104,,,,,,,,,,2.0,5.0,29.0,0.0,177.093967300003,,,,,,,,,,,,,,,,,177.07920000000013,177.44300460000522,178.2542664000066,178.22773360000429,,,,,,,,,,,,,,,,,,,,,,,,,,,,,,,,,,178.2379105,178.2542664000066,178.2542664000066,179.2291952000014,r,1.0,0.9614134000003104,,,,,sub-164,1,stroop_test,56.774149594724896,
,,,,30.0,6.0,2.0,,,,,,,,,,,,,rot,red,r,1.0,r,1.0,0.5008814000029815,,,,,,,,,,2.0,6.0,30.0,1.0,179.24494450000202,,,,,,,,,,,,,,,,,179.23037190000468,179.59195639999962,180.3950435000006,180.3766654000065,,,,,,,,,,,,,,,,,,,,,,,,,,,,,,,,,,180.3779255000045,180.3950435000006,180.3950435000006,180.90762050000197,r,1.0,0.5008814000029815,,,,,sub-164,1,stroop_test,56.774149594724896,
,,,,31.0,7.0,2.0,,,,,,,,,,,,,rot,blue,b,0.0,b,1.0,0.7086607000019285,,,,,,,,,,2.0,7.0,31.0,2.0,180.92240620000663,,,,,,,,,,,,,,,,,180.90812390000065,182.1089557000014,182.915078500002,182.89455889999957,,,,,,,,,,,,,,,,,,,,,,,,,,,,,,,,,,182.895998,182.915078500002,182.915078500002,183.6292245000004,b,1.0,0.7086607000019285,,,,,sub-164,1,stroop_test,56.774149594724896,
,,,,32.0,8.0,2.0,,,,,,,,,,,,,gelb,yellow,g,1.0,g,1.0,0.7874531999987084,,,,,,,,,,2.0,8.0,32.0,11.0,183.6456352000023,,,,,,,,,,,,,,,,,183.6304556000032,184.8431891,185.65811210000535,185.62786380000037,,,,,,,,,,,,,,,,,,,,,,,,,,,,,,,,,,185.64073910000295,185.65811210000535,185.65811210000535,186.46803280000316,g,1.0,0.7874531999987084,,,,,sub-164,1,stroop_test,56.774149594724896,
,,,,33.0,9.0,2.0,,,,,,,,,,,,,blau,red,r,0.0,r,1.0,0.956479099993885,,,,,,,,,,2.0,9.0,33.0,4.0,186.492198800006,,,,,,,,,,,,,,,,,186.4690824999998,186.5761609000037,187.39144270000543,187.36109680000664,,,,,,,,,,,,,,,,,,,,,,,,,,,,,,,,,,187.37336190000497,187.39144270000543,187.39144270000543,188.3621781000038,r,1.0,0.956479099993885,,,,,sub-164,1,stroop_test,56.774149594724896,
,,,,34.0,10.0,2.0,,,,,,,,,,,,,gelb,yellow,g,1.0,g,1.0,1.1064647000021068,,,,,,,,,,2.0,10.0,34.0,10.0,188.3776169000048,,,,,,,,,,,,,,,,,188.3632089000021,188.4752715000068,189.29696479999984,189.26151800000665,,,,,,,,,,,,,,,,,,,,,,,,,,,,,,,,,,189.278987800004,189.29696479999984,189.29696479999984,190.4137583000047,g,1.0,1.1064647000021068,,,,,sub-164,1,stroop_test,56.774149594724896,
,,,,35.0,11.0,2.0,,,,,,,,,,,,,blau,blue,b,1.0,b,1.0,0.5178942999991705,,,,,,,,,,2.0,11.0,35.0,6.0,190.43050870000295,,,,,,,,,,,,,,,,,190.41510460000427,191.626619900002,192.4420901000049,192.41161560000185,,,,,,,,,,,,,,,,,,,,,,,,,,,,,,,,,,192.4239611000012,192.4420901000049,192.4420901000049,192.96298390000447,b,1.0,0.5178942999991705,,,,,sub-164,1,stroop_test,56.774149594724896,
,,,,36.0,0.0,3.0,,,,,,,,,,,,,blau,red,r,0.0,r,1.0,0.8721430000005057,,,,,,,,,,3.0,0.0,36.0,4.0,192.97955329999968,,,,,,,,,,,,,,,,,192.9646192,194.1766067999997,194.9822570000033,194.96172520000252,,,,,,,,,,,,,,,,,,,,,,,,,,,,,,,,,,194.9632609000037,194.9822570000033,194.9822570000033,195.8626144000009,r,1.0,0.8721430000005057,,,,,sub-164,1,stroop_test,56.774149594724896,
,,,,37.0,1.0,3.0,,,,,,,,,,,,,gelb,yellow,g,1.0,g,1.0,0.6928865000008955,,,,,,,,,,3.0,1.0,37.0,10.0,195.87882260000333,,,,,,,,,,,,,,,,,195.8639009000035,197.07655499999964,197.89426280000043,197.8734432000056,,,,,,,,,,,,,,,,,,,,,,,,,,,,,,,,,,197.8801311000061,197.89426280000043,197.89426280000043,198.59866760000293,g,1.0,0.6928865000008955,,,,,sub-164,1,stroop_test,56.774149594724896,
,,,,38.0,2.0,3.0,,,,,,,,,,,,,rot,yellow,g,0.0,g,1.0,0.7295276000004378,,,,,,,,,,3.0,2.0,38.0,3.0,198.61513480000576,,,,,,,,,,,,,,,,,198.59978650000264,198.70870470000227,199.5255552000017,199.4950969000056,,,,,,,,,,,,,,,,,,,,,,,,,,,,,,,,,,199.5073996000065,199.5255552000017,199.5255552000017,200.279755800002,g,1.0,0.7295276000004378,,,,,sub-164,1,stroop_test,56.774149594724896,
,,,,39.0,3.0,3.0,,,,,,,,,,,,,blau,blue,b,1.0,b,1.0,0.679907000005187,,,,,,,,,,3.0,3.0,39.0,5.0,200.2971212000048,,,,,,,,,,,,,,,,,200.28152130000672,200.3926939000012,201.20857930000057,201.1781917000044,,,,,,,,,,,,,,,,,,,,,,,,,,,,,,,,,,201.1906354000021,201.20857930000057,201.20857930000057,201.8993998000005,b,1.0,0.679907000005187,,,,,sub-164,1,stroop_test,56.774149594724896,
,,,,40.0,4.0,3.0,,,,,,,,,,,,,rot,red,r,1.0,r,1.0,0.610567900002934,,,,,,,,,,3.0,4.0,40.0,0.0,201.915859700006,,,,,,,,,,,,,,,,,201.9005066000027,202.2639702000015,203.0871552000026,203.0607474999997,,,,,,,,,,,,,,,,,,,,,,,,,,,,,,,,,,203.07082760000048,203.0871552000026,203.0871552000026,203.7120576000016,r,1.0,0.610567900002934,,,,,sub-164,1,stroop_test,56.774149594724896,
,,,,41.0,5.0,3.0,,,,,,,,,,,,,rot,blue,b,0.0,b,1.0,0.6775507999991532,,,,,,,,,,3.0,5.0,41.0,2.0,203.72802610000508,,,,,,,,,,,,,,,,,203.71303810000245,204.92680780000228,205.73164080000424,205.7117628000051,,,,,,,,,,,,,,,,,,,,,,,,,,,,,,,,,,205.71320990000092,205.73164080000424,205.73164080000424,206.41224290000537,b,1.0,0.6775507999991532,,,,,sub-164,1,stroop_test,56.774149594724896,
,,,,42.0,6.0,3.0,,,,,,,,,,,,,gelb,red,r,0.0,r,1.0,1.135664599998563,,,,,,,,,,3.0,6.0,42.0,8.0,206.4277144000007,,,,,,,,,,,,,,,,,206.41317650000565,206.5257886000036,207.3468845000025,207.312030400004,,,,,,,,,,,,,,,,,,,,,,,,,,,,,,,,,,207.32954600000085,207.3468845000025,207.3468845000025,208.49492300000568,r,1.0,1.135664599998563,,,,,sub-164,1,stroop_test,56.774149594724896,
,,,,43.0,7.0,3.0,,,,,,,,,,,,,rot,red,r,1.0,r,1.0,1.1341864999994868,,,,,,,,,,3.0,7.0,43.0,1.0,208.5104943000042,,,,,,,,,,,,,,,,,208.4958545000045,209.7101292000007,210.52636170000187,210.4953498000032,,,,,,,,,,,,,,,,,,,,,,,,,,,,,,,,,,210.5092389000056,210.52636170000187,210.52636170000187,211.67951890000404,r,1.0,1.1341864999994868,,,,,sub-164,1,stroop_test,56.774149594724896,
,,,,44.0,8.0,3.0,,,,,,,,,,,,,blau,blue,b,1.0,b,1.0,0.7924935999981244,,,,,,,,,,3.0,8.0,44.0,6.0,211.69446600000083,,,,,,,,,,,,,,,,,211.6807775000052,212.49349330000405,213.30970040000105,213.27858800000104,,,,,,,,,,,,,,,,,,,,,,,,,,,,,,,,,,213.2914428000004,213.30970040000105,213.30970040000105,214.11566000000312,b,1.0,0.7924935999981244,,,,,sub-164,1,stroop_test,56.774149594724896,
,,,,45.0,9.0,3.0,,,,,,,,,,,,,gelb,blue,b,0.0,b,1.0,0.594324300000153,,,,,,,,,,3.0,9.0,45.0,9.0,214.132208300005,,,,,,,,,,,,,,,,,214.11677720000444,215.3266135000013,216.1435769000018,216.1123424000034,,,,,,,,,,,,,,,,,,,,,,,,,,,,,,,,,,216.1249863000048,216.1435769000018,216.1435769000018,216.74852630000527,b,1.0,0.594324300000153,,,,,sub-164,1,stroop_test,56.774149594724896,
,,,,46.0,10.0,3.0,,,,,,,,,,,,,blau,yellow,g,0.0,g,1.0,0.9884182000023428,,,,,,,,,,3.0,10.0,46.0,7.0,216.7648189000029,,,,,,,,,,,,,,,,,216.7496293000004,216.859119700006,217.67602120000083,217.6450499000057,,,,,,,,,,,,,,,,,,,,,,,,,,,,,,,,,,217.65745420000167,217.67602120000083,217.67602120000083,218.68309410000077,g,1.0,0.9884182000023428,,,,,sub-164,1,stroop_test,56.774149594724896,
,,,,47.0,11.0,3.0,,,,,,,,,,,,,gelb,yellow,g,1.0,g,1.0,0.6837679000018397,,,,,,,,,,3.0,11.0,47.0,11.0,218.698031800006,,,,,,,,,,,,,,,,,218.68402700000297,219.89382460000343,220.71021500000643,220.67904860000272,,,,,,,,,,,,,,,,,,,,,,,,,,,,,,,,,,220.69202460000088,220.71021500000643,220.71021500000643,221.41284930000256,g,1.0,0.6837679000018397,,,,,sub-164,1,stroop_test,56.774149594724896,
,,,,48.0,0.0,4.0,,,,,,,,,,,,,blau,blue,b,1.0,b,1.0,0.8756318000014289,,,,,,,,,,4.0,0.0,48.0,6.0,221.43249570000623,,,,,,,,,,,,,,,,,221.4139026000048,221.52604820000124,222.34421430000657,222.31200530000208,,,,,,,,,,,,,,,,,,,,,,,,,,,,,,,,,,222.325751700002,222.34421430000657,222.34421430000657,223.2308010000052,b,1.0,0.8756318000014289,,,,,sub-164,1,stroop_test,56.774149594724896,
,,,,49.0,1.0,4.0,,,,,,,,,,,,,rot,blue,b,0.0,r,0.0,1.4187559999991208,,,,,,,,,,4.0,1.0,49.0,2.0,223.24747920000664,,,,,,,,,,,,,,,,,223.2319975999999,223.34004790000472,224.1597440000041,224.1287799000056,,,,,,,,,,,,,,,,,,,,,,,,,,,,,,,,,,224.14157280000651,224.1597440000041,224.1597440000041,225.59810629999996,r,0.0,1.4187559999991208,,,,,sub-164,1,stroop_test,56.774149594724896,
,,,,50.0,2.0,4.0,,,,,,,,,,,,,blau,blue,b,1.0,b,1.0,0.5719688000026508,,,,,,,,,,4.0,2.0,50.0,5.0,225.6126551000052,,,,,,,,,,,,,,,,,225.5991043000031,225.960138500006,226.77737100000377,226.7452981000024,,,,,,,,,,,,,,,,,,,,,,,,,,,,,,,,,,226.758378700004,226.77737100000377,226.77737100000377,227.36383530000603,b,1.0,0.5719688000026508,,,,,sub-164,1,stroop_test,56.774149594724896,
,,,,51.0,3.0,4.0,,,,,,,,,,,,,blau,yellow,g,0.0,g,1.0,0.850843199994415,,,,,,,,,,4.0,3.0,51.0,7.0,227.3800815000068,,,,,,,,,,,,,,,,,227.3649191000004,228.17670020000517,228.9828482000012,228.9625364000021,,,,,,,,,,,,,,,,,,,,,,,,,,,,,,,,,,228.96420360000047,228.9828482000012,228.9828482000012,229.8457844000004,g,1.0,0.850843199994415,,,,,sub-164,1,stroop_test,56.774149594724896,
,,,,52.0,4.0,4.0,,,,,,,,,,,,,rot,red,r,1.0,r,1.0,0.6284476000000723,,,,,,,,,,4.0,4.0,52.0,0.0,229.86128630000167,,,,,,,,,,,,,,,,,229.84673500000645,230.210087200001,231.02635310000187,230.99614690000453,,,,,,,,,,,,,,,,,,,,,,,,,,,,,,,,,,231.0084695000041,231.02635310000187,231.02635310000187,231.66279000000213,r,1.0,0.6284476000000723,,,,,sub-164,1,stroop_test,56.774149594724896,
,,,,53.0,5.0,4.0,,,,,,,,,,,,,blau,red,r,0.0,r,1.0,0.9194384000002174,,,,,,,,,,4.0,5.0,53.0,4.0,231.6784314000033,,,,,,,,,,,,,,,,,231.6637606000004,231.77601520000465,232.59355760000471,232.56232330000057,,,,,,,,,,,,,,,,,,,,,,,,,,,,,,,,,,232.57647810000344,232.59355760000471,232.59355760000471,233.51764870000625,r,1.0,0.9194384000002174,,,,,sub-164,1,stroop_test,56.774149594724896,
,,,,54.0,6.0,4.0,,,,,,,,,,,,,gelb,blue,b,0.0,b,1.0,0.941561699997692,,,,,,,,,,4.0,6.0,54.0,9.0,233.53240100000403,,,,,,,,,,,,,,,,,233.51877340000647,234.72694780000165,235.5449349000046,235.5122799000019,,,,,,,,,,,,,,,,,,,,,,,,,,,,,,,,,,235.52623220000527,235.5449349000046,235.5449349000046,236.4978306000048,b,1.0,0.941561699997692,,,,,sub-164,1,stroop_test,56.774149594724896,
,,,,55.0,7.0,4.0,,,,,,,,,,,,,gelb,red,r,0.0,r,1.0,1.0025803000025917,,,,,,,,,,4.0,7.0,55.0,8.0,236.51443460000155,,,,,,,,,,,,,,,,,236.49917960000312,237.31058450000276,238.1162904000012,238.09464950000256,,,,,,,,,,,,,,,,,,,,,,,,,,,,,,,,,,238.0959660000008,238.1162904000012,238.1162904000012,239.12996480000584,r,1.0,1.0025803000025917,,,,,sub-164,1,stroop_test,56.774149594724896,
,,,,56.0,8.0,4.0,,,,,,,,,,,,,rot,red,r,1.0,r,1.0,0.5691093999994337,,,,,,,,,,4.0,8.0,56.0,1.0,239.1460106000013,,,,,,,,,,,,,,,,,239.13122280000243,239.9429036000001,240.75318590000097,240.7276106000063,,,,,,,,,,,,,,,,,,,,,,,,,,,,,,,,,,240.73744070000248,240.75318590000097,240.75318590000097,241.3299251999997,r,1.0,0.5691093999994337,,,,,sub-164,1,stroop_test,56.774149594724896,
,,,,57.0,9.0,4.0,,,,,,,,,,,,,gelb,yellow,g,1.0,g,1.0,0.7339685000042664,,,,,,,,,,4.0,9.0,57.0,11.0,241.3458135000037,,,,,,,,,,,,,,,,,241.3312786000024,242.54412740000407,243.3710424000019,243.3444200000013,,,,,,,,,,,,,,,,,,,,,,,,,,,,,,,,,,243.35511410000615,243.3710424000019,243.3710424000019,244.11625790000107,g,1.0,0.7339685000042664,,,,,sub-164,1,stroop_test,56.774149594724896,
,,,,58.0,10.0,4.0,,,,,,,,,,,,,rot,yellow,g,0.0,g,1.0,0.6151673000058508,,,,,,,,,,4.0,10.0,58.0,3.0,244.13278820000411,,,,,,,,,,,,,,,,,244.11734170000275,244.92742250000447,245.74358320000465,245.7136051000052,,,,,,,,,,,,,,,,,,,,,,,,,,,,,,,,,,245.72669660000247,245.74358320000465,245.74358320000465,246.3636528000061,g,1.0,0.6151673000058508,,,,,sub-164,1,stroop_test,56.774149594724896,
,,,,59.0,11.0,4.0,,,,,,,,,,,,,gelb,yellow,g,1.0,g,1.0,0.7512002000003122,,,,,,,,,,4.0,11.0,59.0,10.0,246.379296900006,,,,,,,,,,,,,,,,,246.36472580000557,247.17743429999973,247.9971377000038,247.96234790000017,,,,,,,,,,,,,,,,,,,,,,,,,,,,,,,,,,247.97955310000543,247.9971377000038,247.9971377000038,248.7630666000041,g,1.0,0.7512002000003122,,,,,sub-164,1,stroop_test,56.774149594724896,
,,,,60.0,0.0,5.0,,,,,,,,,,,,,blau,red,r,0.0,r,1.0,1.5545857999968575,,,,,,,,,,5.0,0.0,60.0,4.0,248.77860850000437,,,,,,,,,,,,,,,,,248.76410210000176,249.12743050000427,249.94405140000163,249.91254880000636,,,,,,,,,,,,,,,,,,,,,,,,,,,,,,,,,,249.9250194000051,249.94405140000163,249.94405140000163,251.51680420000048,r,1.0,1.5545857999968575,,,,,sub-164,1,stroop_test,56.774149594724896,
,,,,61.0,1.0,5.0,,,,,,,,,,,,,gelb,red,r,0.0,r,1.0,0.7601968000017223,,,,,,,,,,5.0,1.0,61.0,8.0,251.53167210000535,,,,,,,,,,,,,,,,,251.5177557999996,251.8772089000049,252.69338609999977,252.66267320000043,,,,,,,,,,,,,,,,,,,,,,,,,,,,,,,,,,252.6750819000008,252.69338609999977,252.69338609999977,253.46325430000437,r,1.0,0.7601968000017223,,,,,sub-164,1,stroop_test,56.774149594724896,
,,,,62.0,2.0,5.0,,,,,,,,,,,,,rot,yellow,g,0.0,g,1.0,0.5956491000033566,,,,,,,,,,5.0,2.0,62.0,3.0,253.47920210000305,,,,,,,,,,,,,,,,,253.46429770000395,254.27750610000655,255.0923564000041,255.06245490000583,,,,,,,,,,,,,,,,,,,,,,,,,,,,,,,,,,255.07440760000463,255.0923564000041,255.0923564000041,255.69733780000388,g,1.0,0.5956491000033566,,,,,sub-164,1,stroop_test,56.774149594724896,
,,,,63.0,3.0,5.0,,,,,,,,,,,,,blau,blue,b,1.0,b,1.0,0.6365657999995165,,,,,,,,,,5.0,3.0,63.0,5.0,255.71332090000212,,,,,,,,,,,,,,,,,255.6983884000001,256.9111614000067,257.7266834000038,257.6955564000018,,,,,,,,,,,,,,,,,,,,,,,,,,,,,,,,,,257.70857270000124,257.7266834000038,257.7266834000038,258.3674009000024,b,1.0,0.6365657999995165,,,,,sub-164,1,stroop_test,56.774149594724896,
,,,,64.0,4.0,5.0,,,,,,,,,,,,,rot,red,r,1.0,r,1.0,0.6750436000002082,,,,,,,,,,5.0,4.0,64.0,1.0,258.3873973000009,,,,,,,,,,,,,,,,,258.36851270000625,259.17788180000207,259.9934748000014,259.9626713000034,,,,,,,,,,,,,,,,,,,,,,,,,,,,,,,,,,259.97637110000505,259.9934748000014,259.9934748000014,260.68120640000416,r,1.0,0.6750436000002082,,,,,sub-164,1,stroop_test,56.774149594724896,
,,,,65.0,5.0,5.0,,,,,,,,,,,,,blau,yellow,g,0.0,g,1.0,0.8890381999954116,,,,,,,,,,5.0,5.0,65.0,7.0,260.6991096000056,,,,,,,,,,,,,,,,,260.6825595000046,261.0440076000013,261.8571590000065,261.82853750000504,,,,,,,,,,,,,,,,,,,,,,,,,,,,,,,,,,261.8393622000003,261.8571590000065,261.8571590000065,262.7641584000012,g,1.0,0.8890381999954116,,,,,sub-164,1,stroop_test,56.774149594724896,
,,,,66.0,6.0,5.0,,,,,,,,,,,,,gelb,yellow,g,1.0,g,1.0,0.6163254999992205,,,,,,,,,,5.0,6.0,66.0,11.0,262.7787723000001,,,,,,,,,,,,,,,,,262.7651972000021,263.126780300001,263.94303930000024,263.9124804000021,,,,,,,,,,,,,,,,,,,,,,,,,,,,,,,,,,263.92528600000514,263.94303930000024,263.94303930000024,264.5627158000061,g,1.0,0.6163254999992205,,,,,sub-164,1,stroop_test,56.774149594724896,
,,,,67.0,7.0,5.0,,,,,,,,,,,,,blau,blue,b,1.0,b,1.0,0.6021489999984624,,,,,,,,,,5.0,7.0,67.0,6.0,264.5785123000024,,,,,,,,,,,,,,,,,264.56362130000343,264.92816570000286,265.7422255000056,265.7125942000057,,,,,,,,,,,,,,,,,,,,,,,,,,,,,,,,,,265.72502800000075,265.7422255000056,265.7422255000056,266.3498575000049,b,1.0,0.6021489999984624,,,,,sub-164,1,stroop_test,56.774149594724896,
,,,,68.0,8.0,5.0,,,,,,,,,,,,,rot,red,r,1.0,r,1.0,0.6504943000036292,,,,,,,,,,5.0,8.0,68.0,0.0,266.3660469000024,,,,,,,,,,,,,,,,,266.3508961000043,267.5607208000001,268.376445300004,268.3462598000042,,,,,,,,,,,,,,,,,,,,,,,,,,,,,,,,,,268.3583050000016,268.376445300004,268.376445300004,269.04683930000465,r,1.0,0.6504943000036292,,,,,sub-164,1,stroop_test,56.774149594724896,
,,,,69.0,9.0,5.0,,,,,,,,,,,,,rot,blue,b,0.0,b,1.0,1.112523899995722,,,,,,,,,,5.0,9.0,69.0,2.0,269.06297460000496,,,,,,,,,,,,,,,,,269.04798900000605,270.2610687000051,271.0806232000032,271.06157019999955,,,,,,,,,,,,,,,,,,,,,,,,,,,,,,,,,,271.0628185000023,271.0806232000032,271.0806232000032,272.197767800004,b,1.0,1.112523899995722,,,,,sub-164,1,stroop_test,56.774149594724896,
,,,,70.0,10.0,5.0,,,,,,,,,,,,,gelb,blue,b,0.0,b,1.0,1.0520981999943615,,,,,,,,,,5.0,10.0,70.0,9.0,272.213253300004,,,,,,,,,,,,,,,,,272.19875810000667,272.31122250000044,273.1296452000024,273.0960405000005,,,,,,,,,,,,,,,,,,,,,,,,,,,,,,,,,,273.1109623000011,273.1296452000024,273.1296452000024,274.2014466000037,b,1.0,1.0520981999943615,,,,,sub-164,1,stroop_test,56.774149594724896,
,,,,71.0,11.0,5.0,,,,,,,,,,,,,gelb,yellow,g,1.0,g,1.0,0.8236988999997266,,,,,,,,,,5.0,11.0,71.0,10.0,274.2168491000048,,,,,,,,,,,,,,,,,274.20252320000145,275.0108376999997,275.8165058000013,275.7961703000037,,,,,,,,,,,,,,,,,,,,,,,,,,,,,,,,,,275.79763020000246,275.8165058000013,275.8165058000013,276.6518845000028,g,1.0,0.8236988999997266,,,,,sub-164,1,stroop_test,56.774149594724896,
,,,,72.0,0.0,6.0,,,,,,,,,,,,,gelb,blue,b,0.0,b,1.0,0.9252667999971892,,,,,,,,,,6.0,0.0,72.0,9.0,276.6769779000024,,,,,,,,,,,,,,,,,276.6529900000023,276.7608077000041,277.56651370000327,277.5462556000057,,,,,,,,,,,,,,,,,,,,,,,,,,,,,,,,,,277.54774510000425,277.56651370000327,277.56651370000327,278.49646270000085,b,1.0,0.9252667999971892,,,,,sub-164,1,stroop_test,56.774149594724896,
,,,,73.0,1.0,6.0,,,,,,,,,,,,,blau,yellow,g,0.0,g,1.0,1.0327965999968,,,,,,,,,,6.0,1.0,73.0,7.0,278.51179330000014,,,,,,,,,,,,,,,,,278.4974583000003,279.3110563000009,280.1283872000058,280.0961469000031,,,,,,,,,,,,,,,,,,,,,,,,,,,,,,,,,,280.1086429000061,280.1283872000058,280.1283872000058,281.1678863000052,g,1.0,1.0327965999968,,,,,sub-164,1,stroop_test,56.774149594724896,
,,,,74.0,2.0,6.0,,,,,,,,,,,,,rot,red,r,1.0,r,1.0,0.6069750999959069,,,,,,,,,,6.0,2.0,74.0,1.0,281.1819711999997,,,,,,,,,,,,,,,,,281.1688160000049,281.9779355999999,282.79260060000524,282.7625549000004,,,,,,,,,,,,,,,,,,,,,,,,,,,,,,,,,,282.7742559000035,282.79260060000524,282.79260060000524,283.40500330000214,r,1.0,0.6069750999959069,,,,,sub-164,1,stroop_test,56.774149594724896,
,,,,75.0,3.0,6.0,,,,,,,,,,,,,gelb,yellow,g,1.0,g,1.0,0.923585299999104,,,,,,,,,,6.0,3.0,75.0,11.0,283.42730240000674,,,,,,,,,,,,,,,,,283.40653930000553,284.21084770000016,285.0266077000051,284.9963799000034,,,,,,,,,,,,,,,,,,,,,,,,,,,,,,,,,,285.00847110000177,285.0266077000051,285.0266077000051,285.9632475000035,g,1.0,0.923585299999104,,,,,sub-164,1,stroop_test,56.774149594724896,
,,,,76.0,4.0,6.0,,,,,,,,,,,,,blau,blue,b,1.0,b,1.0,0.5995696999962092,,,,,,,,,,6.0,4.0,76.0,6.0,285.9787630999999,,,,,,,,,,,,,,,,,285.96420610000496,286.77804260000266,287.596547000001,287.5634946000064,,,,,,,,,,,,,,,,,,,,,,,,,,,,,,,,,,287.57760970000527,287.596547000001,287.596547000001,288.20140400000673,b,1.0,0.5995696999962092,,,,,sub-164,1,stroop_test,56.774149594724896,
,,,,77.0,5.0,6.0,,,,,,,,,,,,,rot,blue,b,0.0,b,1.0,1.0832481999968877,,,,,,,,,,6.0,5.0,77.0,2.0,288.2165816000052,,,,,,,,,,,,,,,,,288.2024715000007,288.3113526000016,289.12659859999985,289.0963797000004,,,,,,,,,,,,,,,,,,,,,,,,,,,,,,,,,,289.10847950000607,289.12659859999985,289.12659859999985,290.21839880000334,b,1.0,1.0832481999968877,,,,,sub-164,1,stroop_test,56.774149594724896,
,,,,78.0,6.0,6.0,,,,,,,,,,,,,gelb,red,r,0.0,r,1.0,1.2930348000008962,,,,,,,,,,6.0,6.0,78.0,8.0,290.2328969000009,,,,,,,,,,,,,,,,,290.2194914000065,291.42801150000014,292.2433672000043,292.2132270000002,,,,,,,,,,,,,,,,,,,,,,,,,,,,,,,,,,292.22553360000165,292.2433672000043,292.2433672000043,293.55018420000124,r,1.0,1.2930348000008962,,,,,sub-164,1,stroop_test,56.774149594724896,
,,,,79.0,7.0,6.0,,,,,,,,,,,,,blau,blue,b,1.0,b,1.0,0.8227492000005441,,,,,,,,,,6.0,7.0,79.0,5.0,293.5662281000041,,,,,,,,,,,,,,,,,293.5512514000002,294.7617367000057,295.57830280000053,295.547012300005,,,,,,,,,,,,,,,,,,,,,,,,,,,,,,,,,,295.5600313000032,295.57830280000053,295.57830280000053,296.4128773000048,b,1.0,0.8227492000005441,,,,,sub-164,1,stroop_test,56.774149594724896,
,,,,80.0,8.0,6.0,,,,,,,,,,,,,gelb,yellow,g,1.0,g,1.0,0.8482346999953734,,,,,,,,,,6.0,8.0,80.0,10.0,296.42832450000424,,,,,,,,,,,,,,,,,296.4138208000004,296.52835340000456,297.3445409000051,297.31312790000084,,,,,,,,,,,,,,,,,,,,,,,,,,,,,,,,,,297.3267014000012,297.3445409000051,297.3445409000051,298.21896070000366,g,1.0,0.8482346999953734,,,,,sub-164,1,stroop_test,56.774149594724896,
,,,,81.0,9.0,6.0,,,,,,,,,,,,,rot,red,r,1.0,r,1.0,0.8288579000000027,,,,,,,,,,6.0,9.0,81.0,0.0,298.24738820000493,,,,,,,,,,,,,,,,,298.2207025000025,298.3317129999996,299.15791820000595,299.12869870000577,,,,,,,,,,,,,,,,,,,,,,,,,,,,,,,,,,299.1401496000035,299.15791820000595,299.15791820000595,299.9924502000067,r,1.0,0.8288579000000027,,,,,sub-164,1,stroop_test,56.774149594724896,
,,,,82.0,10.0,6.0,,,,,,,,,,,,,rot,yellow,g,0.0,g,1.0,0.673443400002725,,,,,,,,,,6.0,10.0,82.0,3.0,300.0075410999998,,,,,,,,,,,,,,,,,299.9929520000005,301.19371160000446,301.99871630000416,301.97905750000064,,,,,,,,,,,,,,,,,,,,,,,,,,,,,,,,,,301.9804967000018,301.99871630000416,301.99871630000416,302.6802400000015,g,1.0,0.673443400002725,,,,,sub-164,1,stroop_test,56.774149594724896,
,,,,83.0,11.0,6.0,,,,,,,,,,,,,blau,red,r,0.0,r,1.0,1.0695358000011763,,,,,,,,,,6.0,11.0,83.0,4.0,302.69608080000035,,,,,,,,,,,,,,,,,302.6812030000001,303.0449260000023,303.8601973000041,303.8297171000013,,,,,,,,,,,,,,,,,,,,,,,,,,,,,,,,,,303.8427933000057,303.8601973000041,303.8601973000041,304.934579700006,r,1.0,1.0695358000011763,,,,,sub-164,1,stroop_test,56.774149594724896,
,,,,84.0,0.0,7.0,,,,,,,,,,,,,gelb,yellow,g,1.0,g,1.0,0.8857537999938359,,,,,,,,,,7.0,0.0,84.0,11.0,304.95038330000534,,,,,,,,,,,,,,,,,304.9356954000032,305.7454490000018,306.57323180000094,306.5455462000027,,,,,,,,,,,,,,,,,,,,,,,,,,,,,,,,,,306.5556792000061,306.57323180000094,306.57323180000094,307.4804160000058,g,1.0,0.8857537999938359,,,,,sub-164,1,stroop_test,56.774149594724896,
,,,,85.0,1.0,7.0,,,,,,,,,,,,,rot,red,r,1.0,r,1.0,0.5812032999965595,,,,,,,,,,7.0,1.0,85.0,1.0,307.4967889000036,,,,,,,,,,,,,,,,,307.4815940000044,307.8447382000013,308.6575673000043,308.6289323000019,,,,,,,,,,,,,,,,,,,,,,,,,,,,,,,,,,308.6399867,308.6575673000043,308.6575673000043,309.24703010000667,r,1.0,0.5812032999965595,,,,,sub-164,1,stroop_test,56.774149594724896,
,,,,86.0,2.0,7.0,,,,,,,,,,,,,gelb,blue,b,0.0,b,1.0,0.6854239000022062,,,,,,,,,,7.0,2.0,86.0,9.0,309.2625535000043,,,,,,,,,,,,,,,,,309.2479894000062,310.4615219000043,311.2777039000066,311.24714310000127,,,,,,,,,,,,,,,,,,,,,,,,,,,,,,,,,,311.2606800000067,311.2777039000066,311.2777039000066,311.96864380000625,b,1.0,0.6854239000022062,,,,,sub-164,1,stroop_test,56.774149594724896,
,,,,87.0,3.0,7.0,,,,,,,,,,,,,blau,yellow,g,0.0,g,1.0,0.825319399998989,,,,,,,,,,7.0,3.0,87.0,7.0,311.9836723000044,,,,,,,,,,,,,,,,,311.9697202000025,313.17828730000474,313.99401750000106,313.96345080000174,,,,,,,,,,,,,,,,,,,,,,,,,,,,,,,,,,313.9757707000026,313.99401750000106,313.99401750000106,314.8297978000046,g,1.0,0.825319399998989,,,,,sub-164,1,stroop_test,56.774149594724896,
,,,,88.0,4.0,7.0,,,,,,,,,,,,,blau,blue,b,1.0,b,1.0,0.5789466999995057,,,,,,,,,,7.0,4.0,88.0,6.0,314.84538550000434,,,,,,,,,,,,,,,,,314.8307492000022,316.0449394000025,316.85059410000395,316.83028140000533,,,,,,,,,,,,,,,,,,,,,,,,,,,,,,,,,,316.83184880000044,316.85059410000395,316.85059410000395,317.4358673000024,b,1.0,0.5789466999995057,,,,,sub-164,1,stroop_test,56.774149594724896,
,,,,89.0,5.0,7.0,,,,,,,,,,,,,blau,blue,b,1.0,b,1.0,0.498519100001431,,,,,,,,,,7.0,5.0,89.0,5.0,317.4505150000041,,,,,,,,,,,,,,,,,317.4369625000036,317.7947790000035,318.59787470000447,318.57911550000426,,,,,,,,,,,,,,,,,,,,,,,,,,,,,,,,,,318.5803761999996,318.59787470000447,318.59787470000447,319.1164048000064,b,1.0,0.498519100001431,,,,,sub-164,1,stroop_test,56.774149594724896,
,,,,90.0,6.0,7.0,,,,,,,,,,,,,rot,yellow,g,0.0,r,0.0,0.568321200000355,,,,,,,,,,7.0,6.0,90.0,3.0,319.13239500000054,,,,,,,,,,,,,,,,,319.1181924000048,319.47858460000134,320.29286340000544,320.2635515000002,,,,,,,,,,,,,,,,,,,,,,,,,,,,,,,,,,320.2756776000024,320.29286340000544,320.29286340000544,320.86650580000423,r,0.0,0.568321200000355,,,,,sub-164,1,stroop_test,56.774149594724896,
,,,,91.0,7.0,7.0,,,,,,,,,,,,,rot,blue,b,0.0,b,1.0,0.9719704999952228,,,,,,,,,,7.0,7.0,91.0,2.0,320.88395510000555,,,,,,,,,,,,,,,,,320.8684968000016,320.9781790000052,321.7824658000027,321.76233890000003,,,,,,,,,,,,,,,,,,,,,,,,,,,,,,,,,,321.7637773000024,321.7824658000027,321.7824658000027,322.7640403000041,b,1.0,0.9719704999952228,,,,,sub-164,1,stroop_test,56.774149594724896,
,,,,92.0,8.0,7.0,,,,,,,,,,,,,rot,red,r,1.0,r,1.0,0.840547300002072,,,,,,,,,,7.0,8.0,92.0,0.0,322.77963750000345,,,,,,,,,,,,,,,,,322.76499040000635,322.8773205000034,323.6842792000025,323.6638110000058,,,,,,,,,,,,,,,,,,,,,,,,,,,,,,,,,,323.66582920000656,323.6842792000025,323.6842792000025,324.53590670000267,r,1.0,0.840547300002072,,,,,sub-164,1,stroop_test,56.774149594724896,
,,,,93.0,9.0,7.0,,,,,,,,,,,,,gelb,yellow,g,1.0,g,1.0,0.5325015999987954,,,,,,,,,,7.0,9.0,93.0,10.0,324.550101300003,,,,,,,,,,,,,,,,,324.53697770000144,325.7440220000062,326.5597393000062,326.5305700000026,,,,,,,,,,,,,,,,,,,,,,,,,,,,,,,,,,326.5433459000051,326.5597393000062,326.5597393000062,327.097136700002,g,1.0,0.5325015999987954,,,,,sub-164,1,stroop_test,56.774149594724896,
,,,,94.0,10.0,7.0,,,,,,,,,,,,,blau,red,r,0.0,r,1.0,0.8205300999979954,,,,,,,,,,7.0,10.0,94.0,4.0,327.1128263999999,,,,,,,,,,,,,,,,,327.0981129000065,327.461510000001,328.28400270000566,328.2471150000056,,,,,,,,,,,,,,,,,,,,,,,,,,,,,,,,,,328.2674062000005,328.28400270000566,328.28400270000566,329.1136908000044,r,1.0,0.8205300999979954,,,,,sub-164,1,stroop_test,56.774149594724896,
,,,,95.0,11.0,7.0,,,,,,,,,,,,,gelb,red,r,0.0,r,1.0,1.2061477000024752,,,,,,,,,,7.0,11.0,95.0,8.0,329.12921240000287,,,,,,,,,,,,,,,,,329.1146265000061,330.3287469000061,331.1440827000042,331.11348640000506,,,,,,,,,,,,,,,,,,,,,,,,,,,,,,,,,,331.1257111000013,331.1440827000042,331.1440827000042,332.36444110000593,r,1.0,1.2061477000024752,,,,,sub-164,1,stroop_test,56.774149594724896,
,,,,96.0,0.0,8.0,,,,,,,,,,,,,gelb,yellow,g,1.0,g,1.0,1.0114124999963678,,,,,,,,,,8.0,0.0,96.0,10.0,332.38031000000046,,,,,,,,,,,,,,,,,332.3654411000025,332.47949920000246,333.2843565000003,333.2641389000055,,,,,,,,,,,,,,,,,,,,,,,,,,,,,,,,,,333.26589650000096,333.2843565000003,333.2843565000003,334.3028994000051,g,1.0,1.0114124999963678,,,,,sub-164,1,stroop_test,56.774149594724896,
,,,,97.0,1.0,8.0,,,,,,,,,,,,,gelb,red,r,0.0,r,1.0,1.2489769000021624,,,,,,,,,,8.0,1.0,97.0,8.0,334.31579690000217,,,,,,,,,,,,,,,,,334.30396860000474,335.51165530000435,336.3173213000045,336.29811800000607,,,,,,,,,,,,,,,,,,,,,,,,,,,,,,,,,,336.300029500002,336.3173213000045,336.3173213000045,337.58716670000285,r,1.0,1.2489769000021624,,,,,sub-164,1,stroop_test,56.774149594724896,
,,,,98.0,2.0,8.0,,,,,,,,,,,,,rot,blue,b,0.0,b,1.0,0.6887258999995538,,,,,,,,,,8.0,2.0,98.0,2.0,337.5990405000048,,,,,,,,,,,,,,,,,337.5882316000061,337.94494350000605,338.759106000005,338.7303389000008,,,,,,,,,,,,,,,,,,,,,,,,,,,,,,,,,,338.74244929999986,338.759106000005,338.759106000005,339.45289810000395,b,1.0,0.6887258999995538,,,,,sub-164,1,stroop_test,56.774149594724896,
,,,,99.0,3.0,8.0,,,,,,,,,,,,,blau,yellow,g,0.0,g,1.0,1.0858933000054094,,,,,,,,,,8.0,3.0,99.0,7.0,339.4721497999999,,,,,,,,,,,,,,,,,339.45398070000374,340.66245780000463,341.4776592000053,341.4471760000015,,,,,,,,,,,,,,,,,,,,,,,,,,,,,,,,,,341.4597344000067,341.4776592000053,341.4776592000053,342.58179460000247,g,1.0,1.0858933000054094,,,,,sub-164,1,stroop_test,56.774149594724896,
,,,,100.0,4.0,8.0,,,,,,,,,,,,,gelb,blue,b,0.0,b,1.0,0.8990580999961821,,,,,,,,,,8.0,4.0,100.0,9.0,342.5968237000052,,,,,,,,,,,,,,,,,342.5830497999996,343.79511570000614,344.6126693000042,344.58049450000544,,,,,,,,,,,,,,,,,,,,,,,,,,,,,,,,,,344.5946963000024,344.6126693000042,344.6126693000042,345.5152042000045,b,1.0,0.8990580999961821,,,,,sub-164,1,stroop_test,56.774149594724896,
,,,,101.0,5.0,8.0,,,,,,,,,,,,,blau,blue,b,1.0,b,1.0,0.9461102999994182,,,,,,,,,,8.0,5.0,101.0,5.0,345.53095560000656,,,,,,,,,,,,,,,,,345.51646460000484,346.72898220000206,347.5425275000016,347.51425340000424,,,,,,,,,,,,,,,,,,,,,,,,,,,,,,,,,,347.5258085000023,347.5425275000016,347.5425275000016,348.5028320000056,b,1.0,0.9461102999994182,,,,,sub-164,1,stroop_test,56.774149594724896,
,,,,102.0,6.0,8.0,,,,,,,,,,,,,rot,yellow,g,0.0,r,0.0,0.851380699998117,,,,,,,,,,8.0,6.0,102.0,3.0,348.5159070000009,,,,,,,,,,,,,,,,,348.50401799999963,348.86201150000124,349.677780900005,349.6475169000041,,,,,,,,,,,,,,,,,,,,,,,,,,,,,,,,,,349.6594447000025,349.677780900005,349.677780900005,350.53526240000065,r,0.0,0.851380699998117,,,,,sub-164,1,stroop_test,56.774149594724896,
,,,,103.0,7.0,8.0,,,,,,,,,,,,,blau,blue,b,1.0,b,1.0,0.9390773000050104,,,,,,,,,,8.0,7.0,103.0,6.0,350.5504060000021,,,,,,,,,,,,,,,,,350.5363764000067,351.7453284000003,352.5606112000023,352.5305079000027,,,,,,,,,,,,,,,,,,,,,,,,,,,,,,,,,,352.54289310000604,352.5606112000023,352.5606112000023,353.5029763000057,b,1.0,0.9390773000050104,,,,,sub-164,1,stroop_test,56.774149594724896,
,,,,104.0,8.0,8.0,,,,,,,,,,,,,gelb,yellow,g,1.0,g,1.0,0.4280168000041158,,,,,,,,,,8.0,8.0,104.0,11.0,353.5175043000054,,,,,,,,,,,,,,,,,353.5041071000014,354.3120759000012,355.1244536000013,355.0962511000034,,,,,,,,,,,,,,,,,,,,,,,,,,,,,,,,,,355.10697490000166,355.1244536000013,355.1244536000013,355.5676789000063,g,1.0,0.4280168000041158,,,,,sub-164,1,stroop_test,56.774149594724896,
,,,,105.0,9.0,8.0,,,,,,,,,,,,,rot,red,r,1.0,r,1.0,0.6045309999972233,,,,,,,,,,8.0,9.0,105.0,0.0,355.58392480000475,,,,,,,,,,,,,,,,,355.56874750000134,356.778925000006,357.6024103000018,357.5659618999998,,,,,,,,,,,,,,,,,,,,,,,,,,,,,,,,,,357.5837937000033,357.6024103000018,357.6024103000018,358.2160053000043,r,1.0,0.6045309999972233,,,,,sub-164,1,stroop_test,56.774149594724896,
,,,,106.0,10.0,8.0,,,,,,,,,,,,,blau,red,r,0.0,r,1.0,1.5775858999986667,,,,,,,,,,8.0,10.0,106.0,4.0,358.2318102000063,,,,,,,,,,,,,,,,,358.2170748999997,358.32961200000136,359.15807500000665,359.1295530999996,,,,,,,,,,,,,,,,,,,,,,,,,,,,,,,,,,359.13941710000654,359.15807500000665,359.15807500000665,360.7472183000064,r,1.0,1.5775858999986667,,,,,sub-164,1,stroop_test,56.774149594724896,
,,,,107.0,11.0,8.0,,,,,,,,,,,,,rot,red,r,1.0,r,1.0,0.9408331000013276,,,,,,,,,,8.0,11.0,107.0,1.0,360.76300350000383,,,,,,,,,,,,,,,,,360.7481683000005,361.5612292000005,362.3756072000033,362.34655410000414,,,,,,,,,,,,,,,,,,,,,,,,,,,,,,,,,,362.3575616000017,362.3756072000033,362.3756072000033,363.33089440000185,r,1.0,0.9408331000013276,,,,,sub-164,1,stroop_test,56.774149594724896,
,,,,108.0,0.0,9.0,,,,,,,,,,,,,rot,blue,b,0.0,b,1.0,1.024509199996828,,,,,,,,,,9.0,0.0,108.0,2.0,363.3473813000018,,,,,,,,,,,,,,,,,363.3320018000013,363.6960344000036,364.50116450000496,364.4811823000055,,,,,,,,,,,,,,,,,,,,,,,,,,,,,,,,,,364.4827937000009,364.50116450000496,364.50116450000496,365.53224140000384,b,1.0,1.024509199996828,,,,,sub-164,1,stroop_test,56.774149594724896,
,,,,109.0,1.0,9.0,,,,,,,,,,,,,blau,blue,b,1.0,b,1.0,0.6433519999991404,,,,,,,,,,9.0,1.0,109.0,5.0,365.54951030000666,,,,,,,,,,,,,,,,,365.5342474000063,366.74577690000297,367.5610872000034,367.5308132000064,,,,,,,,,,,,,,,,,,,,,,,,,,,,,,,,,,367.5428710000051,367.5610872000034,367.5610872000034,368.2175879999995,b,1.0,0.6433519999991404,,,,,sub-164,1,stroop_test,56.774149594724896,
,,,,110.0,2.0,9.0,,,,,,,,,,,,,rot,yellow,g,0.0,g,1.0,0.6804669000048307,,,,,,,,,,9.0,2.0,110.0,3.0,368.2329564000029,,,,,,,,,,,,,,,,,368.2185459000029,369.4292001000067,370.2458888000037,370.21420000000217,,,,,,,,,,,,,,,,,,,,,,,,,,,,,,,,,,370.2264312000043,370.2458888000037,370.2458888000037,370.9312585000007,g,1.0,0.6804669000048307,,,,,sub-164,1,stroop_test,56.774149594724896,
,,,,111.0,3.0,9.0,,,,,,,,,,,,,blau,blue,b,1.0,b,1.0,0.5484255000046687,,,,,,,,,,9.0,3.0,111.0,6.0,370.9471753000034,,,,,,,,,,,,,,,,,370.932183500001,371.2947204000011,372.113827000001,372.0808662000054,,,,,,,,,,,,,,,,,,,,,,,,,,,,,,,,,,372.0952507000038,372.113827000001,372.113827000001,372.6648484000034,b,1.0,0.5484255000046687,,,,,sub-164,1,stroop_test,56.774149594724896,
,,,,112.0,4.0,9.0,,,,,,,,,,,,,rot,red,r,1.0,r,1.0,0.5999156999969273,,,,,,,,,,9.0,4.0,112.0,1.0,372.68065610000485,,,,,,,,,,,,,,,,,372.665954600001,373.02896780000447,373.8449708000044,373.8140151000043,,,,,,,,,,,,,,,,,,,,,,,,,,,,,,,,,,373.8253120000009,373.8449708000044,373.8449708000044,374.4506435000003,r,1.0,0.5999156999969273,,,,,sub-164,1,stroop_test,56.774149594724896,
,,,,113.0,5.0,9.0,,,,,,,,,,,,,rot,red,r,1.0,r,1.0,0.6740414000014425,,,,,,,,,,9.0,5.0,113.0,0.0,374.4666799000042,,,,,,,,,,,,,,,,,374.4516444000037,375.6622745000059,376.46731400000135,376.4478737000027,,,,,,,,,,,,,,,,,,,,,,,,,,,,,,,,,,376.44957129999966,376.46731400000135,376.46731400000135,377.1504650000061,r,1.0,0.6740414000014425,,,,,sub-164,1,stroop_test,56.774149594724896,
,,,,114.0,6.0,9.0,,,,,,,,,,,,,blau,yellow,g,0.0,g,1.0,0.5984851999965031,,,,,,,,,,9.0,6.0,114.0,7.0,377.16673060000176,,,,,,,,,,,,,,,,,377.1515622000006,377.5124648000056,378.3301525000061,378.2977629000016,,,,,,,,,,,,,,,,,,,,,,,,,,,,,,,,,,378.3119608000052,378.3301525000061,378.3301525000061,378.93483570000535,g,1.0,0.5984851999965031,,,,,sub-164,1,stroop_test,56.774149594724896,
,,,,115.0,7.0,9.0,,,,,,,,,,,,,gelb,yellow,g,1.0,g,1.0,0.6069752000039443,,,,,,,,,,9.0,7.0,115.0,11.0,378.95120030000544,,,,,,,,,,,,,,,,,378.9359317000053,379.2958648000058,380.1117692000044,380.0810894000024,,,,,,,,,,,,,,,,,,,,,,,,,,,,,,,,,,380.09444280000025,380.1117692000044,380.1117692000044,380.7372567000057,g,1.0,0.6069752000039443,,,,,sub-164,1,stroop_test,56.774149594724896,
,,,,116.0,8.0,9.0,,,,,,,,,,,,,gelb,red,r,0.0,r,1.0,0.9951008999996702,,,,,,,,,,9.0,8.0,116.0,8.0,380.7492166000011,,,,,,,,,,,,,,,,,380.7383872999999,381.09613000000536,381.91548260000127,381.8965270000044,,,,,,,,,,,,,,,,,,,,,,,,,,,,,,,,,,381.8978209000052,381.91548260000127,381.91548260000127,382.91468980000354,r,1.0,0.9951008999996702,,,,,sub-164,1,stroop_test,56.774149594724896,
,,,,117.0,9.0,9.0,,,,,,,,,,,,,gelb,blue,b,0.0,b,1.0,0.851856699999189,,,,,,,,,,9.0,9.0,117.0,9.0,382.93032620000304,,,,,,,,,,,,,,,,,382.9156538000025,383.27914570000576,384.0820034000062,384.0631055000049,,,,,,,,,,,,,,,,,,,,,,,,,,,,,,,,,,384.064381600001,384.0820034000062,384.0820034000062,384.9534695000039,b,1.0,0.851856699999189,,,,,sub-164,1,stroop_test,56.774149594724896,
,,,,118.0,10.0,9.0,,,,,,,,,,,,,blau,red,r,0.0,r,1.0,1.7127161999960665,,,,,,,,,,9.0,10.0,118.0,4.0,384.9678389000037,,,,,,,,,,,,,,,,,384.95456399999966,385.31149410000216,386.1305314000056,386.0976668000003,,,,,,,,,,,,,,,,,,,,,,,,,,,,,,,,,,386.1124759000013,386.1305314000056,386.1305314000056,387.84799430000567,r,1.0,1.7127161999960665,,,,,sub-164,1,stroop_test,56.774149594724896,
,,,,119.0,11.0,9.0,,,,,,,,,,,,,gelb,yellow,g,1.0,g,1.0,0.8816762999995262,,,,,,,,,,9.0,11.0,119.0,10.0,387.8636200000037,,,,,,,,,,,,,,,,,387.8489052000005,388.2122607000056,389.0294039,388.9979621000021,,,,,,,,,,,,,,,,,,,,,,,,,,,,,,,,,,389.01156260000425,389.0294039,389.0294039,389.9156766000015,g,1.0,0.8816762999995262,,,,,sub-164,1,stroop_test,56.774149594724896,
,,,,,,,,,,,,,,,,,,,,,,,,,,,,,,,,,,,,,,,,,,,,,,,,,,,,,,,,,,,,,,,,,,,,,,,,,,,,,,,,,,,,,,,,,,,,,,,,,,,,,389.91630910000094,389.9340754000005,394.930008000003,sub-164,1,stroop_test,56.774149594724896,
