wordCTK,colorCTK,corrAnsCTK,congruentCTK,thisN,thisTrialN,thisRepN,keyResp_CTK.keys,keyResp_CTK.corr,keyResp_CTK.rt,keyResp_CTK.duration,wordPractice,colorPractice,corrAnsPractice,congruentPractice,respPractice.keys,respPractice.corr,respPractice.rt,respPractice.duration,word,color,corrAns,congruent,keyResp_test_run.keys,keyResp_test_run.corr,keyResp_test_run.rt,keyResp_test_run.duration,trials_CTK.thisRepN,trials_CTK.thisTrialN,trials_CTK.thisN,trials_CTK.thisIndex,trials_practice.thisRepN,trials_practice.thisTrialN,trials_practice.thisN,trials_practice.thisIndex,trials_test.thisRepN,trials_test.thisTrialN,trials_test.thisN,trials_test.thisIndex,thisRow.t,notes,instruction.started,instr_text.started,instr_image.started,instr_resp.started,instruction.stopped,instr_resp.keys,instr_resp.rt,instr_resp.duration,instr_color_to_key.started,instr_ctk.started,resp_ctk.started,instr_color_to_key.stopped,resp_ctk.keys,resp_ctk.rt,resp_ctk.duration,ITI.started,fixcross.started,fixcross.stopped,ITI.stopped,color_to_key_run.started,stimulus_CTK.started,keyResp_CTK.started,color_to_key_run.stopped,trials_CTK.keyResp_CTK.keys,trials_CTK.keyResp_CTK.corr,trials_CTK.keyResp_CTK.rt,trials_CTK.keyResp_CTK.duration,instr_practice.started,instr_practice_text.started,instr_practice_resp.started,instr_practice.stopped,instr_practice_resp.keys,instr_practice_resp.rt,instr_practice_resp.duration,practice_run.started,stimulus_practice.started,respPractice.started,practice_run.stopped,trials_practice.respPractice.keys,trials_practice.respPractice.corr,trials_practice.respPractice.rt,trials_practice.respPractice.duration,feedback.started,textFeedback.started,feedback.stopped,textFeedback.stopped,instr_test.started,instr_test_text.started,instr_test_resp.started,instr_test.stopped,instr_test_resp.keys,instr_test_resp.rt,instr_test_resp.duration,test_run.started,stimulus_test_run.started,keyResp_test_run.started,test_run.stopped,trials_test.keyResp_test_run.keys,trials_test.keyResp_test_run.corr,trials_test.keyResp_test_run.rt,trials_test.keyResp_test_run.duration,goodbye.started,textGoodbye.started,textGoodbye.stopped,goodbye.stopped,participant,session,expName,frameRate,Unnamed: 113
,,,,,,,,,,,,,,,,,,,,,,,,,,,,,,,,,,,,,,,,,0.0018413999932818,0.0900422999984584,0.0900422999984584,0.0900422999984584,34.07635799999116,space,33.881366799992975,,,,,,,,,,,,,,,,,,,,,,,,,,,,,,,,,,,,,,,,,,,,,,,,,,,,,,,,,,,sub-115,1,stroop_test,60.07073930277401,
,,,,,,,,,,,,,,,,,,,,,,,,,,,,,,,,,,,,,,,,,,,,,,,,,34.07645709998906,34.08498520002468,34.08498520002468,39.49753210000927,space,5.397045999998227,,,,,,,,,,,,,,,,,,,,,,,,,,,,,,,,,,,,,,,,,,,,,,,,,,,,sub-115,1,stroop_test,60.07073930277401,
test,yellow,g,1.0,0.0,0.0,0.0,g,1.0,6.125023100001272,,,,,,,,,,,,,,,,,,0.0,0.0,0.0,1.0,,,,,,,,,39.54897709999932,,,,,,,,,,,,,,,,,39.546286800003145,39.84682049998082,40.65334489999805,40.63062309997622,40.64867879997473,40.65334489999805,40.65334489999805,46.78050390002318,g,1.0,6.125023100001272,,,,,,,,,,,,,,,,,,,,,,,,,,,,,,,,,,,,,,,,sub-115,1,stroop_test,60.07073930277401,
test,blue,b,1.0,1.0,1.0,0.0,b,1.0,1.1104690000065602,,,,,,,,,,,,,,,,,,0.0,1.0,1.0,2.0,,,,,,,,,46.79682290001074,,,,,,,,,,,,,,,,,46.78096200001892,47.58026620000601,48.38037319999421,48.36423649999779,48.36507210001582,48.38037319999421,48.38037319999421,49.49774219997926,b,1.0,1.1104690000065602,,,,,,,,,,,,,,,,,,,,,,,,,,,,,,,,,,,,,,,,sub-115,1,stroop_test,60.07073930277401,
test,red,r,1.0,2.0,2.0,0.0,r,1.0,0.8993750000372529,,,,,,,,,,,,,,,,,,0.0,2.0,2.0,0.0,,,,,,,,,49.51368249999359,,,,,,,,,,,,,,,,,49.49826279998524,50.69659559999127,51.49729779997142,51.48101679998217,51.48174670001026,51.49729779997142,51.49729779997142,52.39744989998872,r,1.0,0.8993750000372529,,,,,,,,,,,,,,,,,,,,,,,,,,,,,,,,,,,,,,,,sub-115,1,stroop_test,60.07073930277401,
test,red,r,1.0,3.0,0.0,1.0,r,1.0,0.9988335999660194,,,,,,,,,,,,,,,,,,1.0,0.0,3.0,0.0,,,,,,,,,52.41355029999977,,,,,,,,,,,,,,,,,52.39786710002227,53.59698729997035,54.39715969999088,54.38093949999893,54.38163060002262,54.39715969999088,54.39715969999088,55.39749040000606,r,1.0,0.9988335999660194,,,,,,,,,,,,,,,,,,,,,,,,,,,,,,,,,,,,,,,,sub-115,1,stroop_test,60.07073930277401,
test,yellow,g,1.0,4.0,1.0,1.0,g,1.0,0.6093944000313058,,,,,,,,,,,,,,,,,,1.0,1.0,4.0,1.0,,,,,,,,,55.41364029998658,,,,,,,,,,,,,,,,,55.39795299997786,55.49736340000527,56.29701649997151,56.280915200011805,56.28177739999956,56.29701649997151,56.29701649997151,56.91484450001735,g,1.0,0.6093944000313058,,,,,,,,,,,,,,,,,,,,,,,,,,,,,,,,,,,,,,,,sub-115,1,stroop_test,60.07073930277401,
test,blue,b,1.0,5.0,2.0,1.0,b,1.0,0.3700796000193804,,,,,,,,,,,,,,,,,,1.0,2.0,5.0,2.0,,,,,,,,,56.93029829999432,,,,,,,,,,,,,,,,,56.91529969999101,57.28044260002207,58.08040879998589,58.06433969998034,58.06507860001875,58.08040879998589,58.08040879998589,58.46438479999779,b,1.0,0.3700796000193804,,,,,,,,,,,,,,,,,,,,,,,,,,,,,,,,,,,,,,,,sub-115,1,stroop_test,60.07073930277401,
test,yellow,g,1.0,6.0,0.0,2.0,g,1.0,0.7462606999906711,,,,,,,,,,,,,,,,,,2.0,0.0,6.0,1.0,,,,,,,,,58.480344699986745,,,,,,,,,,,,,,,,,58.46494660002645,59.26371500000823,60.063740300014615,60.04780160001246,60.04857129999437,60.063740300014615,60.063740300014615,60.81443839997519,g,1.0,0.7462606999906711,,,,,,,,,,,,,,,,,,,,,,,,,,,,,,,,,,,,,,,,sub-115,1,stroop_test,60.07073930277401,
test,red,r,1.0,7.0,1.0,2.0,r,1.0,0.7330981999984942,,,,,,,,,,,,,,,,,,2.0,1.0,7.0,0.0,,,,,,,,,60.83018059999449,,,,,,,,,,,,,,,,,60.81500529998448,60.91368589998456,61.713770299975295,61.697990000015125,61.698741899977904,61.713770299975295,61.713770299975295,62.44767409999622,r,1.0,0.7330981999984942,,,,,,,,,,,,,,,,,,,,,,,,,,,,,,,,,,,,,,,,sub-115,1,stroop_test,60.07073930277401,
test,blue,b,1.0,8.0,2.0,2.0,b,1.0,0.9249870000057854,,,,,,,,,,,,,,,,,,2.0,2.0,8.0,2.0,,,,,,,,,62.46355390001554,,,,,,,,,,,,,,,,,62.44812189997174,62.54721039999277,63.34689659997821,63.33103040000424,63.331793099991046,63.34689659997821,63.34689659997821,64.28117380000185,b,1.0,0.9249870000057854,,,,,,,,,,,,,,,,,,,,,,,,,,,,,,,,,,,,,,,,sub-115,1,stroop_test,60.07073930277401,
test,blue,b,1.0,9.0,0.0,3.0,b,1.0,0.8199140999931842,,,,,,,,,,,,,,,,,,3.0,0.0,9.0,2.0,,,,,,,,,64.29711669997778,,,,,,,,,,,,,,,,,64.28163540002424,65.09719100000802,65.89725370000815,65.88077849999536,65.88195329997689,65.89725370000815,65.89725370000815,66.73140079999575,b,1.0,0.8199140999931842,,,,,,,,,,,,,,,,,,,,,,,,,,,,,,,,,,,,,,,,sub-115,1,stroop_test,60.07073930277401,
test,yellow,g,1.0,10.0,1.0,3.0,g,1.0,1.899257899960503,,,,,,,,,,,,,,,,,,3.0,1.0,10.0,1.0,,,,,,,,,66.7471354000154,,,,,,,,,,,,,,,,,66.73187469999539,66.846928199986,67.64724810002372,67.63098489999538,67.63164239999605,67.64724810002372,67.64724810002372,69.54817439999897,g,1.0,1.899257899960503,,,,,,,,,,,,,,,,,,,,,,,,,,,,,,,,,,,,,,,,sub-115,1,stroop_test,60.07073930277401,
test,red,r,1.0,11.0,2.0,3.0,r,1.0,0.4729867000132799,,,,,,,,,,,,,,,,,,3.0,2.0,11.0,0.0,,,,,,,,,69.56382919999305,,,,,,,,,,,,,,,,,69.54864900000393,70.76344559999416,71.56408069998724,71.5479675999959,71.54866959998617,71.56408069998724,71.56408069998724,72.0479614000069,r,1.0,0.4729867000132799,,,,,,,,,,,,,,,,,,,,,,,,,,,,,,,,,,,,,,,,sub-115,1,stroop_test,60.07073930277401,
,,,,,,,,,,,,,,,,,,,,,,,,,,,,,,,,,,,,,,,,,,,,,,,,,,,,,,,,,,,,,,,,,,,,72.04819120001048,72.06377329997486,72.06377329997486,86.4649206000031,space,14.388600200007204,,,,,,,,,,,,,,,,,,,,,,,,,,,,,,,,,sub-115,1,stroop_test,60.07073930277401,
,,,,0.0,0.0,0.0,,,,,rot,blue,b,0.0,b,1.0,1.760774600028526,,,,,,,,,,,,,,0.0,0.0,0.0,2.0,,,,,86.4886572000105,,,,,,,,,,,,,,,,,86.48504469997715,87.28044709999813,88.08039670001017,88.06495769997127,,,,,,,,,,,,,,,,88.07433600001968,88.08039670001017,88.08039670001017,89.84823960001813,b,1.0,1.760774600028526,,89.86383669998031,89.86998740001582,90.86462569999276,,,,,,,,,,,,,,,,,,,,,sub-115,1,stroop_test,60.07073930277401,
,,,,1.0,1.0,0.0,,,,,blau,red,r,0.0,r,1.0,0.8609000000287779,,,,,,,,,,,,,,0.0,1.0,1.0,4.0,,,,,90.88115879998077,,,,,,,,,,,,,,,,,90.86575040000024,90.94696089997888,91.74708070000634,91.73098270001356,,,,,,,,,,,,,,,,91.73960119998084,91.74708070000634,91.74708070000634,92.61482550000072,r,1.0,0.8609000000287779,,92.61562370002504,92.63083440001355,93.61479249998229,93.63090480002576,,,,,,,,,,,,,,,,,,,,sub-115,1,stroop_test,60.07073930277401,
,,,,2.0,2.0,0.0,,,,,rot,yellow,g,0.0,g,1.0,0.6111358000198379,,,,,,,,,,,,,,0.0,2.0,2.0,3.0,,,,,93.63090480002576,,,,,,,,,,,,,,,,,93.61524780001491,94.81439289997796,95.61395460000494,95.5977542999899,,,,,,,,,,,,,,,,95.6025311999838,95.61395460000494,95.61395460000494,96.2314140999806,g,1.0,0.6111358000198379,,96.23229189997072,96.2479680000106,97.23140829999464,97.24751319998175,,,,,,,,,,,,,,,,,,,,sub-115,1,stroop_test,60.07073930277401,
,,,,3.0,3.0,0.0,,,,,gelb,yellow,g,1.0,g,1.0,0.7644328000023961,,,,,,,,,,,,,,0.0,3.0,3.0,10.0,,,,,97.24751319998175,,,,,,,,,,,,,,,,,97.2322766999714,97.33097989996897,98.13137949997326,98.1149019000004,,,,,,,,,,,,,,,,98.1221467999858,98.13137949997326,98.13137949997326,98.89848169998731,g,1.0,0.7644328000023961,,98.89977030002046,98.9147568999906,99.89820479997434,99.91426589997718,,,,,,,,,,,,,,,,,,,,sub-115,1,stroop_test,60.07073930277401,
,,,,4.0,4.0,0.0,,,,,gelb,yellow,g,1.0,g,1.0,0.7384229000308551,,,,,,,,,,,,,,0.0,4.0,4.0,11.0,,,,,99.91426589997718,,,,,,,,,,,,,,,,,99.89894009998534,101.097698699974,101.89751679997426,101.88325860002078,,,,,,,,,,,,,,,,101.88630389998434,101.89751679997426,101.89751679997426,102.6482128999778,g,1.0,0.7384229000308551,,102.64906399999744,102.66465360001894,103.6484934000182,,,,,,,,,,,,,,,,,,,,,sub-115,1,stroop_test,60.07073930277401,
,,,,5.0,5.0,0.0,,,,,blau,blue,b,1.0,b,1.0,1.107427699957043,,,,,,,,,,,,,,0.0,5.0,5.0,5.0,,,,,103.66443389997583,,,,,,,,,,,,,,,,,103.6491265000077,104.84769079997204,105.647950100014,105.6319036000059,,,,,,,,,,,,,,,,105.6381420000107,105.647950100014,105.647950100014,106.76510870002676,b,1.0,1.107427699957043,,106.76592059998076,106.7812781999819,107.76503110001796,107.7810507999966,,,,,,,,,,,,,,,,,,,,sub-115,1,stroop_test,60.07073930277401,
,,,,6.0,6.0,0.0,,,,,rot,red,r,1.0,r,1.0,0.6358214999781922,,,,,,,,,,,,,,0.0,6.0,6.0,0.0,,,,,107.7810507999966,,,,,,,,,,,,,,,,,107.76549060002436,108.9646268999786,109.7645817999728,109.748656700016,,,,,,,,,,,,,,,,109.75364299997456,109.7645817999728,109.7645817999728,110.4150396999903,r,1.0,0.6358214999781922,,110.4157731999876,110.43117170000914,111.41502279997805,111.43118359998334,,,,,,,,,,,,,,,,,,,,sub-115,1,stroop_test,60.07073930277401,
,,,,7.0,7.0,0.0,,,,,gelb,red,r,0.0,r,1.0,0.8049031000118703,,,,,,,,,,,,,,0.0,7.0,7.0,8.0,,,,,111.43118359998334,,,,,,,,,,,,,,,,,111.4154590999824,112.6144455000176,113.41461089998484,113.39843429997563,,,,,,,,,,,,,,,,113.40333090000786,113.41461089998484,113.41461089998484,114.23194979998516,r,1.0,0.8049031000118703,,114.2330990000046,114.24779639998452,115.23173280002084,115.24786000000312,,,,,,,,,,,,,,,,,,,,sub-115,1,stroop_test,60.07073930277401,
,,,,8.0,8.0,0.0,,,,,rot,red,r,1.0,r,1.0,0.9043610999942756,,,,,,,,,,,,,,0.0,8.0,8.0,1.0,,,,,115.24786000000312,,,,,,,,,,,,,,,,,115.2321923999698,116.0311503999983,116.83112059999256,116.8151433999883,,,,,,,,,,,,,,,,116.8194100999972,116.83112059999256,116.83112059999256,117.74862690002192,r,1.0,0.9043610999942756,,117.74931530002505,117.76448579999852,118.75214039999992,118.76454679999732,,,,,,,,,,,,,,,,,,,,sub-115,1,stroop_test,60.07073930277401,
,,,,9.0,9.0,0.0,,,,,blau,blue,b,1.0,b,1.0,1.7405154000152834,,,,,,,,,,,,,,0.0,9.0,9.0,6.0,,,,,118.76454679999732,,,,,,,,,,,,,,,,,118.75274730002276,118.84790839999914,119.64812710002298,119.63205409998773,,,,,,,,,,,,,,,,119.63778350001668,119.64812710002298,119.64812710002298,121.39861380000366,b,1.0,1.7405154000152834,,121.39999770000576,121.41462669998872,122.39848009997512,122.4147959999973,,,,,,,,,,,,,,,,,,,,sub-115,1,stroop_test,60.07073930277401,
,,,,10.0,10.0,0.0,,,,,blau,yellow,g,0.0,g,1.0,0.6707041999907233,,,,,,,,,,,,,,0.0,10.0,10.0,7.0,,,,,122.4147959999973,,,,,,,,,,,,,,,,,122.39888310001696,123.59814620000544,124.3995032000239,124.38201659999322,,,,,,,,,,,,,,,,124.38271219999297,124.3995032000239,124.3995032000239,125.08182820002548,g,1.0,0.6707041999907233,,125.08261230000062,125.09788050001951,126.08206290000815,126.09805630001938,,,,,,,,,,,,,,,,,,,,sub-115,1,stroop_test,60.07073930277401,
,,,,11.0,11.0,0.0,,,,,gelb,blue,b,0.0,b,1.0,2.577164400019683,,,,,,,,,,,,,,0.0,11.0,11.0,9.0,,,,,126.09805630001938,,,,,,,,,,,,,,,,,126.08254909998504,126.18136990000494,126.9815399000072,126.96537849999731,,,,,,,,,,,,,,,,126.9707677999977,126.9815399000072,126.9815399000072,129.56543620000593,b,1.0,2.577164400019683,,129.5661826999858,129.58136419998482,130.56518490001326,130.5813609000179,,,,,,,,,,,,,,,,,,,,sub-115,1,stroop_test,60.07073930277401,
,,,,12.0,0.0,1.0,,,,,gelb,blue,b,0.0,b,1.0,1.027575500018429,,,,,,,,,,,,,,1.0,0.0,12.0,9.0,,,,,130.5813609000179,,,,,,,,,,,,,,,,,130.56578910001554,130.66473740001675,131.46440019999864,131.44829510001,,,,,,,,,,,,,,,,131.44892130000517,131.46440019999864,131.46440019999864,132.49894680001307,b,1.0,1.027575500018429,,132.4996760999784,132.5149561999715,133.49879560002591,133.51483780000126,,,,,,,,,,,,,,,,,,,,sub-115,1,stroop_test,60.07073930277401,
,,,,13.0,1.0,1.0,,,,,blau,blue,b,1.0,b,1.0,0.7614269999903627,,,,,,,,,,,,,,1.0,1.0,13.0,5.0,,,,,133.51483780000126,,,,,,,,,,,,,,,,,133.4992354999995,134.69824140000856,135.49835740000708,135.48169029998826,,,,,,,,,,,,,,,,135.48644649999915,135.49835740000708,135.49835740000708,136.2654606999713,b,1.0,0.7614269999903627,,136.2662881999859,136.28128280001692,137.26524889998836,137.2815322999959,,,,,,,,,,,,,,,,,,,,sub-115,1,stroop_test,60.07073930277401,
,,,,14.0,2.0,1.0,,,,,blau,blue,b,1.0,b,1.0,0.6827158000087366,,,,,,,,,,,,,,1.0,2.0,14.0,6.0,,,,,137.2815322999959,,,,,,,,,,,,,,,,,137.2656748999725,138.06503350002458,138.86503919999814,138.84869150002487,,,,,,,,,,,,,,,,138.849315200001,138.86503919999814,138.86503919999814,139.54875740001444,b,1.0,0.6827158000087366,,139.54948370001512,139.56468449998647,140.5487717000069,140.56481880001957,,,,,,,,,,,,,,,,,,,,sub-115,1,stroop_test,60.07073930277401,
,,,,15.0,3.0,1.0,,,,,rot,red,r,1.0,r,1.0,0.5627924000145867,,,,,,,,,,,,,,1.0,3.0,15.0,1.0,,,,,140.56481880001957,,,,,,,,,,,,,,,,,140.54917419998674,141.34795359999407,142.14802959997905,142.13192620000336,,,,,,,,,,,,,,,,142.13730389997363,142.14802959997905,142.14802959997905,142.7152960000094,r,1.0,0.5627924000145867,,142.7160921000177,142.7312838999787,143.7153964000172,143.73155269998824,,,,,,,,,,,,,,,,,,,,sub-115,1,stroop_test,60.07073930277401,
,,,,16.0,4.0,1.0,,,,,gelb,yellow,g,1.0,g,1.0,0.6990632999804802,,,,,,,,,,,,,,1.0,4.0,16.0,10.0,,,,,143.73155269998824,,,,,,,,,,,,,,,,,143.7158211999922,144.064936699986,144.8649093999993,144.8489659000188,,,,,,,,,,,,,,,,144.85458109999308,144.8649093999993,144.8649093999993,145.56645579996984,g,1.0,0.6990632999804802,,145.56728219997603,145.5819220999838,146.56522170000244,146.58130389999133,,,,,,,,,,,,,,,,,,,,sub-115,1,stroop_test,60.07073930277401,
,,,,17.0,5.0,1.0,,,,,blau,red,r,0.0,r,1.0,0.8851062000030652,,,,,,,,,,,,,,1.0,5.0,17.0,4.0,,,,,146.58130389999133,,,,,,,,,,,,,,,,,146.56565300002694,146.6816436999943,147.481848299969,147.46572899998864,,,,,,,,,,,,,,,,147.4709185999818,147.481848299969,147.481848299969,148.38242059998447,r,1.0,0.8851062000030652,,148.38313969998853,148.39835899998434,149.38229689997388,149.39830409997376,,,,,,,,,,,,,,,,,,,,sub-115,1,stroop_test,60.07073930277401,
,,,,18.0,6.0,1.0,,,,,rot,yellow,g,0.0,g,1.0,1.1267248999793082,,,,,,,,,,,,,,1.0,6.0,18.0,3.0,,,,,149.39830409997376,,,,,,,,,,,,,,,,,149.38278619997436,149.48172869998962,150.28185430000303,150.26569939998444,,,,,,,,,,,,,,,,150.2703164999839,150.28185430000303,150.28185430000303,151.41554690001067,g,1.0,1.1267248999793082,,151.4163719000062,151.43180060002487,152.4159150000196,152.4314832999953,,,,,,,,,,,,,,,,,,,,sub-115,1,stroop_test,60.07073930277401,
,,,,19.0,7.0,1.0,,,,,gelb,red,r,0.0,r,1.0,0.8252052000025287,,,,,,,,,,,,,,1.0,7.0,19.0,8.0,,,,,152.4314832999953,,,,,,,,,,,,,,,,,152.41635750001296,153.61507569998503,154.41516829998,154.3991340000066,,,,,,,,,,,,,,,,154.4043561000144,154.41516829998,154.41516829998,155.24917660001665,r,1.0,0.8252052000025287,,155.25000469997758,155.26507939997828,156.2490590999951,156.26509300002363,,,,,,,,,,,,,,,,,,,,sub-115,1,stroop_test,60.07073930277401,
,,,,20.0,8.0,1.0,,,,,rot,red,r,1.0,r,1.0,2.01848270004848,,,,,,,,,,,,,,1.0,8.0,20.0,0.0,,,,,156.26509300002363,,,,,,,,,,,,,,,,,156.24948499997845,157.0653029999812,157.86523270001635,157.84908720001113,,,,,,,,,,,,,,,,157.8540711000096,157.86523270001635,157.86523270001635,159.89909949997673,r,1.0,2.01848270004848,,159.89982420002343,159.91518960002577,160.8990718999994,160.91523380001308,,,,,,,,,,,,,,,,,,,,sub-115,1,stroop_test,60.07073930277401,
,,,,21.0,9.0,1.0,,,,,blau,yellow,g,0.0,g,1.0,1.4744266999769025,,,,,,,,,,,,,,1.0,9.0,21.0,7.0,,,,,160.91523380001308,,,,,,,,,,,,,,,,,160.89964439999312,161.69862440001452,162.49869269999908,162.48257440002635,,,,,,,,,,,,,,,,162.4880308000138,162.49869269999908,162.49869269999908,163.98264870001003,g,1.0,1.4744266999769025,,163.98337019997416,163.99855229997775,164.9825792000047,164.9985434000264,,,,,,,,,,,,,,,,,,,,sub-115,1,stroop_test,60.07073930277401,
,,,,22.0,10.0,1.0,,,,,gelb,yellow,g,1.0,g,1.0,0.6791709000244737,,,,,,,,,,,,,,1.0,10.0,22.0,11.0,,,,,164.9985434000264,,,,,,,,,,,,,,,,,164.98302739998326,165.33154990000185,166.13155779999215,166.1153164000134,,,,,,,,,,,,,,,,166.1210018999991,166.13155779999215,166.13155779999215,166.81580400001258,g,1.0,0.6791709000244737,,166.8165420999867,166.83164099999703,167.81595780001953,167.8318989999825,,,,,,,,,,,,,,,,,,,,sub-115,1,stroop_test,60.07073930277401,
,,,,23.0,11.0,1.0,,,,,rot,blue,b,0.0,b,1.0,1.1653235999983735,,,,,,,,,,,,,,1.0,11.0,23.0,2.0,,,,,167.8318989999825,,,,,,,,,,,,,,,,,167.81639240001095,167.9153264000197,168.71539059997303,168.6992982000229,,,,,,,,,,,,,,,,168.70394709997345,168.71539059997303,168.71539059997303,169.88253699999768,b,1.0,1.1653235999983735,,169.88390939997043,169.89836330001708,170.8824552000151,170.8990295000258,,,,,,,,,,,,,,,,,,,,sub-115,1,stroop_test,60.07073930277401,
,,,,,,,,,,,,,,,,,,,,,,,,,,,,,,,,,,,,,,,,,,,,,,,,,,,,,,,,,,,,,,,,,,,,,,,,,,,,,,,,,,,,,,,170.88264470000286,170.8990295000258,170.8990295000258,175.34922510001343,space,4.44923689996358,,,,,,,,,,,,,,sub-115,1,stroop_test,60.07073930277401,
,,,,0.0,0.0,0.0,,,,,,,,,,,,,gelb,red,r,0.0,r,1.0,1.451150199980475,,,,,,,,,,0.0,0.0,0.0,8.0,175.3749148999923,,,,,,,,,,,,,,,,,175.37162950000493,176.54842020000797,177.3488513000193,177.3327853999799,,,,,,,,,,,,,,,,,,,,,,,,,,,,,,,,,,,177.33826799999224,177.3488513000193,177.3488513000193,178.8160184000153,r,1.0,1.451150199980475,,,,,,sub-115,1,stroop_test,60.07073930277401,
,,,,1.0,1.0,0.0,,,,,,,,,,,,,rot,blue,b,0.0,b,1.0,0.8016129999887198,,,,,,,,,,0.0,1.0,1.0,2.0,178.8320799000212,,,,,,,,,,,,,,,,,178.81656669999938,179.1654895999818,179.96528870001202,179.94916479999665,,,,,,,,,,,,,,,,,,,,,,,,,,,,,,,,,,,179.95215560001088,179.96528870001202,179.96528870001202,180.78285680001136,b,1.0,0.8016129999887198,,,,,,sub-115,1,stroop_test,60.07073930277401,
,,,,2.0,2.0,0.0,,,,,,,,,,,,,blau,blue,b,1.0,b,1.0,0.5785828999942169,,,,,,,,,,0.0,2.0,2.0,6.0,180.7987147999811,,,,,,,,,,,,,,,,,180.78341440000804,180.8821931999992,181.6820983000216,181.66609989997232,,,,,,,,,,,,,,,,,,,,,,,,,,,,,,,,,,,181.67047559999628,181.6820983000216,181.6820983000216,182.26619429996936,b,1.0,0.5785828999942169,,,,,,sub-115,1,stroop_test,60.07073930277401,
,,,,3.0,3.0,0.0,,,,,,,,,,,,,blau,red,r,0.0,r,1.0,0.6167193000437692,,,,,,,,,,0.0,3.0,3.0,4.0,182.28217840002617,,,,,,,,,,,,,,,,,182.2667264000047,182.3658799999976,183.16556499997387,183.1494038000237,,,,,,,,,,,,,,,,,,,,,,,,,,,,,,,,,,,183.1501353000058,183.16556499997387,183.16556499997387,183.78321929997765,r,1.0,0.6167193000437692,,,,,,sub-115,1,stroop_test,60.07073930277401,
,,,,4.0,4.0,0.0,,,,,,,,,,,,,gelb,blue,b,0.0,b,1.0,0.7746574000339024,,,,,,,,,,0.0,4.0,4.0,9.0,183.79879089997848,,,,,,,,,,,,,,,,,183.78376239998036,184.1488782999804,184.9489843000192,184.93256109999493,,,,,,,,,,,,,,,,,,,,,,,,,,,,,,,,,,,184.93798879999667,184.9489843000192,184.9489843000192,185.73310329997912,b,1.0,0.7746574000339024,,,,,,sub-115,1,stroop_test,60.07073930277401,
,,,,5.0,5.0,0.0,,,,,,,,,,,,,blau,yellow,g,0.0,g,1.0,0.7036069000023417,,,,,,,,,,0.0,5.0,5.0,7.0,185.7487883999711,,,,,,,,,,,,,,,,,185.73366550001083,185.84892650000984,186.6488075000234,186.63269729999595,,,,,,,,,,,,,,,,,,,,,,,,,,,,,,,,,,,186.63788489997387,186.6488075000234,186.6488075000234,187.3662578000221,g,1.0,0.7036069000023417,,,,,,sub-115,1,stroop_test,60.07073930277401,
,,,,6.0,6.0,0.0,,,,,,,,,,,,,rot,red,r,1.0,r,1.0,0.8318559000035748,,,,,,,,,,0.0,6.0,6.0,0.0,187.38215100002708,,,,,,,,,,,,,,,,,187.36712259997148,187.71550340001704,188.51564019999927,188.49946859997,,,,,,,,,,,,,,,,,,,,,,,,,,,,,,,,,,,188.50479620002443,188.51564019999927,188.51564019999927,189.34933110000568,r,1.0,0.8318559000035748,,,,,,sub-115,1,stroop_test,60.07073930277401,
,,,,7.0,7.0,0.0,,,,,,,,,,,,,gelb,yellow,g,1.0,g,1.0,0.7306779999635182,,,,,,,,,,0.0,7.0,7.0,11.0,189.3655411999789,,,,,,,,,,,,,,,,,189.3503475000034,189.69886409997707,190.49925260001328,190.48281790001784,,,,,,,,,,,,,,,,,,,,,,,,,,,,,,,,,,,190.48901020002089,190.49925260001328,190.49925260001328,191.23269159998745,g,1.0,0.7306779999635182,,,,,,sub-115,1,stroop_test,60.07073930277401,
,,,,8.0,8.0,0.0,,,,,,,,,,,,,gelb,yellow,g,1.0,g,1.0,0.6122375000268221,,,,,,,,,,0.0,8.0,8.0,10.0,191.248902500025,,,,,,,,,,,,,,,,,191.23321119998585,192.43236079998317,193.23253869998732,193.2168442999828,,,,,,,,,,,,,,,,,,,,,,,,,,,,,,,,,,,193.2180015000049,193.23253869998732,193.23253869998732,193.8495835000067,g,1.0,0.6122375000268221,,,,,,sub-115,1,stroop_test,60.07073930277401,
,,,,9.0,9.0,0.0,,,,,,,,,,,,,rot,red,r,1.0,r,1.0,0.8225086000165902,,,,,,,,,,0.0,9.0,9.0,1.0,193.8655654999893,,,,,,,,,,,,,,,,,193.85007019998736,193.94914390001213,194.74892300000647,194.732771400013,,,,,,,,,,,,,,,,,,,,,,,,,,,,,,,,,,,194.73711609997557,194.74892300000647,194.74892300000647,195.58303009998053,r,1.0,0.8225086000165902,,,,,,sub-115,1,stroop_test,60.07073930277401,
,,,,10.0,10.0,0.0,,,,,,,,,,,,,blau,blue,b,1.0,b,1.0,0.6578113000141457,,,,,,,,,,0.0,10.0,10.0,5.0,195.59892680001207,,,,,,,,,,,,,,,,,195.5835496999789,195.68254629999865,196.48236279998676,196.46629399998344,,,,,,,,,,,,,,,,,,,,,,,,,,,,,,,,,,,196.47109830001136,196.48236279998676,196.48236279998676,197.14960599999176,b,1.0,0.6578113000141457,,,,,,sub-115,1,stroop_test,60.07073930277401,
,,,,11.0,11.0,0.0,,,,,,,,,,,,,rot,yellow,g,0.0,g,1.0,0.5667278000037186,,,,,,,,,,0.0,11.0,11.0,3.0,197.1657088000211,,,,,,,,,,,,,,,,,197.150092899974,197.9490314999712,198.7490341999801,198.7329929000116,,,,,,,,,,,,,,,,,,,,,,,,,,,,,,,,,,,198.7381009000237,198.7490341999801,198.7490341999801,199.33277209999503,g,1.0,0.5667278000037186,,,,,,sub-115,1,stroop_test,60.07073930277401,
,,,,12.0,0.0,1.0,,,,,,,,,,,,,rot,yellow,g,0.0,g,1.0,0.687167199968826,,,,,,,,,,1.0,0.0,12.0,3.0,199.3516145999893,,,,,,,,,,,,,,,,,199.33337369997756,200.53245419997256,201.3323840000085,201.31626689998663,,,,,,,,,,,,,,,,,,,,,,,,,,,,,,,,,,,201.31696480000392,201.3323840000085,201.3323840000085,202.03307240002323,g,1.0,0.687167199968826,,,,,,sub-115,1,stroop_test,60.07073930277401,
,,,,13.0,1.0,1.0,,,,,,,,,,,,,rot,red,r,1.0,r,1.0,0.7201375999720767,,,,,,,,,,1.0,1.0,13.0,0.0,202.04905049997612,,,,,,,,,,,,,,,,,202.0335864999797,203.23245670000324,204.0326020999928,204.0165180999902,,,,,,,,,,,,,,,,,,,,,,,,,,,,,,,,,,,204.01718129997607,204.0326020999928,204.0326020999928,204.76643080002395,r,1.0,0.7201375999720767,,,,,,sub-115,1,stroop_test,60.07073930277401,
,,,,14.0,2.0,1.0,,,,,,,,,,,,,gelb,yellow,g,1.0,g,1.0,0.7405419999849983,,,,,,,,,,1.0,2.0,14.0,11.0,204.78241619997425,,,,,,,,,,,,,,,,,204.76694200001657,205.56585150002505,206.36588439997288,206.34988059999887,,,,,,,,,,,,,,,,,,,,,,,,,,,,,,,,,,,206.35624659998572,206.36588439997288,206.36588439997288,207.1168742000009,g,1.0,0.7405419999849983,,,,,,sub-115,1,stroop_test,60.07073930277401,
,,,,15.0,3.0,1.0,,,,,,,,,,,,,rot,red,r,1.0,r,1.0,0.6302485000342131,,,,,,,,,,1.0,3.0,15.0,1.0,207.1325485999696,,,,,,,,,,,,,,,,,207.11741419998,207.93253849999743,208.7321606000187,208.71665600000412,,,,,,,,,,,,,,,,,,,,,,,,,,,,,,,,,,,208.7220813999884,208.7321606000187,208.7321606000187,209.36650180001743,r,1.0,0.6302485000342131,,,,,,sub-115,1,stroop_test,60.07073930277401,
,,,,16.0,4.0,1.0,,,,,,,,,,,,,blau,blue,b,1.0,b,1.0,0.8641142999986187,,,,,,,,,,1.0,4.0,16.0,6.0,209.3824628000148,,,,,,,,,,,,,,,,,209.36708390002605,210.56559559999727,211.36597179999808,211.3499702999834,,,,,,,,,,,,,,,,,,,,,,,,,,,,,,,,,,,211.35484310000905,211.36597179999808,211.36597179999808,212.2328404000145,b,1.0,0.8641142999986187,,,,,,sub-115,1,stroop_test,60.07073930277401,
,,,,17.0,5.0,1.0,,,,,,,,,,,,,rot,blue,b,0.0,b,1.0,0.9382480999920516,,,,,,,,,,1.0,5.0,17.0,2.0,212.24913579999705,,,,,,,,,,,,,,,,,212.23333419999108,213.4325446999865,214.23240019998048,214.2163275000057,,,,,,,,,,,,,,,,,,,,,,,,,,,,,,,,,,,214.2212273000041,214.23240019998048,214.23240019998048,215.1833278000122,b,1.0,0.9382480999920516,,,,,,sub-115,1,stroop_test,60.07073930277401,
,,,,18.0,6.0,1.0,,,,,,,,,,,,,blau,yellow,g,0.0,g,1.0,0.9010265999822876,,,,,,,,,,1.0,6.0,18.0,7.0,215.199303100002,,,,,,,,,,,,,,,,,215.18393439997453,215.28276700002607,216.08264149999013,216.06661099998743,,,,,,,,,,,,,,,,,,,,,,,,,,,,,,,,,,,216.07102989999112,216.08264149999013,216.08264149999013,216.99999679997563,g,1.0,0.9010265999822876,,,,,,sub-115,1,stroop_test,60.07073930277401,
,,,,19.0,7.0,1.0,,,,,,,,,,,,,gelb,yellow,g,1.0,g,1.0,0.5356689000036567,,,,,,,,,,1.0,7.0,19.0,10.0,217.0159910999937,,,,,,,,,,,,,,,,,217.0005001000245,217.34955210000044,218.14894270000516,218.13328710000496,,,,,,,,,,,,,,,,,,,,,,,,,,,,,,,,,,,218.13864199997624,218.14894270000516,218.14894270000516,218.70004969998263,g,1.0,0.5356689000036567,,,,,,sub-115,1,stroop_test,60.07073930277401,
,,,,20.0,8.0,1.0,,,,,,,,,,,,,blau,red,r,0.0,r,1.0,0.8689703000127338,,,,,,,,,,1.0,8.0,20.0,4.0,218.71594530000584,,,,,,,,,,,,,,,,,218.70063999999547,219.8993650000193,220.6996282999753,220.6833552999888,,,,,,,,,,,,,,,,,,,,,,,,,,,,,,,,,,,220.6890068000066,220.6996282999753,220.6996282999753,221.58331979997456,r,1.0,0.8689703000127338,,,,,,sub-115,1,stroop_test,60.07073930277401,
,,,,21.0,9.0,1.0,,,,,,,,,,,,,blau,blue,b,1.0,b,1.0,0.9928586999885738,,,,,,,,,,1.0,9.0,21.0,5.0,221.5993886999786,,,,,,,,,,,,,,,,,221.58384969999315,222.3826922000153,223.1827922000084,223.16739780001808,,,,,,,,,,,,,,,,,,,,,,,,,,,,,,,,,,,223.1681415999774,223.1827922000084,223.1827922000084,224.18387090001488,b,1.0,0.9928586999885738,,,,,,sub-115,1,stroop_test,60.07073930277401,
,,,,22.0,10.0,1.0,,,,,,,,,,,,,gelb,blue,b,0.0,b,1.0,0.5574892000295222,,,,,,,,,,1.0,10.0,22.0,9.0,224.19938830001047,,,,,,,,,,,,,,,,,224.1844204000081,224.99938719999045,225.79940979997627,225.7830196999712,,,,,,,,,,,,,,,,,,,,,,,,,,,,,,,,,,,225.7881596999941,225.79940979997627,225.79940979997627,226.3669368000119,b,1.0,0.5574892000295222,,,,,,sub-115,1,stroop_test,60.07073930277401,
,,,,23.0,11.0,1.0,,,,,,,,,,,,,gelb,red,r,0.0,g,0.0,1.0330792000168003,,,,,,,,,,1.0,11.0,23.0,8.0,226.3825139999972,,,,,,,,,,,,,,,,,226.3675189000205,226.46604309999384,227.26617899996927,227.25007279997223,,,,,,,,,,,,,,,,,,,,,,,,,,,,,,,,,,,227.250818200002,227.26617899996927,227.26617899996927,228.2999867000035,g,0.0,1.0330792000168003,,,,,,sub-115,1,stroop_test,60.07073930277401,
,,,,24.0,0.0,2.0,,,,,,,,,,,,,gelb,blue,b,0.0,b,1.0,0.7451129999826662,,,,,,,,,,2.0,0.0,24.0,9.0,228.3158755999757,,,,,,,,,,,,,,,,,228.30050660000416,229.0993803999736,229.89960499998412,229.88354980002623,,,,,,,,,,,,,,,,,,,,,,,,,,,,,,,,,,,229.88432050001572,229.89960499998412,229.89960499998412,230.65014440001687,b,1.0,0.7451129999826662,,,,,,sub-115,1,stroop_test,60.07073930277401,
,,,,25.0,1.0,2.0,,,,,,,,,,,,,rot,red,r,1.0,r,1.0,0.7817716000135988,,,,,,,,,,2.0,1.0,25.0,1.0,230.66613610001517,,,,,,,,,,,,,,,,,230.6506829999853,231.8494241000153,232.6496948999702,232.63374090002617,,,,,,,,,,,,,,,,,,,,,,,,,,,,,,,,,,,232.63846649997868,232.6496948999702,232.6496948999702,233.43321139999895,r,1.0,0.7817716000135988,,,,,,sub-115,1,stroop_test,60.07073930277401,
,,,,26.0,2.0,2.0,,,,,,,,,,,,,gelb,yellow,g,1.0,g,1.0,0.7745934999547899,,,,,,,,,,2.0,2.0,26.0,10.0,233.44947559997672,,,,,,,,,,,,,,,,,233.43369530001652,233.532707699982,234.33283299999312,234.3167522000149,,,,,,,,,,,,,,,,,,,,,,,,,,,,,,,,,,,234.32241349999092,234.33283299999312,234.33283299999312,235.1169931999757,g,1.0,0.7745934999547899,,,,,,sub-115,1,stroop_test,60.07073930277401,
,,,,27.0,3.0,2.0,,,,,,,,,,,,,blau,blue,b,1.0,b,1.0,1.993794700014405,,,,,,,,,,2.0,3.0,27.0,5.0,235.1331172999926,,,,,,,,,,,,,,,,,235.11750559997745,235.4660013000248,236.26621680002427,236.2501062999945,,,,,,,,,,,,,,,,,,,,,,,,,,,,,,,,,,,236.25477489997863,236.26621680002427,236.26621680002427,238.2668927999912,b,1.0,1.993794700014405,,,,,,sub-115,1,stroop_test,60.07073930277401,
,,,,28.0,4.0,2.0,,,,,,,,,,,,,rot,yellow,g,0.0,g,1.0,1.8165637000347488,,,,,,,,,,2.0,4.0,28.0,3.0,238.28286019997904,,,,,,,,,,,,,,,,,238.26746010000352,238.6162730000215,239.41629510000348,239.4001473999815,,,,,,,,,,,,,,,,,,,,,,,,,,,,,,,,,,,239.4055041000247,239.41629510000348,239.41629510000348,241.23344450001605,g,1.0,1.8165637000347488,,,,,,sub-115,1,stroop_test,60.07073930277401,
,,,,29.0,5.0,2.0,,,,,,,,,,,,,rot,red,r,1.0,r,1.0,0.9854070000001228,,,,,,,,,,2.0,5.0,29.0,0.0,241.249589700019,,,,,,,,,,,,,,,,,241.23395179997897,242.03303200000664,242.83300210000016,242.81717709999063,,,,,,,,,,,,,,,,,,,,,,,,,,,,,,,,,,,242.8179174999823,242.83300210000016,242.83300210000016,243.8341470999876,r,1.0,0.9854070000001228,,,,,,sub-115,1,stroop_test,60.07073930277401,
,,,,30.0,6.0,2.0,,,,,,,,,,,,,gelb,yellow,g,1.0,g,1.0,0.6676521999761462,,,,,,,,,,2.0,6.0,30.0,11.0,243.84940449998248,,,,,,,,,,,,,,,,,243.8347444999963,243.94976849999512,244.74966380000117,244.73368319997095,,,,,,,,,,,,,,,,,,,,,,,,,,,,,,,,,,,244.73983380000573,244.74966380000117,244.74966380000117,245.43366029998288,g,1.0,0.6676521999761462,,,,,,sub-115,1,stroop_test,60.07073930277401,
,,,,31.0,7.0,2.0,,,,,,,,,,,,,blau,blue,b,1.0,b,1.0,0.6236212000367232,,,,,,,,,,2.0,7.0,31.0,6.0,245.4496490000165,,,,,,,,,,,,,,,,,245.43418240000028,246.6329980000155,247.43312950001564,247.41694969998207,,,,,,,,,,,,,,,,,,,,,,,,,,,,,,,,,,,247.42228669999167,247.43312950001564,247.43312950001564,248.0671083999914,b,1.0,0.6236212000367232,,,,,,sub-115,1,stroop_test,60.07073930277401,
,,,,32.0,8.0,2.0,,,,,,,,,,,,,rot,blue,b,0.0,b,1.0,1.11215479997918,,,,,,,,,,2.0,8.0,32.0,2.0,248.0830868000048,,,,,,,,,,,,,,,,,248.06776230002288,248.86638449999737,249.66663799999515,249.65035710000663,,,,,,,,,,,,,,,,,,,,,,,,,,,,,,,,,,,249.6550661000074,249.66663799999515,249.66663799999515,250.78374450001863,b,1.0,1.11215479997918,,,,,,sub-115,1,stroop_test,60.07073930277401,
,,,,33.0,9.0,2.0,,,,,,,,,,,,,blau,red,r,0.0,r,1.0,0.6719801999861374,,,,,,,,,,2.0,9.0,33.0,4.0,250.79971370002025,,,,,,,,,,,,,,,,,250.78428239998172,251.9830955999787,252.78326559998092,252.7671089000069,,,,,,,,,,,,,,,,,,,,,,,,,,,,,,,,,,,252.7722710000235,252.78326559998092,252.78326559998092,253.4672070000088,r,1.0,0.6719801999861374,,,,,,sub-115,1,stroop_test,60.07073930277401,
,,,,34.0,10.0,2.0,,,,,,,,,,,,,gelb,red,r,0.0,r,1.0,0.6054928000085056,,,,,,,,,,2.0,10.0,34.0,8.0,253.4831815999933,,,,,,,,,,,,,,,,,253.46778100001396,254.6828452000045,255.483204499993,255.4669716000208,,,,,,,,,,,,,,,,,,,,,,,,,,,,,,,,,,,255.47312199999575,255.483204499993,255.483204499993,256.1004080999992,r,1.0,0.6054928000085056,,,,,,sub-115,1,stroop_test,60.07073930277401,
,,,,35.0,11.0,2.0,,,,,,,,,,,,,blau,yellow,g,0.0,g,1.0,0.7271202999982052,,,,,,,,,,2.0,11.0,35.0,7.0,256.116314999992,,,,,,,,,,,,,,,,,256.1009446000098,256.4497744999826,257.24993109999923,257.2337087999913,,,,,,,,,,,,,,,,,,,,,,,,,,,,,,,,,,,257.23869590001414,257.24993109999923,257.24993109999923,257.98389729997143,g,1.0,0.7271202999982052,,,,,,sub-115,1,stroop_test,60.07073930277401,
,,,,36.0,0.0,3.0,,,,,,,,,,,,,blau,blue,b,1.0,b,1.0,0.9937422999646516,,,,,,,,,,3.0,0.0,36.0,6.0,257.99993980000727,,,,,,,,,,,,,,,,,257.98441570001887,258.33318429999053,259.1332330000005,259.1171077999752,,,,,,,,,,,,,,,,,,,,,,,,,,,,,,,,,,,259.1177613000036,259.1332330000005,259.1332330000005,260.1337422999786,b,1.0,0.9937422999646516,,,,,,sub-115,1,stroop_test,60.07073930277401,
,,,,37.0,1.0,3.0,,,,,,,,,,,,,rot,red,r,1.0,r,1.0,0.8049884999636561,,,,,,,,,,3.0,1.0,37.0,1.0,260.1498558999738,,,,,,,,,,,,,,,,,260.1342555999872,261.3332978999824,262.1332428000169,262.117225199996,,,,,,,,,,,,,,,,,,,,,,,,,,,,,,,,,,,262.1226261999691,262.1332428000169,262.1332428000169,262.9507226999849,r,1.0,0.8049884999636561,,,,,,sub-115,1,stroop_test,60.07073930277401,
,,,,38.0,2.0,3.0,,,,,,,,,,,,,gelb,blue,b,0.0,b,1.0,0.7910769000300206,,,,,,,,,,3.0,2.0,38.0,9.0,262.96651030000066,,,,,,,,,,,,,,,,,262.9512507999898,264.1500150000211,264.95018029998755,264.93404040002497,,,,,,,,,,,,,,,,,,,,,,,,,,,,,,,,,,,264.94087190000573,264.95018029998755,264.95018029998755,265.75077189999865,b,1.0,0.7910769000300206,,,,,,sub-115,1,stroop_test,60.07073930277401,
,,,,39.0,3.0,3.0,,,,,,,,,,,,,blau,yellow,g,0.0,g,1.0,0.9261825000285172,,,,,,,,,,3.0,3.0,39.0,7.0,265.76661659998354,,,,,,,,,,,,,,,,,265.75136180000845,266.54997489997186,267.34984600002645,267.33409580000443,,,,,,,,,,,,,,,,,,,,,,,,,,,,,,,,,,,267.33886870002607,267.34984600002645,267.34984600002645,268.28405189997284,g,1.0,0.9261825000285172,,,,,,sub-115,1,stroop_test,60.07073930277401,
,,,,40.0,4.0,3.0,,,,,,,,,,,,,blau,blue,b,1.0,b,1.0,1.350840800034348,,,,,,,,,,3.0,4.0,40.0,5.0,268.29994799999986,,,,,,,,,,,,,,,,,268.28465909999795,268.63333340000827,269.4333803000045,269.4173193000024,,,,,,,,,,,,,,,,,,,,,,,,,,,,,,,,,,,269.41800170001807,269.4333803000045,269.4333803000045,270.80067089997465,b,1.0,1.350840800034348,,,,,,sub-115,1,stroop_test,60.07073930277401,
,,,,41.0,5.0,3.0,,,,,,,,,,,,,rot,yellow,g,0.0,g,1.0,2.3499796999967657,,,,,,,,,,3.0,5.0,41.0,3.0,270.8166896000039,,,,,,,,,,,,,,,,,270.8011540999869,271.1497469000169,271.9500176999718,271.93391879997216,,,,,,,,,,,,,,,,,,,,,,,,,,,,,,,,,,,271.9397940000053,271.9500176999718,271.9500176999718,274.3008886000025,g,1.0,2.3499796999967657,,,,,,sub-115,1,stroop_test,60.07073930277401,
,,,,42.0,6.0,3.0,,,,,,,,,,,,,rot,red,r,1.0,r,1.0,0.988669899990782,,,,,,,,,,3.0,6.0,42.0,0.0,274.316779899993,,,,,,,,,,,,,,,,,274.301427599974,274.6666959999711,275.4668156999978,275.4506396999932,,,,,,,,,,,,,,,,,,,,,,,,,,,,,,,,,,,275.45133010001155,275.4668156999978,275.4668156999978,276.4674715999863,r,1.0,0.988669899990782,,,,,,sub-115,1,stroop_test,60.07073930277401,
,,,,43.0,7.0,3.0,,,,,,,,,,,,,gelb,red,r,0.0,r,1.0,1.096100300026592,,,,,,,,,,3.0,7.0,43.0,8.0,276.48343670001486,,,,,,,,,,,,,,,,,276.46798329998273,276.8167664000066,277.6169356000028,277.6007051999913,,,,,,,,,,,,,,,,,,,,,,,,,,,,,,,,,,,277.6059232000261,277.6169356000028,277.6169356000028,278.71747670002514,r,1.0,1.096100300026592,,,,,,sub-115,1,stroop_test,60.07073930277401,
,,,,44.0,8.0,3.0,,,,,,,,,,,,,rot,blue,b,0.0,b,1.0,1.8092421000474133,,,,,,,,,,3.0,8.0,44.0,2.0,278.73344480001833,,,,,,,,,,,,,,,,,278.7180004999973,279.91687239997555,280.71692530001746,280.7008515999769,,,,,,,,,,,,,,,,,,,,,,,,,,,,,,,,,,,280.7055043000146,280.71692530001746,280.71692530001746,282.5342882000259,b,1.0,1.8092421000474133,,,,,,sub-115,1,stroop_test,60.07073930277401,
,,,,45.0,9.0,3.0,,,,,,,,,,,,,blau,red,r,0.0,r,1.0,0.9956817000056616,,,,,,,,,,3.0,9.0,45.0,4.0,282.55023469997104,,,,,,,,,,,,,,,,,282.53486379998503,282.88365560001694,283.68372640002053,283.6674845999805,,,,,,,,,,,,,,,,,,,,,,,,,,,,,,,,,,,283.6731062000036,283.68372640002053,283.68372640002053,284.68514309998136,r,1.0,0.9956817000056616,,,,,,sub-115,1,stroop_test,60.07073930277401,
,,,,46.0,10.0,3.0,,,,,,,,,,,,,gelb,yellow,g,1.0,g,1.0,0.7140379999764264,,,,,,,,,,3.0,10.0,46.0,10.0,284.7000058999984,,,,,,,,,,,,,,,,,284.685813100019,285.9002986000269,286.7003437000094,286.6842423999915,,,,,,,,,,,,,,,,,,,,,,,,,,,,,,,,,,,286.6900780000142,286.7003437000094,286.7003437000094,287.4174414000008,g,1.0,0.7140379999764264,,,,,,sub-115,1,stroop_test,60.07073930277401,
,,,,47.0,11.0,3.0,,,,,,,,,,,,,gelb,yellow,g,1.0,g,1.0,0.6203705999650992,,,,,,,,,,3.0,11.0,47.0,11.0,287.43359520001104,,,,,,,,,,,,,,,,,287.4179920000024,287.51691960002063,288.3170243999921,288.30106359999627,,,,,,,,,,,,,,,,,,,,,,,,,,,,,,,,,,,288.3017868999741,288.3170243999921,288.3170243999921,288.9510036999709,g,1.0,0.6203705999650992,,,,,,sub-115,1,stroop_test,60.07073930277401,
,,,,48.0,0.0,4.0,,,,,,,,,,,,,gelb,yellow,g,1.0,g,1.0,0.6765162000083365,,,,,,,,,,4.0,0.0,48.0,10.0,288.9669735999778,,,,,,,,,,,,,,,,,288.9515126000042,289.3002408000175,290.1003130999743,290.0842804000131,,,,,,,,,,,,,,,,,,,,,,,,,,,,,,,,,,,290.0850050000008,290.1003130999743,290.1003130999743,290.7843380999984,g,1.0,0.6765162000083365,,,,,,sub-115,1,stroop_test,60.07073930277401,
,,,,49.0,1.0,4.0,,,,,,,,,,,,,blau,yellow,g,0.0,g,1.0,1.3742205000016838,,,,,,,,,,4.0,1.0,49.0,7.0,290.8002841999987,,,,,,,,,,,,,,,,,290.78494290000526,290.8837457000045,291.68368030001875,291.667590499972,,,,,,,,,,,,,,,,,,,,,,,,,,,,,,,,,,,291.67352810001466,291.68368030001875,291.68368030001875,293.06768219999503,g,1.0,1.3742205000016838,,,,,,sub-115,1,stroop_test,60.07073930277401,
,,,,50.0,2.0,4.0,,,,,,,,,,,,,blau,red,r,0.0,r,1.0,0.9176163999945856,,,,,,,,,,4.0,2.0,50.0,4.0,293.08370199997444,,,,,,,,,,,,,,,,,293.06828030000906,293.88386609999,294.6838550000102,294.6677960000234,,,,,,,,,,,,,,,,,,,,,,,,,,,,,,,,,,,294.6685774999787,294.6838550000102,294.6838550000102,295.60205029998906,r,1.0,0.9176163999945856,,,,,,sub-115,1,stroop_test,60.07073930277401,
,,,,51.0,3.0,4.0,,,,,,,,,,,,,rot,yellow,g,0.0,g,1.0,1.047634000016842,,,,,,,,,,4.0,3.0,51.0,3.0,295.61713849997614,,,,,,,,,,,,,,,,,295.6025265000062,296.4170354999951,297.21647559996927,297.20013610000024,,,,,,,,,,,,,,,,,,,,,,,,,,,,,,,,,,,297.2038199999952,297.21647559996927,297.21647559996927,298.267755799985,g,1.0,1.047634000016842,,,,,,sub-115,1,stroop_test,60.07073930277401,
,,,,52.0,4.0,4.0,,,,,,,,,,,,,gelb,yellow,g,1.0,g,1.0,0.814564700005576,,,,,,,,,,4.0,4.0,52.0,11.0,298.28376159997424,,,,,,,,,,,,,,,,,298.268278500007,299.48346419999143,300.28381230001105,300.26779070001794,,,,,,,,,,,,,,,,,,,,,,,,,,,,,,,,,,,300.27333569998154,300.28381230001105,300.28381230001105,301.10089100000914,g,1.0,0.814564700005576,,,,,,sub-115,1,stroop_test,60.07073930277401,
,,,,53.0,5.0,4.0,,,,,,,,,,,,,rot,red,r,1.0,r,1.0,0.7519180999952368,,,,,,,,,,4.0,5.0,53.0,1.0,301.1169781999779,,,,,,,,,,,,,,,,,301.1013981999713,301.20039660000475,302.0004310000222,301.98436250002123,,,,,,,,,,,,,,,,,,,,,,,,,,,,,,,,,,,301.9901561000152,302.0004310000222,302.0004310000222,302.7678463999764,r,1.0,0.7519180999952368,,,,,,sub-115,1,stroop_test,60.07073930277401,
,,,,54.0,6.0,4.0,,,,,,,,,,,,,gelb,blue,b,0.0,b,1.0,1.3081815000041388,,,,,,,,,,4.0,6.0,54.0,9.0,302.7838395999861,,,,,,,,,,,,,,,,,302.7685286999913,303.11718349996954,303.91726409998955,303.90107139997417,,,,,,,,,,,,,,,,,,,,,,,,,,,,,,,,,,,303.90702500002226,303.91726409998955,303.91726409998955,305.2349489000044,b,1.0,1.3081815000041388,,,,,,sub-115,1,stroop_test,60.07073930277401,
,,,,55.0,7.0,4.0,,,,,,,,,,,,,rot,blue,b,0.0,b,1.0,0.8742610999615863,,,,,,,,,,4.0,7.0,55.0,2.0,305.2504823000054,,,,,,,,,,,,,,,,,305.23547339998186,306.05061299999943,306.85083070001565,306.83462049998343,,,,,,,,,,,,,,,,,,,,,,,,,,,,,,,,,,,306.8402023999952,306.85083070001565,306.85083070001565,307.7346438000095,b,1.0,0.8742610999615863,,,,,,sub-115,1,stroop_test,60.07073930277401,
,,,,56.0,8.0,4.0,,,,,,,,,,,,,gelb,red,r,0.0,r,1.0,0.7832267999765463,,,,,,,,,,4.0,8.0,56.0,8.0,307.75054320000345,,,,,,,,,,,,,,,,,307.73526129999664,308.93394989997614,309.73412029998144,309.71801279997453,,,,,,,,,,,,,,,,,,,,,,,,,,,,,,,,,,,309.72401439998066,309.73412029998144,309.73412029998144,310.51874199998565,r,1.0,0.7832267999765463,,,,,,sub-115,1,stroop_test,60.07073930277401,
,,,,57.0,9.0,4.0,,,,,,,,,,,,,rot,red,r,1.0,r,1.0,0.6822982000303455,,,,,,,,,,4.0,9.0,57.0,0.0,310.53392850002274,,,,,,,,,,,,,,,,,310.5192232999834,310.6340157000232,311.43378040002426,311.41783099999884,,,,,,,,,,,,,,,,,,,,,,,,,,,,,,,,,,,311.4223947999999,311.43378040002426,311.43378040002426,312.1179291000008,r,1.0,0.6822982000303455,,,,,,sub-115,1,stroop_test,60.07073930277401,
,,,,58.0,10.0,4.0,,,,,,,,,,,,,blau,blue,b,1.0,b,1.0,0.6795359999523498,,,,,,,,,,4.0,10.0,58.0,6.0,312.13394969998626,,,,,,,,,,,,,,,,,312.11852369998815,312.9173284000135,313.71929939999245,313.7012231000117,,,,,,,,,,,,,,,,,,,,,,,,,,,,,,,,,,,313.70604690001346,313.71929939999245,313.71929939999245,314.40101739997044,b,1.0,0.6795359999523498,,,,,,sub-115,1,stroop_test,60.07073930277401,
,,,,59.0,11.0,4.0,,,,,,,,,,,,,blau,blue,b,1.0,b,1.0,0.6135446999687701,,,,,,,,,,4.0,11.0,59.0,5.0,314.41721029998735,,,,,,,,,,,,,,,,,314.4014947999967,315.2006602999754,316.00090210000053,315.98461059998954,,,,,,,,,,,,,,,,,,,,,,,,,,,,,,,,,,,315.9855112999794,316.00090210000053,316.00090210000053,316.6179478999693,b,1.0,0.6135446999687701,,,,,,sub-115,1,stroop_test,60.07073930277401,
,,,,60.0,0.0,5.0,,,,,,,,,,,,,rot,red,r,1.0,r,1.0,0.6696530999615788,,,,,,,,,,5.0,0.0,60.0,0.0,316.63375909999013,,,,,,,,,,,,,,,,,316.61844689998543,316.71774270001333,317.5176881999941,317.5014578999835,,,,,,,,,,,,,,,,,,,,,,,,,,,,,,,,,,,317.50585379998665,317.5176881999941,317.5176881999941,318.20144209999125,r,1.0,0.6696530999615788,,,,,,sub-115,1,stroop_test,60.07073930277401,
,,,,61.0,1.0,5.0,,,,,,,,,,,,,blau,red,r,0.0,r,1.0,1.3474717999924906,,,,,,,,,,5.0,1.0,61.0,4.0,318.21737189998385,,,,,,,,,,,,,,,,,318.2020562000107,318.30075649998616,319.1006747999927,319.08458470000187,,,,,,,,,,,,,,,,,,,,,,,,,,,,,,,,,,,319.0895883999765,319.1006747999927,319.1006747999927,320.45135490002576,r,1.0,1.3474717999924906,,,,,,sub-115,1,stroop_test,60.07073930277401,
,,,,62.0,2.0,5.0,,,,,,,,,,,,,gelb,blue,b,0.0,b,1.0,0.799157900037244,,,,,,,,,,5.0,2.0,62.0,9.0,320.4672062000027,,,,,,,,,,,,,,,,,320.45188449998386,320.55053589999443,321.3507304000086,321.3347761000041,,,,,,,,,,,,,,,,,,,,,,,,,,,,,,,,,,,321.3406698000035,321.3507304000086,321.3507304000086,322.15168130001985,b,1.0,0.799157900037244,,,,,,sub-115,1,stroop_test,60.07073930277401,
,,,,63.0,3.0,5.0,,,,,,,,,,,,,gelb,yellow,g,1.0,g,1.0,0.8087621000013314,,,,,,,,,,5.0,3.0,63.0,10.0,322.16734540002653,,,,,,,,,,,,,,,,,322.1522055999958,322.5010086999973,323.3007999000256,323.28467329998966,,,,,,,,,,,,,,,,,,,,,,,,,,,,,,,,,,,323.2853203000268,323.3007999000256,323.3007999000256,324.1179333999753,g,1.0,0.8087621000013314,,,,,,sub-115,1,stroop_test,60.07073930277401,
,,,,64.0,4.0,5.0,,,,,,,,,,,,,blau,blue,b,1.0,b,1.0,0.93719319999218,,,,,,,,,,5.0,4.0,64.0,6.0,324.13393960002577,,,,,,,,,,,,,,,,,324.11845619999804,325.3175743999891,326.1172771999845,326.1014315999928,,,,,,,,,,,,,,,,,,,,,,,,,,,,,,,,,,,326.1062082999852,326.1172771999845,326.1172771999845,327.0681434000144,b,1.0,0.93719319999218,,,,,,sub-115,1,stroop_test,60.07073930277401,
,,,,65.0,5.0,5.0,,,,,,,,,,,,,rot,blue,b,0.0,b,1.0,0.7381935999728739,,,,,,,,,,5.0,5.0,65.0,2.0,327.0841636999976,,,,,,,,,,,,,,,,,327.0686624000082,328.2675641999813,329.0675591999898,329.0514658999746,,,,,,,,,,,,,,,,,,,,,,,,,,,,,,,,,,,329.0564604999963,329.0675591999898,329.0675591999898,329.8182480999967,b,1.0,0.7381935999728739,,,,,,sub-115,1,stroop_test,60.07073930277401,
,,,,66.0,6.0,5.0,,,,,,,,,,,,,rot,yellow,g,0.0,g,1.0,1.0189174999832176,,,,,,,,,,5.0,6.0,66.0,3.0,329.8341700999881,,,,,,,,,,,,,,,,,329.8188007000135,329.9176586000249,330.71752379997633,330.7013468000223,,,,,,,,,,,,,,,,,,,,,,,,,,,,,,,,,,,330.7019603999797,330.71752379997633,330.71752379997633,331.75164899998344,g,1.0,1.0189174999832176,,,,,,sub-115,1,stroop_test,60.07073930277401,
,,,,67.0,7.0,5.0,,,,,,,,,,,,,blau,blue,b,1.0,b,1.0,0.812788899987936,,,,,,,,,,5.0,7.0,67.0,5.0,331.767588799994,,,,,,,,,,,,,,,,,331.752221999981,331.8509024999803,332.65072139998665,332.63464489998296,,,,,,,,,,,,,,,,,,,,,,,,,,,,,,,,,,,332.63936229998944,332.65072139998665,332.65072139998665,333.4683052999899,b,1.0,0.812788899987936,,,,,,sub-115,1,stroop_test,60.07073930277401,
,,,,68.0,8.0,5.0,,,,,,,,,,,,,gelb,red,r,0.0,r,1.0,0.6982278999639675,,,,,,,,,,5.0,8.0,68.0,8.0,333.48424600000726,,,,,,,,,,,,,,,,,333.4688490999979,333.817575699999,334.61765650002053,334.60151840001345,,,,,,,,,,,,,,,,,,,,,,,,,,,,,,,,,,,334.60781469999347,334.61765650002053,334.61765650002053,335.3180202000076,r,1.0,0.6982278999639675,,,,,,sub-115,1,stroop_test,60.07073930277401,
,,,,69.0,9.0,5.0,,,,,,,,,,,,,rot,red,r,1.0,r,1.0,0.6745286000077613,,,,,,,,,,5.0,9.0,69.0,1.0,335.3342858999968,,,,,,,,,,,,,,,,,335.3185553000076,335.4174910999718,336.217681500013,336.20144029997755,,,,,,,,,,,,,,,,,,,,,,,,,,,,,,,,,,,336.2058257000172,336.217681500013,336.217681500013,336.9016801000107,r,1.0,0.6745286000077613,,,,,,sub-115,1,stroop_test,60.07073930277401,
,,,,70.0,10.0,5.0,,,,,,,,,,,,,blau,yellow,g,0.0,g,1.0,0.7204397000023164,,,,,,,,,,5.0,10.0,70.0,7.0,336.9176479000016,,,,,,,,,,,,,,,,,336.90225769998506,337.0176644999883,337.817631700018,337.8016160000116,,,,,,,,,,,,,,,,,,,,,,,,,,,,,,,,,,,337.80744230002165,337.817631700018,337.817631700018,338.55183000001125,g,1.0,0.7204397000023164,,,,,,sub-115,1,stroop_test,60.07073930277401,
,,,,71.0,11.0,5.0,,,,,,,,,,,,,gelb,yellow,g,1.0,g,1.0,0.5499447999754921,,,,,,,,,,5.0,11.0,71.0,11.0,338.56764279998606,,,,,,,,,,,,,,,,,338.5524077999871,338.90101819997653,339.70099219999975,339.6849440999795,,,,,,,,,,,,,,,,,,,,,,,,,,,,,,,,,,,339.6907166999881,339.70099219999975,339.70099219999975,340.2517761000199,g,1.0,0.5499447999754921,,,,,,sub-115,1,stroop_test,60.07073930277401,
,,,,72.0,0.0,6.0,,,,,,,,,,,,,rot,yellow,g,0.0,g,1.0,0.5705350999487564,,,,,,,,,,6.0,0.0,72.0,3.0,340.2675944999792,,,,,,,,,,,,,,,,,340.252305699978,341.46732509997673,342.2678098999895,342.25164169998607,,,,,,,,,,,,,,,,,,,,,,,,,,,,,,,,,,,342.25698130001547,342.2678098999895,342.2678098999895,342.85176859999774,g,1.0,0.5705350999487564,,,,,,sub-115,1,stroop_test,60.07073930277401,
,,,,73.0,1.0,6.0,,,,,,,,,,,,,blau,yellow,g,0.0,g,1.0,0.6730353000457399,,,,,,,,,,6.0,1.0,73.0,7.0,342.86767379997764,,,,,,,,,,,,,,,,,342.8522426999989,343.2009789000149,344.00108140002703,343.9850180000067,,,,,,,,,,,,,,,,,,,,,,,,,,,,,,,,,,,343.9900159999961,344.00108140002703,344.00108140002703,344.6851185000269,g,1.0,0.6730353000457399,,,,,,sub-115,1,stroop_test,60.07073930277401,
,,,,74.0,2.0,6.0,,,,,,,,,,,,,gelb,blue,b,0.0,b,1.0,1.1436171000241302,,,,,,,,,,6.0,2.0,74.0,9.0,344.70104569999967,,,,,,,,,,,,,,,,,344.685619099997,345.8844903999707,346.68460239999695,346.6685210000141,,,,,,,,,,,,,,,,,,,,,,,,,,,,,,,,,,,346.67593869997654,346.68460239999695,346.68460239999695,347.83521659998223,b,1.0,1.1436171000241302,,,,,,sub-115,1,stroop_test,60.07073930277401,
,,,,75.0,3.0,6.0,,,,,,,,,,,,,rot,blue,b,0.0,b,1.0,0.7534565000096336,,,,,,,,,,6.0,3.0,75.0,2.0,347.8510773999733,,,,,,,,,,,,,,,,,347.8357866000151,348.1845797999995,348.9845685000182,348.9682573999744,,,,,,,,,,,,,,,,,,,,,,,,,,,,,,,,,,,348.972792799992,348.9845685000182,348.9845685000182,349.7517146000173,b,1.0,0.7534565000096336,,,,,,sub-115,1,stroop_test,60.07073930277401,
,,,,76.0,4.0,6.0,,,,,,,,,,,,,rot,red,r,1.0,r,1.0,0.7982415999867953,,,,,,,,,,6.0,4.0,76.0,0.0,349.76788800000213,,,,,,,,,,,,,,,,,349.7552016999689,350.101278599992,350.90464760002214,350.8852631999762,,,,,,,,,,,,,,,,,,,,,,,,,,,,,,,,,,,350.8859245000058,350.90464760002214,350.90464760002214,351.71853249997366,r,1.0,0.7982415999867953,,,,,,sub-115,1,stroop_test,60.07073930277401,
,,,,77.0,5.0,6.0,,,,,,,,,,,,,rot,red,r,1.0,r,1.0,0.8152108999784105,,,,,,,,,,6.0,5.0,77.0,1.0,351.73452729999553,,,,,,,,,,,,,,,,,351.719024799997,352.0678550999728,352.8678846000112,352.8518051999854,,,,,,,,,,,,,,,,,,,,,,,,,,,,,,,,,,,352.8524868999957,352.8678846000112,352.8678846000112,353.6847849999904,r,1.0,0.8152108999784105,,,,,,sub-115,1,stroop_test,60.07073930277401,
,,,,78.0,6.0,6.0,,,,,,,,,,,,,blau,blue,b,1.0,b,1.0,1.5569965000031516,,,,,,,,,,6.0,6.0,78.0,6.0,353.7008959000232,,,,,,,,,,,,,,,,,353.68526810000185,354.8845563000068,355.6846857999917,355.6685967000085,,,,,,,,,,,,,,,,,,,,,,,,,,,,,,,,,,,355.6734767999733,355.6846857999917,355.6846857999917,357.2519636999932,b,1.0,1.5569965000031516,,,,,,sub-115,1,stroop_test,60.07073930277401,
,,,,79.0,7.0,6.0,,,,,,,,,,,,,gelb,red,r,0.0,r,1.0,0.8884260000195354,,,,,,,,,,6.0,7.0,79.0,8.0,357.2678878000006,,,,,,,,,,,,,,,,,357.2524662999785,357.6179100999725,358.4179277999792,358.40191720001167,,,,,,,,,,,,,,,,,,,,,,,,,,,,,,,,,,,358.407257999992,358.4179277999792,358.4179277999792,359.31869069999084,r,1.0,0.8884260000195354,,,,,,sub-115,1,stroop_test,60.07073930277401,
,,,,80.0,8.0,6.0,,,,,,,,,,,,,gelb,yellow,g,1.0,g,1.0,1.0185288999928162,,,,,,,,,,6.0,8.0,80.0,10.0,359.3346002000035,,,,,,,,,,,,,,,,,359.31928679998964,360.5182283999748,361.3181984000257,361.3019880999928,,,,,,,,,,,,,,,,,,,,,,,,,,,,,,,,,,,361.3027125999797,361.3181984000257,361.3181984000257,362.3520825000014,g,1.0,1.0185288999928162,,,,,,sub-115,1,stroop_test,60.07073930277401,
,,,,81.0,9.0,6.0,,,,,,,,,,,,,blau,blue,b,1.0,b,1.0,1.0745284000295214,,,,,,,,,,6.0,9.0,81.0,5.0,362.3679280999932,,,,,,,,,,,,,,,,,362.35261870000977,363.1512998000253,363.95147209998686,363.9354355999967,,,,,,,,,,,,,,,,,,,,,,,,,,,,,,,,,,,363.9406367000192,363.95147209998686,363.95147209998686,365.0354478000081,b,1.0,1.0745284000295214,,,,,,sub-115,1,stroop_test,60.07073930277401,
,,,,82.0,10.0,6.0,,,,,,,,,,,,,gelb,yellow,g,1.0,b,0.0,1.5009118999587372,,,,,,,,,,6.0,10.0,82.0,11.0,365.0513343000202,,,,,,,,,,,,,,,,,365.03600660001393,365.1513602000196,366.03739379998296,365.935367500002,,,,,,,,,,,,,,,,,,,,,,,,,,,,,,,,,,,366.0324113999959,366.03739379998296,366.03739379998296,367.5519995000213,b,0.0,1.5009118999587372,,,,,,sub-115,1,stroop_test,60.07073930277401,
,,,,83.0,11.0,6.0,,,,,,,,,,,,,blau,red,r,0.0,r,1.0,1.8208279000245968,,,,,,,,,,6.0,11.0,83.0,4.0,367.5680827000178,,,,,,,,,,,,,,,,,367.5525092000025,368.3514714000048,369.1516154999845,369.1358993999893,,,,,,,,,,,,,,,,,,,,,,,,,,,,,,,,,,,369.14079789997777,369.1516154999845,369.1516154999845,370.98550110001815,r,1.0,1.8208279000245968,,,,,,sub-115,1,stroop_test,60.07073930277401,
,,,,84.0,0.0,7.0,,,,,,,,,,,,,blau,yellow,g,0.0,g,1.0,0.9410007999977096,,,,,,,,,,7.0,0.0,84.0,7.0,371.0013635000214,,,,,,,,,,,,,,,,,370.986078499991,372.18477079999866,372.9849302999792,372.96889129997,,,,,,,,,,,,,,,,,,,,,,,,,,,,,,,,,,,372.9696330999722,372.9849302999792,372.9849302999792,373.935556499986,g,1.0,0.9410007999977096,,,,,,sub-115,1,stroop_test,60.07073930277401,
,,,,85.0,1.0,7.0,,,,,,,,,,,,,gelb,blue,b,0.0,b,1.0,0.8826247000251897,,,,,,,,,,7.0,1.0,85.0,9.0,373.9514886999968,,,,,,,,,,,,,,,,,373.93613510002615,374.2849937999854,375.0846354999812,375.0688039999805,,,,,,,,,,,,,,,,,,,,,,,,,,,,,,,,,,,375.0739881999907,375.0846354999812,375.0846354999812,375.9686607000185,b,1.0,0.8826247000251897,,,,,,sub-115,1,stroop_test,60.07073930277401,
,,,,86.0,2.0,7.0,,,,,,,,,,,,,blau,red,r,0.0,r,1.0,1.3622382000321522,,,,,,,,,,7.0,2.0,86.0,4.0,375.98481390002416,,,,,,,,,,,,,,,,,375.9692144999863,376.317531800014,377.11801039997954,377.1021644999855,,,,,,,,,,,,,,,,,,,,,,,,,,,,,,,,,,,377.107198600017,377.11801039997954,377.11801039997954,378.4865160000045,r,1.0,1.3622382000321522,,,,,,sub-115,1,stroop_test,60.07073930277401,
,,,,87.0,3.0,7.0,,,,,,,,,,,,,gelb,yellow,g,1.0,g,1.0,0.8270423000212759,,,,,,,,,,7.0,3.0,87.0,10.0,378.5016739999992,,,,,,,,,,,,,,,,,378.48733809997793,379.3016225000029,380.1018910999992,380.0856346000219,,,,,,,,,,,,,,,,,,,,,,,,,,,,,,,,,,,380.0910337999812,380.1018910999992,380.1018910999992,380.9353146000067,g,1.0,0.8270423000212759,,,,,,sub-115,1,stroop_test,60.07073930277401,
,,,,88.0,4.0,7.0,,,,,,,,,,,,,blau,blue,b,1.0,b,1.0,0.8128865000326186,,,,,,,,,,7.0,4.0,88.0,6.0,380.9509742999799,,,,,,,,,,,,,,,,,380.9361166000017,381.7349789,382.5351388999843,382.51915549999103,,,,,,,,,,,,,,,,,,,,,,,,,,,,,,,,,,,382.5242264000117,382.5351388999843,382.5351388999843,383.35203609999735,b,1.0,0.8128865000326186,,,,,,sub-115,1,stroop_test,60.07073930277401,
,,,,89.0,5.0,7.0,,,,,,,,,,,,,gelb,yellow,g,1.0,g,1.0,0.6589106000028551,,,,,,,,,,7.0,5.0,89.0,11.0,383.3682645999943,,,,,,,,,,,,,,,,,383.3525347000104,383.7016024999903,384.5017794999876,384.4855815999909,,,,,,,,,,,,,,,,,,,,,,,,,,,,,,,,,,,384.4915069999988,384.5017794999876,384.5017794999876,385.1689929999993,g,1.0,0.6589106000028551,,,,,,sub-115,1,stroop_test,60.07073930277401,
,,,,90.0,6.0,7.0,,,,,,,,,,,,,rot,blue,b,0.0,b,1.0,2.7874330999911763,,,,,,,,,,7.0,6.0,90.0,2.0,385.18500830000266,,,,,,,,,,,,,,,,,385.16950880002696,385.9683475000202,386.7683597999858,386.7524801000254,,,,,,,,,,,,,,,,,,,,,,,,,,,,,,,,,,,386.7573406000156,386.7683597999858,386.7683597999858,389.5690579999937,b,1.0,2.7874330999911763,,,,,,sub-115,1,stroop_test,60.07073930277401,
,,,,91.0,7.0,7.0,,,,,,,,,,,,,gelb,red,r,0.0,r,1.0,0.8852009000256658,,,,,,,,,,7.0,7.0,91.0,8.0,389.5850617000251,,,,,,,,,,,,,,,,,389.5695430000196,390.3850690000109,391.1853085000184,391.1690910999896,,,,,,,,,,,,,,,,,,,,,,,,,,,,,,,,,,,391.1755169000244,391.1853085000184,391.1853085000184,392.0857566000195,r,1.0,0.8852009000256658,,,,,,sub-115,1,stroop_test,60.07073930277401,
,,,,92.0,8.0,7.0,,,,,,,,,,,,,rot,red,r,1.0,r,1.0,1.002060100028757,,,,,,,,,,7.0,8.0,92.0,0.0,392.1017596999882,,,,,,,,,,,,,,,,,392.0896410999703,392.885376500024,393.6853416999802,393.6687479999964,,,,,,,,,,,,,,,,,,,,,,,,,,,,,,,,,,,393.67355760000646,393.6853416999802,393.6853416999802,394.70248169999104,r,1.0,1.002060100028757,,,,,,sub-115,1,stroop_test,60.07073930277401,
,,,,93.0,9.0,7.0,,,,,,,,,,,,,blau,blue,b,1.0,b,1.0,0.9306290000095032,,,,,,,,,,7.0,9.0,93.0,5.0,394.71842390001984,,,,,,,,,,,,,,,,,394.7029998999788,395.05185220000567,395.85184540000046,395.835802400019,,,,,,,,,,,,,,,,,,,,,,,,,,,,,,,,,,,395.8409014000208,395.85184540000046,395.85184540000046,396.7857413999736,b,1.0,0.9306290000095032,,,,,,sub-115,1,stroop_test,60.07073930277401,
,,,,94.0,10.0,7.0,,,,,,,,,,,,,rot,red,r,1.0,r,1.0,1.2180807999684475,,,,,,,,,,7.0,10.0,94.0,1.0,396.8018550999696,,,,,,,,,,,,,,,,,396.7862809000071,397.1347968999762,397.9351300999988,397.9190331000136,,,,,,,,,,,,,,,,,,,,,,,,,,,,,,,,,,,397.9239530999912,397.9351300999988,397.9351300999988,399.16918590001296,r,1.0,1.2180807999684475,,,,,,sub-115,1,stroop_test,60.07073930277401,
,,,,95.0,11.0,7.0,,,,,,,,,,,,,rot,yellow,g,0.0,g,1.0,1.2206217999919318,,,,,,,,,,7.0,11.0,95.0,3.0,399.1852102999692,,,,,,,,,,,,,,,,,399.1697275000042,400.3685256000026,401.168700899987,401.1527151999762,,,,,,,,,,,,,,,,,,,,,,,,,,,,,,,,,,,401.1533971999888,401.168700899987,401.168700899987,402.4033481000224,g,1.0,1.2206217999919318,,,,,,sub-115,1,stroop_test,60.07073930277401,
,,,,96.0,0.0,8.0,,,,,,,,,,,,,blau,yellow,g,0.0,g,1.0,2.022046300000511,,,,,,,,,,8.0,0.0,96.0,7.0,402.41852459998336,,,,,,,,,,,,,,,,,402.4038685000269,402.51866800000425,403.3185388999991,403.30252470000414,,,,,,,,,,,,,,,,,,,,,,,,,,,,,,,,,,,403.30692170001566,403.3185388999991,403.3185388999991,405.3524297000258,g,1.0,2.022046300000511,,,,,,sub-115,1,stroop_test,60.07073930277401,
,,,,97.0,1.0,8.0,,,,,,,,,,,,,gelb,red,r,0.0,r,1.0,2.088907800032757,,,,,,,,,,8.0,1.0,97.0,8.0,405.3686112000141,,,,,,,,,,,,,,,,,405.3529466000036,405.7020401000045,406.50213510001777,406.4857648999896,,,,,,,,,,,,,,,,,,,,,,,,,,,,,,,,,,,406.4925231999951,406.50213510001777,406.50213510001777,408.60265439999057,r,1.0,2.088907800032757,,,,,,sub-115,1,stroop_test,60.07073930277401,
,,,,98.0,2.0,8.0,,,,,,,,,,,,,rot,red,r,1.0,r,1.0,0.5888319999794476,,,,,,,,,,8.0,2.0,98.0,1.0,408.6186185000115,,,,,,,,,,,,,,,,,408.60317139996914,409.8020069000195,410.6022357000038,410.5860574999824,,,,,,,,,,,,,,,,,,,,,,,,,,,,,,,,,,,410.5908403000212,410.6022357000038,410.6022357000038,411.2026616000221,r,1.0,0.5888319999794476,,,,,,sub-115,1,stroop_test,60.07073930277401,
,,,,99.0,3.0,8.0,,,,,,,,,,,,,gelb,yellow,g,1.0,g,1.0,0.6385003000032157,,,,,,,,,,8.0,3.0,99.0,11.0,411.2186813000008,,,,,,,,,,,,,,,,,411.20317970000906,412.0020687999786,412.8022563999984,412.7861136000138,,,,,,,,,,,,,,,,,,,,,,,,,,,,,,,,,,,412.7931203999906,412.8022563999984,412.8022563999984,413.4529466999811,g,1.0,0.6385003000032157,,,,,,sub-115,1,stroop_test,60.07073930277401,
,,,,100.0,4.0,8.0,,,,,,,,,,,,,rot,blue,b,0.0,b,1.0,0.6606630000169389,,,,,,,,,,8.0,4.0,100.0,2.0,413.4687214000151,,,,,,,,,,,,,,,,,413.45341080002254,414.6522237000172,415.4518275000155,415.43603209999856,,,,,,,,,,,,,,,,,,,,,,,,,,,,,,,,,,,415.4407935999916,415.4518275000155,415.4518275000155,416.1197218999732,b,1.0,0.6606630000169389,,,,,,sub-115,1,stroop_test,60.07073930277401,
,,,,101.0,5.0,8.0,,,,,,,,,,,,,blau,blue,b,1.0,b,1.0,0.7220807999838144,,,,,,,,,,8.0,5.0,101.0,5.0,416.1351034999825,,,,,,,,,,,,,,,,,416.1202248000191,416.2353909999947,417.0354582999717,417.019380200014,,,,,,,,,,,,,,,,,,,,,,,,,,,,,,,,,,,417.0254256000044,417.0354582999717,417.0354582999717,417.769415399991,b,1.0,0.7220807999838144,,,,,,sub-115,1,stroop_test,60.07073930277401,
,,,,102.0,6.0,8.0,,,,,,,,,,,,,gelb,blue,b,0.0,b,1.0,0.807597299979534,,,,,,,,,,8.0,6.0,102.0,9.0,417.78543009998975,,,,,,,,,,,,,,,,,417.7699480999727,418.1187358999741,418.9187947000028,418.9027337000007,,,,,,,,,,,,,,,,,,,,,,,,,,,,,,,,,,,418.90930459997617,418.9187947000028,418.9187947000028,419.73616079997737,b,1.0,0.807597299979534,,,,,,sub-115,1,stroop_test,60.07073930277401,
,,,,103.0,7.0,8.0,,,,,,,,,,,,,rot,yellow,g,0.0,g,1.0,0.5373438999522477,,,,,,,,,,8.0,7.0,103.0,3.0,419.75215090002166,,,,,,,,,,,,,,,,,419.73666479997337,420.9349027000135,421.7357475999743,421.719397799985,,,,,,,,,,,,,,,,,,,,,,,,,,,,,,,,,,,421.7243956999737,421.7357475999743,421.7357475999743,422.2860992000205,g,1.0,0.5373438999522477,,,,,,sub-115,1,stroop_test,60.07073930277401,
,,,,104.0,8.0,8.0,,,,,,,,,,,,,gelb,yellow,g,1.0,g,1.0,0.8681404000381008,,,,,,,,,,8.0,8.0,104.0,10.0,422.3022000999772,,,,,,,,,,,,,,,,,422.2865919999895,423.08553480001865,423.88561280001886,423.8694080999703,,,,,,,,,,,,,,,,,,,,,,,,,,,,,,,,,,,423.87521229998674,423.88561280001886,423.88561280001886,424.7696479000151,g,1.0,0.8681404000381008,,,,,,sub-115,1,stroop_test,60.07073930277401,
,,,,105.0,9.0,8.0,,,,,,,,,,,,,blau,blue,b,1.0,b,1.0,1.0510027999989688,,,,,,,,,,8.0,9.0,105.0,6.0,424.785515800002,,,,,,,,,,,,,,,,,424.770227800007,425.5689488999778,426.3689196999767,426.3527493000147,,,,,,,,,,,,,,,,,,,,,,,,,,,,,,,,,,,426.35714360000566,426.3689196999767,426.3689196999767,427.4362805999699,b,1.0,1.0510027999989688,,,,,,sub-115,1,stroop_test,60.07073930277401,
,,,,106.0,10.0,8.0,,,,,,,,,,,,,rot,red,r,1.0,r,1.0,0.4996270999545231,,,,,,,,,,8.0,10.0,106.0,0.0,427.4522624000092,,,,,,,,,,,,,,,,,427.4367973000044,428.6356631999952,429.436237899994,429.4196681000176,,,,,,,,,,,,,,,,,,,,,,,,,,,,,,,,,,,429.425725899986,429.436237899994,429.436237899994,429.936637900013,r,1.0,0.4996270999545231,,,,,,sub-115,1,stroop_test,60.07073930277401,
,,,,107.0,11.0,8.0,,,,,,,,,,,,,blau,red,r,0.0,r,1.0,1.1981662000180222,,,,,,,,,,8.0,11.0,107.0,4.0,429.9522310000029,,,,,,,,,,,,,,,,,429.9371848999872,430.05210289999377,430.8522845000261,430.8361358999973,,,,,,,,,,,,,,,,,,,,,,,,,,,,,,,,,,,430.8406173000112,430.8522845000261,430.8522845000261,432.052778000012,r,1.0,1.1981662000180222,,,,,,sub-115,1,stroop_test,60.07073930277401,
,,,,108.0,0.0,9.0,,,,,,,,,,,,,rot,yellow,g,0.0,g,1.0,0.6846732000121847,,,,,,,,,,9.0,0.0,108.0,3.0,432.068958799995,,,,,,,,,,,,,,,,,432.0532705999794,432.8523377000238,433.6525049000047,433.63645140000153,,,,,,,,,,,,,,,,,,,,,,,,,,,,,,,,,,,433.6437829000061,433.6525049000047,433.6525049000047,434.3531689000083,g,1.0,0.6846732000121847,,,,,,sub-115,1,stroop_test,60.07073930277401,
,,,,109.0,1.0,9.0,,,,,,,,,,,,,blau,red,r,0.0,r,1.0,0.9674569999915548,,,,,,,,,,9.0,1.0,109.0,4.0,434.3690199999837,,,,,,,,,,,,,,,,,434.35373769997386,434.45251889998326,435.2521513000247,435.23624519997975,,,,,,,,,,,,,,,,,,,,,,,,,,,,,,,,,,,435.2406134000048,435.2521513000247,435.2521513000247,436.2366635000217,r,1.0,0.9674569999915548,,,,,,sub-115,1,stroop_test,60.07073930277401,
,,,,110.0,2.0,9.0,,,,,,,,,,,,,blau,yellow,g,0.0,g,1.0,0.9887746999738738,,,,,,,,,,9.0,2.0,110.0,7.0,436.2524346999708,,,,,,,,,,,,,,,,,436.2371991000255,436.6024309999775,437.4024309000233,437.3863923000172,,,,,,,,,,,,,,,,,,,,,,,,,,,,,,,,,,,437.38776199996937,437.4024309000233,437.4024309000233,438.4029120000196,g,1.0,0.9887746999738738,,,,,,sub-115,1,stroop_test,60.07073930277401,
,,,,111.0,3.0,9.0,,,,,,,,,,,,,blau,blue,b,1.0,b,1.0,0.62014089996228,,,,,,,,,,9.0,3.0,111.0,6.0,438.419061099994,,,,,,,,,,,,,,,,,438.4034104999737,439.6024406999932,440.4026745000156,440.3863535000128,,,,,,,,,,,,,,,,,,,,,,,,,,,,,,,,,,,440.3870422000182,440.4026745000156,440.4026745000156,441.0232905999874,b,1.0,0.62014089996228,,,,,,sub-115,1,stroop_test,60.07073930277401,
,,,,112.0,4.0,9.0,,,,,,,,,,,,,rot,blue,b,0.0,b,1.0,0.7883483999758027,,,,,,,,,,9.0,4.0,112.0,2.0,441.036173600005,,,,,,,,,,,,,,,,,441.0237602000125,442.2358143000165,443.03576719999546,443.0198145000031,,,,,,,,,,,,,,,,,,,,,,,,,,,,,,,,,,,443.0245274999761,443.03576719999546,443.03576719999546,443.83647320000455,b,1.0,0.7883483999758027,,,,,,sub-115,1,stroop_test,60.07073930277401,
,,,,113.0,5.0,9.0,,,,,,,,,,,,,gelb,red,r,0.0,r,1.0,0.8350445000105537,,,,,,,,,,9.0,5.0,113.0,8.0,443.8524842999759,,,,,,,,,,,,,,,,,443.83695389999775,445.0359471000265,445.8360141000012,445.8200238000136,,,,,,,,,,,,,,,,,,,,,,,,,,,,,,,,,,,445.8258495000191,445.8360141000012,445.8360141000012,446.6865123999887,r,1.0,0.8350445000105537,,,,,,sub-115,1,stroop_test,60.07073930277401,
,,,,114.0,6.0,9.0,,,,,,,,,,,,,rot,red,r,1.0,r,1.0,0.8982897999812849,,,,,,,,,,9.0,6.0,114.0,0.0,446.7024825999979,,,,,,,,,,,,,,,,,446.6870500000077,447.0358453000081,447.835854600009,447.81960940000135,,,,,,,,,,,,,,,,,,,,,,,,,,,,,,,,,,,447.8243205000181,447.835854600009,447.835854600009,448.7363153999904,r,1.0,0.8982897999812849,,,,,,sub-115,1,stroop_test,60.07073930277401,
,,,,115.0,7.0,9.0,,,,,,,,,,,,,gelb,yellow,g,1.0,g,1.0,0.5665904000052251,,,,,,,,,,9.0,7.0,115.0,10.0,448.752422199992,,,,,,,,,,,,,,,,,448.7368483999744,449.535992900026,450.3360753000016,450.3198959999718,,,,,,,,,,,,,,,,,,,,,,,,,,,,,,,,,,,450.3266977000167,450.3360753000016,450.3360753000016,450.9037391999736,g,1.0,0.5665904000052251,,,,,,sub-115,1,stroop_test,60.07073930277401,
,,,,116.0,8.0,9.0,,,,,,,,,,,,,blau,blue,b,1.0,b,1.0,0.8370010000071488,,,,,,,,,,9.0,8.0,116.0,5.0,450.9193218,,,,,,,,,,,,,,,,,450.904263000004,451.7191884000204,452.5195986999897,452.5034509000252,,,,,,,,,,,,,,,,,,,,,,,,,,,,,,,,,,,452.5082594000269,452.5195986999897,452.5195986999897,453.37002640002174,b,1.0,0.8370010000071488,,,,,,sub-115,1,stroop_test,60.07073930277401,
,,,,117.0,9.0,9.0,,,,,,,,,,,,,gelb,blue,b,0.0,b,1.0,0.8451514000189491,,,,,,,,,,9.0,9.0,117.0,9.0,453.38601900002686,,,,,,,,,,,,,,,,,453.3707430000068,454.5694203000167,455.3693698999705,455.3533927000244,,,,,,,,,,,,,,,,,,,,,,,,,,,,,,,,,,,455.3587729000137,455.3693698999705,455.3693698999705,456.220166300016,b,1.0,0.8451514000189491,,,,,,sub-115,1,stroop_test,60.07073930277401,
,,,,118.0,10.0,9.0,,,,,,,,,,,,,gelb,yellow,g,1.0,g,1.0,0.7871329999761656,,,,,,,,,,9.0,10.0,118.0,11.0,456.2359193000011,,,,,,,,,,,,,,,,,456.2207481000223,456.5692584000062,457.3693487999845,457.3532333999756,,,,,,,,,,,,,,,,,,,,,,,,,,,,,,,,,,,457.353890999977,457.3693487999845,457.3693487999845,458.1700264000101,g,1.0,0.7871329999761656,,,,,,sub-115,1,stroop_test,60.07073930277401,
,,,,119.0,11.0,9.0,,,,,,,,,,,,,rot,red,r,1.0,r,1.0,0.594249099958688,,,,,,,,,,9.0,11.0,119.0,1.0,458.1860411000089,,,,,,,,,,,,,,,,,458.17125989997294,458.9693184000207,459.769409600005,459.75326420000056,,,,,,,,,,,,,,,,,,,,,,,,,,,,,,,,,,,459.7578415999888,459.769409600005,459.769409600005,460.369887000008,r,1.0,0.594249099958688,,,,,,sub-115,1,stroop_test,60.07073930277401,
,,,,,,,,,,,,,,,,,,,,,,,,,,,,,,,,,,,,,,,,,,,,,,,,,,,,,,,,,,,,,,,,,,,,,,,,,,,,,,,,,,,,,,,,,,,,,,,,,,,,,,460.3701278999797,460.38586560002295,465.3860413000221,465.37018879997777,sub-115,1,stroop_test,60.07073930277401,
