wordCTK,colorCTK,corrAnsCTK,congruentCTK,thisN,thisTrialN,thisRepN,keyResp_CTK.keys,keyResp_CTK.corr,keyResp_CTK.rt,keyResp_CTK.duration,wordPractice,colorPractice,corrAnsPractice,congruentPractice,respPractice.keys,respPractice.corr,respPractice.rt,respPractice.duration,word,color,corrAns,congruent,keyResp_test_run.keys,keyResp_test_run.corr,keyResp_test_run.rt,keyResp_test_run.duration,trials_CTK.thisRepN,trials_CTK.thisTrialN,trials_CTK.thisN,trials_CTK.thisIndex,trials_practice.thisRepN,trials_practice.thisTrialN,trials_practice.thisN,trials_practice.thisIndex,trials_test.thisRepN,trials_test.thisTrialN,trials_test.thisN,trials_test.thisIndex,thisRow.t,notes,instruction.started,instr_text.started,instr_image.started,instr_resp.started,instruction.stopped,instr_resp.keys,instr_resp.rt,instr_resp.duration,instr_color_to_key.started,instr_ctk.started,resp_ctk.started,instr_color_to_key.stopped,resp_ctk.keys,resp_ctk.rt,resp_ctk.duration,ITI.started,fixcross.started,fixcross.stopped,ITI.stopped,color_to_key_run.started,stimulus_CTK.started,keyResp_CTK.started,color_to_key_run.stopped,trials_CTK.keyResp_CTK.keys,trials_CTK.keyResp_CTK.corr,trials_CTK.keyResp_CTK.rt,trials_CTK.keyResp_CTK.duration,instr_practice.started,instr_practice_text.started,instr_practice_resp.started,instr_practice.stopped,instr_practice_resp.keys,instr_practice_resp.rt,instr_practice_resp.duration,practice_run.started,stimulus_practice.started,respPractice.started,practice_run.stopped,trials_practice.respPractice.keys,trials_practice.respPractice.corr,trials_practice.respPractice.rt,trials_practice.respPractice.duration,feedback.started,textFeedback.started,textFeedback.stopped,feedback.stopped,instr_test.started,instr_test_text.started,instr_test_resp.started,instr_test.stopped,instr_test_resp.keys,instr_test_resp.rt,instr_test_resp.duration,test_run.started,stimulus_test_run.started,keyResp_test_run.started,test_run.stopped,trials_test.keyResp_test_run.keys,trials_test.keyResp_test_run.corr,trials_test.keyResp_test_run.rt,trials_test.keyResp_test_run.duration,goodbye.started,textGoodbye.started,participant,session,expName,frameRate,Unnamed: 111
,,,,,,,,,,,,,,,,,,,,,,,,,,,,,,,,,,,,,,,,,0.002970399800688,0.0545262997038662,0.0545262997038662,0.0545262997038662,2.171696299687028,space,2.101451899856329,,,,,,,,,,,,,,,,,,,,,,,,,,,,,,,,,,,,,,,,,,,,,,,,,,,,,,,,,sub-170,1.0,stroop_test,119.94635946789568,
,,,,,,,,,,,,,,,,,,,,,,,,,,,,,,,,,,,,,,,,,,,,,,,,,2.171749399974942,2.1767112999223173,2.1767112999223173,4.538116400130093,space,2.3570992001332343,,,,,,,,,,,,,,,,,,,,,,,,,,,,,,,,,,,,,,,,,,,,,,,,,,sub-170,1.0,stroop_test,119.94635946789568,
test,blue,b,1.0,0.0,0.0,0.0,b,1.0,0.8298176000826061,,,,,,,,,,,,,,,,,,0.0,0.0,0.0,2.0,,,,,,,,,4.547743299975991,,,,,,,,,,,,,,,,,4.544863699935377,5.7368636997416615,6.528448099736124,6.520473300013691,6.524071400053799,6.528448099736124,6.528448099736124,7.362306899856776,b,1.0,0.8298176000826061,,,,,,,,,,,,,,,,,,,,,,,,,,,,,,,,,,,,,,sub-170,1.0,stroop_test,119.94635946789568,
test,yellow,g,1.0,1.0,1.0,0.0,g,1.0,0.5890110000036657,,,,,,,,,,,,,,,,,,0.0,1.0,1.0,1.0,,,,,,,,,7.369931600056589,,,,,,,,,,,,,,,,,7.362532800063491,8.553094599861652,9.345091899856923,9.337189800105987,9.33761930000037,9.345091899856923,9.345091899856923,9.937692400068045,g,1.0,0.5890110000036657,,,,,,,,,,,,,,,,,,,,,,,,,,,,,,,,,,,,,,sub-170,1.0,stroop_test,119.94635946789568,
test,red,r,1.0,2.0,2.0,0.0,r,1.0,0.5897540999576449,,,,,,,,,,,,,,,,,,0.0,2.0,2.0,0.0,,,,,,,,,9.944899499882013,,,,,,,,,,,,,,,,,9.93803079985082,11.136002599727362,11.92758549982682,11.919637099839749,11.919979199767113,11.92758549982682,11.92758549982682,12.520480500068516,r,1.0,0.5897540999576449,,,,,,,,,,,,,,,,,,,,,,,,,,,,,,,,,,,,,,sub-170,1.0,stroop_test,119.94635946789568,
test,red,r,1.0,3.0,0.0,1.0,r,1.0,1.4860267997719347,,,,,,,,,,,,,,,,,,1.0,0.0,3.0,0.0,,,,,,,,,12.527655200101435,,,,,,,,,,,,,,,,,12.520694899838418,12.86950880009681,13.66066910000518,13.652656699996442,13.653016800060868,13.66066910000518,13.66066910000518,15.153393600136042,r,1.0,1.4860267997719347,,,,,,,,,,,,,,,,,,,,,,,,,,,,,,,,,,,,,,sub-170,1.0,stroop_test,119.94635946789568,
test,yellow,g,1.0,4.0,1.0,1.0,g,1.0,0.5645399000495672,,,,,,,,,,,,,,,,,,1.0,1.0,4.0,1.0,,,,,,,,,15.160692399833351,,,,,,,,,,,,,,,,,15.153643799945712,15.2520107999444,16.044217399787158,16.0362005000934,16.036462400108576,16.044217399787158,16.044217399787158,16.611216299701482,g,1.0,0.5645399000495672,,,,,,,,,,,,,,,,,,,,,,,,,,,,,,,,,,,,,,sub-170,1.0,stroop_test,119.94635946789568,
test,blue,b,1.0,5.0,2.0,1.0,b,1.0,0.3644526996649802,,,,,,,,,,,,,,,,,,1.0,2.0,5.0,2.0,,,,,,,,,16.618844599928707,,,,,,,,,,,,,,,,,16.61144579993561,16.951933399774134,17.743697199970484,17.735645200125873,17.736001200042665,17.743697199970484,17.743697199970484,18.11111359996721,b,1.0,0.3644526996649802,,,,,,,,,,,,,,,,,,,,,,,,,,,,,,,,,,,,,,sub-170,1.0,stroop_test,119.94635946789568,
test,blue,b,1.0,6.0,0.0,2.0,b,1.0,0.5754380002617836,,,,,,,,,,,,,,,,,,2.0,0.0,6.0,2.0,,,,,,,,,18.11824329989031,,,,,,,,,,,,,,,,,18.111280699726198,18.90981539990753,19.70191549975425,19.6934575997293,19.693720299750566,19.70191549975425,19.70191549975425,20.28523419983685,b,1.0,0.5754380002617836,,,,,,,,,,,,,,,,,,,,,,,,,,,,,,,,,,,,,,sub-170,1.0,stroop_test,119.94635946789568,
test,yellow,g,1.0,7.0,1.0,2.0,g,1.0,0.6518156002275646,,,,,,,,,,,,,,,,,,2.0,1.0,7.0,1.0,,,,,,,,,20.293104799930006,,,,,,,,,,,,,,,,,20.285409099888057,20.626140399836004,21.41781389992684,21.40964849991724,21.40993099985644,21.41781389992684,21.41781389992684,22.076420200057328,g,1.0,0.6518156002275646,,,,,,,,,,,,,,,,,,,,,,,,,,,,,,,,,,,,,,sub-170,1.0,stroop_test,119.94635946789568,
test,red,r,1.0,8.0,2.0,2.0,r,1.0,0.6040783999487758,,,,,,,,,,,,,,,,,,2.0,2.0,8.0,0.0,,,,,,,,,22.08433109987527,,,,,,,,,,,,,,,,,22.07661079987884,22.41791669977829,23.209171599708498,23.20136810000986,23.20181699981913,23.209171599708498,23.209171599708498,23.81862229993567,r,1.0,0.6040783999487758,,,,,,,,,,,,,,,,,,,,,,,,,,,,,,,,,,,,,,sub-170,1.0,stroop_test,119.94635946789568,
test,blue,b,1.0,9.0,0.0,3.0,b,1.0,0.4931371002458036,,,,,,,,,,,,,,,,,,3.0,0.0,9.0,2.0,,,,,,,,,23.825675199739635,,,,,,,,,,,,,,,,,23.818916999734935,25.01740809995681,25.808665699791163,25.80074149975553,25.80105789983645,25.808665699791163,25.808665699791163,26.309465799946334,b,1.0,0.4931371002458036,,,,,,,,,,,,,,,,,,,,,,,,,,,,,,,,,,,,,,sub-170,1.0,stroop_test,119.94635946789568,
test,yellow,g,1.0,10.0,1.0,3.0,g,1.0,0.9211241998709738,,,,,,,,,,,,,,,,,,3.0,1.0,10.0,1.0,,,,,,,,,26.317380100023,,,,,,,,,,,,,,,,,26.30967189976945,27.100268099922687,27.89177759969607,27.88405569968745,27.88471610005945,27.89177759969607,27.89177759969607,28.817995199933648,g,1.0,0.9211241998709738,,,,,,,,,,,,,,,,,,,,,,,,,,,,,,,,,,,,,,sub-170,1.0,stroop_test,119.94635946789568,
test,red,r,1.0,11.0,2.0,3.0,r,1.0,1.0815341002307832,,,,,,,,,,,,,,,,,,3.0,2.0,11.0,0.0,,,,,,,,,28.82493339991197,,,,,,,,,,,,,,,,,28.81853149970993,28.916634100023657,29.708089800085872,29.70047489972785,29.701134599745277,29.708089800085872,29.708089800085872,30.79230700014159,r,1.0,1.0815341002307832,,,,,,,,,,,,,,,,,,,,,,,,,,,,,,,,,,,,,,sub-170,1.0,stroop_test,119.94635946789568,
,,,,,,,,,,,,,,,,,,,,,,,,,,,,,,,,,,,,,,,,,,,,,,,,,,,,,,,,,,,,,,,,,,,,30.792463699821383,30.799688700120896,30.799688700120896,39.690869899932295,space,8.887337900232524,,,,,,,,,,,,,,,,,,,,,,,,,,,,,,,sub-170,1.0,stroop_test,119.94635946789568,
,,,,0.0,0.0,0.0,,,,,gelb,yellow,g,1.0,g,1.0,1.6381895001977682,,,,,,,,,,,,,,0.0,0.0,0.0,11.0,,,,,39.700236999895424,,,,,,,,,,,,,,,,,39.69718759972602,39.78976320009679,40.58874109992757,40.57415070012212,,,,,,,,,,,,,,,,40.583238899707794,40.58874109992757,40.58874109992757,42.23186110006645,g,1.0,1.6381895001977682,,42.236964100040495,42.2411436997354,43.23915559984744,43.231354099698365,,,,,,,,,,,,,,,,,,sub-170,1.0,stroop_test,119.94635946789568,
,,,,1.0,1.0,0.0,,,,,rot,yellow,g,0.0,g,1.0,0.913653299678117,,,,,,,,,,,,,,0.0,1.0,1.0,3.0,,,,,43.23915559984744,,,,,,,,,,,,,,,,,43.23156929994002,43.33081689989194,44.122370100114495,44.11447629984468,,,,,,,,,,,,,,,,44.11727629974485,44.122370100114495,44.122370100114495,45.039784600026906,g,1.0,0.913653299678117,,45.040159800089896,45.047276199795306,46.03870859974995,46.03101920010522,,,,,,,,,,,,,,,,,,sub-170,1.0,stroop_test,119.94635946789568,
,,,,2.0,2.0,0.0,,,,,blau,yellow,g,0.0,g,1.0,0.7429283000528812,,,,,,,,,,,,,,0.0,2.0,2.0,7.0,,,,,46.03870859974995,,,,,,,,,,,,,,,,,46.03142610006034,47.2385396999307,48.03406330011785,48.02225469984114,,,,,,,,,,,,,,,,48.0287854000926,48.03406330011785,48.03406330011785,48.781124299857765,g,1.0,0.7429283000528812,,48.78176499996334,48.78835269995034,49.77975500002504,49.77199849998578,,,,,,,,,,,,,,,,,,sub-170,1.0,stroop_test,119.94635946789568,
,,,,3.0,3.0,0.0,,,,,rot,blue,b,0.0,b,1.0,0.9282002002000808,,,,,,,,,,,,,,0.0,3.0,3.0,2.0,,,,,49.77975500002504,,,,,,,,,,,,,,,,,49.77225899975747,50.57965529989451,51.37337190005928,51.36343410005793,,,,,,,,,,,,,,,,51.3678518999368,51.37337190005928,51.37337190005928,52.30556260002777,b,1.0,0.9282002002000808,,52.306217699777335,52.3127854000777,53.304222899954766,53.29652730002999,,,,,,,,,,,,,,,,,,sub-170,1.0,stroop_test,119.94635946789568,
,,,,4.0,4.0,0.0,,,,,rot,red,r,1.0,r,1.0,0.6314117000438273,,,,,,,,,,,,,,0.0,4.0,4.0,0.0,,,,,53.304222899954766,,,,,,,,,,,,,,,,,53.29690519999713,53.65414529992268,54.44573839986697,54.43799059977755,,,,,,,,,,,,,,,,54.43858610000461,54.44573839986697,54.44573839986697,55.08011689968407,r,1.0,0.6314117000438273,,55.08074390003458,55.08733429992572,56.07873319974169,56.071046399883926,,,,,,,,,,,,,,,,,,sub-170,1.0,stroop_test,119.94635946789568,
,,,,5.0,5.0,0.0,,,,,gelb,blue,b,0.0,b,1.0,1.272677999921143,,,,,,,,,,,,,,0.0,5.0,5.0,9.0,,,,,56.07873319974169,,,,,,,,,,,,,,,,,56.0714373998344,56.17873279983178,56.97214119974524,56.96253059990704,,,,,,,,,,,,,,,,56.96701180003584,56.97214119974524,56.97214119974524,58.246338999830186,b,1.0,1.272677999921143,,58.247048299759626,58.25348850013688,59.24491610005498,59.23724639974535,,,,,,,,,,,,,,,,,,sub-170,1.0,stroop_test,119.94635946789568,
,,,,6.0,6.0,0.0,,,,,gelb,yellow,g,1.0,g,1.0,0.574577399995178,,,,,,,,,,,,,,0.0,6.0,6.0,10.0,,,,,59.24491610005498,,,,,,,,,,,,,,,,,59.23761919979006,59.34490759996697,60.1365137998946,60.12867819983512,,,,,,,,,,,,,,,,60.12932029971853,60.1365137998946,60.1365137998946,60.712447399739176,g,1.0,0.574577399995178,,60.713080199901015,60.719731600023806,61.71116429986432,61.703506799880415,,,,,,,,,,,,,,,,,,sub-170,1.0,stroop_test,119.94635946789568,
,,,,7.0,7.0,0.0,,,,,gelb,red,r,0.0,r,1.0,1.2950532003305852,,,,,,,,,,,,,,0.0,7.0,7.0,8.0,,,,,61.71116429986432,,,,,,,,,,,,,,,,,61.70395229989663,62.511042200028896,63.302620499860495,63.29473460000008,,,,,,,,,,,,,,,,63.29532600007951,63.302620499860495,63.302620499860495,64.60340309981257,r,1.0,1.2950532003305852,,64.60400089994073,64.61076870001853,65.60218439996243,65.59443579986691,,,,,,,,,,,,,,,,,,sub-170,1.0,stroop_test,119.94635946789568,
,,,,8.0,8.0,0.0,,,,,blau,red,r,0.0,r,1.0,0.4929767996072769,,,,,,,,,,,,,,0.0,8.0,8.0,4.0,,,,,65.60218439996243,,,,,,,,,,,,,,,,,65.59479449968785,66.4020698000677,67.19372129999101,67.18576140003279,,,,,,,,,,,,,,,,67.1884936997667,67.19372129999101,67.19372129999101,67.69469999987632,r,1.0,0.4929767996072769,,67.69505849992856,67.70215199980885,68.69344009971246,68.68559079989791,,,,,,,,,,,,,,,,,,sub-170,1.0,stroop_test,119.94635946789568,
,,,,9.0,9.0,0.0,,,,,blau,blue,b,1.0,b,1.0,0.5918044000864029,,,,,,,,,,,,,,0.0,9.0,9.0,6.0,,,,,68.69344009971246,,,,,,,,,,,,,,,,,68.68578459974378,68.7933583999984,69.58503110008314,69.57720279973,,,,,,,,,,,,,,,,69.57757419999689,69.58503110008314,69.58503110008314,70.1782773998566,b,1.0,0.5918044000864029,,70.17864419985563,70.18488840013742,71.17633079970255,71.16857479978353,,,,,,,,,,,,,,,,,,sub-170,1.0,stroop_test,119.94635946789568,
,,,,10.0,10.0,0.0,,,,,rot,red,r,1.0,r,1.0,0.6891187001019716,,,,,,,,,,,,,,0.0,10.0,10.0,1.0,,,,,71.17633079970255,,,,,,,,,,,,,,,,,71.1688002999872,71.52632079971954,72.31786620011553,72.31006990000606,,,,,,,,,,,,,,,,72.31257910002023,72.31786620011553,72.31786620011553,73.01023439969867,r,1.0,0.6891187001019716,,73.01065990002826,73.01773349987343,74.00957239978015,74.00190249970183,,,,,,,,,,,,,,,,,,sub-170,1.0,stroop_test,119.94635946789568,
,,,,11.0,11.0,0.0,,,,,blau,blue,b,1.0,b,1.0,0.508644700050354,,,,,,,,,,,,,,0.0,11.0,11.0,5.0,,,,,74.00957239978015,,,,,,,,,,,,,,,,,74.00215480010957,74.10123059991747,74.89267189987004,74.88495209999382,,,,,,,,,,,,,,,,74.88739039981738,74.89267189987004,74.89267189987004,75.40234369970858,b,1.0,0.508644700050354,,75.40276869991794,75.40950189996511,76.4006885997951,76.39303119992837,,,,,,,,,,,,,,,,,,sub-170,1.0,stroop_test,119.94635946789568,
,,,,12.0,0.0,1.0,,,,,gelb,yellow,g,1.0,g,1.0,0.5723415999673307,,,,,,,,,,,,,,1.0,0.0,12.0,11.0,,,,,76.4006885997951,,,,,,,,,,,,,,,,,76.39327220013365,76.75049589993432,77.54239049972966,77.53447949979454,,,,,,,,,,,,,,,,77.53691860008985,77.54239049972966,77.54239049972966,78.11764829978347,g,1.0,0.5723415999673307,,78.11792519968003,78.12535789981484,79.11694750003517,79.10922699980438,,,,,,,,,,,,,,,,,,sub-170,1.0,stroop_test,119.94635946789568,
,,,,13.0,1.0,1.0,,,,,rot,red,r,1.0,r,1.0,0.5970797999761999,,,,,,,,,,,,,,1.0,1.0,13.0,1.0,,,,,79.11694750003517,,,,,,,,,,,,,,,,,79.10946239996701,79.45858589978889,80.2500772997737,80.2421319000423,,,,,,,,,,,,,,,,80.244543899782,80.2500772997737,80.2500772997737,80.85079200007021,r,1.0,0.5970797999761999,,80.85108730010688,80.85822999989614,81.84971799980849,81.84197869990021,,,,,,,,,,,,,,,,,,sub-170,1.0,stroop_test,119.94635946789568,
,,,,14.0,2.0,1.0,,,,,rot,red,r,1.0,r,1.0,0.6298924000002444,,,,,,,,,,,,,,1.0,2.0,14.0,0.0,,,,,81.84971799980849,,,,,,,,,,,,,,,,,81.84220249997452,81.9496788000688,82.74162499979138,82.73365860013291,,,,,,,,,,,,,,,,82.73391090007499,82.74162499979138,82.74162499979138,83.37573899980634,r,1.0,0.6298924000002444,,83.37612379994243,83.38293589977548,84.37447059992701,84.36679989984259,,,,,,,,,,,,,,,,,,sub-170,1.0,stroop_test,119.94635946789568,
,,,,15.0,3.0,1.0,,,,,blau,red,r,0.0,r,1.0,0.9595769997686148,,,,,,,,,,,,,,1.0,3.0,15.0,4.0,,,,,84.37447059992701,,,,,,,,,,,,,,,,,84.36703839991242,85.57437589997426,86.36569709982723,86.35811199992895,,,,,,,,,,,,,,,,86.36066009989008,86.36569709982723,86.36569709982723,87.33346250001341,r,1.0,0.9595769997686148,,87.33389890007675,87.34081039996818,88.33208400011063,88.32455409970134,,,,,,,,,,,,,,,,,,sub-170,1.0,stroop_test,119.94635946789568,
,,,,16.0,4.0,1.0,,,,,rot,blue,b,0.0,b,1.0,0.529727699700743,,,,,,,,,,,,,,1.0,4.0,16.0,2.0,,,,,88.33208400011063,,,,,,,,,,,,,,,,,88.32482359977439,89.13212959980592,89.9235322996974,89.91549979988486,,,,,,,,,,,,,,,,89.91729020001367,89.9235322996974,89.9235322996974,90.4574267999269,b,1.0,0.529727699700743,,90.45770979998632,90.46499969996512,91.45641819993034,91.4485428999178,,,,,,,,,,,,,,,,,,sub-170,1.0,stroop_test,119.94635946789568,
,,,,17.0,5.0,1.0,,,,,blau,yellow,g,0.0,g,1.0,1.1492912000976503,,,,,,,,,,,,,,1.0,5.0,17.0,7.0,,,,,91.45641819993034,,,,,,,,,,,,,,,,,91.44871639972553,92.24813049985096,93.03964849980548,93.0319833997637,,,,,,,,,,,,,,,,93.03478460013866,93.03964849980548,93.03964849980548,94.190568999853,g,1.0,1.1492912000976503,,94.19102369993924,94.19812529999764,95.18934899987651,95.1817191997543,,,,,,,,,,,,,,,,,,sub-170,1.0,stroop_test,119.94635946789568,
,,,,18.0,6.0,1.0,,,,,gelb,red,r,0.0,r,1.0,0.6226671999320388,,,,,,,,,,,,,,1.0,6.0,18.0,8.0,,,,,95.18934899987651,,,,,,,,,,,,,,,,,95.18197029968724,95.28948380006476,96.08114439994095,96.07330389972776,,,,,,,,,,,,,,,,96.07572269998492,96.08114439994095,96.08114439994095,96.7068373998627,r,1.0,0.6226671999320388,,96.70722270011902,96.71442910004409,97.70572869991884,97.6978458999656,,,,,,,,,,,,,,,,,,sub-170,1.0,stroop_test,119.94635946789568,
,,,,19.0,7.0,1.0,,,,,gelb,blue,b,0.0,b,1.0,0.6262320000678301,,,,,,,,,,,,,,1.0,7.0,19.0,9.0,,,,,97.70572869991884,,,,,,,,,,,,,,,,,97.69809309998529,98.9056198997423,99.69692849973217,99.68918409990148,,,,,,,,,,,,,,,,99.68956580013035,99.69692849973217,99.69692849973217,100.3312524999492,b,1.0,0.6262320000678301,,100.33166809985414,100.33876820001753,101.33022410003468,101.322485699784,,,,,,,,,,,,,,,,,,sub-170,1.0,stroop_test,119.94635946789568,
,,,,20.0,8.0,1.0,,,,,gelb,yellow,g,1.0,g,1.0,0.5142960003577173,,,,,,,,,,,,,,1.0,8.0,20.0,10.0,,,,,101.33022410003468,,,,,,,,,,,,,,,,,101.32277600001544,101.43025839980692,102.22172489995135,102.21379039995372,,,,,,,,,,,,,,,,102.21419700002298,102.22172489995135,102.22172489995135,102.73934109974653,g,1.0,0.5142960003577173,,102.739780199714,102.7465626001358,103.73807210009544,103.73019949998708,,,,,,,,,,,,,,,,,,sub-170,1.0,stroop_test,119.94635946789568,
,,,,21.0,9.0,1.0,,,,,blau,blue,b,1.0,b,1.0,0.7055130996741354,,,,,,,,,,,,,,1.0,9.0,21.0,5.0,,,,,103.73807210009544,,,,,,,,,,,,,,,,,103.7304380997084,103.8381611998193,104.63132870011032,104.62199499970302,,,,,,,,,,,,,,,,104.62577940011396,104.63132870011032,104.63132870011032,105.3390203998424,b,1.0,0.7055130996741354,,105.3394550997764,105.34627219988032,106.33755420008674,106.3298681997694,,,,,,,,,,,,,,,,,,sub-170,1.0,stroop_test,119.94635946789568,
,,,,22.0,10.0,1.0,,,,,blau,blue,b,1.0,b,1.0,0.4911569999530911,,,,,,,,,,,,,,1.0,10.0,22.0,6.0,,,,,106.33755420008674,,,,,,,,,,,,,,,,,106.3301186999306,107.53737789997832,108.3289605998434,108.32118309987708,,,,,,,,,,,,,,,,108.32158399978653,108.3289605998434,108.3289605998434,108.82131629996002,b,1.0,0.4911569999530911,,108.82161170011386,108.82895370014012,109.82034229999408,109.8129050997086,,,,,,,,,,,,,,,,,,sub-170,1.0,stroop_test,119.94635946789568,
,,,,23.0,11.0,1.0,,,,,rot,yellow,g,0.0,g,1.0,0.9529647999443114,,,,,,,,,,,,,,1.0,11.0,23.0,3.0,,,,,109.82034229999408,,,,,,,,,,,,,,,,,109.81319239968434,109.91198909981176,110.70329859992488,110.69592460012063,,,,,,,,,,,,,,,,110.69848049990831,110.70329859992488,110.70329859992488,111.66277049994096,g,1.0,0.9529647999443114,,111.66318159969524,111.67007099976765,112.66184559976682,112.65391629980876,,,,,,,,,,,,,,,,,,sub-170,1.0,stroop_test,119.94635946789568,
,,,,,,,,,,,,,,,,,,,,,,,,,,,,,,,,,,,,,,,,,,,,,,,,,,,,,,,,,,,,,,,,,,,,,,,,,,,,,,,,,,,,,,,112.65402469970286,112.66184559976682,112.66184559976682,113.60377469984816,space,0.934343000408262,,,,,,,,,,,,sub-170,1.0,stroop_test,119.94635946789568,
,,,,0.0,0.0,0.0,,,,,,,,,,,,,rot,red,r,1.0,r,1.0,0.5873127998784184,,,,,,,,,,0.0,0.0,0.0,1.0,113.61339539987966,,,,,,,,,,,,,,,,,113.61052139988168,114.40280849998815,115.19431950012222,115.18685390008612,,,,,,,,,,,,,,,,,,,,,,,,,,,,,,,,,,,115.18859250005336,115.19431950012222,115.19431950012222,115.78693880001084,r,1.0,0.5873127998784184,,,,sub-170,1.0,stroop_test,119.94635946789568,
,,,,1.0,1.0,0.0,,,,,,,,,,,,,blau,blue,b,1.0,b,1.0,0.5743887000717223,,,,,,,,,,0.0,1.0,1.0,5.0,115.79439559997992,,,,,,,,,,,,,,,,,115.787184599787,116.57771829981355,117.36905220011248,117.36143379984424,,,,,,,,,,,,,,,,,,,,,,,,,,,,,,,,,,,117.36412819987164,117.36905220011248,117.36905220011248,117.94497830001636,b,1.0,0.5743887000717223,,,,sub-170,1.0,stroop_test,119.94635946789568,
,,,,2.0,2.0,0.0,,,,,,,,,,,,,rot,yellow,g,0.0,g,1.0,0.3093141000717878,,,,,,,,,,0.0,2.0,2.0,3.0,117.95234140008688,,,,,,,,,,,,,,,,,117.94528029998764,119.14392799977212,119.93561449972913,119.92764650005849,,,,,,,,,,,,,,,,,,,,,,,,,,,,,,,,,,,119.93030879972504,119.93561449972913,119.93561449972913,120.25281139975414,g,1.0,0.3093141000717878,,,,sub-170,1.0,stroop_test,119.94635946789568,
,,,,3.0,3.0,0.0,,,,,,,,,,,,,rot,red,r,1.0,r,1.0,0.5016369000077248,,,,,,,,,,0.0,3.0,3.0,0.0,120.26043020002544,,,,,,,,,,,,,,,,,120.25307959970088,121.0519619998522,121.84341999981552,121.83582710009068,,,,,,,,,,,,,,,,,,,,,,,,,,,,,,,,,,,121.83627660013735,121.84341999981552,121.84341999981552,122.35298659978434,r,1.0,0.5016369000077248,,,,sub-170,1.0,stroop_test,119.94635946789568,
,,,,4.0,4.0,0.0,,,,,,,,,,,,,gelb,red,r,0.0,r,1.0,1.0906608998775482,,,,,,,,,,0.0,4.0,4.0,8.0,122.36002889974044,,,,,,,,,,,,,,,,,122.35332580003887,123.5516514996998,124.34297919971868,124.33531629992648,,,,,,,,,,,,,,,,,,,,,,,,,,,,,,,,,,,124.33696320001036,124.34297919971868,124.34297919971868,125.43560259975492,r,1.0,1.0906608998775482,,,,sub-170,1.0,stroop_test,119.94635946789568,
,,,,5.0,5.0,0.0,,,,,,,,,,,,,gelb,yellow,g,1.0,g,1.0,0.8533315001986921,,,,,,,,,,0.0,5.0,5.0,11.0,125.4428665000014,,,,,,,,,,,,,,,,,125.43586400011554,126.63443169975652,127.42596359970048,127.41814110009,,,,,,,,,,,,,,,,,,,,,,,,,,,,,,,,,,,127.4185593998991,127.42596359970048,127.42596359970048,128.28514549974352,g,1.0,0.8533315001986921,,,,sub-170,1.0,stroop_test,119.94635946789568,
,,,,6.0,6.0,0.0,,,,,,,,,,,,,blau,yellow,g,0.0,b,0.0,0.7701028999872506,,,,,,,,,,0.0,6.0,6.0,7.0,128.29234889987856,,,,,,,,,,,,,,,,,128.285430399701,128.3842123998329,129.17573629971594,129.1679321997799,,,,,,,,,,,,,,,,,,,,,,,,,,,,,,,,,,,129.17056210013106,129.17573629971594,129.17573629971594,129.95162530010566,b,0.0,0.7701028999872506,,,,sub-170,1.0,stroop_test,119.94635946789568,
,,,,7.0,7.0,0.0,,,,,,,,,,,,,blau,red,r,0.0,r,1.0,0.9928815001621842,,,,,,,,,,0.0,7.0,7.0,4.0,129.95882479986176,,,,,,,,,,,,,,,,,129.9519114997238,130.0504137999378,130.84208370000124,130.8341514999047,,,,,,,,,,,,,,,,,,,,,,,,,,,,,,,,,,,130.8344191997312,130.84208370000124,130.84208370000124,131.84275140007958,r,1.0,0.9928815001621842,,,,sub-170,1.0,stroop_test,119.94635946789568,
,,,,8.0,8.0,0.0,,,,,,,,,,,,,rot,blue,b,0.0,b,1.0,0.8239190001040697,,,,,,,,,,0.0,8.0,8.0,2.0,131.8503050999716,,,,,,,,,,,,,,,,,131.84300109976903,131.941870899871,132.73356320010498,132.72575310012326,,,,,,,,,,,,,,,,,,,,,,,,,,,,,,,,,,,132.72844449989498,132.73356320010498,132.73356320010498,133.5591043997556,b,1.0,0.8239190001040697,,,,sub-170,1.0,stroop_test,119.94635946789568,
,,,,9.0,9.0,0.0,,,,,,,,,,,,,gelb,yellow,g,1.0,g,1.0,0.5598065997473896,,,,,,,,,,0.0,9.0,9.0,10.0,133.56670810002834,,,,,,,,,,,,,,,,,133.55942049995065,134.75815689982846,135.54944380000234,135.5418369998224,,,,,,,,,,,,,,,,,,,,,,,,,,,,,,,,,,,135.5448420001194,135.54944380000234,135.54944380000234,136.11756670009345,g,1.0,0.5598065997473896,,,,sub-170,1.0,stroop_test,119.94635946789568,
,,,,10.0,10.0,0.0,,,,,,,,,,,,,gelb,blue,b,0.0,b,1.0,1.1470615002326667,,,,,,,,,,0.0,10.0,10.0,9.0,136.12456050002947,,,,,,,,,,,,,,,,,136.11797309992835,136.91599959973246,137.70768379978836,137.69997819978744,,,,,,,,,,,,,,,,,,,,,,,,,,,,,,,,,,,137.70043540000916,137.70768379978836,137.70768379978836,138.8582095997408,b,1.0,1.1470615002326667,,,,sub-170,1.0,stroop_test,119.94635946789568,
,,,,11.0,11.0,0.0,,,,,,,,,,,,,blau,blue,b,1.0,b,1.0,0.5027177999727428,,,,,,,,,,0.0,11.0,11.0,6.0,138.86590889981017,,,,,,,,,,,,,,,,,138.8584654997103,138.94899690011516,139.74047720013186,139.7327179997228,,,,,,,,,,,,,,,,,,,,,,,,,,,,,,,,,,,139.73573629977182,139.74047720013186,139.74047720013186,140.24974250001833,b,1.0,0.5027177999727428,,,,sub-170,1.0,stroop_test,119.94635946789568,
,,,,12.0,0.0,1.0,,,,,,,,,,,,,gelb,yellow,g,1.0,g,1.0,0.747766399756074,,,,,,,,,,1.0,0.0,12.0,11.0,140.2570548998192,,,,,,,,,,,,,,,,,140.25002769986168,140.5905025000684,141.38206689991057,141.37400900013745,,,,,,,,,,,,,,,,,,,,,,,,,,,,,,,,,,,141.37588830012828,141.38206689991057,141.38206689991057,142.1328691998497,g,1.0,0.747766399756074,,,,sub-170,1.0,stroop_test,119.94635946789568,
,,,,13.0,1.0,1.0,,,,,,,,,,,,,rot,blue,b,0.0,b,1.0,1.313414900097996,,,,,,,,,,1.0,1.0,13.0,2.0,142.14006519969553,,,,,,,,,,,,,,,,,142.13317089993507,142.93187849968672,143.72310209972784,143.71547039970756,,,,,,,,,,,,,,,,,,,,,,,,,,,,,,,,,,,143.71815269999206,143.72310209972784,143.72310209972784,145.04090899974108,b,1.0,1.313414900097996,,,,sub-170,1.0,stroop_test,119.94635946789568,
,,,,14.0,2.0,1.0,,,,,,,,,,,,,rot,red,r,1.0,r,1.0,0.5106622995808721,,,,,,,,,,1.0,2.0,14.0,1.0,145.04801280004904,,,,,,,,,,,,,,,,,145.0411935998127,146.2396645997651,147.0310780000873,147.0234324997291,,,,,,,,,,,,,,,,,,,,,,,,,,,,,,,,,,,147.023817199748,147.0310780000873,147.0310780000873,147.5485010999255,r,1.0,0.5106622995808721,,,,sub-170,1.0,stroop_test,119.94635946789568,
,,,,15.0,3.0,1.0,,,,,,,,,,,,,blau,red,r,0.0,r,1.0,0.7201241999864578,,,,,,,,,,1.0,3.0,15.0,4.0,147.55616579996422,,,,,,,,,,,,,,,,,147.5487835998647,147.63944629998878,148.43092839978635,148.42297539999709,,,,,,,,,,,,,,,,,,,,,,,,,,,,,,,,,,,148.42583819990978,148.43092839978635,148.43092839978635,149.15679810009897,r,1.0,0.7201241999864578,,,,sub-170,1.0,stroop_test,119.94635946789568,
,,,,16.0,4.0,1.0,,,,,,,,,,,,,blau,blue,b,1.0,b,1.0,1.134298300370574,,,,,,,,,,1.0,4.0,16.0,5.0,149.16397830005735,,,,,,,,,,,,,,,,,149.15704210009426,149.25568429986015,150.04733429988846,150.03935849992558,,,,,,,,,,,,,,,,,,,,,,,,,,,,,,,,,,,150.03975440002978,150.04733429988846,150.04733429988846,151.1895101000555,b,1.0,1.134298300370574,,,,sub-170,1.0,stroop_test,119.94635946789568,
,,,,17.0,5.0,1.0,,,,,,,,,,,,,gelb,yellow,g,1.0,g,1.0,0.5323052001185715,,,,,,,,,,1.0,5.0,17.0,10.0,151.19713559979573,,,,,,,,,,,,,,,,,151.1897756997496,151.5302757997997,152.32206599973142,152.3142067999579,,,,,,,,,,,,,,,,,,,,,,,,,,,,,,,,,,,152.31646090000868,152.32206599973142,152.32206599973142,152.8558954000473,g,1.0,0.5323052001185715,,,,sub-170,1.0,stroop_test,119.94635946789568,
,,,,18.0,6.0,1.0,,,,,,,,,,,,,rot,red,r,1.0,r,1.0,0.599698799662292,,,,,,,,,,1.0,6.0,18.0,0.0,152.8633616999723,,,,,,,,,,,,,,,,,152.8561756000854,153.19677439983934,153.98807659978047,153.98039009980857,,,,,,,,,,,,,,,,,,,,,,,,,,,,,,,,,,,153.98300329968333,153.98807659978047,153.98807659978047,154.58919969992712,r,1.0,0.599698799662292,,,,sub-170,1.0,stroop_test,119.94635946789568,
,,,,19.0,7.0,1.0,,,,,,,,,,,,,blau,blue,b,1.0,b,1.0,0.68250219989568,,,,,,,,,,1.0,7.0,19.0,6.0,154.59642709977925,,,,,,,,,,,,,,,,,154.58949179993942,154.68821069970727,155.47964339982718,155.47174199996516,,,,,,,,,,,,,,,,,,,,,,,,,,,,,,,,,,,155.47445950005203,155.47964339982718,155.47964339982718,156.16371789993718,b,1.0,0.68250219989568,,,,sub-170,1.0,stroop_test,119.94635946789568,
,,,,20.0,8.0,1.0,,,,,,,,,,,,,blau,yellow,g,0.0,g,1.0,1.258810699917376,,,,,,,,,,1.0,8.0,20.0,7.0,156.17117019975558,,,,,,,,,,,,,,,,,156.1639823000878,156.51284629991278,157.30425009969622,157.29645620007068,,,,,,,,,,,,,,,,,,,,,,,,,,,,,,,,,,,157.29690050007775,157.30425009969622,157.30425009969622,158.57177180005235,g,1.0,1.258810699917376,,,,sub-170,1.0,stroop_test,119.94635946789568,
,,,,21.0,9.0,1.0,,,,,,,,,,,,,gelb,red,r,0.0,r,1.0,0.834521200042218,,,,,,,,,,1.0,9.0,21.0,8.0,158.57914240006355,,,,,,,,,,,,,,,,,158.57205360010266,159.36229520011693,160.15402180003002,160.146046299953,,,,,,,,,,,,,,,,,,,,,,,,,,,,,,,,,,,160.14843219984323,160.15402180003002,160.15402180003002,160.99637020006776,r,1.0,0.834521200042218,,,,sub-170,1.0,stroop_test,119.94635946789568,
,,,,22.0,10.0,1.0,,,,,,,,,,,,,gelb,blue,b,0.0,b,1.0,1.3180050002411008,,,,,,,,,,1.0,10.0,22.0,9.0,161.00395500008017,,,,,,,,,,,,,,,,,160.99663629988208,161.7953773997724,162.58691819990054,162.5792223997414,,,,,,,,,,,,,,,,,,,,,,,,,,,,,,,,,,,162.57961109979078,162.58691819990054,162.58691819990054,163.91272909985855,b,1.0,1.3180050002411008,,,,sub-170,1.0,stroop_test,119.94635946789568,
,,,,23.0,11.0,1.0,,,,,,,,,,,,,rot,yellow,g,0.0,g,1.0,0.7909110998734832,,,,,,,,,,1.0,11.0,23.0,3.0,163.92005740012974,,,,,,,,,,,,,,,,,163.91299539990723,164.7114697000943,165.50319280009717,165.49528650008142,,,,,,,,,,,,,,,,,,,,,,,,,,,,,,,,,,,165.4979469999671,165.50319280009717,165.50319280009717,166.2954374998808,g,1.0,0.7909110998734832,,,,sub-170,1.0,stroop_test,119.94635946789568,
,,,,24.0,0.0,2.0,,,,,,,,,,,,,rot,red,r,1.0,r,1.0,1.1250511002726853,,,,,,,,,,2.0,0.0,24.0,1.0,166.3028961000964,,,,,,,,,,,,,,,,,166.2956946999766,167.0944892000407,167.886128900107,167.87839119974524,,,,,,,,,,,,,,,,,,,,,,,,,,,,,,,,,,,167.87881359970197,167.886128900107,167.886128900107,169.0122011997737,r,1.0,1.1250511002726853,,,,sub-170,1.0,stroop_test,119.94635946789568,
,,,,25.0,1.0,2.0,,,,,,,,,,,,,rot,blue,b,0.0,b,1.0,0.6789620998315513,,,,,,,,,,2.0,1.0,25.0,2.0,169.01924949977547,,,,,,,,,,,,,,,,,169.01249779993668,169.36090780002996,170.15251359995457,170.1446436000988,,,,,,,,,,,,,,,,,,,,,,,,,,,,,,,,,,,170.1450632000342,170.15251359995457,170.15251359995457,170.83632500004023,b,1.0,0.6789620998315513,,,,sub-170,1.0,stroop_test,119.94635946789568,
,,,,26.0,2.0,2.0,,,,,,,,,,,,,blau,blue,b,1.0,b,1.0,0.7681159996427596,,,,,,,,,,2.0,2.0,26.0,6.0,170.84379420010373,,,,,,,,,,,,,,,,,170.8365329997614,172.0270321997814,172.81849889969453,172.81090170005336,,,,,,,,,,,,,,,,,,,,,,,,,,,,,,,,,,,172.8125497000292,172.81849889969453,172.81849889969453,173.59447100013494,b,1.0,0.7681159996427596,,,,sub-170,1.0,stroop_test,119.94635946789568,
,,,,27.0,3.0,2.0,,,,,,,,,,,,,gelb,red,r,0.0,r,1.0,0.6669334997422993,,,,,,,,,,2.0,3.0,27.0,8.0,173.60177339985967,,,,,,,,,,,,,,,,,173.5947369998321,173.9434976996854,174.73506959993392,174.72732229996473,,,,,,,,,,,,,,,,,,,,,,,,,,,,,,,,,,,174.7296498999931,174.73506959993392,174.73506959993392,175.41083229985088,r,1.0,0.6669334997422993,,,,sub-170,1.0,stroop_test,119.94635946789568,
,,,,28.0,4.0,2.0,,,,,,,,,,,,,rot,red,r,1.0,r,1.0,0.5489270002581179,,,,,,,,,,2.0,4.0,28.0,0.0,175.41806360008195,,,,,,,,,,,,,,,,,175.41111729992554,175.75981499999762,176.5515608000569,176.5436778999865,,,,,,,,,,,,,,,,,,,,,,,,,,,,,,,,,,,176.54677759995684,176.5515608000569,176.5515608000569,177.101960899774,r,1.0,0.5489270002581179,,,,sub-170,1.0,stroop_test,119.94635946789568,
,,,,29.0,5.0,2.0,,,,,,,,,,,,,blau,red,r,0.0,r,1.0,0.7512342003174126,,,,,,,,,,2.0,5.0,29.0,4.0,177.10965360002592,,,,,,,,,,,,,,,,,177.1022668001242,177.8925728998147,178.68431719997898,178.67646340001374,,,,,,,,,,,,,,,,,,,,,,,,,,,,,,,,,,,178.67921500001103,178.68431719997898,178.68431719997898,179.44348069978878,r,1.0,0.7512342003174126,,,,sub-170,1.0,stroop_test,119.94635946789568,
,,,,30.0,6.0,2.0,,,,,,,,,,,,,rot,yellow,g,0.0,g,1.0,0.4141126000322401,,,,,,,,,,2.0,6.0,30.0,3.0,179.4507443998009,,,,,,,,,,,,,,,,,179.4437339999713,180.64237369969487,181.4339582999237,181.42603780003265,,,,,,,,,,,,,,,,,,,,,,,,,,,,,,,,,,,181.4289609999396,181.4339582999237,181.4339582999237,181.85126879997551,g,1.0,0.4141126000322401,,,,sub-170,1.0,stroop_test,119.94635946789568,
,,,,31.0,7.0,2.0,,,,,,,,,,,,,gelb,blue,b,0.0,b,1.0,1.0711340000852942,,,,,,,,,,2.0,7.0,31.0,9.0,181.85866869986057,,,,,,,,,,,,,,,,,181.8515372998081,182.20045549981296,182.99213139992207,182.98415239993483,,,,,,,,,,,,,,,,,,,,,,,,,,,,,,,,,,,182.98637049971148,182.99213139992207,182.99213139992207,184.06772619998085,b,1.0,1.0711340000852942,,,,sub-170,1.0,stroop_test,119.94635946789568,
,,,,32.0,8.0,2.0,,,,,,,,,,,,,gelb,yellow,g,1.0,g,1.0,0.5342426002025604,,,,,,,,,,2.0,8.0,32.0,11.0,184.0750624998473,,,,,,,,,,,,,,,,,184.06801240006465,185.26653289981184,186.05826449999583,186.05041049979627,,,,,,,,,,,,,,,,,,,,,,,,,,,,,,,,,,,186.0507477996871,186.05826449999583,186.05826449999583,186.6005811998621,g,1.0,0.5342426002025604,,,,sub-170,1.0,stroop_test,119.94635946789568,
,,,,33.0,9.0,2.0,,,,,,,,,,,,,blau,blue,b,1.0,b,1.0,0.7398498002439737,,,,,,,,,,2.0,9.0,33.0,5.0,186.60796039970592,,,,,,,,,,,,,,,,,186.60084210010243,186.9497551000677,187.7412459999323,187.7333980998956,,,,,,,,,,,,,,,,,,,,,,,,,,,,,,,,,,,187.7359126000665,187.7412459999323,187.7412459999323,188.48377420008185,b,1.0,0.7398498002439737,,,,sub-170,1.0,stroop_test,119.94635946789568,
,,,,34.0,10.0,2.0,,,,,,,,,,,,,blau,yellow,g,0.0,g,1.0,1.0082943001762033,,,,,,,,,,2.0,10.0,34.0,7.0,188.49104519980028,,,,,,,,,,,,,,,,,188.48403130006045,188.58283710014075,189.37426399998367,189.36656379979104,,,,,,,,,,,,,,,,,,,,,,,,,,,,,,,,,,,189.36694249976424,189.37426399998367,189.37426399998367,190.3835553000681,g,1.0,1.0082943001762033,,,,sub-170,1.0,stroop_test,119.94635946789568,
,,,,35.0,11.0,2.0,,,,,,,,,,,,,gelb,yellow,g,1.0,g,1.0,0.8009164999239147,,,,,,,,,,2.0,11.0,35.0,10.0,190.39067449979484,,,,,,,,,,,,,,,,,190.38383409986272,190.7322492999956,191.524103899952,191.5162033997476,,,,,,,,,,,,,,,,,,,,,,,,,,,,,,,,,,,191.5178799997084,191.524103899952,191.524103899952,192.33299200003967,g,1.0,0.8009164999239147,,,,sub-170,1.0,stroop_test,119.94635946789568,
,,,,36.0,0.0,3.0,,,,,,,,,,,,,blau,red,r,0.0,r,1.0,0.6262838998809457,,,,,,,,,,3.0,0.0,36.0,4.0,192.34060249989847,,,,,,,,,,,,,,,,,192.3332603997551,192.43208790011704,193.2236627000384,193.21607979992405,,,,,,,,,,,,,,,,,,,,,,,,,,,,,,,,,,,193.21917989989743,193.2236627000384,193.2236627000384,193.8579655997455,r,1.0,0.6262838998809457,,,,sub-170,1.0,stroop_test,119.94635946789568,
,,,,37.0,1.0,3.0,,,,,,,,,,,,,blau,yellow,g,0.0,g,1.0,0.6451475000940263,,,,,,,,,,3.0,1.0,37.0,7.0,193.8650929997675,,,,,,,,,,,,,,,,,193.8582697999664,195.05660609994084,195.8481359998696,195.8403078997508,,,,,,,,,,,,,,,,,,,,,,,,,,,,,,,,,,,195.84072390012443,195.8481359998696,195.8481359998696,196.4992178999819,g,1.0,0.6451475000940263,,,,sub-170,1.0,stroop_test,119.94635946789568,
,,,,38.0,2.0,3.0,,,,,,,,,,,,,rot,red,r,1.0,r,1.0,0.5345843997783959,,,,,,,,,,3.0,2.0,38.0,1.0,196.50645079975948,,,,,,,,,,,,,,,,,196.4995176000521,196.8479272997938,197.63954090001064,197.63168169977143,,,,,,,,,,,,,,,,,,,,,,,,,,,,,,,,,,,197.6345035000704,197.63954090001064,197.63954090001064,198.1821432998404,r,1.0,0.5345843997783959,,,,sub-170,1.0,stroop_test,119.94635946789568,
,,,,39.0,3.0,3.0,,,,,,,,,,,,,rot,blue,b,0.0,b,1.0,0.8509865002706647,,,,,,,,,,3.0,3.0,39.0,2.0,198.1896056998521,,,,,,,,,,,,,,,,,198.1824428997934,199.38106840010727,200.17260350007564,200.164871300105,,,,,,,,,,,,,,,,,,,,,,,,,,,,,,,,,,,200.165243699681,200.17260350007564,200.17260350007564,201.03164790011945,b,1.0,0.8509865002706647,,,,sub-170,1.0,stroop_test,119.94635946789568,
,,,,40.0,4.0,3.0,,,,,,,,,,,,,blau,blue,b,1.0,b,1.0,0.5432140002958477,,,,,,,,,,3.0,4.0,40.0,6.0,201.03906500013545,,,,,,,,,,,,,,,,,201.031918999739,201.12232160009444,201.91384029993787,201.90620640013367,,,,,,,,,,,,,,,,,,,,,,,,,,,,,,,,,,,201.90876929974183,201.91384029993787,201.91384029993787,202.46485489979383,b,1.0,0.5432140002958477,,,,sub-170,1.0,stroop_test,119.94635946789568,
,,,,41.0,5.0,3.0,,,,,,,,,,,,,rot,yellow,g,0.0,g,1.0,0.6876241997815669,,,,,,,,,,3.0,5.0,41.0,3.0,202.4721984998323,,,,,,,,,,,,,,,,,202.46513679996133,203.6636815997772,204.45523059973493,204.44722250010815,,,,,,,,,,,,,,,,,,,,,,,,,,,,,,,,,,,204.44993070000783,204.45523059973493,204.45523059973493,205.1477602999657,g,1.0,0.6876241997815669,,,,sub-170,1.0,stroop_test,119.94635946789568,
,,,,42.0,6.0,3.0,,,,,,,,,,,,,gelb,red,r,0.0,r,1.0,0.5721873003058136,,,,,,,,,,3.0,6.0,42.0,8.0,205.15496579976752,,,,,,,,,,,,,,,,,205.14803089993077,206.3464281000197,207.13818620005625,207.1302268998697,,,,,,,,,,,,,,,,,,,,,,,,,,,,,,,,,,,207.132421199698,207.13818620005625,207.13818620005625,207.713811499998,r,1.0,0.5721873003058136,,,,sub-170,1.0,stroop_test,119.94635946789568,
,,,,43.0,7.0,3.0,,,,,,,,,,,,,gelb,blue,b,0.0,b,1.0,0.6636323998682201,,,,,,,,,,3.0,7.0,43.0,9.0,207.72132160002369,,,,,,,,,,,,,,,,,207.71407999983057,208.05447679990905,208.8460723999888,208.8383436999284,,,,,,,,,,,,,,,,,,,,,,,,,,,,,,,,,,,208.83877189969644,208.8460723999888,208.8460723999888,209.513863499742,b,1.0,0.6636323998682201,,,,sub-170,1.0,stroop_test,119.94635946789568,
,,,,44.0,8.0,3.0,,,,,,,,,,,,,blau,blue,b,1.0,b,1.0,0.6420971998013556,,,,,,,,,,3.0,8.0,44.0,5.0,209.5208914997056,,,,,,,,,,,,,,,,,209.51418410008773,210.7125337999314,211.50395060004664,211.49623150005937,,,,,,,,,,,,,,,,,,,,,,,,,,,,,,,,,,,211.49920889968053,211.50395060004664,211.50395060004664,212.1547492998652,b,1.0,0.6420971998013556,,,,sub-170,1.0,stroop_test,119.94635946789568,
,,,,45.0,9.0,3.0,,,,,,,,,,,,,gelb,yellow,g,1.0,g,1.0,0.5857518999837339,,,,,,,,,,3.0,9.0,45.0,11.0,212.16218809969723,,,,,,,,,,,,,,,,,212.1549931000918,213.34533479996023,214.13702340004969,214.1291424999945,,,,,,,,,,,,,,,,,,,,,,,,,,,,,,,,,,,214.1315573998727,214.13702340004969,214.13702340004969,214.72963699977845,g,1.0,0.5857518999837339,,,,sub-170,1.0,stroop_test,119.94635946789568,
,,,,46.0,10.0,3.0,,,,,,,,,,,,,rot,red,r,1.0,r,1.0,0.5886904001235962,,,,,,,,,,3.0,10.0,46.0,0.0,214.7367202998139,,,,,,,,,,,,,,,,,214.72994029987603,214.82835929980504,215.62029769970104,215.61229269998148,,,,,,,,,,,,,,,,,,,,,,,,,,,,,,,,,,,215.61515219975263,215.62029769970104,215.62029769970104,216.21235919976607,r,1.0,0.5886904001235962,,,,sub-170,1.0,stroop_test,119.94635946789568,
,,,,47.0,11.0,3.0,,,,,,,,,,,,,gelb,yellow,g,1.0,g,1.0,0.5130553999915719,,,,,,,,,,3.0,11.0,47.0,10.0,216.21986859990284,,,,,,,,,,,,,,,,,216.2125961999409,216.553161600139,217.3447401998565,217.33702450012788,,,,,,,,,,,,,,,,,,,,,,,,,,,,,,,,,,,217.33924859995025,217.3447401998565,217.3447401998565,217.8624571999535,g,1.0,0.5130553999915719,,,,sub-170,1.0,stroop_test,119.94635946789568,
,,,,48.0,0.0,4.0,,,,,,,,,,,,,blau,blue,b,1.0,b,1.0,0.4070317996665835,,,,,,,,,,4.0,0.0,48.0,6.0,217.8696217997931,,,,,,,,,,,,,,,,,217.8627375997603,218.2112949998118,219.00270689977333,218.99502269970253,,,,,,,,,,,,,,,,,,,,,,,,,,,,,,,,,,,218.9975593998097,219.00270689977333,219.00270689977333,219.41228209994733,b,1.0,0.4070317996665835,,,,sub-170,1.0,stroop_test,119.94635946789568,
,,,,49.0,1.0,4.0,,,,,,,,,,,,,rot,red,r,1.0,r,1.0,0.790232699830085,,,,,,,,,,4.0,1.0,49.0,1.0,219.4194513000548,,,,,,,,,,,,,,,,,219.4125618999824,219.5110105001368,220.3024708000012,220.2946558999829,,,,,,,,,,,,,,,,,,,,,,,,,,,,,,,,,,,220.2971999999136,220.3024708000012,220.3024708000012,221.09510009968653,r,1.0,0.790232699830085,,,,sub-170,1.0,stroop_test,119.94635946789568,
,,,,50.0,2.0,4.0,,,,,,,,,,,,,blau,blue,b,1.0,b,1.0,0.5362718999385834,,,,,,,,,,4.0,2.0,50.0,5.0,221.102459799964,,,,,,,,,,,,,,,,,221.09538060007617,222.2939997999929,223.08602549973875,223.07762009976432,,,,,,,,,,,,,,,,,,,,,,,,,,,,,,,,,,,223.08098879968747,223.08602549973875,223.08602549973875,223.6281274999492,b,1.0,0.5362718999385834,,,,sub-170,1.0,stroop_test,119.94635946789568,
,,,,51.0,3.0,4.0,,,,,,,,,,,,,gelb,yellow,g,1.0,g,1.0,0.5743195000104606,,,,,,,,,,4.0,3.0,51.0,11.0,223.63542329985648,,,,,,,,,,,,,,,,,223.6283889999613,224.42696660012007,225.2183741000481,225.21082219993696,,,,,,,,,,,,,,,,,,,,,,,,,,,,,,,,,,,225.2131691998802,225.2183741000481,225.2183741000481,225.79423459991813,g,1.0,0.5743195000104606,,,,sub-170,1.0,stroop_test,119.94635946789568,
,,,,52.0,4.0,4.0,,,,,,,,,,,,,gelb,blue,b,0.0,g,0.0,2.0855020000599325,,,,,,,,,,4.0,4.0,52.0,9.0,225.80171129992232,,,,,,,,,,,,,,,,,225.79452509991825,226.5931953000836,227.3849116996862,227.3769435998984,,,,,,,,,,,,,,,,,,,,,,,,,,,,,,,,,,,227.3773644999601,227.3849116996862,227.3849116996862,229.47724629985169,g,0.0,2.0855020000599325,,,,sub-170,1.0,stroop_test,119.94635946789568,
,,,,53.0,5.0,4.0,,,,,,,,,,,,,blau,red,r,0.0,r,1.0,1.034370600245893,,,,,,,,,,4.0,5.0,53.0,4.0,229.48454819992185,,,,,,,,,,,,,,,,,229.47751029999927,230.67602310003716,231.46744429972023,231.45971520012245,,,,,,,,,,,,,,,,,,,,,,,,,,,,,,,,,,,231.4625248997472,231.46744429972023,231.46744429972023,232.5099132996984,r,1.0,1.034370600245893,,,,sub-170,1.0,stroop_test,119.94635946789568,
,,,,54.0,6.0,4.0,,,,,,,,,,,,,gelb,red,r,0.0,r,1.0,0.7904559001326561,,,,,,,,,,4.0,6.0,54.0,8.0,232.51727270009,,,,,,,,,,,,,,,,,232.5101812998764,233.30887260008603,234.10059419972825,234.09259520005435,,,,,,,,,,,,,,,,,,,,,,,,,,,,,,,,,,,234.0950215999037,234.10059419972825,234.10059419972825,234.89280819986016,r,1.0,0.7904559001326561,,,,sub-170,1.0,stroop_test,119.94635946789568,
,,,,55.0,7.0,4.0,,,,,,,,,,,,,gelb,yellow,g,1.0,g,1.0,0.663813800085336,,,,,,,,,,4.0,7.0,55.0,10.0,234.90039369976148,,,,,,,,,,,,,,,,,234.89307420002297,234.9917975999415,235.7836343999952,235.77563520008695,,,,,,,,,,,,,,,,,,,,,,,,,,,,,,,,,,,235.77602540003136,235.7836343999952,235.7836343999952,236.4508726997301,g,1.0,0.663813800085336,,,,sub-170,1.0,stroop_test,119.94635946789568,
,,,,56.0,8.0,4.0,,,,,,,,,,,,,rot,blue,b,0.0,b,1.0,0.6279438999481499,,,,,,,,,,4.0,8.0,56.0,2.0,236.45817589992657,,,,,,,,,,,,,,,,,236.4512048996985,237.64988259971145,238.4412977998145,238.4334720000625,,,,,,,,,,,,,,,,,,,,,,,,,,,,,,,,,,,238.43631860008463,238.4412977998145,238.4412977998145,239.0756389996968,b,1.0,0.6279438999481499,,,,sub-170,1.0,stroop_test,119.94635946789568,
,,,,57.0,9.0,4.0,,,,,,,,,,,,,rot,red,r,1.0,r,1.0,0.626165600027889,,,,,,,,,,4.0,9.0,57.0,0.0,239.08300109999252,,,,,,,,,,,,,,,,,239.0759187000804,239.42463809996843,240.21605989988893,240.20840909983963,,,,,,,,,,,,,,,,,,,,,,,,,,,,,,,,,,,240.2088170996867,240.21605989988893,240.21605989988893,240.8500723000616,r,1.0,0.626165600027889,,,,sub-170,1.0,stroop_test,119.94635946789568,
,,,,58.0,10.0,4.0,,,,,,,,,,,,,blau,yellow,g,0.0,g,1.0,1.4419188001193106,,,,,,,,,,4.0,10.0,58.0,7.0,240.8575224997476,,,,,,,,,,,,,,,,,240.85032479977235,241.19102079980075,241.98234299989417,241.9747771997936,,,,,,,,,,,,,,,,,,,,,,,,,,,,,,,,,,,241.9772084001452,241.98234299989417,241.98234299989417,243.43269209982827,g,1.0,1.4419188001193106,,,,sub-170,1.0,stroop_test,119.94635946789568,
,,,,59.0,11.0,4.0,,,,,,,,,,,,,rot,yellow,g,0.0,g,1.0,0.7189686996862292,,,,,,,,,,4.0,11.0,59.0,3.0,243.4404470999725,,,,,,,,,,,,,,,,,243.43292139982805,244.2237599999644,245.01575889997184,245.00746720004827,,,,,,,,,,,,,,,,,,,,,,,,,,,,,,,,,,,245.01072409981865,245.01575889997184,245.01575889997184,245.74124839995056,g,1.0,0.7189686996862292,,,,sub-170,1.0,stroop_test,119.94635946789568,
,,,,60.0,0.0,5.0,,,,,,,,,,,,,rot,blue,b,0.0,r,0.0,1.2011261996813118,,,,,,,,,,5.0,0.0,60.0,2.0,245.7485118000768,,,,,,,,,,,,,,,,,245.7415276998654,246.5401234999299,247.33144639991224,247.3237324999645,,,,,,,,,,,,,,,,,,,,,,,,,,,,,,,,,,,247.32410970004275,247.33144639991224,247.33144639991224,248.54047419968992,r,0.0,1.2011261996813118,,,,sub-170,1.0,stroop_test,119.94635946789568,
,,,,61.0,1.0,5.0,,,,,,,,,,,,,gelb,blue,b,0.0,b,1.0,1.462735100183636,,,,,,,,,,5.0,1.0,61.0,9.0,248.54811159987003,,,,,,,,,,,,,,,,,248.5407153000124,248.88122620014477,249.67275039991364,249.66518459981307,,,,,,,,,,,,,,,,,,,,,,,,,,,,,,,,,,,249.66740070004016,249.67275039991364,249.67275039991364,251.14043539995328,b,1.0,1.462735100183636,,,,sub-170,1.0,stroop_test,119.94635946789568,
,,,,62.0,2.0,5.0,,,,,,,,,,,,,blau,yellow,g,0.0,g,1.0,1.0963538000360131,,,,,,,,,,5.0,2.0,62.0,7.0,251.1474715997465,,,,,,,,,,,,,,,,,251.140711999964,252.33898069988936,253.13064390001816,253.1228117998689,,,,,,,,,,,,,,,,,,,,,,,,,,,,,,,,,,,253.12562910001725,253.13064390001816,253.13064390001816,254.23148169973865,g,1.0,1.0963538000360131,,,,sub-170,1.0,stroop_test,119.94635946789568,
,,,,63.0,3.0,5.0,,,,,,,,,,,,,blau,blue,b,1.0,b,1.0,0.6226828000508249,,,,,,,,,,5.0,3.0,63.0,6.0,254.2388148996979,,,,,,,,,,,,,,,,,254.23171669989824,255.03045709989965,255.82193659991023,255.8140376000665,,,,,,,,,,,,,,,,,,,,,,,,,,,,,,,,,,,255.81445429986343,255.82193659991023,255.82193659991023,256.44787889998406,b,1.0,0.6226828000508249,,,,sub-170,1.0,stroop_test,119.94635946789568,
,,,,64.0,4.0,5.0,,,,,,,,,,,,,rot,yellow,g,0.0,r,0.0,0.8556997999548912,,,,,,,,,,5.0,4.0,64.0,3.0,256.4551196997054,,,,,,,,,,,,,,,,,256.44818519987166,257.64670799998567,258.4382170001045,258.4303191998042,,,,,,,,,,,,,,,,,,,,,,,,,,,,,,,,,,,258.4327735998668,258.4382170001045,258.4382170001045,259.2970658997074,r,0.0,0.8556997999548912,,,,sub-170,1.0,stroop_test,119.94635946789568,
,,,,65.0,5.0,5.0,,,,,,,,,,,,,gelb,yellow,g,1.0,g,1.0,1.4037166996859014,,,,,,,,,,5.0,5.0,65.0,10.0,259.30465740012005,,,,,,,,,,,,,,,,,259.29732770007104,260.08772339997813,260.879329000134,260.8717189999297,,,,,,,,,,,,,,,,,,,,,,,,,,,,,,,,,,,260.8741814997047,260.879329000134,260.879329000134,262.28872939990833,g,1.0,1.4037166996859014,,,,sub-170,1.0,stroop_test,119.94635946789568,
,,,,66.0,6.0,5.0,,,,,,,,,,,,,rot,red,r,1.0,r,1.0,0.7973327999934554,,,,,,,,,,5.0,6.0,66.0,1.0,262.2958017997444,,,,,,,,,,,,,,,,,262.289053699933,263.0874907998368,263.8789317999035,263.8710118997842,,,,,,,,,,,,,,,,,,,,,,,,,,,,,,,,,,,263.87277829973027,263.8789317999035,263.8789317999035,264.6795918997377,r,1.0,0.7973327999934554,,,,sub-170,1.0,stroop_test,119.94635946789568,
,,,,67.0,7.0,5.0,,,,,,,,,,,,,blau,red,r,0.0,r,1.0,0.612276999745518,,,,,,,,,,5.0,7.0,67.0,4.0,264.6871899999678,,,,,,,,,,,,,,,,,264.6798513000831,264.7703684996813,265.56204660004005,265.55424600001425,,,,,,,,,,,,,,,,,,,,,,,,,,,,,,,,,,,265.55727780004963,265.56204660004005,265.56204660004005,266.1795422998257,r,1.0,0.612276999745518,,,,sub-170,1.0,stroop_test,119.94635946789568,
,,,,68.0,8.0,5.0,,,,,,,,,,,,,blau,blue,b,1.0,b,1.0,0.6644178000278771,,,,,,,,,,5.0,8.0,68.0,5.0,266.1867333999835,,,,,,,,,,,,,,,,,266.1797948000021,266.5286008999683,267.3199136001058,267.31212450005114,,,,,,,,,,,,,,,,,,,,,,,,,,,,,,,,,,,267.3125268998556,267.3199136001058,267.3199136001058,267.987557400018,b,1.0,0.6644178000278771,,,,sub-170,1.0,stroop_test,119.94635946789568,
,,,,69.0,9.0,5.0,,,,,,,,,,,,,rot,red,r,1.0,r,1.0,0.7759373001754284,,,,,,,,,,5.0,9.0,69.0,0.0,267.9948951001279,,,,,,,,,,,,,,,,,267.9878102000803,268.78644579974934,269.5780619997531,269.5702451998368,,,,,,,,,,,,,,,,,,,,,,,,,,,,,,,,,,,269.5729756001383,269.5780619997531,269.5780619997531,270.3620174997486,r,1.0,0.7759373001754284,,,,sub-170,1.0,stroop_test,119.94635946789568,
,,,,70.0,10.0,5.0,,,,,,,,,,,,,gelb,yellow,g,1.0,g,1.0,0.5787372002378106,,,,,,,,,,5.0,10.0,70.0,11.0,270.36942549981177,,,,,,,,,,,,,,,,,270.36225469969213,271.5608819001354,272.3524849000387,272.34472699975595,,,,,,,,,,,,,,,,,,,,,,,,,,,,,,,,,,,272.3469698000699,272.3524849000387,272.3524849000387,272.9368543997407,g,1.0,0.5787372002378106,,,,sub-170,1.0,stroop_test,119.94635946789568,
,,,,71.0,11.0,5.0,,,,,,,,,,,,,gelb,red,r,0.0,r,1.0,1.276203399989754,,,,,,,,,,5.0,11.0,71.0,8.0,272.9439718998037,,,,,,,,,,,,,,,,,272.93714229995385,273.28561670007184,274.0772553998977,274.0695341001265,,,,,,,,,,,,,,,,,,,,,,,,,,,,,,,,,,,274.0699128997512,274.0772553998977,274.0772553998977,275.3612198000774,r,1.0,1.276203399989754,,,,sub-170,1.0,stroop_test,119.94635946789568,
,,,,72.0,0.0,6.0,,,,,,,,,,,,,gelb,blue,b,0.0,b,1.0,0.8550852998159826,,,,,,,,,,6.0,0.0,72.0,9.0,275.3688264000229,,,,,,,,,,,,,,,,,275.3614873001352,275.4522029999644,276.243799299933,276.235864599701,,,,,,,,,,,,,,,,,,,,,,,,,,,,,,,,,,,276.2361892997287,276.243799299933,276.243799299933,277.1025998000987,b,1.0,0.8550852998159826,,,,sub-170,1.0,stroop_test,119.94635946789568,
,,,,73.0,1.0,6.0,,,,,,,,,,,,,gelb,yellow,g,1.0,g,1.0,0.6011070995591581,,,,,,,,,,6.0,1.0,73.0,11.0,277.11000340012833,,,,,,,,,,,,,,,,,277.1028518998064,278.30148690007627,279.09328259993345,279.08553029969335,,,,,,,,,,,,,,,,,,,,,,,,,,,,,,,,,,,279.08603730006143,279.09328259993345,279.09328259993345,279.70216319989413,g,1.0,0.6011070995591581,,,,sub-170,1.0,stroop_test,119.94635946789568,
,,,,74.0,2.0,6.0,,,,,,,,,,,,,rot,red,r,1.0,r,1.0,0.5629968997091055,,,,,,,,,,6.0,2.0,74.0,0.0,279.70972129981965,,,,,,,,,,,,,,,,,279.7024190998636,280.5012352997437,281.2927687000483,281.2849816000089,,,,,,,,,,,,,,,,,,,,,,,,,,,,,,,,,,,281.2878271001391,281.2927687000483,281.2927687000483,281.8605693997815,r,1.0,0.5629968997091055,,,,sub-170,1.0,stroop_test,119.94635946789568,
,,,,75.0,3.0,6.0,,,,,,,,,,,,,rot,yellow,g,0.0,g,1.0,1.5559947998262942,,,,,,,,,,6.0,3.0,75.0,3.0,281.86758820014074,,,,,,,,,,,,,,,,,281.8609136999585,282.20925509976223,283.00080629996955,282.9931415999308,,,,,,,,,,,,,,,,,,,,,,,,,,,,,,,,,,,282.9935273998417,283.00080629996955,283.00080629996955,284.56001449981704,g,1.0,1.5559947998262942,,,,sub-170,1.0,stroop_test,119.94635946789568,
,,,,76.0,4.0,6.0,,,,,,,,,,,,,blau,red,r,0.0,r,1.0,0.707623400259763,,,,,,,,,,6.0,4.0,76.0,4.0,284.5671059996821,,,,,,,,,,,,,,,,,284.5602660998702,285.3588610999286,286.1501710996963,286.14242930011824,,,,,,,,,,,,,,,,,,,,,,,,,,,,,,,,,,,286.1451587998308,286.1501710996963,286.1501710996963,286.8593497998081,r,1.0,0.707623400259763,,,,sub-170,1.0,stroop_test,119.94635946789568,
,,,,77.0,5.0,6.0,,,,,,,,,,,,,blau,blue,b,1.0,b,1.0,0.5869094002991915,,,,,,,,,,6.0,5.0,77.0,6.0,286.8667680998333,,,,,,,,,,,,,,,,,286.85964909987524,287.19994299998507,287.9915847000666,287.9837780999951,,,,,,,,,,,,,,,,,,,,,,,,,,,,,,,,,,,287.9841644000262,287.9915847000666,287.9915847000666,288.5844270000234,b,1.0,0.5869094002991915,,,,sub-170,1.0,stroop_test,119.94635946789568,
,,,,78.0,6.0,6.0,,,,,,,,,,,,,rot,blue,b,0.0,b,1.0,0.6345843998715281,,,,,,,,,,6.0,6.0,78.0,2.0,288.59152769995853,,,,,,,,,,,,,,,,,288.58471769979224,288.6834034998901,289.47465289989486,289.4669082998298,,,,,,,,,,,,,,,,,,,,,,,,,,,,,,,,,,,289.47002949984744,289.47465289989486,289.47465289989486,290.11722819972783,b,1.0,0.6345843998715281,,,,sub-170,1.0,stroop_test,119.94635946789568,
,,,,79.0,7.0,6.0,,,,,,,,,,,,,blau,yellow,g,0.0,g,1.0,0.7631823997944593,,,,,,,,,,6.0,7.0,79.0,7.0,290.1244966997765,,,,,,,,,,,,,,,,,290.11741259973496,290.91633479995653,291.70894649997354,291.70022889971733,,,,,,,,,,,,,,,,,,,,,,,,,,,,,,,,,,,291.70378449978307,291.70894649997354,291.70894649997354,292.4754631998949,g,1.0,0.7631823997944593,,,,sub-170,1.0,stroop_test,119.94635946789568,
,,,,80.0,8.0,6.0,,,,,,,,,,,,,gelb,yellow,g,1.0,g,1.0,0.572441500145942,,,,,,,,,,6.0,8.0,80.0,10.0,292.4826015001163,,,,,,,,,,,,,,,,,292.47575689991936,292.5742317000404,293.36578870005906,293.3580306000076,,,,,,,,,,,,,,,,,,,,,,,,,,,,,,,,,,,293.3607822000049,293.36578870005906,293.36578870005906,293.9416824998334,g,1.0,0.572441500145942,,,,sub-170,1.0,stroop_test,119.94635946789568,
,,,,81.0,9.0,6.0,,,,,,,,,,,,,gelb,red,r,0.0,r,1.0,1.189502399880439,,,,,,,,,,6.0,9.0,81.0,8.0,293.94892079988495,,,,,,,,,,,,,,,,,293.9419937999919,295.1405249997042,295.93225929979235,295.92442960012704,,,,,,,,,,,,,,,,,,,,,,,,,,,,,,,,,,,295.92487989971414,295.93225929979235,295.93225929979235,297.1243392000906,r,1.0,1.189502399880439,,,,sub-170,1.0,stroop_test,119.94635946789568,
,,,,82.0,10.0,6.0,,,,,,,,,,,,,rot,red,r,1.0,r,1.0,0.5230308002792299,,,,,,,,,,6.0,10.0,82.0,1.0,297.1320480001159,,,,,,,,,,,,,,,,,297.12458089971915,297.2234800998121,298.01805349998176,298.0075937998481,,,,,,,,,,,,,,,,,,,,,,,,,,,,,,,,,,,298.01197909982875,298.01805349998176,298.01805349998176,298.54917960008606,r,1.0,0.5230308002792299,,,,sub-170,1.0,stroop_test,119.94635946789568,
,,,,83.0,11.0,6.0,,,,,,,,,,,,,blau,blue,b,1.0,b,1.0,0.5255943001247942,,,,,,,,,,6.0,11.0,83.0,5.0,298.556550399866,,,,,,,,,,,,,,,,,298.54943559970707,298.88989009987563,299.6815901999362,299.6738191000186,,,,,,,,,,,,,,,,,,,,,,,,,,,,,,,,,,,299.67641989979893,299.6815901999362,299.6815901999362,300.22194149997085,b,1.0,0.5255943001247942,,,,sub-170,1.0,stroop_test,119.94635946789568,
,,,,84.0,0.0,7.0,,,,,,,,,,,,,rot,red,r,1.0,r,1.0,0.7951718000695109,,,,,,,,,,7.0,0.0,84.0,1.0,300.22563070012257,,,,,,,,,,,,,,,,,300.2223637998104,300.31488410010934,301.10640749987215,301.09849359979853,,,,,,,,,,,,,,,,,,,,,,,,,,,,,,,,,,,301.10134139982983,301.10640749987215,301.10640749987215,301.90719350008294,r,1.0,0.7951718000695109,,,,sub-170,1.0,stroop_test,119.94635946789568,
,,,,85.0,1.0,7.0,,,,,,,,,,,,,rot,yellow,g,0.0,r,0.0,1.026013699825853,,,,,,,,,,7.0,1.0,85.0,3.0,301.91437349980697,,,,,,,,,,,,,,,,,301.90746869985014,302.0061814999208,302.79786469973624,302.7898744000122,,,,,,,,,,,,,,,,,,,,,,,,,,,,,,,,,,,302.79013569979,302.79786469973624,302.79786469973624,303.8318869997747,r,0.0,1.026013699825853,,,,sub-170,1.0,stroop_test,119.94635946789568,
,,,,86.0,2.0,7.0,,,,,,,,,,,,,blau,blue,b,1.0,b,1.0,1.0387305999174714,,,,,,,,,,7.0,2.0,86.0,5.0,303.8390766000375,,,,,,,,,,,,,,,,,303.83221169980243,303.9309168998152,304.7229450996965,304.71449950011447,,,,,,,,,,,,,,,,,,,,,,,,,,,,,,,,,,,304.71789779979736,304.7229450996965,304.7229450996965,305.7648570998572,b,1.0,1.0387305999174714,,,,sub-170,1.0,stroop_test,119.94635946789568,
,,,,87.0,3.0,7.0,,,,,,,,,,,,,gelb,yellow,g,1.0,g,1.0,0.5848668999969959,,,,,,,,,,7.0,3.0,87.0,11.0,305.7720733000897,,,,,,,,,,,,,,,,,305.7651217998937,306.9636623999104,307.7552803000435,307.74738160008565,,,,,,,,,,,,,,,,,,,,,,,,,,,,,,,,,,,307.7495988998562,307.7552803000435,307.7552803000435,308.34779569972306,g,1.0,0.5848668999969959,,,,sub-170,1.0,stroop_test,119.94635946789568,
,,,,88.0,4.0,7.0,,,,,,,,,,,,,gelb,blue,b,0.0,b,1.0,0.97768360003829,,,,,,,,,,7.0,4.0,88.0,9.0,308.3549152999185,,,,,,,,,,,,,,,,,308.3480758997612,308.4468267997727,309.2384130000137,309.23047380009666,,,,,,,,,,,,,,,,,,,,,,,,,,,,,,,,,,,309.23085149982944,309.2384130000137,309.2384130000137,310.22240620013326,b,1.0,0.97768360003829,,,,sub-170,1.0,stroop_test,119.94635946789568,
,,,,89.0,5.0,7.0,,,,,,,,,,,,,gelb,red,r,0.0,r,1.0,0.6243211999535561,,,,,,,,,,7.0,5.0,89.0,8.0,310.22988010011613,,,,,,,,,,,,,,,,,310.22268670005724,311.02142059989274,311.81265540001914,311.80500399973243,,,,,,,,,,,,,,,,,,,,,,,,,,,,,,,,,,,311.80542489979416,311.81265540001914,311.81265540001914,312.4384534000419,r,1.0,0.6243211999535561,,,,sub-170,1.0,stroop_test,119.94635946789568,
,,,,90.0,6.0,7.0,,,,,,,,,,,,,blau,yellow,g,0.0,g,1.0,1.1257038996554911,,,,,,,,,,7.0,6.0,90.0,7.0,312.4459517998621,,,,,,,,,,,,,,,,,312.43866819981486,312.7794746998697,313.5712302001193,313.5633184998296,,,,,,,,,,,,,,,,,,,,,,,,,,,,,,,,,,,313.5665313997306,313.5712302001193,313.5712302001193,314.70485819969326,g,1.0,1.1257038996554911,,,,sub-170,1.0,stroop_test,119.94635946789568,
,,,,91.0,7.0,7.0,,,,,,,,,,,,,rot,blue,b,0.0,b,1.0,1.692818600218743,,,,,,,,,,7.0,7.0,91.0,2.0,314.71246600011364,,,,,,,,,,,,,,,,,314.7051372998394,315.5040007997304,316.2954612998292,316.2878733999096,,,,,,,,,,,,,,,,,,,,,,,,,,,,,,,,,,,316.2909270999953,316.2954612998292,316.2954612998292,317.9961911998689,b,1.0,1.692818600218743,,,,sub-170,1.0,stroop_test,119.94635946789568,
,,,,92.0,8.0,7.0,,,,,,,,,,,,,rot,red,r,1.0,r,1.0,0.8511581998318434,,,,,,,,,,7.0,8.0,92.0,0.0,318.00337549997494,,,,,,,,,,,,,,,,,317.9965093997307,318.0952326999977,318.8868320998736,318.87891229987144,,,,,,,,,,,,,,,,,,,,,,,,,,,,,,,,,,,318.8792765000835,318.8868320998736,318.8868320998736,319.7459363997914,r,1.0,0.8511581998318434,,,,sub-170,1.0,stroop_test,119.94635946789568,
,,,,93.0,9.0,7.0,,,,,,,,,,,,,blau,red,r,0.0,r,1.0,0.9564928002655506,,,,,,,,,,7.0,9.0,93.0,4.0,319.7531302999705,,,,,,,,,,,,,,,,,319.7462364998646,319.84495380008593,320.63654220011085,320.62858519982547,,,,,,,,,,,,,,,,,,,,,,,,,,,,,,,,,,,320.63108759978786,320.63654220011085,320.63654220011085,321.595268199686,r,1.0,0.9564928002655506,,,,sub-170,1.0,stroop_test,119.94635946789568,
,,,,94.0,10.0,7.0,,,,,,,,,,,,,gelb,yellow,g,1.0,g,1.0,0.6220448003150523,,,,,,,,,,7.0,10.0,94.0,10.0,321.6029111999087,,,,,,,,,,,,,,,,,321.5955028999597,322.38610279979184,323.17780179996043,323.16990489978343,,,,,,,,,,,,,,,,,,,,,,,,,,,,,,,,,,,323.1723992996849,323.17780179996043,323.17780179996043,323.80354529991746,g,1.0,0.6220448003150523,,,,sub-170,1.0,stroop_test,119.94635946789568,
,,,,95.0,11.0,7.0,,,,,,,,,,,,,blau,blue,b,1.0,b,1.0,0.577356300316751,,,,,,,,,,7.0,11.0,95.0,6.0,323.8110030000098,,,,,,,,,,,,,,,,,323.8038690998219,324.15265440009534,324.9444185998291,324.93631860008463,,,,,,,,,,,,,,,,,,,,,,,,,,,,,,,,,,,324.94004340004176,324.9444185998291,324.9444185998291,325.52828329987824,b,1.0,0.577356300316751,,,,sub-170,1.0,stroop_test,119.94635946789568,
,,,,96.0,0.0,8.0,,,,,,,,,,,,,rot,red,r,1.0,r,1.0,0.5192592996172607,,,,,,,,,,8.0,0.0,96.0,0.0,325.53549590008333,,,,,,,,,,,,,,,,,325.52853079978377,326.3272583996877,327.11853069998324,327.1110141999088,,,,,,,,,,,,,,,,,,,,,,,,,,,,,,,,,,,327.1136227999814,327.11853069998324,327.11853069998324,327.64455639990047,r,1.0,0.5192592996172607,,,,sub-170,1.0,stroop_test,119.94635946789568,
,,,,97.0,1.0,8.0,,,,,,,,,,,,,blau,red,r,0.0,r,1.0,2.0878059999085963,,,,,,,,,,8.0,1.0,97.0,4.0,327.65204499987885,,,,,,,,,,,,,,,,,327.64482339983806,327.99325119983405,328.7851142999716,328.77738029975444,,,,,,,,,,,,,,,,,,,,,,,,,,,,,,,,,,,328.77898899978027,328.7851142999716,328.7851142999716,330.8776209000498,r,1.0,2.0878059999085963,,,,sub-170,1.0,stroop_test,119.94635946789568,
,,,,98.0,2.0,8.0,,,,,,,,,,,,,gelb,blue,b,0.0,b,1.0,1.389967099763453,,,,,,,,,,8.0,2.0,98.0,9.0,330.8848552000709,,,,,,,,,,,,,,,,,330.87790219997987,332.0761731998064,332.8678218997084,332.8599141999148,,,,,,,,,,,,,,,,,,,,,,,,,,,,,,,,,,,332.86216179979965,332.8678218997084,332.8678218997084,334.2601399999112,b,1.0,1.389967099763453,,,,sub-170,1.0,stroop_test,119.94635946789568,
,,,,99.0,3.0,8.0,,,,,,,,,,,,,rot,blue,b,0.0,b,1.0,1.0242006997577846,,,,,,,,,,8.0,3.0,99.0,2.0,334.26743080001324,,,,,,,,,,,,,,,,,334.2604200998321,335.05916750011966,335.8505533998832,335.8426303998567,,,,,,,,,,,,,,,,,,,,,,,,,,,,,,,,,,,335.84439639979973,335.8505533998832,335.8505533998832,336.8762078001164,b,1.0,1.0242006997577846,,,,sub-170,1.0,stroop_test,119.94635946789568,
,,,,100.0,4.0,8.0,,,,,,,,,,,,,blau,blue,b,1.0,b,1.0,0.6324620000086725,,,,,,,,,,8.0,4.0,100.0,6.0,336.8838164997287,,,,,,,,,,,,,,,,,336.8764355997555,338.066930399742,338.8584541999735,338.850667799823,,,,,,,,,,,,,,,,,,,,,,,,,,,,,,,,,,,338.8531839000061,338.8584541999735,338.8584541999735,339.4924880997278,b,1.0,0.6324620000086725,,,,sub-170,1.0,stroop_test,119.94635946789568,
,,,,101.0,5.0,8.0,,,,,,,,,,,,,rot,red,r,1.0,r,1.0,0.6670498000457883,,,,,,,,,,8.0,5.0,101.0,1.0,339.4999599000439,,,,,,,,,,,,,,,,,339.49273509997874,340.2916991999373,341.0831253998913,341.0752721000463,,,,,,,,,,,,,,,,,,,,,,,,,,,,,,,,,,,341.0783698000014,341.0831253998913,341.0831253998913,341.7589476997964,r,1.0,0.6670498000457883,,,,sub-170,1.0,stroop_test,119.94635946789568,
,,,,102.0,6.0,8.0,,,,,,,,,,,,,blau,blue,b,1.0,b,1.0,0.5992529997602105,,,,,,,,,,8.0,6.0,102.0,5.0,341.7661832999438,,,,,,,,,,,,,,,,,341.7592158000916,342.1080869999714,342.8993635000661,342.89178790012375,,,,,,,,,,,,,,,,,,,,,,,,,,,,,,,,,,,342.8944967999123,342.8993635000661,342.8993635000661,343.5001091999002,b,1.0,0.5992529997602105,,,,sub-170,1.0,stroop_test,119.94635946789568,
,,,,103.0,7.0,8.0,,,,,,,,,,,,,blau,yellow,g,0.0,g,1.0,0.7594658001326025,,,,,,,,,,8.0,7.0,103.0,7.0,343.507735399995,,,,,,,,,,,,,,,,,343.50036079995334,343.5910096997395,344.38268319983035,344.3746695998125,,,,,,,,,,,,,,,,,,,,,,,,,,,,,,,,,,,344.3750787000172,344.38268319983035,344.38268319983035,345.1500464999117,g,1.0,0.7594658001326025,,,,sub-170,1.0,stroop_test,119.94635946789568,
,,,,104.0,8.0,8.0,,,,,,,,,,,,,gelb,yellow,g,1.0,g,1.0,0.5233833999373019,,,,,,,,,,8.0,8.0,104.0,11.0,345.1571896998212,,,,,,,,,,,,,,,,,345.15035319980234,345.94907209975645,346.74049449991435,346.7327624000609,,,,,,,,,,,,,,,,,,,,,,,,,,,,,,,,,,,346.7349824998528,346.74049449991435,346.74049449991435,347.2663345998153,g,1.0,0.5233833999373019,,,,sub-170,1.0,stroop_test,119.94635946789568,
,,,,105.0,9.0,8.0,,,,,,,,,,,,,rot,yellow,g,0.0,g,1.0,0.6535628000274301,,,,,,,,,,8.0,9.0,105.0,3.0,347.2737056999468,,,,,,,,,,,,,,,,,347.26662349980325,347.60720389988273,348.39855360006914,348.3908080998808,,,,,,,,,,,,,,,,,,,,,,,,,,,,,,,,,,,348.3932972000912,348.39855360006914,348.39855360006914,349.057870300021,g,1.0,0.6535628000274301,,,,sub-170,1.0,stroop_test,119.94635946789568,
,,,,106.0,10.0,8.0,,,,,,,,,,,,,gelb,yellow,g,1.0,g,1.0,0.7768099997192621,,,,,,,,,,8.0,10.0,106.0,10.0,349.0650136000477,,,,,,,,,,,,,,,,,349.05815109983087,350.2567707998678,351.0483514997177,351.04040799988434,,,,,,,,,,,,,,,,,,,,,,,,,,,,,,,,,,,351.0426475000568,351.0483514997177,351.0483514997177,351.8324853000231,g,1.0,0.7768099997192621,,,,sub-170,1.0,stroop_test,119.94635946789568,
,,,,107.0,11.0,8.0,,,,,,,,,,,,,gelb,red,r,0.0,r,1.0,0.7148135998286307,,,,,,,,,,8.0,11.0,107.0,8.0,351.8398159998469,,,,,,,,,,,,,,,,,351.8327644998208,352.63129599997774,353.4227303997613,353.41506249969825,,,,,,,,,,,,,,,,,,,,,,,,,,,,,,,,,,,353.4154504998587,353.4227303997613,353.4227303997613,354.14034290006384,r,1.0,0.7148135998286307,,,,sub-170,1.0,stroop_test,119.94635946789568,
,,,,108.0,0.0,9.0,,,,,,,,,,,,,blau,blue,b,1.0,b,1.0,0.5430459002964199,,,,,,,,,,9.0,0.0,108.0,6.0,354.14776099985465,,,,,,,,,,,,,,,,,354.1406244998798,354.2394415996969,355.0308372997679,355.023226399906,,,,,,,,,,,,,,,,,,,,,,,,,,,,,,,,,,,355.0259011001326,355.0308372997679,355.0308372997679,355.5819147997536,b,1.0,0.5430459002964199,,,,sub-170,1.0,stroop_test,119.94635946789568,
,,,,109.0,1.0,9.0,,,,,,,,,,,,,blau,red,r,0.0,r,1.0,1.2137648998759687,,,,,,,,,,9.0,1.0,109.0,4.0,355.5890011000447,,,,,,,,,,,,,,,,,355.5822156998329,355.6807633000426,356.4724030001089,356.46465480001643,,,,,,,,,,,,,,,,,,,,,,,,,,,,,,,,,,,356.46509149996564,356.4724030001089,356.4724030001089,357.68953799968585,r,1.0,1.2137648998759687,,,,sub-170,1.0,stroop_test,119.94635946789568,
,,,,110.0,2.0,9.0,,,,,,,,,,,,,gelb,blue,b,0.0,b,1.0,0.6441105999983847,,,,,,,,,,9.0,2.0,110.0,9.0,357.69711389997974,,,,,,,,,,,,,,,,,357.6898169000633,358.48872559983283,359.28038220014423,359.2723825997673,,,,,,,,,,,,,,,,,,,,,,,,,,,,,,,,,,,359.27483189990744,359.28038220014423,359.28038220014423,359.9311123001389,b,1.0,0.6441105999983847,,,,sub-170,1.0,stroop_test,119.94635946789568,
,,,,111.0,3.0,9.0,,,,,,,,,,,,,blau,blue,b,1.0,b,1.0,0.4138383003883064,,,,,,,,,,9.0,3.0,111.0,5.0,359.9384379000403,,,,,,,,,,,,,,,,,359.9313714997843,360.7300420999527,361.5214547999203,361.513678799849,,,,,,,,,,,,,,,,,,,,,,,,,,,,,,,,,,,361.5164736998268,361.5214547999203,361.5214547999203,361.9389042998664,b,1.0,0.4138383003883064,,,,sub-170,1.0,stroop_test,119.94635946789568,
,,,,112.0,4.0,9.0,,,,,,,,,,,,,gelb,red,r,0.0,r,1.0,1.766598000191152,,,,,,,,,,9.0,4.0,112.0,8.0,361.9466093000956,,,,,,,,,,,,,,,,,361.9391331998632,363.1378425001167,363.92954930011183,363.9216358996928,,,,,,,,,,,,,,,,,,,,,,,,,,,,,,,,,,,363.9239161997102,363.92954930011183,363.92954930011183,365.6971618998796,r,1.0,1.766598000191152,,,,sub-170,1.0,stroop_test,119.94635946789568,
,,,,113.0,5.0,9.0,,,,,,,,,,,,,gelb,yellow,g,1.0,g,1.0,0.5147766000591218,,,,,,,,,,9.0,5.0,113.0,10.0,365.7042104001157,,,,,,,,,,,,,,,,,365.6974407001399,366.8956916998141,367.6871560998261,367.6794380000792,,,,,,,,,,,,,,,,,,,,,,,,,,,,,,,,,,,367.6798239001073,367.6871560998261,367.6871560998261,368.2046848000027,g,1.0,0.5147766000591218,,,,sub-170,1.0,stroop_test,119.94635946789568,
,,,,114.0,6.0,9.0,,,,,,,,,,,,,rot,yellow,g,0.0,g,1.0,1.167495199944824,,,,,,,,,,9.0,6.0,114.0,3.0,368.2119952999056,,,,,,,,,,,,,,,,,368.2049207999371,369.4036408998072,370.1952414000407,370.1874592998065,,,,,,,,,,,,,,,,,,,,,,,,,,,,,,,,,,,370.1901885997504,370.1952414000407,370.1952414000407,371.3708353000693,g,1.0,1.167495199944824,,,,sub-170,1.0,stroop_test,119.94635946789568,
,,,,115.0,7.0,9.0,,,,,,,,,,,,,gelb,yellow,g,1.0,g,1.0,0.5128689999692142,,,,,,,,,,9.0,7.0,115.0,11.0,371.3780992999673,,,,,,,,,,,,,,,,,371.3711323998869,372.56973160011694,373.3613823996857,373.3534784996882,,,,,,,,,,,,,,,,,,,,,,,,,,,,,,,,,,,373.3558192998171,373.3613823996857,373.3613823996857,373.8789349999279,g,1.0,0.5128689999692142,,,,sub-170,1.0,stroop_test,119.94635946789568,
,,,,116.0,8.0,9.0,,,,,,,,,,,,,rot,red,r,1.0,r,1.0,0.6071410998702049,,,,,,,,,,9.0,8.0,116.0,0.0,373.8861356000416,,,,,,,,,,,,,,,,,373.87922200001776,374.6776016000658,375.4690728997812,375.4613728998229,,,,,,,,,,,,,,,,,,,,,,,,,,,,,,,,,,,375.4640882001258,375.4690728997812,375.4690728997812,376.07904169987887,r,1.0,0.6071410998702049,,,,sub-170,1.0,stroop_test,119.94635946789568,
,,,,117.0,9.0,9.0,,,,,,,,,,,,,rot,blue,b,0.0,b,1.0,0.9075291999615728,,,,,,,,,,9.0,9.0,117.0,2.0,376.08593189995736,,,,,,,,,,,,,,,,,376.0794715001248,376.1776177999564,376.9689365997911,376.9611765998416,,,,,,,,,,,,,,,,,,,,,,,,,,,,,,,,,,,376.9615787998773,376.9689365997911,376.9689365997911,377.8778033000417,b,1.0,0.9075291999615728,,,,sub-170,1.0,stroop_test,119.94635946789568,
,,,,118.0,10.0,9.0,,,,,,,,,,,,,blau,yellow,g,0.0,g,1.0,1.0376423001289368,,,,,,,,,,9.0,10.0,118.0,7.0,377.8855960997753,,,,,,,,,,,,,,,,,377.8780426001176,378.6686549996957,379.46047890000045,379.4524125996977,,,,,,,,,,,,,,,,,,,,,,,,,,,,,,,,,,,379.45568390004337,379.46047890000045,379.46047890000045,380.50284590013325,g,1.0,1.0376423001289368,,,,sub-170,1.0,stroop_test,119.94635946789568,
,,,,119.0,11.0,9.0,,,,,,,,,,,,,rot,red,r,1.0,r,1.0,0.7493239999748766,,,,,,,,,,9.0,11.0,119.0,1.0,380.51015949994326,,,,,,,,,,,,,,,,,380.503105300013,380.601622399874,381.3930252999999,381.38549329992384,,,,,,,,,,,,,,,,,,,,,,,,,,,,,,,,,,,381.3880090001039,381.3930252999999,381.3930252999999,382.1441906997934,r,1.0,0.7493239999748766,,,,sub-170,1.0,stroop_test,119.94635946789568,
,,,,,,,,,,,,,,,,,,,,,,,,,,,,,,,,,,,,,,,,,,,,,,,,,,,,,,,,,,,,,,,,,,,,,,,,,,,,,,,,,,,,,,,,,,,,,,,,,,,,,,382.1443225000985,382.15161499986425,sub-170,,,,
