direction,corrAns,randomInstr,practice_trials.thisRepN,practice_trials.thisTrialN,practice_trials.thisN,practice_trials.thisIndex,instr_trials.thisRepN,instr_trials.thisTrialN,instr_trials.thisN,instr_trials.thisIndex,test_trials.thisRepN,test_trials.thisTrialN,test_trials.thisN,test_trials.thisIndex,thisRow.t,notes,general_instruction.started,textGeneralInstr.started,respGeneralInstr.started,general_instruction.stopped,respGeneralInstr.keys,respGeneralInstr.rt,respGeneralInstr.duration,ITI.started,fixcross.started,fixcross.stopped,ITI.stopped,dots.started,backgroundDots.started,stimulusDots.started,respDots.started,dots.stopped,respDots.keys,respDots.corr,respDots.rt,respDots.duration,feedback.started,textFeedback.started,feedback.stopped,textFeedback.stopped,info.started,textInfo.started,keyRespInfo.started,info.stopped,keyRespInfo.keys,keyRespInfo.rt,keyRespInfo.duration,test_instruction.started,textTestInstr.started,respTestInstr.started,test_instruction.stopped,respTestInstr.keys,respTestInstr.rt,respTestInstr.duration,random_instruction.started,textRandomInstr.started,respRandomInstr.started,random_instruction.stopped,respRandomInstr.keys,respRandomInstr.rt,respRandomInstr.duration,stimulusDots.stopped,goodbye.started,textGoodbye.started,goodbye.stopped,participant,session,expName,frameRate,Unnamed: 73
,,,,,,,,,,,,,,,,,0.01259180001216,0.1326973000250291,0.1326973000250291,28.945735200017225,space,62.81901690000086,,,,,,,,,,,,,,,,,,,,,,,,,,,,,,,,,,,,,,,,,,,,sub-235,1.0,random_dot,119.9705352356494,
right,right,,0.0,0.0,0.0,1.0,,,,,,,,,28.966792000021087,,,,,,,,,28.960388300009072,29.75192150002113,30.563103899999987,30.551792000012934,30.55180700001074,30.563103899999987,30.563103899999987,30.563103899999987,34.068177300010575,right,1.0,37.50592789996881,,34.069174300006125,34.08267850000993,34.57475390000036,,,,,,,,,,,,,,,,,,,,,,,,,,,sub-235,1.0,random_dot,119.9705352356494,
left,left,,0.0,1.0,1.0,0.0,,,,,,,,,34.583004000014625,,,,,,,,,34.5750886000169,35.37461520000943,36.18432220001705,36.17493580002338,36.174949900014326,36.18432220001705,36.18432220001705,36.18432220001705,38.38461550002103,left,1.0,36.20592019998003,,38.38506040000357,38.39080710001872,38.8835001999978,38.89040709999972,,,,,,,,,,,,,,,,,,,,,,,,,,sub-235,1.0,random_dot,119.9705352356494,
left,left,,1.0,0.0,2.0,0.0,,,,,,,,,38.89040709999972,,,,,,,,,38.884233500022674,38.99050600000192,39.79926400000113,39.79044830001658,39.7904661000066,39.79926400000113,39.79926400000113,39.79926400000113,41.64133920002496,left,1.0,35.84777439996833,,41.641765900014434,41.64800440002,42.14766539999982,,,,,,,,,,,,,,,,,,,,,,,,,,,sub-235,1.0,random_dot,119.9705352356494,
right,right,,1.0,1.0,3.0,1.0,,,,,,,,,42.155818900006125,,,,,,,,,42.1479881000123,42.24747319999733,43.0566519999993,43.04789220000384,43.04790800000774,43.0566519999993,43.0566519999993,43.0566519999993,44.390460900001926,right,1.0,35.33415639997111,,44.39087910001399,44.39727420001873,44.890150100021856,44.8969607000181,,,,,,,,,,,,,,,,,,,,,,,,,,sub-235,1.0,random_dot,119.9705352356494,
right,right,,2.0,0.0,4.0,1.0,,,,,,,,,44.8969607000181,,,,,,,,,44.89090410000063,46.096970200014766,46.90574660000857,46.89679230001639,46.8968083000218,46.90574660000857,46.90574660000857,46.90574660000857,50.52257400000235,right,1.0,37.61669839997194,,50.52334810001776,50.52880390000064,51.02131030001328,51.02861710000434,,,,,,,,,,,,,,,,,,,,,,,,,,sub-235,1.0,random_dot,119.9705352356494,
left,left,,2.0,1.0,5.0,0.0,,,,,,,,,51.02861710000434,,,,,,,,,51.02174399999785,52.22825610000291,53.03704490000382,53.02828460000456,53.02830380000523,53.03704490000382,53.03704490000382,53.03704490000382,55.39631160002318,left,1.0,36.36594669995248,,55.39684460000717,55.4025959999999,55.90231070001028,,,,,,,,,,,,,,,,,,,,,,,,,,,sub-235,1.0,random_dot,119.9705352356494,
left,left,,3.0,0.0,6.0,0.0,,,,,,,,,55.91101740000886,,,,,,,,,55.90269790001912,56.70237169999746,57.51091520002228,57.50255580001976,57.50256970000919,57.51091520002228,57.51091520002228,57.51091520002228,60.86098379999749,right,0.0,37.35150279998197,,60.861526100023184,60.872836700000335,61.36736130001373,,,,,,,,,,,,,,,,,,,,,,,,,,,sub-235,1.0,random_dot,119.9705352356494,
right,right,,3.0,1.0,7.0,1.0,,,,,,,,,61.37550410002586,,,,,,,,,61.367814199998975,61.717199700011406,62.52634690000559,62.517644400009885,62.51766150002368,62.52634690000559,62.52634690000559,62.52634690000559,65.41006860000198,right,1.0,36.889447899971856,,65.41057300000102,65.41885280000861,65.91642790002516,,,,,,,,,,,,,,,,,,,,,,,,,,,sub-235,1.0,random_dot,119.9705352356494,
right,right,,4.0,0.0,8.0,1.0,,,,,,,,,65.92453560000286,,,,,,,,,65.91690640000161,66.26610629999777,67.07494050002424,67.0669087000133,67.06693710002583,67.07494050002424,67.07494050002424,67.07494050002424,69.0838413000165,left,0.0,36.008678199956194,,69.08432800002629,69.0912308000261,69.59007440001005,,,,,,,,,,,,,,,,,,,,,,,,,,,sub-235,1.0,random_dot,119.9705352356494,
left,left,,4.0,1.0,9.0,0.0,,,,,,,,,69.59827270000824,,,,,,,,,69.59042469999986,69.94010860001436,70.75023940001847,70.7412905000092,70.74132840000675,70.75023940001847,70.75023940001847,70.75023940001847,73.22073640002054,right,0.0,36.47552329997416,,73.22145219999948,73.2289596000046,73.72237540001515,,,,,,,,,,,,,,,,,,,,,,,,,,,sub-235,1.0,random_dot,119.9705352356494,
right,right,,5.0,0.0,10.0,1.0,,,,,,,,,73.73055140001816,,,,,,,,,73.72285370001919,74.07239890002529,74.88112880001427,74.87235580000561,74.87237510000705,74.88112880001427,74.88112880001427,74.88112880001427,78.75628170001437,left,0.0,37.87748629998532,,78.7569199000136,78.76266460001352,79.26257610000903,,,,,,,,,,,,,,,,,,,,,,,,,,,sub-235,1.0,random_dot,119.9705352356494,
left,left,,5.0,1.0,11.0,0.0,,,,,,,,,79.27069920001668,,,,,,,,,79.26296829999774,79.61227840001811,80.42149230002542,80.41250170001877,80.41252140002325,80.42149230002542,80.42149230002542,80.42149230002542,82.07257390001905,right,0.0,35.65665409996291,,82.07322330001625,82.07891410001321,82.5782580000232,,,,,,,,,,,,,,,,,,,,,,,,,,,sub-235,1.0,random_dot,119.9705352356494,
left,left,,6.0,0.0,12.0,0.0,,,,,,,,,82.58637040000758,,,,,,,,,82.57872850002605,82.67815940000582,83.48710410000058,83.47837240001536,83.47839190001832,83.48710410000058,83.48710410000058,83.48710410000058,84.8143654000014,right,0.0,35.3281619999907,,84.81608600000618,84.82571630002349,85.31907440000214,,,,,,,,,,,,,,,,,,,,,,,,,,,sub-235,1.0,random_dot,119.9705352356494,
right,right,,6.0,1.0,13.0,1.0,,,,,,,,,85.32734970000456,,,,,,,,,85.31943780000438,86.11924830000498,86.92809470000793,86.91929119999986,86.91930720000528,86.92809470000793,86.92809470000793,86.92809470000793,88.65366310000536,right,1.0,35.73243519998505,,88.65425190000678,88.66269870000542,89.15965240000514,,,,,,,,,,,,,,,,,,,,,,,,,,,sub-235,1.0,random_dot,119.9705352356494,
left,left,,7.0,0.0,14.0,0.0,,,,,,,,,89.16783660001238,,,,,,,,,89.16000550001627,89.50945949999732,90.31469810000272,90.30285290000027,90.30290300000344,90.31469810000272,90.31469810000272,90.31469810000272,93.1296009000216,left,1.0,36.808594399975846,,93.13164710000274,93.14127040002496,93.63403440002004,,,,,,,,,,,,,,,,,,,,,,,,,,,sub-235,1.0,random_dot,119.9705352356494,
right,right,,7.0,1.0,15.0,1.0,,,,,,,,,93.64217320000172,,,,,,,,,93.635331700003,93.98371100000804,94.79284619999817,94.78398980002385,94.78400430001784,94.79284619999817,94.79284619999817,94.79284619999817,97.14501100001507,left,0.0,36.355984499969054,,97.14664810002432,97.1598656999995,97.64949290000368,,,,,,,,,,,,,,,,,,,,,,,,,,,sub-235,1.0,random_dot,119.9705352356494,
left,left,,8.0,0.0,16.0,0.0,,,,,,,,,97.65763200001676,,,,,,,,,97.64982690001489,98.84919120001724,99.65768420000676,99.64895940001588,99.64897580002436,99.65768420000676,99.65768420000676,99.65768420000676,102.2516178000078,right,0.0,36.592775199969765,,102.25359830001253,102.262546700018,102.75633460000972,,,,,,,,,,,,,,,,,,,,,,,,,,,sub-235,1.0,random_dot,119.9705352356494,
right,right,,8.0,1.0,17.0,1.0,,,,,,,,,102.76466159999836,,,,,,,,,102.75665330002084,103.55589119999786,104.3649751000048,104.35644100001082,104.35645640001168,104.3649751000048,104.3649751000048,104.3649751000048,106.70656900000176,left,0.0,36.34805459997733,,106.70698480002466,106.71305670001313,107.2055881000124,107.21303930002614,,,,,,,,,,,,,,,,,,,,,,,,,,sub-235,1.0,random_dot,119.9705352356494,
left,left,,9.0,0.0,18.0,0.0,,,,,,,,,107.21303930002614,,,,,,,,,107.2059006000054,108.41309529999852,109.22174060001272,109.21349130000452,109.21350969999912,109.22174060001272,109.22174060001272,109.22174060001272,110.25592220001272,right,0.0,35.034543699992355,,110.25638730000357,110.26224770001136,110.76207650001744,,,,,,,,,,,,,,,,,,,,,,,,,,,sub-235,1.0,random_dot,119.9705352356494,
right,right,,9.0,1.0,19.0,1.0,,,,,,,,,110.7708844000008,,,,,,,,,110.76239380001788,111.11205560000964,111.92139110001152,111.91267460002564,111.91269470000408,111.92139110001152,111.92139110001152,111.92139110001152,113.11345440000878,right,1.0,35.19336729997303,,113.1138445000106,113.12052330002189,113.6195282000117,,,,,,,,,,,,,,,,,,,,,,,,,,,sub-235,1.0,random_dot,119.9705352356494,
,,,,,,,,,,,,,,,,,,,,,,,,,,,,,,,,,,,,,,,,,113.61958009999944,113.62790770002177,113.62790770002177,118.78363000001993,space,39.1562023999868,,,,,,,,,,,,,,,,,,,,sub-235,1.0,random_dot,119.9705352356494,
,,,,,,,,,,,,,,,,,,,,,,,,,,,,,,,,,,,,,,,,,,,,,,,,118.78369820001537,118.7930787000223,118.7930787000223,126.809233100008,space,42.02202419997775,,,,,,,,,,,,,sub-235,1.0,random_dot,119.9705352356494,
left,left,accuracy,,,,,0.0,0.0,0.0,0.0,0.0,0.0,0.0,0.0,130.1013485000003,,,,,,,,,130.09775909999735,130.19828150002286,130.99943710002117,130.99085280002328,130.9908737000078,130.99943710002117,130.99943710002117,130.99943710002117,133.10042990001966,right,0.0,36.10803649999434,,,,,,,,,,,,,,,,,,,,126.81331650001812,126.83610080002109,126.83610080002109,130.09143320002477,space,37.25730129997828,,,,,,sub-235,1.0,random_dot,119.9705352356494,
right,right,accuracy,,,,,0.0,0.0,0.0,0.0,0.0,1.0,1.0,1.0,133.10621630001697,,,,,,,,,133.10157100000652,133.90599950001342,134.71448350002174,134.7056623000244,134.70567980001215,134.71448350002174,134.71448350002174,134.71448350002174,137.94856950000394,right,1.0,37.23541439996916,,,,,,,,,,,,,,,,,,,,,,,,,,,,,,,sub-235,1.0,random_dot,119.9705352356494,
right,right,accuracy,,,,,0.0,0.0,0.0,0.0,1.0,0.0,2.0,1.0,137.95438150002155,,,,,,,,,137.94949230001657,138.7545052000205,139.5637947000214,139.5555646000139,139.55561640000087,139.5637947000214,139.5637947000214,139.5637947000214,142.36322040000232,left,0.0,36.80002669998794,,,,,,,,,,,,,,,,,,,,,,,,,,,,,,,sub-235,1.0,random_dot,119.9705352356494,
left,left,accuracy,,,,,0.0,0.0,0.0,0.0,1.0,1.0,3.0,0.0,142.36972110002534,,,,,,,,,142.36416060000192,143.57020529999863,144.37893430000986,144.37055490000057,144.37057350002578,144.37893430000986,144.37893430000986,144.37893430000986,149.24508000002243,right,0.0,38.8712670999812,,,,,,,,,,,,,,,,,,,,,,,,,,,,,,,sub-235,1.0,random_dot,119.9705352356494,
left,left,accuracy,,,,,0.0,0.0,0.0,0.0,2.0,0.0,4.0,0.0,149.25120690002225,,,,,,,,,149.24596480000764,150.450912100001,151.252218300011,151.24361040000804,151.2436377000122,151.252218300011,151.252218300011,151.252218300011,156.32651070001884,right,0.0,39.08005180000328,,,,,,,,,,,,,,,,,,,,,,,,,,,156.25039320002543,,,,sub-235,1.0,random_dot,119.9705352356494,
right,right,accuracy,,,,,0.0,0.0,0.0,0.0,2.0,1.0,5.0,1.0,156.33300650000456,,,,,,,,,156.32729230000405,157.53275520002353,158.34618439999758,158.33394060001592,158.33402660000138,158.34618439999758,158.34618439999758,158.34618439999758,159.1927827000036,left,0.0,34.85358109997469,,,,,,,,,,,,,,,,,,,,,,,,,,,,,,,sub-235,1.0,random_dot,119.9705352356494,
left,left,accuracy,,,,,0.0,0.0,0.0,0.0,3.0,0.0,6.0,0.0,159.19854460001807,,,,,,,,,159.1935418000212,159.29902150001726,160.10763240000233,160.0987941000203,160.0988101999974,160.10763240000233,160.10763240000233,160.10763240000233,161.30804530001478,left,1.0,35.20303989996319,,,,,,,,,,,,,,,,,,,,,,,,,,,,,,,sub-235,1.0,random_dot,119.9705352356494,
right,right,accuracy,,,,,0.0,0.0,0.0,0.0,3.0,1.0,7.0,1.0,161.31449099999736,,,,,,,,,161.30886270001065,162.51486710002064,163.32364330001292,163.31459510000423,163.31461140001193,163.32364330001292,163.32364330001292,163.32364330001292,165.83188240000163,right,1.0,36.509718299959786,,,,,,,,,,,,,,,,,,,,,,,,,,,,,,,sub-235,1.0,random_dot,119.9705352356494,
left,left,accuracy,,,,,0.0,0.0,0.0,0.0,4.0,0.0,8.0,0.0,165.8386940000055,,,,,,,,,165.8327127000084,166.63836360001005,167.44713300000876,167.4385147000139,167.4385367000068,167.44713300000876,167.44713300000876,167.44713300000876,169.95478840000578,left,1.0,36.510470899957,,,,,,,,,,,,,,,,,,,,,,,,,,,,,,,sub-235,1.0,random_dot,119.9705352356494,
right,right,accuracy,,,,,0.0,0.0,0.0,0.0,4.0,1.0,9.0,1.0,169.96128300001146,,,,,,,,,169.9564323000086,171.16200930002378,171.96347550000064,171.95541610001237,171.95545670000138,171.96347550000064,171.96347550000064,171.96347550000064,173.5799251999997,left,0.0,35.62247489995207,,,,,,,,,,,,,,,,,,,,,,,,,,,,,,,sub-235,1.0,random_dot,119.9705352356494,
right,right,accuracy,,,,,0.0,0.0,0.0,0.0,5.0,0.0,10.0,1.0,173.58669500000542,,,,,,,,,173.58073640000657,173.9364320000168,174.74551920001977,174.73692870000377,174.73694300002535,174.74551920001977,174.74551920001977,174.74551920001977,175.27111290002358,right,1.0,34.530942799989134,,,,,,,,,,,,,,,,,,,,,,,,,,,,,,,sub-235,1.0,random_dot,119.9705352356494,
left,left,accuracy,,,,,0.0,0.0,0.0,0.0,5.0,1.0,11.0,0.0,175.2774849999987,,,,,,,,,175.27196420001565,175.37794760000543,176.18651520001004,176.17762680002488,176.17764160002116,176.18651520001004,176.18651520001004,176.18651520001004,176.7375581000233,left,1.0,34.55504209999344,,,,,,,,,,,,,,,,,,,,,,,,,,,,,,,sub-235,1.0,random_dot,119.9705352356494,
left,left,accuracy,,,,,0.0,0.0,0.0,0.0,6.0,0.0,12.0,0.0,176.7436211000022,,,,,,,,,176.7384375000256,177.09354840000742,177.89443020001636,177.88601030001882,177.88603380002314,177.89443020001636,177.89443020001636,177.89443020001636,179.349541100004,left,1.0,35.46013059996767,,,,,,,,,,,,,,,,,,,,,,,,,,,,,,,sub-235,1.0,random_dot,119.9705352356494,
right,right,accuracy,,,,,0.0,0.0,0.0,0.0,6.0,1.0,13.0,1.0,179.35819220001576,,,,,,,,,179.3517560000182,180.5510461000085,181.36052550000025,181.35211840001284,181.3521508999984,181.36052550000025,181.36052550000025,181.36052550000025,185.53641580001567,left,0.0,38.16744719998678,,,,,,,,,,,,,,,,,,,,,,,,,,,,,,,sub-235,1.0,random_dot,119.9705352356494,
left,left,accuracy,,,,,0.0,0.0,0.0,0.0,7.0,0.0,14.0,0.0,185.54330340001616,,,,,,,,,185.5387996000063,185.64172370001324,186.45472639999932,186.4428709000058,186.4429204000044,186.45472639999932,186.45472639999932,186.45472639999932,190.39157960002197,right,0.0,37.93733739998424,,,,,,,,,,,,,,,,,,,,,,,,,,,,,,,sub-235,1.0,random_dot,119.9705352356494,
right,right,accuracy,,,,,0.0,0.0,0.0,0.0,7.0,1.0,15.0,1.0,190.398216600006,,,,,,,,,190.39258090002116,191.19837200001348,192.00774660002207,191.99923070002117,191.99924570001892,192.00774660002207,192.00774660002207,192.00774660002207,192.6831240000029,left,0.0,34.676376199990045,,,,,,,,,,,,,,,,,,,,,,,,,,,,,,,sub-235,1.0,random_dot,119.9705352356494,
right,right,accuracy,,,,,0.0,0.0,0.0,0.0,8.0,0.0,16.0,1.0,192.68943740002575,,,,,,,,,192.68391800002428,193.88906700001095,194.6980832000263,194.6900569999998,194.6900852000108,194.6980832000263,194.6980832000263,194.6980832000263,195.6333638000069,right,1.0,34.93629649997456,,,,,,,,,,,,,,,,,,,,,,,,,,,,,,,sub-235,1.0,random_dot,119.9705352356494,
left,left,accuracy,,,,,0.0,0.0,0.0,0.0,8.0,1.0,17.0,0.0,195.63866419999977,,,,,,,,,195.63432260000263,196.4387999000028,197.25017430001756,197.24116770000543,197.2412046000245,197.25017430001756,197.25017430001756,197.25017430001756,198.5980228999979,left,1.0,35.348666299978504,,,,,,,,,,,,,,,,,,,,,,,,,,,,,,,sub-235,1.0,random_dot,119.9705352356494,
right,right,accuracy,,,,,0.0,0.0,0.0,0.0,9.0,0.0,18.0,1.0,198.60474650000103,,,,,,,,,198.59878930001287,199.40426390001085,200.21365610000797,200.20444870000935,200.2044735000236,200.21365610000797,200.21365610000797,200.21365610000797,201.09707730001537,left,0.0,34.88750519999303,,,,,,,,,,,,,,,,,,,,,,,,,,,,,,,sub-235,1.0,random_dot,119.9705352356494,
left,left,accuracy,,,,,0.0,0.0,0.0,0.0,9.0,1.0,19.0,0.0,201.1042307000025,,,,,,,,,201.09784090000903,201.4539850000001,202.26269350000075,202.254370700015,202.25438550001127,202.26269350000075,202.26269350000075,202.26269350000075,203.6548055000021,left,1.0,35.39294919997337,,,,,,,,,,,,,,,,,,,,,,,,,,,,,,,sub-235,1.0,random_dot,119.9705352356494,
right,right,accuracy,,,,,0.0,0.0,0.0,0.0,10.0,0.0,20.0,1.0,203.66125699999972,,,,,,,,,203.6556071000232,204.01196990002063,204.82074930000817,204.81156570001625,204.8115811000171,204.82074930000817,204.82074930000817,204.82074930000817,205.6384771000012,right,1.0,34.82479099999182,,,,,,,,,,,,,,,,,,,,,,,,,,,,,,,sub-235,1.0,random_dot,119.9705352356494,
left,left,accuracy,,,,,0.0,0.0,0.0,0.0,10.0,1.0,21.0,0.0,205.64398210000945,,,,,,,,,205.63995710000745,205.99403630002053,206.80338450000272,206.7941066000203,206.79412210002192,206.80338450000272,206.80338450000272,206.80338450000272,207.87067679999743,right,0.0,35.071598299982725,,,,,,,,,,,,,,,,,,,,,,,,,,,,,,,sub-235,1.0,random_dot,119.9705352356494,
right,right,accuracy,,,,,0.0,0.0,0.0,0.0,11.0,0.0,22.0,1.0,207.8766174000048,,,,,,,,,207.8714949999994,208.67705970001407,209.4897473000165,209.4781777000171,209.47830590000376,209.4897473000165,209.4897473000165,209.4897473000165,210.56232730002372,right,1.0,35.07958009999129,,,,,,,,,,,,,,,,,,,,,,,,,,,,,,,sub-235,1.0,random_dot,119.9705352356494,
left,left,accuracy,,,,,0.0,0.0,0.0,0.0,11.0,1.0,23.0,0.0,210.56883870001184,,,,,,,,,210.56439660000612,210.6675807000138,211.47688600001857,211.46827400001348,211.46830000000773,211.47688600001857,211.47688600001857,211.47688600001857,212.8193384000042,right,0.0,35.34428689998458,,,,,,,,,,,,,,,,,,,,,,,,,,,,,,,sub-235,1.0,random_dot,119.9705352356494,
right,right,accuracy,,,,,0.0,0.0,0.0,0.0,12.0,0.0,24.0,1.0,212.8254469000094,,,,,,,,,212.8204654000001,213.1752762000251,213.9763972000219,213.967629700026,213.96764899999835,213.9763972000219,213.9763972000219,213.9763972000219,215.126782700012,left,0.0,35.15704179997556,,,,,,,,,,,,,,,,,,,,,,,,,,,,,,,sub-235,1.0,random_dot,119.9705352356494,
left,left,accuracy,,,,,0.0,0.0,0.0,0.0,12.0,1.0,25.0,0.0,215.1331223000016,,,,,,,,,215.1276884000108,215.93271610001105,216.73356970000896,216.72558800000115,216.7256030999997,216.73356970000896,216.73356970000896,216.73356970000896,217.12664930001483,left,1.0,34.39375849996577,,,,,,,,,,,,,,,,,,,,,,,,,,,,,,,sub-235,1.0,random_dot,119.9705352356494,
right,right,accuracy,,,,,0.0,0.0,0.0,0.0,13.0,0.0,26.0,1.0,217.1324091000133,,,,,,,,,217.1274772000033,217.4826419000165,218.291978400026,218.2833234000136,218.2833518000261,218.291978400026,218.291978400026,218.291978400026,219.4590194000048,right,1.0,35.17073389995494,,,,,,,,,,,,,,,,,,,,,,,,,,,,,,,sub-235,1.0,random_dot,119.9705352356494,
left,left,accuracy,,,,,0.0,0.0,0.0,0.0,13.0,1.0,27.0,0.0,219.465165600006,,,,,,,,,219.4598207000236,219.81529340002453,220.61625410002307,220.60832450000453,220.6083401000069,220.61625410002307,220.61625410002307,220.61625410002307,221.4922659000149,left,1.0,34.88034019997576,,,,,,,,,,,,,,,,,,,,,,,,,,,,,,,sub-235,1.0,random_dot,119.9705352356494,
right,right,accuracy,,,,,0.0,0.0,0.0,0.0,14.0,0.0,28.0,1.0,221.49822810001208,,,,,,,,,221.49302670001637,222.69793870000285,223.5067225000239,223.49864550001803,223.49866510002173,223.5067225000239,223.5067225000239,223.5067225000239,224.86588360002497,right,1.0,35.36263239997788,,,,,,,,,,,,,,,,,,,,,,,,,,,,,,,sub-235,1.0,random_dot,119.9705352356494,
left,left,accuracy,,,,,0.0,0.0,0.0,0.0,14.0,1.0,29.0,0.0,224.87208170001395,,,,,,,,,224.8666524,226.0716400000092,226.880917100003,226.872571600019,226.87258590001147,226.880917100003,226.880917100003,226.880917100003,227.77391830002307,right,0.0,34.895227199973306,,,,,,,,,,,,,,,,,,,,,,,,,,,,,,,sub-235,1.0,random_dot,119.9705352356494,
left,left,accuracy,,,,,0.0,0.0,0.0,0.0,15.0,0.0,30.0,0.0,227.7801490999991,,,,,,,,,227.77623810002115,227.87954419999733,228.6886388999992,228.68005840000117,228.680085,228.6886388999992,228.6886388999992,228.6886388999992,230.3642346000124,right,0.0,35.68172119997325,,,,,,,,,,,,,,,,,,,,,,,,,,,,,,,sub-235,1.0,random_dot,119.9705352356494,
right,right,accuracy,,,,,0.0,0.0,0.0,0.0,15.0,1.0,31.0,1.0,230.37088200001745,,,,,,,,,230.365113900014,231.17030230001544,231.9712335000222,231.96260930001156,231.9626246000116,231.9712335000222,231.9712335000222,231.9712335000222,233.03070880001175,left,0.0,35.063505799975246,,,,,,,,,,,,,,,,,,,,,,,,,,,,,,,sub-235,1.0,random_dot,119.9705352356494,
right,right,accuracy,,,,,0.0,0.0,0.0,0.0,16.0,0.0,32.0,1.0,233.0365961000207,,,,,,,,,233.03153090001436,234.2360576000065,235.03693410000412,235.028686900012,235.0287045000005,235.03693410000412,235.03693410000412,235.03693410000412,235.7635797999974,right,1.0,34.73030189998099,,,,,,,,,,,,,,,,,,,,,,,,,,,,,,,sub-235,1.0,random_dot,119.9705352356494,
left,left,accuracy,,,,,0.0,0.0,0.0,0.0,16.0,1.0,33.0,0.0,235.7690943000198,,,,,,,,,235.7643464000139,236.96930690002048,237.7777499000076,237.76934400000027,237.76935960000264,237.7777499000076,237.7777499000076,237.7777499000076,238.520198800019,left,1.0,34.74912439996842,,,,,,,,,,,,,,,,,,,,,,,,,,,,,,,sub-235,1.0,random_dot,119.9705352356494,
left,left,accuracy,,,,,0.0,0.0,0.0,0.0,17.0,0.0,34.0,0.0,238.52670020001824,,,,,,,,,238.52098719999776,239.32636480001383,240.12734160001853,240.11919430000123,240.1192428000213,240.12734160001853,240.12734160001853,240.12734160001853,240.93650640000124,right,0.0,34.812086699996144,,,,,,,,,,,,,,,,,,,,,,,,,,,,,,,sub-235,1.0,random_dot,119.9705352356494,
right,right,accuracy,,,,,0.0,0.0,0.0,0.0,17.0,1.0,35.0,1.0,240.94314040002064,,,,,,,,,240.93730060002417,241.04254510000465,241.85551940000727,241.84429610002556,241.844350600004,241.85551940000727,241.85551940000727,241.85551940000727,243.3522802000225,right,1.0,35.49769529997138,,,,,,,,,,,,,,,,,,,,,,,,,,,,,,,sub-235,1.0,random_dot,119.9705352356494,
left,left,accuracy,,,,,0.0,0.0,0.0,0.0,18.0,0.0,36.0,0.0,243.35921220001185,,,,,,,,,243.35310360000585,244.55820700002369,245.3592035000038,245.35146100001293,245.3515030000126,245.3592035000038,245.3592035000038,245.3592035000038,246.4852319000056,right,0.0,35.13327369999024,,,,,,,,,,,,,,,,,,,,,,,,,,,,,,,sub-235,1.0,random_dot,119.9705352356494,
right,right,accuracy,,,,,0.0,0.0,0.0,0.0,18.0,1.0,37.0,1.0,246.49103760000435,,,,,,,,,246.486103400006,246.84110900000087,247.6501655000029,247.64104710001263,247.64106049999828,247.6501655000029,247.6501655000029,247.6501655000029,248.20953560000635,right,1.0,34.56433089997154,,,,,,,,,,,,,,,,,,,,,,,,,,,,,,,sub-235,1.0,random_dot,119.9705352356494,
left,left,accuracy,,,,,0.0,0.0,0.0,0.0,19.0,0.0,38.0,0.0,248.2156292000145,,,,,,,,,248.210327000008,248.3157867000264,249.12469660001807,249.11641380001677,249.11644310000705,249.12469660001807,249.12469660001807,249.12469660001807,250.65001460001804,left,1.0,35.525551999977324,,,,,,,,,,,,,,,,,,,,,,,,,,,,,,,sub-235,1.0,random_dot,119.9705352356494,
right,right,accuracy,,,,,0.0,0.0,0.0,0.0,19.0,1.0,39.0,1.0,250.6564737000153,,,,,,,,,250.650875500025,250.7569230000081,251.56560770000212,251.55686690000584,251.55688970000483,251.56560770000212,251.56560770000212,251.56560770000212,252.84962940000696,left,0.0,35.2889338999812,,,,,,,,,,,,,,,,,,,,,,,,,,,,,,,sub-235,1.0,random_dot,119.9705352356494,
right,right,accuracy,,,,,0.0,0.0,0.0,0.0,20.0,0.0,40.0,1.0,252.85595170001037,,,,,,,,,252.85044160002144,253.20629300002477,254.00699970001008,253.9984989000077,253.99852570000803,254.00699970001008,254.00699970001008,254.00699970001008,255.49935779999944,left,0.0,35.493449300003704,,,,,,,,,,,,,,,,,,,,,,,,,,,,,,,sub-235,1.0,random_dot,119.9705352356494,
left,left,accuracy,,,,,0.0,0.0,0.0,0.0,20.0,1.0,41.0,0.0,255.50559950000024,,,,,,,,,255.5001671000209,255.60532900001272,256.4145916000125,256.4058048000152,256.405819800013,256.4145916000125,256.4145916000125,256.4145916000125,257.8159012000251,left,1.0,35.40120779996505,,,,,,,,,,,,,,,,,,,,,,,,,,,,,,,sub-235,1.0,random_dot,119.9705352356494,
left,left,accuracy,,,,,0.0,0.0,0.0,0.0,21.0,0.0,42.0,0.0,257.8217302999983,,,,,,,,,257.81664260002435,258.6216289000004,259.43048500001896,259.42134190001525,259.4213571000146,259.43048500001896,259.43048500001896,259.43048500001896,260.50599660002626,left,1.0,35.07980199996382,,,,,,,,,,,,,,,,,,,,,,,,,,,,,,,sub-235,1.0,random_dot,119.9705352356494,
right,right,accuracy,,,,,0.0,0.0,0.0,0.0,21.0,1.0,43.0,1.0,260.5123248000164,,,,,,,,,260.5067787000153,261.7120526000217,262.5216394000163,262.5122908000194,262.512305900018,262.5216394000163,262.5216394000163,262.5216394000163,264.1302804000152,right,1.0,35.60881039997912,,,,,,,,,,,,,,,,,,,,,,,,,,,,,,,sub-235,1.0,random_dot,119.9705352356494,
right,right,accuracy,,,,,0.0,0.0,0.0,0.0,22.0,0.0,44.0,1.0,264.1363040000142,,,,,,,,,264.13105360002373,264.2365256000194,265.0451749000058,265.03649610001594,265.0365133000014,265.0451749000058,265.0451749000058,265.0451749000058,266.2291918999981,left,0.0,35.18492839997634,,,,,,,,,,,,,,,,,,,,,,,,,,,,,,,sub-235,1.0,random_dot,119.9705352356494,
left,left,accuracy,,,,,0.0,0.0,0.0,0.0,22.0,1.0,45.0,0.0,266.23572570001124,,,,,,,,,266.22997830001987,266.3358249000157,267.1446847000043,267.136319000012,267.13633490001666,267.1446847000043,267.1446847000043,267.1446847000043,267.788003499998,right,0.0,34.649976699991385,,,,,,,,,,,,,,,,,,,,,,,,,,,,,,,sub-235,1.0,random_dot,119.9705352356494,
right,right,accuracy,,,,,0.0,0.0,0.0,0.0,23.0,0.0,46.0,1.0,267.79385890002595,,,,,,,,,267.78876120000496,267.8934647999995,268.6944446999987,268.6857376000262,268.68575319999945,268.6944446999987,268.6944446999987,268.6944446999987,270.2366888000106,left,0.0,35.542529099970125,,,,,,,,,,,,,,,,,,,,,,,,,,,,,,,sub-235,1.0,random_dot,119.9705352356494,
left,left,accuracy,,,,,0.0,0.0,0.0,0.0,23.0,1.0,47.0,0.0,270.2432380000246,,,,,,,,,270.2374267000123,270.3431624000077,271.15175240000826,271.14299089999986,271.143005800026,271.15175240000826,271.15175240000826,271.15175240000826,273.4939050000103,right,0.0,36.34373669998604,,,,,,,,,,,,,,,,,,,,,,,,,,,,,,,sub-235,1.0,random_dot,119.9705352356494,
right,right,accuracy,,,,,0.0,0.0,0.0,0.0,24.0,0.0,48.0,1.0,273.5004375000135,,,,,,,,,273.494837300008,274.3006232000189,275.1091134000162,275.1003217000107,275.10033570000087,275.1091134000162,275.1091134000162,275.1091134000162,275.80149470001925,right,1.0,34.69401959999232,,,,,,,,,,,,,,,,,,,,,,,,,,,,,,,sub-235,1.0,random_dot,119.9705352356494,
left,left,accuracy,,,,,0.0,0.0,0.0,0.0,24.0,1.0,49.0,0.0,275.8083456000022,,,,,,,,,275.80233560001943,277.00778370001353,277.8170520999993,277.8082385000016,277.8082525000209,277.8170520999993,277.8170520999993,277.8170520999993,278.34664610002073,right,0.0,34.53520379998372,,,,,,,,,,,,,,,,,,,,,,,,,,,,,,,sub-235,1.0,random_dot,119.9705352356494,
right,right,accuracy,,,,,0.0,0.0,0.0,0.0,25.0,0.0,50.0,1.0,278.3524768000061,,,,,,,,,278.3482867999992,279.14910960002453,279.9576817000052,279.9489928999974,279.9490144000156,279.9576817000052,279.9576817000052,279.9576817000052,280.52588910001214,right,1.0,34.5692485999607,,,,,,,,,,,,,,,,,,,,,,,,,,,,,,,sub-235,1.0,random_dot,119.9705352356494,
left,left,accuracy,,,,,0.0,0.0,0.0,0.0,25.0,1.0,51.0,0.0,280.53194950000034,,,,,,,,,280.5266512000235,281.7315467000008,282.5402663999994,282.53153830001247,282.5315520000004,282.5402663999994,282.5402663999994,282.5402663999994,283.0329724000185,left,1.0,34.4971979999973,,,,,,,,,,,,,,,,,,,,,,,,,,,,,,,sub-235,1.0,random_dot,119.9705352356494,
right,right,accuracy,,,,,0.0,0.0,0.0,0.0,26.0,0.0,52.0,1.0,283.03948750000563,,,,,,,,,283.03376160000334,283.8393910000159,284.64821590000065,284.63970739999786,284.6397221000225,284.64821590000065,284.64821590000065,284.64821590000065,285.64019410000765,left,0.0,34.993183399987174,,,,,,,,,,,,,,,,,,,,,,,,,,,,,,,sub-235,1.0,random_dot,119.9705352356494,
left,left,accuracy,,,,,0.0,0.0,0.0,0.0,26.0,1.0,53.0,0.0,285.6468311000208,,,,,,,,,285.64120260000345,286.84665250001126,287.6558924000128,287.6468640000094,287.6468792000087,287.6558924000128,287.6558924000128,287.6558924000128,288.49803460002295,right,0.0,34.84373019999475,,,,,,,,,,,,,,,,,,,,,,,,,,,,,,,sub-235,1.0,random_dot,119.9705352356494,
left,left,accuracy,,,,,0.0,0.0,0.0,0.0,27.0,0.0,54.0,0.0,288.50498680002056,,,,,,,,,288.4988235000055,289.3044878000219,290.10528930000146,290.0966297000123,290.0966449000116,290.10528930000146,290.10528930000146,290.10528930000146,290.964856400009,right,0.0,34.86413019997417,,,,,,,,,,,,,,,,,,,,,,,,,,,,,,,sub-235,1.0,random_dot,119.9705352356494,
right,right,accuracy,,,,,0.0,0.0,0.0,0.0,27.0,1.0,55.0,1.0,290.9709430000221,,,,,,,,,290.9657772000064,291.3204403000127,292.12992140001734,292.1211887000245,292.12121000001207,292.12992140001734,292.12992140001734,292.12992140001734,293.0969077000045,left,0.0,34.97054279997246,,,,,,,,,,,,,,,,,,,,,,,,,,,,,,,sub-235,1.0,random_dot,119.9705352356494,
left,left,accuracy,,,,,0.0,0.0,0.0,0.0,28.0,0.0,56.0,0.0,293.103297499998,,,,,,,,,293.09769310001866,293.2034474000102,294.01237500002026,294.0037510000111,294.00376640001195,294.01237500002026,294.01237500002026,294.01237500002026,295.1130851000198,right,0.0,35.10711619997164,,,,,,,,,,,,,,,,,,,,,,,,,,,,,,,sub-235,1.0,random_dot,119.9705352356494,
right,right,accuracy,,,,,0.0,0.0,0.0,0.0,28.0,1.0,57.0,1.0,295.11941680000746,,,,,,,,,295.1138423000229,295.91925480001373,296.7284117000236,296.71927640002104,296.7192910000158,296.7284117000236,296.7284117000236,296.7284117000236,297.6309329000069,left,0.0,34.90344799996819,,,,,,,,,,,,,,,,,,,,,,,,,,,,,,,sub-235,1.0,random_dot,119.9705352356494,
right,right,accuracy,,,,,0.0,0.0,0.0,0.0,29.0,0.0,58.0,1.0,297.6433235000004,,,,,,,,,297.6343765000056,298.8349887000222,299.64445630001137,299.6351695000194,299.6351842000149,299.64445630001137,299.64445630001137,299.64445630001137,300.3116649000149,right,1.0,34.67253339997842,,,,,,,,,,,,,,,,,,,,,,,,,,,,,,,sub-235,1.0,random_dot,119.9705352356494,
left,left,accuracy,,,,,0.0,0.0,0.0,0.0,29.0,1.0,59.0,0.0,300.3178220000118,,,,,,,,,300.3124467000016,300.4182779000257,301.2275503000128,301.21834110000054,301.21835560002364,301.2275503000128,301.2275503000128,301.2275503000128,302.06967100000475,right,0.0,34.84626589997788,,,,,,,,,,,,,,,,,,,,,,,,,,,,,,,sub-235,1.0,random_dot,119.9705352356494,
,,accuracy,,,,,0.0,0.0,0.0,0.0,,,,,,,,,,,,,,,,,,,,,,,,,,,,,,,,,,,,,,,,,,,,,,,,,,,,,,,,sub-235,1.0,random_dot,119.9705352356494,
right,right,speed,,,,,0.0,1.0,1.0,1.0,0.0,0.0,0.0,1.0,306.0623478000052,,,,,,,,,306.0566450000042,306.1577654000139,306.95892710000044,306.95041990000755,306.9504376000259,306.95892710000044,306.95892710000044,306.95892710000044,308.1850284000102,right,1.0,35.22700649997569,,,,,,,,,,,,,,,,,,,,302.070426899998,302.0796825000143,302.0796825000143,306.0504239000147,space,37.97121499996865,,,,,,sub-235,1.0,random_dot,119.9705352356494,
left,left,speed,,,,,0.0,1.0,1.0,1.0,0.0,1.0,1.0,0.0,308.1906653000042,,,,,,,,,308.1860498000169,309.39030920001096,310.1910888999992,310.1825270000263,310.18254370000795,310.1910888999992,310.1910888999992,310.1910888999992,310.8003507000103,left,1.0,34.61295999996946,,,,,,,,,,,,,,,,,,,,,,,,,,,,,,,sub-235,1.0,random_dot,119.9705352356494,
right,right,speed,,,,,0.0,1.0,1.0,1.0,1.0,0.0,2.0,1.0,310.8070099000179,,,,,,,,,310.8011523000023,311.6063847000187,312.4098111000203,312.3997583000164,312.39981329999864,312.4098111000203,312.4098111000203,312.4098111000203,312.8164120000147,left,0.0,34.40910769999027,,,,,,,,,,,,,,,,,,,,,,,,,,,,,,,sub-235,1.0,random_dot,119.9705352356494,
left,left,speed,,,,,0.0,1.0,1.0,1.0,1.0,1.0,3.0,0.0,312.8230088000128,,,,,,,,,312.8172901000071,313.17288490000647,313.98182870002347,313.97308120000525,313.9730958,313.98182870002347,313.98182870002347,313.98182870002347,314.7080440999998,right,0.0,34.73158959997818,,,,,,,,,,,,,,,,,,,,,,,,,,,,,,,sub-235,1.0,random_dot,119.9705352356494,
right,right,speed,,,,,0.0,1.0,1.0,1.0,2.0,0.0,4.0,1.0,314.7141372000042,,,,,,,,,314.7088222000166,314.8141665000003,315.6232055000146,315.61475300000166,315.61477090002154,315.6232055000146,315.6232055000146,315.6232055000146,316.5001012000139,right,1.0,34.876741599990055,,,,,,,,,,,,,,,,,,,,,,,,,,,,,,,sub-235,1.0,random_dot,119.9705352356494,
left,left,speed,,,,,0.0,1.0,1.0,1.0,2.0,1.0,5.0,0.0,316.5054141000146,,,,,,,,,316.5009267000132,316.6052807000233,317.4140455000161,317.40565010000137,317.4056668000121,317.4140455000161,317.4140455000161,317.4140455000161,318.5228527,left,1.0,35.11047479996341,,,,,,,,,,,,,,,,,,,,,,,,,,,,,,,sub-235,1.0,random_dot,119.9705352356494,
right,right,speed,,,,,0.0,1.0,1.0,1.0,3.0,0.0,6.0,1.0,318.5292989000154,,,,,,,,,318.5236621000222,318.6297795000137,319.4386157000263,319.430116500007,319.4301325000124,319.4386157000263,319.4386157000263,319.4386157000263,319.9731604999979,left,0.0,34.5415697999706,,,,,,,,,,,,,,,,,,,,,,,,,,,,,,,sub-235,1.0,random_dot,119.9705352356494,
left,left,speed,,,,,0.0,1.0,1.0,1.0,3.0,1.0,7.0,0.0,319.97916519999853,,,,,,,,,319.9739468000189,321.17911460000323,321.98788040000363,321.9803845999995,321.9803995999973,321.98788040000363,321.98788040000363,321.98788040000363,322.5301460000046,right,0.0,34.54442499997094,,,,,,,,,,,,,,,,,,,,,,,,,,,,,,,sub-235,1.0,random_dot,119.9705352356494,
left,left,speed,,,,,0.0,1.0,1.0,1.0,4.0,0.0,8.0,0.0,322.53657240001485,,,,,,,,,322.53100100002484,323.3368079000211,324.1457864000113,324.1372051000071,324.13722060000873,324.1457864000113,324.1457864000113,324.1457864000113,324.4641335000051,left,1.0,34.31869220000226,,,,,,,,,,,,,,,,,,,,,,,,,,,,,,,sub-235,1.0,random_dot,119.9705352356494,
right,right,speed,,,,,0.0,1.0,1.0,1.0,4.0,1.0,9.0,1.0,324.46964330002083,,,,,,,,,324.4649236999976,324.5698701000074,325.3786488000187,325.3697588000214,325.3697735000169,325.3786488000187,325.3786488000187,325.3786488000187,326.00725150000653,right,1.0,34.63098649997846,,,,,,,,,,,,,,,,,,,,,,,,,,,,,,,sub-235,1.0,random_dot,119.9705352356494,
right,right,speed,,,,,0.0,1.0,1.0,1.0,5.0,0.0,10.0,1.0,326.01136940001743,,,,,,,,,326.0081088000152,326.1108596000122,326.91999580001,326.9109817999997,326.9109953000152,326.91999580001,326.91999580001,326.91999580001,327.41291100002127,right,1.0,34.499931699974695,,,,,,,,,,,,,,,,,,,,,,,,,,,,,,,sub-235,1.0,random_dot,119.9705352356494,
left,left,speed,,,,,0.0,1.0,1.0,1.0,5.0,1.0,11.0,0.0,327.41932230000384,,,,,,,,,327.41402460000245,327.5188253000088,328.32756679999875,328.3194176000252,328.3194336000015,328.32756679999875,328.32756679999875,328.32756679999875,328.9127151000139,left,1.0,34.59239049997996,,,,,,,,,,,,,,,,,,,,,,,,,,,,,,,sub-235,1.0,random_dot,119.9705352356494,
right,right,speed,,,,,0.0,1.0,1.0,1.0,6.0,0.0,12.0,1.0,328.9183546999993,,,,,,,,,328.91349760000594,330.1179215000011,330.919403900014,330.91076360002626,330.91078020000714,330.919403900014,330.919403900014,330.919403900014,331.4527881000249,left,0.0,34.53727239998989,,,,,,,,,,,,,,,,,,,,,,,,,,,,,,,sub-235,1.0,random_dot,119.9705352356494,
left,left,speed,,,,,0.0,1.0,1.0,1.0,6.0,1.0,13.0,0.0,331.45943260000786,,,,,,,,,331.4535824000195,332.65905990000465,333.46832070001983,333.4589532000245,333.45896720001474,333.46832070001983,333.46832070001983,333.46832070001983,333.943806299998,left,1.0,34.47929079999449,,,,,,,,,,,,,,,,,,,,,,,,,,,,,,,sub-235,1.0,random_dot,119.9705352356494,
left,left,speed,,,,,0.0,1.0,1.0,1.0,7.0,0.0,14.0,0.0,333.950161100016,,,,,,,,,333.94451270002173,334.3004794000008,335.1095370000112,335.1006089000148,335.1006379000028,335.1095370000112,335.1095370000112,335.1095370000112,335.9099093000113,right,0.0,34.80169379999279,,,,,,,,,,,,,,,,,,,,,,,,,,,,,,,sub-235,1.0,random_dot,119.9705352356494,
right,right,speed,,,,,0.0,1.0,1.0,1.0,7.0,1.0,15.0,1.0,335.9162818000186,,,,,,,,,335.91086140001426,336.01624660001835,336.8282924000232,336.8180707000138,336.81812920002267,336.8282924000232,336.8282924000232,336.8282924000232,337.72691860000486,right,1.0,34.8996697999828,,,,,,,,,,,,,,,,,,,,,,,,,,,,,,,sub-235,1.0,random_dot,119.9705352356494,
right,right,speed,,,,,0.0,1.0,1.0,1.0,8.0,0.0,16.0,1.0,337.7324156000104,,,,,,,,,337.72780140000395,338.53265660000034,339.3413412000227,339.3328221999982,339.33283780000056,339.3413412000227,339.3413412000227,339.3413412000227,340.1339683000115,right,1.0,34.7969124999654,,,,,,,,,,,,,,,,,,,,,,,,,,,,,,,sub-235,1.0,random_dot,119.9705352356494,
left,left,speed,,,,,0.0,1.0,1.0,1.0,8.0,1.0,17.0,0.0,340.13912530001835,,,,,,,,,340.13526720000664,340.240177700005,341.0496819000109,341.0403689000232,341.04038580000633,341.0496819000109,341.0496819000109,341.0496819000109,342.0502530000231,right,0.0,35.00674399995478,,,,,,,,,,,,,,,,,,,,,,,,,,,,,,,sub-235,1.0,random_dot,119.9705352356494,
left,left,speed,,,,,0.0,1.0,1.0,1.0,9.0,0.0,18.0,0.0,342.0568392999994,,,,,,,,,342.05105360000744,343.25634280001395,344.0566246000235,344.04856670001755,344.04858100001,344.0566246000235,344.0566246000235,344.0566246000235,344.6658210000023,left,1.0,34.612556799984304,,,,,,,,,,,,,,,,,,,,,,,,,,,,,,,sub-235,1.0,random_dot,119.9705352356494,
right,right,speed,,,,,0.0,1.0,1.0,1.0,9.0,1.0,19.0,1.0,344.67260040002293,,,,,,,,,344.66659220002475,344.7726430000039,345.58204410001053,345.5731755000015,345.5732239000208,345.58204410001053,345.58204410001053,345.58204410001053,346.3572361000115,left,0.0,34.77573129997472,,,,,,,,,,,,,,,,,,,,,,,,,,,,,,,sub-235,1.0,random_dot,119.9705352356494,
left,left,speed,,,,,0.0,1.0,1.0,1.0,10.0,0.0,20.0,0.0,346.3638797000167,,,,,,,,,346.3579903000209,347.16367300000275,347.97277360002045,347.9642854999984,347.96430010002223,347.97277360002045,347.97277360002045,347.97277360002045,348.5076497000118,left,1.0,34.539288100000704,,,,,,,,,,,,,,,,,,,,,,,,,,,,,,,sub-235,1.0,random_dot,119.9705352356494,
right,right,speed,,,,,0.0,1.0,1.0,1.0,10.0,1.0,21.0,1.0,348.5129104000225,,,,,,,,,348.5084340000176,349.3130172000092,350.1221069000021,350.11336680001114,350.11338100000285,350.1221069000021,350.1221069000021,350.1221069000021,350.7616986000212,left,0.0,34.63799029996153,,,,,,,,,,,,,,,,,,,,,,,,,,,,,,,sub-235,1.0,random_dot,119.9705352356494,
left,left,speed,,,,,0.0,1.0,1.0,1.0,11.0,0.0,22.0,0.0,350.7665757000213,,,,,,,,,350.7632023000042,351.5702571000147,352.37157800002024,352.3626173000084,352.36262990001705,352.37157800002024,352.37157800002024,352.37157800002024,352.8225220000022,right,0.0,34.452491799980635,,,,,,,,,,,,,,,,,,,,,,,,,,,,,,,sub-235,1.0,random_dot,119.9705352356494,
right,right,speed,,,,,0.0,1.0,1.0,1.0,11.0,1.0,23.0,1.0,352.8287966000207,,,,,,,,,352.8232933000254,353.1788490000181,353.9878142000234,353.97910310002044,353.9791174000129,353.9878142000234,353.9878142000234,353.9878142000234,354.8464361000224,right,1.0,34.864467699982924,,,,,,,,,,,,,,,,,,,,,,,,,,,,,,,sub-235,1.0,random_dot,119.9705352356494,
right,right,speed,,,,,0.0,1.0,1.0,1.0,12.0,0.0,24.0,1.0,354.8531794000009,,,,,,,,,354.8472108000133,354.9531398000254,355.7618953000056,355.7538659000129,355.75390430001426,355.7618953000056,355.7618953000056,355.7618953000056,356.3316163000127,right,1.0,34.569037299981574,,,,,,,,,,,,,,,,,,,,,,,,,,,,,,,sub-235,1.0,random_dot,119.9705352356494,
left,left,speed,,,,,0.0,1.0,1.0,1.0,12.0,1.0,25.0,0.0,356.3431505000044,,,,,,,,,356.33489450000343,356.43604950001463,357.24481550001656,357.2359796000237,357.23599500002456,357.24481550001656,357.24481550001656,357.24481550001656,357.8875125000195,left,1.0,34.648902999964776,,,,,,,,,,,,,,,,,,,,,,,,,,,,,,,sub-235,1.0,random_dot,119.9705352356494,
left,left,speed,,,,,0.0,1.0,1.0,1.0,13.0,0.0,26.0,0.0,357.8936552000232,,,,,,,,,357.88831880001817,357.9938835000212,358.8031277000264,358.79423330002464,358.79426150000654,358.8031277000264,358.8031277000264,358.8031277000264,359.3376361000119,left,1.0,34.53891389997443,,,,,,,,,,,,,,,,,,,,,,,,,,,,,,,sub-235,1.0,random_dot,119.9705352356494,
right,right,speed,,,,,0.0,1.0,1.0,1.0,13.0,1.0,27.0,1.0,359.3432318000123,,,,,,,,,359.3385317000211,360.14329390000785,360.95188970002346,360.9431902000215,360.9432041000109,360.95188970002346,360.95188970002346,360.95188970002346,362.2196070000064,left,0.0,35.268276399961906,,,,,,,,,,,,,,,,,,,,,,,,,,,,,,,sub-235,1.0,random_dot,119.9705352356494,
left,left,speed,,,,,0.0,1.0,1.0,1.0,14.0,0.0,28.0,0.0,362.2258536000154,,,,,,,,,362.22037049999926,362.3259390000021,363.13469900001655,363.12583970002015,363.1258548000187,363.13469900001655,363.13469900001655,363.13469900001655,363.419237300026,right,0.0,34.29005529999267,,,,,,,,,,,,,,,,,,,,,,,,,,,,,,,sub-235,1.0,random_dot,119.9705352356494,
right,right,speed,,,,,0.0,1.0,1.0,1.0,14.0,1.0,29.0,1.0,363.42576170002576,,,,,,,,,363.4199735000148,364.62562080001226,365.4345119000063,365.42548950001947,365.4255033000081,365.4345119000063,365.4345119000063,365.4345119000063,365.9847767000029,left,0.0,34.55289999995148,,,,,,,,,,,,,,,,,,,,,,,,,,,,,,,sub-235,1.0,random_dot,119.9705352356494,
right,right,speed,,,,,0.0,1.0,1.0,1.0,15.0,0.0,30.0,1.0,365.9918134000036,,,,,,,,,365.98555360001046,366.0915586000192,366.9017298000108,366.8929618000111,366.8929995000072,366.9017298000108,366.9017298000108,366.9017298000108,368.06765660000383,left,0.0,35.17068109998945,,,,,,,,,,,,,,,,,,,,,,,,,,,,,,,sub-235,1.0,random_dot,119.9705352356494,
left,left,speed,,,,,0.0,1.0,1.0,1.0,15.0,1.0,31.0,0.0,368.0740099000104,,,,,,,,,368.068445300014,368.4243862000003,369.2334613999992,369.2247254000104,369.2247392999998,369.2334613999992,369.2334613999992,369.2334613999992,369.86846830000286,right,0.0,34.63848389996565,,,,,,,,,,,,,,,,,,,,,,,,,,,,,,,sub-235,1.0,random_dot,119.9705352356494,
right,right,speed,,,,,0.0,1.0,1.0,1.0,16.0,0.0,32.0,1.0,369.8735517000023,,,,,,,,,369.8692434000259,370.2233833000064,371.032812999998,371.0243363000045,371.02437470000586,371.032812999998,371.032812999998,371.032812999998,371.3832590000238,right,1.0,34.35181169997668,,,,,,,,,,,,,,,,,,,,,,,,,,,,,,,sub-235,1.0,random_dot,119.9705352356494,
left,left,speed,,,,,0.0,1.0,1.0,1.0,16.0,1.0,33.0,0.0,371.3897469000076,,,,,,,,,371.3840412000136,372.19018000000506,372.99891860000207,372.9901880000252,372.9902029000223,372.99891860000207,372.99891860000207,372.99891860000207,373.5828005000076,right,0.0,34.58704579999903,,,,,,,,,,,,,,,,,,,,,,,,,,,,,,,sub-235,1.0,random_dot,119.9705352356494,
left,left,speed,,,,,0.0,1.0,1.0,1.0,17.0,0.0,34.0,0.0,373.5895547000109,,,,,,,,,373.5835893000185,374.3889880000206,375.1899894000089,375.181432900019,375.1814480000176,375.1899894000089,375.1899894000089,375.1899894000089,376.2155757000146,left,1.0,35.02717259997735,,,,,,,,,,,,,,,,,,,,,,,,,,,,,,,sub-235,1.0,random_dot,119.9705352356494,
right,right,speed,,,,,0.0,1.0,1.0,1.0,17.0,1.0,35.0,1.0,376.2223259000166,,,,,,,,,376.2163407000189,376.3223673000175,377.12266950000776,377.1145235000004,377.1145381000242,377.12266950000776,377.12266950000776,377.12266950000776,377.4491901000147,right,1.0,34.332243799988646,,,,,,,,,,,,,,,,,,,,,,,,,,,,,,,sub-235,1.0,random_dot,119.9705352356494,
right,right,speed,,,,,0.0,1.0,1.0,1.0,18.0,0.0,36.0,1.0,377.45470930001466,,,,,,,,,377.4501612000168,378.2547003000218,379.0638971000153,379.055359400023,379.0553847000119,379.0638971000153,379.0638971000153,379.0638971000153,379.59001640000497,left,0.0,34.53325499998755,,,,,,,,,,,,,,,,,,,,,,,,,,,,,,,sub-235,1.0,random_dot,119.9705352356494,
left,left,speed,,,,,0.0,1.0,1.0,1.0,18.0,1.0,37.0,0.0,379.595730400004,,,,,,,,,379.59095199999865,380.7959221000201,381.6046973000048,381.5958690000116,381.59588310000254,381.6046973000048,381.6046973000048,381.6046973000048,381.940168400004,left,1.0,34.33519869999145,,,,,,,,,,,,,,,,,,,,,,,,,,,,,,,sub-235,1.0,random_dot,119.9705352356494,
left,left,speed,,,,,0.0,1.0,1.0,1.0,19.0,0.0,38.0,0.0,381.9454944000172,,,,,,,,,381.9409915000142,382.7449714000104,383.54599370001233,383.5371970999986,383.5372145000146,383.54599370001233,383.54599370001233,383.54599370001233,383.8555920000072,right,0.0,34.31474769997294,,,,,,,,,,,,,,,,,,,,,,,,,,,,,,,sub-235,1.0,random_dot,119.9705352356494,
right,right,speed,,,,,0.0,1.0,1.0,1.0,19.0,1.0,39.0,1.0,383.8615454000246,,,,,,,,,383.8564168000012,385.06146389999776,385.8703461000114,385.8617959000112,385.8618103000045,385.8703461000114,385.8703461000114,385.8703461000114,386.9708709999977,left,0.0,35.10220079997089,,,,,,,,,,,,,,,,,,,,,,,,,,,,,,,sub-235,1.0,random_dot,119.9705352356494,
left,left,speed,,,,,0.0,1.0,1.0,1.0,20.0,0.0,40.0,0.0,386.9772552000068,,,,,,,,,386.9716479000053,388.1772641999996,388.9862014000246,388.9779988000228,388.9780466000084,388.9862014000246,388.9862014000246,388.9862014000246,390.3697438000236,right,0.0,35.38403559997096,,,,,,,,,,,,,,,,,,,,,,,,,,,,,,,sub-235,1.0,random_dot,119.9705352356494,
right,right,speed,,,,,0.0,1.0,1.0,1.0,20.0,1.0,41.0,1.0,390.3765154000139,,,,,,,,,390.3704824000015,390.7260143000167,391.5269693000009,391.5186679000035,391.518682200025,391.5269693000009,391.5269693000009,391.5269693000009,392.502668400004,right,1.0,34.976231699984055,,,,,,,,,,,,,,,,,,,,,,,,,,,,,,,sub-235,1.0,random_dot,119.9705352356494,
right,right,speed,,,,,0.0,1.0,1.0,1.0,21.0,0.0,42.0,1.0,392.5089798000117,,,,,,,,,392.50358140000026,392.85924910000176,393.6599687999988,393.6516271000146,393.6516426000162,393.6599687999988,393.6599687999988,393.6599687999988,394.7017940000224,left,0.0,35.04429969997727,,,,,,,,,,,,,,,,,,,,,,,,,,,,,,,sub-235,1.0,random_dot,119.9705352356494,
left,left,speed,,,,,0.0,1.0,1.0,1.0,21.0,1.0,43.0,0.0,394.708235099999,,,,,,,,,394.7026223000139,395.5084774999996,396.3179063000134,396.3088413000223,396.3088571000262,396.3179063000134,396.3179063000134,396.3179063000134,397.1435119000089,left,1.0,34.83237299998291,,,,,,,,,,,,,,,,,,,,,,,,,,,,,,,sub-235,1.0,random_dot,119.9705352356494,
right,right,speed,,,,,0.0,1.0,1.0,1.0,22.0,0.0,44.0,1.0,397.149338200019,,,,,,,,,397.1442772000155,397.94918060000055,398.7581074000045,398.74946720001753,398.74948110000696,398.7581074000045,398.7581074000045,398.7581074000045,400.39233630002127,left,0.0,35.63568949996261,,,,,,,,,,,,,,,,,,,,,,,,,,,,,,,sub-235,1.0,random_dot,119.9705352356494,
left,left,speed,,,,,0.0,1.0,1.0,1.0,22.0,1.0,45.0,0.0,400.3990546000132,,,,,,,,,400.3930994000111,400.7484789000009,401.5530842000153,401.5419432000199,401.54200120002497,401.5530842000153,401.5530842000153,401.5530842000153,402.1672982000164,right,0.0,34.61597929996788,,,,,,,,,,,,,,,,,,,,,,,,,,,,,,,sub-235,1.0,random_dot,119.9705352356494,
right,right,speed,,,,,0.0,1.0,1.0,1.0,23.0,0.0,46.0,1.0,402.1732762000174,,,,,,,,,402.1683147000149,403.3727162000141,404.1812537000224,404.172967600025,404.1729840000044,404.1812537000224,404.1812537000224,404.1812537000224,405.0326251000224,right,1.0,34.85742299997946,,,,,,,,,,,,,,,,,,,,,,,,,,,,,,,sub-235,1.0,random_dot,119.9705352356494,
left,left,speed,,,,,0.0,1.0,1.0,1.0,23.0,1.0,47.0,0.0,405.0394278000167,,,,,,,,,405.0333667000232,405.83898100000806,406.6476378000225,406.63902280002367,406.6390377000207,406.6476378000225,406.6476378000225,406.6476378000225,407.5909794000036,right,0.0,34.94294609996723,,,,,,,,,,,,,,,,,,,,,,,,,,,,,,,sub-235,1.0,random_dot,119.9705352356494,
left,left,speed,,,,,0.0,1.0,1.0,1.0,24.0,0.0,48.0,0.0,407.596709800011,,,,,,,,,407.59186919999775,407.9467867000203,408.7557357000187,408.7470389000082,408.7470627000148,408.7557357000187,408.7557357000187,408.7557357000187,409.4731470000115,right,0.0,34.72064899999532,,,,,,,,,,,,,,,,,,,,,,,,,,,,,,,sub-235,1.0,random_dot,119.9705352356494,
right,right,speed,,,,,0.0,1.0,1.0,1.0,24.0,1.0,49.0,1.0,409.4794030000048,,,,,,,,,409.473893700022,410.6789644000237,411.4797630000103,411.47133840000606,411.4713588000159,411.4797630000103,411.4797630000103,411.4797630000103,412.1811273000203,right,1.0,34.70168499997817,,,,,,,,,,,,,,,,,,,,,,,,,,,,,,,sub-235,1.0,random_dot,119.9705352356494,
left,left,speed,,,,,0.0,1.0,1.0,1.0,25.0,0.0,50.0,0.0,412.1867611000198,,,,,,,,,412.1821739000152,412.2867810000025,413.0917144000123,413.08003870002,413.0800862000033,413.0917144000123,413.0917144000123,413.0917144000123,414.2489063000248,right,0.0,35.16434219997609,,,,,,,,,,,,,,,,,,,,,,,,,,,,,,,sub-235,1.0,random_dot,119.9705352356494,
right,right,speed,,,,,0.0,1.0,1.0,1.0,25.0,1.0,51.0,1.0,414.2528635000053,,,,,,,,,414.2496530000062,414.60295890001,415.4120192000119,415.40333660002216,415.40335840001353,415.4120192000119,415.4120192000119,415.4120192000119,416.4609362000192,left,0.0,35.0552408999647,,,,,,,,,,,,,,,,,,,,,,,,,,,,,,,sub-235,1.0,random_dot,119.9705352356494,
right,right,speed,,,,,0.0,1.0,1.0,1.0,26.0,0.0,52.0,1.0,416.46756700001424,,,,,,,,,416.462482700008,417.2686394000193,418.070114800008,418.0608540000103,418.0608685000043,418.070114800008,418.070114800008,418.070114800008,418.5298604000127,left,0.0,34.460371099965414,,,,,,,,,,,,,,,,,,,,,,,,,,,,,,,sub-235,1.0,random_dot,119.9705352356494,
left,left,speed,,,,,0.0,1.0,1.0,1.0,26.0,1.0,53.0,0.0,418.5355614,,,,,,,,,418.530654000002,419.7348052000161,420.5354438000068,420.5270567999978,420.527069600008,420.5354438000068,420.5354438000068,420.5354438000068,420.8616299999994,right,0.0,34.32691659996635,,,,,,,,,,,,,,,,,,,,,,,,,,,,,,,sub-235,1.0,random_dot,119.9705352356494,
left,left,speed,,,,,0.0,1.0,1.0,1.0,27.0,0.0,54.0,0.0,420.86776300001657,,,,,,,,,420.8624861999997,420.9680387000262,421.7811630000069,421.7692349000136,421.7692883000127,421.7811630000069,421.7811630000069,421.7811630000069,422.4944674000144,left,1.0,34.71521079997183,,,,,,,,,,,,,,,,,,,,,,,,,,,,,,,sub-235,1.0,random_dot,119.9705352356494,
right,right,speed,,,,,0.0,1.0,1.0,1.0,27.0,1.0,55.0,1.0,422.50056670000777,,,,,,,,,422.4960036000121,422.6007554000244,423.4100389000087,423.4015902000247,423.401611600013,423.4100389000087,423.4100389000087,423.4100389000087,424.1355689000047,left,0.0,34.725635899958434,,,,,,,,,,,,,,,,,,,,,,,,,,,,,,,sub-235,1.0,random_dot,119.9705352356494,
left,left,speed,,,,,0.0,1.0,1.0,1.0,28.0,0.0,56.0,0.0,424.1418484000024,,,,,,,,,424.136416000023,424.9419332000252,425.7424444000062,425.7342567000014,425.7342767000082,425.7424444000062,425.7424444000062,425.7424444000062,426.33470870001474,right,0.0,34.59341199998744,,,,,,,,,,,,,,,,,,,,,,,,,,,,,,,sub-235,1.0,random_dot,119.9705352356494,
right,right,speed,,,,,0.0,1.0,1.0,1.0,28.0,1.0,57.0,1.0,426.3411051000003,,,,,,,,,426.3355079000176,426.4416280000005,427.2509207999974,427.2420309000008,427.2420614000002,427.2509207999974,427.2509207999974,427.2509207999974,427.81791220000014,left,0.0,34.57057079998776,,,,,,,,,,,,,,,,,,,,,,,,,,,,,,,sub-235,1.0,random_dot,119.9705352356494,
left,left,speed,,,,,0.0,1.0,1.0,1.0,29.0,0.0,58.0,0.0,427.8242030000256,,,,,,,,,427.8188468000153,428.62398670002585,429.4329741000256,429.4243696000194,429.4243931000237,429.4329741000256,429.4329741000256,429.4329741000256,430.0675226000021,right,0.0,34.64033019996714,,,,,,,,,,,,,,,,,,,,,,,,,,,,,,,sub-235,1.0,random_dot,119.9705352356494,
right,right,speed,,,,,0.0,1.0,1.0,1.0,29.0,1.0,59.0,1.0,430.0735911000229,,,,,,,,,430.0688347000105,430.8734380000096,431.6866580000205,431.67489010002464,431.67494230001466,431.6866580000205,431.6866580000205,431.6866580000205,432.6168905000086,left,0.0,34.93430879997322,,,,,,,,,,,,,,,,,,,,,,,,,,,,,,,sub-235,1.0,random_dot,119.9705352356494,
,,speed,,,,,0.0,1.0,1.0,1.0,,,,,,,,,,,,,,,,,,,,,,,,,,,,,,,,,,,,,,,,,,,,,,,,,,,,,,,,sub-235,1.0,random_dot,119.9705352356494,
,,,,,,,,,,,,,,,,,,,,,,,,,,,,,,,,,,,,,,,,,,,,,,,,,,,,,,,,,,,,,,,432.61763110000174,432.62298490002286,437.6218961999985,sub-235,,,,
